timestamp,AccX,AccY,AccZ,GyroX,GyroY,GyroZ,MagX,MagY,MagZ,Activity
2019-07-15_142020:800,-0.353851,0.05996699999999999,-0.29180900000000004,-0.0021079999999999996,0.041056999999999996,-0.013115,-28.5,-30.5,-17.18,1b
2019-07-15_142020:820,-0.34063699999999997,0.069641,-0.300964,-0.0051600000000000005,0.036144,-0.01339,-29.0,-30.5,-16.5,1b
2019-07-15_142020:840,-0.361481,0.061005,-0.29232800000000003,-0.008211,0.028941,-0.007744,-29.0,-30.5,-16.5,1b
2019-07-15_142020:860,-0.392487,0.050323,-0.296387,-0.009859,0.024669,-0.005028,-29.0,-30.5,-16.5,1b
2019-07-15_142020:880,-0.388916,0.054901,-0.305542,-0.010531,0.024333,-0.004967,-29.75,-30.870001000000002,-16.0,1b
2019-07-15_142020:900,-0.384338,0.057953,-0.308075,-0.011507,0.022746000000000002,-0.002648,-29.75,-30.870001000000002,-16.0,1b
2019-07-15_142020:920,-0.402649,0.05438200000000001,-0.30249000000000004,-0.01404,0.020885,-0.001641,-29.0,-31.18,-16.75,1b
2019-07-15_142020:940,-0.39502,0.047272,-0.301483,-0.017366999999999997,0.020641,-0.0009689999999999999,-29.0,-31.18,-16.75,1b
2019-07-15_142020:960,-0.412811,0.035065,-0.30300900000000003,-0.018831,0.021159,0.000831,-29.0,-31.18,-16.75,1b
2019-07-15_142020:980,-0.41333000000000003,0.038116000000000004,-0.29538000000000003,-0.020418000000000002,0.023418,0.000496,-29.68,-30.870001000000002,-14.5,1b
2019-07-15_142021:000,-0.41485600000000006,0.046265,-0.28369099999999997,-0.021212,0.026256,0.000496,-29.68,-30.870001000000002,-14.5,1b
2019-07-15_142021:020,-0.40011599999999997,0.043701,-0.27301,-0.022249,0.028208999999999998,0.000984,-31.18,-31.559998999999998,-12.87,1b
2019-07-15_142021:040,-0.391479,0.037598,-0.261322,-0.022616,0.028727999999999997,0.000984,-31.18,-31.559998999999998,-12.87,1b
2019-07-15_142021:060,-0.40570100000000003,0.031494,-0.256226,-0.020815,0.027873000000000002,-0.001702,-31.18,-31.559998999999998,-12.87,1b
2019-07-15_142021:080,-0.409271,0.03302,-0.260803,-0.017366999999999997,0.027873000000000002,-0.003899,-30.75,-32.0,-12.87,1b
2019-07-15_142021:100,-0.432159,0.046752999999999996,-0.257233,-0.011233,0.026744,-0.0029219999999999997,-30.75,-32.0,-12.87,1b
2019-07-15_142021:120,-0.433167,0.05438200000000001,-0.250641,-0.005465,0.026256,-0.0010609999999999999,-31.18,-32.68,-11.75,1b
2019-07-15_142021:140,-0.523651,0.063019,-0.23486300000000002,0.001188,0.026256,-0.000176,-31.18,-32.68,-11.75,1b
2019-07-15_142021:160,-0.505371,0.048279,-0.25827,0.006254,0.020030000000000003,0.001045,-31.18,-32.68,-11.75,1b
2019-07-15_142021:180,-0.5495909999999999,0.025908999999999998,-0.220642,0.014677,0.014995,0.003181,-31.5,-31.559998999999998,-9.87,1b
2019-07-15_142021:200,-0.50943,0.019806,-0.220642,0.025907,0.019115,-0.0011220000000000002,-31.5,-31.559998999999998,-9.87,1b
2019-07-15_142021:220,-0.45196499999999995,0.008118,-0.212006,0.040159,0.024333,-0.0028309999999999997,-31.5,-31.18,-10.25,1b
2019-07-15_142021:240,-0.43927,-0.013702,-0.208954,0.057035,0.024547,-0.003899,-31.5,-31.18,-10.25,1b
2019-07-15_142021:260,-0.414337,-0.042694,-0.225739,0.077665,0.022868,-0.006218,-31.5,-31.18,-10.25,1b
2019-07-15_142021:280,-0.40774499999999997,-0.065063,-0.239441,0.104399,0.019298,-0.005364,-31.870001000000002,-31.559998999999998,-11.75,1b
2019-07-15_142021:300,-0.394531,-0.078278,-0.245056,0.13528199999999999,0.016765000000000002,-0.0054859999999999996,-31.870001000000002,-31.559998999999998,-11.75,1b
2019-07-15_142021:320,-0.389954,-0.081329,-0.25317399999999995,0.165953,0.014659,-0.008355,-33.0,-30.870001000000002,-14.18,1b
2019-07-15_142021:340,-0.42758199999999996,-0.066071,-0.28064,0.196134,0.012462,-0.013207,-33.0,-30.870001000000002,-14.18,1b
2019-07-15_142021:360,-0.42858900000000005,-0.037598,-0.301483,0.22207399999999997,0.0106,-0.019646,-33.0,-30.870001000000002,-14.18,1b
2019-07-15_142021:380,-0.447906,0.007111,-0.305054,0.241484,0.010875,-0.022941999999999997,-32.560001,-28.559998999999998,-18.870001000000002,1b
2019-07-15_142021:400,-0.449432,0.03302,-0.31369,0.253233,0.012523000000000001,-0.026146,-32.560001,-28.559998999999998,-18.870001000000002,1b
2019-07-15_142021:420,-0.431122,0.06253099999999999,-0.30654899999999996,0.256407,0.016124,-0.031577999999999995,-32.5,-25.0,-22.370001000000002,1b
2019-07-15_142021:440,-0.440796,0.082855,-0.305542,0.253752,0.020091,-0.037957,-32.5,-25.0,-22.370001000000002,1b
2019-07-15_142021:460,-0.439758,0.11843900000000002,-0.29538000000000003,0.24597,0.023143,-0.04525,-32.5,-25.0,-22.370001000000002,1b
2019-07-15_142021:480,-0.43823199999999995,0.131653,-0.279114,0.23177899999999999,0.025005,-0.047631,-32.560001,-19.75,-28.370001000000002,1b
2019-07-15_142021:500,-0.441803,0.119965,-0.25012199999999996,0.21188099999999999,0.024669,-0.045525,-32.560001,-19.75,-28.370001000000002,1b
2019-07-15_142021:520,-0.434692,0.104218,-0.23284899999999997,0.190641,0.022105,-0.046044,-32.75,-14.56,-31.559998999999998,1b
2019-07-15_142021:540,-0.43670699999999996,0.082855,-0.20385699999999998,0.171842,0.019756,-0.048302,-32.75,-14.56,-31.559998999999998,1b
2019-07-15_142021:560,-0.429596,0.075745,-0.18811,0.156309,0.016978,-0.048241,-32.75,-14.56,-31.559998999999998,1b
2019-07-15_142021:580,-0.415375,0.056915,-0.167755,0.141508,0.012248,-0.047234,-34.25,-10.25,-31.559998999999998,1b
2019-07-15_142021:600,-0.406738,0.046265,-0.160126,0.129576,0.004436,-0.047051,-34.25,-10.25,-31.559998999999998,1b
2019-07-15_142021:620,-0.402649,0.031494,-0.147949,0.11959600000000001,-0.005147,-0.047051,-33.25,-6.56,-33.869999,1b
2019-07-15_142021:640,-0.397064,0.029968,-0.13269,0.111051,-0.013844,-0.046898,-33.25,-6.56,-33.869999,1b
2019-07-15_142021:660,-0.39859,0.030487,-0.132172,0.103208,-0.022542,-0.045403,-33.25,-6.56,-33.869999,1b
2019-07-15_142021:680,-0.407227,0.029480000000000003,-0.139801,0.09496900000000001,-0.031239,-0.04345,-32.18,-4.87,-34.68,1b
2019-07-15_142021:700,-0.43621800000000005,0.029968,-0.152527,0.088011,-0.038411,-0.04113,-32.18,-4.87,-34.68,1b
2019-07-15_142021:720,-0.45553599999999994,0.028442000000000002,-0.163696,0.080992,-0.041066000000000005,-0.037346,-30.25,-2.18,-35.25,1b
2019-07-15_142021:740,-0.474854,0.026917,-0.176422,0.074491,-0.039814999999999996,-0.032891000000000004,-30.25,-2.18,-35.25,1b
2019-07-15_142021:760,-0.46926899999999994,0.026917,-0.185059,0.06841799999999999,-0.036153,-0.029198,-30.25,-2.18,-35.25,1b
2019-07-15_142021:780,-0.455017,0.017273,-0.188599,0.062925,-0.032368,-0.026726,-30.25,-0.68,-35.25,1b
2019-07-15_142021:800,-0.44891400000000004,0.013702,-0.189117,0.058225,-0.028584,-0.025596999999999998,-30.25,-0.68,-35.25,1b
2019-07-15_142021:820,-0.446899,0.008118,-0.192169,0.052824,-0.025287999999999998,-0.020347999999999998,-29.870001000000002,1.25,-36.060001,1b
2019-07-15_142021:840,-0.45095799999999997,0.0030210000000000002,-0.189117,0.050901,-0.023885,-0.018578,-29.870001000000002,1.25,-36.060001,1b
2019-07-15_142021:860,-0.441284,-0.004059,-0.191162,0.046781,-0.02068,-0.018029,-29.870001000000002,1.25,-36.060001,1b
2019-07-15_142021:880,-0.443329,-0.006072999999999999,-0.193695,0.045652,-0.020558,-0.018578,-28.370001000000002,2.0,-37.68,1b
2019-07-15_142021:900,-0.455017,-0.007111,-0.20538299999999998,0.042814,-0.023030000000000002,-0.019584999999999998,-28.370001000000002,2.0,-37.68,1b
2019-07-15_142021:920,-0.47079499999999996,-0.006592,-0.20944200000000002,0.04083,-0.022755,-0.019951,-26.559998999999998,3.56,-38.5,1b
2019-07-15_142021:940,-0.482483,-0.008118,-0.213531,0.038816,-0.021168,-0.01989,-26.559998999999998,3.56,-38.5,1b
2019-07-15_142021:960,-0.485016,-0.007599,-0.219635,0.036711,-0.019704,-0.019431999999999998,-26.559998999999998,3.56,-38.5,1b
2019-07-15_142021:980,-0.482483,-0.004547,-0.231323,0.034727,-0.018819,-0.017174000000000002,-26.559998999999998,4.25,-37.869999,1b
2019-07-15_142022:000,-0.477386,-0.0035399999999999997,-0.23895300000000003,0.03198,-0.01656,-0.014336000000000002,-26.559998999999998,4.25,-37.869999,1b
2019-07-15_142022:020,-0.495697,-0.008118,-0.25216700000000003,0.029081,-0.014119,-0.012597,-25.870001000000002,5.37,-38.369999,1b
2019-07-15_142022:040,-0.522125,-0.013702,-0.2547,0.02609,-0.011525,-0.014061,-25.870001000000002,5.37,-38.369999,1b
2019-07-15_142022:060,-0.536377,-0.019318000000000002,-0.262848,0.022428,-0.009602,-0.014122,-25.870001000000002,5.37,-38.369999,1b
2019-07-15_142022:080,-0.5404359999999999,-0.031494,-0.248108,0.018919,-0.0035600000000000002,-0.010796,-25.870001000000002,5.75,-38.369999,1b
2019-07-15_142022:100,-0.502319,-0.044739,-0.259796,0.015745,0.000682,-0.009667,-25.870001000000002,5.75,-38.369999,1b
2019-07-15_142022:120,-0.482483,-0.05285599999999999,-0.262329,0.013334,-0.00044699999999999997,-0.007683,-25.5,6.25,-39.560001,1b
2019-07-15_142022:140,-0.423492,-0.0737,-0.252686,0.012419,-0.0035600000000000002,-0.004753,-25.5,6.25,-39.560001,1b
2019-07-15_142022:160,-0.391968,-0.0849,-0.261322,0.012815,-0.006886,-0.005883,-25.5,6.25,-39.560001,1b
2019-07-15_142022:180,-0.364532,-0.09201000000000001,-0.255707,0.012937,-0.008931,-0.005303,-25.5,7.37,-38.560001,1b
2019-07-15_142022:200,-0.358917,-0.094055,-0.259277,0.013090000000000001,-0.011525,-0.0008470000000000001,-25.5,7.37,-38.560001,1b
2019-07-15_142022:220,-0.388916,-0.097595,-0.277588,0.012541,-0.013142,0.001716,-25.059998999999998,7.68,-39.75,1b
2019-07-15_142022:240,-0.392487,-0.097595,-0.28369099999999997,0.011473,-0.011464,0.001503,-25.059998999999998,7.68,-39.75,1b
2019-07-15_142022:260,-0.382324,-0.09454299999999999,-0.293335,0.010038,-0.008748,-0.002098,-25.059998999999998,7.68,-39.75,1b
2019-07-15_142022:280,-0.372162,-0.08843999999999999,-0.296906,0.008421,-0.007679999999999999,-0.007683,-24.68,8.5,-39.75,1b
2019-07-15_142022:300,-0.368591,-0.080322,-0.307587,0.006314999999999999,-0.008992,-0.010064,-24.68,8.5,-39.75,1b
2019-07-15_142022:320,-0.381317,-0.076263,-0.314178,0.004789,-0.011342,-0.010003,-24.059998999999998,8.06,-40.560001,1b
2019-07-15_142022:340,-0.402649,-0.068115,-0.322845,0.003599,-0.012776000000000001,-0.010338,-24.059998999999998,8.06,-40.560001,1b
2019-07-15_142022:360,-0.406219,-0.065582,-0.319794,0.00305,-0.012013,-0.011528,-24.059998999999998,8.06,-40.560001,1b
2019-07-15_142022:380,-0.42401099999999997,-0.057953,-0.303528,0.002012,-0.008015000000000001,-0.012657999999999999,-24.5,9.56,-39.0,1b
2019-07-15_142022:400,-0.420959,-0.053863999999999995,-0.290802,0.00073,-0.001912,-0.010948999999999999,-24.5,9.56,-39.0,1b
2019-07-15_142022:420,-0.391479,-0.051330999999999995,-0.279114,-0.00107,0.0024519999999999998,-0.008477,-24.75,8.06,-40.560001,1b
2019-07-15_142022:440,-0.375702,-0.049316000000000006,-0.270966,-0.00339,0.004375,-0.008355,-24.75,8.06,-40.560001,1b
2019-07-15_142022:460,-0.359955,-0.050323,-0.266907,-0.0056170000000000005,0.0031850000000000003,-0.008140999999999999,-24.75,8.06,-40.560001,1b
2019-07-15_142022:480,-0.367584,-0.052338,-0.267914,-0.007479,0.00022400000000000002,-0.007286,-24.059998999999998,8.87,-40.560001,1b
2019-07-15_142022:500,-0.384857,-0.056915,-0.266388,-0.008791,-0.001576,-0.007561,-24.059998999999998,8.87,-40.560001,1b
2019-07-15_142022:520,-0.399109,-0.051849,-0.264862,-0.009524,-0.001027,-0.007073,-24.059998999999998,8.87,-40.18,1b
2019-07-15_142022:540,-0.40063499999999996,-0.051849,-0.262329,-0.010378,0.001415,-0.002709,-24.059998999999998,8.87,-40.18,1b
2019-07-15_142022:560,-0.40368699999999996,-0.053863999999999995,-0.259277,-0.010714,0.004039,-0.00045099999999999996,-24.059998999999998,8.87,-40.18,1b
2019-07-15_142022:580,-0.405212,-0.051849,-0.253693,-0.011720999999999999,0.00703,-0.000786,-24.059998999999998,7.68,-40.18,1b
2019-07-15_142022:600,-0.411804,-0.050842,-0.24658200000000002,-0.013125,0.009531999999999999,0.001625,-24.059998999999998,7.68,-40.18,1b
2019-07-15_142022:620,-0.409271,-0.051849,-0.245056,-0.015047,0.011455,0.004097,-24.5,7.68,-39.75,1b
2019-07-15_142022:640,-0.40774499999999997,-0.051330999999999995,-0.23791500000000002,-0.017428,0.012584,0.0038829999999999997,-24.5,7.68,-39.75,1b
2019-07-15_142022:660,-0.412811,-0.049316000000000006,-0.240479,-0.019411,0.012248,0.004951,-24.5,7.68,-39.75,1b
2019-07-15_142022:680,-0.43518100000000004,-0.051330999999999995,-0.245056,-0.021792,0.010204000000000001,0.007148000000000001,-24.5,7.37,-39.5,1b
2019-07-15_142022:700,-0.451477,-0.05438200000000001,-0.245056,-0.023867,0.00822,0.008064,-24.5,7.37,-39.5,1b
2019-07-15_142022:720,-0.469757,-0.056427,-0.244019,-0.025240000000000002,0.008067,0.007026,-26.0,5.87,-39.060001,1b
2019-07-15_142022:740,-0.484497,-0.057434000000000006,-0.24096700000000001,-0.025789,0.009134999999999999,0.005439,-26.0,5.87,-39.060001,1b
2019-07-15_142022:760,-0.47842399999999996,-0.056915,-0.23995999999999998,-0.025393000000000002,0.011058,0.005439,-26.0,5.87,-39.060001,1b
2019-07-15_142022:780,-0.46823100000000006,-0.054901,-0.24353000000000002,-0.024386,0.012126000000000001,0.007484,-26.0,5.5,-39.75,1b
2019-07-15_142022:800,-0.465179,-0.052338,-0.24353000000000002,-0.022921,0.011607,0.010657999999999999,-26.0,5.5,-39.75,1b
2019-07-15_142022:820,-0.472321,-0.049805,-0.241486,-0.022127,0.011668000000000001,0.012794,-26.68,4.75,-39.0,1b
2019-07-15_142022:840,-0.519592,-0.048279,-0.25012199999999996,-0.021547,0.010936,0.015632,-26.68,4.75,-39.0,1b
2019-07-15_142022:860,-0.47943100000000005,-0.043213,-0.261322,-0.021853,0.007548999999999999,0.018959,-26.68,4.75,-39.0,1b
2019-07-15_142022:880,-0.502808,-0.044219999999999995,-0.265381,-0.022524000000000002,0.005748,0.021278000000000002,-27.059998999999998,4.37,-39.0,1b
2019-07-15_142022:900,-0.496216,-0.039124,-0.266388,-0.023073,0.0029100000000000003,0.019081,-27.059998999999998,4.37,-39.0,1b
2019-07-15_142022:920,-0.465179,-0.021851,-0.268433,-0.024659999999999998,0.001353,0.017555,-27.059998999999998,4.0,-39.0,1b
2019-07-15_142022:940,-0.44027700000000003,-0.021851,-0.262848,-0.02585,0.00471,0.017981999999999998,-27.059998999999998,4.0,-39.0,1b
2019-07-15_142022:960,-0.402649,-0.01828,-0.25317399999999995,-0.027163,0.0106,0.013984,-27.059998999999998,4.0,-39.0,1b
2019-07-15_142022:980,-0.40011599999999997,-0.012177,-0.25216700000000003,-0.027712,0.015971,0.012123,-27.5,3.25,-39.5,1b
2019-07-15_142023:000,-0.382812,-0.012695,-0.253693,-0.027773000000000003,0.018687,0.01258,-27.5,3.25,-39.5,1b
2019-07-15_142023:020,-0.381805,-0.008118,-0.254211,-0.028048000000000003,0.017894,0.010078,-27.75,2.87,-39.0,1b
2019-07-15_142023:040,-0.380798,0.000488,-0.259796,-0.027833999999999998,0.01414,0.008796,-27.75,2.87,-39.0,1b
2019-07-15_142023:060,-0.397064,-0.001007,-0.266388,-0.027498,0.009959,0.0084,-27.75,2.87,-39.0,1b
2019-07-15_142023:080,-0.41485600000000006,0.002014,-0.280121,-0.027101999999999998,0.006358,0.007087,-28.5,2.18,-38.25,1b
2019-07-15_142023:100,-0.421967,0.004059,-0.286224,-0.026125,0.003124,0.008216,-28.5,2.18,-38.25,1b
2019-07-15_142023:120,-0.43621800000000005,0.0030210000000000002,-0.28674299999999997,-0.025332,0.001415,0.010017,-29.25,2.5,-37.75,1b
2019-07-15_142023:140,-0.44232200000000005,0.004059,-0.274536,-0.024538,0.0034289999999999998,0.011879,-29.25,2.5,-37.75,1b
2019-07-15_142023:160,-0.445374,0.001007,-0.25116,-0.02405,0.008952,0.01493,-29.25,2.5,-37.75,1b
2019-07-15_142023:180,-0.43518100000000004,-0.000488,-0.23690799999999998,-0.024141,0.015513999999999998,0.018562000000000002,-28.870001000000002,1.5,-38.25,1b
2019-07-15_142023:200,-0.41232299999999994,-0.006072999999999999,-0.21859699999999999,-0.024782,0.019176,0.022102,-28.870001000000002,1.5,-38.25,1b
2019-07-15_142023:220,-0.397064,-0.013702,-0.208954,-0.025637,0.019176,0.024269,-28.5,1.5,-37.5,1b
2019-07-15_142023:240,-0.401642,-0.022369,-0.194214,-0.026583,0.016246,0.024879,-28.5,1.5,-37.5,1b
2019-07-15_142023:260,-0.404694,-0.025908999999999998,-0.187073,-0.026766,0.012981,0.023811000000000002,-28.5,1.5,-37.5,1b
2019-07-15_142023:280,-0.42248500000000005,-0.032532,-0.18454,-0.025911,0.010204000000000001,0.020759,-30.370001000000002,1.5,-37.060001,1b
2019-07-15_142023:300,-0.417908,-0.032013,-0.186066,-0.024599,0.008098000000000001,0.018959,-30.370001000000002,1.5,-37.060001,1b
2019-07-15_142023:320,-0.406219,-0.037108999999999996,-0.184021,-0.022799,0.005443,0.017891,-29.25,1.37,-35.869999,1b
2019-07-15_142023:340,-0.40063499999999996,-0.034058,-0.18811,-0.020418000000000002,0.0024519999999999998,0.012733,-29.25,1.37,-35.869999,1b
2019-07-15_142023:360,-0.41384899999999997,-0.026427999999999997,-0.19775399999999999,-0.017884999999999998,0.0008039999999999999,0.008612999999999999,-29.25,1.37,-35.869999,1b
2019-07-15_142023:380,-0.425018,-0.024902,-0.20486500000000002,-0.015413,0.001628,0.0063549999999999995,-30.370001000000002,1.0,-35.5,1b
2019-07-15_142023:400,-0.434174,-0.022858,-0.20538299999999998,-0.013247,0.003825,0.003822,-30.370001000000002,1.0,-35.5,1b
2019-07-15_142023:420,-0.44281000000000004,-0.022858,-0.205902,-0.010988,0.005961999999999999,0.0018989999999999999,-30.370001000000002,0.25,-36.369999,1b
2019-07-15_142023:440,-0.453491,-0.022858,-0.19927999999999998,-0.00873,0.008434,0.001167,-30.370001000000002,0.25,-36.369999,1b
2019-07-15_142023:460,-0.46417200000000003,-0.021851,-0.196747,-0.006594,0.010814,0.001655,-30.370001000000002,0.25,-36.369999,1b
2019-07-15_142023:480,-0.48300200000000004,-0.022858,-0.195221,-0.005404,0.012737,0.005104,-30.370001000000002,0.56,-36.0,1b
2019-07-15_142023:500,-0.48706099999999997,-0.024902,-0.198273,-0.004091,0.012798,0.009468,-30.370001000000002,0.56,-36.0,1b
2019-07-15_142023:520,-0.48706099999999997,-0.029480000000000003,-0.20385699999999998,-0.0034509999999999996,0.013255000000000001,0.012001000000000001,-30.5,0.25,-36.0,1b
2019-07-15_142023:540,-0.49468999999999996,-0.032013,-0.21249400000000002,-0.002932,0.01353,0.012855000000000002,-30.5,0.25,-36.0,1b
2019-07-15_142023:560,-0.504333,-0.040161,-0.220642,-0.002443,0.014597999999999998,0.013191,-30.5,0.25,-36.0,1b
2019-07-15_142023:580,-0.516541,-0.042175,-0.222687,-0.002169,0.01591,0.012184,-31.559998999999998,0.25,-35.18,1b
2019-07-15_142023:600,-0.581116,-0.043213,-0.245544,-0.002443,0.013011000000000002,0.010933,-31.559998999999998,0.25,-35.18,1b
2019-07-15_142023:620,-0.522644,-0.049316000000000006,-0.220123,-0.001864,0.015788,0.0102,-32.369999,-0.06,-34.369999,1b
2019-07-15_142023:640,-0.544495,-0.053375,-0.23233,-0.003817,0.017894,0.00782,-32.369999,-0.06,-34.369999,1b
2019-07-15_142023:660,-0.517548,-0.06405599999999999,-0.21759,-0.003878,0.02058,0.0102,-32.369999,-0.06,-34.369999,1b
2019-07-15_142023:680,-0.44384799999999996,-0.068634,-0.204376,-0.004824,0.024486,0.009406999999999999,-32.0,1.68,-34.369999,1b
2019-07-15_142023:700,-0.410278,-0.068634,-0.20639000000000002,-0.006136,0.025554,0.011146,-32.0,1.68,-34.369999,1b
2019-07-15_142023:720,-0.364014,-0.079803,-0.201843,-0.006807,0.023418,0.015327,-33.5,0.56,-34.060001,1b
2019-07-15_142023:740,-0.375214,-0.084381,-0.20233199999999998,-0.007540000000000001,0.017894,0.012977,-33.5,0.56,-34.060001,1b
2019-07-15_142023:760,-0.387909,-0.086914,-0.204376,-0.007815,0.012401,0.010322,-33.5,0.56,-34.060001,1b
2019-07-15_142023:780,-0.40368699999999996,-0.089478,-0.20944200000000002,-0.007876000000000001,0.008403,0.009803000000000001,-34.18,1.37,-32.869999,1b
2019-07-15_142023:800,-0.40570100000000003,-0.087952,-0.21402,-0.008333,0.004497,0.008461,-34.18,1.37,-32.869999,1b
2019-07-15_142023:820,-0.410278,-0.0849,-0.220123,-0.008851999999999999,0.00016299999999999998,0.00782,-34.18,2.06,-34.060001,1b
2019-07-15_142023:840,-0.417908,-0.080322,-0.22116100000000002,-0.009524,-0.00475,0.007484,-34.18,2.06,-34.060001,1b
2019-07-15_142023:860,-0.42858900000000005,-0.075745,-0.228271,-0.011262999999999999,-0.009755,0.006965000000000001,-34.18,2.06,-34.060001,1b
2019-07-15_142023:880,-0.457581,-0.071686,-0.228271,-0.013094,-0.012318,0.005958,-34.560001,2.06,-32.869999,1b
2019-07-15_142023:900,-0.46569799999999995,-0.067108,-0.22421300000000002,-0.014894999999999999,-0.009937999999999999,0.0021739999999999997,-34.560001,2.06,-32.869999,1b
2019-07-15_142023:920,-0.467743,-0.06253099999999999,-0.21554600000000002,-0.016146,-0.0033159999999999995,-0.0028309999999999997,-34.18,1.37,-33.560001,1b
2019-07-15_142023:940,-0.46670500000000004,-0.057434000000000006,-0.203369,-0.017611,0.003825,-0.007561,-34.18,1.37,-33.560001,1b
2019-07-15_142023:960,-0.440796,-0.051849,-0.178955,-0.018435,0.009959,-0.009758,-34.18,1.37,-33.560001,1b
2019-07-15_142023:980,-0.430634,-0.049316000000000006,-0.164703,-0.019288999999999997,0.01292,-0.010277,-32.75,1.37,-33.18,1b
2019-07-15_142024:000,-0.42401099999999997,-0.044219999999999995,-0.14743,-0.020144,0.013133,-0.010796,-32.75,1.37,-33.18,1b
2019-07-15_142024:020,-0.423004,-0.040649,-0.140808,-0.020266,0.012248,-0.010888,-34.18,0.56,-33.18,1b
2019-07-15_142024:040,-0.429108,-0.037108999999999996,-0.134705,-0.020937,0.010265,-0.009148,-34.18,0.56,-33.18,1b
2019-07-15_142024:060,-0.430634,-0.035583,-0.139801,-0.021609,0.007488,-0.004906000000000001,-34.18,0.56,-33.18,1b
2019-07-15_142024:080,-0.433655,-0.035583,-0.142853,-0.022127,0.005351,-0.003045,-34.869999,0.25,-32.869999,1b
2019-07-15_142024:100,-0.431122,-0.035065,-0.151489,-0.023379,0.0036420000000000003,-0.00216,-34.869999,0.25,-32.869999,1b
2019-07-15_142024:120,-0.43518100000000004,-0.038635,-0.154022,-0.024263999999999997,0.002696,0.000587,-34.560001,-0.5,-32.869999,1b
2019-07-15_142024:140,-0.448425,-0.045226999999999996,-0.155548,-0.026369,0.003703,0.002754,-34.560001,-0.5,-32.869999,1b
2019-07-15_142024:160,-0.446899,-0.047272,-0.154022,-0.028322000000000003,0.005901,0.007423000000000001,-34.560001,-0.5,-32.869999,1b
2019-07-15_142024:180,-0.458588,-0.052338,-0.152008,-0.030642000000000003,0.009073999999999999,0.013252000000000002,-33.75,-1.56,-32.869999,1b
2019-07-15_142024:200,-0.470276,-0.06149299999999999,-0.154022,-0.032869,0.010875,0.016638999999999998,-33.75,-1.56,-32.869999,1b
2019-07-15_142024:220,-0.48349,-0.066589,-0.1586,-0.034548,0.010722,0.019111000000000003,-35.25,-1.18,-32.869999,1b
2019-07-15_142024:240,-0.491638,-0.070648,-0.168793,-0.036470999999999996,0.0088,0.019355,-35.25,-1.18,-32.869999,1b
2019-07-15_142024:260,-0.516022,-0.071686,-0.172852,-0.03821,0.007488,0.017555,-35.25,-1.18,-32.869999,1b
2019-07-15_142024:280,-0.5211180000000001,-0.070648,-0.17337,-0.038942000000000004,0.007304000000000001,0.016638999999999998,-35.25,-2.0,-31.68,1b
2019-07-15_142024:300,-0.545532,-0.064545,-0.181488,-0.039919,0.009288,0.012458,-35.25,-2.0,-31.68,1b
2019-07-15_142024:320,-0.576538,-0.063019,-0.185059,-0.039797000000000006,0.010417000000000001,0.008461,-34.869999,-2.68,-31.68,1b
2019-07-15_142024:340,-0.563812,-0.050323,-0.189636,-0.039797000000000006,0.008495,0.008551999999999999,-34.869999,-2.68,-31.68,1b
2019-07-15_142024:360,-0.61264,-0.054901,-0.171844,-0.038942000000000004,0.013713,0.01081,-34.869999,-2.68,-31.68,1b
2019-07-15_142024:380,-0.615692,-0.044739,-0.196747,-0.038942000000000004,0.020305,0.008612999999999999,-35.68,-3.87,-31.68,1b
2019-07-15_142024:400,-0.530273,-0.027954000000000003,-0.180481,-0.037995999999999995,0.02653,0.008888,-35.68,-3.87,-31.68,1b
2019-07-15_142024:420,-0.492645,-0.023375999999999997,-0.171844,-0.036745,0.029918,0.008796,-35.68,-3.5,-30.059998999999998,1b
2019-07-15_142024:440,-0.397064,-0.010651,-0.161163,-0.035401999999999996,0.030772000000000004,0.004951,-35.68,-3.5,-30.059998999999998,1b
2019-07-15_142024:460,-0.374176,0.0055850000000000006,-0.139801,-0.033297,0.028941,-0.000573,-35.68,-3.5,-30.059998999999998,1b
2019-07-15_142024:480,-0.394012,0.009644,-0.139801,-0.031954,0.023235,-0.004235,-37.560001,-4.68,-28.870001000000002,1b
2019-07-15_142024:500,-0.397583,0.021851,-0.14032,-0.030825,0.015666,-0.005028,-37.560001,-4.68,-28.870001000000002,1b
2019-07-15_142024:520,-0.395538,0.024902,-0.141846,-0.030886,0.006938,-0.005822,-37.18,-6.18,-28.559998999999998,1b
2019-07-15_142024:540,-0.411804,0.029480000000000003,-0.150482,-0.031618,-0.001302,-0.0037770000000000004,-37.18,-6.18,-28.559998999999998,1b
2019-07-15_142024:560,-0.432159,0.031006,-0.16217,-0.032351,-0.008870000000000001,0.002113,-37.18,-6.18,-28.559998999999998,1b
2019-07-15_142024:580,-0.45401,0.027435,-0.166229,-0.032869,-0.011739,0.005104,-37.869999,-6.18,-28.059998999999998,1b
2019-07-15_142024:600,-0.45196499999999995,0.024384,-0.17337,-0.034609,-0.017384,0.013923,-37.869999,-6.18,-28.059998999999998,1b
2019-07-15_142024:620,-0.443329,0.016753999999999998,-0.17843599999999998,-0.03528,-0.018239,0.016638999999999998,-38.68,-7.25,-28.059998999999998,1b
2019-07-15_142024:640,-0.449432,0.0055850000000000006,-0.177429,-0.036593,-0.017903,0.024421,-38.68,-7.25,-28.059998999999998,1b
2019-07-15_142024:660,-0.457581,-0.004059,-0.174896,-0.037081,-0.014790000000000001,0.028724,-38.68,-7.25,-28.059998999999998,1b
2019-07-15_142024:680,-0.45706199999999997,-0.01828,-0.170319,-0.036989,-0.012868000000000001,0.030586000000000002,-36.75,-8.0,-29.25,1b
2019-07-15_142024:700,-0.437225,-0.025421,-0.166229,-0.036348,-0.008412000000000001,0.032386,-36.75,-8.0,-29.25,1b
2019-07-15_142024:720,-0.425018,-0.033539,-0.165222,-0.035799,-0.007954000000000001,0.031715,-36.369999,-8.0,-29.25,1b
2019-07-15_142024:740,-0.426544,-0.041687,-0.163177,-0.034089999999999995,-0.009022,0.027717000000000002,-36.369999,-8.0,-29.25,1b
2019-07-15_142024:760,-0.426544,-0.044219999999999995,-0.163177,-0.032351,-0.010731000000000001,0.023872,-36.369999,-8.0,-29.25,1b
2019-07-15_142024:780,-0.425018,-0.045745999999999995,-0.167755,-0.031374,-0.011342,0.021217,-36.369999,-6.5,-28.059998999999998,1b
2019-07-15_142024:800,-0.431641,-0.045745999999999995,-0.17337,-0.027651,-0.012593,0.011787,-36.369999,-6.5,-28.059998999999998,1b
2019-07-15_142024:820,-0.443329,-0.046752999999999996,-0.17538499999999999,-0.025973000000000003,-0.012074,0.008735,-36.75,-7.25,-28.870001000000002,1b
2019-07-15_142024:840,-0.45553599999999994,-0.040649,-0.176422,-0.021212,-0.008595,0.003639,-36.75,-7.25,-28.870001000000002,1b
2019-07-15_142024:860,-0.465179,-0.037598,-0.174377,-0.018435,-0.004445,0.003913000000000001,-36.75,-7.25,-28.870001000000002,1b
2019-07-15_142024:880,-0.46316499999999994,-0.035065,-0.172333,-0.015413,-0.001027,0.003181,-35.68,-7.25,-30.5,1b
2019-07-15_142024:900,-0.47280900000000003,-0.031006,-0.17337,-0.013033000000000001,0.000468,0.0026320000000000002,-35.68,-7.25,-30.5,1b
2019-07-15_142024:920,-0.481476,-0.028442000000000002,-0.171326,-0.010378,0.003124,0.002693,-36.060001,-8.0,-29.68,1b
2019-07-15_142024:940,-0.497742,-0.026917,-0.165222,-0.010042,0.004161,0.002571,-36.060001,-8.0,-29.68,1b
2019-07-15_142024:960,-0.501801,-0.027435,-0.157074,-0.008791,0.008159,0.00251,-36.060001,-8.0,-29.68,1b
2019-07-15_142024:980,-0.505371,-0.028961,-0.154541,-0.008516,0.008495,0.0026320000000000002,-35.68,-8.75,-31.25,1b
2019-07-15_142025:000,-0.497742,-0.030487,-0.156067,-0.007937,0.009197,0.003486,-35.68,-8.75,-31.25,1b
2019-07-15_142025:020,-0.486023,-0.032532,-0.164215,-0.007876000000000001,0.009134999999999999,0.0038829999999999997,-35.68,-8.25,-30.059998999999998,1b
2019-07-15_142025:040,-0.47842399999999996,-0.035583,-0.17337,-0.007265000000000001,0.007670999999999999,0.0037,-35.68,-8.25,-30.059998999999998,1b
2019-07-15_142025:060,-0.509918,-0.038116000000000004,-0.185547,-0.007143000000000001,0.007701,0.003486,-35.68,-8.25,-30.059998999999998,1b
2019-07-15_142025:080,-0.586182,-0.046265,-0.189636,-0.006745999999999999,0.007426,0.0038829999999999997,-36.75,-7.87,-28.870001000000002,1b
2019-07-15_142025:100,-0.5541689999999999,-0.048798,-0.210968,-0.006014,0.010417000000000001,0.004158,-36.75,-7.87,-28.870001000000002,1b
2019-07-15_142025:120,-0.619751,-0.050842,-0.194702,-0.0058,0.013316,0.003181,-36.75,-7.87,-28.870001000000002,1b
2019-07-15_142025:140,-0.574493,-0.049316000000000006,-0.190643,-0.006014,0.023021,0.007881,-36.060001,-8.25,-29.25,1b
2019-07-15_142025:160,-0.539429,-0.05438200000000001,-0.185547,-0.007479,0.028941,0.010139,-36.060001,-8.25,-29.25,1b
2019-07-15_142025:180,-0.455017,-0.056427,-0.163177,-0.008454999999999999,0.030772000000000004,0.012062,-36.75,-8.25,-28.059998999999998,1b
2019-07-15_142025:200,-0.409271,-0.063019,-0.158112,-0.011233,0.029247000000000002,0.01902,-36.75,-8.25,-28.059998999999998,1b
2019-07-15_142025:220,-0.383331,-0.077271,-0.150482,-0.012240000000000001,0.026592,0.01902,-37.560001,-8.25,-27.68,1b
2019-07-15_142025:240,-0.377228,-0.08081100000000001,-0.149475,-0.013247,0.015238999999999999,0.013313,-37.560001,-8.25,-27.68,1b
2019-07-15_142025:260,-0.38739,-0.08996599999999999,-0.147949,-0.013308,0.007548999999999999,0.007026,-37.560001,-8.25,-27.68,1b
2019-07-15_142025:280,-0.410278,-0.089478,-0.153534,-0.012972,0.004161,0.004554,-38.25,-7.87,-25.75,1b
2019-07-15_142025:300,-0.41384899999999997,-0.087952,-0.159637,-0.010865999999999999,-0.00475,-0.000573,-38.25,-7.87,-25.75,1b
2019-07-15_142025:320,-0.42453,-0.0849,-0.168793,-0.010378,-0.0074659999999999995,-0.003563,-38.25,-7.87,-25.75,1b
2019-07-15_142025:340,-0.43927,-0.076263,-0.17944300000000002,-0.008974,-0.01598,-0.009758,-38.25,-7.68,-25.75,1b
2019-07-15_142025:360,-0.451477,-0.067596,-0.190125,-0.008516,-0.019306999999999998,-0.011132,-38.25,-7.68,-25.75,1b
2019-07-15_142025:380,-0.47332799999999997,-0.058441,-0.19927999999999998,-0.00873,-0.019032,-0.011681,-37.869999,-8.0,-25.75,1b
2019-07-15_142025:400,-0.48300200000000004,-0.050842,-0.19927999999999998,-0.010317,-0.011861,-0.010459999999999999,-37.869999,-8.0,-25.75,1b
2019-07-15_142025:420,-0.47280900000000003,-0.043213,-0.192688,-0.011233,-0.007802,-0.009209,-37.869999,-8.0,-25.75,1b
2019-07-15_142025:440,-0.461639,-0.039124,-0.187073,-0.014650999999999999,0.0014759999999999999,-0.006096,-36.75,-8.37,-26.870001000000002,1b
2019-07-15_142025:460,-0.44281000000000004,-0.038635,-0.1698,-0.017306000000000002,0.005016,-0.003899,-36.75,-8.37,-26.870001000000002,1b
2019-07-15_142025:480,-0.431122,-0.039642000000000004,-0.1586,-0.018282,0.005748,-0.003167,-37.18,-9.18,-26.18,1b
2019-07-15_142025:500,-0.42453,-0.043701,-0.14386,-0.020723,0.003764,-0.003319,-37.18,-9.18,-26.18,1b
2019-07-15_142025:520,-0.42453,-0.046265,-0.141327,-0.021059,0.002239,-0.003624,-37.18,-9.18,-26.18,1b
2019-07-15_142025:540,-0.42807,-0.047791,-0.139801,-0.021792,-0.001576,-0.004113,-36.75,-9.5,-26.870001000000002,1b
2019-07-15_142025:560,-0.42758199999999996,-0.048279,-0.140808,-0.021883,-0.006367,-0.004113,-36.75,-9.5,-26.870001000000002,1b
2019-07-15_142025:580,-0.43670699999999996,-0.047272,-0.152008,-0.021883,-0.007405,-0.004174000000000001,-37.18,-10.25,-28.059998999999998,1b
2019-07-15_142025:600,-0.43927,-0.044739,-0.153015,-0.022066,-0.008595,-0.0037159999999999997,-37.18,-10.25,-28.059998999999998,1b
2019-07-15_142025:620,-0.443329,-0.044219999999999995,-0.159119,-0.022005,-0.007954000000000001,-0.00277,-37.18,-10.25,-28.059998999999998,1b
2019-07-15_142025:640,-0.451477,-0.042694,-0.156586,-0.02228,-0.005299,-0.002587,-36.75,-11.25,-26.559998999999998,1b
2019-07-15_142025:660,-0.45196499999999995,-0.041168,-0.160126,-0.023256,-0.002644,-0.000389,-36.75,-11.25,-26.559998999999998,1b
2019-07-15_142025:680,-0.46060200000000007,-0.044219999999999995,-0.161163,-0.023714,0.000499,0.001503,-36.369999,-10.56,-27.370001000000002,1b
2019-07-15_142025:700,-0.473846,-0.045226999999999996,-0.161652,-0.024325,0.002696,-0.000176,-36.369999,-10.56,-27.370001000000002,1b
2019-07-15_142025:720,-0.49111899999999997,-0.044739,-0.160126,-0.024659999999999998,0.0042829999999999995,-0.000786,-36.369999,-10.56,-27.370001000000002,1b
2019-07-15_142025:740,-0.522644,-0.044219999999999995,-0.159637,-0.024904,0.005229,6.8e-05,-36.369999,-12.06,-26.559998999999998,1b
2019-07-15_142025:760,-0.526215,-0.043701,-0.158112,-0.025727999999999997,0.006693999999999999,-0.000176,-36.369999,-12.06,-26.559998999999998,1b
2019-07-15_142025:780,-0.532806,-0.037598,-0.157593,-0.025727999999999997,0.009593,-0.000664,-37.18,-12.75,-26.18,1b
2019-07-15_142025:800,-0.533325,-0.03302,-0.154541,-0.025515,0.014537000000000001,0.000984,-37.18,-12.75,-26.18,1b
2019-07-15_142025:820,-0.523651,-0.031006,-0.156586,-0.025393000000000002,0.015971,0.0018989999999999999,-37.18,-12.75,-26.18,1b
2019-07-15_142025:840,-0.533325,-0.028442000000000002,-0.158112,-0.025393000000000002,0.017986000000000002,0.003975,-37.18,-13.18,-26.18,1b
2019-07-15_142025:860,-0.613647,-0.025908999999999998,-0.17538499999999999,-0.024782,0.016031999999999998,0.006476999999999999,-37.18,-13.18,-26.18,1b
2019-07-15_142025:880,-0.5323180000000001,-0.024384,-0.167755,-0.025393000000000002,0.014995,0.010475,-37.18,-14.0,-25.370001000000002,1b
2019-07-15_142025:900,-0.5770569999999999,-0.026427999999999997,-0.17337,-0.025637,0.017253,0.013862000000000001,-37.18,-14.0,-25.370001000000002,1b
2019-07-15_142025:920,-0.556702,-0.026427999999999997,-0.156586,-0.026461000000000002,0.021037,0.013008,-37.18,-14.0,-25.370001000000002,1b
2019-07-15_142025:940,-0.49468999999999996,-0.020325,-0.159119,-0.026644,0.023296,0.012916,-38.25,-13.56,-23.370001000000002,1b
2019-07-15_142025:960,-0.45907600000000004,-0.024902,-0.15506,-0.025911,0.023753,0.011543000000000001,-38.25,-13.56,-23.370001000000002,1b
2019-07-15_142025:980,-0.402649,-0.021332,-0.146423,-0.024659999999999998,0.023143,0.006141,-38.68,-14.0,-23.370001000000002,1b
2019-07-15_142026:000,-0.393494,-0.015747,-0.13623,-0.022524000000000002,0.021953,0.003913000000000001,-38.68,-14.0,-23.370001000000002,1b
2019-07-15_142026:020,-0.40976,-0.014740000000000001,-0.135742,-0.020753999999999998,0.019053999999999998,0.005287,-38.68,-14.0,-23.370001000000002,1b
2019-07-15_142026:040,-0.40774499999999997,-0.012177,-0.134705,-0.020266,0.013011000000000002,0.005622,-39.060001,-14.68,-22.18,1b
2019-07-15_142026:060,-0.396057,-0.010651,-0.140808,-0.020205,0.0045579999999999996,0.007759,-39.060001,-14.68,-22.18,1b
2019-07-15_142026:080,-0.406738,-0.013213999999999998,-0.147949,-0.020327,-0.00417,0.009468,-39.369999,-14.25,-22.0,1b
2019-07-15_142026:100,-0.425018,-0.016753999999999998,-0.159119,-0.02109,-0.012715,0.009803000000000001,-39.369999,-14.25,-22.0,1b
2019-07-15_142026:120,-0.443329,-0.019806,-0.17337,-0.021609,-0.020222,0.011482,-39.369999,-14.25,-22.0,1b
2019-07-15_142026:140,-0.445374,-0.026427999999999997,-0.187592,-0.021792,-0.02599,0.012184,-39.369999,-14.68,-20.68,1b
2019-07-15_142026:160,-0.474854,-0.032013,-0.193695,-0.021547,-0.026387,0.010933,-39.369999,-14.68,-20.68,1b
2019-07-15_142026:180,-0.48706099999999997,-0.036072,-0.192688,-0.02054,-0.0201,0.009742,-39.75,-14.0,-22.0,1b
2019-07-15_142026:200,-0.477905,-0.040649,-0.189636,-0.019747,-0.012013,0.008612999999999999,-39.75,-14.0,-22.0,1b
2019-07-15_142026:220,-0.45553599999999994,-0.044219999999999995,-0.18454,-0.018404,-0.005971,0.007698,-39.75,-14.0,-22.0,1b
2019-07-15_142026:240,-0.44027700000000003,-0.045745999999999995,-0.17538499999999999,-0.016878,-0.002888,0.006874,-39.369999,-14.25,-21.18,1b
2019-07-15_142026:260,-0.43518100000000004,-0.048279,-0.162689,-0.01462,-0.0024920000000000003,0.005684000000000001,-39.369999,-14.25,-21.18,1b
2019-07-15_142026:280,-0.438751,-0.047272,-0.1586,-0.012758,-0.0034990000000000004,0.004493,-39.060001,-14.25,-22.25,1b
2019-07-15_142026:300,-0.43670699999999996,-0.049316000000000006,-0.15506,-0.00812,-0.006764,0.001167,-39.060001,-14.25,-22.25,1b
2019-07-15_142026:320,-0.43823199999999995,-0.048798,-0.155548,-0.00812,-0.006764,0.001167,-39.060001,-14.25,-22.25,1b
2019-07-15_142026:340,-0.445374,-0.047272,-0.160645,-0.005282,-0.008870000000000001,-0.0008470000000000001,-40.060001,-14.25,-22.25,1b
2019-07-15_142026:360,-0.452484,-0.045226999999999996,-0.165222,-0.0025960000000000002,-0.010548,-0.002892,-40.060001,-14.25,-22.25,1b
2019-07-15_142026:380,-0.457581,-0.041168,-0.167755,0.000547,-0.010487,-0.005364,-38.25,-14.0,-21.059998999999998,1b
2019-07-15_142026:400,-0.46670500000000004,-0.039124,-0.165222,0.003721,-0.009022,-0.007286,-38.25,-14.0,-21.059998999999998,1b
2019-07-15_142026:420,-0.47332799999999997,-0.035583,-0.164703,0.006895,-0.005971,-0.00808,-38.25,-14.0,-21.059998999999998,1b
2019-07-15_142026:440,-0.469757,-0.034546,-0.165741,0.009977,-0.003163,-0.008477,-38.25,-14.68,-23.059998999999998,1b
2019-07-15_142026:460,-0.477386,-0.032532,-0.157074,0.012998,-0.000508,-0.009087,-38.25,-14.68,-23.059998999999998,1b
2019-07-15_142026:480,-0.478912,-0.030487,-0.152008,0.015806,0.001842,-0.008629000000000001,-38.25,-14.68,-22.68,1b
2019-07-15_142026:500,-0.481476,-0.030487,-0.147949,0.018736000000000003,0.004833,-0.007683,-38.25,-14.68,-22.68,1b
2019-07-15_142026:520,-0.477386,-0.024902,-0.14743,0.021177,0.00648,-0.00988,-38.25,-14.68,-22.68,1b
2019-07-15_142026:540,-0.489075,-0.022858,-0.14843800000000001,0.023649,0.006876999999999999,-0.011742,-38.68,-14.0,-22.25,1b
2019-07-15_142026:560,-0.49111899999999997,-0.021851,-0.146912,0.025907,0.007670999999999999,-0.010948999999999999,-38.68,-14.0,-22.25,1b
2019-07-15_142026:580,-0.495697,-0.019318000000000002,-0.149475,0.028196,0.009807,-0.009606,-38.25,-13.18,-24.18,1b
2019-07-15_142026:600,-0.49926800000000005,-0.016266,-0.150482,0.030545999999999997,0.013072,-0.007561,-38.25,-13.18,-24.18,1b
2019-07-15_142026:620,-0.5073850000000001,-0.013213999999999998,-0.153015,0.032376999999999996,0.016063,-0.0054859999999999996,-38.25,-13.18,-24.18,1b
2019-07-15_142026:640,-0.6324770000000001,-0.014740000000000001,-0.152527,0.033323,0.017375,-0.0034409999999999996,-38.68,-14.0,-23.75,1b
2019-07-15_142026:660,-0.56485,-0.008636,-0.183533,0.033444999999999996,0.013805000000000001,-0.0017929999999999999,-38.68,-14.0,-23.75,1b
2019-07-15_142026:680,-0.596375,-0.020844,-0.151489,0.032408,0.016916999999999998,0.000343,-39.060001,-13.18,-23.75,1b
2019-07-15_142026:700,-0.5922850000000001,-0.024902,-0.163696,0.030943000000000002,0.020366,0.0018989999999999999,-39.060001,-13.18,-23.75,1b
2019-07-15_142026:720,-0.5404359999999999,-0.027435,-0.145386,0.029752999999999998,0.024089,0.0043100000000000005,-39.060001,-13.18,-23.75,1b
2019-07-15_142026:740,-0.49975600000000003,-0.032013,-0.148956,0.027433,0.026073000000000002,0.006416,-38.68,-12.5,-23.059998999999998,1b
2019-07-15_142026:760,-0.457581,-0.043213,-0.137756,0.024748,0.025523,0.010872,-38.68,-12.5,-23.059998999999998,1b
2019-07-15_142026:780,-0.42858900000000005,-0.051330999999999995,-0.139801,0.021055,0.023296,0.017555,-38.25,-11.68,-23.75,1b
2019-07-15_142026:800,-0.385376,-0.068634,-0.127594,0.017668,0.021616999999999997,0.021766,-38.25,-11.68,-23.75,1b
2019-07-15_142026:820,-0.401642,-0.078796,-0.12912,0.014006000000000001,0.018900999999999998,0.021553,-38.25,-11.68,-23.75,1b
2019-07-15_142026:840,-0.410797,-0.089478,-0.131165,0.010954,0.015178,0.020637,-40.060001,-10.56,-21.870001000000002,1b
2019-07-15_142026:860,-0.40976,-0.097595,-0.13269,0.008085,0.01115,0.018562000000000002,-40.060001,-10.56,-21.870001000000002,1b
2019-07-15_142026:880,-0.406219,-0.105225,-0.14032,0.005765999999999999,0.005779,0.015236000000000001,-39.75,-9.18,-23.059998999999998,1b
2019-07-15_142026:900,-0.42147799999999996,-0.10675,-0.146912,0.002073,-0.007831999999999999,0.006813,-39.75,-9.18,-23.059998999999998,1b
2019-07-15_142026:920,-0.43670699999999996,-0.10775799999999999,-0.153015,0.002073,-0.007831999999999999,0.006813,-39.75,-9.18,-23.059998999999998,1b
2019-07-15_142026:940,-0.446899,-0.103699,-0.160126,0.000669,-0.015187,0.002357,-40.5,-8.0,-21.059998999999998,1b
2019-07-15_142026:960,-0.451477,-0.096588,-0.172852,-0.0006730000000000001,-0.021626,-0.002648,-40.5,-8.0,-21.059998999999998,1b
2019-07-15_142026:980,-0.46316499999999994,-0.090485,-0.180481,-0.001192,-0.024464,-0.008812,-39.75,-7.68,-23.059998999999998,1b
2019-07-15_142027:000,-0.48706099999999997,-0.07775900000000001,-0.182007,-0.001314,-0.022144999999999998,-0.015252000000000002,-39.75,-7.68,-23.059998999999998,1b
2019-07-15_142027:020,-0.49517799999999995,-0.068115,-0.17690999999999998,-0.001986,-0.015919,-0.018241999999999998,-39.75,-7.68,-23.059998999999998,1b
2019-07-15_142027:040,-0.48196400000000006,-0.054901,-0.166748,-0.0029010000000000004,-0.008687,-0.017388,-40.5,-8.0,-23.370001000000002,1b
2019-07-15_142027:060,-0.469757,-0.048798,-0.156586,-0.004275,-0.002522,-0.015191,-40.5,-8.0,-23.370001000000002,1b
2019-07-15_142027:080,-0.457581,-0.044739,-0.140808,-0.005922,0.0017809999999999998,-0.012931999999999999,-39.060001,-8.37,-24.18,1b
2019-07-15_142027:100,-0.454529,-0.043213,-0.127106,-0.007387,0.0035810000000000004,-0.010216,-39.060001,-8.37,-24.18,1b
2019-07-15_142027:120,-0.446899,-0.041687,-0.118958,-0.009004999999999999,0.003978,-0.007409000000000001,-39.060001,-8.37,-24.18,1b
2019-07-15_142027:140,-0.44281000000000004,-0.042175,-0.11438,-0.01111,0.003307,-0.004967,-39.75,-8.75,-25.059998999999998,1b
2019-07-15_142027:160,-0.440796,-0.046752999999999996,-0.116425,-0.012911,0.001598,-0.003228,-39.75,-8.75,-25.059998999999998,1b
2019-07-15_142027:180,-0.44433599999999995,-0.049316000000000006,-0.11843900000000002,-0.014773,-0.000508,-0.002983,-39.369999,-9.5,-24.68,1b
2019-07-15_142027:200,-0.44638100000000003,-0.05438200000000001,-0.11843900000000002,-0.016421,-0.001759,-0.0028309999999999997,-39.369999,-9.5,-24.68,1b
2019-07-15_142027:220,-0.449432,-0.057434000000000006,-0.121002,-0.017428,-0.001393,-0.003228,-39.369999,-9.5,-24.68,1b
2019-07-15_142027:240,-0.45043900000000003,-0.05996699999999999,-0.122528,-0.017884999999999998,0.00016299999999999998,-0.003563,-39.060001,-9.5,-23.870001000000002,1b
2019-07-15_142027:260,-0.448425,-0.06149299999999999,-0.11691300000000002,-0.018282,0.002513,-0.0037159999999999997,-39.060001,-9.5,-23.870001000000002,1b
2019-07-15_142027:280,-0.47433500000000006,-0.06149299999999999,-0.119965,-0.018557,0.004436,-0.004418,-38.68,-9.87,-24.68,1b
2019-07-15_142027:300,-0.492645,-0.062012,-0.11795,-0.018892,0.005779,-0.005242,-38.68,-9.87,-24.68,1b
2019-07-15_142027:320,-0.50943,-0.061005,-0.116425,-0.018892,0.007365000000000001,-0.005028,-38.68,-9.87,-24.68,1b
2019-07-15_142027:340,-0.52417,-0.060486,-0.11538699999999999,-0.019198,0.009134999999999999,-0.004967,-39.369999,-10.56,-23.870001000000002,1b
2019-07-15_142027:360,-0.531799,-0.054901,-0.11080899999999999,-0.019594,0.01115,-0.004967,-39.369999,-10.56,-23.870001000000002,1b
2019-07-15_142027:380,-0.5429689999999999,-0.054901,-0.11080899999999999,-0.020022,0.011729,-0.003106,-39.060001,-11.0,-23.870001000000002,1b
2019-07-15_142027:400,-0.545013,-0.052338,-0.11386099999999999,-0.020418000000000002,0.01353,-0.003106,-39.060001,-11.0,-23.870001000000002,1b
2019-07-15_142027:420,-0.551117,-0.046265,-0.114899,-0.020266,0.016307,-0.004113,-39.060001,-11.0,-23.870001000000002,1b
2019-07-15_142027:440,-0.6299130000000001,-0.040649,-0.138275,-0.020205,0.016307,-0.003045,-39.75,-12.06,-23.059998999999998,1b
2019-07-15_142027:460,-0.5709529999999999,-0.037598,-0.142334,-0.020205,0.014934000000000001,-0.0019149999999999998,-39.75,-12.06,-23.059998999999998,1b
2019-07-15_142027:480,-0.5734859999999999,-0.035065,-0.127594,-0.020723,0.014903,0.000648,-39.060001,-13.18,-22.0,1b
2019-07-15_142027:500,-0.564331,-0.028961,-0.129639,-0.020723,0.015788,-0.0010609999999999999,-39.060001,-13.18,-22.0,1b
2019-07-15_142027:520,-0.5246890000000001,-0.020844,-0.129639,-0.020876,0.017162,-0.003899,-39.060001,-13.18,-22.0,1b
2019-07-15_142027:540,-0.485016,-0.01828,-0.131653,-0.019747,0.017894,-0.002587,-39.75,-12.06,-20.75,1b
2019-07-15_142027:560,-0.41485600000000006,-0.011687999999999999,-0.131165,-0.017884999999999998,0.01823,-0.004418,-39.75,-12.06,-20.75,1b
2019-07-15_142027:580,-0.385864,-0.006072999999999999,-0.12506099999999998,-0.015290999999999999,0.017925,-0.007012000000000001,-39.75,-13.56,-20.75,1b
2019-07-15_142027:600,-0.40011599999999997,0.001495,-0.11795,-0.012636,0.015513999999999998,-0.006768000000000001,-39.75,-13.56,-20.75,1b
2019-07-15_142027:620,-0.411804,0.0055850000000000006,-0.11795,-0.010134,0.010417000000000001,-0.004021,-39.75,-13.56,-20.75,1b
2019-07-15_142027:640,-0.397583,0.011687999999999999,-0.119965,-0.008791,0.002849,-0.002251,-40.060001,-14.0,-19.559998999999998,1b
2019-07-15_142027:660,-0.404694,0.013702,-0.12301600000000001,-0.008454999999999999,-0.007405,0.001991,-40.060001,-14.0,-19.559998999999998,1b
2019-07-15_142027:680,-0.426544,0.011169,-0.14386,-0.009309999999999999,-0.017903,0.006934999999999999,-40.869999,-14.25,-19.559998999999998,1b
2019-07-15_142027:700,-0.45706199999999997,0.009125,-0.153534,-0.010988,-0.027455,0.011116,-40.869999,-14.25,-19.559998999999998,1b
2019-07-15_142027:720,-0.495697,0.0,-0.17690999999999998,-0.013247,-0.033223,0.015236000000000001,-40.869999,-14.25,-19.559998999999998,1b
2019-07-15_142027:740,-0.506378,-0.010162000000000001,-0.18454,-0.015352000000000001,-0.031117000000000002,0.017768,-40.869999,-14.0,-22.0,1b
2019-07-15_142027:760,-0.500275,-0.025908999999999998,-0.186066,-0.017153,-0.024403,0.016975,-40.869999,-14.0,-22.0,1b
2019-07-15_142027:780,-0.48095699999999997,-0.036072,-0.17538499999999999,-0.017672,-0.016041999999999997,0.0149,-39.369999,-13.18,-21.18,1b
2019-07-15_142027:800,-0.46060200000000007,-0.045745999999999995,-0.160645,-0.017153,-0.009937999999999999,0.01258,-39.369999,-13.18,-21.18,1b
2019-07-15_142027:820,-0.444855,-0.049805,-0.152008,-0.015627000000000002,-0.0062759999999999995,0.010719,-39.369999,-13.18,-21.18,1b
2019-07-15_142027:840,-0.43011499999999997,-0.053375,-0.139801,-0.013765000000000001,-0.0046890000000000005,0.009803000000000001,-39.75,-13.18,-22.68,1b
2019-07-15_142027:860,-0.429596,-0.056427,-0.133698,-0.011568,-0.004964,0.008551999999999999,-39.75,-13.18,-22.68,1b
2019-07-15_142027:880,-0.447906,-0.056427,-0.12658699999999998,-0.008791,-0.006154,0.006691,-39.75,-12.75,-22.25,1b
2019-07-15_142027:900,-0.452484,-0.05438200000000001,-0.12454200000000001,-0.006136,-0.006215,0.0051649999999999995,-39.75,-12.75,-22.25,1b
2019-07-15_142027:920,-0.44995100000000005,-0.050842,-0.127594,-0.003573,-0.005635,0.003639,-39.75,-12.75,-22.25,1b
2019-07-15_142027:940,-0.453491,-0.049316000000000006,-0.131653,-0.001131,-0.005971,0.0030280000000000003,-39.369999,-14.0,-21.5,1b
2019-07-15_142027:960,-0.45605500000000004,-0.046265,-0.134705,0.000883,-0.007069,0.0026320000000000002,-39.369999,-14.0,-21.5,1b
2019-07-15_142027:980,-0.46417200000000003,-0.043701,-0.139282,0.003843,-0.006490000000000001,0.001716,-39.060001,-12.5,-22.68,1b
2019-07-15_142028:000,-0.476379,-0.042175,-0.138275,0.004789,-0.0054210000000000005,0.001625,-39.060001,-12.5,-22.68,1b
2019-07-15_142028:020,-0.46670500000000004,-0.042175,-0.137756,0.007109000000000001,-0.001302,0.001106,-39.060001,-12.5,-22.68,1b
2019-07-15_142028:040,-0.473846,-0.041168,-0.139282,0.009214,-5e-05,0.00016,-38.68,-12.75,-23.5,1b
2019-07-15_142028:060,-0.484009,-0.039124,-0.139801,0.011228,0.001018,-0.002098,-38.68,-12.75,-23.5,1b
2019-07-15_142028:080,-0.500275,-0.038116000000000004,-0.141846,0.013609,0.0014759999999999999,-0.004692,-39.75,-12.06,-23.18,1b
2019-07-15_142028:100,-0.510437,-0.034058,-0.138275,0.015745,0.003307,-0.006096,-39.75,-12.06,-23.18,1b
2019-07-15_142028:120,-0.516022,-0.031006,-0.140808,0.017942,0.004954999999999999,-0.006554000000000001,-39.75,-12.06,-23.18,1b
2019-07-15_142028:140,-0.5134890000000001,-0.027954000000000003,-0.143372,0.019834,0.00703,-0.005944,-38.25,-12.06,-23.18,1b
2019-07-15_142028:160,-0.516022,-0.025908999999999998,-0.145905,0.021177,0.009226999999999999,-0.004815,-38.25,-12.06,-23.18,1b
2019-07-15_142028:180,-0.546539,-0.028961,-0.153534,0.022366999999999998,0.011271999999999999,-0.004906000000000001,-39.369999,-12.06,-24.25,1b
2019-07-15_142028:200,-0.6426390000000001,-0.035065,-0.152527,0.0231,0.009746,-0.005547,-39.369999,-12.06,-24.25,1b
2019-07-15_142028:220,-0.5246890000000001,-0.040161,-0.143372,0.023771,0.011455,-0.004845,-39.369999,-12.06,-24.25,1b
2019-07-15_142028:240,-0.599426,-0.044739,-0.148956,0.024565,0.015971,-0.007561,-39.060001,-11.68,-24.25,1b
2019-07-15_142028:260,-0.553162,-0.051849,-0.143372,0.0249,0.020427,-0.005303,-39.060001,-11.68,-24.25,1b
2019-07-15_142028:280,-0.530792,-0.057953,-0.149963,0.025907,0.021343,-0.004235,-39.369999,-11.25,-23.5,1b
2019-07-15_142028:300,-0.47995,-0.063019,-0.140808,0.025572,0.021281,-0.005425,-39.369999,-11.25,-23.5,1b
2019-07-15_142028:320,-0.46417200000000003,-0.063019,-0.142334,0.024961,0.01884,-0.0035020000000000003,-39.369999,-11.25,-23.5,1b
2019-07-15_142028:340,-0.420959,-0.069122,-0.137268,0.024046,0.016031999999999998,-0.000725,-40.060001,-11.25,-23.870001000000002,1b
2019-07-15_142028:360,-0.397583,-0.072174,-0.128113,0.022306,0.013316,7.000000000000001e-06,-40.060001,-11.25,-23.870001000000002,1b
2019-07-15_142028:380,-0.390961,-0.072174,-0.12912,0.021177,0.009470999999999999,-0.0012439999999999999,-40.060001,-11.0,-22.25,1b
2019-07-15_142028:400,-0.396545,-0.0737,-0.128113,0.020109000000000002,0.004436,-0.003563,-40.060001,-11.0,-22.25,1b
2019-07-15_142028:420,-0.402649,-0.0737,-0.134705,0.018064,-0.001302,-0.005089,-40.060001,-11.0,-22.25,1b
2019-07-15_142028:440,-0.401642,-0.072174,-0.138794,0.016203,-0.008076,-0.00457,-39.75,-9.5,-23.059998999999998,1b
2019-07-15_142028:460,-0.411285,-0.071686,-0.144897,0.014218999999999999,-0.016103,-0.004296,-39.75,-9.5,-23.059998999999998,1b
2019-07-15_142028:480,-0.434174,-0.07016,-0.151489,0.012815,-0.023334999999999998,-0.005303,-40.060001,-10.25,-23.5,1b
2019-07-15_142028:500,-0.467224,-0.065582,-0.17385899999999999,0.010893,-0.028188,-0.007012000000000001,-40.060001,-10.25,-23.5,1b
2019-07-15_142028:520,-0.475372,-0.063538,-0.185059,0.009092,-0.029195,-0.008629000000000001,-40.060001,-10.25,-23.5,1b
2019-07-15_142028:540,-0.48754899999999995,-0.055908000000000006,-0.190125,0.007109000000000001,-0.025258000000000003,-0.008812,-39.060001,-9.87,-23.059998999999998,1b
2019-07-15_142028:560,-0.48196400000000006,-0.05285599999999999,-0.183014,0.004972,-0.018178,-0.007409000000000001,-39.060001,-9.87,-23.059998999999998,1b
2019-07-15_142028:580,-0.47995,-0.051330999999999995,-0.171844,0.002653,-0.011525,-0.007103,-39.369999,-9.18,-24.18,1b
2019-07-15_142028:600,-0.466217,-0.049316000000000006,-0.159637,0.000273,-0.006367,-0.005577,-39.369999,-9.18,-24.18,1b
2019-07-15_142028:620,-0.461121,-0.051330999999999995,-0.14843800000000001,-0.001772,-0.001302,-0.0035020000000000003,-39.369999,-9.18,-24.18,1b
2019-07-15_142028:640,-0.45043900000000003,-0.051849,-0.142853,-0.004152,0.0029100000000000003,-0.0032890000000000003,-37.869999,-9.87,-26.18,1b
2019-07-15_142028:660,-0.44027700000000003,-0.049805,-0.136749,-0.006075,0.004222,-0.00277,-37.869999,-9.87,-26.18,1b
2019-07-15_142028:680,-0.44433599999999995,-0.051330999999999995,-0.138794,-0.007876000000000001,0.0031850000000000003,-0.0017929999999999999,-39.060001,-9.18,-25.75,1b
2019-07-15_142028:700,-0.433167,-0.050842,-0.136749,-0.010042,0.001292,-0.0011220000000000002,-39.060001,-9.18,-25.75,1b
2019-07-15_142028:720,-0.433167,-0.049805,-0.141327,-0.011995,-0.001515,0.00016,-39.060001,-9.18,-25.75,1b
2019-07-15_142028:740,-0.432648,-0.052338,-0.145386,-0.013918,-0.004567,0.001442,-38.25,-9.87,-26.18,1b
2019-07-15_142028:760,-0.43518100000000004,-0.054901,-0.147949,-0.015780000000000002,-0.006551,0.00196,-38.25,-9.87,-26.18,1b
2019-07-15_142028:780,-0.443329,-0.056915,-0.152527,-0.017884999999999998,-0.007161,0.0018989999999999999,-39.060001,-11.0,-25.0,1b
2019-07-15_142028:800,-0.45095799999999997,-0.057953,-0.149963,-0.019411,-0.005757,0.002113,-39.060001,-11.0,-25.0,1b
2019-07-15_142028:820,-0.47332799999999997,-0.05996699999999999,-0.145386,-0.021273,-0.0024920000000000003,0.002235,-39.060001,-11.0,-25.0,1b
2019-07-15_142028:840,-0.481476,-0.060486,-0.14032,-0.023012,0.0010789999999999999,0.0030280000000000003,-38.68,-10.56,-25.0,1b
2019-07-15_142028:860,-0.485016,-0.063538,-0.131165,-0.024386,0.002971,0.003151,-38.68,-10.56,-25.0,1b
2019-07-15_142028:880,-0.486023,-0.063538,-0.128113,-0.025637,0.0023,0.002357,-38.25,-10.56,-26.18,1b
2019-07-15_142028:900,-0.48858599999999996,-0.06405599999999999,-0.12658699999999998,-0.0264,-0.000233,0.001503,-38.25,-10.56,-26.18,1b
2019-07-15_142028:920,-0.498749,-0.065582,-0.127106,-0.026795999999999997,-0.002644,-0.000176,-38.25,-10.56,-26.18,1b
2019-07-15_142028:940,-0.522125,-0.065582,-0.132172,-0.026307999999999998,-0.0027660000000000002,-0.00216,-37.560001,-11.25,-23.75,1b
2019-07-15_142028:960,-0.521637,-0.060486,-0.137268,-0.024782,-0.000233,-0.003319,-37.560001,-11.25,-23.75,1b
2019-07-15_142028:980,-0.529266,-0.05438200000000001,-0.14743,-0.023409,0.003307,-0.004235,-37.869999,-11.68,-23.75,1b
2019-07-15_142029:000,-0.558746,-0.054901,-0.153015,-0.021853,0.006633,-0.004815,-37.869999,-11.68,-23.75,1b
2019-07-15_142029:020,-0.574005,-0.041687,-0.18811,-0.020998,0.006023,-0.00396,-37.869999,-11.68,-23.75,1b
2019-07-15_142029:040,-0.566376,-0.046265,-0.154022,-0.019625,0.009349,-0.000512,-38.25,-12.75,-24.559998999999998,1b
2019-07-15_142029:060,-0.575531,-0.042175,-0.177429,-0.019411,0.012126000000000001,-0.0008470000000000001,-38.25,-12.75,-24.559998999999998,1b
2019-07-15_142029:080,-0.555176,-0.040161,-0.167755,-0.017763,0.014597999999999998,-0.002251,-38.68,-14.0,-24.559998999999998,1b
2019-07-15_142029:100,-0.490112,-0.032013,-0.163177,-0.01523,0.01704,-0.003899,-38.68,-14.0,-24.559998999999998,1b
2019-07-15_142029:120,-0.45043900000000003,-0.026917,-0.165222,-0.012514,0.016978,-0.006768000000000001,-38.68,-14.0,-24.559998999999998,1b
2019-07-15_142029:140,-0.404175,-0.014740000000000001,-0.161652,-0.009463,0.014995,-0.009148,-38.25,-14.0,-22.68,1b
2019-07-15_142029:160,-0.398071,-0.008636,-0.152008,-0.006258,0.013011000000000002,-0.009606,-38.25,-14.0,-22.68,1b
2019-07-15_142029:180,-0.397064,0.000488,-0.144897,-0.00339,0.010081999999999999,-0.008965,-39.060001,-14.0,-22.25,1b
2019-07-15_142029:200,-0.393005,0.0055850000000000006,-0.143372,-0.001864,0.0042829999999999995,-0.006157,-39.060001,-14.0,-22.25,1b
2019-07-15_142029:220,-0.378265,0.007599,-0.153015,-0.000734,-0.00475,-0.000634,-39.060001,-14.0,-22.25,1b
2019-07-15_142029:240,-0.375214,0.006592,-0.1586,-0.000521,-0.015919,0.004219,-38.68,-14.25,-20.75,1b
2019-07-15_142029:260,-0.395538,0.004547,-0.17385899999999999,-0.0014060000000000001,-0.027211000000000003,0.007606,-38.68,-14.25,-20.75,1b
2019-07-15_142029:280,-0.42807,0.0,-0.192688,-0.002169,-0.036549,0.010475,-38.68,-15.06,-21.5,1b
2019-07-15_142029:300,-0.45401,-0.009125,-0.21810900000000003,-0.003237,-0.040272,0.012001000000000001,-38.68,-15.06,-21.5,1b
2019-07-15_142029:320,-0.459595,-0.017792,-0.21911599999999998,-0.004488000000000001,-0.038807999999999995,0.011482,-38.68,-15.06,-21.5,1b
2019-07-15_142029:340,-0.46670500000000004,-0.028442000000000002,-0.21453899999999998,-0.005404,-0.034566,0.009742,-37.869999,-14.68,-24.25,1b
2019-07-15_142029:360,-0.48095699999999997,-0.036591000000000005,-0.210968,-0.005282,-0.027607999999999997,0.007423000000000001,-37.869999,-14.68,-24.25,1b
2019-07-15_142029:380,-0.459595,-0.043213,-0.20843499999999998,-0.004488000000000001,-0.019887000000000002,0.004493,-36.75,-14.25,-23.5,1b
2019-07-15_142029:400,-0.445374,-0.042175,-0.204376,-0.002932,-0.014728999999999999,0.002754,-36.75,-14.25,-23.5,1b
2019-07-15_142029:420,-0.426544,-0.045745999999999995,-0.19775399999999999,-0.001467,-0.013050999999999998,0.002693,-36.75,-14.25,-23.5,1b
2019-07-15_142029:440,-0.42858900000000005,-0.046752999999999996,-0.19574,0.000608,-0.014668,0.0030280000000000003,-36.75,-14.68,-24.68,1b
2019-07-15_142029:460,-0.44433599999999995,-0.051849,-0.19775399999999999,0.003111,-0.016988,0.00196,-36.75,-14.68,-24.68,1b
2019-07-15_142029:480,-0.453003,-0.053863999999999995,-0.204376,0.005918,-0.017049,-0.00011499999999999999,-36.369999,-13.56,-25.870001000000002,1b
2019-07-15_142029:500,-0.453003,-0.05285599999999999,-0.20742800000000003,0.008573,-0.016041999999999997,-0.001397,-36.369999,-13.56,-25.870001000000002,1b
2019-07-15_142029:520,-0.448425,-0.051849,-0.21048000000000003,0.011076,-0.014241,-0.002892,-36.369999,-13.56,-25.870001000000002,1b
2019-07-15_142029:540,-0.43927,-0.048279,-0.21148699999999998,0.013028999999999999,-0.012654,-0.004021,-35.25,-13.56,-27.0,1b
2019-07-15_142029:560,-0.44384799999999996,-0.046752999999999996,-0.210968,0.014952000000000002,-0.011128,-0.00457,-35.25,-13.56,-27.0,1b
2019-07-15_142029:580,-0.446899,-0.045745999999999995,-0.20742800000000003,0.016722,-0.008473,-0.005181,-35.68,-14.0,-27.0,1b
2019-07-15_142029:600,-0.448425,-0.043701,-0.201843,0.018583000000000002,-0.005299,-0.006035,-35.68,-14.0,-27.0,1b
2019-07-15_142029:620,-0.437225,-0.044219999999999995,-0.19574,0.02017,-0.002583,-0.0063100000000000005,-35.68,-14.0,-27.0,1b
2019-07-15_142029:640,-0.44995100000000005,-0.042175,-0.194214,0.022093,-0.001179,-0.0064930000000000005,-35.68,-13.56,-26.68,1b
2019-07-15_142029:660,-0.45907600000000004,-0.040649,-0.19574,0.023558000000000003,-0.000172,-0.007012000000000001,-35.68,-13.56,-26.68,1b
2019-07-15_142029:680,-0.47079499999999996,-0.038116000000000004,-0.203369,0.0249,-0.000233,-0.009087,-34.75,-13.56,-27.75,1b
2019-07-15_142029:700,-0.47995,-0.035583,-0.20486500000000002,0.025876999999999997,-0.000264,-0.011528,-34.75,-13.56,-27.75,1b
2019-07-15_142029:720,-0.492645,-0.034058,-0.207916,0.027006,0.0008960000000000001,-0.012931999999999999,-34.75,-13.56,-27.75,1b
2019-07-15_142029:740,-0.498749,-0.034058,-0.20843499999999998,0.02783,0.003978,-0.012931999999999999,-34.75,-12.75,-27.5,1b
2019-07-15_142029:760,-0.503326,-0.028961,-0.20639000000000002,0.029081,0.0088,-0.013115,-34.75,-12.75,-27.5,1b
2019-07-15_142029:780,-0.495697,-0.031006,-0.20486500000000002,0.030149000000000002,0.015056,-0.013054,-33.68,-12.5,-28.18,1b
2019-07-15_142029:800,-0.48858599999999996,-0.027435,-0.194702,0.031187,0.02122,-0.012931999999999999,-33.68,-12.5,-28.18,1b
2019-07-15_142029:820,-0.48858599999999996,-0.028442000000000002,-0.19622799999999999,0.032194,0.026347000000000002,-0.012473999999999999,-33.68,-12.5,-28.18,1b
2019-07-15_142029:840,-0.591797,-0.029968,-0.187592,0.032804,0.029247000000000002,-0.012017,-34.75,-11.25,-28.18,1b
2019-07-15_142029:860,-0.523163,-0.021851,-0.223175,0.032376999999999996,0.024608,-0.012412999999999999,-34.75,-11.25,-28.18,1b
2019-07-15_142029:880,-0.555176,-0.031494,-0.17337,0.031613999999999996,0.029399,-0.01339,-34.060001,-11.25,-27.5,1b
2019-07-15_142029:900,-0.5480649999999999,-0.032013,-0.190125,0.030607,0.031963,-0.015038,-34.060001,-11.25,-27.5,1b
2019-07-15_142029:920,-0.501282,-0.042175,-0.18096900000000002,0.031278,0.031383,-0.015374,-34.060001,-11.25,-27.5,1b
2019-07-15_142029:940,-0.467743,-0.040649,-0.186584,0.030088,0.028208999999999998,-0.016442,-34.75,-11.25,-26.68,1b
2019-07-15_142029:960,-0.452484,-0.047272,-0.183533,0.028074,0.023691999999999998,-0.00988,-34.75,-11.25,-26.68,1b
2019-07-15_142029:980,-0.435699,-0.05285599999999999,-0.18249500000000002,0.0249,0.019572,0.002113,-35.560001,-10.56,-25.059998999999998,1b
2019-07-15_142030:000,-0.411285,-0.066589,-0.172852,0.020964,0.017772,0.013984,-35.560001,-10.56,-25.059998999999998,1b
2019-07-15_142030:020,-0.414337,-0.07775900000000001,-0.1698,0.017728999999999998,0.01823,0.018226,-35.560001,-10.56,-25.059998999999998,1b
2019-07-15_142030:040,-0.410797,-0.084381,-0.166229,0.016081,0.018290999999999998,0.016638999999999998,-35.560001,-10.18,-25.870001000000002,1b
2019-07-15_142030:060,-0.398071,-0.089478,-0.1698,0.014677,0.015849000000000002,0.012245,-35.560001,-10.18,-25.870001000000002,1b
2019-07-15_142030:080,-0.390442,-0.09353600000000001,-0.176422,0.012998,0.010478,0.009529000000000001,-37.18,-9.5,-25.0,1b
2019-07-15_142030:100,-0.401123,-0.09353600000000001,-0.17944300000000002,0.011625,0.0042829999999999995,0.007698,-37.18,-9.5,-25.0,1b
2019-07-15_142030:120,-0.41995200000000005,-0.08843999999999999,-0.186584,0.010496,-0.00237,0.004371,-37.18,-9.5,-25.0,1b
2019-07-15_142030:140,-0.432159,-0.083862,-0.193176,0.009703,-0.009022,0.000709,-36.75,-8.25,-25.370001000000002,1b
2019-07-15_142030:160,-0.42758199999999996,-0.07775900000000001,-0.201843,0.009764,-0.015187,-0.0037770000000000004,-36.75,-8.25,-25.370001000000002,1b
2019-07-15_142030:180,-0.43774399999999997,-0.071167,-0.20944200000000002,0.009764,-0.019643,-0.00927,-36.060001,-8.0,-25.75,1b
2019-07-15_142030:200,-0.46823100000000006,-0.06405599999999999,-0.20843499999999998,0.010099,-0.020833,-0.012993000000000001,-36.060001,-8.0,-25.75,1b
2019-07-15_142030:220,-0.481476,-0.059479,-0.20486500000000002,0.009977,-0.017049,-0.014518999999999999,-36.060001,-8.0,-25.75,1b
2019-07-15_142030:240,-0.474854,-0.054901,-0.192688,0.009306,-0.009724,-0.013268,-35.25,-8.0,-26.18,1b
2019-07-15_142030:260,-0.46670500000000004,-0.05285599999999999,-0.183014,0.00836,-0.002431,-0.010551999999999999,-35.25,-8.0,-26.18,1b
2019-07-15_142030:280,-0.446899,-0.05285599999999999,-0.1698,0.007109000000000001,0.002788,-0.00927,-35.25,-8.0,-25.75,1b
2019-07-15_142030:300,-0.432159,-0.051849,-0.161652,0.006162,0.004833,-0.00927,-35.25,-8.0,-25.75,1b
2019-07-15_142030:320,-0.420441,-0.051330999999999995,-0.151001,0.00543,0.004222,-0.010154999999999999,-35.25,-8.0,-25.75,1b
2019-07-15_142030:340,-0.423004,-0.050842,-0.150482,0.004576,0.001537,-0.010459999999999999,-35.25,-8.25,-28.559998999999998,1b
2019-07-15_142030:360,-0.430634,-0.049805,-0.150482,0.0035380000000000003,-0.001515,-0.010154999999999999,-35.25,-8.25,-28.559998999999998,1b
2019-07-15_142030:380,-0.439758,-0.049805,-0.152527,0.002531,-0.003896,-0.010154999999999999,-34.869999,-9.87,-26.18,1b
2019-07-15_142030:400,-0.44433599999999995,-0.047272,-0.153015,0.001737,-0.004353,-0.010277,-34.869999,-9.87,-26.18,1b
2019-07-15_142030:420,-0.444855,-0.045226999999999996,-0.153534,0.000944,-0.003621,-0.00988,-34.869999,-9.87,-26.18,1b
2019-07-15_142030:440,-0.44384799999999996,-0.044219999999999995,-0.157074,-6.3e-05,-0.002522,-0.009545,-34.869999,-9.37,-25.75,1b
2019-07-15_142030:460,-0.44891400000000004,-0.043701,-0.158112,-0.001375,-0.0008439999999999999,-0.008416,-34.869999,-9.37,-25.75,1b
2019-07-15_142030:480,-0.463654,-0.045745999999999995,-0.160126,-0.002535,0.00114,-0.006706999999999999,-34.560001,-9.75,-26.559998999999998,1b
2019-07-15_142030:500,-0.46926899999999994,-0.047791,-0.161652,-0.00403,0.002971,-0.005639,-34.560001,-9.75,-26.559998999999998,1b
2019-07-15_142030:520,-0.48553500000000005,-0.049316000000000006,-0.162689,-0.005404,0.004222,-0.004967,-34.560001,-9.75,-26.559998999999998,1b
2019-07-15_142030:540,-0.49975600000000003,-0.051849,-0.164215,-0.006807,0.005016,-0.0037159999999999997,-33.5,-9.06,-26.870001000000002,1b
2019-07-15_142030:560,-0.512482,-0.053863999999999995,-0.167755,-0.008272,0.005504,-0.0021899999999999997,-33.5,-9.06,-26.870001000000002,1b
2019-07-15_142030:580,-0.521637,-0.055389,-0.168793,-0.009401000000000001,0.006938,-0.000786,-34.18,-10.18,-26.559998999999998,1b
2019-07-15_142030:600,-0.535339,-0.055908000000000006,-0.160645,-0.01047,0.010997,-5.4000000000000005e-05,-34.18,-10.18,-26.559998999999998,1b
2019-07-15_142030:620,-0.531799,-0.051849,-0.159119,-0.011568,0.015849000000000002,0.000648,-34.18,-10.18,-26.559998999999998,1b
2019-07-15_142030:640,-0.525696,-0.053375,-0.155548,-0.012575,0.02122,0.001625,-33.060001,-10.5,-26.18,1b
2019-07-15_142030:660,-0.56839,-0.054901,-0.151489,-0.013765000000000001,0.024486,0.003181,-33.060001,-10.5,-26.18,1b
2019-07-15_142030:680,-0.612122,-0.048798,-0.159119,-0.015290999999999999,0.022165999999999998,0.006233,-34.560001,-10.5,-26.559998999999998,1b
2019-07-15_142030:700,-0.5734859999999999,-0.053863999999999995,-0.136749,-0.017702000000000002,0.021616999999999997,0.011604000000000001,-34.560001,-10.5,-26.559998999999998,1b
2019-07-15_142030:720,-0.5572199999999999,-0.049805,-0.158112,-0.019015,0.020702,0.011207,-34.560001,-10.5,-26.559998999999998,1b
2019-07-15_142030:740,-0.549072,-0.047791,-0.152527,-0.020144,0.020366,0.009529000000000001,-34.869999,-10.5,-25.370001000000002,1b
2019-07-15_142030:760,-0.502319,-0.042694,-0.153534,-0.020753999999999998,0.02122,0.008339,-34.869999,-10.5,-25.370001000000002,1b
2019-07-15_142030:780,-0.48349,-0.042694,-0.151001,-0.020266,0.023082,0.00489,-35.25,-10.87,-24.18,1b
2019-07-15_142030:800,-0.417908,-0.029480000000000003,-0.134216,-0.018404,0.024944,-0.000573,-35.25,-10.87,-24.18,1b
2019-07-15_142030:820,-0.383331,-0.022858,-0.127594,-0.016024,0.025889999999999996,-0.002587,-35.25,-10.87,-24.18,1b
2019-07-15_142030:840,-0.397583,-0.020844,-0.11691300000000002,-0.013581999999999999,0.024211,-0.0019149999999999998,-35.68,-10.18,-23.059998999999998,1b
2019-07-15_142030:860,-0.421967,-0.01828,-0.11691300000000002,-0.011507,0.019969,-0.0019149999999999998,-35.68,-10.18,-23.059998999999998,1b
2019-07-15_142030:880,-0.402649,-0.012177,-0.11538699999999999,-0.009798000000000001,0.014262,0.00016,-35.68,-10.87,-22.18,1b
2019-07-15_142030:900,-0.401123,-0.012695,-0.12454200000000001,-0.008851999999999999,0.006816,0.003975,-35.68,-10.87,-22.18,1b
2019-07-15_142030:920,-0.41943400000000003,-0.012695,-0.136749,-0.008211,-0.001515,0.0061719999999999995,-35.68,-10.87,-22.18,1b
2019-07-15_142030:940,-0.43011499999999997,-0.015228,-0.142334,-0.007479,-0.010274,0.005836,-35.68,-11.18,-21.370001000000002,1b
2019-07-15_142030:960,-0.441284,-0.017273,-0.163696,-0.006807,-0.0183,0.003822,-35.68,-11.18,-21.370001000000002,1b
2019-07-15_142030:980,-0.44027700000000003,-0.017792,-0.167755,-0.006136,-0.024464,0.002357,-35.68,-11.18,-21.059998999999998,1b
2019-07-15_142031:000,-0.49316400000000005,-0.024902,-0.174896,-0.005526,-0.025655,0.002235,-35.68,-11.18,-21.059998999999998,1b
2019-07-15_142031:020,-0.503845,-0.027954000000000003,-0.17385899999999999,-0.004488000000000001,-0.020345,0.003303,-35.68,-11.18,-21.059998999999998,1b
2019-07-15_142031:040,-0.502808,-0.032532,-0.171326,-0.0036340000000000005,-0.011678000000000001,0.004493,-35.25,-10.87,-22.18,1b
2019-07-15_142031:060,-0.489075,-0.036591000000000005,-0.164215,-0.002169,-0.004109000000000001,0.005561,-35.25,-10.87,-22.18,1b
2019-07-15_142031:080,-0.466217,-0.039124,-0.146912,5.9e-05,0.0017809999999999998,0.0058969999999999995,-34.869999,-10.5,-23.059998999999998,1b
2019-07-15_142031:100,-0.455017,-0.039642000000000004,-0.137268,0.000669,0.002177,0.006019,-34.869999,-10.5,-23.059998999999998,1b
2019-07-15_142031:120,-0.445374,-0.040649,-0.12506099999999998,0.00305,0.000407,0.005226,-34.869999,-10.5,-23.059998999999998,1b
2019-07-15_142031:140,-0.446899,-0.040161,-0.122528,0.003721,-0.001057,0.004158,-34.68,-10.87,-23.059998999999998,1b
2019-07-15_142031:160,-0.439758,-0.039642000000000004,-0.12353499999999999,0.00604,-0.0054210000000000005,0.001625,-34.68,-10.87,-23.059998999999998,1b
2019-07-15_142031:180,-0.439758,-0.040649,-0.127594,0.007383,-0.007741,0.000831,-34.68,-10.5,-23.75,1b
2019-07-15_142031:200,-0.445862,-0.037598,-0.13269,0.008451,-0.008931,-0.000389,-34.68,-10.5,-23.75,1b
2019-07-15_142031:220,-0.447906,-0.036072,-0.134705,0.009703,-0.008992,-0.001641,-34.68,-10.5,-23.75,1b
2019-07-15_142031:240,-0.45654300000000003,-0.037108999999999996,-0.140808,0.010771,-0.007405,-0.002587,-34.68,-10.18,-23.75,1b
2019-07-15_142031:260,-0.462646,-0.036072,-0.14032,0.011961,-0.00475,-0.002892,-34.68,-10.18,-23.75,1b
2019-07-15_142031:280,-0.460114,-0.037108999999999996,-0.144379,0.013609,-0.001393,-0.003045,-33.869999,-9.37,-23.370001000000002,1b
2019-07-15_142031:300,-0.477386,-0.039124,-0.137268,0.015074,0.00172,-0.0033799999999999998,-33.869999,-9.37,-23.370001000000002,1b
2019-07-15_142031:320,-0.488068,-0.040649,-0.133179,0.016996,0.003703,-0.003045,-33.869999,-9.37,-23.370001000000002,1b
2019-07-15_142031:340,-0.494171,-0.039124,-0.133179,0.018338999999999998,0.0052899999999999996,-0.00277,-33.869999,-9.37,-23.370001000000002,1b
2019-07-15_142031:360,-0.5109560000000001,-0.039124,-0.132172,0.019926,0.005961999999999999,-0.002587,-33.869999,-9.37,-23.370001000000002,1b
2019-07-15_142031:380,-0.519073,-0.037598,-0.135223,0.020964,0.007488,-0.0023120000000000003,-33.060001,-8.68,-23.75,1b
2019-07-15_142031:400,-0.5211180000000001,-0.035583,-0.135742,0.02136,0.009685,-0.001854,-33.060001,-8.68,-23.75,1b
2019-07-15_142031:420,-0.517059,-0.034058,-0.135742,0.021299000000000002,0.012737,-0.00023700000000000001,-33.060001,-8.68,-23.75,1b
2019-07-15_142031:440,-0.514496,-0.033539,-0.134705,0.020841,0.013652000000000001,0.001442,-32.869999,-7.87,-24.18,1b
2019-07-15_142031:460,-0.528748,-0.036591000000000005,-0.138275,0.020048,0.014537000000000001,0.002571,-32.869999,-7.87,-24.18,1b
2019-07-15_142031:480,-0.608063,-0.044219999999999995,-0.13623,0.019438,0.012798,0.0038829999999999997,-33.869999,-8.68,-23.059998999999998,1b
2019-07-15_142031:500,-0.587708,-0.040649,-0.156586,0.018003,0.015269999999999999,0.005439,-33.869999,-8.68,-23.059998999999998,1b
2019-07-15_142031:520,-0.606537,-0.051330999999999995,-0.129639,0.016874,0.020152,0.004432,-33.869999,-8.68,-23.059998999999998,1b
2019-07-15_142031:540,-0.5872189999999999,-0.050323,-0.13269,0.015928,0.022685,0.0051649999999999995,-33.560001,-7.56,-23.370001000000002,1b
2019-07-15_142031:560,-0.535858,-0.058441,-0.12048299999999999,0.013487,0.026987999999999998,0.007423000000000001,-33.560001,-7.56,-23.370001000000002,1b
2019-07-15_142031:580,-0.49975600000000003,-0.061005,-0.12200899999999999,0.012022,0.027201999999999997,0.008278,-33.560001,-6.37,-22.559998999999998,1b
2019-07-15_142031:600,-0.458588,-0.069641,-0.116425,0.009214,0.023235,0.015052000000000001,-33.560001,-6.37,-22.559998999999998,1b
2019-07-15_142031:620,-0.431641,-0.076752,-0.12048299999999999,0.006956,0.019908000000000002,0.016638999999999998,-33.560001,-6.37,-22.559998999999998,1b
2019-07-15_142031:640,-0.397064,-0.086914,-0.113373,0.005918,0.01823,0.016853,-33.18,-5.68,-22.559998999999998,1b
2019-07-15_142031:660,-0.410797,-0.089478,-0.11843900000000002,0.0032020000000000004,0.014995,0.020027,-33.18,-5.68,-22.559998999999998,1b
2019-07-15_142031:680,-0.426544,-0.09811399999999999,-0.11233499999999999,0.002867,0.014262,0.020301,-33.869999,-5.68,-22.18,1b
2019-07-15_142031:700,-0.432648,-0.10116599999999999,-0.11386099999999999,0.001737,0.013011000000000002,0.01725,-33.869999,-5.68,-22.18,1b
2019-07-15_142031:720,-0.43927,-0.096069,-0.11386099999999999,0.001005,0.010997,0.018684,-33.869999,-5.68,-22.18,1b
2019-07-15_142031:740,-0.444855,-0.095062,-0.11795,0.00045599999999999997,0.009685,0.01963,-34.25,-4.56,-21.0,1b
2019-07-15_142031:760,-0.45605500000000004,-0.096069,-0.121002,-0.0018030000000000001,0.005901,0.017555,-34.25,-4.56,-21.0,1b
2019-07-15_142031:780,-0.469757,-0.097595,-0.128113,-0.002657,0.00471,0.015113,-34.25,-4.56,-21.0,1b
2019-07-15_142031:800,-0.470276,-0.10116599999999999,-0.12912,-0.005678,0.0008960000000000001,0.00489,-33.869999,-4.18,-21.75,1b
2019-07-15_142031:820,-0.46060200000000007,-0.102692,-0.133698,-0.007387,-0.001179,-0.0019149999999999998,-33.869999,-4.18,-21.75,1b
2019-07-15_142031:840,-0.45605500000000004,-0.102692,-0.134705,-0.00812,-0.002095,-0.004692,-33.5,-4.18,-20.559998999999998,1b
2019-07-15_142031:860,-0.46316499999999994,-0.10318,-0.129639,-0.009340000000000001,-0.0027660000000000002,-0.010856999999999999,-33.5,-4.18,-20.559998999999998,1b
2019-07-15_142031:880,-0.47079499999999996,-0.101685,-0.124054,-0.009401000000000001,-0.002156,-0.012412999999999999,-33.5,-3.87,-20.18,1b
2019-07-15_142031:900,-0.469757,-0.096069,-0.112854,-0.009127,0.002116,-0.014183000000000001,-33.5,-3.87,-20.18,1b
2019-07-15_142031:920,-0.467224,-0.09149199999999999,-0.10116599999999999,-0.008608,0.005168,-0.014977,-33.5,-3.87,-20.18,1b
2019-07-15_142031:940,-0.459595,-0.084381,-0.091003,-0.008454999999999999,0.006236,-0.015038,-33.060001,-4.87,-21.25,1b
2019-07-15_142031:960,-0.45401,-0.08081100000000001,-0.082855,-0.007876000000000001,0.005565,-0.014672,-33.060001,-4.87,-21.25,1b
2019-07-15_142031:980,-0.441284,-0.074738,-0.078796,-0.007723000000000001,0.004222,-0.015191,-33.5,-4.56,-21.25,1b
2019-07-15_142032:000,-0.43621800000000005,-0.068634,-0.078796,-0.008181,-0.002522,-0.017693,-33.5,-4.56,-21.25,1b
2019-07-15_142032:020,-0.429596,-0.060486,-0.081329,-0.009401000000000001,-0.008015000000000001,-0.018364,-33.5,-4.56,-21.25,1b
2019-07-15_142032:040,-0.429596,-0.055389,-0.083862,-0.010439,-0.011281,-0.018517,-32.75,-5.25,-19.0,1b
2019-07-15_142032:060,-0.431122,-0.048798,-0.0849,-0.014223,-0.019246,-0.017296000000000002,-32.75,-5.25,-19.0,1b
2019-07-15_142032:080,-0.429108,-0.048279,-0.089478,-0.015505000000000001,-0.021168,-0.016564,-32.75,-5.25,-19.0,1b
2019-07-15_142032:100,-0.44027700000000003,-0.05285599999999999,-0.088959,-0.019625,-0.025471,-0.014641,-32.869999,-6.06,-22.059998999999998,1b
2019-07-15_142032:120,-0.455017,-0.05285599999999999,-0.094055,-0.020723,-0.026448000000000003,-0.013328999999999999,-32.869999,-6.06,-22.059998999999998,1b
2019-07-15_142032:140,-0.445862,-0.057434000000000006,-0.09454299999999999,-0.022249,-0.029102999999999997,-0.010551999999999999,-31.68,-7.18,-21.75,1b
2019-07-15_142032:160,-0.46060200000000007,-0.057953,-0.10116599999999999,-0.02405,-0.033437,-0.008629000000000001,-31.68,-7.18,-21.75,1b
2019-07-15_142032:180,-0.505371,-0.056427,-0.116425,-0.024386,-0.033498,-0.007164,-30.559998999999998,-7.56,-22.5,1b
2019-07-15_142032:200,-0.52417,-0.056915,-0.12149000000000001,-0.024904,-0.031514,-0.0033799999999999998,-30.559998999999998,-7.56,-22.5,1b
2019-07-15_142032:220,-0.5495909999999999,-0.056915,-0.130127,-0.025911,-0.021168,-0.000512,-30.559998999999998,-7.56,-22.5,1b
2019-07-15_142032:240,-0.564331,-0.055908000000000006,-0.140808,-0.026307999999999998,-0.015584,-0.000176,-29.870001000000002,-8.68,-23.25,1b
2019-07-15_142032:260,-0.562805,-0.053863999999999995,-0.157074,-0.027987,0.001292,0.001716,-29.870001000000002,-8.68,-23.25,1b
2019-07-15_142032:280,-0.551117,-0.052338,-0.161163,-0.028689,0.00648,0.002357,-29.870001000000002,-8.68,-23.25,1b
2019-07-15_142032:300,-0.565338,-0.05438200000000001,-0.150482,-0.030976999999999998,0.017314,0.004707,-28.68,-9.06,-23.25,1b
2019-07-15_142032:320,-0.629425,-0.054901,-0.152008,-0.03174,0.017588999999999997,0.0055,-28.68,-9.06,-23.25,1b
2019-07-15_142032:340,-0.544495,-0.056427,-0.138794,-0.033205,0.016856,0.008612999999999999,-28.68,-9.37,-22.5,1b
2019-07-15_142032:360,-0.592804,-0.057434000000000006,-0.151489,-0.033816000000000006,0.018290999999999998,0.006965000000000001,-28.68,-9.37,-22.5,1b
2019-07-15_142032:380,-0.548584,-0.055908000000000006,-0.13623,-0.034212,0.019572,0.004158,-28.68,-9.37,-22.5,1b
2019-07-15_142032:400,-0.533844,-0.055908000000000006,-0.138794,-0.032503,0.020305,0.001838,-28.370001000000002,-10.06,-22.5,1b
2019-07-15_142032:420,-0.47280900000000003,-0.050842,-0.127594,-0.028322000000000003,0.020427,-0.005181,-28.370001000000002,-10.06,-22.5,1b
2019-07-15_142032:440,-0.43518100000000004,-0.044219999999999995,-0.119965,-0.026125,0.019634,-0.007622,-29.870001000000002,-10.5,-22.18,1b
2019-07-15_142032:460,-0.393005,-0.035065,-0.09963999999999999,-0.020266,0.018565,-0.011284,-29.870001000000002,-10.5,-22.18,1b
2019-07-15_142032:480,-0.39502,-0.026427999999999997,-0.094055,-0.018678999999999998,0.01765,-0.010154999999999999,-29.870001000000002,-10.5,-22.18,1b
2019-07-15_142032:500,-0.395538,-0.019318000000000002,-0.09454299999999999,-0.014894999999999999,0.007762000000000001,-0.003106,-29.5,-11.18,-20.68,1b
2019-07-15_142032:520,-0.386383,-0.017273,-0.098633,-0.013765000000000001,0.002574,-0.0029219999999999997,-29.5,-11.18,-20.68,1b
2019-07-15_142032:540,-0.396057,-0.011687999999999999,-0.115906,-0.012514,-0.008015000000000001,-0.004021,-29.5,-11.18,-20.68,1b
2019-07-15_142032:560,-0.41586300000000004,-0.012695,-0.12912,-0.011049,-0.017232,-0.0037770000000000004,-29.5,-11.18,-20.68,1b
2019-07-15_142032:580,-0.434692,-0.012695,-0.154022,-0.009188,-0.025745999999999998,-0.003319,-29.5,-11.18,-20.68,1b
2019-07-15_142032:600,-0.471283,-0.014740000000000001,-0.172333,-0.007448000000000001,-0.033375999999999996,-0.003319,-28.68,-12.0,-19.370001000000002,1b
2019-07-15_142032:620,-0.510437,-0.019806,-0.194214,-0.005129,-0.033498,-0.003319,-28.68,-12.0,-19.370001000000002,1b
2019-07-15_142032:640,-0.5246890000000001,-0.024902,-0.20385699999999998,-0.002199,-0.025655,-0.0033799999999999998,-27.68,-12.68,-21.25,1b
2019-07-15_142032:660,-0.49517799999999995,-0.027954000000000003,-0.203369,0.001524,-0.015248,-0.002983,-27.68,-12.68,-21.25,1b
2019-07-15_142032:680,-0.476379,-0.031494,-0.193695,0.005369,-0.007802,-0.0021899999999999997,-27.68,-12.68,-21.25,1b
2019-07-15_142032:700,-0.45401,-0.032532,-0.17538499999999999,0.008298999999999999,-0.004811,-0.001,-27.25,-12.68,-21.370001000000002,1b
2019-07-15_142032:720,-0.443329,-0.034058,-0.16217,0.011228,-0.004231,0.001564,-27.25,-12.68,-21.370001000000002,1b
2019-07-15_142032:740,-0.418915,-0.040161,-0.152527,0.013151,-0.0062759999999999995,0.003425,-25.75,-12.37,-21.870001000000002,1b
2019-07-15_142032:760,-0.420441,-0.049316000000000006,-0.145386,0.015806,-0.011922,0.002052,-25.75,-12.37,-21.870001000000002,1b
2019-07-15_142032:780,-0.41842700000000005,-0.05438200000000001,-0.139801,0.017668,-0.018697,-0.000512,-25.75,-12.37,-21.870001000000002,1b
2019-07-15_142032:800,-0.405212,-0.05996699999999999,-0.144897,0.020231,-0.026264999999999997,-0.00216,-26.870001000000002,-11.56,-22.559998999999998,1b
2019-07-15_142032:820,-0.394012,-0.058441,-0.151489,0.022428,-0.034627,-0.006706999999999999,-26.870001000000002,-11.56,-22.559998999999998,1b
2019-07-15_142032:840,-0.374176,-0.057953,-0.14743,0.023832,-0.043782,-0.010888,-25.370001000000002,-11.18,-23.059998999999998,1b
2019-07-15_142032:860,-0.40011599999999997,-0.05285599999999999,-0.171844,0.025907,-0.054889999999999994,-0.012993000000000001,-25.370001000000002,-11.18,-23.059998999999998,1b
2019-07-15_142032:880,-0.449432,-0.050842,-0.18454,0.027494,-0.058461,-0.015038,-25.370001000000002,-11.18,-23.059998999999998,1b
2019-07-15_142032:900,-0.467743,-0.046265,-0.198792,0.029356,-0.053548,-0.01693,-24.25,-11.18,-24.18,1b
2019-07-15_142032:920,-0.46670500000000004,-0.044219999999999995,-0.20538299999999998,0.031675,-0.045583,-0.019219,-24.25,-11.18,-24.18,1b
2019-07-15_142032:940,-0.45401,-0.039642000000000004,-0.219635,0.033872,-0.038228,-0.021416,-22.370001000000002,-10.87,-26.870001000000002,1b
2019-07-15_142032:960,-0.465179,-0.036591000000000005,-0.217072,0.0361,-0.032246,-0.02221,-22.370001000000002,-10.87,-26.870001000000002,1b
2019-07-15_142032:980,-0.47280900000000003,-0.028961,-0.235382,0.037901,-0.026997000000000004,-0.021904,-22.370001000000002,-10.87,-26.870001000000002,1b
2019-07-15_142033:000,-0.46823100000000006,-0.023375999999999997,-0.242493,0.039883999999999996,-0.022542,-0.021355000000000002,-20.68,-11.0,-28.18,1b
2019-07-15_142033:020,-0.46417200000000003,-0.018799,-0.24758899999999998,0.041166,-0.018636,-0.020562,-20.68,-11.0,-28.18,1b
2019-07-15_142033:040,-0.475372,-0.012695,-0.250641,0.042082,-0.014728999999999999,-0.019584999999999998,-19.18,-9.87,-28.18,1b
2019-07-15_142033:060,-0.473846,-0.007111,-0.262848,0.042234,-0.009724,-0.018914,-19.18,-9.87,-28.18,1b
2019-07-15_142033:080,-0.46875,-0.007111,-0.267426,0.042143,-0.0040479999999999995,-0.018761,-19.18,-9.87,-28.18,1b
2019-07-15_142033:100,-0.485016,-0.009644,-0.267426,0.042356,0.001994,-0.019371,-18.5,-8.37,-29.370001000000002,1b
2019-07-15_142033:120,-0.579071,-0.016753999999999998,-0.268433,0.043211,0.004436,-0.022423,-18.5,-8.37,-29.370001000000002,1b
2019-07-15_142033:140,-0.47433500000000006,-0.015228,-0.282166,0.044676,-0.002248,-0.024681,-18.059998999999998,-8.37,-31.059998999999998,1b
2019-07-15_142033:160,-0.522644,-0.019806,-0.264374,0.046537,0.000499,-0.023278,-18.059998999999998,-8.37,-31.059998999999998,1b
2019-07-15_142033:180,-0.520111,-0.038116000000000004,-0.27301,0.049192,-0.0007830000000000001,-0.020347999999999998,-18.059998999999998,-8.37,-31.059998999999998,1b
2019-07-15_142033:200,-0.470276,-0.041168,-0.266388,0.052854,-0.001698,-0.021904,-17.75,-7.68,-31.870001000000002,1b
2019-07-15_142033:220,-0.45043900000000003,-0.049316000000000006,-0.257233,0.055082000000000006,-0.0009050000000000001,-0.019646,-17.75,-7.68,-31.870001000000002,1b
2019-07-15_142033:240,-0.445862,-0.057434000000000006,-0.252686,0.056608000000000006,0.001018,-0.011467,-17.5,-5.87,-31.059998999999998,1b
2019-07-15_142033:260,-0.40976,-0.07421900000000001,-0.238434,0.056303,0.005168,-0.0066760000000000005,-17.5,-5.87,-31.059998999999998,1b
2019-07-15_142033:280,-0.40368699999999996,-0.083374,-0.233337,0.055478999999999994,0.007945,-0.007958,-17.5,-5.87,-31.059998999999998,1b
2019-07-15_142033:300,-0.374176,-0.086426,-0.233337,0.053617,0.0069689999999999995,-0.009362,-16.5,-4.37,-31.5,1b
2019-07-15_142033:320,-0.359955,-0.08996599999999999,-0.23486300000000002,0.051115,0.0024519999999999998,-0.011284,-16.5,-4.37,-31.5,1b
2019-07-15_142033:340,-0.347229,-0.088959,-0.244019,0.046781,-0.0033159999999999995,-0.014397,-16.75,-2.56,-32.25,1b
2019-07-15_142033:360,-0.36044299999999996,-0.085388,-0.25317399999999995,0.042234,-0.01067,-0.015526,-16.75,-2.56,-32.25,1b
2019-07-15_142033:380,-0.365021,-0.0849,-0.262329,0.037565,-0.018512999999999998,-0.015648,-16.75,-2.56,-32.25,1b
2019-07-15_142033:400,-0.375214,-0.083374,-0.276581,0.032011000000000005,-0.024922,-0.016564,-16.75,-1.18,-32.0,1b
2019-07-15_142033:420,-0.389435,-0.082336,-0.28112800000000004,0.026762,-0.029835000000000004,-0.016319999999999998,-16.75,-1.18,-32.0,1b
2019-07-15_142033:440,-0.41586300000000004,-0.08590700000000001,-0.28112800000000004,0.021634999999999998,-0.0313,-0.015313,-16.059998999999998,-0.37,-32.369999,1b
2019-07-15_142033:460,-0.41842700000000005,-0.08743300000000001,-0.276062,0.016935,-0.026936,-0.015923,-16.059998999999998,-0.37,-32.369999,1b
2019-07-15_142033:480,-0.393005,-0.086426,-0.268433,0.013212,-0.020497,-0.017571,-16.059998999999998,-0.37,-32.369999,1b
2019-07-15_142033:500,-0.374695,-0.085388,-0.259277,0.010099,-0.014972999999999998,-0.0187,-15.0,-0.75,-33.18,1b
2019-07-15_142033:520,-0.36554000000000003,-0.081848,-0.24453699999999998,0.007292,-0.011128,-0.019097,-15.0,-0.75,-33.18,1b
2019-07-15_142033:540,-0.381317,-0.083374,-0.245056,0.005308,-0.008687,-0.018975,-12.68,0.68,-33.18,1b
2019-07-15_142033:560,-0.35791,-0.082336,-0.256226,0.003599,-0.009267000000000001,-0.019431999999999998,-12.68,0.68,-33.18,1b
2019-07-15_142033:580,-0.349274,-0.078796,-0.275055,0.002531,-0.014577000000000001,-0.020347999999999998,-12.68,0.68,-33.18,1b
2019-07-15_142033:600,-0.364014,-0.077271,-0.29486100000000004,0.0017980000000000001,-0.021504,-0.021172,-13.5,0.18,-33.869999,1b
2019-07-15_142033:620,-0.375214,-0.074738,-0.309601,0.001188,-0.026784,-0.020104,-13.5,0.18,-33.869999,1b
2019-07-15_142033:640,-0.405212,-0.069122,-0.322845,0.001188,-0.028706,-0.017052,-13.18,0.18,-34.369999,1b
2019-07-15_142033:660,-0.417908,-0.067108,-0.322845,0.001005,-0.022603,-0.012261,-13.18,0.18,-34.369999,1b
2019-07-15_142033:680,-0.416382,-0.060486,-0.321808,0.000944,-0.019093000000000002,-0.010674,-13.18,0.18,-34.369999,1b
2019-07-15_142033:700,-0.40976,-0.055389,-0.316742,0.000151,-0.010884,-0.006829000000000001,-12.06,0.18,-34.68,1b
2019-07-15_142033:720,-0.397583,-0.050842,-0.300964,-0.0015890000000000001,-0.004231,-0.0019760000000000003,-12.06,0.18,-34.68,1b
2019-07-15_142033:740,-0.389435,-0.047791,-0.291321,-0.004336,0.000468,0.001564,-10.56,0.18,-34.369999,1b
2019-07-15_142033:760,-0.388428,-0.045745999999999995,-0.281647,-0.007723000000000001,0.0024519999999999998,0.004768,-10.56,0.18,-34.369999,1b
2019-07-15_142033:780,-0.410278,-0.050323,-0.286224,-0.011507,0.002788,0.008003,-10.56,0.18,-34.369999,1b
2019-07-15_142033:800,-0.433655,-0.057434000000000006,-0.29486100000000004,-0.015749000000000003,0.0035810000000000004,0.008154999999999999,-11.0,0.18,-34.68,1b
2019-07-15_142033:820,-0.452484,-0.061005,-0.296906,-0.019869,0.005412,0.00727,-11.0,0.18,-34.68,1b
2019-07-15_142033:840,-0.47943100000000005,-0.067108,-0.296906,-0.023073,0.009288,0.005439,-11.0,0.18,-34.75,1b
2019-07-15_142033:860,-0.471283,-0.062012,-0.298431,-0.026919,0.02235,0.001381,-11.0,0.18,-34.75,1b
2019-07-15_142033:880,-0.462128,-0.056427,-0.301483,-0.026919,0.02235,0.001381,-11.0,0.18,-34.75,1b
2019-07-15_142033:900,-0.46569799999999995,-0.055389,-0.300964,-0.027987,0.026073000000000002,0.0029059999999999997,-9.87,-0.5,-35.18,1b
2019-07-15_142033:920,-0.529755,-0.051330999999999995,-0.323853,-0.029421,0.02766,0.003578,-9.87,-0.5,-35.18,1b
2019-07-15_142033:940,-0.484497,-0.049316000000000006,-0.321808,-0.030244999999999998,0.024028,0.0053479999999999995,-11.68,-1.0,-36.0,1b
2019-07-15_142033:960,-0.5368649999999999,-0.052338,-0.335541,-0.030427999999999997,0.024822,0.008094,-11.68,-1.0,-36.0,1b
2019-07-15_142033:980,-0.5343319999999999,-0.050842,-0.319794,-0.030244999999999998,0.026195,0.0065379999999999995,-11.68,-1.0,-36.0,1b
2019-07-15_142034:000,-0.48043800000000003,-0.046265,-0.31012,-0.028719,0.028606,0.005958,-11.68,-1.68,-35.18,1b
2019-07-15_142034:020,-0.449432,-0.046752999999999996,-0.305542,-0.026186,0.032451,0.004646,-11.68,-1.68,-35.18,1b
2019-07-15_142034:040,-0.384338,-0.036591000000000005,-0.285706,-0.021792,0.035686,-0.001397,-13.87,-3.18,-34.5,1b
2019-07-15_142034:060,-0.34674099999999997,-0.025908999999999998,-0.271484,-0.016359000000000002,0.038005000000000004,-0.0054859999999999996,-13.87,-3.18,-34.5,1b
2019-07-15_142034:080,-0.345215,-0.016266,-0.25521900000000003,-0.011385,0.038676,-0.008140999999999999,-13.87,-3.18,-34.5,1b
2019-07-15_142034:100,-0.34317,-0.005065999999999999,-0.244019,-0.006319,0.037669,-0.010948999999999999,-14.25,-2.87,-34.0,1b
2019-07-15_142034:120,-0.334534,0.006072999999999999,-0.23233,-0.0020469999999999998,0.035106,-0.012261,-14.25,-2.87,-34.0,1b
2019-07-15_142034:140,-0.35131799999999996,0.008118,-0.23233,0.0016460000000000001,0.03065,-0.012871,-15.37,-3.56,-34.0,1b
2019-07-15_142034:160,-0.366058,0.010651,-0.244019,0.004789,0.024730000000000002,-0.013543000000000001,-15.37,-3.56,-34.0,1b
2019-07-15_142034:180,-0.373688,0.009125,-0.25012199999999996,0.00778,0.017711,-0.014672,-15.37,-3.56,-34.0,1b
2019-07-15_142034:200,-0.371643,0.006592,-0.25521900000000003,0.010832,0.011545999999999999,-0.015648,-16.18,-3.06,-32.75,1b
2019-07-15_142034:220,-0.390961,0.0035399999999999997,-0.256226,0.013883000000000001,0.006236,-0.015434999999999999,-16.18,-3.06,-32.75,1b
2019-07-15_142034:240,-0.40823400000000004,0.0,-0.255707,0.018522,0.002757,-0.011071,-16.559998999999998,-3.56,-33.5,1b
2019-07-15_142034:260,-0.416901,-0.006072999999999999,-0.25012199999999996,0.022093,0.003368,-0.009545,-16.559998999999998,-3.56,-33.5,1b
2019-07-15_142034:280,-0.421967,-0.014221000000000001,-0.24758899999999998,0.025022,0.005046,-0.012139,-16.559998999999998,-3.56,-33.5,1b
2019-07-15_142034:300,-0.420959,-0.017792,-0.245056,0.028532,0.0069689999999999995,-0.01339,-16.559998999999998,-2.87,-32.369999,1b
2019-07-15_142034:320,-0.420441,-0.026917,-0.239441,0.031797000000000006,0.008006000000000001,-0.014458000000000002,-16.559998999999998,-2.87,-32.369999,1b
2019-07-15_142034:340,-0.417389,-0.029480000000000003,-0.233856,0.034574,0.007701,-0.015709,-16.18,-2.87,-32.369999,1b
2019-07-15_142034:360,-0.41995200000000005,-0.034546,-0.22879000000000002,0.037382,0.006755,-0.016198,-16.18,-2.87,-32.369999,1b
2019-07-15_142034:380,-0.417908,-0.037598,-0.22879000000000002,0.040098,0.004894,-0.018761,-16.18,-2.87,-32.369999,1b
2019-07-15_142034:400,-0.420441,-0.038635,-0.227264,0.042936,0.002177,-0.020958,-17.559998999999998,-1.37,-32.75,1b
2019-07-15_142034:420,-0.423492,-0.041168,-0.224701,0.045469,-0.0005690000000000001,-0.02108,-17.559998999999998,-1.37,-32.75,1b
2019-07-15_142034:440,-0.41995200000000005,-0.039642000000000004,-0.22421300000000002,0.047849,-0.002827,-0.021904,-17.559998999999998,-0.18,-33.18,1b
2019-07-15_142034:460,-0.415375,-0.039124,-0.220642,0.049467000000000004,-0.004445,-0.023735,-17.559998999999998,-0.18,-33.18,1b
2019-07-15_142034:480,-0.40570100000000003,-0.035583,-0.21859699999999999,0.050962,-0.005971,-0.025078,-17.559998999999998,-0.18,-33.18,1b
2019-07-15_142034:500,-0.41586300000000004,-0.034546,-0.21859699999999999,0.052122,-0.008076,-0.026268,-16.559998999999998,1.18,-32.369999,1b
2019-07-15_142034:520,-0.410278,-0.028442000000000002,-0.217072,0.052915,-0.010152,-0.028130000000000002,-16.559998999999998,1.18,-32.369999,1b
2019-07-15_142034:540,-0.420959,-0.025421,-0.21759,0.053831,-0.011189,-0.030601999999999997,-16.559998999999998,3.06,-34.68,1b
2019-07-15_142034:560,-0.42758199999999996,-0.023895,-0.21554600000000002,0.055021,-0.009602,-0.035363,-16.559998999999998,3.06,-34.68,1b
2019-07-15_142034:580,-0.431641,-0.019806,-0.21759,0.055876,-0.007619,-0.039605,-16.559998999999998,3.06,-34.68,1b
2019-07-15_142034:600,-0.429108,-0.016266,-0.22164899999999998,0.056822000000000004,-0.006428,-0.039818,-16.559998999999998,4.18,-33.25,1b
2019-07-15_142034:620,-0.43518100000000004,-0.01828,-0.22216799999999998,0.058164,-0.006367,-0.039421,-16.559998999999998,4.18,-33.25,1b
2019-07-15_142034:640,-0.451477,-0.017792,-0.226746,0.059294000000000006,-0.005635,-0.040551,-15.25,4.56,-32.060001,1b
2019-07-15_142034:660,-0.462646,-0.017792,-0.226227,0.060819000000000005,-0.003163,-0.042015,-15.25,4.56,-32.060001,1b
2019-07-15_142034:680,-0.469757,-0.016266,-0.22879000000000002,0.06258899999999999,0.000346,-0.043206,-15.25,4.56,-32.060001,1b
2019-07-15_142034:700,-0.47180200000000005,-0.016753999999999998,-0.231812,0.06439,0.0031850000000000003,-0.044732,-16.5,5.25,-33.560001,1b
2019-07-15_142034:720,-0.467224,-0.016266,-0.233856,0.066984,0.005686999999999999,-0.046044,-16.5,5.25,-33.560001,1b
2019-07-15_142034:740,-0.46670500000000004,-0.016266,-0.234375,0.070219,0.0088,-0.047966,-16.559998999999998,7.5,-32.369999,1b
2019-07-15_142034:760,-0.465179,-0.011687999999999999,-0.234375,0.073728,0.013866,-0.047722,-16.559998999999998,7.5,-32.369999,1b
2019-07-15_142034:780,-0.47332799999999997,-0.013702,-0.238434,0.077665,0.017162,-0.046654,-16.559998999999998,7.5,-32.369999,1b
2019-07-15_142034:800,-0.602478,0.000488,-0.29943800000000004,0.07977100000000001,0.006145,-0.046379000000000004,-17.25,9.37,-31.559998999999998,1b
2019-07-15_142034:820,-0.481476,-0.009125,-0.226227,0.079313,0.00761,-0.037682,-17.25,9.37,-31.559998999999998,1b
2019-07-15_142034:840,-0.544495,-0.007111,-0.267426,0.075926,0.012614,-0.028312999999999998,-18.0,10.5,-31.25,1b
2019-07-15_142034:860,-0.418915,-0.006072999999999999,-0.288269,0.063871,0.013408000000000002,-0.032036,-18.370001000000002,11.56,-30.5,1b
2019-07-15_142034:880,-0.418915,-0.006072999999999999,-0.288269,0.061613,0.011729,-0.028405,-18.370001000000002,11.56,-30.5,1b
2019-07-15_142034:900,-0.411804,-0.006592,-0.283173,0.061613,0.011729,-0.028405,-18.370001000000002,11.56,-30.5,1b
2019-07-15_142034:920,-0.376221,-0.024384,-0.274017,0.058164,0.00822,-0.029381,-18.370001000000002,11.56,-30.5,1b
2019-07-15_142034:940,-0.354858,-0.011687999999999999,-0.264374,0.05316,0.007488,-0.036217,-20.559998999999998,13.06,-28.870001000000002,1b
2019-07-15_142034:960,-0.356903,-0.012177,-0.266388,0.052976,0.005686999999999999,-0.034691,-20.559998999999998,13.06,-28.870001000000002,1b
2019-07-15_142034:980,-0.341125,-0.008636,-0.277069,0.050839999999999996,0.0009570000000000001,-0.035424000000000004,-20.559998999999998,13.06,-28.870001000000002,1b
2019-07-15_142035:000,-0.323853,-0.0025329999999999997,-0.280121,0.048918,-0.004018,-0.035637,-21.370001000000002,14.18,-28.370001000000002,1b
2019-07-15_142035:020,-0.349792,0.001007,-0.295898,0.048001999999999996,-0.011342,-0.034172,-21.370001000000002,14.18,-28.370001000000002,1b
2019-07-15_142035:040,-0.349792,0.006592,-0.305054,0.046598,-0.019093000000000002,-0.035363,-20.25,15.25,-27.68,1b
2019-07-15_142035:060,-0.347748,0.012177,-0.318268,0.045408,-0.026479000000000003,-0.037011,-20.25,15.25,-27.68,1b
2019-07-15_142035:080,-0.376221,0.014740000000000001,-0.334534,0.044858999999999996,-0.032368,-0.03875,-20.25,15.25,-27.68,1b
2019-07-15_142035:100,-0.41943400000000003,0.019806,-0.345215,0.043943,-0.032918,-0.037163,-21.0,14.87,-26.870001000000002,1b
2019-07-15_142035:120,-0.432648,0.020325,-0.35180700000000004,0.04376,-0.027852,-0.033318,-21.0,14.87,-26.870001000000002,1b
2019-07-15_142035:140,-0.423492,0.023895,-0.34368899999999997,0.042417,-0.019429,-0.03225,-21.75,16.059998999999998,-27.25,1b
2019-07-15_142035:160,-0.415375,0.025908999999999998,-0.330475,0.040098,-0.012135,-0.031731,-21.75,16.059998999999998,-27.25,1b
2019-07-15_142035:180,-0.401642,0.023895,-0.312653,0.03784,-0.007831999999999999,-0.028923,-21.75,16.059998999999998,-27.25,1b
2019-07-15_142035:200,-0.388428,0.020844,-0.301483,0.035368000000000004,-0.006032,-0.025016999999999998,-21.0,16.75,-27.18,1b
2019-07-15_142035:220,-0.402649,0.008118,-0.288269,0.033384,-0.005879,-0.020347999999999998,-21.0,16.75,-27.18,1b
2019-07-15_142035:240,-0.406738,-0.000488,-0.283173,0.032926,-0.0054210000000000005,-0.016838,-21.370001000000002,15.68,-26.870001000000002,1b
2019-07-15_142035:260,-0.40368699999999996,-0.012177,-0.28112800000000004,0.03311,-0.004414,-0.016503,-21.370001000000002,15.68,-26.870001000000002,1b
2019-07-15_142035:280,-0.393494,-0.016753999999999998,-0.285217,0.034391000000000005,-0.0035600000000000002,-0.017296000000000002,-21.370001000000002,15.68,-26.870001000000002,1b
2019-07-15_142035:300,-0.389435,-0.018799,-0.284698,0.035795,-0.0034990000000000004,-0.019036,-21.870001000000002,16.370001000000002,-26.75,1b
2019-07-15_142035:320,-0.389954,-0.017792,-0.284698,0.037718,-0.0040479999999999995,-0.021355000000000002,-21.870001000000002,16.370001000000002,-26.75,1b
2019-07-15_142035:340,-0.398071,-0.011169,-0.287231,0.039639999999999995,-0.003285,-0.02224,-21.059998999999998,17.870001000000002,-26.370001000000002,1b
2019-07-15_142035:360,-0.401642,-0.011169,-0.28875700000000004,0.04022,-0.001454,-0.021569,-21.059998999999998,17.870001000000002,-26.370001000000002,1b
2019-07-15_142035:380,-0.401642,-0.009644,-0.28979499999999997,0.039579,0.001018,-0.02044,-21.059998999999998,17.870001000000002,-26.370001000000002,1b
2019-07-15_142035:400,-0.393005,-0.011687999999999999,-0.287231,0.038572,0.00349,-0.018914,-22.559998999999998,17.870001000000002,-24.75,1b
2019-07-15_142035:420,-0.391479,-0.017792,-0.278595,0.036772000000000006,0.005412,-0.018456,-22.559998999999998,17.870001000000002,-24.75,1b
2019-07-15_142035:440,-0.390961,-0.020844,-0.27301,0.034178,0.007426,-0.017846,-22.559998999999998,17.870001000000002,-24.370001000000002,1b
2019-07-15_142035:460,-0.398071,-0.027435,-0.267914,0.031462000000000004,0.008342,-0.015191,-22.559998999999998,17.870001000000002,-24.370001000000002,1b
2019-07-15_142035:480,-0.40368699999999996,-0.031494,-0.268433,0.02841,0.008281,-0.011681,-22.559998999999998,17.870001000000002,-24.370001000000002,1b
2019-07-15_142035:500,-0.43011499999999997,-0.038635,-0.266907,0.025144,0.008006000000000001,-0.0078049999999999994,-22.559998999999998,18.559998999999998,-23.25,1b
2019-07-15_142035:520,-0.44891400000000004,-0.045745999999999995,-0.263855,0.022489,0.00941,-0.004845,-22.559998999999998,18.559998999999998,-23.25,1b
2019-07-15_142035:540,-0.475372,-0.052338,-0.257233,0.020384,0.012614,-0.004509,-24.370001000000002,19.5,-23.559998999999998,1b
2019-07-15_142035:560,-0.473846,-0.053863999999999995,-0.25012199999999996,0.018705,0.016368,-0.005242,-24.370001000000002,19.5,-23.559998999999998,1b
2019-07-15_142035:580,-0.460114,-0.056427,-0.24963400000000002,0.017271,0.019359,-0.004631000000000001,-24.370001000000002,19.5,-23.559998999999998,1b
2019-07-15_142035:600,-0.453003,-0.055389,-0.254211,0.01547,0.020975999999999998,-0.003624,-24.0,20.18,-22.370001000000002,1b
2019-07-15_142035:620,-0.46417200000000003,-0.055908000000000006,-0.262848,0.013731,0.020946,-0.0012439999999999999,-24.0,20.18,-22.370001000000002,1b
2019-07-15_142035:640,-0.5211180000000001,-0.055908000000000006,-0.266907,0.011289,0.018962,0.001442,-24.370001000000002,19.870001000000002,-20.870001000000002,1b
2019-07-15_142035:660,-0.5109560000000001,-0.049805,-0.279114,0.007902,0.013866,0.0051649999999999995,-24.370001000000002,19.870001000000002,-20.870001000000002,1b
2019-07-15_142035:680,-0.55365,-0.045745999999999995,-0.266388,0.004057,0.015788,0.009681,-24.370001000000002,19.870001000000002,-20.870001000000002,1b
2019-07-15_142035:700,-0.507904,-0.033539,-0.272003,0.001188,0.021098,0.006965000000000001,-25.18,19.5,-22.370001000000002,1b
2019-07-15_142035:720,-0.46926899999999994,-0.021332,-0.271484,-0.0032979999999999997,0.024333,0.001991,-25.18,19.5,-22.370001000000002,1b
2019-07-15_142035:740,-0.417908,-0.015747,-0.261322,-0.006197,0.02653,0.0021739999999999997,-24.75,19.870001000000002,-20.75,1b
2019-07-15_142035:760,-0.386902,-0.014740000000000001,-0.239441,-0.008791,0.02885,-0.001641,-24.75,19.870001000000002,-20.75,1b
2019-07-15_142035:780,-0.361969,-0.001007,-0.226746,-0.009309999999999999,0.029124,-0.005639,-24.75,19.870001000000002,-20.75,1b
2019-07-15_142035:800,-0.341125,0.0030210000000000002,-0.21453899999999998,-0.009309999999999999,0.027476999999999998,-0.004113,-25.5,20.5,-20.370001000000002,1b
2019-07-15_142035:820,-0.36044299999999996,0.0055850000000000006,-0.213013,-0.009249,0.021159,-0.0012439999999999999,-25.5,20.5,-20.370001000000002,1b
2019-07-15_142035:840,-0.358917,0.006072999999999999,-0.21402,-0.009249,0.013072,0.001381,-26.68,19.75,-19.18,1b
2019-07-15_142035:860,-0.36044299999999996,0.0030210000000000002,-0.22879000000000002,-0.009249,0.00349,0.005287,-26.68,19.75,-19.18,1b
2019-07-15_142035:880,-0.37011700000000003,-0.001007,-0.23895300000000003,-0.009463,-0.006367,0.009956,-26.68,19.75,-19.18,1b
2019-07-15_142035:900,-0.399597,-0.011169,-0.258759,-0.009798000000000001,-0.015309,0.013313,-27.0,19.870001000000002,-19.559998999999998,1b
2019-07-15_142035:920,-0.421967,-0.019806,-0.275543,-0.009859,-0.021626,0.013404,-27.0,19.870001000000002,-19.559998999999998,1b
2019-07-15_142035:940,-0.45605500000000004,-0.027435,-0.279633,-0.010103000000000001,-0.02187,0.010719,-26.68,19.370001000000002,-19.18,1b
2019-07-15_142035:960,-0.461121,-0.032532,-0.268433,-0.010439,-0.015645,0.009406999999999999,-26.68,19.370001000000002,-19.18,1b
2019-07-15_142035:980,-0.447388,-0.044219999999999995,-0.256744,-0.010836,-0.007344,0.010261,-26.68,19.370001000000002,-19.18,1b
2019-07-15_142036:000,-0.430634,-0.050842,-0.24353000000000002,-0.010317,-0.000508,0.009406999999999999,-26.68,19.870001000000002,-20.75,1b
2019-07-15_142036:020,-0.405212,-0.058441,-0.22116100000000002,-0.008578,0.0034289999999999998,0.0058969999999999995,-26.68,19.870001000000002,-20.75,1b
2019-07-15_142036:040,-0.389435,-0.060486,-0.209961,-0.005739,0.0042829999999999995,0.001991,-26.68,19.5,-21.5,1b
2019-07-15_142036:060,-0.375702,-0.06253099999999999,-0.20385699999999998,-0.0022600000000000003,0.0008960000000000001,-0.001519,-26.68,19.5,-21.5,1b
2019-07-15_142036:080,-0.374176,-0.058441,-0.20944200000000002,0.002134,-0.005971,-0.004845,-26.68,19.5,-21.5,1b
2019-07-15_142036:100,-0.399109,-0.054901,-0.22216799999999998,0.0072310000000000004,-0.013050999999999998,-0.008294,-27.0,18.68,-21.18,1b
2019-07-15_142036:120,-0.408752,-0.048798,-0.233337,0.011807999999999999,-0.016316,-0.013207,-27.0,18.68,-21.18,1b
2019-07-15_142036:140,-0.416382,-0.038635,-0.252686,0.016538,-0.016590999999999998,-0.016442,-26.25,20.18,-22.0,1b
2019-07-15_142036:160,-0.433167,-0.031006,-0.263336,0.020231,-0.015034,-0.017296000000000002,-26.25,20.18,-22.0,1b
2019-07-15_142036:180,-0.44384799999999996,-0.024384,-0.274536,0.023619,-0.009755,-0.017388,-26.25,20.18,-22.0,1b
2019-07-15_142036:200,-0.43670699999999996,-0.023375999999999997,-0.280121,0.026487,-0.00237,-0.017235,-26.68,19.370001000000002,-22.68,1b
2019-07-15_142036:220,-0.418915,-0.023895,-0.274536,0.029477999999999997,0.004375,-0.018517,-26.68,19.370001000000002,-22.68,1b
2019-07-15_142036:240,-0.41943400000000003,-0.025421,-0.268951,0.032652,0.0088,-0.019584999999999998,-26.25,19.370001000000002,-21.18,1b
2019-07-15_142036:260,-0.418915,-0.021851,-0.240479,0.041960000000000004,0.008403,-0.02282,-26.68,19.0,-20.75,1b
2019-07-15_142036:280,-0.418915,-0.021851,-0.240479,0.042936,0.006175,-0.02343,-26.68,19.0,-20.75,1b
2019-07-15_142036:300,-0.418915,-0.021851,-0.242493,0.042936,0.006175,-0.02343,-26.68,19.0,-20.75,1b
2019-07-15_142036:320,-0.421967,-0.020325,-0.246063,0.04495,0.000346,-0.024285,-26.68,19.0,-20.75,1b
2019-07-15_142036:340,-0.42758199999999996,-0.021332,-0.249115,0.045683,-0.001912,-0.024163,-28.870001000000002,19.370001000000002,-20.75,1b
2019-07-15_142036:360,-0.44027700000000003,-0.020844,-0.253693,0.046324000000000004,-0.00475,-0.024406999999999998,-28.870001000000002,19.370001000000002,-20.75,1b
2019-07-15_142036:380,-0.471283,-0.025908999999999998,-0.270966,0.046415,-0.003682,-0.023827,-28.870001000000002,19.370001000000002,-20.75,1b
2019-07-15_142036:400,-0.519073,-0.032013,-0.287231,0.046415,-0.001179,-0.024163,-30.0,19.75,-19.18,1b
2019-07-15_142036:420,-0.506378,-0.035583,-0.310638,0.046324000000000004,-0.002705,-0.026818,-30.0,19.75,-19.18,1b
2019-07-15_142036:440,-0.532806,-0.038635,-0.28875700000000004,0.046598,0.001537,-0.029258999999999997,-29.559998999999998,19.870001000000002,-19.18,1b
2019-07-15_142036:460,-0.452484,-0.045226999999999996,-0.267914,0.046079,0.005046,-0.032494,-29.559998999999998,19.870001000000002,-19.18,1b
2019-07-15_142036:480,-0.452484,-0.045226999999999996,-0.267914,0.046079,0.005046,-0.032494,-29.559998999999998,19.870001000000002,-19.18,1b
2019-07-15_142036:500,-0.427063,-0.044739,-0.264374,0.044554,0.005351,-0.033500999999999996,-29.559998999999998,19.370001000000002,-17.18,1b
2019-07-15_142036:520,-0.40011599999999997,-0.05285599999999999,-0.257751,0.043028,0.002361,-0.030052999999999996,-29.559998999999998,19.370001000000002,-17.18,1b
2019-07-15_142036:540,-0.394012,-0.057434000000000006,-0.25521900000000003,0.040769,-0.0007830000000000001,-0.028191,-30.68,19.870001000000002,-18.0,1b
2019-07-15_142036:560,-0.402649,-0.067108,-0.248596,0.038359,-0.000264,-0.028526999999999997,-30.68,19.870001000000002,-18.0,1b
2019-07-15_142036:580,-0.416382,-0.077271,-0.249115,0.036192,0.0034289999999999998,-0.030968,-30.68,19.870001000000002,-18.0,1b
2019-07-15_142036:600,-0.40570100000000003,-0.0849,-0.250641,0.034910000000000004,0.007670999999999999,-0.033318,-32.560001,19.0,-17.559998999999998,1b
2019-07-15_142036:620,-0.385864,-0.090485,-0.25116,0.034970999999999995,0.008495,-0.031639,-32.560001,19.0,-17.559998999999998,1b
2019-07-15_142036:640,-0.371643,-0.09301799999999999,-0.25521900000000003,0.036039,0.004436,-0.029869,-33.75,19.0,-16.370001000000002,1b
2019-07-15_142036:660,-0.374695,-0.088959,-0.261322,0.037504,-0.003041,-0.030785000000000003,-33.75,19.0,-16.370001000000002,1b
2019-07-15_142036:680,-0.385864,-0.083862,-0.27301,0.039579,-0.011585999999999999,-0.030601999999999997,-33.75,19.0,-16.370001000000002,1b
2019-07-15_142036:700,-0.40570100000000003,-0.07928500000000001,-0.278595,0.041166,-0.017049,-0.030266,-33.060001,18.25,-14.75,1b
2019-07-15_142036:720,-0.42758199999999996,-0.074738,-0.28875700000000004,0.041807,-0.016774,-0.030570999999999997,-33.060001,18.25,-14.75,1b
2019-07-15_142036:740,-0.41842700000000005,-0.072174,-0.28674299999999997,0.041838,-0.010792,-0.030510000000000002,-34.18,17.870001000000002,-15.87,1b
2019-07-15_142036:760,-0.388428,-0.070648,-0.28064,0.04083,-0.003285,-0.030724,-34.18,17.870001000000002,-15.87,1b
2019-07-15_142036:780,-0.368073,-0.071167,-0.275055,0.039976,0.002635,-0.030724,-34.18,17.870001000000002,-15.87,1b
2019-07-15_142036:800,-0.353333,-0.065063,-0.267914,0.039182999999999996,0.003978,-0.029656000000000002,-35.25,17.18,-14.75,1b
2019-07-15_142036:820,-0.360962,-0.06405599999999999,-0.262329,0.038175,0.0024519999999999998,-0.027947000000000003,-35.25,17.18,-14.75,1b
2019-07-15_142036:840,-0.372162,-0.05996699999999999,-0.25317399999999995,0.036924,0.001201,-0.026268,-35.25,17.559998999999998,-15.18,1b
2019-07-15_142036:860,-0.379791,-0.058441,-0.25012199999999996,0.035032,0.000682,-0.023216999999999998,-35.25,17.559998999999998,-15.18,1b
2019-07-15_142036:880,-0.377228,-0.057953,-0.25521900000000003,0.032804,-0.001057,-0.020378,-35.25,17.559998999999998,-15.18,1b
2019-07-15_142036:900,-0.380798,-0.056427,-0.259277,0.030454000000000002,-0.002583,-0.020104,-36.0,16.059998999999998,-14.75,1b
2019-07-15_142036:920,-0.391968,-0.050323,-0.260284,0.028349,-0.0033770000000000002,-0.021569,-36.0,16.059998999999998,-14.75,1b
2019-07-15_142036:940,-0.404694,-0.048279,-0.260803,0.025633,-0.003621,-0.02163,-37.5,16.75,-14.75,1b
2019-07-15_142036:960,-0.42248500000000005,-0.044739,-0.257233,0.022886,-0.001912,-0.019707,-37.5,16.75,-14.75,1b
2019-07-15_142036:980,-0.43011499999999997,-0.043701,-0.257233,0.019865,0.000499,-0.017235,-37.5,16.75,-14.75,1b
2019-07-15_142037:000,-0.43774399999999997,-0.041687,-0.255707,0.016874,0.0031850000000000003,-0.014855000000000002,-36.0,16.059998999999998,-14.25,1b
2019-07-15_142037:020,-0.437225,-0.042175,-0.24963400000000002,0.013761,0.00471,-0.012322,-36.0,16.059998999999998,-14.25,1b
2019-07-15_142037:040,-0.43927,-0.043213,-0.252686,0.010740000000000001,0.004436,-0.010125,-37.5,15.18,-14.68,1b
2019-07-15_142037:060,-0.44281000000000004,-0.046265,-0.253693,0.008085,0.003032,-0.008873,-37.5,15.18,-14.68,1b
2019-07-15_142037:080,-0.445862,-0.043701,-0.26181,0.005644,0.002116,-0.008598999999999999,-37.5,15.18,-14.68,1b
2019-07-15_142037:100,-0.451477,-0.044219999999999995,-0.26944,0.004057,0.001292,-0.009331,-37.560001,15.18,-13.5,1b
2019-07-15_142037:120,-0.473846,-0.043213,-0.278107,0.002928,0.0016589999999999999,-0.009667,-37.560001,15.18,-13.5,1b
2019-07-15_142037:140,-0.5323180000000001,-0.042694,-0.288269,0.002378,0.002757,-0.008202,-38.0,14.75,-13.5,1b
2019-07-15_142037:160,-0.506378,-0.034546,-0.295898,0.001737,-0.001057,-0.004296,-38.0,14.75,-13.5,1b
2019-07-15_142037:180,-0.5419619999999999,-0.035583,-0.301483,0.001066,-0.00124,0.001381,-38.0,14.75,-13.5,1b
2019-07-15_142037:200,-0.504333,-0.029968,-0.284698,-0.000124,0.001415,0.00196,-39.060001,15.56,-13.06,1b
2019-07-15_142037:220,-0.45553599999999994,-0.025908999999999998,-0.278595,-0.000796,0.006418999999999999,0.00028199999999999997,-39.060001,15.56,-13.06,1b
2019-07-15_142037:240,-0.416382,-0.026427999999999997,-0.268951,-0.001131,0.013316,-0.00216,-38.68,14.5,-15.06,1b
2019-07-15_142037:260,-0.358917,-0.018799,-0.24706999999999998,-0.00107,0.014659,-0.0032890000000000003,-38.68,14.5,-15.06,1b
2019-07-15_142037:280,-0.334534,-0.013702,-0.24096700000000001,-0.0006730000000000001,0.012614,-0.00216,-38.68,14.5,-15.06,1b
2019-07-15_142037:300,-0.347748,-0.010651,-0.23690799999999998,-0.000918,0.006755,-0.000389,-38.68,14.5,-14.25,1b
2019-07-15_142037:320,-0.35131799999999996,-0.0055850000000000006,-0.23284899999999997,-0.001375,-0.000508,0.00016,-38.68,14.5,-14.25,1b
2019-07-15_142037:340,-0.34875500000000004,-0.004059,-0.24096700000000001,-0.002657,-0.010213,0.0008619999999999999,-39.5,14.06,-13.06,1b
2019-07-15_142037:360,-0.370636,-0.010651,-0.263855,-0.004091,-0.02068,0.002235,-39.5,14.06,-13.06,1b
2019-07-15_142037:380,-0.420441,-0.022858,-0.333496,-0.005556,-0.031697,7.000000000000001e-06,-38.68,14.75,-14.25,1b
2019-07-15_142037:400,-0.420441,-0.022858,-0.333496,-0.005556,-0.031697,7.000000000000001e-06,-38.68,14.75,-14.25,1b
2019-07-15_142037:420,-0.432159,-0.022858,-0.33605999999999997,-0.0048850000000000005,-0.02953,-0.00158,-38.68,14.75,-14.25,1b
2019-07-15_142037:440,-0.44638100000000003,-0.029480000000000003,-0.329437,-0.0029010000000000004,-0.021077000000000002,-0.004448,-39.869999,15.18,-15.5,1b
2019-07-15_142037:460,-0.435699,-0.028961,-0.318756,-0.000399,-0.011128,-0.003563,-39.869999,15.18,-15.5,1b
2019-07-15_142037:480,-0.406219,-0.032013,-0.29895,0.002073,-0.0024920000000000003,0.000221,-39.869999,15.18,-15.5,1b
2019-07-15_142037:500,-0.386902,-0.032532,-0.285217,0.003996,0.0023,0.001838,-39.5,14.75,-17.0,1b
2019-07-15_142037:520,-0.388428,-0.033539,-0.270966,0.005705,0.003886,0.0021739999999999997,-39.5,14.75,-17.0,1b
2019-07-15_142037:540,-0.386902,-0.03302,-0.2659,0.007047,0.005168,0.002967,-39.5,14.5,-16.25,1b
2019-07-15_142037:560,-0.379272,-0.03302,-0.257233,0.008085,0.004619,0.00309,-39.5,14.5,-16.25,1b
2019-07-15_142037:580,-0.379791,-0.03302,-0.259796,0.008756,0.002971,0.0018989999999999999,-39.5,14.5,-16.25,1b
2019-07-15_142037:600,-0.381805,-0.037598,-0.272003,0.009886,0.0009570000000000001,0.000129,-39.5,14.75,-17.0,1b
2019-07-15_142037:620,-0.385376,-0.037108999999999996,-0.273529,0.011412,-0.00044699999999999997,-0.003106,-39.5,14.75,-17.0,1b
2019-07-15_142037:640,-0.41943400000000003,-0.038635,-0.28369099999999997,0.014218999999999999,0.002513,-0.008019,-39.5,15.18,-16.559998999999998,1b
2019-07-15_142037:660,-0.41943400000000003,-0.038635,-0.28369099999999997,0.01547,0.0052899999999999996,-0.009148,-39.5,15.18,-16.559998999999998,1b
2019-07-15_142037:680,-0.434174,-0.036591000000000005,-0.279633,0.018064,0.012187,-0.010796,-39.5,15.18,-16.559998999999998,1b
2019-07-15_142037:700,-0.438751,-0.035583,-0.279114,0.020231,0.018382,-0.012597,-40.18,15.56,-17.5,1b
2019-07-15_142037:720,-0.42147799999999996,-0.029968,-0.2659,0.022093,0.022472,-0.011803,-40.18,15.56,-17.5,1b
2019-07-15_142037:740,-0.416901,-0.029968,-0.264862,0.022978,0.022959999999999998,-0.010948999999999999,-40.18,15.18,-15.75,1b
2019-07-15_142037:760,-0.421967,-0.029480000000000003,-0.26181,0.024778,0.022105,-0.010735,-40.18,15.18,-15.75,1b
2019-07-15_142037:780,-0.42758199999999996,-0.029968,-0.264862,0.025541,0.021678,-0.011925,-40.18,15.18,-15.75,1b
2019-07-15_142037:800,-0.43670699999999996,-0.029968,-0.268951,0.026213,0.021892,-0.011925,-41.25,14.75,-15.5,1b
2019-07-15_142037:820,-0.44232200000000005,-0.029480000000000003,-0.270477,0.026701,0.02235,-0.01162,-41.25,14.75,-15.5,1b
2019-07-15_142037:840,-0.502808,-0.037598,-0.279633,0.02609,0.020427,-0.012597,-41.25,14.75,-13.87,1b
2019-07-15_142037:860,-0.5872189999999999,-0.041168,-0.312653,0.025968,0.015727,-0.012597,-41.25,14.75,-13.87,1b
2019-07-15_142037:880,-0.53891,-0.050323,-0.29284699999999997,0.026883999999999998,0.019022999999999998,-0.015587,-41.25,14.75,-13.87,1b
2019-07-15_142037:900,-0.522125,-0.046752999999999996,-0.29180900000000004,0.026548000000000002,0.024364,-0.01577,-42.060001,15.18,-13.87,1b
2019-07-15_142037:920,-0.46316499999999994,-0.055908000000000006,-0.272491,0.026029000000000004,0.028789,-0.013665,-42.060001,15.18,-13.87,1b
2019-07-15_142037:940,-0.454529,-0.065582,-0.262848,0.023038999999999997,0.029796,-0.009423,-43.18,15.18,-12.25,1b
2019-07-15_142037:960,-0.38385,-0.07928500000000001,-0.2547,0.020597,0.028056,-0.002648,-43.18,15.18,-12.25,1b
2019-07-15_142037:980,-0.376221,-0.09454299999999999,-0.25317399999999995,0.01898,0.023631,-0.005425,-43.18,15.18,-12.25,1b
2019-07-15_142038:000,-0.379791,-0.103699,-0.255707,0.018186,0.019572,-0.015313,-43.869999,13.68,-10.75,1b
2019-07-15_142038:020,-0.384338,-0.101685,-0.25216700000000003,0.019377000000000002,0.015849000000000002,-0.019493,-43.869999,13.68,-10.75,1b
2019-07-15_142038:040,-0.379791,-0.098633,-0.25116,0.020322999999999997,0.014322999999999999,-0.020287,-43.75,13.25,-10.25,1b
2019-07-15_142038:060,-0.382812,-0.092529,-0.255707,0.023313,0.00883,-0.02694,-43.75,13.25,-10.25,1b
2019-07-15_142038:080,-0.395538,-0.076752,-0.264862,0.025816000000000002,0.004039,-0.029258999999999997,-43.75,13.25,-10.25,1b
2019-07-15_142038:100,-0.401642,-0.069122,-0.272003,0.027006,0.0016589999999999999,-0.029381,-43.75,14.06,-7.87,1b
2019-07-15_142038:120,-0.41842700000000005,-0.057953,-0.274017,0.030057999999999998,-0.002156,-0.030052999999999996,-43.75,14.06,-7.87,1b
2019-07-15_142038:140,-0.435699,-0.049805,-0.269958,0.030545999999999997,-0.00044699999999999997,-0.030114,-45.68,12.25,-7.18,1b
2019-07-15_142038:160,-0.443329,-0.038635,-0.260284,0.030607,0.009807,-0.027183999999999996,-45.68,12.25,-7.18,1b
2019-07-15_142038:180,-0.43823199999999995,-0.034546,-0.245544,0.029477999999999997,0.017925,-0.023339,-45.68,12.25,-7.18,1b
2019-07-15_142038:200,-0.40774499999999997,-0.030487,-0.22927899999999998,0.028623000000000003,0.020885,-0.021752,-46.18,11.18,-6.75,1b
2019-07-15_142038:220,-0.385864,-0.028961,-0.21453899999999998,0.025633,0.022411,-0.018578,-46.18,11.18,-6.75,1b
2019-07-15_142038:240,-0.374695,-0.032532,-0.20538299999999998,0.024687,0.020702,-0.017693,-46.5,10.75,-6.5,1b
2019-07-15_142038:260,-0.380798,-0.035583,-0.200317,0.022093,0.012676,-0.016655,-46.5,10.75,-6.5,1b
2019-07-15_142038:280,-0.388428,-0.036591000000000005,-0.197266,0.020444999999999998,0.006755,-0.015709,-46.5,10.75,-6.5,1b
2019-07-15_142038:300,-0.401123,-0.038116000000000004,-0.19622799999999999,0.019316,0.002757,-0.014397,-45.75,10.0,-5.56,1b
2019-07-15_142038:320,-0.42807,-0.039642000000000004,-0.19622799999999999,0.018308,0.0034289999999999998,-0.014061,-45.75,10.0,-5.56,1b
2019-07-15_142038:340,-0.43518100000000004,-0.040161,-0.204376,0.017454,0.005961999999999999,-0.013604,-47.18,9.68,-5.56,1b
2019-07-15_142038:360,-0.441284,-0.037108999999999996,-0.206909,0.016203,0.009134999999999999,-0.011864,-47.18,9.68,-5.56,1b
2019-07-15_142038:380,-0.434692,-0.033539,-0.20538299999999998,0.014280000000000001,0.010936,-0.008232,-47.18,9.68,-5.56,1b
2019-07-15_142038:400,-0.43823199999999995,-0.026917,-0.20080599999999998,0.012998,0.011333,-0.006035,-47.060001,8.87,-4.5,1b
2019-07-15_142038:420,-0.447388,-0.026917,-0.200317,0.007626999999999999,0.012584,0.000526,-47.060001,8.87,-4.5,1b
2019-07-15_142038:440,-0.48349,-0.031006,-0.205902,0.005461,0.013408000000000002,0.00251,-48.369999,9.68,-4.5,1b
2019-07-15_142038:460,-0.501282,-0.034546,-0.20538299999999998,-0.000582,0.01884,0.009132,-48.369999,9.68,-4.5,1b
2019-07-15_142038:480,-0.500275,-0.041687,-0.201843,-0.003878,0.022411,0.014106,-48.369999,9.68,-4.5,1b
2019-07-15_142038:500,-0.48754899999999995,-0.048279,-0.201324,-0.005007,0.023540000000000002,0.014990999999999999,-47.869999,9.37,-3.25,1b
2019-07-15_142038:520,-0.46417200000000003,-0.051330999999999995,-0.197266,-0.007540000000000001,0.021769999999999998,0.013404,-47.869999,9.37,-3.25,1b
2019-07-15_142038:540,-0.477905,-0.055389,-0.19622799999999999,-0.007815,0.019634,0.012397,-47.869999,9.37,-3.25,1b
2019-07-15_142038:560,-0.548584,-0.056427,-0.19927999999999998,-0.009309999999999999,0.007091,0.011543000000000001,-47.5,10.06,-3.0,1b
2019-07-15_142038:580,-0.489594,-0.051330999999999995,-0.194702,-0.011446,-0.000386,0.0149,-47.5,10.06,-3.0,1b
2019-07-15_142038:600,-0.562805,-0.057434000000000006,-0.19927999999999998,-0.011904000000000001,-0.001912,0.014717,-47.5,10.06,-3.37,1b
2019-07-15_142038:620,-0.544006,-0.049805,-0.204376,-0.013033000000000001,-0.002583,0.012977,-47.5,10.06,-3.37,1b
2019-07-15_142038:640,-0.488068,-0.046752999999999996,-0.206909,-0.012362,-0.001973,0.012977,-47.5,10.75,-2.56,1b
2019-07-15_142038:660,-0.446899,-0.043701,-0.21453899999999998,-0.009981,7.2e-05,0.007942,-47.5,10.75,-2.56,1b
2019-07-15_142038:680,-0.39502,-0.029968,-0.188599,-0.007876000000000001,0.002696,0.005836,-47.5,10.75,-2.56,1b
2019-07-15_142038:700,-0.382812,-0.023895,-0.177429,-0.007448000000000001,0.002757,0.006691,-47.5,11.87,-3.0,1b
2019-07-15_142038:720,-0.390961,-0.022858,-0.165741,-0.007326000000000001,1.1e-05,0.008888,-47.5,11.87,-3.0,1b
2019-07-15_142038:740,-0.38739,-0.021851,-0.167267,-0.007601,-0.0027660000000000002,0.008461,-47.5,11.87,-3.0,1b
2019-07-15_142038:760,-0.382812,-0.021851,-0.17538499999999999,-0.009004999999999999,-0.01598,0.007026,-48.560001,11.87,-3.75,1b
2019-07-15_142038:780,-0.396545,-0.026427999999999997,-0.19927999999999998,-0.009585,-0.020894,0.007606,-48.560001,11.87,-3.75,1b
2019-07-15_142038:800,-0.390961,-0.029480000000000003,-0.210968,-0.010836,-0.030385000000000002,0.009224,-47.5,12.25,-3.75,1b
2019-07-15_142038:820,-0.42453,-0.038116000000000004,-0.23486300000000002,-0.011049,-0.038014,0.009864,-47.5,12.25,-3.75,1b
2019-07-15_142038:840,-0.435699,-0.041168,-0.259796,-0.011170999999999999,-0.041066000000000005,0.009406999999999999,-48.25,12.25,-4.56,1b
2019-07-15_142038:860,-0.44232200000000005,-0.048798,-0.25521900000000003,-0.010195000000000001,-0.040333999999999995,0.008612999999999999,-48.25,12.25,-4.56,1b
2019-07-15_142038:880,-0.43670699999999996,-0.049316000000000006,-0.242493,-0.009004999999999999,-0.033101,0.007087,-48.25,12.25,-4.56,1b
2019-07-15_142038:900,-0.420441,-0.048279,-0.22879000000000002,-0.008851999999999999,-0.030324,0.006874,-47.869999,11.87,-7.25,1b
2019-07-15_142038:920,-0.40570100000000003,-0.047791,-0.21759,-0.008791,-0.025929,0.002113,-47.869999,11.87,-7.25,1b
2019-07-15_142038:940,-0.396545,-0.046265,-0.213013,-0.008669,-0.025594,-0.000725,-47.869999,11.87,-7.25,1b
2019-07-15_142038:960,-0.387909,-0.044219999999999995,-0.21402,-0.007081999999999999,-0.028064999999999996,-0.009331,-47.869999,13.0,-7.68,1b
2019-07-15_142038:980,-0.38739,-0.039642000000000004,-0.223694,-0.0064719999999999995,-0.029591000000000003,-0.010796,-47.869999,13.0,-7.68,1b
2019-07-15_142039:000,-0.39859,-0.036072,-0.230804,-0.004488000000000001,-0.032764999999999996,-0.012322,-47.869999,12.68,-9.56,1b
2019-07-15_142039:020,-0.416901,-0.031006,-0.242004,-0.0018030000000000001,-0.033559,-0.013604,-47.869999,12.68,-9.56,1b
2019-07-15_142039:040,-0.42401099999999997,-0.024902,-0.248108,0.002012,-0.031972,-0.014794,-47.869999,12.68,-9.56,1b
2019-07-15_142039:060,-0.446899,-0.01828,-0.255707,0.005705,-0.028188,-0.015709,-46.75,12.25,-10.75,1b
2019-07-15_142039:080,-0.446899,-0.011687999999999999,-0.266907,0.008573,-0.022267,-0.015526,-46.75,12.25,-10.75,1b
2019-07-15_142039:100,-0.430634,-0.008636,-0.279114,0.010832,-0.016652,-0.015862,-47.869999,11.5,-12.25,1b
2019-07-15_142039:120,-0.418915,-0.007111,-0.276581,0.012754000000000001,-0.013447999999999998,-0.016198,-47.869999,11.5,-12.25,1b
2019-07-15_142039:140,-0.411285,-0.010162000000000001,-0.273529,0.014921,-0.012013,-0.015648,-47.869999,11.5,-12.25,1b
2019-07-15_142039:160,-0.40823400000000004,-0.011687999999999999,-0.268433,0.017851,-0.011983,-0.015038,-47.369999,11.5,-13.06,1b
2019-07-15_142039:180,-0.394531,-0.013702,-0.269958,0.020506,-0.013050999999999998,-0.013909,-47.369999,11.5,-13.06,1b
2019-07-15_142039:200,-0.386902,-0.009644,-0.275543,0.023435,-0.01656,-0.011467,-48.18,10.0,-13.87,1b
2019-07-15_142039:220,-0.417389,-0.009644,-0.284698,0.0249,-0.021230000000000002,-0.008751,-48.18,10.0,-13.87,1b
2019-07-15_142039:240,-0.434174,-0.008636,-0.28927600000000003,0.025297,-0.02187,-0.006157,-48.18,10.0,-13.87,1b
2019-07-15_142039:260,-0.448425,-0.013702,-0.28875700000000004,0.024350999999999998,-0.017445,-0.004845,-47.369999,10.37,-13.87,1b
2019-07-15_142039:280,-0.447388,-0.016753999999999998,-0.28979499999999997,0.022489,-0.011189,-0.006157,-47.369999,10.37,-13.87,1b
2019-07-15_142039:300,-0.467224,-0.025908999999999998,-0.295898,0.02078,-0.006093,-0.007622,-47.369999,10.0,-14.68,1b
2019-07-15_142039:320,-0.48654200000000003,-0.025908999999999998,-0.321808,0.019071,-0.010457,-0.009484000000000001,-47.369999,10.0,-14.68,1b
2019-07-15_142039:340,-0.472321,-0.038116000000000004,-0.279114,0.018064,-0.013722,-0.010459999999999999,-47.369999,10.0,-14.68,1b
2019-07-15_142039:360,-0.458588,-0.033539,-0.29943800000000004,0.016935,-0.017384,-0.011071,-48.18,10.0,-15.06,1b
2019-07-15_142039:380,-0.41485600000000006,-0.035065,-0.286224,0.015867,-0.021107,-0.006371,-48.18,10.0,-15.06,1b
2019-07-15_142039:400,-0.406738,-0.036591000000000005,-0.278107,0.013090000000000001,-0.022633,-0.002434,-47.75,9.25,-15.37,1b
2019-07-15_142039:420,-0.404694,-0.045745999999999995,-0.28927600000000003,0.008573,-0.020833,0.002113,-47.75,9.25,-15.37,1b
2019-07-15_142039:440,-0.375702,-0.051330999999999995,-0.313171,0.003507,-0.014302,0.008674,-47.75,9.25,-15.37,1b
2019-07-15_142039:460,-0.361481,-0.066589,-0.327911,-0.001253,-0.007802,0.011054999999999999,-47.369999,10.0,-15.68,1b
2019-07-15_142039:480,-0.349792,-0.072693,-0.334015,-0.00461,-0.0024920000000000003,0.005439,-47.369999,10.0,-15.68,1b
2019-07-15_142039:500,-0.37112399999999995,-0.077271,-0.352325,-0.008211,-0.001302,-0.00045099999999999996,-47.0,10.5,-16.18,1b
2019-07-15_142039:520,-0.364014,-0.08590700000000001,-0.34875500000000004,-0.010988,0.000407,-0.0021899999999999997,-47.0,10.5,-16.18,1b
