timestamp,AccX,AccY,AccZ,GyroX,GyroY,GyroZ,MagX,MagY,MagZ,Activity
2019-07-15_124446:220,-0.455017,-0.013213999999999998,-0.189636,0.00128,-0.0034990000000000004,0.002388,-36.560001,16.559998999999998,-9.06,2b
2019-07-15_124446:240,-0.45706199999999997,-0.015747,-0.187073,-2e-06,-0.004414,0.004036,-36.560001,16.559998999999998,-9.06,2b
2019-07-15_124446:260,-0.47079499999999996,-0.015228,-0.190125,-0.0015890000000000001,-0.0040479999999999995,0.004554,-36.560001,16.559998999999998,-9.06,2b
2019-07-15_124446:280,-0.472321,-0.019806,-0.192169,-0.002932,-0.001698,0.004158,-36.18,17.370001000000002,-8.37,2b
2019-07-15_124446:300,-0.46060200000000007,-0.021332,-0.19574,-0.004091,0.000468,0.003151,-36.18,17.370001000000002,-8.37,2b
2019-07-15_124446:320,-0.467224,-0.022858,-0.201324,-0.0048850000000000005,-0.000722,0.002388,-35.75,17.75,-8.75,2b
2019-07-15_124446:340,-0.44995100000000005,-0.025908999999999998,-0.189636,-0.005739,-0.0009050000000000001,0.002449,-35.75,17.75,-8.75,2b
2019-07-15_124446:360,-0.458588,-0.026917,-0.193695,-0.006197,-0.001179,0.001991,-35.75,17.75,-8.75,2b
2019-07-15_124446:380,-0.46316499999999994,-0.027435,-0.195221,-0.006075,-0.000325,0.00251,-36.18,17.0,-8.75,2b
2019-07-15_124446:400,-0.45806899999999995,-0.028961,-0.194702,-0.005861,0.000407,0.002388,-36.18,17.0,-8.75,2b
2019-07-15_124446:420,-0.45654300000000003,-0.029968,-0.193695,-0.005556,0.000468,0.001777,-35.75,17.75,-8.5,2b
2019-07-15_124446:440,-0.46469099999999997,-0.031494,-0.194702,-0.0051600000000000005,0.0008960000000000001,0.00251,-35.75,17.75,-8.5,2b
2019-07-15_124446:460,-0.462646,-0.031494,-0.195221,-0.005007,0.00172,0.003151,-35.75,17.75,-8.5,2b
2019-07-15_124446:480,-0.45706199999999997,-0.032532,-0.196747,-0.004824,0.0023,0.002693,-36.18,17.370001000000002,-8.75,2b
2019-07-15_124446:500,-0.45907600000000004,-0.031494,-0.194702,-0.004549,0.002361,0.001838,-36.18,17.370001000000002,-8.75,2b
2019-07-15_124446:520,-0.460114,-0.031494,-0.19775399999999999,-0.00403,0.0029100000000000003,0.000709,-35.060001,17.0,-8.0,2b
2019-07-15_124446:540,-0.453491,-0.029480000000000003,-0.198273,-0.003664,0.003124,-0.00011499999999999999,-35.060001,17.0,-8.0,2b
2019-07-15_124446:560,-0.45043900000000003,-0.027954000000000003,-0.198273,-0.0033280000000000002,0.002849,-0.000573,-35.060001,17.0,-8.0,2b
2019-07-15_124446:580,-0.453491,-0.027435,-0.197266,-0.0034509999999999996,0.002361,-0.000267,-35.75,17.370001000000002,-8.0,2b
2019-07-15_124446:600,-0.45907600000000004,-0.023895,-0.197266,-0.0036340000000000005,0.002055,0.000404,-35.75,17.370001000000002,-8.0,2b
2019-07-15_124446:620,-0.461121,-0.026427999999999997,-0.199799,-0.003878,0.0024519999999999998,0.0008619999999999999,-35.75,17.0,-8.75,2b
2019-07-15_124446:640,-0.45907600000000004,-0.025908999999999998,-0.19775399999999999,-0.004427,0.003307,0.000526,-35.75,17.0,-8.75,2b
2019-07-15_124446:660,-0.45907600000000004,-0.025908999999999998,-0.198792,-0.0048850000000000005,0.0041,0.000496,-35.75,17.0,-8.75,2b
2019-07-15_124446:680,-0.45907600000000004,-0.027954000000000003,-0.198273,-0.004671,0.0042829999999999995,0.000404,-36.560001,18.059998999999998,-8.75,2b
2019-07-15_124446:700,-0.461639,-0.027435,-0.19622799999999999,-0.004549,0.004954999999999999,0.000404,-36.560001,18.059998999999998,-8.75,2b
2019-07-15_124446:720,-0.46569799999999995,-0.026917,-0.193695,-0.004488000000000001,0.005779,0.0007700000000000001,-36.18,18.059998999999998,-9.56,2b
2019-07-15_124446:740,-0.462128,-0.027435,-0.191162,-0.004336,0.006693999999999999,0.001442,-36.18,18.059998999999998,-9.56,2b
2019-07-15_124446:760,-0.455017,-0.026917,-0.188599,-0.004152,0.00703,0.001716,-36.18,18.059998999999998,-9.56,2b
2019-07-15_124446:780,-0.45043900000000003,-0.026427999999999997,-0.186066,-0.003939,0.006023,0.002052,-35.75,17.0,-8.75,2b
2019-07-15_124446:800,-0.443329,-0.026427999999999997,-0.18249500000000002,-0.004091,0.004771,0.001503,-35.75,17.0,-8.75,2b
2019-07-15_124446:820,-0.447388,-0.027435,-0.185547,-0.003817,0.0024519999999999998,0.000587,-36.18,18.5,-8.75,2b
2019-07-15_124446:840,-0.447906,-0.026427999999999997,-0.183014,-0.0036950000000000004,0.000133,0.000465,-36.18,18.5,-8.75,2b
2019-07-15_124446:860,-0.45806899999999995,-0.025421,-0.183533,-0.0037560000000000002,-0.00179,0.001258,-36.18,18.5,-8.75,2b
2019-07-15_124446:880,-0.46469099999999997,-0.025908999999999998,-0.187592,-0.00403,-0.0018510000000000002,0.0022960000000000003,-35.5,18.5,-8.0,2b
2019-07-15_124446:900,-0.46469099999999997,-0.026427999999999997,-0.189636,-0.004671,-0.0009050000000000001,0.0026320000000000002,-35.5,18.5,-8.0,2b
2019-07-15_124446:920,-0.458588,-0.028442000000000002,-0.193176,-0.005282,-0.00011100000000000001,0.002845,-36.18,17.370001000000002,-8.75,2b
2019-07-15_124446:940,-0.46417200000000003,-0.032013,-0.190643,-0.005526,0.00022400000000000002,0.00309,-36.18,17.370001000000002,-8.75,2b
2019-07-15_124446:960,-0.467224,-0.035583,-0.195221,-0.005526,0.0014759999999999999,0.002357,-36.18,17.370001000000002,-8.75,2b
2019-07-15_124446:980,-0.46316499999999994,-0.035583,-0.19622799999999999,-0.005404,0.002574,0.001258,-36.18,18.5,-8.75,2b
2019-07-15_124447:000,-0.45654300000000003,-0.037598,-0.194214,-0.004824,0.003093,0.000587,-36.18,18.5,-8.75,2b
2019-07-15_124447:020,-0.45401,-0.037598,-0.19622799999999999,-0.00403,0.002788,0.000221,-35.5,17.370001000000002,-8.75,2b
2019-07-15_124447:040,-0.45196499999999995,-0.035065,-0.192688,-0.003573,0.002757,0.00016,-35.5,17.370001000000002,-8.75,2b
2019-07-15_124447:060,-0.453491,-0.034058,-0.191162,-0.002932,0.001842,6.8e-05,-35.5,17.370001000000002,-8.75,2b
2019-07-15_124447:080,-0.45553599999999994,-0.030487,-0.189117,-0.002199,0.0012619999999999999,-0.000786,-36.560001,18.059998999999998,-8.75,2b
2019-07-15_124447:100,-0.46316499999999994,-0.027954000000000003,-0.189117,-0.001925,0.001292,-0.0009689999999999999,-36.560001,18.059998999999998,-8.75,2b
2019-07-15_124447:120,-0.461121,-0.025908999999999998,-0.189117,-0.001986,0.0016589999999999999,-5.4000000000000005e-05,-35.75,17.75,-9.18,2b
2019-07-15_124447:140,-0.461121,-0.026917,-0.189117,-0.002443,0.002177,-0.00011499999999999999,-35.75,17.75,-9.18,2b
2019-07-15_124447:160,-0.457581,-0.024384,-0.188599,-0.002993,0.002361,-0.000908,-35.75,17.75,-9.18,2b
2019-07-15_124447:180,-0.454529,-0.025421,-0.187073,-0.0034509999999999996,0.001628,-0.00011499999999999999,-35.060001,17.75,-8.5,2b
2019-07-15_124447:200,-0.45401,-0.025908999999999998,-0.186584,-0.0036950000000000004,0.0010789999999999999,0.000648,-35.060001,17.75,-8.5,2b
2019-07-15_124447:220,-0.455017,-0.026917,-0.189636,-0.004091,0.00022400000000000002,0.0007700000000000001,-35.5,17.75,-8.5,2b
2019-07-15_124447:240,-0.455017,-0.028442000000000002,-0.191162,-0.004336,-5e-05,0.001442,-35.5,17.75,-8.5,2b
2019-07-15_124447:260,-0.45605500000000004,-0.031006,-0.190643,-0.004732,-0.000264,0.001258,-35.5,17.75,-8.5,2b
2019-07-15_124447:280,-0.45605500000000004,-0.033539,-0.192688,-0.004336,-0.000386,0.0008619999999999999,-35.75,17.75,-8.5,2b
2019-07-15_124447:300,-0.45706199999999997,-0.034546,-0.193695,-0.003939,-0.000233,0.000221,-35.75,17.75,-8.5,2b
2019-07-15_124447:320,-0.45553599999999994,-0.034546,-0.193176,-0.0034509999999999996,-0.000264,0.000404,-36.560001,18.059998999999998,-9.56,2b
2019-07-15_124447:340,-0.457581,-0.034546,-0.192169,-0.002779,-0.0005690000000000001,0.001258,-36.560001,18.059998999999998,-9.56,2b
2019-07-15_124447:360,-0.460114,-0.033539,-0.192688,-0.002382,-0.000661,0.001228,-36.560001,18.059998999999998,-9.56,2b
2019-07-15_124447:380,-0.45706199999999997,-0.03302,-0.193176,-0.002443,-0.000508,0.001045,-36.18,17.370001000000002,-8.75,2b
2019-07-15_124447:400,-0.458588,-0.03302,-0.194702,-0.002657,-0.00044699999999999997,0.001045,-36.18,17.370001000000002,-8.75,2b
2019-07-15_124447:420,-0.45196499999999995,-0.036072,-0.19775399999999999,-0.002657,-0.000722,0.000648,-36.560001,17.370001000000002,-8.75,2b
2019-07-15_124447:440,-0.45095799999999997,-0.037598,-0.198273,-0.0020469999999999998,-0.001393,-0.000725,-36.560001,17.370001000000002,-8.75,2b
2019-07-15_124447:460,-0.45706199999999997,-0.036591000000000005,-0.198792,-0.0014060000000000001,-0.001973,-0.00216,-36.560001,17.370001000000002,-8.75,2b
2019-07-15_124447:480,-0.46060200000000007,-0.035583,-0.198273,-0.000734,-0.001973,-0.0029219999999999997,-35.5,17.75,-8.0,2b
2019-07-15_124447:500,-0.460114,-0.031494,-0.196747,-6.3e-05,-0.0009660000000000001,-0.002526,-35.5,17.75,-8.0,2b
2019-07-15_124447:520,-0.460114,-0.029480000000000003,-0.19775399999999999,5.9e-05,-0.000172,-0.00158,-35.5,17.75,-8.75,2b
2019-07-15_124447:540,-0.45706199999999997,-0.025908999999999998,-0.196747,0.00011999999999999999,0.000407,-0.0009689999999999999,-35.5,17.75,-8.75,2b
2019-07-15_124447:560,-0.45654300000000003,-0.025421,-0.19927999999999998,-0.000399,0.000468,-0.0008470000000000001,-35.5,17.75,-8.75,2b
2019-07-15_124447:580,-0.455017,-0.023895,-0.198273,-0.001131,0.000346,-0.001,-36.560001,18.5,-9.18,2b
2019-07-15_124447:600,-0.45553599999999994,-0.023895,-0.19775399999999999,-0.001986,0.000468,-0.000908,-36.560001,18.5,-9.18,2b
2019-07-15_124447:620,-0.457581,-0.024384,-0.200317,-0.002718,0.0008039999999999999,-0.000512,-35.75,18.059998999999998,-10.0,2b
2019-07-15_124447:640,-0.45706199999999997,-0.025421,-0.200317,-0.0032979999999999997,0.0010789999999999999,-0.00045099999999999996,-35.75,18.059998999999998,-10.0,2b
2019-07-15_124447:660,-0.458588,-0.026917,-0.199799,-0.003664,0.001598,-0.000267,-35.75,18.059998999999998,-10.0,2b
2019-07-15_124447:680,-0.455017,-0.027435,-0.198792,-0.003878,0.001628,0.00028199999999999997,-36.560001,17.75,-9.18,2b
2019-07-15_124447:700,-0.453491,-0.028961,-0.198792,-0.003878,0.0019030000000000002,0.001106,-36.560001,17.75,-9.18,2b
2019-07-15_124447:720,-0.452484,-0.029968,-0.20080599999999998,-0.003664,0.001598,0.0008619999999999999,-35.5,17.75,-10.75,2b
2019-07-15_124447:740,-0.45401,-0.029480000000000003,-0.198273,-0.0034509999999999996,0.0012619999999999999,0.000587,-35.5,17.75,-10.75,2b
2019-07-15_124447:760,-0.45605500000000004,-0.030487,-0.200317,-0.00339,0.001201,0.0007700000000000001,-35.5,17.75,-10.75,2b
2019-07-15_124447:780,-0.45654300000000003,-0.031006,-0.19927999999999998,-0.0033280000000000002,0.0010789999999999999,0.000984,-35.5,17.370001000000002,-10.0,2b
2019-07-15_124447:800,-0.45553599999999994,-0.031494,-0.198792,-0.00339,0.001415,0.00132,-35.5,17.370001000000002,-10.0,2b
2019-07-15_124447:820,-0.45605500000000004,-0.031494,-0.198273,-0.003512,0.0017809999999999998,0.001258,-35.75,17.370001000000002,-10.0,2b
2019-07-15_124447:840,-0.45654300000000003,-0.032013,-0.196747,-0.0034509999999999996,0.0019030000000000002,0.000648,-35.75,17.370001000000002,-10.0,2b
2019-07-15_124447:860,-0.45605500000000004,-0.031494,-0.196747,-0.003573,0.0023,0.000465,-35.75,17.370001000000002,-10.0,2b
2019-07-15_124447:880,-0.45553599999999994,-0.032013,-0.19622799999999999,-0.0034509999999999996,0.002239,0.0008619999999999999,-35.5,17.75,-9.18,2b
2019-07-15_124447:900,-0.45401,-0.032013,-0.19622799999999999,-0.003237,0.001964,0.001167,-35.5,17.75,-9.18,2b
2019-07-15_124447:920,-0.45401,-0.03302,-0.19622799999999999,-0.003176,0.001415,0.000831,-35.75,17.0,-9.18,2b
2019-07-15_124447:940,-0.453003,-0.031006,-0.194214,-0.00339,0.001292,0.001716,-35.75,17.0,-9.18,2b
2019-07-15_124447:960,-0.44995100000000005,-0.03302,-0.197266,-0.0036340000000000005,0.00114,0.002113,-35.75,17.0,-9.18,2b
2019-07-15_124447:980,-0.448425,-0.034058,-0.200317,-0.003817,0.000499,0.001381,-35.5,18.059998999999998,-10.37,2b
2019-07-15_124448:000,-0.45095799999999997,-0.035583,-0.201324,-0.0036950000000000004,-0.000508,0.00028199999999999997,-35.5,18.059998999999998,-10.37,2b
2019-07-15_124448:020,-0.455017,-0.036591000000000005,-0.20233199999999998,-0.003237,-0.001027,-0.000725,-35.5,17.75,-9.56,2b
2019-07-15_124448:040,-0.45706199999999997,-0.034058,-0.201843,-0.002779,-0.0005690000000000001,-0.000634,-35.5,17.75,-9.56,2b
2019-07-15_124448:060,-0.455017,-0.03302,-0.204376,-0.002443,-0.000233,0.00016,-35.5,17.75,-9.56,2b
2019-07-15_124448:080,-0.452484,-0.032013,-0.203369,-0.002443,0.000407,0.000343,-35.75,18.059998999999998,-9.56,2b
2019-07-15_124448:100,-0.45401,-0.032013,-0.20285,-0.002718,0.000285,6.8e-05,-35.75,18.059998999999998,-9.56,2b
2019-07-15_124448:120,-0.45605500000000004,-0.032532,-0.203369,-0.0029010000000000004,0.000621,0.000343,-36.18,18.5,-9.56,2b
2019-07-15_124448:140,-0.45706199999999997,-0.034058,-0.200317,-0.002932,0.0010789999999999999,0.000343,-36.18,18.5,-9.56,2b
2019-07-15_124448:160,-0.45654300000000003,-0.033539,-0.20080599999999998,-0.002993,0.001628,-0.000267,-36.18,18.5,-9.56,2b
2019-07-15_124448:180,-0.45401,-0.032532,-0.20080599999999998,-0.002932,0.001842,-0.000267,-36.18,17.75,-10.0,2b
2019-07-15_124448:200,-0.453003,-0.031494,-0.20080599999999998,-0.002535,0.001964,-0.00023700000000000001,-36.18,17.75,-10.0,2b
2019-07-15_124448:220,-0.453003,-0.031006,-0.20385699999999998,-0.002321,0.001994,0.00016,-35.5,18.059998999999998,-10.0,2b
2019-07-15_124448:240,-0.45196499999999995,-0.029480000000000003,-0.201324,-0.0022600000000000003,0.0017809999999999998,0.000343,-35.5,18.059998999999998,-10.0,2b
2019-07-15_124448:260,-0.45553599999999994,-0.030487,-0.20285,-0.002535,0.001598,0.000709,-35.5,18.059998999999998,-10.0,2b
2019-07-15_124448:280,-0.45654300000000003,-0.032532,-0.200317,-0.002932,0.0019030000000000002,0.001045,-35.060001,18.059998999999998,-9.56,2b
2019-07-15_124448:300,-0.458588,-0.036591000000000005,-0.20080599999999998,-0.0031149999999999997,0.002635,0.000831,-35.060001,18.059998999999998,-9.56,2b
2019-07-15_124448:320,-0.45706199999999997,-0.038635,-0.200317,-0.0028399999999999996,0.003368,-0.000573,-35.5,18.059998999999998,-9.56,2b
2019-07-15_124448:340,-0.45401,-0.038635,-0.198273,-0.002321,0.0036420000000000003,-0.0017629999999999998,-35.5,18.059998999999998,-9.56,2b
2019-07-15_124448:360,-0.451477,-0.039124,-0.199799,-0.0017109999999999998,0.0035810000000000004,-0.001366,-35.5,18.059998999999998,-9.56,2b
2019-07-15_124448:380,-0.44995100000000005,-0.037108999999999996,-0.20080599999999998,-0.0009789999999999998,0.002849,-0.0009689999999999999,-36.18,18.059998999999998,-9.18,2b
2019-07-15_124448:400,-0.448425,-0.034546,-0.199799,-0.000734,0.002177,-0.000634,-36.18,18.059998999999998,-9.18,2b
2019-07-15_124448:420,-0.45401,-0.03302,-0.198273,-0.001009,0.001415,-0.0009689999999999999,-35.5,18.059998999999998,-9.18,2b
2019-07-15_124448:440,-0.45907600000000004,-0.032532,-0.196747,-0.0014060000000000001,0.0014759999999999999,-0.001854,-35.5,18.059998999999998,-9.18,2b
2019-07-15_124448:460,-0.460114,-0.032532,-0.198273,-0.00165,0.002239,-0.001641,-35.5,18.059998999999998,-9.18,2b
2019-07-15_124448:480,-0.455017,-0.032532,-0.198273,-0.0015279999999999998,0.002696,-0.001,-35.75,17.370001000000002,-10.37,2b
2019-07-15_124448:500,-0.453491,-0.031494,-0.198792,-0.0015279999999999998,0.002574,-0.000512,-35.75,17.370001000000002,-10.37,2b
2019-07-15_124448:520,-0.45553599999999994,-0.030487,-0.19927999999999998,-0.001467,0.002361,-0.001,-35.75,18.059998999999998,-9.18,2b
2019-07-15_124448:540,-0.455017,-0.032013,-0.19927999999999998,-0.001375,0.0023,-0.001366,-35.75,18.059998999999998,-9.18,2b
2019-07-15_124448:560,-0.453003,-0.031006,-0.200317,-0.001314,0.002391,-0.001366,-35.75,18.059998999999998,-9.18,2b
2019-07-15_124448:580,-0.44995100000000005,-0.030487,-0.198792,-0.0014060000000000001,0.002177,-0.0009689999999999999,-35.5,17.75,-8.5,2b
2019-07-15_124448:600,-0.453003,-0.028442000000000002,-0.197266,-0.0015279999999999998,0.00172,-0.000908,-35.5,17.75,-8.5,2b
2019-07-15_124448:620,-0.45706199999999997,-0.027954000000000003,-0.19775399999999999,-0.001772,0.0014759999999999999,-0.000512,-35.75,18.059998999999998,-8.5,2b
2019-07-15_124448:640,-0.461121,-0.027435,-0.19775399999999999,-0.002199,0.002361,-0.000267,-35.75,18.059998999999998,-8.5,2b
2019-07-15_124448:660,-0.461121,-0.026427999999999997,-0.198273,-0.002779,0.003032,-0.000176,-35.75,18.059998999999998,-8.5,2b
2019-07-15_124448:680,-0.460114,-0.027954000000000003,-0.19775399999999999,-0.003573,0.003886,0.00016,-35.75,17.75,-10.0,2b
2019-07-15_124448:700,-0.455017,-0.029968,-0.19574,-0.004091,0.004771,0.00028199999999999997,-35.75,17.75,-10.0,2b
2019-07-15_124448:720,-0.44995100000000005,-0.032013,-0.196747,-0.004213000000000001,0.004222,0.000526,-35.5,17.75,-9.56,2b
2019-07-15_124448:740,-0.449432,-0.032013,-0.194702,-0.004152,0.0034289999999999998,0.000465,-35.5,17.75,-9.56,2b
2019-07-15_124448:760,-0.452484,-0.03302,-0.19622799999999999,-0.003939,0.002361,0.00028199999999999997,-35.5,17.75,-9.56,2b
2019-07-15_124448:780,-0.453003,-0.031494,-0.197266,-0.0037560000000000002,0.002239,0.000526,-35.75,18.5,-9.18,2b
2019-07-15_124448:800,-0.45553599999999994,-0.029480000000000003,-0.198792,-0.003817,0.002116,0.000526,-35.75,18.5,-9.18,2b
2019-07-15_124448:820,-0.457581,-0.028961,-0.19927999999999998,-0.003817,0.002391,0.000587,-35.75,18.059998999999998,-9.56,2b
2019-07-15_124448:840,-0.461121,-0.030487,-0.198273,-0.004152,0.003032,0.000923,-35.75,18.059998999999998,-9.56,2b
2019-07-15_124448:860,-0.458588,-0.030487,-0.198273,-0.004336,0.0035810000000000004,0.000984,-35.75,18.059998999999998,-9.56,2b
2019-07-15_124448:880,-0.45706199999999997,-0.031006,-0.197266,-0.004397,0.003978,0.001045,-36.560001,17.75,-8.75,2b
2019-07-15_124448:900,-0.457581,-0.032532,-0.195221,-0.004488000000000001,0.004222,0.001442,-36.560001,17.75,-8.75,2b
2019-07-15_124448:920,-0.457581,-0.032013,-0.195221,-0.004275,0.003978,0.001503,-36.18,18.059998999999998,-7.56,2b
2019-07-15_124448:940,-0.45605500000000004,-0.032532,-0.192169,-0.004091,0.0041,0.001258,-36.18,18.059998999999998,-7.56,2b
2019-07-15_124448:960,-0.45401,-0.031006,-0.193176,-0.003817,0.004161,0.001106,-36.18,18.059998999999998,-7.56,2b
2019-07-15_124448:980,-0.45553599999999994,-0.031006,-0.192169,-0.003664,0.003978,0.001167,-36.18,17.0,-8.5,2b
2019-07-15_124449:000,-0.457581,-0.032532,-0.192169,-0.003939,0.003825,0.001258,-36.18,17.0,-8.5,2b
2019-07-15_124449:020,-0.45907600000000004,-0.031494,-0.192688,-0.003817,0.003886,0.001777,-36.18,18.059998999999998,-8.0,2b
2019-07-15_124449:040,-0.459595,-0.032532,-0.190643,-0.0036950000000000004,0.003764,0.0018989999999999999,-36.18,18.059998999999998,-8.0,2b
2019-07-15_124449:060,-0.45806899999999995,-0.034546,-0.189636,-0.0036340000000000005,0.003825,0.001564,-36.18,18.059998999999998,-8.0,2b
2019-07-15_124449:080,-0.459595,-0.035583,-0.188599,-0.003512,0.003886,0.001106,-36.869999,18.059998999999998,-8.0,2b
2019-07-15_124449:100,-0.460114,-0.035583,-0.187073,-0.00339,0.004039,0.001503,-36.869999,18.059998999999998,-8.0,2b
2019-07-15_124449:120,-0.460114,-0.034546,-0.187073,-0.0033280000000000002,0.004161,0.00196,-35.75,18.059998999999998,-9.18,2b
2019-07-15_124449:140,-0.454529,-0.035583,-0.185547,-0.0036340000000000005,0.0042829999999999995,0.001442,-35.75,18.059998999999998,-9.18,2b
2019-07-15_124449:160,-0.45605500000000004,-0.035065,-0.190125,-0.003939,0.003093,0.001167,-35.75,18.059998999999998,-9.18,2b
2019-07-15_124449:180,-0.45706199999999997,-0.035065,-0.188599,-0.004091,0.002391,0.001106,-35.75,18.059998999999998,-8.0,2b
2019-07-15_124449:200,-0.45706199999999997,-0.035583,-0.189636,-0.00461,0.002055,0.001442,-35.75,18.059998999999998,-8.0,2b
2019-07-15_124449:220,-0.45706199999999997,-0.036072,-0.190643,-0.004793,0.0016589999999999999,0.002449,-36.560001,18.059998999999998,-8.5,2b
2019-07-15_124449:240,-0.458588,-0.038635,-0.18811,-0.005007,0.001628,0.0022960000000000003,-36.560001,18.059998999999998,-8.5,2b
2019-07-15_124449:260,-0.45605500000000004,-0.036591000000000005,-0.192688,-0.004946,0.001994,0.001381,-36.560001,18.059998999999998,-8.5,2b
2019-07-15_124449:280,-0.45553599999999994,-0.038635,-0.193176,-0.004671,0.002055,0.000831,-36.18,17.370001000000002,-9.18,2b
2019-07-15_124449:300,-0.454529,-0.037108999999999996,-0.193695,-0.00403,0.001994,0.00016,-36.18,17.370001000000002,-9.18,2b
2019-07-15_124449:320,-0.45605500000000004,-0.036072,-0.192169,-0.003176,0.0019030000000000002,-0.000512,-35.5,18.059998999999998,-8.37,2b
2019-07-15_124449:340,-0.45907600000000004,-0.036072,-0.190643,-0.0025960000000000002,0.001994,-0.000634,-35.5,18.059998999999998,-8.37,2b
2019-07-15_124449:360,-0.461639,-0.034546,-0.192688,-0.0018030000000000001,0.0023,6.8e-05,-35.5,18.059998999999998,-8.37,2b
2019-07-15_124449:380,-0.461639,-0.034058,-0.19165,-0.001772,0.002635,0.000526,-36.560001,18.870001000000002,-8.75,2b
2019-07-15_124449:400,-0.460114,-0.033539,-0.19165,-0.0020469999999999998,0.002513,0.001258,-36.560001,18.870001000000002,-8.75,2b
2019-07-15_124449:420,-0.461639,-0.03302,-0.189636,-0.0025960000000000002,0.003124,0.001777,-36.869999,18.059998999999998,-8.75,2b
2019-07-15_124449:440,-0.459595,-0.032532,-0.18811,-0.0036340000000000005,0.003307,0.0021739999999999997,-36.869999,18.059998999999998,-8.75,2b
2019-07-15_124449:460,-0.459595,-0.033539,-0.18811,-0.004397,0.003764,0.00251,-36.869999,18.059998999999998,-8.75,2b
2019-07-15_124449:480,-0.45806899999999995,-0.038116000000000004,-0.187073,-0.005129,0.00349,0.000709,-35.5,18.059998999999998,-6.5,2b
2019-07-15_124449:500,-0.460114,-0.036591000000000005,-0.185547,-0.005526,0.00349,0.000526,-35.5,18.059998999999998,-6.5,2b
2019-07-15_124449:520,-0.45907600000000004,-0.039642000000000004,-0.186066,-0.0051600000000000005,0.003368,0.002449,-35.75,18.5,-7.18,2b
2019-07-15_124449:540,-0.460114,-0.041168,-0.187592,-0.0051600000000000005,0.0031850000000000003,0.002449,-35.75,18.5,-7.18,2b
2019-07-15_124449:560,-0.458588,-0.039124,-0.187592,-0.005221,0.0029100000000000003,0.001564,-35.75,18.5,-7.18,2b
2019-07-15_124449:580,-0.45401,-0.039642000000000004,-0.184021,-0.005404,0.002757,0.001228,-35.5,18.059998999999998,-7.56,2b
2019-07-15_124449:600,-0.455017,-0.040649,-0.182007,-0.004946,0.002177,0.000831,-35.5,18.059998999999998,-7.56,2b
2019-07-15_124449:620,-0.462128,-0.040649,-0.185547,-0.004488000000000001,0.0017809999999999998,0.000465,-35.75,18.059998999999998,-8.0,2b
2019-07-15_124449:640,-0.459595,-0.041168,-0.185059,-0.003878,0.001964,0.00028199999999999997,-35.75,18.059998999999998,-8.0,2b
2019-07-15_124449:660,-0.458588,-0.040161,-0.187592,-0.0033280000000000002,0.00172,-0.00011499999999999999,-35.75,18.059998999999998,-8.0,2b
2019-07-15_124449:680,-0.457581,-0.039642000000000004,-0.189117,-0.002657,0.001628,-0.000267,-35.75,18.059998999999998,-8.0,2b
2019-07-15_124449:700,-0.45907600000000004,-0.038116000000000004,-0.189117,-0.0022600000000000003,0.001628,-0.00045099999999999996,-35.75,18.059998999999998,-8.0,2b
2019-07-15_124449:720,-0.45907600000000004,-0.037108999999999996,-0.189636,-0.002199,0.001628,-0.000664,-35.75,18.059998999999998,-8.0,2b
2019-07-15_124449:740,-0.45907600000000004,-0.037598,-0.187073,-0.0022600000000000003,0.001842,-0.000725,-35.75,18.059998999999998,-8.0,2b
2019-07-15_124449:760,-0.461121,-0.036591000000000005,-0.186066,-0.002443,0.0019030000000000002,-0.000573,-35.75,18.059998999999998,-8.0,2b
2019-07-15_124449:780,-0.46417200000000003,-0.036072,-0.185547,-0.002443,0.002116,-0.000267,-35.5,19.25,-8.37,2b
2019-07-15_124449:800,-0.465179,-0.037108999999999996,-0.186066,-0.0025960000000000002,0.002849,6.8e-05,-35.5,19.25,-8.37,2b
2019-07-15_124449:820,-0.460114,-0.037598,-0.185059,-0.0028399999999999996,0.003032,0.000129,-35.75,18.870001000000002,-7.56,2b
2019-07-15_124449:840,-0.45907600000000004,-0.037108999999999996,-0.183533,-0.003176,0.002757,6.8e-05,-35.75,18.870001000000002,-7.56,2b
2019-07-15_124449:860,-0.458588,-0.037108999999999996,-0.18454,-0.0036340000000000005,0.002757,0.000129,-35.75,18.870001000000002,-7.56,2b
2019-07-15_124449:880,-0.45706199999999997,-0.038116000000000004,-0.184021,-0.0037560000000000002,0.002239,0.000221,-35.5,17.75,-8.0,2b
2019-07-15_124449:900,-0.45553599999999994,-0.039642000000000004,-0.183533,-0.0037560000000000002,0.001994,-0.00045099999999999996,-35.5,17.75,-8.0,2b
2019-07-15_124449:920,-0.45654300000000003,-0.039124,-0.183014,-0.0034509999999999996,0.001537,-0.001183,-35.5,18.870001000000002,-7.56,2b
2019-07-15_124449:940,-0.45806899999999995,-0.038635,-0.184021,-0.002932,0.0010789999999999999,-0.001702,-35.5,18.870001000000002,-7.56,2b
2019-07-15_124449:960,-0.460114,-0.037598,-0.18454,-0.002321,0.0008960000000000001,-0.002037,-35.5,18.870001000000002,-7.56,2b
2019-07-15_124449:980,-0.462128,-0.035065,-0.184021,-0.001772,0.0012619999999999999,-0.0021899999999999997,-35.75,18.870001000000002,-8.37,2b
2019-07-15_124450:000,-0.463654,-0.034058,-0.185547,-0.001772,0.0012619999999999999,-0.002495,-35.75,18.870001000000002,-8.37,2b
2019-07-15_124450:020,-0.461121,-0.034058,-0.185059,-0.0015890000000000001,0.00172,-0.002251,-35.75,17.75,-8.0,2b
2019-07-15_124450:040,-0.460114,-0.036591000000000005,-0.183533,-0.001253,0.00172,-0.0023120000000000003,-35.75,17.75,-8.0,2b
2019-07-15_124450:060,-0.45907600000000004,-0.038635,-0.183533,-0.000734,0.001842,-0.002648,-35.75,17.75,-8.0,2b
2019-07-15_124450:080,-0.45706199999999997,-0.039124,-0.183014,-0.000124,0.001537,-0.003045,-35.75,18.5,-8.0,2b
2019-07-15_124450:100,-0.45553599999999994,-0.038116000000000004,-0.184021,0.000547,0.000621,-0.002434,-35.75,18.5,-8.0,2b
2019-07-15_124450:120,-0.45605500000000004,-0.037598,-0.184021,0.000791,-0.00011100000000000001,-0.001458,-38.060001,18.5,-8.0,2b
2019-07-15_124450:140,-0.45605500000000004,-0.041168,-0.185059,0.000669,-0.001179,-0.000512,-38.060001,18.5,-8.0,2b
2019-07-15_124450:160,-0.45907600000000004,-0.044219999999999995,-0.185547,0.001066,-0.001912,-0.0008470000000000001,-38.060001,18.5,-8.0,2b
2019-07-15_124450:180,-0.463654,-0.048279,-0.185547,0.0016460000000000001,-0.002309,-0.0013050000000000002,-36.18,17.75,-7.56,2b
2019-07-15_124450:200,-0.46469099999999997,-0.048279,-0.185059,0.002409,-0.001759,-0.00011499999999999999,-36.18,17.75,-7.56,2b
2019-07-15_124450:220,-0.467224,-0.048279,-0.185547,0.003904,-0.001027,-0.000267,-35.75,17.75,-8.37,2b
2019-07-15_124450:240,-0.459595,-0.047272,-0.187592,0.004972,-0.001057,-0.001641,-35.75,17.75,-8.37,2b
2019-07-15_124450:260,-0.460114,-0.042175,-0.189117,0.005857,-0.0009660000000000001,-0.0029219999999999997,-35.75,17.75,-8.37,2b
2019-07-15_124450:280,-0.459595,-0.041168,-0.189636,0.00604,-0.001179,-0.004692,-35.75,17.75,-8.0,2b
2019-07-15_124450:300,-0.45605500000000004,-0.034058,-0.189636,0.00604,-0.001057,-0.005364,-35.75,17.75,-8.0,2b
2019-07-15_124450:320,-0.453491,-0.031006,-0.191162,0.005765999999999999,-0.0008439999999999999,-0.006431999999999999,-37.25,18.059998999999998,-7.18,2b
2019-07-15_124450:340,-0.44995100000000005,-0.026917,-0.192169,0.005125,-0.001027,-0.008232,-37.25,18.059998999999998,-7.18,2b
2019-07-15_124450:360,-0.453003,-0.025421,-0.195221,0.004789,-0.001515,-0.009209,-37.25,18.059998999999998,-7.18,2b
2019-07-15_124450:380,-0.453491,-0.023895,-0.19622799999999999,0.00485,-0.001759,-0.010003,-37.25,17.75,-7.18,2b
2019-07-15_124450:400,-0.454529,-0.023375999999999997,-0.198273,0.00485,-0.001698,-0.010277,-37.25,17.75,-7.18,2b
2019-07-15_124450:420,-0.45553599999999994,-0.024384,-0.19927999999999998,0.004911,-0.00124,-0.009148,-36.560001,17.75,-7.56,2b
2019-07-15_124450:440,-0.46417200000000003,-0.023375999999999997,-0.197266,0.004728,-0.0008439999999999999,-0.007012000000000001,-36.560001,17.75,-7.56,2b
2019-07-15_124450:460,-0.465179,-0.023895,-0.196747,0.003996,-0.000508,-0.003319,-36.560001,17.75,-7.56,2b
2019-07-15_124450:480,-0.46670500000000004,-0.025908999999999998,-0.197266,0.002989,1.1e-05,-5.4000000000000005e-05,-36.560001,18.059998999999998,-7.56,2b
2019-07-15_124450:500,-0.46823100000000006,-0.025908999999999998,-0.19622799999999999,0.001982,0.0009570000000000001,0.000923,-36.560001,18.059998999999998,-7.56,2b
2019-07-15_124450:520,-0.46670500000000004,-0.026917,-0.193695,0.00073,0.002361,0.000526,-36.560001,17.75,-7.56,2b
2019-07-15_124450:540,-0.460114,-0.025908999999999998,-0.190643,-0.000338,0.003246,0.000465,-36.560001,17.75,-7.56,2b
2019-07-15_124450:560,-0.45401,-0.028442000000000002,-0.190643,-0.001253,0.003764,-0.000267,-36.560001,17.75,-7.56,2b
2019-07-15_124450:580,-0.45196499999999995,-0.029480000000000003,-0.190125,-0.0017109999999999998,0.003703,-0.001366,-36.869999,17.370001000000002,-7.18,2b
2019-07-15_124450:600,-0.453491,-0.029480000000000003,-0.189117,-0.0022600000000000003,0.002391,-0.002587,-36.869999,17.370001000000002,-7.18,2b
2019-07-15_124450:620,-0.45654300000000003,-0.030487,-0.190125,-0.002199,0.001994,-0.00216,-36.560001,17.0,-6.75,2b
2019-07-15_124450:640,-0.457581,-0.027954000000000003,-0.191162,-0.001986,0.00172,-0.001519,-36.560001,17.0,-6.75,2b
2019-07-15_124450:660,-0.45907600000000004,-0.027435,-0.190643,-0.001925,0.0014759999999999999,-0.0009689999999999999,-36.560001,17.0,-6.75,2b
2019-07-15_124450:680,-0.45806899999999995,-0.025908999999999998,-0.190643,-0.0021079999999999996,0.0014759999999999999,-0.000267,-36.869999,17.75,-7.25,2b
2019-07-15_124450:700,-0.454529,-0.025908999999999998,-0.19165,-0.0028399999999999996,0.00114,-0.000176,-36.869999,17.75,-7.25,2b
2019-07-15_124450:720,-0.457581,-0.027435,-0.190643,-0.002932,0.001201,-0.000573,-36.560001,18.059998999999998,-6.75,2b
2019-07-15_124450:740,-0.458588,-0.028961,-0.191162,-0.003054,0.001201,-0.000908,-36.560001,18.059998999999998,-6.75,2b
2019-07-15_124450:760,-0.45806899999999995,-0.028961,-0.192169,-0.0029010000000000004,0.001415,-0.000267,-36.560001,18.059998999999998,-6.75,2b
2019-07-15_124450:780,-0.45706199999999997,-0.029480000000000003,-0.194702,-0.002657,0.001598,-0.00023700000000000001,-36.869999,16.559998999999998,-6.75,2b
2019-07-15_124450:800,-0.45654300000000003,-0.027435,-0.193695,-0.002443,0.0014759999999999999,-0.000267,-36.869999,16.559998999999998,-6.75,2b
2019-07-15_124450:820,-0.45907600000000004,-0.026917,-0.193695,-0.0022600000000000003,0.001628,0.00016,-36.18,17.370001000000002,-8.37,2b
2019-07-15_124450:840,-0.461639,-0.027435,-0.193176,-0.002535,0.002116,0.001777,-36.18,17.370001000000002,-8.37,2b
2019-07-15_124450:860,-0.46060200000000007,-0.029480000000000003,-0.192688,-0.002779,0.0023,0.002388,-36.18,17.370001000000002,-8.37,2b
2019-07-15_124450:880,-0.45706199999999997,-0.028961,-0.193176,-0.002779,0.0024519999999999998,0.001655,-37.25,17.0,-6.75,2b
2019-07-15_124450:900,-0.45553599999999994,-0.029480000000000003,-0.192169,-0.0031149999999999997,0.0023,0.000984,-37.25,17.0,-6.75,2b
2019-07-15_124450:920,-0.45553599999999994,-0.027954000000000003,-0.193695,-0.003176,0.002177,0.000465,-36.560001,17.370001000000002,-6.5,2b
2019-07-15_124450:940,-0.457581,-0.028961,-0.195221,-0.00339,0.002116,0.000343,-36.560001,17.370001000000002,-6.5,2b
2019-07-15_124450:960,-0.45706199999999997,-0.027435,-0.194702,-0.0036340000000000005,0.002239,0.000129,-36.560001,17.370001000000002,-6.5,2b
2019-07-15_124450:980,-0.45706199999999997,-0.027954000000000003,-0.195221,-0.0036950000000000004,0.002513,0.00028199999999999997,-35.75,17.0,-7.56,2b
2019-07-15_124451:000,-0.458588,-0.028442000000000002,-0.192688,-0.004152,0.002788,0.000923,-35.75,17.0,-7.56,2b
2019-07-15_124451:020,-0.458588,-0.028442000000000002,-0.195221,-0.004549,0.002849,0.00196,-36.560001,17.75,-6.75,2b
2019-07-15_124451:040,-0.45907600000000004,-0.028961,-0.19574,-0.005129,0.002635,0.00251,-36.560001,17.75,-6.75,2b
2019-07-15_124451:060,-0.462646,-0.031006,-0.19574,-0.005739,0.0034289999999999998,0.002388,-36.560001,17.75,-6.75,2b
2019-07-15_124451:080,-0.46060200000000007,-0.03302,-0.187592,-0.006319,0.003886,0.002357,-36.560001,17.370001000000002,-7.56,2b
2019-07-15_124451:100,-0.461121,-0.036591000000000005,-0.186066,-0.005526,0.003978,0.0022960000000000003,-36.560001,17.370001000000002,-7.56,2b
2019-07-15_124451:120,-0.46316499999999994,-0.033539,-0.192688,-0.0051600000000000005,0.003917,0.002052,-36.560001,17.0,-6.5,2b
2019-07-15_124451:140,-0.45605500000000004,-0.033539,-0.190643,-0.005526,0.005107,0.001655,-36.560001,17.0,-6.5,2b
2019-07-15_124451:160,-0.459595,-0.03302,-0.192169,-0.005526,0.005107,0.000831,-36.560001,17.0,-6.5,2b
2019-07-15_124451:180,-0.45605500000000004,-0.031006,-0.189117,-0.005556,0.004833,0.0007700000000000001,-36.560001,17.370001000000002,-7.18,2b
2019-07-15_124451:200,-0.454529,-0.033539,-0.187073,-0.0056170000000000005,0.004222,0.000587,-36.560001,17.370001000000002,-7.18,2b
2019-07-15_124451:220,-0.45401,-0.031494,-0.187592,-0.005739,0.0035810000000000004,0.000587,-36.869999,17.75,-6.75,2b
2019-07-15_124451:240,-0.45706199999999997,-0.034058,-0.18811,-0.005556,0.002971,0.0007700000000000001,-36.869999,17.75,-6.75,2b
2019-07-15_124451:260,-0.459595,-0.03302,-0.187592,-0.005282,0.002788,0.000496,-36.869999,17.75,-6.75,2b
2019-07-15_124451:280,-0.462646,-0.034058,-0.188599,-0.005343,0.002849,0.000587,-36.18,17.0,-6.75,2b
2019-07-15_124451:300,-0.46469099999999997,-0.031494,-0.185547,-0.004793,0.003246,0.0007700000000000001,-36.18,17.0,-6.75,2b
2019-07-15_124451:320,-0.462128,-0.03302,-0.186584,-0.004793,0.00352,0.000465,-36.560001,17.0,-6.5,2b
2019-07-15_124451:340,-0.459595,-0.031494,-0.184021,-0.00461,0.003978,0.001167,-36.560001,17.0,-6.5,2b
2019-07-15_124451:360,-0.45907600000000004,-0.031006,-0.183533,-0.004793,0.003764,0.002052,-36.560001,17.0,-6.5,2b
2019-07-15_124451:380,-0.45806899999999995,-0.032013,-0.184021,-0.004824,0.003978,0.001991,-36.869999,17.75,-7.25,2b
2019-07-15_124451:400,-0.45907600000000004,-0.032013,-0.183533,-0.005129,0.003368,0.000648,-36.869999,17.75,-7.25,2b
2019-07-15_124451:420,-0.460114,-0.032532,-0.18454,-0.0051600000000000005,0.002971,0.000404,-36.869999,17.75,-7.25,2b
2019-07-15_124451:440,-0.46060200000000007,-0.031494,-0.18454,-0.005068,0.002574,0.001228,-36.560001,17.75,-6.5,2b
2019-07-15_124451:460,-0.461121,-0.032013,-0.184021,-0.005007,0.002574,0.00196,-36.560001,17.75,-6.5,2b
2019-07-15_124451:480,-0.458588,-0.034546,-0.18454,-0.005129,0.002757,0.00196,-36.869999,17.0,-7.56,2b
2019-07-15_124451:500,-0.460114,-0.034058,-0.18454,-0.004824,0.002849,0.001167,-36.869999,17.0,-7.56,2b
2019-07-15_124451:520,-0.459595,-0.034058,-0.184021,-0.00461,0.002696,0.000831,-36.869999,17.75,-5.56,2b
2019-07-15_124451:540,-0.46060200000000007,-0.035065,-0.182007,-0.004275,0.002788,0.000709,-36.869999,17.75,-5.56,2b
2019-07-15_124451:560,-0.461639,-0.034546,-0.182007,-0.00403,0.002635,0.000404,-36.869999,17.75,-5.56,2b
2019-07-15_124451:580,-0.459595,-0.034058,-0.183533,-0.0036340000000000005,0.002696,0.000526,-36.869999,18.059998999999998,-8.0,2b
2019-07-15_124451:600,-0.461639,-0.03302,-0.184021,-0.003817,0.002574,0.000404,-36.869999,18.059998999999998,-8.0,2b
2019-07-15_124451:620,-0.463654,-0.030487,-0.18454,-0.004427,0.002757,0.000587,-36.560001,18.059998999999998,-6.5,2b
2019-07-15_124451:640,-0.463654,-0.030487,-0.184021,-0.005343,0.0029100000000000003,0.000129,-36.560001,18.059998999999998,-6.5,2b
2019-07-15_124451:660,-0.463654,-0.031006,-0.184021,-0.006014,0.003307,-5.4000000000000005e-05,-36.560001,18.059998999999998,-6.5,2b
2019-07-15_124451:680,-0.461639,-0.032532,-0.184021,-0.006258,0.003307,-0.00011499999999999999,-36.869999,18.059998999999998,-6.75,2b
2019-07-15_124451:700,-0.461121,-0.03302,-0.18249500000000002,-0.006745999999999999,0.003703,0.00016,-36.869999,18.059998999999998,-6.75,2b
2019-07-15_124451:720,-0.461121,-0.03302,-0.182007,-0.006745999999999999,0.003764,0.000221,-37.25,17.75,-6.75,2b
2019-07-15_124451:740,-0.459595,-0.034546,-0.183533,-0.006319,0.00349,-0.000389,-37.25,17.75,-6.75,2b
2019-07-15_124451:760,-0.45907600000000004,-0.034058,-0.181488,-0.005556,0.002971,6.8e-05,-37.25,17.75,-6.75,2b
2019-07-15_124451:780,-0.461121,-0.034058,-0.183014,-0.005282,0.002574,0.00016,-36.560001,17.75,-6.75,2b
2019-07-15_124451:800,-0.462646,-0.032532,-0.183533,-0.004732,0.0029100000000000003,-0.00011499999999999999,-36.560001,17.75,-6.75,2b
2019-07-15_124451:820,-0.46569799999999995,-0.030487,-0.183533,-0.004397,0.0031850000000000003,-0.00023700000000000001,-36.560001,17.75,-6.75,2b
2019-07-15_124451:840,-0.46469099999999997,-0.031006,-0.184021,-0.004213000000000001,0.003978,-0.00045099999999999996,-36.869999,17.370001000000002,-7.56,2b
2019-07-15_124451:860,-0.46316499999999994,-0.031006,-0.18096900000000002,-0.004275,0.0042829999999999995,-0.000512,-36.869999,17.370001000000002,-7.56,2b
2019-07-15_124451:880,-0.462646,-0.029968,-0.180481,-0.004275,0.004039,0.000129,-36.560001,17.370001000000002,-6.0,2b
2019-07-15_124451:900,-0.46316499999999994,-0.027954000000000003,-0.176422,-0.004213000000000001,0.0041,0.00028199999999999997,-36.560001,17.370001000000002,-6.0,2b
2019-07-15_124451:920,-0.463654,-0.026427999999999997,-0.17843599999999998,-0.00461,0.003703,0.001045,-36.560001,17.370001000000002,-6.0,2b
2019-07-15_124451:940,-0.46469099999999997,-0.027435,-0.177429,-0.005282,0.003825,0.000709,-37.25,17.370001000000002,-6.0,2b
2019-07-15_124451:960,-0.46569799999999995,-0.026917,-0.177948,-0.005221,0.004039,0.000526,-37.25,17.370001000000002,-6.0,2b
2019-07-15_124451:980,-0.46316499999999994,-0.030487,-0.176422,-0.005556,0.004039,0.000526,-36.560001,17.370001000000002,-6.75,2b
2019-07-15_124452:000,-0.462128,-0.028961,-0.175903,-0.005404,0.003978,0.000587,-36.560001,17.370001000000002,-6.75,2b
2019-07-15_124452:020,-0.462646,-0.032013,-0.177948,-0.005343,0.003764,0.000496,-36.560001,17.370001000000002,-6.75,2b
2019-07-15_124452:040,-0.463654,-0.031494,-0.17538499999999999,-0.004793,0.00352,0.000404,-36.560001,17.75,-6.0,2b
2019-07-15_124452:060,-0.46316499999999994,-0.031494,-0.17690999999999998,-0.004397,0.00352,0.000129,-36.560001,17.75,-6.0,2b
2019-07-15_124452:080,-0.46469099999999997,-0.032532,-0.17538499999999999,-0.003878,0.0034289999999999998,0.000221,-37.25,17.75,-6.5,2b
2019-07-15_124452:100,-0.465179,-0.032532,-0.17385899999999999,-0.0036340000000000005,0.003368,0.000404,-37.25,17.75,-6.5,2b
2019-07-15_124452:120,-0.46569799999999995,-0.031494,-0.174896,-0.0034509999999999996,0.003307,0.000404,-37.25,17.75,-6.5,2b
2019-07-15_124452:140,-0.466217,-0.031006,-0.17690999999999998,-0.0033280000000000002,0.003368,0.000404,-36.869999,17.75,-6.5,2b
2019-07-15_124452:160,-0.46569799999999995,-0.031006,-0.17538499999999999,-0.0034509999999999996,0.003307,-0.000267,-36.869999,17.75,-6.5,2b
2019-07-15_124452:180,-0.46469099999999997,-0.031006,-0.174896,-0.0033280000000000002,0.003703,-0.0008470000000000001,-36.869999,17.75,-6.75,2b
2019-07-15_124452:200,-0.46316499999999994,-0.031006,-0.17337,-0.003512,0.0035810000000000004,-0.00045099999999999996,-36.869999,17.75,-6.75,2b
2019-07-15_124452:220,-0.46316499999999994,-0.031006,-0.172333,-0.003573,0.0031850000000000003,-0.000328,-36.869999,17.75,-6.75,2b
2019-07-15_124452:240,-0.46316499999999994,-0.032532,-0.171844,-0.003512,0.002635,-0.00023700000000000001,-37.68,16.559998999999998,-6.0,2b
2019-07-15_124452:260,-0.462646,-0.032013,-0.172333,-0.003237,0.0023,-0.00045099999999999996,-37.68,16.559998999999998,-6.0,2b
2019-07-15_124452:280,-0.46469099999999997,-0.031494,-0.172852,-0.002718,0.00172,-0.001,-36.869999,17.370001000000002,-6.5,2b
2019-07-15_124452:300,-0.465179,-0.028442000000000002,-0.171326,-0.002443,0.001353,-0.0010609999999999999,-36.869999,17.370001000000002,-6.5,2b
2019-07-15_124452:320,-0.466217,-0.027435,-0.172333,-0.002199,0.001628,-0.0010609999999999999,-36.869999,17.370001000000002,-6.5,2b
2019-07-15_124452:340,-0.466217,-0.026427999999999997,-0.172852,-0.002382,0.001964,-0.0008470000000000001,-37.25,17.0,-5.56,2b
2019-07-15_124452:360,-0.46569799999999995,-0.025908999999999998,-0.171844,-0.0025050000000000003,0.001994,-0.000512,-37.25,17.0,-5.56,2b
2019-07-15_124452:380,-0.466217,-0.024902,-0.17337,-0.0028399999999999996,0.002361,-0.00023700000000000001,-36.560001,17.370001000000002,-6.5,2b
2019-07-15_124452:400,-0.466217,-0.025421,-0.171844,-0.0032979999999999997,0.002116,0.000343,-36.560001,17.370001000000002,-6.5,2b
2019-07-15_124452:420,-0.46569799999999995,-0.025908999999999998,-0.172852,-0.0036340000000000005,0.00172,0.0007700000000000001,-36.560001,17.370001000000002,-6.5,2b
2019-07-15_124452:440,-0.467743,-0.028442000000000002,-0.172852,-0.004,0.0019030000000000002,0.000587,-36.18,17.0,-6.06,2b
2019-07-15_124452:460,-0.467743,-0.029480000000000003,-0.171326,-0.003817,0.001628,0.00028199999999999997,-36.18,17.0,-6.06,2b
2019-07-15_124452:480,-0.46823100000000006,-0.028961,-0.170807,-0.003817,0.002239,0.00132,-37.25,16.25,-6.5,2b
2019-07-15_124452:500,-0.467743,-0.030487,-0.172333,-0.003817,0.0024519999999999998,0.001503,-37.25,16.25,-6.5,2b
2019-07-15_124452:520,-0.461121,-0.028961,-0.17385899999999999,-0.003878,0.0024519999999999998,0.000587,-36.18,17.0,-6.5,2b
2019-07-15_124452:540,-0.462128,-0.028961,-0.175903,-0.003512,0.0014759999999999999,-5.4000000000000005e-05,-36.18,17.0,-6.5,2b
2019-07-15_124452:560,-0.46569799999999995,-0.027954000000000003,-0.174896,-0.003237,0.0009570000000000001,-0.00011499999999999999,-36.18,17.0,-6.5,2b
2019-07-15_124452:580,-0.46875,-0.026917,-0.174896,-0.003237,0.001018,0.0007700000000000001,-36.869999,17.370001000000002,-6.5,2b
2019-07-15_124452:600,-0.46823100000000006,-0.027435,-0.174377,-0.00339,0.001537,0.001106,-36.869999,17.370001000000002,-6.5,2b
2019-07-15_124452:620,-0.46823100000000006,-0.025908999999999998,-0.174896,-0.0036950000000000004,0.002361,0.000923,-36.869999,17.370001000000002,-6.5,2b
2019-07-15_124452:640,-0.46670500000000004,-0.027954000000000003,-0.17337,-0.004152,0.002849,0.001228,-35.75,18.059998999999998,-7.56,2b
2019-07-15_124452:660,-0.46569799999999995,-0.029480000000000003,-0.172333,-0.004275,0.0029100000000000003,0.001045,-35.75,18.059998999999998,-7.56,2b
2019-07-15_124452:680,-0.46569799999999995,-0.032532,-0.171844,-0.004549,0.0031850000000000003,0.000709,-36.869999,16.559998999999998,-6.0,2b
2019-07-15_124452:700,-0.46569799999999995,-0.03302,-0.170807,-0.004152,0.0029100000000000003,0.000709,-36.869999,16.559998999999998,-6.0,2b
2019-07-15_124452:720,-0.46670500000000004,-0.034058,-0.172852,-0.0036950000000000004,0.002849,0.000343,-36.869999,16.559998999999998,-6.0,2b
2019-07-15_124452:740,-0.465179,-0.036072,-0.172333,-0.0031149999999999997,0.002635,6.8e-05,-36.560001,17.75,-6.0,2b
2019-07-15_124452:760,-0.465179,-0.034546,-0.172333,-0.0025960000000000002,0.002696,-0.000176,-36.560001,17.75,-6.0,2b
2019-07-15_124452:780,-0.46417200000000003,-0.034058,-0.172852,-0.002199,0.001994,-0.000725,-36.560001,16.25,-5.56,2b
2019-07-15_124452:800,-0.46469099999999997,-0.03302,-0.170319,-0.00165,0.002239,-0.001519,-36.560001,16.25,-5.56,2b
2019-07-15_124452:820,-0.463654,-0.028961,-0.171844,-0.001467,0.0016589999999999999,-0.001458,-36.560001,16.25,-5.56,2b
2019-07-15_124452:840,-0.46569799999999995,-0.027954000000000003,-0.171326,-0.0015890000000000001,0.001842,-0.001366,-36.560001,18.059998999999998,-6.06,2b
2019-07-15_124452:860,-0.466217,-0.026917,-0.171326,-0.001986,0.001842,-0.0019149999999999998,-36.560001,18.059998999999998,-6.06,2b
2019-07-15_124452:880,-0.46670500000000004,-0.024384,-0.172333,-0.002443,0.001628,-0.001458,-36.869999,17.0,-6.75,2b
2019-07-15_124452:900,-0.46823100000000006,-0.024384,-0.170319,-0.003054,0.0019030000000000002,-0.000512,-36.869999,17.0,-6.75,2b
2019-07-15_124452:920,-0.467743,-0.025421,-0.171844,-0.003573,0.002055,-0.000512,-36.869999,17.0,-6.75,2b
2019-07-15_124452:940,-0.467224,-0.026427999999999997,-0.171844,-0.004091,0.002513,-0.000512,-36.18,17.0,-7.25,2b
2019-07-15_124452:960,-0.46569799999999995,-0.027954000000000003,-0.171326,-0.004091,0.0024519999999999998,-0.000328,-36.18,17.0,-7.25,2b
2019-07-15_124452:980,-0.46569799999999995,-0.028442000000000002,-0.171326,-0.003939,0.002361,-0.000176,-36.869999,17.0,-6.75,2b
2019-07-15_124453:000,-0.46569799999999995,-0.029968,-0.170319,-0.003664,0.002177,0.000129,-36.869999,17.0,-6.75,2b
2019-07-15_124453:020,-0.466217,-0.028961,-0.170319,-0.003054,0.002361,0.000404,-36.869999,17.0,-6.75,2b
2019-07-15_124453:040,-0.467224,-0.026917,-0.169281,-0.002779,0.002055,6.8e-05,-36.869999,17.0,-6.5,2b
2019-07-15_124453:060,-0.46670500000000004,-0.027435,-0.169281,-0.002443,0.002055,7.000000000000001e-06,-36.869999,17.0,-6.5,2b
2019-07-15_124453:080,-0.46670500000000004,-0.026917,-0.170807,-0.002382,0.0023,0.000343,-36.18,17.0,-5.56,2b
2019-07-15_124453:100,-0.466217,-0.027435,-0.168274,-0.0028399999999999996,0.002055,0.001045,-36.18,17.0,-5.56,2b
2019-07-15_124453:120,-0.466217,-0.030487,-0.171326,-0.003054,0.0017809999999999998,0.001655,-36.18,17.0,-5.56,2b
2019-07-15_124453:140,-0.46926899999999994,-0.035583,-0.1698,-0.003054,0.002116,0.0018989999999999999,-37.25,17.0,-6.5,2b
2019-07-15_124453:160,-0.47079499999999996,-0.038635,-0.166748,-0.002169,0.002635,0.00196,-37.25,17.0,-6.5,2b
2019-07-15_124453:180,-0.467224,-0.038635,-0.1698,-0.000734,0.0029100000000000003,0.001228,-37.25,17.0,-5.56,2b
2019-07-15_124453:200,-0.461121,-0.034546,-0.168274,0.000669,0.002696,0.000404,-37.25,17.0,-5.56,2b
2019-07-15_124453:220,-0.460114,-0.033539,-0.169281,0.001524,0.001842,0.000526,-37.25,17.0,-5.56,2b
2019-07-15_124453:240,-0.460114,-0.031494,-0.170807,0.001982,0.0008039999999999999,0.000221,-36.560001,17.0,-4.75,2b
2019-07-15_124453:260,-0.461639,-0.028961,-0.171326,0.001982,7.2e-05,-0.000664,-36.560001,17.0,-4.75,2b
2019-07-15_124453:280,-0.46670500000000004,-0.025908999999999998,-0.171844,0.001463,-0.00011100000000000001,-0.001641,-36.560001,17.370001000000002,-5.25,2b
2019-07-15_124453:300,-0.467743,-0.025421,-0.171844,0.000669,-0.000172,-0.00216,-36.560001,17.370001000000002,-5.25,2b
2019-07-15_124453:320,-0.470276,-0.026427999999999997,-0.171326,-0.000124,0.000499,-0.00216,-36.560001,17.370001000000002,-5.25,2b
2019-07-15_124453:340,-0.472321,-0.025908999999999998,-0.170319,-0.001314,0.000865,-0.0019760000000000003,-36.869999,18.059998999999998,-5.25,2b
2019-07-15_124453:360,-0.47332799999999997,-0.027954000000000003,-0.1698,-0.002382,0.001598,-0.0011220000000000002,-36.869999,18.059998999999998,-5.25,2b
2019-07-15_124453:380,-0.47280900000000003,-0.027435,-0.1698,-0.00339,0.002391,-0.00023700000000000001,-36.560001,16.25,-5.25,2b
2019-07-15_124453:400,-0.46823100000000006,-0.028961,-0.169281,-0.00403,0.002788,0.000496,-36.560001,16.25,-5.25,2b
2019-07-15_124453:420,-0.46569799999999995,-0.030487,-0.169281,-0.004793,0.003032,0.000526,-36.560001,16.25,-5.25,2b
2019-07-15_124453:440,-0.46417200000000003,-0.032013,-0.168793,-0.0048850000000000005,0.002635,6.8e-05,-37.25,17.75,-6.5,2b
2019-07-15_124453:460,-0.462646,-0.033539,-0.1698,-0.004671,0.002116,-0.000725,-37.25,17.75,-6.5,2b
2019-07-15_124453:480,-0.463654,-0.031494,-0.170807,-0.003939,0.00172,-0.001,-37.68,17.370001000000002,-5.56,2b
2019-07-15_124453:500,-0.463654,-0.031006,-0.1698,-0.0033280000000000002,0.001292,-0.0010609999999999999,-37.68,17.370001000000002,-5.56,2b
2019-07-15_124453:520,-0.46823100000000006,-0.028442000000000002,-0.170319,-0.002932,0.0012619999999999999,-0.0011220000000000002,-37.68,17.370001000000002,-5.56,2b
2019-07-15_124453:540,-0.46875,-0.026917,-0.171326,-0.002443,0.001537,-0.0008470000000000001,-36.18,17.370001000000002,-5.56,2b
2019-07-15_124453:560,-0.46926899999999994,-0.025908999999999998,-0.170319,-0.002443,0.0019030000000000002,-0.000786,-36.18,17.370001000000002,-5.56,2b
2019-07-15_124453:580,-0.46875,-0.023375999999999997,-0.1698,-0.002382,0.001994,-0.001,-37.25,17.0,-6.5,2b
2019-07-15_124453:600,-0.46569799999999995,-0.022369,-0.166748,-0.002993,0.002177,0.000221,-37.25,17.0,-6.5,2b
2019-07-15_124453:620,-0.46469099999999997,-0.023375999999999997,-0.168793,-0.0036950000000000004,0.001842,0.001777,-37.25,17.0,-6.5,2b
2019-07-15_124453:640,-0.46569799999999995,-0.023895,-0.170807,-0.004824,0.0017809999999999998,0.001777,-36.560001,17.370001000000002,-6.0,2b
2019-07-15_124453:660,-0.46926899999999994,-0.026917,-0.175903,-0.005526,0.001201,0.001258,-36.560001,17.370001000000002,-6.0,2b
2019-07-15_124453:680,-0.46875,-0.031494,-0.163177,-0.0066549999999999995,0.001842,0.000984,-36.869999,16.559998999999998,-5.25,2b
2019-07-15_124453:700,-0.46823100000000006,-0.034058,-0.165741,-0.006136,0.0014759999999999999,0.001655,-36.869999,16.559998999999998,-5.25,2b
2019-07-15_124453:720,-0.467224,-0.032532,-0.168274,-0.005282,0.001415,0.001777,-36.869999,16.559998999999998,-5.25,2b
2019-07-15_124453:740,-0.466217,-0.031494,-0.171326,-0.005068,0.001842,0.001503,-36.560001,16.559998999999998,-5.56,2b
2019-07-15_124453:760,-0.46469099999999997,-0.033539,-0.171844,-0.004793,0.001842,0.000831,-36.560001,16.559998999999998,-5.56,2b
2019-07-15_124453:780,-0.467743,-0.034058,-0.171844,-0.004091,0.001964,0.000404,-36.869999,17.370001000000002,-6.5,2b
2019-07-15_124453:800,-0.46823100000000006,-0.034546,-0.168793,-0.00339,0.001964,0.000404,-36.869999,17.370001000000002,-6.5,2b
2019-07-15_124453:820,-0.467224,-0.032532,-0.1698,-0.002718,0.002177,6.8e-05,-36.869999,17.370001000000002,-6.5,2b
2019-07-15_124453:840,-0.466217,-0.032013,-0.168274,-0.001864,0.0019030000000000002,-0.000328,-36.18,16.559998999999998,-6.06,2b
2019-07-15_124453:860,-0.467224,-0.028961,-0.168793,-0.0018030000000000001,0.00172,-0.000176,-36.18,16.559998999999998,-6.06,2b
2019-07-15_124453:880,-0.467743,-0.028442000000000002,-0.170319,-0.0021079999999999996,0.002055,0.00028199999999999997,-37.25,16.559998999999998,-5.25,2b
2019-07-15_124453:900,-0.46417200000000003,-0.027435,-0.170807,-0.002718,0.001964,0.000465,-37.25,16.559998999999998,-5.25,2b
2019-07-15_124453:920,-0.463654,-0.026427999999999997,-0.171326,-0.0036340000000000005,0.001628,-0.00023700000000000001,-37.25,16.559998999999998,-5.25,2b
2019-07-15_124453:940,-0.46469099999999997,-0.027954000000000003,-0.170807,-0.004336,0.001292,-0.000634,-37.25,17.0,-6.0,2b
2019-07-15_124453:960,-0.46469099999999997,-0.027954000000000003,-0.1698,-0.004793,0.001018,-0.0010609999999999999,-37.25,17.0,-6.0,2b
2019-07-15_124453:980,-0.467743,-0.029480000000000003,-0.17385899999999999,-0.004488000000000001,0.001292,-0.001702,-36.869999,16.559998999999998,-6.5,2b
2019-07-15_124454:000,-0.469757,-0.028961,-0.171326,-0.004091,0.001598,-0.0019760000000000003,-36.869999,16.559998999999998,-6.5,2b
2019-07-15_124454:020,-0.471283,-0.027954000000000003,-0.172333,-0.0032979999999999997,0.001964,-0.000908,-36.869999,16.559998999999998,-6.5,2b
2019-07-15_124454:040,-0.471283,-0.028442000000000002,-0.171326,-0.0028399999999999996,0.002361,7.000000000000001e-06,-37.25,17.0,-5.25,2b
2019-07-15_124454:060,-0.470276,-0.026427999999999997,-0.171326,-0.0025960000000000002,0.002788,0.000831,-37.25,17.0,-5.25,2b
2019-07-15_124454:080,-0.47079499999999996,-0.025908999999999998,-0.168793,-0.0028399999999999996,0.003368,0.001381,-36.869999,17.0,-6.0,2b
2019-07-15_124454:100,-0.46875,-0.027435,-0.167267,-0.0034509999999999996,0.003825,0.001381,-36.869999,17.0,-6.0,2b
2019-07-15_124454:120,-0.466217,-0.028961,-0.166748,-0.003878,0.003825,0.000984,-36.869999,17.0,-6.0,2b
2019-07-15_124454:140,-0.466217,-0.029480000000000003,-0.166748,-0.004,0.003703,0.000526,-37.25,17.0,-6.06,2b
2019-07-15_124454:160,-0.465179,-0.032532,-0.164703,-0.003939,0.003124,0.000831,-37.25,17.0,-6.06,2b
2019-07-15_124454:180,-0.467224,-0.032532,-0.164215,-0.003664,0.002696,0.000984,-37.25,16.25,-5.25,2b
2019-07-15_124454:200,-0.46670500000000004,-0.03302,-0.164703,-0.003573,0.0024519999999999998,0.000831,-37.25,16.25,-5.25,2b
2019-07-15_124454:220,-0.46569799999999995,-0.032013,-0.165222,-0.0032979999999999997,0.002239,0.0007700000000000001,-37.25,16.25,-5.25,2b
2019-07-15_124454:240,-0.465179,-0.031006,-0.165222,-0.0031149999999999997,0.0017809999999999998,0.00028199999999999997,-37.25,17.75,-5.56,2b
2019-07-15_124454:260,-0.46569799999999995,-0.030487,-0.166229,-0.003176,0.0014759999999999999,0.000221,-37.25,17.75,-5.56,2b
2019-07-15_124454:280,-0.46569799999999995,-0.031494,-0.1698,-0.003176,0.0010789999999999999,0.000129,-37.68,17.0,-5.56,2b
2019-07-15_124454:300,-0.469757,-0.031006,-0.166748,-0.0031149999999999997,0.000865,-0.001,-37.68,17.0,-5.56,2b
2019-07-15_124454:320,-0.471283,-0.029480000000000003,-0.167267,-0.0029010000000000004,0.001292,-0.001397,-37.68,17.0,-5.56,2b
2019-07-15_124454:340,-0.469757,-0.029968,-0.167267,-0.002779,0.00172,-0.001183,-37.68,17.0,-6.0,2b
2019-07-15_124454:360,-0.46569799999999995,-0.028961,-0.167267,-0.0022600000000000003,0.001964,-0.0012439999999999999,-37.68,17.0,-6.0,2b
2019-07-15_124454:380,-0.463654,-0.026917,-0.169281,-0.001986,0.001537,-0.001,-36.560001,16.559998999999998,-5.25,2b
2019-07-15_124454:400,-0.46670500000000004,-0.024384,-0.166748,-0.002199,0.001018,-0.0008470000000000001,-36.560001,16.559998999999998,-5.25,2b
2019-07-15_124454:420,-0.46926899999999994,-0.022858,-0.167267,-0.002779,0.00114,-0.00023700000000000001,-36.560001,16.559998999999998,-5.25,2b
2019-07-15_124454:440,-0.46875,-0.022858,-0.166748,-0.003512,0.001292,6.8e-05,-36.560001,16.559998999999998,-5.56,2b
2019-07-15_124454:460,-0.46670500000000004,-0.023375999999999997,-0.168793,-0.004213000000000001,0.0012619999999999999,-0.00023700000000000001,-36.560001,16.559998999999998,-5.56,2b
2019-07-15_124454:480,-0.46569799999999995,-0.025421,-0.167755,-0.00461,0.001292,-5.4000000000000005e-05,-37.68,16.25,-7.25,2b
2019-07-15_124454:500,-0.46670500000000004,-0.027435,-0.167267,-0.004671,0.001018,0.000343,-37.68,16.25,-7.25,2b
2019-07-15_124454:520,-0.46926899999999994,-0.027954000000000003,-0.168274,-0.004732,0.0008039999999999999,0.001167,-37.68,16.25,-7.25,2b
2019-07-15_124454:540,-0.46670500000000004,-0.029480000000000003,-0.167755,-0.004732,0.000865,0.001655,-37.68,16.559998999999998,-5.56,2b
2019-07-15_124454:560,-0.467743,-0.029480000000000003,-0.169281,-0.004549,0.0009570000000000001,0.001838,-37.68,16.559998999999998,-5.56,2b
2019-07-15_124454:580,-0.46823100000000006,-0.032013,-0.170319,-0.004793,0.0010789999999999999,0.0021739999999999997,-37.25,17.0,-6.06,2b
2019-07-15_124454:600,-0.46875,-0.031494,-0.169281,-0.004824,0.00114,0.001777,-37.25,17.0,-6.06,2b
2019-07-15_124454:620,-0.467224,-0.032532,-0.1698,-0.004793,0.0012619999999999999,0.000526,-37.25,17.0,-6.06,2b
2019-07-15_124454:640,-0.46670500000000004,-0.032013,-0.171326,-0.004336,0.001598,0.00016,-36.869999,17.0,-5.25,2b
2019-07-15_124454:660,-0.46569799999999995,-0.033539,-0.171326,-0.003939,0.001537,-0.00011499999999999999,-36.869999,17.0,-5.25,2b
2019-07-15_124454:680,-0.46823100000000006,-0.032013,-0.171844,-0.0034509999999999996,0.00172,7.000000000000001e-06,-37.25,16.559998999999998,-4.75,2b
2019-07-15_124454:700,-0.46926899999999994,-0.031494,-0.170319,-0.0029010000000000004,0.00172,-5.4000000000000005e-05,-37.25,16.559998999999998,-4.75,2b
2019-07-15_124454:720,-0.471283,-0.029968,-0.1698,-0.0022600000000000003,0.001842,7.000000000000001e-06,-37.25,16.559998999999998,-4.75,2b
2019-07-15_124454:740,-0.46926899999999994,-0.028961,-0.168793,-0.0020469999999999998,0.002696,0.00016,-37.68,16.559998999999998,-5.25,2b
2019-07-15_124454:760,-0.469757,-0.026917,-0.167267,-0.002321,0.002757,-0.000267,-37.68,16.559998999999998,-5.25,2b
2019-07-15_124454:780,-0.466217,-0.027435,-0.166748,-0.0025960000000000002,0.003124,0.000221,-38.060001,17.0,-5.25,2b
2019-07-15_124454:800,-0.466217,-0.027435,-0.165222,-0.0033280000000000002,0.002971,0.000526,-38.060001,17.0,-5.25,2b
2019-07-15_124454:820,-0.46417200000000003,-0.027435,-0.166748,-0.004,0.002574,-5.4000000000000005e-05,-38.060001,17.0,-5.25,2b
2019-07-15_124454:840,-0.465179,-0.029968,-0.167267,-0.004152,0.001994,-0.000664,-37.25,17.370001000000002,-4.5,2b
2019-07-15_124454:860,-0.46926899999999994,-0.032013,-0.170319,-0.00403,0.001353,-0.001397,-37.25,17.370001000000002,-4.5,2b
2019-07-15_124454:880,-0.46875,-0.034058,-0.168274,-0.002932,0.001292,6.8e-05,-37.25,17.370001000000002,-6.06,2b
2019-07-15_124454:900,-0.46823100000000006,-0.032013,-0.167267,-0.002535,0.001415,0.00016,-37.25,17.370001000000002,-6.06,2b
2019-07-15_124454:920,-0.467224,-0.029968,-0.169281,-0.001864,0.0019030000000000002,6.8e-05,-37.25,17.370001000000002,-6.06,2b
2019-07-15_124454:940,-0.46823100000000006,-0.028442000000000002,-0.167755,-0.0014060000000000001,0.0019030000000000002,-0.00023700000000000001,-36.560001,17.75,-6.0,2b
2019-07-15_124454:960,-0.46926899999999994,-0.028442000000000002,-0.168274,-0.0018030000000000001,0.002239,-0.0009689999999999999,-36.560001,17.75,-6.0,2b
2019-07-15_124454:980,-0.46875,-0.027435,-0.167267,-0.0025050000000000003,0.0023,-0.0009689999999999999,-37.68,17.370001000000002,-5.56,2b
2019-07-15_124455:000,-0.46823100000000006,-0.027435,-0.166748,-0.0029010000000000004,0.002696,-0.000725,-37.68,17.370001000000002,-5.56,2b
2019-07-15_124455:020,-0.467743,-0.027435,-0.168793,-0.003237,0.002513,-0.00045099999999999996,-37.68,17.370001000000002,-5.56,2b
2019-07-15_124455:040,-0.465179,-0.025908999999999998,-0.166748,-0.003664,0.002116,-0.000389,-37.25,17.370001000000002,-4.06,2b
2019-07-15_124455:060,-0.465179,-0.023895,-0.166748,-0.003939,0.001964,-0.000267,-37.25,17.370001000000002,-4.06,2b
2019-07-15_124455:080,-0.465179,-0.024902,-0.169281,-0.004397,0.001415,0.00028199999999999997,-38.060001,17.0,-5.56,2b
2019-07-15_124455:100,-0.467224,-0.024902,-0.167267,-0.004671,0.001018,0.000587,-38.060001,17.0,-5.56,2b
2019-07-15_124455:120,-0.46926899999999994,-0.024384,-0.167755,-0.005007,0.0008039999999999999,0.000648,-38.060001,17.0,-5.56,2b
2019-07-15_124455:140,-0.466217,-0.024384,-0.166748,-0.005221,0.001018,0.001564,-38.060001,17.0,-6.06,2b
2019-07-15_124455:160,-0.46569799999999995,-0.027435,-0.1698,-0.005343,0.001201,0.001258,-38.060001,17.0,-6.06,2b
2019-07-15_124455:180,-0.46823100000000006,-0.026917,-0.170319,-0.0056170000000000005,0.001201,0.001228,-36.869999,17.370001000000002,-5.25,2b
2019-07-15_124455:200,-0.46875,-0.029480000000000003,-0.168793,-0.0056170000000000005,0.0012619999999999999,0.002052,-36.869999,17.370001000000002,-5.25,2b
2019-07-15_124455:220,-0.469757,-0.030487,-0.168793,-0.0056170000000000005,0.001353,0.001991,-36.869999,17.370001000000002,-5.25,2b
2019-07-15_124455:240,-0.466217,-0.031494,-0.169281,-0.005282,0.001537,0.001991,-36.869999,17.370001000000002,-4.75,2b
2019-07-15_124455:260,-0.466217,-0.032013,-0.168793,-0.0048850000000000005,0.001537,0.001625,-36.869999,17.370001000000002,-4.75,2b
2019-07-15_124455:280,-0.467224,-0.032013,-0.169281,-0.00461,0.00172,0.000831,-38.060001,16.559998999999998,-5.56,2b
2019-07-15_124455:300,-0.467743,-0.03302,-0.168274,-0.00403,0.00172,0.00028199999999999997,-38.060001,16.559998999999998,-5.56,2b
2019-07-15_124455:320,-0.46875,-0.032013,-0.169281,-0.003664,0.00172,0.00028199999999999997,-38.060001,16.559998999999998,-5.56,2b
2019-07-15_124455:340,-0.467743,-0.031006,-0.170807,-0.0033280000000000002,0.0016589999999999999,0.000709,-36.869999,16.25,-5.56,2b
2019-07-15_124455:360,-0.467743,-0.031006,-0.1698,-0.002993,0.001537,0.000923,-36.869999,16.25,-5.56,2b
2019-07-15_124455:380,-0.466217,-0.029480000000000003,-0.167755,-0.002993,0.001292,0.000831,-36.869999,17.370001000000002,-5.25,2b
2019-07-15_124455:400,-0.466217,-0.027954000000000003,-0.170319,-0.0031149999999999997,0.0012619999999999999,0.000709,-36.869999,17.370001000000002,-5.25,2b
2019-07-15_124455:420,-0.46875,-0.028442000000000002,-0.170807,-0.0033280000000000002,0.0014759999999999999,0.000465,-36.869999,17.370001000000002,-5.25,2b
2019-07-15_124455:440,-0.46823100000000006,-0.028961,-0.1698,-0.0036340000000000005,0.001964,-5.4000000000000005e-05,-37.68,17.0,-6.06,2b
2019-07-15_124455:460,-0.46670500000000004,-0.030487,-0.168793,-0.003573,0.001994,-0.000328,-37.68,17.0,-6.06,2b
2019-07-15_124455:480,-0.466217,-0.031006,-0.168793,-0.00339,0.0023,-0.00011499999999999999,-37.25,17.370001000000002,-6.06,2b
2019-07-15_124455:500,-0.467743,-0.029480000000000003,-0.167755,-0.003054,0.0019030000000000002,0.00016,-37.25,17.370001000000002,-6.06,2b
2019-07-15_124455:520,-0.469757,-0.029968,-0.168793,-0.002718,0.0019030000000000002,0.000343,-37.25,17.370001000000002,-6.06,2b
2019-07-15_124455:540,-0.46875,-0.028442000000000002,-0.168793,-0.002657,0.002055,0.00016,-36.560001,17.370001000000002,-6.75,2b
2019-07-15_124455:560,-0.467743,-0.028442000000000002,-0.166748,-0.0029010000000000004,0.002513,0.000129,-36.560001,17.370001000000002,-6.75,2b
2019-07-15_124455:580,-0.46823100000000006,-0.029480000000000003,-0.168793,-0.0029010000000000004,0.002696,-5.4000000000000005e-05,-37.25,16.25,-4.75,2b
2019-07-15_124455:600,-0.466217,-0.031006,-0.167267,-0.003054,0.002574,-0.000267,-37.25,16.25,-4.75,2b
2019-07-15_124455:620,-0.465179,-0.031494,-0.168793,-0.002993,0.002513,-0.000267,-37.25,16.25,-4.75,2b
2019-07-15_124455:640,-0.46670500000000004,-0.031494,-0.168793,-0.002718,0.002055,-0.000267,-36.869999,16.559998999999998,-6.5,2b
2019-07-15_124455:660,-0.467224,-0.031006,-0.166229,-0.002535,0.0019030000000000002,-0.00011499999999999999,-36.869999,16.559998999999998,-6.5,2b
2019-07-15_124455:680,-0.467224,-0.028442000000000002,-0.166748,-0.002443,0.001994,-5.4000000000000005e-05,-37.25,16.559998999999998,-5.56,2b
2019-07-15_124455:700,-0.46875,-0.027435,-0.164703,-0.0025050000000000003,0.001598,-0.000328,-37.25,16.559998999999998,-5.56,2b
2019-07-15_124455:720,-0.46823100000000006,-0.025908999999999998,-0.165741,-0.0028399999999999996,0.001628,-0.000267,-37.25,16.559998999999998,-5.56,2b
2019-07-15_124455:740,-0.46823100000000006,-0.025421,-0.165741,-0.0031149999999999997,0.001537,-5.4000000000000005e-05,-36.869999,15.87,-5.56,2b
2019-07-15_124455:760,-0.46823100000000006,-0.024902,-0.166748,-0.00339,0.0014759999999999999,6.8e-05,-36.869999,15.87,-5.56,2b
2019-07-15_124455:780,-0.46875,-0.024902,-0.165741,-0.003939,0.001415,0.000587,-37.68,17.370001000000002,-5.25,2b
2019-07-15_124455:800,-0.467224,-0.026917,-0.162689,-0.004336,0.001415,0.001045,-37.68,17.370001000000002,-5.25,2b
2019-07-15_124455:820,-0.46469099999999997,-0.026427999999999997,-0.165222,-0.004397,0.00114,0.001381,-37.68,17.370001000000002,-5.25,2b
2019-07-15_124455:840,-0.46469099999999997,-0.028961,-0.167755,-0.004549,0.000621,0.001564,-36.560001,17.370001000000002,-7.18,2b
2019-07-15_124455:860,-0.467224,-0.030487,-0.166748,-0.004488000000000001,0.000285,0.001106,-36.560001,17.370001000000002,-7.18,2b
2019-07-15_124455:880,-0.46670500000000004,-0.030487,-0.168793,-0.004,0.000346,0.000984,-36.869999,17.0,-5.25,2b
2019-07-15_124455:900,-0.46926899999999994,-0.031006,-0.167755,-0.003664,0.000499,0.001045,-36.869999,17.0,-5.25,2b
2019-07-15_124455:920,-0.470276,-0.029968,-0.170319,-0.003237,0.0008039999999999999,0.000831,-36.869999,17.0,-5.25,2b
2019-07-15_124455:940,-0.46875,-0.029968,-0.170807,-0.003054,0.000621,0.000526,-37.25,17.0,-6.5,2b
2019-07-15_124455:960,-0.469757,-0.026917,-0.168274,-0.003054,0.00114,0.001716,-37.25,17.0,-6.5,2b
2019-07-15_124455:980,-0.46875,-0.027954000000000003,-0.171326,-0.003573,0.0016589999999999999,0.002052,-36.869999,17.0,-5.25,2b
2019-07-15_124456:000,-0.46316499999999994,-0.026427999999999997,-0.171326,-0.004152,0.001628,0.001442,-36.869999,17.0,-5.25,2b
2019-07-15_124456:020,-0.46316499999999994,-0.027954000000000003,-0.171844,-0.004793,0.000865,0.001045,-36.869999,17.0,-5.25,2b
2019-07-15_124456:040,-0.46823100000000006,-0.032013,-0.172333,-0.005068,0.00016299999999999998,0.00016,-36.869999,17.370001000000002,-5.56,2b
2019-07-15_124456:060,-0.469757,-0.031494,-0.170319,-0.0048850000000000005,0.000346,0.001045,-36.869999,17.370001000000002,-5.56,2b
2019-07-15_124456:080,-0.471283,-0.034058,-0.170807,-0.004549,0.00114,0.001716,-36.869999,17.370001000000002,-6.5,2b
2019-07-15_124456:100,-0.471283,-0.034058,-0.168793,-0.004091,0.002055,0.001045,-36.869999,17.370001000000002,-6.5,2b
2019-07-15_124456:120,-0.467224,-0.035065,-0.171326,-0.003664,0.002757,0.000831,-36.869999,17.370001000000002,-6.5,2b
2019-07-15_124456:140,-0.46569799999999995,-0.036072,-0.171326,-0.0032979999999999997,0.003032,0.00016,-37.68,17.370001000000002,-5.25,2b
2019-07-15_124456:160,-0.46569799999999995,-0.036072,-0.169281,-0.0029010000000000004,0.0024519999999999998,-0.000176,-37.68,17.370001000000002,-5.25,2b
2019-07-15_124456:180,-0.46670500000000004,-0.034058,-0.1698,-0.002382,0.002177,-0.000267,-36.869999,17.0,-5.56,2b
2019-07-15_124456:200,-0.46670500000000004,-0.032532,-0.167755,-0.002169,0.001994,-0.000328,-36.869999,17.0,-5.56,2b
2019-07-15_124456:220,-0.46823100000000006,-0.032013,-0.168274,-0.002199,0.002055,-0.000512,-36.869999,17.0,-5.56,2b
2019-07-15_124456:240,-0.46926899999999994,-0.028442000000000002,-0.168793,-0.002535,0.002361,-0.000573,-36.18,17.370001000000002,-5.25,2b
2019-07-15_124456:260,-0.466217,-0.027435,-0.169281,-0.002993,0.002513,-0.0008470000000000001,-36.18,17.370001000000002,-5.25,2b
2019-07-15_124456:280,-0.467224,-0.026917,-0.168793,-0.0036950000000000004,0.002513,-0.001,-38.060001,16.559998999999998,-4.75,2b
2019-07-15_124456:300,-0.467224,-0.027435,-0.166229,-0.00403,0.002391,-0.0008470000000000001,-38.060001,16.559998999999998,-4.75,2b
2019-07-15_124456:320,-0.46569799999999995,-0.026427999999999997,-0.166748,-0.004427,0.002361,7.000000000000001e-06,-38.060001,16.559998999999998,-4.75,2b
2019-07-15_124456:340,-0.46469099999999997,-0.028442000000000002,-0.166748,-0.004427,0.002361,-0.000328,-36.869999,17.0,-4.5,2b
2019-07-15_124456:360,-0.46569799999999995,-0.027954000000000003,-0.167755,-0.004152,0.0019030000000000002,-0.000634,-36.869999,17.0,-4.5,2b
2019-07-15_124456:380,-0.465179,-0.030487,-0.167267,-0.0037560000000000002,0.001353,0.00028199999999999997,-36.869999,17.370001000000002,-5.56,2b
2019-07-15_124456:400,-0.46569799999999995,-0.029968,-0.1698,-0.0037560000000000002,0.0009570000000000001,7.000000000000001e-06,-36.869999,17.370001000000002,-5.56,2b
2019-07-15_124456:420,-0.463654,-0.028961,-0.169281,-0.003573,0.000621,0.000343,-36.869999,17.370001000000002,-5.56,2b
2019-07-15_124456:440,-0.462646,-0.030487,-0.168793,-0.003573,0.000285,0.000221,-37.25,17.75,-6.0,2b
2019-07-15_124456:460,-0.465179,-0.030487,-0.167755,-0.0037560000000000002,-5e-05,-5.4000000000000005e-05,-37.25,17.75,-6.0,2b
2019-07-15_124456:480,-0.466217,-0.031006,-0.170319,-0.0036340000000000005,-0.0005690000000000001,-0.000176,-36.869999,16.559998999999998,-6.5,2b
2019-07-15_124456:500,-0.46823100000000006,-0.03302,-0.168274,-0.003512,-0.00063,-0.00023700000000000001,-36.869999,16.559998999999998,-6.5,2b
2019-07-15_124456:520,-0.470276,-0.032013,-0.1698,-0.00339,-0.00063,0.00028199999999999997,-36.869999,16.559998999999998,-6.5,2b
2019-07-15_124456:540,-0.46670500000000004,-0.032532,-0.169281,-0.0028399999999999996,-0.000722,0.0007700000000000001,-37.25,17.370001000000002,-6.0,2b
2019-07-15_124456:560,-0.46569799999999995,-0.032013,-0.169281,-0.002718,-0.0005690000000000001,0.00028199999999999997,-37.25,17.370001000000002,-6.0,2b
2019-07-15_124456:580,-0.46569799999999995,-0.031006,-0.170807,-0.002779,-0.0007830000000000001,-0.000176,-38.060001,17.0,-6.5,2b
2019-07-15_124456:600,-0.46569799999999995,-0.029480000000000003,-0.170319,-0.0028399999999999996,-0.00063,-0.000512,-38.060001,17.0,-6.5,2b
2019-07-15_124456:620,-0.467224,-0.030487,-0.17337,-0.0031149999999999997,-0.0008439999999999999,-0.000786,-38.060001,17.0,-6.5,2b
2019-07-15_124456:640,-0.46670500000000004,-0.029968,-0.172333,-0.003176,-0.000508,-0.0008470000000000001,-36.869999,17.0,-5.25,2b
2019-07-15_124456:660,-0.467224,-0.030487,-0.174377,-0.003054,-0.00011100000000000001,-0.0008470000000000001,-36.869999,17.0,-5.25,2b
2019-07-15_124456:680,-0.467224,-0.029480000000000003,-0.174377,-0.002779,0.000285,-0.000573,-36.869999,17.0,-5.56,2b
2019-07-15_124456:700,-0.466217,-0.026917,-0.17385899999999999,-0.0025960000000000002,0.000346,-0.000389,-36.869999,17.0,-5.56,2b
2019-07-15_124456:720,-0.46670500000000004,-0.027954000000000003,-0.174377,-0.002321,0.00056,-0.000328,-36.869999,17.0,-5.56,2b
2019-07-15_124456:740,-0.46569799999999995,-0.026917,-0.17538499999999999,-0.002535,0.000499,-0.000176,-36.560001,17.0,-6.0,2b
2019-07-15_124456:760,-0.465179,-0.025908999999999998,-0.174896,-0.002779,0.0008039999999999999,7.000000000000001e-06,-36.560001,17.0,-6.0,2b
2019-07-15_124456:780,-0.466217,-0.026427999999999997,-0.17690999999999998,-0.003054,0.001018,-0.000176,-37.25,17.370001000000002,-5.25,2b
2019-07-15_124456:800,-0.46569799999999995,-0.029480000000000003,-0.174896,-0.003512,0.001018,-0.000389,-37.25,17.370001000000002,-5.25,2b
2019-07-15_124456:820,-0.46569799999999995,-0.029480000000000003,-0.174896,-0.0034509999999999996,0.0012619999999999999,7.000000000000001e-06,-37.25,17.370001000000002,-5.25,2b
2019-07-15_124456:840,-0.467224,-0.029480000000000003,-0.17538499999999999,-0.0033280000000000002,0.0014759999999999999,0.00028199999999999997,-37.25,17.370001000000002,-4.75,2b
2019-07-15_124456:860,-0.46823100000000006,-0.029968,-0.176422,-0.00339,0.001598,0.00028199999999999997,-37.25,17.370001000000002,-4.75,2b
2019-07-15_124456:880,-0.467224,-0.029480000000000003,-0.177429,-0.003512,0.002361,6.8e-05,-37.68,17.370001000000002,-6.5,2b
2019-07-15_124456:900,-0.46469099999999997,-0.028961,-0.174377,-0.0036950000000000004,0.0024519999999999998,0.000129,-37.68,17.370001000000002,-6.5,2b
2019-07-15_124456:920,-0.46316499999999994,-0.028961,-0.17538499999999999,-0.0036340000000000005,0.002513,0.000465,-37.68,17.370001000000002,-6.5,2b
2019-07-15_124456:940,-0.462646,-0.027435,-0.174896,-0.0036950000000000004,0.002055,0.000343,-36.560001,17.370001000000002,-6.75,2b
2019-07-15_124456:960,-0.46417200000000003,-0.027954000000000003,-0.172852,-0.0036950000000000004,0.001842,0.00016,-36.560001,17.370001000000002,-6.75,2b
2019-07-15_124456:980,-0.46469099999999997,-0.029968,-0.17385899999999999,-0.003817,0.0019030000000000002,7.000000000000001e-06,-37.25,17.370001000000002,-6.75,2b
2019-07-15_124457:000,-0.46469099999999997,-0.029480000000000003,-0.17385899999999999,-0.0036340000000000005,0.001628,7.000000000000001e-06,-37.25,17.370001000000002,-6.75,2b
2019-07-15_124457:020,-0.46569799999999995,-0.029968,-0.174896,-0.003573,0.00172,0.00016,-37.25,17.370001000000002,-6.75,2b
2019-07-15_124457:040,-0.467224,-0.029968,-0.174377,-0.0033280000000000002,0.0017809999999999998,0.000221,-36.869999,17.370001000000002,-6.75,2b
2019-07-15_124457:060,-0.46875,-0.028961,-0.171326,-0.003237,0.0019030000000000002,0.000648,-36.869999,17.370001000000002,-6.75,2b
2019-07-15_124457:080,-0.467224,-0.028442000000000002,-0.174896,-0.0031149999999999997,0.002361,0.000831,-37.68,17.75,-5.56,2b
2019-07-15_124457:100,-0.465179,-0.028442000000000002,-0.17385899999999999,-0.003573,0.002361,0.000831,-37.68,17.75,-5.56,2b
2019-07-15_124457:120,-0.463654,-0.026427999999999997,-0.170319,-0.003939,0.0023,0.001442,-37.68,17.75,-5.56,2b
2019-07-15_124457:140,-0.46417200000000003,-0.027954000000000003,-0.172333,-0.004397,0.002116,0.001106,-36.869999,17.370001000000002,-6.75,2b
2019-07-15_124457:160,-0.46316499999999994,-0.028961,-0.171844,-0.004671,0.001994,0.000709,-36.869999,17.370001000000002,-6.75,2b
2019-07-15_124457:180,-0.463654,-0.032532,-0.17385899999999999,-0.004488000000000001,0.001537,7.000000000000001e-06,-36.869999,17.0,-6.06,2b
2019-07-15_124457:200,-0.465179,-0.032532,-0.17538499999999999,-0.00403,0.00114,-0.000634,-36.869999,17.0,-6.06,2b
2019-07-15_124457:220,-0.46670500000000004,-0.032532,-0.17385899999999999,-0.003512,0.0009570000000000001,0.000923,-36.869999,17.0,-6.06,2b
2019-07-15_124457:240,-0.46670500000000004,-0.032532,-0.175903,-0.002993,0.0010789999999999999,0.001045,-36.869999,17.0,-6.75,2b
2019-07-15_124457:260,-0.46670500000000004,-0.029968,-0.17385899999999999,-0.002932,0.0019030000000000002,0.000496,-36.869999,17.0,-6.75,2b
2019-07-15_124457:280,-0.46926899999999994,-0.028961,-0.174896,-0.002932,0.002239,0.00016,-36.560001,17.370001000000002,-5.56,2b
2019-07-15_124457:300,-0.466217,-0.027954000000000003,-0.17538499999999999,-0.00339,0.003032,-0.000328,-36.560001,17.370001000000002,-5.56,2b
2019-07-15_124457:320,-0.463654,-0.027435,-0.17337,-0.0036950000000000004,0.002788,-0.000176,-36.560001,17.370001000000002,-5.56,2b
2019-07-15_124457:340,-0.462646,-0.029480000000000003,-0.17337,-0.0034509999999999996,0.002635,0.000129,-36.869999,17.370001000000002,-6.0,2b
2019-07-15_124457:360,-0.46417200000000003,-0.029480000000000003,-0.171844,-0.00339,0.002177,0.000129,-36.869999,17.370001000000002,-6.0,2b
2019-07-15_124457:380,-0.46469099999999997,-0.029968,-0.17385899999999999,-0.0033280000000000002,0.001964,0.00016,-36.560001,17.0,-6.0,2b
2019-07-15_124457:400,-0.46569799999999995,-0.030487,-0.17337,-0.003054,0.00172,-0.00011499999999999999,-36.560001,17.0,-6.0,2b
2019-07-15_124457:420,-0.46569799999999995,-0.030487,-0.172852,-0.002993,0.0019030000000000002,-0.000328,-36.560001,17.0,-6.0,2b
2019-07-15_124457:440,-0.46569799999999995,-0.028442000000000002,-0.17385899999999999,-0.003176,0.001964,-0.00023700000000000001,-36.869999,17.370001000000002,-6.75,2b
2019-07-15_124457:460,-0.466217,-0.028442000000000002,-0.171844,-0.003176,0.002116,-5.4000000000000005e-05,-36.869999,17.370001000000002,-6.75,2b
2019-07-15_124457:480,-0.467224,-0.028442000000000002,-0.171326,-0.0033280000000000002,0.002239,-0.000176,-37.25,17.370001000000002,-6.75,2b
2019-07-15_124457:500,-0.46469099999999997,-0.027435,-0.172333,-0.0032979999999999997,0.002116,0.000343,-37.25,17.370001000000002,-6.75,2b
2019-07-15_124457:520,-0.462646,-0.027954000000000003,-0.17337,-0.003573,0.00172,-5.4000000000000005e-05,-37.25,17.370001000000002,-6.75,2b
2019-07-15_124457:540,-0.46670500000000004,-0.027435,-0.172852,-0.0036340000000000005,0.00114,0.000221,-36.869999,17.370001000000002,-5.56,2b
2019-07-15_124457:560,-0.46875,-0.029480000000000003,-0.171326,-0.003817,0.00114,0.00016,-36.869999,17.370001000000002,-5.56,2b
2019-07-15_124457:580,-0.46926899999999994,-0.028442000000000002,-0.17337,-0.004,0.001628,0.000129,-37.25,16.559998999999998,-6.75,2b
2019-07-15_124457:600,-0.467743,-0.029968,-0.17385899999999999,-0.003939,0.002177,0.00028199999999999997,-37.25,16.559998999999998,-6.75,2b
2019-07-15_124457:620,-0.46569799999999995,-0.029968,-0.172852,-0.0036950000000000004,0.002391,0.00016,-37.25,16.559998999999998,-6.75,2b
2019-07-15_124457:640,-0.46469099999999997,-0.030487,-0.17337,-0.0036340000000000005,0.002361,0.000129,-36.869999,17.0,-6.0,2b
2019-07-15_124457:660,-0.465179,-0.030487,-0.172333,-0.0033280000000000002,0.002239,6.8e-05,-36.869999,17.0,-6.0,2b
2019-07-15_124457:680,-0.467224,-0.029480000000000003,-0.174377,-0.0032979999999999997,0.0023,0.000221,-38.060001,17.0,-6.0,2b
2019-07-15_124457:700,-0.467743,-0.028442000000000002,-0.174377,-0.0031149999999999997,0.002391,0.000404,-38.060001,17.0,-6.0,2b
2019-07-15_124457:720,-0.467224,-0.028961,-0.172852,-0.0033280000000000002,0.0024519999999999998,0.000221,-38.060001,17.0,-6.0,2b
2019-07-15_124457:740,-0.46569799999999995,-0.027435,-0.17385899999999999,-0.00339,0.002788,0.000343,-37.25,16.559998999999998,-5.25,2b
2019-07-15_124457:760,-0.46569799999999995,-0.028961,-0.171326,-0.003817,0.002635,0.000465,-37.25,16.559998999999998,-5.25,2b
2019-07-15_124457:780,-0.463654,-0.028442000000000002,-0.172333,-0.004,0.0023,0.000526,-37.68,17.0,-5.56,2b
2019-07-15_124457:800,-0.465179,-0.028961,-0.171844,-0.004,0.0024519999999999998,0.000465,-37.68,17.0,-5.56,2b
2019-07-15_124457:820,-0.466217,-0.029968,-0.170807,-0.004,0.002696,0.000129,-37.68,17.0,-5.56,2b
2019-07-15_124457:840,-0.46670500000000004,-0.029968,-0.170319,-0.003817,0.002574,-0.000328,-37.68,17.75,-6.5,2b
2019-07-15_124457:860,-0.46469099999999997,-0.031006,-0.169281,-0.003573,0.002361,-0.00023700000000000001,-37.68,17.75,-6.5,2b
2019-07-15_124457:880,-0.46469099999999997,-0.031494,-0.171326,-0.0029010000000000004,0.001842,-0.000512,-36.869999,16.559998999999998,-4.75,2b
2019-07-15_124457:900,-0.462646,-0.029968,-0.170807,-0.002535,0.001628,-0.000328,-36.869999,16.559998999999998,-4.75,2b
2019-07-15_124457:920,-0.466217,-0.027954000000000003,-0.1698,-0.002535,0.001292,-0.000176,-36.869999,16.559998999999998,-4.75,2b
2019-07-15_124457:940,-0.469757,-0.027435,-0.170319,-0.0028399999999999996,0.00172,-0.000176,-37.25,17.370001000000002,-6.0,2b
2019-07-15_124457:960,-0.46875,-0.027435,-0.169281,-0.00339,0.002055,-0.00011499999999999999,-37.25,17.370001000000002,-6.0,2b
2019-07-15_124457:980,-0.46823100000000006,-0.028442000000000002,-0.170807,-0.003817,0.002116,-0.00023700000000000001,-37.25,17.0,-4.75,2b
2019-07-15_124458:000,-0.46569799999999995,-0.028961,-0.172333,-0.003939,0.002177,-0.000328,-37.25,17.0,-4.75,2b
2019-07-15_124458:020,-0.465179,-0.029480000000000003,-0.171326,-0.003664,0.001964,-0.000786,-37.25,17.0,-4.75,2b
2019-07-15_124458:040,-0.46417200000000003,-0.029480000000000003,-0.171844,-0.0036950000000000004,0.001842,-0.000786,-36.869999,16.559998999999998,-5.25,2b
2019-07-15_124458:060,-0.463654,-0.028961,-0.171326,-0.0031149999999999997,0.001415,-0.000512,-36.869999,16.559998999999998,-5.25,2b
2019-07-15_124458:080,-0.466217,-0.028961,-0.170807,-0.003054,0.001292,-0.00023700000000000001,-36.869999,15.87,-5.56,2b
2019-07-15_124458:100,-0.467743,-0.028961,-0.170807,-0.0028399999999999996,0.001353,-0.000634,-36.869999,15.87,-5.56,2b
2019-07-15_124458:120,-0.467224,-0.027954000000000003,-0.170319,-0.0028399999999999996,0.001598,-0.000664,-36.869999,15.87,-5.56,2b
2019-07-15_124458:140,-0.46670500000000004,-0.027954000000000003,-0.171844,-0.002779,0.00172,-0.000908,-36.869999,17.0,-5.56,2b
2019-07-15_124458:160,-0.467224,-0.027435,-0.170319,-0.002932,0.0017809999999999998,-0.000908,-36.869999,17.0,-5.56,2b
2019-07-15_124458:180,-0.46569799999999995,-0.027435,-0.171844,-0.002993,0.0017809999999999998,-0.0008470000000000001,-36.869999,17.0,-5.56,2b
2019-07-15_124458:200,-0.46569799999999995,-0.026917,-0.171326,-0.002779,0.00172,-0.000634,-36.560001,16.25,-4.5,2b
2019-07-15_124458:220,-0.467224,-0.026427999999999997,-0.170807,-0.002993,0.0016589999999999999,-0.000725,-36.560001,16.25,-4.5,2b
2019-07-15_124458:240,-0.467743,-0.026917,-0.171844,-0.002993,0.001628,-0.0008470000000000001,-37.25,17.0,-6.0,2b
2019-07-15_124458:260,-0.467224,-0.027954000000000003,-0.170807,-0.0031149999999999997,0.002239,-0.001,-37.25,17.0,-6.0,2b
2019-07-15_124458:280,-0.467224,-0.028442000000000002,-0.172852,-0.003054,0.002177,-0.0012439999999999999,-37.25,17.0,-6.0,2b
2019-07-15_124458:300,-0.46469099999999997,-0.027435,-0.172852,-0.0029010000000000004,0.002239,-0.0011220000000000002,-37.25,16.559998999999998,-7.18,2b
2019-07-15_124458:320,-0.46469099999999997,-0.028442000000000002,-0.171844,-0.0029010000000000004,0.002177,-0.0011220000000000002,-37.25,16.559998999999998,-7.18,2b
2019-07-15_124458:340,-0.46469099999999997,-0.027954000000000003,-0.171844,-0.0025960000000000002,0.0016589999999999999,-0.00158,-36.560001,17.0,-6.5,2b
2019-07-15_124458:360,-0.465179,-0.027435,-0.170807,-0.002321,0.001415,-0.002037,-36.560001,17.0,-6.5,2b
2019-07-15_124458:380,-0.46875,-0.025421,-0.168274,-0.002321,0.0014759999999999999,-0.0010609999999999999,-36.560001,17.0,-6.5,2b
2019-07-15_124458:400,-0.469757,-0.024902,-0.1698,-0.002382,0.001842,-0.00011499999999999999,-37.25,15.87,-6.5,2b
2019-07-15_124458:420,-0.467224,-0.022858,-0.1698,-0.002932,0.001964,-0.0009689999999999999,-37.25,15.87,-6.5,2b
2019-07-15_124458:440,-0.46569799999999995,-0.022369,-0.170807,-0.0032979999999999997,0.001598,-0.001397,-36.869999,16.559998999999998,-5.25,2b
2019-07-15_124458:460,-0.46670500000000004,-0.025421,-0.168793,-0.00339,0.0009570000000000001,-0.002098,-36.869999,16.559998999999998,-5.25,2b
2019-07-15_124458:480,-0.46875,-0.025421,-0.171844,-0.003054,0.000682,-0.0011220000000000002,-36.869999,16.559998999999998,-5.56,2b
2019-07-15_124458:500,-0.46875,-0.025421,-0.172333,-0.002657,0.000865,0.000343,-36.869999,16.559998999999998,-5.56,2b
2019-07-15_124458:520,-0.46823100000000006,-0.022858,-0.172333,-0.002382,0.001628,0.00016,-36.869999,16.559998999999998,-5.56,2b
2019-07-15_124458:540,-0.467743,-0.021851,-0.172333,-0.002535,0.002055,-5.4000000000000005e-05,-38.060001,16.559998999999998,-5.56,2b
2019-07-15_124458:560,-0.46569799999999995,-0.021851,-0.170319,-0.003054,0.002361,-0.000267,-38.060001,16.559998999999998,-5.56,2b
2019-07-15_124458:580,-0.46569799999999995,-0.022369,-0.172333,-0.003664,0.002391,-0.000389,-38.060001,16.559998999999998,-5.56,2b
2019-07-15_124458:600,-0.465179,-0.022858,-0.170319,-0.003878,0.002177,-0.000328,-36.869999,16.559998999999998,-6.06,2b
2019-07-15_124458:620,-0.46670500000000004,-0.024384,-0.170807,-0.004091,0.001964,-0.00011499999999999999,-36.869999,16.559998999999998,-6.06,2b
2019-07-15_124458:640,-0.467743,-0.024384,-0.171844,-0.003878,0.001842,7.000000000000001e-06,-36.869999,17.0,-5.25,2b
2019-07-15_124458:660,-0.467743,-0.024902,-0.170319,-0.003512,0.001842,-0.000267,-36.869999,17.0,-5.25,2b
2019-07-15_124458:680,-0.467743,-0.022858,-0.171326,-0.0031149999999999997,0.00172,0.00016,-37.68,17.370001000000002,-4.75,2b
2019-07-15_124458:700,-0.467224,-0.022858,-0.171844,-0.002932,0.0017809999999999998,0.000526,-37.68,17.370001000000002,-4.75,2b
2019-07-15_124458:720,-0.46823100000000006,-0.022858,-0.1698,-0.0031149999999999997,0.002177,0.000587,-37.68,17.370001000000002,-4.75,2b
2019-07-15_124458:740,-0.46875,-0.022369,-0.171326,-0.003512,0.002361,0.000709,-37.68,15.87,-5.56,2b
2019-07-15_124458:760,-0.46569799999999995,-0.021851,-0.171844,-0.003878,0.0024519999999999998,0.001045,-37.68,15.87,-5.56,2b
2019-07-15_124458:780,-0.46316499999999994,-0.023375999999999997,-0.167755,-0.004793,0.002788,0.000984,-37.68,15.87,-5.56,2b
2019-07-15_124458:800,-0.465179,-0.024902,-0.167267,-0.004397,0.002055,0.001167,-37.68,16.559998999999998,-5.56,2b
2019-07-15_124458:820,-0.46823100000000006,-0.025421,-0.1698,-0.004275,0.001415,0.000984,-37.68,16.559998999999998,-5.56,2b
2019-07-15_124458:840,-0.467743,-0.026427999999999997,-0.170807,-0.004,0.001292,0.0007700000000000001,-36.869999,16.559998999999998,-6.5,2b
2019-07-15_124458:860,-0.467224,-0.026917,-0.169281,-0.0037560000000000002,0.0014759999999999999,0.000587,-36.869999,16.559998999999998,-6.5,2b
2019-07-15_124458:880,-0.466217,-0.027435,-0.171844,-0.003573,0.001415,0.000496,-36.18,17.0,-4.75,2b
2019-07-15_124458:900,-0.46569799999999995,-0.027435,-0.170807,-0.003176,0.0014759999999999999,0.000129,-36.18,17.0,-4.75,2b
2019-07-15_124458:920,-0.46670500000000004,-0.025421,-0.170807,-0.002718,0.001598,0.000343,-36.18,17.0,-4.75,2b
2019-07-15_124458:940,-0.467224,-0.023375999999999997,-0.172333,-0.002535,0.001353,0.0007700000000000001,-38.060001,16.559998999999998,-5.56,2b
2019-07-15_124458:960,-0.469757,-0.023895,-0.1698,-0.0025960000000000002,0.0012619999999999999,0.0008619999999999999,-38.060001,16.559998999999998,-5.56,2b
2019-07-15_124458:980,-0.46875,-0.023375999999999997,-0.171326,-0.003176,0.001537,0.000709,-38.060001,16.559998999999998,-5.56,2b
2019-07-15_124459:000,-0.46670500000000004,-0.024384,-0.170807,-0.003573,0.0017809999999999998,0.000709,-37.68,16.25,-5.25,2b
2019-07-15_124459:020,-0.46569799999999995,-0.025908999999999998,-0.1698,-0.003939,0.0016589999999999999,0.000496,-37.68,16.25,-5.25,2b
2019-07-15_124459:040,-0.46670500000000004,-0.025908999999999998,-0.170319,-0.004091,0.001628,0.000496,-36.869999,17.370001000000002,-4.06,2b
2019-07-15_124459:060,-0.46670500000000004,-0.027435,-0.169281,-0.003939,0.001598,0.000496,-36.869999,17.370001000000002,-4.06,2b
2019-07-15_124459:080,-0.467224,-0.026917,-0.171326,-0.0037560000000000002,0.001628,0.000496,-36.869999,17.370001000000002,-4.06,2b
2019-07-15_124459:100,-0.467224,-0.027954000000000003,-0.172852,-0.0034509999999999996,0.001537,0.000496,-37.68,15.87,-5.25,2b
2019-07-15_124459:120,-0.46926899999999994,-0.026427999999999997,-0.171844,-0.0032979999999999997,0.0014759999999999999,0.000343,-37.68,15.87,-5.25,2b
2019-07-15_124459:140,-0.46875,-0.027435,-0.171844,-0.003054,0.0019030000000000002,0.000129,-35.75,16.559998999999998,-6.75,2b
2019-07-15_124459:160,-0.46569799999999995,-0.026427999999999997,-0.1698,-0.002932,0.0023,-0.000328,-35.75,16.559998999999998,-6.75,2b
2019-07-15_124459:180,-0.46469099999999997,-0.025908999999999998,-0.171844,-0.002779,0.0017809999999999998,-0.000512,-35.75,16.559998999999998,-6.75,2b
2019-07-15_124459:200,-0.46670500000000004,-0.025908999999999998,-0.171326,-0.002535,0.001598,-0.000328,-38.060001,16.25,-6.5,2b
2019-07-15_124459:220,-0.46670500000000004,-0.025421,-0.170319,-0.002535,0.001292,-0.000328,-38.060001,16.25,-6.5,2b
2019-07-15_124459:240,-0.469757,-0.024384,-0.171326,-0.002657,0.001628,-0.000267,-37.68,17.75,-5.56,2b
2019-07-15_124459:260,-0.470276,-0.022369,-0.170319,-0.002657,0.002177,-5.4000000000000005e-05,-37.68,17.75,-5.56,2b
2019-07-15_124459:280,-0.46823100000000006,-0.023375999999999997,-0.1698,-0.002993,0.002391,6.8e-05,-37.68,17.75,-5.56,2b
2019-07-15_124459:300,-0.46569799999999995,-0.022858,-0.169281,-0.0033280000000000002,0.002239,6.8e-05,-36.869999,17.370001000000002,-6.0,2b
2019-07-15_124459:320,-0.46569799999999995,-0.024384,-0.1698,-0.0036340000000000005,0.001842,0.000465,-36.869999,17.370001000000002,-6.0,2b
2019-07-15_124459:340,-0.465179,-0.024902,-0.168274,-0.0036950000000000004,0.0016589999999999999,0.000648,-37.68,17.0,-6.5,2b
2019-07-15_124459:360,-0.465179,-0.027435,-0.168274,-0.003512,0.0014759999999999999,0.000587,-37.68,17.0,-6.5,2b
2019-07-15_124459:380,-0.463654,-0.026917,-0.168793,-0.003054,0.0008960000000000001,0.000587,-37.68,17.0,-6.5,2b
2019-07-15_124459:400,-0.46417200000000003,-0.026427999999999997,-0.170319,-0.0028399999999999996,0.000499,0.00028199999999999997,-37.25,16.559998999999998,-4.75,2b
2019-07-15_124459:420,-0.466217,-0.025908999999999998,-0.1698,-0.002443,0.00016299999999999998,0.000343,-37.25,16.559998999999998,-4.75,2b
2019-07-15_124459:440,-0.46823100000000006,-0.024384,-0.171326,-0.002382,0.000133,0.000465,-37.25,16.25,-4.75,2b
2019-07-15_124459:460,-0.467743,-0.026427999999999997,-0.170319,-0.002443,0.000346,0.000343,-37.25,16.25,-4.75,2b
2019-07-15_124459:480,-0.46469099999999997,-0.026427999999999997,-0.170807,-0.002657,0.000682,0.00016,-37.25,16.25,-4.75,2b
2019-07-15_124459:500,-0.462646,-0.028961,-0.17385899999999999,-0.002535,0.00022400000000000002,-0.000176,-37.25,17.75,-5.25,2b
2019-07-15_124459:520,-0.46670500000000004,-0.029968,-0.174377,-0.001986,7.2e-05,-0.0010609999999999999,-37.25,17.75,-5.25,2b
2019-07-15_124459:540,-0.46926899999999994,-0.028961,-0.174377,-0.0015279999999999998,-0.000172,-0.001702,-36.560001,17.0,-4.87,2b
2019-07-15_124459:560,-0.46823100000000006,-0.027435,-0.17337,-0.001192,0.000407,-0.001183,-36.560001,17.0,-4.87,2b
2019-07-15_124459:580,-0.469757,-0.023895,-0.17337,-0.001192,0.001201,-0.000908,-36.560001,17.0,-4.87,2b
2019-07-15_124459:600,-0.46823100000000006,-0.021332,-0.171844,-0.0017109999999999998,0.001415,-0.000786,-36.560001,17.0,-6.06,2b
2019-07-15_124459:620,-0.46670500000000004,-0.021332,-0.1698,-0.002382,0.002055,0.000526,-36.560001,17.0,-6.06,2b
2019-07-15_124459:640,-0.46569799999999995,-0.021851,-0.1698,-0.003573,0.002116,0.00028199999999999997,-38.060001,16.559998999999998,-6.06,2b
2019-07-15_124459:660,-0.465179,-0.022369,-0.1698,-0.00461,0.002055,0.000343,-38.060001,16.559998999999998,-6.06,2b
2019-07-15_124459:680,-0.467224,-0.026427999999999997,-0.171844,-0.005129,0.0016589999999999999,0.000404,-38.060001,16.559998999999998,-6.06,2b
2019-07-15_124459:700,-0.46926899999999994,-0.027954000000000003,-0.172333,-0.005221,0.001292,0.000343,-37.25,17.370001000000002,-5.25,2b
2019-07-15_124459:720,-0.467224,-0.028961,-0.172333,-0.004549,0.001537,0.001442,-37.25,17.370001000000002,-5.25,2b
2019-07-15_124459:740,-0.467224,-0.028442000000000002,-0.17337,-0.003817,0.002055,0.001503,-37.68,16.25,-5.56,2b
2019-07-15_124459:760,-0.46569799999999995,-0.027435,-0.172852,-0.0034509999999999996,0.002391,0.000709,-37.68,16.25,-5.56,2b
2019-07-15_124459:780,-0.46469099999999997,-0.026917,-0.171844,-0.0033280000000000002,0.002513,0.000496,-37.68,16.25,-5.56,2b
2019-07-15_124459:800,-0.463654,-0.026917,-0.172852,-0.0034509999999999996,0.002513,0.000404,-37.68,16.559998999999998,-5.25,2b
2019-07-15_124459:820,-0.463654,-0.026427999999999997,-0.171844,-0.003878,0.002177,-0.000176,-37.68,16.559998999999998,-5.25,2b
2019-07-15_124459:840,-0.46469099999999997,-0.026917,-0.172852,-0.0036340000000000005,0.0017809999999999998,-0.000389,-37.25,16.559998999999998,-5.56,2b
2019-07-15_124459:860,-0.46875,-0.023375999999999997,-0.171844,-0.003817,0.001598,-0.000512,-37.25,16.559998999999998,-5.56,2b
2019-07-15_124459:880,-0.46926899999999994,-0.023375999999999997,-0.171326,-0.0036950000000000004,0.001628,-0.000389,-37.25,16.559998999999998,-5.56,2b
2019-07-15_124459:900,-0.469757,-0.023895,-0.170807,-0.004152,0.002239,0.000343,-38.369999,17.0,-5.56,2b
2019-07-15_124459:920,-0.46670500000000004,-0.024902,-0.172333,-0.004427,0.002574,0.00028199999999999997,-38.369999,17.0,-5.56,2b
2019-07-15_124459:940,-0.467224,-0.021851,-0.169281,-0.004549,0.002696,7.000000000000001e-06,-37.68,16.559998999999998,-6.5,2b
2019-07-15_124459:960,-0.467743,-0.023895,-0.168793,-0.004549,0.002513,0.000343,-37.68,16.559998999999998,-6.5,2b
2019-07-15_124459:980,-0.46417200000000003,-0.022858,-0.170319,-0.0048850000000000005,0.002635,0.001106,-37.68,16.559998999999998,-6.5,2b
2019-07-15_124500:000,-0.461121,-0.025421,-0.171326,-0.005068,0.002361,0.001442,-36.869999,16.25,-6.5,2b
2019-07-15_124500:020,-0.46417200000000003,-0.025908999999999998,-0.172333,-0.0051600000000000005,0.001842,0.000923,-36.869999,16.25,-6.5,2b
2019-07-15_124500:040,-0.46569799999999995,-0.027954000000000003,-0.172333,-0.004793,0.001292,0.001228,-37.68,17.0,-4.75,2b
2019-07-15_124500:060,-0.47079499999999996,-0.027954000000000003,-0.172333,-0.00461,0.0012619999999999999,0.000648,-37.68,17.0,-4.75,2b
2019-07-15_124500:080,-0.471283,-0.026427999999999997,-0.17337,-0.004336,0.0017809999999999998,0.0008619999999999999,-37.68,17.0,-4.75,2b
2019-07-15_124500:100,-0.467224,-0.025908999999999998,-0.171844,-0.004336,0.002574,0.001167,-37.68,16.559998999999998,-6.06,2b
2019-07-15_124500:120,-0.46569799999999995,-0.025421,-0.171326,-0.004336,0.003093,0.0008619999999999999,-37.68,16.559998999999998,-6.06,2b
2019-07-15_124500:140,-0.46469099999999997,-0.026427999999999997,-0.171326,-0.004397,0.002849,0.000526,-37.25,16.25,-6.0,2b
2019-07-15_124500:160,-0.46569799999999995,-0.024902,-0.171326,-0.004397,0.002574,0.000587,-37.25,16.25,-6.0,2b
2019-07-15_124500:180,-0.467743,-0.025908999999999998,-0.170319,-0.004427,0.002239,0.001106,-37.25,16.25,-6.0,2b
2019-07-15_124500:200,-0.46823100000000006,-0.026427999999999997,-0.170319,-0.004488000000000001,0.001964,0.001564,-37.25,16.559998999999998,-5.25,2b
2019-07-15_124500:220,-0.46875,-0.027954000000000003,-0.169281,-0.004488000000000001,0.002055,0.001258,-37.25,16.559998999999998,-5.25,2b
2019-07-15_124500:240,-0.47079499999999996,-0.028442000000000002,-0.170319,-0.004488000000000001,0.002635,0.000984,-37.68,16.25,-5.25,2b
2019-07-15_124500:260,-0.466217,-0.028961,-0.168793,-0.004336,0.002849,0.0008619999999999999,-37.68,16.25,-5.25,2b
2019-07-15_124500:280,-0.46469099999999997,-0.027954000000000003,-0.169281,-0.003817,0.003246,0.000587,-37.68,16.25,-5.25,2b
2019-07-15_124500:300,-0.46316499999999994,-0.027435,-0.170319,-0.003573,0.002757,0.000465,-37.68,16.559998999999998,-6.5,2b
2019-07-15_124500:320,-0.46469099999999997,-0.026917,-0.167755,-0.0033280000000000002,0.002391,0.000648,-37.68,16.559998999999998,-6.5,2b
2019-07-15_124500:340,-0.466217,-0.025908999999999998,-0.168793,-0.003237,0.002116,0.00028199999999999997,-37.68,17.0,-5.25,2b
2019-07-15_124500:360,-0.46670500000000004,-0.024902,-0.166748,-0.0033280000000000002,0.001842,0.000129,-37.68,17.0,-5.25,2b
2019-07-15_124500:380,-0.46469099999999997,-0.025421,-0.168274,-0.0034509999999999996,0.0016589999999999999,0.00016,-37.68,17.0,-5.25,2b
2019-07-15_124500:400,-0.46417200000000003,-0.026427999999999997,-0.169281,-0.003573,0.001537,-0.00011499999999999999,-38.060001,16.559998999999998,-5.56,2b
2019-07-15_124500:420,-0.466217,-0.028961,-0.168793,-0.0036340000000000005,0.00114,7.000000000000001e-06,-38.060001,16.559998999999998,-5.56,2b
2019-07-15_124500:440,-0.467743,-0.027954000000000003,-0.1698,-0.003176,0.0009570000000000001,-0.00011499999999999999,-37.68,16.559998999999998,-6.0,2b
2019-07-15_124500:460,-0.46823100000000006,-0.028961,-0.169281,-0.0029010000000000004,0.00114,-0.00023700000000000001,-37.68,16.559998999999998,-6.0,2b
2019-07-15_124500:480,-0.46569799999999995,-0.027954000000000003,-0.169281,-0.002382,0.001201,-0.00045099999999999996,-37.68,16.559998999999998,-6.0,2b
2019-07-15_124500:500,-0.46875,-0.026427999999999997,-0.168793,-0.001986,0.001018,-0.000573,-38.060001,16.559998999999998,-5.56,2b
2019-07-15_124500:520,-0.46823100000000006,-0.024902,-0.169281,-0.002382,0.001201,-0.000573,-38.060001,16.559998999999998,-5.56,2b
2019-07-15_124500:540,-0.46670500000000004,-0.025421,-0.169281,-0.002535,0.001598,-0.00023700000000000001,-38.060001,17.0,-5.25,2b
2019-07-15_124500:560,-0.467224,-0.024384,-0.168793,-0.0032979999999999997,0.0014759999999999999,-5.4000000000000005e-05,-38.060001,17.0,-5.25,2b
2019-07-15_124500:580,-0.467224,-0.026917,-0.171844,-0.0034509999999999996,0.001598,7.000000000000001e-06,-38.060001,17.0,-5.25,2b
2019-07-15_124500:600,-0.46569799999999995,-0.027954000000000003,-0.171326,-0.0036950000000000004,0.001598,-0.000389,-37.25,17.0,-5.56,2b
2019-07-15_124500:620,-0.467224,-0.027435,-0.171844,-0.003664,0.0012619999999999999,-0.000664,-37.25,17.0,-5.56,2b
2019-07-15_124500:640,-0.46670500000000004,-0.027954000000000003,-0.172333,-0.0032979999999999997,0.001292,-0.000328,-37.68,17.370001000000002,-6.75,2b
2019-07-15_124500:660,-0.467224,-0.027435,-0.170319,-0.002993,0.001598,-0.00045099999999999996,-37.68,17.370001000000002,-6.75,2b
2019-07-15_124500:680,-0.467224,-0.025908999999999998,-0.171326,-0.002779,0.0019030000000000002,-0.000389,-37.68,17.370001000000002,-6.75,2b
2019-07-15_124500:700,-0.46569799999999995,-0.024902,-0.170319,-0.002535,0.002116,-0.000512,-38.060001,16.559998999999998,-6.5,2b
2019-07-15_124500:720,-0.467224,-0.026917,-0.170807,-0.0025960000000000002,0.001994,-0.000573,-38.060001,16.559998999999998,-6.5,2b
2019-07-15_124500:740,-0.467224,-0.025908999999999998,-0.172333,-0.0025960000000000002,0.001964,-0.000664,-37.25,17.0,-6.75,2b
2019-07-15_124500:760,-0.465179,-0.024384,-0.169281,-0.002382,0.0019030000000000002,-0.000725,-37.25,17.0,-6.75,2b
2019-07-15_124500:780,-0.467743,-0.022858,-0.170807,-0.0020469999999999998,0.0017809999999999998,-0.000725,-37.25,17.0,-6.75,2b
2019-07-15_124500:800,-0.46823100000000006,-0.019806,-0.170319,-0.002321,0.00172,-0.000634,-37.68,16.559998999999998,-5.56,2b
2019-07-15_124500:820,-0.470276,-0.021851,-0.170319,-0.002718,0.002055,-0.00011499999999999999,-37.68,16.559998999999998,-5.56,2b
2019-07-15_124500:840,-0.46875,-0.021851,-0.1698,-0.0031149999999999997,0.002513,0.000343,-36.869999,15.87,-5.25,2b
2019-07-15_124500:860,-0.467743,-0.022858,-0.168793,-0.003573,0.002788,0.000221,-36.869999,15.87,-5.25,2b
2019-07-15_124500:880,-0.46670500000000004,-0.022858,-0.166229,-0.004091,0.002757,0.000465,-36.869999,15.87,-5.25,2b
2019-07-15_124500:900,-0.46469099999999997,-0.024384,-0.167267,-0.004732,0.003093,0.001655,-36.869999,16.559998999999998,-5.56,2b
2019-07-15_124500:920,-0.465179,-0.025421,-0.167267,-0.005068,0.0024519999999999998,0.001228,-36.869999,16.559998999999998,-5.56,2b
2019-07-15_124500:940,-0.466217,-0.029480000000000003,-0.168793,-0.004793,0.001598,0.000526,-37.25,16.25,-5.56,2b
2019-07-15_124500:960,-0.467743,-0.029480000000000003,-0.1698,-0.004213000000000001,0.00114,-0.000328,-37.25,16.25,-5.56,2b
2019-07-15_124500:980,-0.46823100000000006,-0.027435,-0.169281,-0.00339,0.001018,-5.4000000000000005e-05,-37.25,16.25,-5.56,2b
2019-07-15_124501:000,-0.46926899999999994,-0.025421,-0.168793,-0.0031149999999999997,0.001201,0.001228,-37.68,17.370001000000002,-4.75,2b
2019-07-15_124501:020,-0.46875,-0.021851,-0.167755,-0.003512,0.001628,0.001838,-37.68,17.370001000000002,-4.75,2b
2019-07-15_124501:040,-0.466217,-0.021332,-0.168793,-0.004397,0.0019030000000000002,0.001838,-37.25,16.559998999999998,-6.0,2b
2019-07-15_124501:060,-0.46823100000000006,-0.021851,-0.168274,-0.005404,0.00172,0.001442,-37.25,16.559998999999998,-6.0,2b
2019-07-15_124501:080,-0.465179,-0.023375999999999997,-0.168274,-0.006136,0.0017809999999999998,0.000923,-37.25,16.559998999999998,-6.0,2b
2019-07-15_124501:100,-0.467224,-0.026917,-0.168274,-0.006319,0.00172,0.001045,-36.869999,17.0,-4.5,2b
2019-07-15_124501:120,-0.46823100000000006,-0.027954000000000003,-0.166748,-0.005922,0.001537,0.001228,-36.869999,17.0,-4.5,2b
2019-07-15_124501:140,-0.467224,-0.029968,-0.167267,-0.005129,0.001415,0.000984,-36.869999,16.559998999999998,-4.75,2b
2019-07-15_124501:160,-0.46670500000000004,-0.029480000000000003,-0.167755,-0.004427,0.0012619999999999999,0.000831,-36.869999,16.559998999999998,-4.75,2b
2019-07-15_124501:180,-0.466217,-0.027435,-0.171326,-0.0036950000000000004,0.0014759999999999999,0.001228,-36.869999,16.559998999999998,-4.75,2b
2019-07-15_124501:200,-0.466217,-0.027954000000000003,-0.170807,-0.003573,0.001201,0.001045,-37.25,17.0,-4.75,2b
2019-07-15_124501:220,-0.470276,-0.027435,-0.171326,-0.0036950000000000004,0.0012619999999999999,0.000923,-37.25,17.0,-4.75,2b
2019-07-15_124501:240,-0.470276,-0.026917,-0.170807,-0.003939,0.00172,0.0007700000000000001,-38.060001,16.25,-6.06,2b
2019-07-15_124501:260,-0.465179,-0.027435,-0.168274,-0.004091,0.002361,0.000831,-38.060001,16.25,-6.06,2b
2019-07-15_124501:280,-0.46469099999999997,-0.028442000000000002,-0.171844,-0.004152,0.002513,0.000404,-38.060001,16.25,-6.06,2b
2019-07-15_124501:300,-0.46823100000000006,-0.027954000000000003,-0.170319,-0.004336,0.001964,0.000465,-38.060001,16.559998999999998,-5.56,2b
2019-07-15_124501:320,-0.471283,-0.029480000000000003,-0.1698,-0.004427,0.001994,0.000923,-38.060001,16.559998999999998,-5.56,2b
2019-07-15_124501:340,-0.47079499999999996,-0.029968,-0.168793,-0.00403,0.0023,0.000587,-37.68,17.0,-5.56,2b
2019-07-15_124501:360,-0.467224,-0.028961,-0.169281,-0.0036340000000000005,0.002574,0.00016,-37.68,17.0,-5.56,2b
2019-07-15_124501:380,-0.46469099999999997,-0.029480000000000003,-0.170319,-0.0032979999999999997,0.002696,-0.00023700000000000001,-37.68,17.0,-5.56,2b
2019-07-15_124501:400,-0.46569799999999995,-0.026917,-0.167755,-0.003176,0.0024519999999999998,-0.000634,-37.68,16.559998999999998,-4.75,2b
2019-07-15_124501:420,-0.46670500000000004,-0.026917,-0.168274,-0.003176,0.002177,-0.00023700000000000001,-37.68,16.559998999999998,-4.75,2b
2019-07-15_124501:440,-0.46823100000000006,-0.027435,-0.166229,-0.0029010000000000004,0.002177,-0.000267,-36.869999,17.0,-5.56,2b
2019-07-15_124501:460,-0.47079499999999996,-0.025421,-0.166229,-0.002932,0.002239,-0.000573,-36.869999,17.0,-5.56,2b
2019-07-15_124501:480,-0.46926899999999994,-0.026917,-0.167755,-0.0031149999999999997,0.002391,-0.00011499999999999999,-36.869999,17.0,-5.56,2b
2019-07-15_124501:500,-0.46926899999999994,-0.026427999999999997,-0.169281,-0.0032979999999999997,0.002116,6.8e-05,-37.68,17.370001000000002,-5.25,2b
2019-07-15_124501:520,-0.467224,-0.026917,-0.167755,-0.0032979999999999997,0.002239,0.00016,-37.68,17.370001000000002,-5.25,2b
2019-07-15_124501:540,-0.466217,-0.026917,-0.168793,-0.0032979999999999997,0.002116,6.8e-05,-37.68,17.0,-5.25,2b
2019-07-15_124501:560,-0.46469099999999997,-0.027435,-0.165741,-0.002932,0.001994,-5.4000000000000005e-05,-37.68,17.0,-5.25,2b
2019-07-15_124501:580,-0.46417200000000003,-0.027435,-0.166748,-0.0028399999999999996,0.001842,-0.000664,-37.68,17.0,-5.25,2b
2019-07-15_124501:600,-0.466217,-0.024902,-0.167755,-0.002443,0.001598,-0.000512,-36.869999,16.25,-5.25,2b
2019-07-15_124501:620,-0.467743,-0.024384,-0.168793,-0.0025960000000000002,0.001353,-0.00011499999999999999,-36.869999,16.25,-5.25,2b
2019-07-15_124501:640,-0.470276,-0.024384,-0.168274,-0.002657,0.001353,-0.00023700000000000001,-37.25,17.370001000000002,-6.0,2b
2019-07-15_124501:660,-0.469757,-0.023895,-0.167267,-0.0028399999999999996,0.0012619999999999999,7.000000000000001e-06,-37.25,17.370001000000002,-6.0,2b
2019-07-15_124501:680,-0.469757,-0.025421,-0.168274,-0.003176,0.001415,0.000587,-37.25,17.370001000000002,-6.0,2b
2019-07-15_124501:700,-0.46875,-0.025908999999999998,-0.168793,-0.003237,0.001537,0.00028199999999999997,-36.560001,17.0,-5.25,2b
2019-07-15_124501:720,-0.46926899999999994,-0.026427999999999997,-0.1698,-0.003237,0.001537,-0.00011499999999999999,-36.560001,17.0,-5.25,2b
2019-07-15_124501:740,-0.467224,-0.027435,-0.168274,-0.003176,0.001628,7.000000000000001e-06,-36.869999,17.370001000000002,-6.06,2b
2019-07-15_124501:760,-0.466217,-0.026917,-0.165222,-0.0031149999999999997,0.00172,-0.00011499999999999999,-36.869999,17.370001000000002,-6.06,2b
2019-07-15_124501:780,-0.46569799999999995,-0.026427999999999997,-0.168793,-0.0028399999999999996,0.0014759999999999999,0.00028199999999999997,-36.869999,17.370001000000002,-6.06,2b
2019-07-15_124501:800,-0.467743,-0.026427999999999997,-0.166748,-0.002657,0.001415,0.000496,-38.369999,16.559998999999998,-4.75,2b
2019-07-15_124501:820,-0.469757,-0.025908999999999998,-0.167267,-0.0025960000000000002,0.001292,6.8e-05,-38.369999,16.559998999999998,-4.75,2b
2019-07-15_124501:840,-0.466217,-0.024902,-0.167755,-0.0028399999999999996,0.0016589999999999999,-0.000176,-37.25,16.559998999999998,-5.56,2b
2019-07-15_124501:860,-0.46569799999999995,-0.024384,-0.165741,-0.0029010000000000004,0.001292,-0.000176,-37.25,16.559998999999998,-5.56,2b
2019-07-15_124501:880,-0.466217,-0.022858,-0.167755,-0.003237,0.001018,0.000221,-37.25,16.559998999999998,-5.56,2b
2019-07-15_124501:900,-0.467743,-0.023895,-0.167755,-0.003512,0.0009570000000000001,0.000221,-38.060001,16.559998999999998,-4.5,2b
2019-07-15_124501:920,-0.470276,-0.023375999999999997,-0.168793,-0.003664,0.000743,0.000221,-38.060001,16.559998999999998,-4.5,2b
2019-07-15_124501:940,-0.46926899999999994,-0.024902,-0.168793,-0.003939,0.001292,0.000221,-37.68,17.370001000000002,-5.25,2b
2019-07-15_124501:960,-0.467743,-0.025421,-0.168793,-0.004,0.0014759999999999999,0.000129,-37.68,17.370001000000002,-5.25,2b
2019-07-15_124501:980,-0.469757,-0.025908999999999998,-0.168793,-0.003817,0.0014759999999999999,0.00028199999999999997,-37.68,17.370001000000002,-5.25,2b
2019-07-15_124502:000,-0.467743,-0.026917,-0.169281,-0.0037560000000000002,0.001598,0.000404,-36.869999,17.370001000000002,-5.56,2b
2019-07-15_124502:020,-0.46569799999999995,-0.026427999999999997,-0.170319,-0.003573,0.001537,0.000404,-36.869999,17.370001000000002,-5.56,2b
2019-07-15_124502:040,-0.46469099999999997,-0.026917,-0.1698,-0.0032979999999999997,0.0012619999999999999,0.00028199999999999997,-38.060001,17.0,-5.56,2b
2019-07-15_124502:060,-0.46569799999999995,-0.027954000000000003,-0.170319,-0.002993,0.0010789999999999999,-5.4000000000000005e-05,-38.060001,17.0,-5.56,2b
2019-07-15_124502:080,-0.46926899999999994,-0.027435,-0.170319,-0.002657,0.000865,0.000129,-38.060001,17.0,-5.56,2b
2019-07-15_124502:100,-0.470276,-0.024902,-0.172852,-0.002443,0.0009570000000000001,0.000404,-37.68,16.559998999999998,-4.75,2b
2019-07-15_124502:120,-0.46875,-0.024384,-0.170807,-0.0025050000000000003,0.001353,0.000129,-37.68,16.559998999999998,-4.75,2b
2019-07-15_124502:140,-0.46875,-0.023895,-0.169281,-0.0028399999999999996,0.001628,-0.00045099999999999996,-38.060001,16.559998999999998,-5.56,2b
2019-07-15_124502:160,-0.46875,-0.020844,-0.168274,-0.002993,0.002116,0.0007700000000000001,-38.060001,16.559998999999998,-5.56,2b
2019-07-15_124502:180,-0.467743,-0.024384,-0.167267,-0.003512,0.002361,0.000709,-38.060001,16.559998999999998,-5.56,2b
2019-07-15_124502:200,-0.46823100000000006,-0.021851,-0.168793,-0.004275,0.001994,0.00028199999999999997,-38.060001,16.25,-6.5,2b
2019-07-15_124502:220,-0.467224,-0.024384,-0.167267,-0.004671,0.0017809999999999998,-5.4000000000000005e-05,-38.060001,16.25,-6.5,2b
2019-07-15_124502:240,-0.467224,-0.025908999999999998,-0.169281,-0.004946,0.0014759999999999999,-0.00023700000000000001,-38.060001,16.559998999999998,-5.25,2b
2019-07-15_124502:260,-0.467224,-0.027435,-0.168793,-0.004732,0.0012619999999999999,0.00132,-38.060001,16.559998999999998,-5.25,2b
2019-07-15_124502:280,-0.46670500000000004,-0.028961,-0.168274,-0.004397,0.00114,0.001716,-38.060001,16.559998999999998,-5.25,2b
2019-07-15_124502:300,-0.46823100000000006,-0.027954000000000003,-0.170807,-0.003939,0.001292,0.001045,-37.68,17.0,-5.56,2b
2019-07-15_124502:320,-0.470276,-0.027435,-0.168793,-0.0033280000000000002,0.0016589999999999999,0.000526,-37.68,17.0,-5.56,2b
2019-07-15_124502:340,-0.46926899999999994,-0.026917,-0.169281,-0.0032979999999999997,0.002361,-5.4000000000000005e-05,-37.68,17.75,-5.25,2b
2019-07-15_124502:360,-0.46823100000000006,-0.024384,-0.167267,-0.003237,0.002513,0.000404,-37.68,17.75,-5.25,2b
2019-07-15_124502:380,-0.46569799999999995,-0.025421,-0.168793,-0.0032979999999999997,0.002116,0.0008619999999999999,-37.68,17.75,-5.25,2b
2019-07-15_124502:400,-0.46670500000000004,-0.027435,-0.1698,-0.0034509999999999996,0.001842,0.000831,-38.369999,16.25,-4.75,2b
2019-07-15_124502:420,-0.46670500000000004,-0.026917,-0.168274,-0.003512,0.0014759999999999999,0.000831,-38.369999,16.25,-4.75,2b
2019-07-15_124502:440,-0.467743,-0.027435,-0.168793,-0.00339,0.001598,0.000465,-38.060001,17.0,-4.75,2b
2019-07-15_124502:460,-0.467224,-0.025908999999999998,-0.168793,-0.0032979999999999997,0.001628,0.00016,-38.060001,17.0,-4.75,2b
2019-07-15_124502:480,-0.46823100000000006,-0.025421,-0.169281,-0.0032979999999999997,0.001537,0.000465,-38.060001,17.0,-4.75,2b
2019-07-15_124502:500,-0.46875,-0.025421,-0.169281,-0.003512,0.001964,0.000526,-37.68,16.559998999999998,-6.0,2b
2019-07-15_124502:520,-0.46670500000000004,-0.025421,-0.167755,-0.003878,0.002116,0.001228,-37.68,16.559998999999998,-6.0,2b
2019-07-15_124502:540,-0.46469099999999997,-0.026427999999999997,-0.170807,-0.004336,0.0024519999999999998,0.001258,-37.68,17.75,-4.75,2b
2019-07-15_124502:560,-0.462646,-0.026917,-0.170319,-0.004488000000000001,0.0019030000000000002,-0.000267,-37.68,17.75,-4.75,2b
2019-07-15_124502:580,-0.46569799999999995,-0.028961,-0.169281,-0.004,0.0010789999999999999,0.000404,-37.68,17.75,-4.75,2b
2019-07-15_124502:600,-0.467224,-0.030487,-0.168274,-0.003664,0.000682,0.00028199999999999997,-37.68,17.0,-5.56,2b
2019-07-15_124502:620,-0.467224,-0.027435,-0.169281,-0.003176,0.000743,6.8e-05,-37.68,17.0,-5.56,2b
2019-07-15_124502:640,-0.47079499999999996,-0.027435,-0.1698,-0.002993,0.000743,0.000221,-38.060001,16.559998999999998,-5.25,2b
2019-07-15_124502:660,-0.469757,-0.025421,-0.170319,-0.003176,0.0012619999999999999,6.8e-05,-38.060001,16.559998999999998,-5.25,2b
2019-07-15_124502:680,-0.469757,-0.025421,-0.171326,-0.00339,0.0014759999999999999,0.000129,-38.060001,16.559998999999998,-5.25,2b
2019-07-15_124502:700,-0.46823100000000006,-0.023895,-0.170319,-0.003664,0.0019030000000000002,0.000221,-37.68,17.0,-5.56,2b
2019-07-15_124502:720,-0.46823100000000006,-0.025421,-0.1698,-0.004213000000000001,0.0017809999999999998,0.00028199999999999997,-37.68,17.0,-5.56,2b
2019-07-15_124502:740,-0.467743,-0.027435,-0.170319,-0.004488000000000001,0.0019030000000000002,0.000343,-38.75,17.0,-6.75,2b
2019-07-15_124502:760,-0.467743,-0.027435,-0.1698,-0.004793,0.0017809999999999998,0.00016,-38.75,17.0,-6.75,2b
2019-07-15_124502:780,-0.465179,-0.028442000000000002,-0.170319,-0.004671,0.001842,6.8e-05,-38.75,17.0,-6.75,2b
2019-07-15_124502:800,-0.466217,-0.028961,-0.169281,-0.004488000000000001,0.0017809999999999998,0.000221,-36.869999,17.370001000000002,-5.56,2b
2019-07-15_124502:820,-0.46569799999999995,-0.029968,-0.1698,-0.00403,0.001628,6.8e-05,-36.869999,17.370001000000002,-5.56,2b
2019-07-15_124502:840,-0.46569799999999995,-0.028961,-0.170319,-0.0036950000000000004,0.001598,7.000000000000001e-06,-37.25,17.370001000000002,-6.0,2b
2019-07-15_124502:860,-0.46670500000000004,-0.027954000000000003,-0.169281,-0.00339,0.001415,-0.000176,-37.25,17.370001000000002,-6.0,2b
2019-07-15_124502:880,-0.467743,-0.027435,-0.1698,-0.003237,0.001353,-0.00023700000000000001,-37.25,17.370001000000002,-6.0,2b
2019-07-15_124502:900,-0.46926899999999994,-0.025908999999999998,-0.169281,-0.0034509999999999996,0.001598,-0.00023700000000000001,-36.560001,16.559998999999998,-6.0,2b
2019-07-15_124502:920,-0.46926899999999994,-0.025421,-0.170807,-0.0033280000000000002,0.001598,-0.000389,-36.560001,16.559998999999998,-6.0,2b
2019-07-15_124502:940,-0.46875,-0.026917,-0.170807,-0.0034509999999999996,0.0016589999999999999,-0.00045099999999999996,-38.060001,17.0,-6.5,2b
2019-07-15_124502:960,-0.467743,-0.026917,-0.170319,-0.0032979999999999997,0.001842,-0.000328,-38.060001,17.0,-6.5,2b
2019-07-15_124502:980,-0.466217,-0.025908999999999998,-0.170319,-0.0033280000000000002,0.001994,-0.000328,-38.060001,17.0,-6.5,2b
2019-07-15_124503:000,-0.465179,-0.024902,-0.170319,-0.0033280000000000002,0.0019030000000000002,-0.00023700000000000001,-36.18,16.559998999999998,-5.56,2b
2019-07-15_124503:020,-0.46670500000000004,-0.026427999999999997,-0.1698,-0.003176,0.0019030000000000002,-0.00023700000000000001,-36.18,16.559998999999998,-5.56,2b
2019-07-15_124503:040,-0.46670500000000004,-0.024384,-0.170807,-0.0033280000000000002,0.001842,-0.000176,-37.68,17.370001000000002,-4.75,2b
2019-07-15_124503:060,-0.46670500000000004,-0.024902,-0.170319,-0.0033280000000000002,0.0016589999999999999,-5.4000000000000005e-05,-37.68,17.370001000000002,-4.75,2b
2019-07-15_124503:080,-0.467224,-0.025421,-0.169281,-0.0034509999999999996,0.001964,6.8e-05,-37.68,17.370001000000002,-4.75,2b
2019-07-15_124503:100,-0.467224,-0.023895,-0.170807,-0.0036340000000000005,0.0019030000000000002,6.8e-05,-36.560001,16.559998999999998,-5.56,2b
2019-07-15_124503:120,-0.46823100000000006,-0.023375999999999997,-0.168274,-0.003664,0.001842,0.000343,-36.560001,16.559998999999998,-5.56,2b
2019-07-15_124503:140,-0.46670500000000004,-0.023375999999999997,-0.170319,-0.003878,0.0016589999999999999,0.000465,-36.869999,16.559998999999998,-6.0,2b
2019-07-15_124503:160,-0.466217,-0.024902,-0.168793,-0.003939,0.001598,0.000526,-36.869999,16.559998999999998,-6.0,2b
2019-07-15_124503:180,-0.467224,-0.025421,-0.167267,-0.003939,0.001598,0.000465,-36.869999,16.559998999999998,-6.0,2b
2019-07-15_124503:200,-0.467743,-0.026427999999999997,-0.168274,-0.00403,0.0016589999999999999,0.000404,-37.25,17.0,-5.56,2b
2019-07-15_124503:220,-0.467743,-0.026427999999999997,-0.169281,-0.003939,0.00172,0.000343,-37.25,17.0,-5.56,2b
2019-07-15_124503:240,-0.467743,-0.026917,-0.170319,-0.003817,0.0016589999999999999,0.000404,-36.869999,16.559998999999998,-5.25,2b
2019-07-15_124503:260,-0.46569799999999995,-0.025421,-0.167267,-0.00339,0.0019030000000000002,0.000404,-36.869999,16.559998999999998,-5.25,2b
2019-07-15_124503:280,-0.467224,-0.025421,-0.170319,-0.0033280000000000002,0.0016589999999999999,0.000526,-36.869999,16.559998999999998,-5.25,2b
2019-07-15_124503:300,-0.467743,-0.024384,-0.170807,-0.00339,0.00172,0.0007700000000000001,-36.869999,16.559998999999998,-4.75,2b
2019-07-15_124503:320,-0.46823100000000006,-0.024384,-0.171326,-0.0036340000000000005,0.001964,0.000709,-36.869999,16.559998999999998,-4.75,2b
2019-07-15_124503:340,-0.467743,-0.024902,-0.170807,-0.0037560000000000002,0.002177,0.000648,-37.68,16.25,-5.25,2b
2019-07-15_124503:360,-0.46823100000000006,-0.026427999999999997,-0.171844,-0.004,0.001994,0.000465,-37.68,16.25,-5.25,2b
2019-07-15_124503:380,-0.46670500000000004,-0.024384,-0.168274,-0.004336,0.002574,0.001167,-37.68,16.25,-5.25,2b
2019-07-15_124503:400,-0.465179,-0.026917,-0.165222,-0.004946,0.003307,0.002052,-38.060001,16.559998999999998,-5.56,2b
2019-07-15_124503:420,-0.462128,-0.027954000000000003,-0.164703,-0.00461,0.002361,0.001106,-38.060001,16.559998999999998,-5.56,2b
2019-07-15_124503:440,-0.46417200000000003,-0.028961,-0.166229,-0.004152,0.001598,-5.4000000000000005e-05,-37.68,17.0,-5.25,2b
2019-07-15_124503:460,-0.470276,-0.027954000000000003,-0.1698,-0.003817,0.001201,-0.00023700000000000001,-37.68,17.0,-5.25,2b
2019-07-15_124503:480,-0.47079499999999996,-0.028442000000000002,-0.170319,-0.0034509999999999996,0.001353,0.000526,-37.68,17.0,-5.25,2b
2019-07-15_124503:500,-0.46926899999999994,-0.026427999999999997,-0.171326,-0.0032979999999999997,0.001964,0.001228,-37.25,17.0,-5.56,2b
2019-07-15_124503:520,-0.46670500000000004,-0.026917,-0.170319,-0.003512,0.001994,0.000831,-37.25,17.0,-5.56,2b
2019-07-15_124503:540,-0.466217,-0.026427999999999997,-0.170319,-0.003573,0.002055,0.000129,-37.25,16.25,-4.75,2b
2019-07-15_124503:560,-0.467743,-0.027435,-0.170807,-0.0036950000000000004,0.0023,-5.4000000000000005e-05,-37.25,16.25,-4.75,2b
2019-07-15_124503:580,-0.467743,-0.027435,-0.167755,-0.0036340000000000005,0.0023,-0.000176,-37.25,16.25,-4.75,2b
2019-07-15_124503:600,-0.467224,-0.027435,-0.168793,-0.0033280000000000002,0.002361,0.00016,-37.68,16.559998999999998,-5.56,2b
2019-07-15_124503:620,-0.46670500000000004,-0.027435,-0.166748,-0.0032979999999999997,0.002239,0.00028199999999999997,-37.68,16.559998999999998,-5.56,2b
2019-07-15_124503:640,-0.466217,-0.026427999999999997,-0.168274,-0.003237,0.0019030000000000002,0.000129,-36.869999,17.370001000000002,-5.56,2b
2019-07-15_124503:660,-0.46823100000000006,-0.024902,-0.165741,-0.0031149999999999997,0.00172,0.000221,-36.869999,17.370001000000002,-5.56,2b
2019-07-15_124503:680,-0.467224,-0.025421,-0.166229,-0.003237,0.001842,0.000404,-36.869999,17.370001000000002,-5.56,2b
2019-07-15_124503:700,-0.467743,-0.023895,-0.167267,-0.003573,0.0016589999999999999,0.000526,-38.060001,17.0,-5.25,2b
2019-07-15_124503:720,-0.46875,-0.024384,-0.167267,-0.0036950000000000004,0.001537,0.000831,-38.060001,17.0,-5.25,2b
2019-07-15_124503:740,-0.46875,-0.024384,-0.167755,-0.004091,0.0016589999999999999,0.000831,-36.869999,16.559998999999998,-4.75,2b
2019-07-15_124503:760,-0.46569799999999995,-0.025908999999999998,-0.167267,-0.004336,0.0014759999999999999,0.001106,-36.869999,16.559998999999998,-4.75,2b
2019-07-15_124503:780,-0.465179,-0.027954000000000003,-0.168274,-0.004152,0.001415,0.000648,-36.869999,16.559998999999998,-4.75,2b
2019-07-15_124503:800,-0.467224,-0.027954000000000003,-0.170319,-0.004091,0.001018,0.000496,-37.25,17.370001000000002,-4.75,2b
2019-07-15_124503:820,-0.46670500000000004,-0.027435,-0.1698,-0.0036950000000000004,0.001018,0.000984,-37.25,17.370001000000002,-4.75,2b
2019-07-15_124503:840,-0.467743,-0.027435,-0.171326,-0.003664,0.0008960000000000001,0.0008619999999999999,-37.25,16.559998999999998,-5.25,2b
2019-07-15_124503:860,-0.46926899999999994,-0.027435,-0.171326,-0.003664,0.00114,0.001045,-37.25,16.559998999999998,-5.25,2b
2019-07-15_124503:880,-0.467743,-0.027435,-0.170319,-0.003817,0.0016589999999999999,0.000709,-37.25,16.559998999999998,-5.25,2b
2019-07-15_124503:900,-0.467224,-0.029480000000000003,-0.169281,-0.003817,0.001964,0.000221,-36.869999,16.559998999999998,-5.56,2b
2019-07-15_124503:920,-0.46670500000000004,-0.027435,-0.169281,-0.003664,0.001964,0.00016,-36.869999,16.559998999999998,-5.56,2b
2019-07-15_124503:940,-0.46823100000000006,-0.027954000000000003,-0.1698,-0.00339,0.002116,0.000343,-38.060001,17.0,-5.25,2b
2019-07-15_124503:960,-0.46823100000000006,-0.027435,-0.168793,-0.0033280000000000002,0.001964,0.000526,-38.060001,17.0,-5.25,2b
2019-07-15_124503:980,-0.46875,-0.027435,-0.167755,-0.0032979999999999997,0.0019030000000000002,0.000496,-38.060001,17.0,-5.25,2b
2019-07-15_124504:000,-0.46823100000000006,-0.026917,-0.167755,-0.003512,0.001994,0.000648,-36.560001,17.0,-5.25,2b
2019-07-15_124504:020,-0.46670500000000004,-0.026427999999999997,-0.166229,-0.003878,0.002055,0.000465,-36.560001,17.0,-5.25,2b
2019-07-15_124504:040,-0.46670500000000004,-0.026427999999999997,-0.168274,-0.003939,0.001994,0.000496,-37.25,17.0,-6.5,2b
2019-07-15_124504:060,-0.46569799999999995,-0.028442000000000002,-0.167267,-0.004213000000000001,0.001842,0.00028199999999999997,-37.25,17.0,-6.5,2b
2019-07-15_124504:080,-0.46670500000000004,-0.027954000000000003,-0.166748,-0.004213000000000001,0.0014759999999999999,0.00016,-37.25,17.0,-6.5,2b
2019-07-15_124504:100,-0.467743,-0.028961,-0.169281,-0.00403,0.001598,0.000129,-36.869999,16.559998999999998,-6.0,2b
2019-07-15_124504:120,-0.46670500000000004,-0.028961,-0.167755,-0.003878,0.001598,0.000343,-36.869999,16.559998999999998,-6.0,2b
2019-07-15_124504:140,-0.46670500000000004,-0.028961,-0.1698,-0.0037560000000000002,0.0016589999999999999,0.000465,-37.68,17.0,-4.75,2b
2019-07-15_124504:160,-0.46823100000000006,-0.029480000000000003,-0.168793,-0.003512,0.0017809999999999998,0.000343,-37.68,17.0,-4.75,2b
2019-07-15_124504:180,-0.467743,-0.027435,-0.169281,-0.0033280000000000002,0.001842,0.000404,-37.68,17.0,-4.75,2b
2019-07-15_124504:200,-0.46875,-0.027954000000000003,-0.168793,-0.0033280000000000002,0.001964,0.000465,-37.68,17.0,-5.56,2b
2019-07-15_124504:220,-0.467743,-0.026917,-0.168793,-0.003237,0.002116,0.000496,-37.68,17.0,-5.56,2b
2019-07-15_124504:240,-0.467743,-0.027435,-0.169281,-0.003237,0.002513,0.000526,-37.68,17.370001000000002,-5.56,2b
2019-07-15_124504:260,-0.467743,-0.027954000000000003,-0.168274,-0.0032979999999999997,0.0023,0.000709,-37.68,17.370001000000002,-5.56,2b
2019-07-15_124504:280,-0.46569799999999995,-0.027954000000000003,-0.168274,-0.003237,0.0019030000000000002,0.000923,-37.68,17.370001000000002,-5.56,2b
2019-07-15_124504:300,-0.466217,-0.026917,-0.169281,-0.0033280000000000002,0.0017809999999999998,0.000984,-38.060001,17.0,-6.0,2b
2019-07-15_124504:320,-0.46670500000000004,-0.028442000000000002,-0.166748,-0.0036340000000000005,0.001415,0.000587,-38.060001,17.0,-6.0,2b
2019-07-15_124504:340,-0.467224,-0.027435,-0.168793,-0.003664,0.001598,0.000465,-36.869999,17.0,-5.56,2b
2019-07-15_124504:360,-0.466217,-0.028442000000000002,-0.168274,-0.0037560000000000002,0.0014759999999999999,0.000404,-36.869999,17.0,-5.56,2b
2019-07-15_124504:380,-0.467224,-0.028442000000000002,-0.167755,-0.003939,0.001537,0.000526,-36.869999,17.0,-5.56,2b
2019-07-15_124504:400,-0.46823100000000006,-0.027435,-0.1698,-0.003878,0.001353,0.000709,-37.25,17.0,-5.56,2b
2019-07-15_124504:420,-0.46670500000000004,-0.028961,-0.168793,-0.0036950000000000004,0.001353,0.000404,-37.25,17.0,-5.56,2b
2019-07-15_124504:440,-0.467743,-0.028961,-0.168274,-0.003664,0.001292,0.000496,-37.25,17.75,-4.06,2b
2019-07-15_124504:460,-0.467224,-0.029480000000000003,-0.170807,-0.0036340000000000005,0.001201,0.000404,-37.25,17.75,-4.06,2b
2019-07-15_124504:480,-0.46926899999999994,-0.028442000000000002,-0.168274,-0.0036340000000000005,0.001628,0.000343,-37.25,17.75,-4.06,2b
2019-07-15_124504:500,-0.467224,-0.028961,-0.170319,-0.003573,0.001598,0.000221,-37.68,17.370001000000002,-4.75,2b
2019-07-15_124504:520,-0.46670500000000004,-0.028442000000000002,-0.169281,-0.003573,0.0014759999999999999,-5.4000000000000005e-05,-37.68,17.370001000000002,-4.75,2b
2019-07-15_124504:540,-0.466217,-0.028961,-0.168793,-0.003573,0.001628,7.000000000000001e-06,-37.68,17.0,-5.56,2b
2019-07-15_124504:560,-0.466217,-0.028961,-0.169281,-0.00339,0.001537,0.000404,-37.68,17.0,-5.56,2b
2019-07-15_124504:580,-0.46875,-0.028442000000000002,-0.169281,-0.00339,0.001598,0.000221,-37.68,17.0,-5.56,2b
2019-07-15_124504:600,-0.46926899999999994,-0.026917,-0.1698,-0.0034509999999999996,0.001842,0.000343,-37.25,17.370001000000002,-6.0,2b
2019-07-15_124504:620,-0.46823100000000006,-0.027435,-0.168793,-0.0036340000000000005,0.00172,0.000343,-37.25,17.370001000000002,-6.0,2b
2019-07-15_124504:640,-0.46823100000000006,-0.028442000000000002,-0.168274,-0.0036340000000000005,0.002116,-5.4000000000000005e-05,-36.869999,16.559998999999998,-6.75,2b
2019-07-15_124504:660,-0.470276,-0.025908999999999998,-0.165741,-0.0036950000000000004,0.0024519999999999998,0.000648,-36.869999,16.559998999999998,-6.75,2b
2019-07-15_124504:680,-0.467743,-0.027435,-0.166748,-0.004,0.002696,0.001167,-36.869999,16.559998999999998,-6.75,2b
2019-07-15_124504:700,-0.462646,-0.027954000000000003,-0.168274,-0.003939,0.0024519999999999998,0.000709,-37.25,17.370001000000002,-4.75,2b
2019-07-15_124504:720,-0.46417200000000003,-0.027954000000000003,-0.166229,-0.004,0.001537,7.000000000000001e-06,-37.25,17.370001000000002,-4.75,2b
