timestamp,AccX,AccY,AccZ,GyroX,GyroY,GyroZ,MagX,MagY,MagZ,Activity
2019-07-15_113349:960,-0.467224,-0.018799,-0.11691300000000002,0.021452000000000002,-0.01949,-0.004967,-41.060001,3.18,7.18,2a
2019-07-15_113349:980,-0.506378,-0.010162000000000001,-0.105225,0.024626,-0.02187,-0.0063100000000000005,-41.060001,3.18,7.18,2a
2019-07-15_113350:000,-0.5541689999999999,0.016753999999999998,-0.131653,0.024748,-0.016377000000000003,-0.006279,-41.060001,3.18,7.18,2a
2019-07-15_113350:020,-0.548584,0.023375999999999997,-0.13623,0.023038999999999997,-0.002248,-0.002251,-40.68,2.87,6.87,2a
2019-07-15_113350:040,-0.531281,0.022369,-0.133698,0.018797,0.0071519999999999995,0.000984,-40.68,2.87,6.87,2a
2019-07-15_113350:060,-0.5185850000000001,0.023375999999999997,-0.12658699999999998,0.010374,0.015269999999999999,0.003822,-42.560001,2.18,4.87,2a
2019-07-15_113350:080,-0.502808,0.015228,-0.117432,0.006895,0.017100999999999998,0.0061719999999999995,-42.560001,2.18,4.87,2a
2019-07-15_113350:100,-0.49722299999999997,0.004547,-0.116425,-0.001314,0.019756,0.009956,-42.560001,2.18,4.87,2a
2019-07-15_113350:120,-0.46469099999999997,-0.014740000000000001,-0.11438,-0.004213000000000001,0.017833,0.0073620000000000005,-40.68,2.18,6.87,2a
2019-07-15_113350:140,-0.46417200000000003,-0.016753999999999998,-0.11233499999999999,-0.004793,0.013316,0.00309,-40.68,2.18,6.87,2a
2019-07-15_113350:160,-0.465179,-0.012177,-0.10928299999999999,-0.005404,0.009013,0.000831,-41.060001,2.5,7.56,2a
2019-07-15_113350:180,-0.466217,-0.013702,-0.10928299999999999,-0.006014,0.005046,0.001167,-41.060001,2.5,7.56,2a
2019-07-15_113350:200,-0.47995,-0.010651,-0.106232,-0.0064719999999999995,0.002757,0.001381,-41.060001,2.5,7.56,2a
2019-07-15_113350:220,-0.476379,-0.011169,-0.108276,-0.007326000000000001,0.001598,0.001442,-40.25,2.5,8.75,2a
2019-07-15_113350:240,-0.49468999999999996,-0.013213999999999998,-0.112854,-0.007784,0.002788,0.000496,-40.25,2.5,8.75,2a
2019-07-15_113350:260,-0.492126,-0.019318000000000002,-0.10318,-0.008181,0.004894,7.000000000000001e-06,-40.68,3.25,7.18,2a
2019-07-15_113350:280,-0.482483,-0.022858,-0.11233499999999999,-0.007051999999999999,0.004833,-0.000786,-40.68,3.25,7.18,2a
2019-07-15_113350:300,-0.47995,-0.023895,-0.111328,-0.005404,0.0031850000000000003,-0.001397,-40.68,3.25,7.18,2a
2019-07-15_113350:320,-0.489594,-0.018799,-0.108276,-0.003878,0.002361,-0.0009689999999999999,-40.68,2.56,6.87,2a
2019-07-15_113350:340,-0.49468999999999996,-0.011687999999999999,-0.108276,-0.002932,0.002055,-0.000328,-40.68,2.56,6.87,2a
2019-07-15_113350:360,-0.508911,-0.007111,-0.107269,-0.003664,0.003886,-0.000512,-41.369999,2.56,6.06,2a
2019-07-15_113350:380,-0.502808,-0.007599,-0.100159,-0.005007,0.006358,0.00132,-41.369999,2.56,6.06,2a
2019-07-15_113350:400,-0.490112,-0.011687999999999999,-0.099121,-0.006014,0.007762000000000001,0.002571,-41.369999,2.56,6.06,2a
2019-07-15_113350:420,-0.49111899999999997,-0.012177,-0.100647,-0.006991,0.0069689999999999995,0.001381,-40.68,2.18,7.18,2a
2019-07-15_113350:440,-0.49517799999999995,-0.007599,-0.104218,-0.007815,0.006145,6.8e-05,-40.68,2.18,7.18,2a
2019-07-15_113350:460,-0.496704,-0.004059,-0.107269,-0.009066,0.006175,0.001228,-41.369999,2.18,7.56,2a
2019-07-15_113350:480,-0.49365200000000004,-0.005065999999999999,-0.100647,-0.011170999999999999,0.007365000000000001,0.001564,-41.369999,2.18,7.56,2a
2019-07-15_113350:500,-0.495697,-0.0030210000000000002,-0.10116599999999999,-0.012697,0.009226999999999999,0.0007700000000000001,-41.369999,2.18,7.56,2a
2019-07-15_113350:520,-0.5058590000000001,-0.002014,-0.103699,-0.014100999999999999,0.011089,0.000709,-41.060001,2.87,8.0,2a
2019-07-15_113350:540,-0.500275,-0.0025329999999999997,-0.10318,-0.015841,0.012401,0.001503,-41.060001,2.87,8.0,2a
2019-07-15_113350:560,-0.489594,-0.007599,-0.10318,-0.017611,0.012279,0.0030280000000000003,-40.68,4.0,7.56,2a
2019-07-15_113350:580,-0.48349,-0.011169,-0.09811399999999999,-0.017946,0.011607,0.003822,-40.68,4.0,7.56,2a
2019-07-15_113350:600,-0.478912,-0.01828,-0.094055,-0.017611,0.010204000000000001,0.003913000000000001,-40.68,4.0,7.56,2a
2019-07-15_113350:620,-0.48196400000000006,-0.019318000000000002,-0.087952,-0.016572999999999997,0.008739,0.003578,-40.68,3.18,9.06,2a
2019-07-15_113350:640,-0.478912,-0.020844,-0.083862,-0.015627000000000002,0.007548999999999999,0.003761,-40.68,3.18,9.06,2a
2019-07-15_113350:660,-0.481476,-0.022858,-0.083862,-0.014712000000000001,0.006236,0.004646,-40.25,3.18,9.06,2a
2019-07-15_113350:680,-0.48349,-0.024902,-0.080322,-0.01404,0.0045579999999999996,0.004646,-40.25,3.18,9.06,2a
2019-07-15_113350:700,-0.49722299999999997,-0.024902,-0.07928500000000001,-0.013491,0.0034289999999999998,0.004371,-40.25,3.18,9.06,2a
2019-07-15_113350:720,-0.505371,-0.022858,-0.084381,-0.013094,0.0041,0.003517,-40.68,4.0,9.87,2a
2019-07-15_113350:740,-0.507904,-0.019806,-0.082336,-0.012911,0.005779,0.00309,-40.68,4.0,9.87,2a
2019-07-15_113350:760,-0.5058590000000001,-0.019318000000000002,-0.08081100000000001,-0.012697,0.007426,0.0038829999999999997,-41.060001,4.0,9.87,2a
2019-07-15_113350:780,-0.51297,-0.016753999999999998,-0.078796,-0.012301000000000001,0.00941,0.004554,-41.060001,4.0,9.87,2a
2019-07-15_113350:800,-0.518066,-0.008118,-0.076263,-0.012392,0.01292,0.00663,-41.060001,4.0,9.87,2a
2019-07-15_113350:820,-0.497742,-0.014221000000000001,-0.076752,-0.013247,0.015727,0.008339,-41.060001,4.25,8.75,2a
2019-07-15_113350:840,-0.498749,-0.013213999999999998,-0.0737,-0.013186000000000002,0.016704,0.008216,-41.060001,4.25,8.75,2a
2019-07-15_113350:860,-0.509918,-0.018799,-0.0737,-0.013247,0.017192,0.007301,-40.68,4.68,9.87,2a
2019-07-15_113350:880,-0.491638,-0.021332,-0.069641,-0.012575,0.016765000000000002,0.004615,-40.68,4.68,9.87,2a
2019-07-15_113350:900,-0.514496,-0.023895,-0.069641,-0.012179,0.016916999999999998,0.002571,-40.68,4.68,9.87,2a
2019-07-15_113350:920,-0.523651,-0.023375999999999997,-0.074738,-0.011233,0.022228,0.002784,-40.25,4.68,10.25,2a
2019-07-15_113350:940,-0.517059,-0.022858,-0.072174,-0.010256,0.026469,0.0026320000000000002,-40.25,4.68,10.25,2a
2019-07-15_113350:960,-0.500793,-0.018799,-0.066589,-0.008791,0.028606,0.002571,-40.25,5.06,11.87,2a
2019-07-15_113350:980,-0.495697,-0.016753999999999998,-0.056915,-0.007662,0.028117000000000003,0.002449,-40.25,5.06,11.87,2a
2019-07-15_113351:000,-0.485016,-0.017273,-0.045745999999999995,-0.006991,0.026652999999999996,0.002693,-40.25,5.06,11.87,2a
2019-07-15_113351:020,-0.478912,-0.017273,-0.039124,-0.007387,0.023753,0.003425,-39.869999,4.25,11.06,2a
2019-07-15_113351:040,-0.46875,-0.020844,-0.038116000000000004,-0.008272,0.019634,0.004219,-39.869999,4.25,11.06,2a
2019-07-15_113351:060,-0.46417200000000003,-0.025421,-0.036591000000000005,-0.009004999999999999,0.015269999999999999,0.004554,-38.060001,5.5,12.68,2a
2019-07-15_113351:080,-0.478912,-0.031494,-0.029480000000000003,-0.009737,0.010997,0.004707,-38.060001,5.5,12.68,2a
2019-07-15_113351:100,-0.490601,-0.034058,-0.028961,-0.009524,0.0069689999999999995,0.004097,-38.060001,5.5,12.68,2a
2019-07-15_113351:120,-0.49975600000000003,-0.036591000000000005,-0.029968,-0.00873,0.003978,0.002571,-39.560001,5.06,12.68,2a
2019-07-15_113351:140,-0.495697,-0.036072,-0.032532,-0.007662,0.0024519999999999998,0.000343,-39.560001,5.06,12.68,2a
2019-07-15_113351:160,-0.496704,-0.035583,-0.032532,-0.006594,0.0010789999999999999,-0.002495,-39.18,4.68,15.37,2a
2019-07-15_113351:180,-0.491638,-0.038116000000000004,-0.032013,-0.005678,-0.000264,-0.005028,-39.18,4.68,15.37,2a
2019-07-15_113351:200,-0.492645,-0.030487,-0.03302,-0.004946,-0.00179,-0.005303,-39.18,4.68,15.37,2a
2019-07-15_113351:220,-0.49517799999999995,-0.028961,-0.037108999999999996,-0.004397,-0.0037119999999999996,-0.004692,-38.75,5.5,13.87,2a
2019-07-15_113351:240,-0.488068,-0.026917,-0.037108999999999996,-0.00339,-0.0052380000000000005,-0.004509,-38.75,5.5,13.87,2a
2019-07-15_113351:260,-0.485016,-0.024384,-0.040161,-0.0021079999999999996,-0.006947,-0.004631000000000001,-39.869999,5.06,13.87,2a
2019-07-15_113351:280,-0.485016,-0.019806,-0.041168,-0.001192,-0.007831999999999999,-0.005303,-39.869999,5.06,13.87,2a
2019-07-15_113351:300,-0.501801,-0.014740000000000001,-0.045745999999999995,-0.001009,-0.008534,-0.005089,-39.869999,5.06,13.87,2a
2019-07-15_113351:320,-0.506897,-0.012177,-0.048279,-0.001009,-0.007679999999999999,-0.00396,-39.18,4.68,12.25,2a
2019-07-15_113351:340,-0.505371,-0.008636,-0.050323,-0.0015890000000000001,-0.006612000000000001,-0.003563,-39.18,4.68,12.25,2a
2019-07-15_113351:360,-0.505371,-0.008118,-0.050842,-0.0025050000000000003,-0.005696,-0.002648,-40.25,4.25,12.68,2a
2019-07-15_113351:380,-0.505371,-0.012695,-0.051849,-0.0034509999999999996,-0.005147,-0.000725,-40.25,4.25,12.68,2a
2019-07-15_113351:400,-0.506897,-0.014221000000000001,-0.050842,-0.004213000000000001,-0.005147,0.000129,-40.25,4.25,12.68,2a
2019-07-15_113351:420,-0.508423,-0.011169,-0.053863999999999995,-0.004824,-0.005177,0.000404,-39.560001,3.56,12.25,2a
2019-07-15_113351:440,-0.500275,-0.013213999999999998,-0.045745999999999995,-0.005465,-0.00475,0.000831,-39.560001,3.56,12.25,2a
2019-07-15_113351:460,-0.514008,-0.015747,-0.050842,-0.005953,-0.005086,0.001167,-39.869999,5.06,11.87,2a
2019-07-15_113351:480,-0.517059,-0.01828,-0.043213,-0.00635,-0.003773,0.0021739999999999997,-39.869999,5.06,11.87,2a
2019-07-15_113351:500,-0.5109560000000001,-0.019806,-0.050323,-0.005922,-0.001057,0.0030280000000000003,-39.869999,5.06,11.87,2a
2019-07-15_113351:520,-0.505371,-0.019318000000000002,-0.052338,-0.005678,0.0012619999999999999,0.0030280000000000003,-39.560001,4.68,11.87,2a
2019-07-15_113351:540,-0.49468999999999996,-0.017273,-0.052338,-0.005221,0.002361,0.003486,-39.560001,4.68,11.87,2a
2019-07-15_113351:560,-0.494171,-0.022369,-0.050323,-0.004732,0.0023,0.004097,-40.68,4.0,12.25,2a
2019-07-15_113351:580,-0.49468999999999996,-0.021332,-0.050323,-0.004427,0.001628,0.004493,-40.68,4.0,12.25,2a
2019-07-15_113351:600,-0.496216,-0.021332,-0.049805,-0.004397,0.000865,0.003639,-40.68,4.0,12.25,2a
2019-07-15_113351:620,-0.500793,-0.019806,-0.048279,-0.004336,0.000621,0.0022960000000000003,-40.25,5.5,12.25,2a
2019-07-15_113351:640,-0.500793,-0.019806,-0.047272,-0.004946,0.000346,0.001777,-40.25,5.5,12.25,2a
2019-07-15_113351:660,-0.49926800000000005,-0.021851,-0.049316000000000006,-0.005526,0.000133,0.001045,-39.560001,4.68,11.87,2a
2019-07-15_113351:680,-0.49823,-0.024384,-0.048279,-0.006014,-0.000508,7.000000000000001e-06,-39.560001,4.68,11.87,2a
2019-07-15_113351:700,-0.5048520000000001,-0.024384,-0.049316000000000006,-0.005861,-0.001393,-0.0011220000000000002,-39.560001,4.68,11.87,2a
2019-07-15_113351:720,-0.501282,-0.025421,-0.053375,-0.0056170000000000005,-0.001393,-0.00216,-40.25,4.68,11.87,2a
2019-07-15_113351:740,-0.502319,-0.023375999999999997,-0.053863999999999995,-0.005068,-0.001912,-0.001854,-40.25,4.68,11.87,2a
2019-07-15_113351:760,-0.501282,-0.023375999999999997,-0.053863999999999995,-0.004213000000000001,-0.001302,-0.000725,-39.869999,4.68,11.5,2a
2019-07-15_113351:780,-0.498749,-0.023375999999999997,-0.053863999999999995,-0.003512,-0.0009660000000000001,-0.00023700000000000001,-39.869999,4.68,11.5,2a
2019-07-15_113351:800,-0.49316400000000005,-0.024384,-0.054901,-0.0029010000000000004,-0.000661,0.000221,-39.869999,4.68,11.5,2a
2019-07-15_113351:820,-0.49823,-0.024384,-0.053863999999999995,-0.002321,-0.001118,0.000404,-39.560001,5.5,11.06,2a
2019-07-15_113351:840,-0.5119630000000001,-0.026917,-0.05285599999999999,-0.001375,-0.0008439999999999999,0.001258,-39.560001,5.5,11.06,2a
2019-07-15_113351:860,-0.515015,-0.029968,-0.054901,-0.000521,0.001292,0.002388,-39.869999,4.68,11.87,2a
2019-07-15_113351:880,-0.5119630000000001,-0.028961,-0.054901,0.000791,0.0036420000000000003,0.003761,-39.869999,4.68,11.87,2a
2019-07-15_113351:900,-0.501282,-0.024384,-0.058960000000000005,0.001982,0.005351,0.006476999999999999,-39.869999,4.68,11.87,2a
2019-07-15_113351:920,-0.496216,-0.017273,-0.05996699999999999,0.002653,0.005046,0.0084,-41.060001,5.5,11.87,2a
2019-07-15_113351:940,-0.49468999999999996,-0.013213999999999998,-0.056915,0.0012490000000000001,0.004039,0.009956,-41.060001,5.5,11.87,2a
2019-07-15_113351:960,-0.486023,-0.009644,-0.053375,-0.001192,0.002513,0.011329,-39.560001,4.68,12.25,2a
2019-07-15_113351:980,-0.482483,-0.011687999999999999,-0.051330999999999995,-0.004152,0.000407,0.012275,-39.560001,4.68,12.25,2a
2019-07-15_113352:000,-0.47943100000000005,-0.017273,-0.055908000000000006,-0.007479,-0.0027660000000000002,0.012458,-39.560001,4.68,12.25,2a
2019-07-15_113352:020,-0.484497,-0.025421,-0.057434000000000006,-0.010378,-0.00536,0.011543000000000001,-39.869999,5.06,12.68,2a
2019-07-15_113352:040,-0.492645,-0.03302,-0.058441,-0.012240000000000001,-0.007619,0.010353,-39.869999,5.06,12.68,2a
2019-07-15_113352:060,-0.497742,-0.038635,-0.058441,-0.012758,-0.007619,0.009132,-39.18,5.75,11.06,2a
2019-07-15_113352:080,-0.514008,-0.042175,-0.058960000000000005,-0.012575,-0.006367,0.007148000000000001,-39.18,5.75,11.06,2a
2019-07-15_113352:100,-0.520111,-0.044219999999999995,-0.061005,-0.011781999999999999,-0.002919,0.004707,-39.18,5.75,11.06,2a
2019-07-15_113352:120,-0.515015,-0.044219999999999995,-0.063538,-0.010714,0.0009570000000000001,0.00132,-39.560001,7.0,12.25,2a
2019-07-15_113352:140,-0.508423,-0.044739,-0.063538,-0.009524,0.00352,-0.000634,-39.560001,7.0,12.25,2a
2019-07-15_113352:160,-0.49517799999999995,-0.042694,-0.066071,-0.008211,0.004222,-0.0013050000000000002,-39.869999,7.25,11.5,2a
2019-07-15_113352:180,-0.492126,-0.044739,-0.06405599999999999,-0.006869,0.003307,-0.00216,-39.869999,7.25,11.5,2a
2019-07-15_113352:200,-0.489594,-0.039642000000000004,-0.063019,-0.005221,0.002391,-0.004021,-39.869999,7.25,11.5,2a
2019-07-15_113352:220,-0.496704,-0.038116000000000004,-0.067596,-0.004488000000000001,0.001628,-0.005181,-40.68,7.25,11.5,2a
2019-07-15_113352:240,-0.496704,-0.035583,-0.066071,-0.003817,0.0017809999999999998,-0.0054859999999999996,-40.68,7.25,11.5,2a
2019-07-15_113352:260,-0.49316400000000005,-0.034546,-0.067108,-0.0034509999999999996,0.0017809999999999998,-0.005639,-40.25,6.56,11.06,2a
2019-07-15_113352:280,-0.49365200000000004,-0.03302,-0.068115,-0.002535,0.0017809999999999998,-0.007012000000000001,-40.25,6.56,11.06,2a
2019-07-15_113352:300,-0.49111899999999997,-0.030487,-0.069641,-0.0021079999999999996,0.00114,-0.006829000000000001,-40.25,6.56,11.06,2a
2019-07-15_113352:320,-0.492645,-0.029480000000000003,-0.07016,-0.002199,0.00022400000000000002,-0.006096,-40.25,6.18,12.25,2a
2019-07-15_113352:340,-0.495697,-0.029480000000000003,-0.067596,-0.0021079999999999996,-0.00063,-0.005028,-40.25,6.18,12.25,2a
2019-07-15_113352:360,-0.495697,-0.027954000000000003,-0.063019,-0.0021079999999999996,-0.001302,-0.003899,-40.68,6.18,11.5,2a
2019-07-15_113352:380,-0.505371,-0.024902,-0.068634,-0.002199,-0.001179,-0.0034409999999999996,-40.68,6.18,11.5,2a
2019-07-15_113352:400,-0.49975600000000003,-0.025421,-0.065063,-0.002443,-0.0007830000000000001,-0.003319,-40.68,6.18,11.5,2a
2019-07-15_113352:420,-0.506897,-0.023895,-0.069122,-0.0025050000000000003,-0.000722,-0.003228,-39.560001,6.18,9.87,2a
2019-07-15_113352:440,-0.5073850000000001,-0.023895,-0.067108,-0.002932,0.001353,-0.0037770000000000004,-39.560001,6.18,9.87,2a
2019-07-15_113352:460,-0.505371,-0.020844,-0.069122,-0.0032979999999999997,0.002177,-0.0037159999999999997,-39.869999,5.06,10.75,2a
2019-07-15_113352:480,-0.49975600000000003,-0.020844,-0.068634,-0.003878,0.004039,-0.003167,-39.869999,5.06,10.75,2a
2019-07-15_113352:500,-0.49468999999999996,-0.020844,-0.066071,-0.004091,0.004649,-0.002098,-39.869999,5.06,10.75,2a
2019-07-15_113352:520,-0.492645,-0.021332,-0.065582,-0.004397,0.004619,-0.0011220000000000002,-39.869999,5.5,11.87,2a
2019-07-15_113352:540,-0.489594,-0.022858,-0.062012,-0.0036950000000000004,0.003825,0.00016,-39.869999,5.5,11.87,2a
2019-07-15_113352:560,-0.492126,-0.022858,-0.061005,-0.0034509999999999996,0.002757,-5.4000000000000005e-05,-40.25,5.75,10.75,2a
2019-07-15_113352:580,-0.490112,-0.019806,-0.058960000000000005,-0.002993,0.001415,-0.000176,-40.25,5.75,10.75,2a
2019-07-15_113352:600,-0.492126,-0.019318000000000002,-0.05996699999999999,-0.0032979999999999997,0.000285,-0.000573,-40.25,5.75,10.75,2a
2019-07-15_113352:620,-0.49975600000000003,-0.013702,-0.061005,-0.004152,-0.000264,-0.000908,-40.68,5.06,10.75,2a
2019-07-15_113352:640,-0.49823,-0.013213999999999998,-0.065582,-0.005404,-0.000386,-0.001458,-40.68,5.06,10.75,2a
2019-07-15_113352:660,-0.49722299999999997,-0.012695,-0.065582,-0.006014,-0.000661,-0.0019149999999999998,-40.25,6.18,11.87,2a
2019-07-15_113352:680,-0.49722299999999997,-0.017273,-0.066589,-0.007081999999999999,-0.00063,-0.00396,-40.25,6.18,11.87,2a
2019-07-15_113352:700,-0.495697,-0.017792,-0.066589,-0.007387,-0.0005690000000000001,-0.00515,-40.25,6.18,11.87,2a
2019-07-15_113352:720,-0.496704,-0.020325,-0.065582,-0.007143000000000001,-0.000386,-0.005242,-39.560001,4.68,9.87,2a
2019-07-15_113352:740,-0.498749,-0.021332,-0.06405599999999999,-0.006136,-0.000386,-0.006768000000000001,-39.560001,4.68,9.87,2a
2019-07-15_113352:760,-0.49926800000000005,-0.022369,-0.067108,-0.005739,-0.000325,-0.007409000000000001,-40.68,5.06,10.75,2a
2019-07-15_113352:780,-0.501282,-0.021332,-0.068115,-0.004336,0.00016299999999999998,-0.008934000000000001,-40.68,5.06,10.75,2a
2019-07-15_113352:800,-0.49365200000000004,-0.019806,-0.066589,-0.0034509999999999996,-0.00011100000000000001,-0.010888,-40.68,5.06,10.75,2a
2019-07-15_113352:820,-0.490112,-0.014740000000000001,-0.069641,-0.002993,-0.000722,-0.011681,-40.25,5.06,10.75,2a
2019-07-15_113352:840,-0.49111899999999997,-0.009125,-0.067596,-0.001986,-0.003102,-0.013848,-40.25,5.06,10.75,2a
2019-07-15_113352:860,-0.501282,-0.0035399999999999997,-0.068115,-0.0018030000000000001,-0.0037119999999999996,-0.013938999999999998,-40.25,4.25,10.75,2a
2019-07-15_113352:880,-0.5048520000000001,0.001007,-0.067108,-0.001864,-0.002827,-0.011406,-40.25,4.25,10.75,2a
2019-07-15_113352:900,-0.508423,0.004059,-0.069122,-0.0021079999999999996,-0.0008439999999999999,-0.009148,-40.25,4.25,10.75,2a
2019-07-15_113352:920,-0.5073850000000001,0.005065999999999999,-0.071167,-0.0022600000000000003,0.0008960000000000001,-0.007103,-40.25,4.0,9.56,2a
2019-07-15_113352:940,-0.500793,0.008118,-0.0737,-0.0025960000000000002,0.0024519999999999998,-0.004174000000000001,-40.25,4.0,9.56,2a
2019-07-15_113352:960,-0.49975600000000003,0.006592,-0.07421900000000001,-0.0028399999999999996,0.002788,-0.003563,-40.25,2.5,9.87,2a
2019-07-15_113352:980,-0.49975600000000003,0.0055850000000000006,-0.071686,-0.002932,0.002849,0.00028199999999999997,-40.25,2.5,9.87,2a
2019-07-15_113353:000,-0.500275,0.006592,-0.071686,-0.003176,0.002849,0.0022960000000000003,-40.25,2.5,9.87,2a
2019-07-15_113353:020,-0.49468999999999996,0.0035399999999999997,-0.069641,-0.003054,0.002574,0.002754,-39.869999,3.18,10.75,2a
2019-07-15_113353:040,-0.49316400000000005,0.0030210000000000002,-0.068115,-0.0029010000000000004,0.001353,0.002113,-39.869999,3.18,10.75,2a
2019-07-15_113353:060,-0.492126,0.004059,-0.072174,-0.002718,0.0009570000000000001,0.00251,-39.869999,3.18,10.75,2a
2019-07-15_113353:080,-0.49316400000000005,0.0025329999999999997,-0.07016,-0.002779,1.1e-05,0.0037,-40.68,4.25,9.56,2a
2019-07-15_113353:100,-0.49316400000000005,0.0035399999999999997,-0.070648,-0.0029010000000000004,-0.000233,0.003517,-40.68,4.25,9.56,2a
2019-07-15_113353:120,-0.495697,0.0030210000000000002,-0.069641,-0.002993,-0.000233,0.003578,-40.25,3.56,11.06,2a
2019-07-15_113353:140,-0.496704,0.000488,-0.068634,-0.0033280000000000002,0.000621,0.003425,-40.25,3.56,11.06,2a
2019-07-15_113353:160,-0.49975600000000003,0.001495,-0.071686,-0.003573,0.0008039999999999999,0.003181,-40.25,4.0,10.75,2a
2019-07-15_113353:180,-0.501801,0.0,-0.0737,-0.0036340000000000005,0.001598,0.003578,-40.25,4.0,10.75,2a
2019-07-15_113353:200,-0.502319,-0.000488,-0.07421900000000001,-0.003664,0.001842,0.003303,-40.25,4.0,10.75,2a
2019-07-15_113353:220,-0.500275,-0.0030210000000000002,-0.072693,-0.0034509999999999996,0.0023,0.003151,-40.25,3.18,10.25,2a
2019-07-15_113353:240,-0.502808,-0.005065999999999999,-0.072693,-0.0025960000000000002,0.0029100000000000003,0.002235,-40.25,3.18,10.25,2a
2019-07-15_113353:260,-0.49975600000000003,-0.008118,-0.07016,-0.0020469999999999998,0.002971,0.001991,-40.25,3.18,10.25,2a
2019-07-15_113353:280,-0.49823,-0.007599,-0.072174,-0.000185,0.003124,0.002449,-40.68,4.25,9.87,2a
2019-07-15_113353:300,-0.49722299999999997,-0.009644,-0.07016,0.000547,0.002971,0.002357,-40.68,4.25,9.87,2a
2019-07-15_113353:320,-0.49517799999999995,-0.008636,-0.069122,0.001524,0.002849,0.001106,-39.869999,4.0,10.75,2a
2019-07-15_113353:340,-0.498749,-0.0055850000000000006,-0.069122,0.002317,0.002849,0.001442,-39.869999,4.0,10.75,2a
2019-07-15_113353:360,-0.496704,-0.0055850000000000006,-0.068115,0.002653,0.0031850000000000003,0.002052,-39.869999,4.25,9.56,2a
2019-07-15_113353:380,-0.495697,-0.004547,-0.069122,0.0022559999999999998,0.003032,0.002235,-39.869999,4.25,9.56,2a
2019-07-15_113353:400,-0.494171,-0.0035399999999999997,-0.067108,0.001982,0.0024519999999999998,0.002052,-39.869999,4.25,9.56,2a
2019-07-15_113353:420,-0.496216,-0.004059,-0.069122,0.001737,0.002239,0.001777,-40.25,4.0,11.5,2a
2019-07-15_113353:440,-0.49975600000000003,-0.0030210000000000002,-0.067108,0.001066,0.0023,0.001716,-40.25,4.0,11.5,2a
2019-07-15_113353:460,-0.502319,-0.0030210000000000002,-0.068115,0.000547,0.003032,0.002113,-40.25,4.0,11.5,2a
2019-07-15_113353:480,-0.49926800000000005,-0.004059,-0.066071,-6.3e-05,0.00349,0.0021739999999999997,-39.869999,3.56,10.25,2a
2019-07-15_113353:500,-0.500793,-0.004547,-0.067108,-0.0009789999999999998,0.0036420000000000003,0.0022960000000000003,-39.869999,3.56,10.25,2a
2019-07-15_113353:520,-0.49926800000000005,-0.0055850000000000006,-0.066589,-0.0015279999999999998,0.003764,0.0022960000000000003,-40.25,3.56,10.25,2a
2019-07-15_113353:540,-0.49926800000000005,-0.006592,-0.065063,-0.0017109999999999998,0.003825,0.0026320000000000002,-40.25,3.56,10.25,2a
2019-07-15_113353:560,-0.49517799999999995,-0.008118,-0.064545,-0.001864,0.003886,0.002784,-40.25,3.56,10.25,2a
2019-07-15_113353:580,-0.492645,-0.007111,-0.06253099999999999,-0.0020469999999999998,0.003307,0.00309,-40.25,4.0,11.5,2a
2019-07-15_113353:600,-0.492645,-0.009644,-0.063538,-0.002199,0.002696,0.003242,-40.25,4.0,11.5,2a
2019-07-15_113353:620,-0.492126,-0.008118,-0.06405599999999999,-0.002718,0.0017809999999999998,0.003181,-39.869999,3.56,10.25,2a
2019-07-15_113353:640,-0.496216,-0.009125,-0.063019,-0.0031149999999999997,0.000865,0.003425,-39.869999,3.56,10.25,2a
2019-07-15_113353:660,-0.49722299999999997,-0.011169,-0.06405599999999999,-0.003573,0.000499,0.003822,-39.869999,3.56,10.25,2a
2019-07-15_113353:680,-0.49823,-0.011687999999999999,-0.06253099999999999,-0.004336,0.00056,0.003761,-40.25,4.0,9.87,2a
2019-07-15_113353:700,-0.497742,-0.011687999999999999,-0.063538,-0.004488000000000001,0.000499,0.002845,-40.25,4.0,9.87,2a
2019-07-15_113353:720,-0.49823,-0.012695,-0.065582,-0.00461,0.000468,0.0018989999999999999,-39.869999,4.25,11.5,2a
2019-07-15_113353:740,-0.500275,-0.012177,-0.065063,-0.0048850000000000005,0.000346,0.001655,-39.869999,4.25,11.5,2a
2019-07-15_113353:760,-0.49975600000000003,-0.013213999999999998,-0.066589,-0.004946,0.00056,0.001777,-39.869999,4.25,11.5,2a
2019-07-15_113353:780,-0.502319,-0.012695,-0.068115,-0.0048850000000000005,0.0009570000000000001,0.001716,-41.060001,3.56,10.75,2a
2019-07-15_113353:800,-0.505371,-0.011687999999999999,-0.066589,-0.005068,0.0016589999999999999,0.002449,-41.060001,3.56,10.75,2a
2019-07-15_113353:820,-0.5058590000000001,-0.013213999999999998,-0.067108,-0.005282,0.002391,0.003151,-39.560001,3.56,10.25,2a
2019-07-15_113353:840,-0.496704,-0.014221000000000001,-0.066589,-0.0056170000000000005,0.003032,0.003151,-39.560001,3.56,10.25,2a
2019-07-15_113353:860,-0.490112,-0.014221000000000001,-0.068634,-0.005678,0.002635,0.002357,-39.560001,3.56,10.25,2a
2019-07-15_113353:880,-0.48706099999999997,-0.016266,-0.068634,-0.005922,0.0017809999999999998,0.001838,-40.25,4.25,9.87,2a
2019-07-15_113353:900,-0.48858599999999996,-0.016753999999999998,-0.068634,-0.006014,0.00056,0.00196,-40.25,4.25,9.87,2a
2019-07-15_113353:920,-0.492126,-0.019318000000000002,-0.070648,-0.006075,-0.000508,0.001442,-40.25,4.0,9.87,2a
2019-07-15_113353:940,-0.49468999999999996,-0.020325,-0.069122,-0.0058,-0.001179,0.000526,-40.25,4.0,9.87,2a
2019-07-15_113353:960,-0.49926800000000005,-0.021332,-0.072174,-0.005221,-0.001363,6.8e-05,-40.25,4.0,9.87,2a
2019-07-15_113353:980,-0.49926800000000005,-0.021332,-0.072174,-0.004275,-0.001393,-0.00023700000000000001,-40.25,4.25,10.75,2a
2019-07-15_113354:000,-0.504333,-0.021332,-0.0737,-0.002993,-0.0005690000000000001,-0.00023700000000000001,-40.25,4.25,10.75,2a
2019-07-15_113354:020,-0.504333,-0.01828,-0.072693,-0.002169,0.000285,6.8e-05,-40.25,4.68,10.75,2a
2019-07-15_113354:040,-0.502319,-0.017273,-0.072174,-0.0015890000000000001,0.001537,0.000526,-40.25,4.68,10.75,2a
2019-07-15_113354:060,-0.49975600000000003,-0.016753999999999998,-0.072174,-0.001253,0.002574,0.00016,-40.25,4.68,10.75,2a
2019-07-15_113354:080,-0.500793,-0.014740000000000001,-0.07016,-0.001375,0.003032,6.8e-05,-39.869999,4.25,11.87,2a
2019-07-15_113354:100,-0.500275,-0.015747,-0.067108,-0.001772,0.003124,7.000000000000001e-06,-39.869999,4.25,11.87,2a
2019-07-15_113354:120,-0.49975600000000003,-0.016266,-0.07016,-0.0020469999999999998,0.004314,-0.000328,-39.869999,4.0,11.5,2a
2019-07-15_113354:140,-0.501282,-0.016266,-0.069641,-0.002169,0.00471,-0.000908,-39.869999,4.0,11.5,2a
2019-07-15_113354:160,-0.49517799999999995,-0.016753999999999998,-0.064545,-0.002169,0.004894,-0.0012439999999999999,-39.869999,4.0,11.5,2a
2019-07-15_113354:180,-0.501282,-0.017273,-0.07016,-0.0020469999999999998,0.0042829999999999995,-0.000725,-39.869999,4.25,10.25,2a
2019-07-15_113354:200,-0.495697,-0.01828,-0.065063,-0.00107,0.00471,0.000221,-39.869999,4.25,10.25,2a
2019-07-15_113354:220,-0.5073850000000001,-0.015228,-0.065582,-0.000277,0.005443,0.001167,-39.560001,4.68,11.5,2a
2019-07-15_113354:240,-0.503845,-0.012177,-0.065063,-0.000521,0.006816,0.0021739999999999997,-39.560001,4.68,11.5,2a
2019-07-15_113354:260,-0.49823,-0.011169,-0.066589,-0.001131,0.007488,0.001991,-39.560001,4.68,11.5,2a
2019-07-15_113354:280,-0.492645,-0.010651,-0.06405599999999999,-0.0022600000000000003,0.007213,0.000984,-40.25,4.0,11.87,2a
2019-07-15_113354:300,-0.489594,-0.012177,-0.06253099999999999,-0.0031149999999999997,0.006175,0.000404,-40.25,4.0,11.87,2a
2019-07-15_113354:320,-0.491638,-0.014221000000000001,-0.06149299999999999,-0.003817,0.00471,6.8e-05,-39.560001,4.0,11.06,2a
2019-07-15_113354:340,-0.49517799999999995,-0.015747,-0.060486,-0.00403,0.0036420000000000003,-0.000634,-39.560001,4.0,11.06,2a
2019-07-15_113354:360,-0.496704,-0.016266,-0.061005,-0.004,0.003032,-0.0008470000000000001,-39.560001,4.0,11.06,2a
2019-07-15_113354:380,-0.49722299999999997,-0.017273,-0.060486,-0.003878,0.002391,-0.000634,-39.18,4.25,10.75,2a
2019-07-15_113354:400,-0.497742,-0.016753999999999998,-0.05996699999999999,-0.0036950000000000004,0.002239,-0.000328,-39.18,4.25,10.75,2a
2019-07-15_113354:420,-0.49975600000000003,-0.017273,-0.061005,-0.0032979999999999997,0.001994,-0.00023700000000000001,-39.869999,4.0,10.75,2a
2019-07-15_113354:440,-0.500275,-0.016753999999999998,-0.061005,-0.003054,0.002055,-5.4000000000000005e-05,-39.869999,4.0,10.75,2a
2019-07-15_113354:460,-0.498749,-0.015228,-0.06149299999999999,-0.002779,0.002239,0.00016,-39.869999,4.0,10.75,2a
2019-07-15_113354:480,-0.498749,-0.016266,-0.061005,-0.0029010000000000004,0.002177,7.000000000000001e-06,-39.869999,3.56,10.75,2a
2019-07-15_113354:500,-0.502319,-0.015747,-0.05996699999999999,-0.002993,0.002361,0.00028199999999999997,-39.869999,3.56,10.75,2a
2019-07-15_113354:520,-0.503326,-0.01828,-0.05996699999999999,-0.0025960000000000002,0.002635,6.8e-05,-39.869999,4.25,11.06,2a
2019-07-15_113354:540,-0.502808,-0.017273,-0.060486,-0.002199,0.003368,-0.000512,-39.869999,4.25,11.06,2a
2019-07-15_113354:560,-0.496704,-0.017273,-0.061005,-0.0015279999999999998,0.003764,-0.000664,-39.869999,4.25,11.06,2a
2019-07-15_113354:580,-0.49517799999999995,-0.017273,-0.05996699999999999,-0.00107,0.0036420000000000003,-0.000664,-39.560001,4.0,11.06,2a
2019-07-15_113354:600,-0.496216,-0.013702,-0.058960000000000005,-0.000918,0.003307,-0.000908,-39.560001,4.0,11.06,2a
2019-07-15_113354:620,-0.498749,-0.012695,-0.05996699999999999,-0.000857,0.0029100000000000003,-0.000664,-39.18,4.0,11.5,2a
2019-07-15_113354:640,-0.498749,-0.009644,-0.056915,-0.001192,0.002696,-0.00045099999999999996,-39.18,4.0,11.5,2a
2019-07-15_113354:660,-0.49975600000000003,-0.008118,-0.056915,-0.001925,0.003032,0.000221,-39.18,4.0,11.5,2a
2019-07-15_113354:680,-0.498749,-0.009125,-0.053863999999999995,-0.002718,0.002635,0.001106,-39.18,4.0,10.75,2a
2019-07-15_113354:700,-0.496704,-0.008118,-0.052338,-0.003573,0.002635,0.001777,-39.18,4.0,10.75,2a
2019-07-15_113354:720,-0.49926800000000005,-0.012177,-0.05438200000000001,-0.004275,0.002239,0.002449,-39.18,4.0,11.87,2a
2019-07-15_113354:740,-0.49926800000000005,-0.014221000000000001,-0.055389,-0.0048850000000000005,0.002055,0.00132,-39.18,4.0,11.87,2a
2019-07-15_113354:760,-0.498749,-0.014221000000000001,-0.055908000000000006,-0.005282,0.0016589999999999999,0.000221,-39.18,4.0,11.87,2a
2019-07-15_113354:780,-0.49823,-0.015228,-0.054901,-0.005465,0.0016589999999999999,0.00028199999999999997,-39.869999,4.25,10.75,2a
2019-07-15_113354:800,-0.496704,-0.016753999999999998,-0.055389,-0.005404,0.00172,0.000129,-39.869999,4.25,10.75,2a
2019-07-15_113354:820,-0.496704,-0.017273,-0.057953,-0.004946,0.001353,-0.000512,-39.869999,4.0,11.5,2a
2019-07-15_113354:840,-0.500793,-0.015228,-0.053863999999999995,-0.004397,0.001292,-0.000512,-39.869999,4.0,11.5,2a
2019-07-15_113354:860,-0.503326,-0.015228,-0.058960000000000005,-0.003939,0.001292,-5.4000000000000005e-05,-39.869999,4.0,11.5,2a
2019-07-15_113354:880,-0.502808,-0.014221000000000001,-0.056915,-0.003573,0.002055,0.000526,-40.68,4.25,11.06,2a
2019-07-15_113354:900,-0.501801,-0.013213999999999998,-0.055389,-0.0031149999999999997,0.002574,0.0007700000000000001,-40.68,4.25,11.06,2a
2019-07-15_113354:920,-0.49823,-0.012177,-0.056427,-0.003176,0.002513,0.001045,-39.869999,4.0,11.06,2a
2019-07-15_113354:940,-0.49823,-0.012695,-0.055389,-0.0029010000000000004,0.002696,0.001228,-39.869999,4.0,11.06,2a
2019-07-15_113354:960,-0.49926800000000005,-0.012177,-0.055389,-0.00339,0.002239,0.001167,-39.869999,4.0,11.06,2a
2019-07-15_113354:980,-0.49926800000000005,-0.012695,-0.055908000000000006,-0.0037560000000000002,0.002055,0.000984,-39.560001,4.0,11.5,2a
2019-07-15_113355:000,-0.496216,-0.011687999999999999,-0.053375,-0.004213000000000001,0.00172,0.001167,-39.560001,4.0,11.5,2a
2019-07-15_113355:020,-0.49468999999999996,-0.014740000000000001,-0.053375,-0.0048850000000000005,0.0014759999999999999,0.001167,-39.560001,5.06,11.06,2a
2019-07-15_113355:040,-0.494171,-0.015228,-0.053863999999999995,-0.0051600000000000005,0.0008960000000000001,0.000404,-39.560001,5.06,11.06,2a
2019-07-15_113355:060,-0.496216,-0.016753999999999998,-0.05438200000000001,-0.005343,0.00016299999999999998,0.000404,-39.560001,5.06,11.06,2a
2019-07-15_113355:080,-0.496704,-0.016753999999999998,-0.055389,-0.0051600000000000005,-0.00044699999999999997,0.000221,-40.25,5.06,11.5,2a
2019-07-15_113355:100,-0.496704,-0.017792,-0.055908000000000006,-0.005007,-0.000722,0.00028199999999999997,-40.25,5.06,11.5,2a
2019-07-15_113355:120,-0.496216,-0.017792,-0.053863999999999995,-0.004427,-0.001118,0.000496,-40.68,4.25,11.06,2a
2019-07-15_113355:140,-0.49823,-0.019806,-0.054901,-0.003939,-0.001698,0.0007700000000000001,-40.68,4.25,11.06,2a
2019-07-15_113355:160,-0.49517799999999995,-0.017792,-0.055908000000000006,-0.0036950000000000004,-0.002156,0.0007700000000000001,-40.68,4.25,11.06,2a
2019-07-15_113355:180,-0.49926800000000005,-0.015228,-0.055908000000000006,-0.003176,-0.002827,0.00132,-39.869999,5.06,11.5,2a
2019-07-15_113355:200,-0.507904,-0.014740000000000001,-0.058960000000000005,-0.002779,-0.002431,0.001503,-39.869999,5.06,11.5,2a
2019-07-15_113355:220,-0.506378,-0.014221000000000001,-0.060486,-0.003054,-0.001057,0.000648,-40.68,5.5,11.5,2a
2019-07-15_113355:240,-0.503326,-0.013702,-0.061005,-0.0036340000000000005,7.2e-05,0.000404,-40.68,5.5,11.5,2a
2019-07-15_113355:260,-0.497742,-0.013702,-0.06253099999999999,-0.003939,0.000865,0.000221,-40.68,5.5,11.5,2a
2019-07-15_113355:280,-0.49517799999999995,-0.014740000000000001,-0.065063,-0.004397,0.000743,6.8e-05,-40.25,4.68,11.06,2a
2019-07-15_113355:300,-0.496704,-0.015228,-0.062012,-0.004488000000000001,0.000346,0.000221,-40.25,4.68,11.06,2a
2019-07-15_113355:320,-0.49926800000000005,-0.014221000000000001,-0.063538,-0.004671,-0.00011100000000000001,0.000648,-39.869999,4.25,9.56,2a
2019-07-15_113355:340,-0.497742,-0.015228,-0.062012,-0.004671,-0.000264,0.001106,-39.869999,4.25,9.56,2a
2019-07-15_113355:360,-0.496704,-0.014221000000000001,-0.06405599999999999,-0.004732,-0.000325,0.001442,-39.869999,4.25,9.56,2a
2019-07-15_113355:380,-0.49722299999999997,-0.015747,-0.065063,-0.004671,-0.000172,0.001503,-40.68,4.0,12.25,2a
2019-07-15_113355:400,-0.49926800000000005,-0.015747,-0.065063,-0.00461,-0.000264,0.001625,-40.68,4.0,12.25,2a
2019-07-15_113355:420,-0.500275,-0.017792,-0.068115,-0.004488000000000001,-0.000172,0.001381,-41.060001,3.56,9.56,2a
2019-07-15_113355:440,-0.49823,-0.019318000000000002,-0.066589,-0.004275,7.2e-05,0.000984,-41.060001,3.56,9.56,2a
2019-07-15_113355:460,-0.49975600000000003,-0.017273,-0.066589,-0.0037560000000000002,0.000407,0.0007700000000000001,-41.060001,3.56,9.56,2a
2019-07-15_113355:480,-0.498749,-0.01828,-0.065582,-0.00339,0.000621,0.00028199999999999997,-40.68,4.68,11.87,2a
2019-07-15_113355:500,-0.49926800000000005,-0.01828,-0.065063,-0.0031149999999999997,0.001018,-0.00011499999999999999,-40.68,4.68,11.87,2a
2019-07-15_113355:520,-0.49926800000000005,-0.015228,-0.067108,-0.002718,0.00114,-0.00045099999999999996,-39.560001,3.56,10.75,2a
2019-07-15_113355:540,-0.496704,-0.016266,-0.064545,-0.002657,0.001201,-0.0008470000000000001,-39.560001,3.56,10.75,2a
2019-07-15_113355:560,-0.496216,-0.016753999999999998,-0.065582,-0.002443,0.0012619999999999999,-0.000786,-39.560001,3.56,10.75,2a
2019-07-15_113355:580,-0.498749,-0.014221000000000001,-0.066071,-0.002169,0.0008039999999999999,-0.001397,-39.869999,4.25,11.5,2a
2019-07-15_113355:600,-0.500275,-0.014740000000000001,-0.065063,-0.002199,0.00114,-0.001397,-39.869999,4.25,11.5,2a
2019-07-15_113355:620,-0.500793,-0.013702,-0.065582,-0.002169,0.001201,-0.0009689999999999999,-40.25,4.68,10.75,2a
2019-07-15_113355:640,-0.502319,-0.013213999999999998,-0.063538,-0.0021079999999999996,0.001598,-0.000908,-40.25,4.68,10.75,2a
2019-07-15_113355:660,-0.49823,-0.010162000000000001,-0.063538,-0.002382,0.002239,-0.000573,-40.25,4.68,10.75,2a
2019-07-15_113355:680,-0.49722299999999997,-0.009644,-0.065582,-0.0025960000000000002,0.002574,0.000343,-39.18,4.0,11.5,2a
2019-07-15_113355:700,-0.495697,-0.008636,-0.066071,-0.003176,0.002696,0.000984,-39.18,4.0,11.5,2a
2019-07-15_113355:720,-0.49365200000000004,-0.010651,-0.06405599999999999,-0.003878,0.002177,0.0008619999999999999,-39.560001,4.0,9.56,2a
2019-07-15_113355:740,-0.490601,-0.010162000000000001,-0.063538,-0.004397,0.0016589999999999999,0.000221,-39.560001,4.0,9.56,2a
2019-07-15_113355:760,-0.49365200000000004,-0.013213999999999998,-0.065582,-0.004732,0.001018,0.0007700000000000001,-39.560001,4.0,9.56,2a
2019-07-15_113355:780,-0.495697,-0.015228,-0.067108,-0.00461,0.000743,0.000587,-40.68,4.0,10.75,2a
2019-07-15_113355:800,-0.495697,-0.016266,-0.067108,-0.004275,0.000865,7.000000000000001e-06,-40.68,4.0,10.75,2a
2019-07-15_113355:820,-0.498749,-0.015747,-0.068634,-0.0036950000000000004,0.0012619999999999999,6.8e-05,-39.560001,3.56,10.75,2a
2019-07-15_113355:840,-0.500793,-0.014740000000000001,-0.066071,-0.003512,0.0014759999999999999,0.000404,-39.560001,3.56,10.75,2a
2019-07-15_113355:860,-0.500793,-0.014740000000000001,-0.067108,-0.003054,0.002513,0.000496,-39.560001,3.56,10.75,2a
2019-07-15_113355:880,-0.49975600000000003,-0.014221000000000001,-0.067596,-0.002932,0.003032,0.000343,-40.68,4.25,9.87,2a
2019-07-15_113355:900,-0.498749,-0.013213999999999998,-0.065582,-0.0025050000000000003,0.003032,0.000221,-40.68,4.25,9.87,2a
2019-07-15_113355:920,-0.496216,-0.012695,-0.065063,-0.0028399999999999996,0.002971,0.000496,-40.25,4.68,11.06,2a
2019-07-15_113355:940,-0.49468999999999996,-0.013213999999999998,-0.063019,-0.0029010000000000004,0.002849,0.000709,-40.25,4.68,11.06,2a
2019-07-15_113355:960,-0.495697,-0.011687999999999999,-0.063538,-0.0032979999999999997,0.0024519999999999998,0.000984,-40.25,4.68,11.06,2a
2019-07-15_113355:980,-0.49517799999999995,-0.012177,-0.061005,-0.00339,0.002391,0.001503,-39.560001,4.0,11.06,2a
2019-07-15_113356:000,-0.49365200000000004,-0.012177,-0.061005,-0.003573,0.002177,0.001228,-39.560001,4.0,11.06,2a
2019-07-15_113356:020,-0.494171,-0.013702,-0.06253099999999999,-0.004,0.002177,0.000648,-39.18,3.18,11.06,2a
2019-07-15_113356:040,-0.49365200000000004,-0.014221000000000001,-0.063019,-0.004213000000000001,0.001628,0.0008619999999999999,-39.18,3.18,11.06,2a
2019-07-15_113356:060,-0.496216,-0.014740000000000001,-0.063538,-0.004213000000000001,0.001415,0.000587,-39.18,3.18,11.06,2a
2019-07-15_113356:080,-0.49823,-0.014740000000000001,-0.06253099999999999,-0.004213000000000001,0.001292,0.000526,-40.25,4.25,10.25,2a
2019-07-15_113356:100,-0.49975600000000003,-0.015228,-0.06405599999999999,-0.00403,0.0016589999999999999,0.000587,-40.25,4.25,10.25,2a
2019-07-15_113356:120,-0.49722299999999997,-0.016266,-0.063538,-0.003939,0.002055,0.000404,-38.75,4.25,10.75,2a
2019-07-15_113356:140,-0.495697,-0.015747,-0.06405599999999999,-0.0036950000000000004,0.002116,0.000404,-38.75,4.25,10.75,2a
2019-07-15_113356:160,-0.495697,-0.013213999999999998,-0.06405599999999999,-0.003512,0.002116,0.000343,-38.75,4.25,10.75,2a
2019-07-15_113356:180,-0.49517799999999995,-0.014221000000000001,-0.06405599999999999,-0.003512,0.0017809999999999998,0.000465,-39.869999,4.0,10.75,2a
2019-07-15_113356:200,-0.495697,-0.014740000000000001,-0.06405599999999999,-0.0032979999999999997,0.001842,0.000709,-39.869999,4.0,10.75,2a
2019-07-15_113356:220,-0.495697,-0.014740000000000001,-0.065063,-0.0031149999999999997,0.0014759999999999999,0.000648,-40.68,4.0,11.87,2a
2019-07-15_113356:240,-0.496216,-0.012695,-0.06253099999999999,-0.003054,0.001598,0.0007700000000000001,-40.68,4.0,11.87,2a
2019-07-15_113356:260,-0.495697,-0.014221000000000001,-0.06253099999999999,-0.003176,0.0014759999999999999,0.000984,-40.68,4.0,11.87,2a
2019-07-15_113356:280,-0.495697,-0.013702,-0.06405599999999999,-0.0034509999999999996,0.001353,0.000923,-40.68,4.25,10.25,2a
2019-07-15_113356:300,-0.495697,-0.013213999999999998,-0.063538,-0.0036340000000000005,0.001415,0.001045,-40.68,4.25,10.25,2a
2019-07-15_113356:320,-0.495697,-0.014221000000000001,-0.063538,-0.003817,0.0014759999999999999,0.000831,-40.25,4.25,9.87,2a
2019-07-15_113356:340,-0.49517799999999995,-0.013702,-0.063019,-0.004152,0.001292,0.000648,-40.25,4.25,9.87,2a
2019-07-15_113356:360,-0.495697,-0.015228,-0.06253099999999999,-0.004091,0.0009570000000000001,0.000496,-40.25,4.25,9.87,2a
2019-07-15_113356:380,-0.496704,-0.015747,-0.064545,-0.00403,0.001018,0.000343,-40.25,4.0,11.5,2a
2019-07-15_113356:400,-0.49722299999999997,-0.016266,-0.06405599999999999,-0.003939,0.001353,0.000465,-40.25,4.0,11.5,2a
2019-07-15_113356:420,-0.496704,-0.016753999999999998,-0.064545,-0.0034509999999999996,0.0014759999999999999,0.000343,-40.25,3.56,11.5,2a
2019-07-15_113356:440,-0.495697,-0.014740000000000001,-0.06149299999999999,-0.0033280000000000002,0.001415,0.000526,-40.25,3.56,11.5,2a
2019-07-15_113356:460,-0.495697,-0.013213999999999998,-0.065063,-0.003237,0.0012619999999999999,0.0007700000000000001,-40.25,3.56,11.5,2a
2019-07-15_113356:480,-0.497742,-0.013213999999999998,-0.06253099999999999,-0.0032979999999999997,0.001537,0.001228,-39.869999,4.68,10.75,2a
2019-07-15_113356:500,-0.49722299999999997,-0.013213999999999998,-0.063019,-0.0034509999999999996,0.001628,0.00132,-39.869999,4.68,10.75,2a
2019-07-15_113356:520,-0.496216,-0.012177,-0.064545,-0.003817,0.001994,0.001625,-39.560001,4.0,11.06,2a
2019-07-15_113356:540,-0.496216,-0.013702,-0.066071,-0.004152,0.0019030000000000002,0.001503,-39.560001,4.0,11.06,2a
2019-07-15_113356:560,-0.490601,-0.014740000000000001,-0.059479,-0.004549,0.0017809999999999998,0.001716,-39.560001,4.0,11.06,2a
2019-07-15_113356:580,-0.500275,-0.015747,-0.068115,-0.004732,0.001628,0.00132,-40.25,4.25,10.25,2a
2019-07-15_113356:600,-0.49365200000000004,-0.016753999999999998,-0.062012,-0.004824,0.001964,0.000923,-40.25,4.25,10.25,2a
2019-07-15_113356:620,-0.495697,-0.017273,-0.064545,-0.00461,0.001537,0.000923,-39.560001,4.25,10.75,2a
2019-07-15_113356:640,-0.496704,-0.017273,-0.06253099999999999,-0.004427,0.001598,0.00132,-39.560001,4.25,10.75,2a
2019-07-15_113356:660,-0.497742,-0.01828,-0.063538,-0.003817,0.001598,0.0008619999999999999,-39.560001,4.25,10.75,2a
2019-07-15_113356:680,-0.49823,-0.015747,-0.062012,-0.003664,0.001994,0.000648,-40.25,4.68,11.5,2a
2019-07-15_113356:700,-0.500275,-0.016753999999999998,-0.061005,-0.00339,0.002574,0.001991,-40.25,4.68,11.5,2a
2019-07-15_113356:720,-0.49316400000000005,-0.015747,-0.06253099999999999,-0.0036340000000000005,0.0029100000000000003,0.002113,-39.560001,4.25,10.75,2a
2019-07-15_113356:740,-0.494171,-0.015747,-0.06149299999999999,-0.003817,0.0023,0.001716,-39.560001,4.25,10.75,2a
2019-07-15_113356:760,-0.492126,-0.016753999999999998,-0.06405599999999999,-0.004275,0.00172,0.0008619999999999999,-39.560001,4.25,10.75,2a
2019-07-15_113356:780,-0.491638,-0.015228,-0.06405599999999999,-0.004671,0.001353,0.000709,-41.060001,4.25,11.06,2a
2019-07-15_113356:800,-0.49468999999999996,-0.01828,-0.064545,-0.0048850000000000005,0.0008039999999999999,0.001167,-41.060001,4.25,11.06,2a
2019-07-15_113356:820,-0.49365200000000004,-0.01828,-0.066071,-0.004824,0.000407,0.0007700000000000001,-38.75,4.25,10.75,2a
2019-07-15_113356:840,-0.496216,-0.01828,-0.06253099999999999,-0.0048850000000000005,0.000285,0.000404,-38.75,4.25,10.75,2a
2019-07-15_113356:860,-0.49722299999999997,-0.019806,-0.065582,-0.004427,0.00056,0.0007700000000000001,-38.75,4.25,10.75,2a
2019-07-15_113356:880,-0.49975600000000003,-0.019806,-0.065063,-0.00403,0.001018,0.001045,-39.869999,4.25,11.5,2a
2019-07-15_113356:900,-0.500793,-0.01828,-0.064545,-0.003939,0.001537,0.001045,-39.869999,4.25,11.5,2a
2019-07-15_113356:920,-0.49975600000000003,-0.01828,-0.064545,-0.003817,0.002055,0.000984,-39.869999,4.25,11.87,2a
2019-07-15_113356:940,-0.497742,-0.017792,-0.06253099999999999,-0.003664,0.002361,0.001045,-39.869999,4.25,11.87,2a
2019-07-15_113356:960,-0.496704,-0.019318000000000002,-0.064545,-0.0037560000000000002,0.0024519999999999998,0.000984,-39.18,4.25,10.25,2a
2019-07-15_113356:980,-0.497742,-0.01828,-0.063538,-0.0037560000000000002,0.0024519999999999998,0.000984,-39.18,4.25,10.25,2a
2019-07-15_113357:000,-0.495697,-0.017273,-0.063019,-0.003939,0.002513,0.001503,-39.18,4.25,10.25,2a
2019-07-15_113357:020,-0.49517799999999995,-0.01828,-0.062012,-0.004091,0.002391,0.002052,-41.369999,4.0,10.25,2a
2019-07-15_113357:040,-0.492126,-0.020325,-0.06149299999999999,-0.004397,0.0023,0.000526,-41.369999,4.0,10.25,2a
2019-07-15_113357:060,-0.49365200000000004,-0.018799,-0.06149299999999999,-0.004397,0.00172,0.00028199999999999997,-41.369999,4.0,10.25,2a
2019-07-15_113357:080,-0.49517799999999995,-0.020325,-0.063019,-0.004427,0.001628,0.0008619999999999999,-39.869999,4.25,10.75,2a
2019-07-15_113357:100,-0.49468999999999996,-0.020325,-0.063019,-0.004427,0.001353,0.000496,-39.869999,4.25,10.75,2a
2019-07-15_113357:120,-0.496704,-0.019806,-0.063019,-0.004,0.0009570000000000001,0.000648,-39.560001,4.68,12.25,2a
2019-07-15_113357:140,-0.496216,-0.020844,-0.06253099999999999,-0.003939,0.0009570000000000001,0.000587,-39.560001,4.68,12.25,2a
2019-07-15_113357:160,-0.497742,-0.01828,-0.063538,-0.0036950000000000004,0.0012619999999999999,0.000343,-39.560001,4.68,12.25,2a
2019-07-15_113357:180,-0.496704,-0.018799,-0.063019,-0.0036950000000000004,0.001537,0.000404,-39.18,4.68,11.5,2a
2019-07-15_113357:200,-0.496216,-0.018799,-0.063019,-0.0036340000000000005,0.001537,0.000221,-39.18,4.68,11.5,2a
2019-07-15_113357:220,-0.49722299999999997,-0.019318000000000002,-0.06405599999999999,-0.0034509999999999996,0.0012619999999999999,0.000129,-41.060001,4.68,10.25,2a
2019-07-15_113357:240,-0.497742,-0.019318000000000002,-0.063019,-0.0032979999999999997,0.0014759999999999999,-5.4000000000000005e-05,-41.060001,4.68,10.25,2a
2019-07-15_113357:260,-0.496704,-0.01828,-0.064545,-0.003176,0.00172,0.000129,-41.060001,4.68,10.25,2a
2019-07-15_113357:280,-0.496704,-0.017792,-0.063019,-0.003176,0.0017809999999999998,0.000404,-39.560001,4.25,9.87,2a
2019-07-15_113357:300,-0.495697,-0.017273,-0.063019,-0.0031149999999999997,0.0019030000000000002,0.000587,-39.560001,4.25,9.87,2a
2019-07-15_113357:320,-0.49975600000000003,-0.016753999999999998,-0.066071,-0.0031149999999999997,0.001842,0.000587,-40.25,3.56,10.25,2a
2019-07-15_113357:340,-0.49468999999999996,-0.016753999999999998,-0.06149299999999999,-0.003573,0.001964,0.000709,-40.25,3.56,10.25,2a
2019-07-15_113357:360,-0.495697,-0.017273,-0.06405599999999999,-0.003939,0.001994,0.000587,-40.25,3.56,10.25,2a
2019-07-15_113357:380,-0.49722299999999997,-0.017792,-0.064545,-0.00403,0.002177,0.000587,-39.869999,5.06,11.06,2a
2019-07-15_113357:400,-0.497742,-0.01828,-0.065063,-0.004336,0.001964,0.000465,-39.869999,5.06,11.06,2a
2019-07-15_113357:420,-0.496704,-0.01828,-0.06405599999999999,-0.004397,0.001994,0.000465,-40.25,4.25,10.75,2a
2019-07-15_113357:440,-0.495697,-0.019318000000000002,-0.06253099999999999,-0.004152,0.002391,0.000587,-40.25,4.25,10.75,2a
2019-07-15_113357:460,-0.496704,-0.018799,-0.06405599999999999,-0.003939,0.002177,0.000496,-40.25,4.25,10.75,2a
2019-07-15_113357:480,-0.496216,-0.018799,-0.06253099999999999,-0.003573,0.002116,0.000648,-40.25,5.06,11.06,2a
2019-07-15_113357:500,-0.49722299999999997,-0.017792,-0.062012,-0.003237,0.002177,0.000831,-40.25,5.06,11.06,2a
2019-07-15_113357:520,-0.497742,-0.019318000000000002,-0.063538,-0.00339,0.001994,0.000923,-40.25,4.68,12.25,2a
2019-07-15_113357:540,-0.497742,-0.017273,-0.062012,-0.0034509999999999996,0.002513,0.000984,-40.25,4.68,12.25,2a
2019-07-15_113357:560,-0.495697,-0.017792,-0.06149299999999999,-0.003664,0.002513,0.001045,-40.25,4.68,12.25,2a
2019-07-15_113357:580,-0.496704,-0.017792,-0.06253099999999999,-0.003939,0.002757,0.0008619999999999999,-39.869999,4.25,11.06,2a
2019-07-15_113357:600,-0.495697,-0.018799,-0.06253099999999999,-0.004213000000000001,0.002696,0.000648,-39.869999,4.25,11.06,2a
2019-07-15_113357:620,-0.496216,-0.019806,-0.06149299999999999,-0.004427,0.002635,0.000404,-39.869999,4.25,10.75,2a
2019-07-15_113357:640,-0.49468999999999996,-0.022369,-0.05996699999999999,-0.004427,0.002361,0.000465,-39.869999,4.25,10.75,2a
2019-07-15_113357:660,-0.494171,-0.022369,-0.05996699999999999,-0.004091,0.002116,0.000129,-39.869999,4.25,10.75,2a
2019-07-15_113357:680,-0.496216,-0.021851,-0.061005,-0.0036340000000000005,0.0019030000000000002,0.00016,-39.869999,5.06,11.06,2a
2019-07-15_113357:700,-0.49722299999999997,-0.019318000000000002,-0.058960000000000005,-0.002993,0.0016589999999999999,0.000221,-39.869999,5.06,11.06,2a
2019-07-15_113357:720,-0.49823,-0.016753999999999998,-0.061005,-0.002779,0.001842,0.000129,-40.25,4.68,11.06,2a
2019-07-15_113357:740,-0.498749,-0.016753999999999998,-0.057434000000000006,-0.0029010000000000004,0.002513,0.000984,-40.25,4.68,11.06,2a
2019-07-15_113357:760,-0.49722299999999997,-0.017273,-0.060486,-0.003176,0.002574,0.001258,-40.25,4.68,11.06,2a
2019-07-15_113357:780,-0.495697,-0.016753999999999998,-0.059479,-0.0037560000000000002,0.002513,0.00132,-39.869999,4.25,10.75,2a
2019-07-15_113357:800,-0.49468999999999996,-0.019806,-0.061005,-0.004091,0.001994,0.00016,-39.869999,4.25,10.75,2a
2019-07-15_113357:820,-0.494171,-0.018799,-0.06149299999999999,-0.00461,0.001628,-0.000725,-40.25,4.68,11.06,2a
2019-07-15_113357:840,-0.49517799999999995,-0.020325,-0.062012,-0.004549,0.001292,0.000221,-40.25,4.68,11.06,2a
2019-07-15_113357:860,-0.494171,-0.022858,-0.06253099999999999,-0.004275,0.0012619999999999999,6.8e-05,-40.25,4.68,11.06,2a
2019-07-15_113357:880,-0.49517799999999995,-0.021851,-0.06149299999999999,-0.0036340000000000005,0.0010789999999999999,-0.00045099999999999996,-39.560001,5.06,10.75,2a
2019-07-15_113357:900,-0.496704,-0.021332,-0.063019,-0.002993,0.001201,-0.00011499999999999999,-39.560001,5.06,10.75,2a
2019-07-15_113357:920,-0.498749,-0.019806,-0.062012,-0.002535,0.001598,7.000000000000001e-06,-39.18,4.25,10.75,2a
2019-07-15_113357:940,-0.49823,-0.019318000000000002,-0.062012,-0.002382,0.0019030000000000002,0.000465,-39.18,4.25,10.75,2a
2019-07-15_113357:960,-0.49722299999999997,-0.016753999999999998,-0.061005,-0.002321,0.0024519999999999998,0.000526,-39.18,4.25,10.75,2a
2019-07-15_113357:980,-0.496216,-0.017273,-0.060486,-0.002535,0.0024519999999999998,0.000404,-39.560001,5.5,10.25,2a
2019-07-15_113358:000,-0.497742,-0.01828,-0.05996699999999999,-0.002718,0.002513,0.000221,-39.560001,5.5,10.25,2a
2019-07-15_113358:020,-0.495697,-0.017273,-0.062012,-0.003176,0.002177,-5.4000000000000005e-05,-39.869999,5.06,11.06,2a
2019-07-15_113358:040,-0.501282,-0.018799,-0.059479,-0.00339,0.002116,7.000000000000001e-06,-39.869999,5.06,11.06,2a
2019-07-15_113358:060,-0.49975600000000003,-0.018799,-0.059479,-0.003573,0.002116,-5.4000000000000005e-05,-39.869999,5.06,11.06,2a
2019-07-15_113358:080,-0.497742,-0.019806,-0.058441,-0.0034509999999999996,0.002574,0.000465,-39.869999,4.68,11.87,2a
2019-07-15_113358:100,-0.496704,-0.019318000000000002,-0.058441,-0.0036950000000000004,0.002849,6.8e-05,-39.869999,4.68,11.87,2a
2019-07-15_113358:120,-0.49517799999999995,-0.018799,-0.056915,-0.0036340000000000005,0.002574,-0.00011499999999999999,-40.25,4.25,11.06,2a
2019-07-15_113358:140,-0.49365200000000004,-0.018799,-0.058960000000000005,-0.0036340000000000005,0.002361,0.000129,-40.25,4.25,11.06,2a
2019-07-15_113358:160,-0.49365200000000004,-0.019318000000000002,-0.058441,-0.003573,0.002239,-0.00011499999999999999,-40.25,4.25,11.06,2a
2019-07-15_113358:180,-0.494171,-0.019806,-0.058960000000000005,-0.0033280000000000002,0.00172,-0.000176,-39.869999,4.25,12.25,2a
2019-07-15_113358:200,-0.496216,-0.019318000000000002,-0.058441,-0.00339,0.001537,-0.00023700000000000001,-39.869999,4.25,12.25,2a
2019-07-15_113358:220,-0.496216,-0.019318000000000002,-0.058960000000000005,-0.003237,0.001201,-0.00045099999999999996,-40.25,5.06,11.06,2a
2019-07-15_113358:240,-0.496704,-0.01828,-0.058441,-0.0031149999999999997,0.001353,-0.00045099999999999996,-40.25,5.06,11.06,2a
2019-07-15_113358:260,-0.49722299999999997,-0.01828,-0.058441,-0.0031149999999999997,0.001415,-0.000389,-40.25,5.06,11.06,2a
2019-07-15_113358:280,-0.497742,-0.017792,-0.05996699999999999,-0.002932,0.001353,-0.000328,-39.869999,4.25,11.5,2a
2019-07-15_113358:300,-0.49722299999999997,-0.017273,-0.05996699999999999,-0.002932,0.001201,-0.00045099999999999996,-39.869999,4.25,11.5,2a
2019-07-15_113358:320,-0.496216,-0.015228,-0.05996699999999999,-0.002993,0.0014759999999999999,-0.00011499999999999999,-39.869999,4.68,11.5,2a
2019-07-15_113358:340,-0.495697,-0.015747,-0.058960000000000005,-0.0032979999999999997,0.001598,0.000221,-39.869999,4.68,11.5,2a
2019-07-15_113358:360,-0.496704,-0.014740000000000001,-0.058441,-0.00339,0.0014759999999999999,0.000343,-39.869999,4.68,11.5,2a
2019-07-15_113358:380,-0.496704,-0.015228,-0.058441,-0.003664,0.001628,0.00028199999999999997,-39.18,4.68,10.75,2a
2019-07-15_113358:400,-0.49722299999999997,-0.014740000000000001,-0.05996699999999999,-0.00403,0.001598,0.00028199999999999997,-39.18,4.68,10.75,2a
2019-07-15_113358:420,-0.496704,-0.015747,-0.060486,-0.004091,0.0014759999999999999,0.000404,-41.060001,4.68,11.5,2a
2019-07-15_113358:440,-0.49823,-0.015747,-0.05996699999999999,-0.004275,0.001537,0.000465,-41.060001,4.68,11.5,2a
2019-07-15_113358:460,-0.49823,-0.016753999999999998,-0.060486,-0.004213000000000001,0.0019030000000000002,0.000404,-41.060001,4.68,11.5,2a
2019-07-15_113358:480,-0.49823,-0.017792,-0.061005,-0.004152,0.0019030000000000002,0.00028199999999999997,-40.68,4.25,11.06,2a
2019-07-15_113358:500,-0.495697,-0.01828,-0.05996699999999999,-0.004,0.0019030000000000002,0.000129,-40.68,4.25,11.06,2a
2019-07-15_113358:520,-0.496216,-0.017792,-0.05996699999999999,-0.0036950000000000004,0.002055,0.00016,-40.25,4.25,11.5,2a
2019-07-15_113358:540,-0.496216,-0.019318000000000002,-0.060486,-0.0032979999999999997,0.0016589999999999999,0.000129,-40.25,4.25,11.5,2a
2019-07-15_113358:560,-0.496704,-0.016266,-0.060486,-0.003054,0.00172,0.000465,-40.25,4.25,11.5,2a
2019-07-15_113358:580,-0.496704,-0.015747,-0.060486,-0.0029010000000000004,0.0017809999999999998,0.000404,-39.560001,5.5,10.75,2a
2019-07-15_113358:600,-0.497742,-0.014740000000000001,-0.059479,-0.0031149999999999997,0.002116,0.000465,-39.560001,5.5,10.75,2a
2019-07-15_113358:620,-0.495697,-0.014740000000000001,-0.059479,-0.0034509999999999996,0.001842,0.000496,-41.060001,3.56,10.75,2a
2019-07-15_113358:640,-0.495697,-0.015228,-0.058960000000000005,-0.003664,0.0016589999999999999,0.000526,-41.060001,3.56,10.75,2a
2019-07-15_113358:660,-0.495697,-0.016753999999999998,-0.057953,-0.003817,0.001598,0.000587,-41.060001,3.56,10.75,2a
2019-07-15_113358:680,-0.49722299999999997,-0.015228,-0.05996699999999999,-0.004152,0.001537,0.000587,-40.25,4.25,11.5,2a
2019-07-15_113358:700,-0.49823,-0.016753999999999998,-0.058441,-0.004213000000000001,0.001842,0.000526,-40.25,4.25,11.5,2a
2019-07-15_113358:720,-0.49722299999999997,-0.016266,-0.057434000000000006,-0.004152,0.00172,0.000709,-39.869999,4.68,11.06,2a
2019-07-15_113358:740,-0.49468999999999996,-0.017792,-0.057434000000000006,-0.00403,0.001415,0.000496,-39.869999,4.68,11.06,2a
2019-07-15_113358:760,-0.49517799999999995,-0.017273,-0.058441,-0.004,0.001018,0.000526,-39.869999,4.68,11.06,2a
2019-07-15_113358:780,-0.496216,-0.018799,-0.058960000000000005,-0.003817,0.0009570000000000001,0.00028199999999999997,-39.560001,4.68,11.87,2a
2019-07-15_113358:800,-0.498749,-0.01828,-0.059479,-0.003573,0.0008960000000000001,0.000465,-39.560001,4.68,11.87,2a
2019-07-15_113358:820,-0.49823,-0.016266,-0.05996699999999999,-0.003054,0.001201,0.000923,-39.869999,4.25,10.25,2a
2019-07-15_113358:840,-0.498749,-0.017792,-0.060486,-0.003512,0.001537,0.000831,-39.869999,4.25,10.25,2a
2019-07-15_113358:860,-0.496704,-0.014740000000000001,-0.056915,-0.003512,0.0019030000000000002,0.0018989999999999999,-39.869999,4.25,10.25,2a
2019-07-15_113358:880,-0.49975600000000003,-0.016753999999999998,-0.058960000000000005,-0.004091,0.001964,0.001442,-39.560001,4.68,10.25,2a
2019-07-15_113358:900,-0.495697,-0.015228,-0.058441,-0.004549,0.0016589999999999999,0.001228,-39.560001,4.68,10.25,2a
2019-07-15_113358:920,-0.49517799999999995,-0.016753999999999998,-0.061005,-0.004946,0.001415,0.000709,-39.869999,4.25,11.87,2a
2019-07-15_113358:940,-0.49468999999999996,-0.017273,-0.060486,-0.004946,0.0008039999999999999,6.8e-05,-39.869999,4.25,11.87,2a
2019-07-15_113358:960,-0.49517799999999995,-0.017273,-0.061005,-0.004793,0.000468,0.0008619999999999999,-39.869999,4.25,11.87,2a
2019-07-15_113358:980,-0.496704,-0.020844,-0.062012,-0.004397,0.000743,0.000831,-39.869999,4.68,11.5,2a
2019-07-15_113359:000,-0.498749,-0.019318000000000002,-0.06149299999999999,-0.003817,0.0009570000000000001,0.00028199999999999997,-39.869999,4.68,11.5,2a
2019-07-15_113359:020,-0.49823,-0.019318000000000002,-0.06253099999999999,-0.003512,0.001353,0.000465,-39.869999,4.0,10.75,2a
2019-07-15_113359:040,-0.49823,-0.017792,-0.063019,-0.003237,0.0016589999999999999,0.0007700000000000001,-39.869999,4.0,10.75,2a
2019-07-15_113359:060,-0.49823,-0.017273,-0.063538,-0.003054,0.001994,0.000923,-39.869999,4.0,10.75,2a
2019-07-15_113359:080,-0.49975600000000003,-0.016266,-0.062012,-0.003237,0.002361,0.001106,-39.869999,4.68,11.87,2a
2019-07-15_113359:100,-0.49926800000000005,-0.016753999999999998,-0.059479,-0.0033280000000000002,0.002635,0.0008619999999999999,-39.869999,4.68,11.87,2a
2019-07-15_113359:120,-0.49823,-0.015747,-0.060486,-0.003573,0.002757,0.000831,-40.25,4.68,11.06,2a
2019-07-15_113359:140,-0.49517799999999995,-0.017273,-0.05996699999999999,-0.0036340000000000005,0.0024519999999999998,0.001106,-40.25,4.68,11.06,2a
2019-07-15_113359:160,-0.497742,-0.017273,-0.058441,-0.003817,0.002239,0.001106,-40.25,4.68,11.06,2a
2019-07-15_113359:180,-0.498749,-0.017273,-0.058441,-0.004091,0.0024519999999999998,0.001442,-39.560001,4.68,11.06,2a
2019-07-15_113359:200,-0.49517799999999995,-0.01828,-0.055908000000000006,-0.004152,0.002574,0.001564,-39.560001,4.68,11.06,2a
2019-07-15_113359:220,-0.49365200000000004,-0.020325,-0.056915,-0.004152,0.002513,0.0007700000000000001,-39.869999,5.06,10.25,2a
2019-07-15_113359:240,-0.49365200000000004,-0.020325,-0.057434000000000006,-0.004275,0.0019030000000000002,0.000496,-39.869999,5.06,10.25,2a
2019-07-15_113359:260,-0.495697,-0.019806,-0.057434000000000006,-0.004213000000000001,0.0017809999999999998,0.000526,-39.869999,5.06,10.25,2a
2019-07-15_113359:280,-0.495697,-0.021332,-0.059479,-0.00403,0.0014759999999999999,6.8e-05,-39.869999,4.25,11.5,2a
2019-07-15_113359:300,-0.495697,-0.019806,-0.058441,-0.0036950000000000004,0.001353,0.000129,-39.869999,4.25,11.5,2a
2019-07-15_113359:320,-0.496704,-0.019806,-0.058441,-0.0036340000000000005,0.001201,-0.00011499999999999999,-39.869999,5.06,11.06,2a
2019-07-15_113359:340,-0.49722299999999997,-0.01828,-0.057953,-0.0036340000000000005,0.001353,6.8e-05,-39.869999,5.06,11.06,2a
2019-07-15_113359:360,-0.497742,-0.019318000000000002,-0.057953,-0.0034509999999999996,0.001537,0.000343,-39.869999,5.06,11.06,2a
2019-07-15_113359:380,-0.49823,-0.018799,-0.059479,-0.003512,0.0014759999999999999,0.00028199999999999997,-39.560001,5.06,11.06,2a
2019-07-15_113359:400,-0.496704,-0.016753999999999998,-0.058441,-0.003512,0.001415,0.000465,-39.560001,5.06,11.06,2a
2019-07-15_113359:420,-0.496216,-0.016753999999999998,-0.059479,-0.003573,0.001415,0.000526,-40.25,4.25,10.75,2a
2019-07-15_113359:440,-0.495697,-0.018799,-0.05996699999999999,-0.003664,0.001415,0.000465,-40.25,4.25,10.75,2a
2019-07-15_113359:460,-0.49722299999999997,-0.018799,-0.057953,-0.0034509999999999996,0.001353,0.000587,-40.25,4.25,10.75,2a
2019-07-15_113359:480,-0.497742,-0.01828,-0.059479,-0.003512,0.001415,0.000465,-40.68,4.68,10.75,2a
2019-07-15_113359:500,-0.49722299999999997,-0.017792,-0.058960000000000005,-0.0036340000000000005,0.0014759999999999999,0.000496,-40.68,4.68,10.75,2a
2019-07-15_113359:520,-0.495697,-0.01828,-0.061005,-0.0036340000000000005,0.0014759999999999999,0.000526,-40.25,4.25,11.5,2a
2019-07-15_113359:540,-0.495697,-0.016753999999999998,-0.060486,-0.0036950000000000004,0.001537,0.000221,-40.25,4.25,11.5,2a
2019-07-15_113359:560,-0.496704,-0.017792,-0.059479,-0.0037560000000000002,0.001292,-5.4000000000000005e-05,-40.25,4.25,11.5,2a
2019-07-15_113359:580,-0.498749,-0.016753999999999998,-0.059479,-0.004488000000000001,0.001292,-0.000725,-39.869999,4.68,11.06,2a
2019-07-15_113359:600,-0.49823,-0.016266,-0.059479,-0.004793,0.001353,-0.00023700000000000001,-39.869999,4.68,11.06,2a
2019-07-15_113359:620,-0.49823,-0.019318000000000002,-0.05996699999999999,-0.004793,0.0016589999999999999,7.000000000000001e-06,-39.869999,4.68,11.06,2a
2019-07-15_113359:640,-0.496704,-0.019318000000000002,-0.058441,-0.004793,0.0019030000000000002,-0.00011499999999999999,-40.25,4.25,11.5,2a
2019-07-15_113359:660,-0.497742,-0.019806,-0.058441,-0.004336,0.0019030000000000002,0.00016,-40.25,4.25,11.5,2a
2019-07-15_113359:680,-0.49823,-0.019318000000000002,-0.059479,-0.003939,0.0019030000000000002,0.000343,-40.25,4.25,10.75,2a
2019-07-15_113359:700,-0.49823,-0.017792,-0.057953,-0.003512,0.001964,0.000221,-40.25,4.25,10.75,2a
2019-07-15_113359:720,-0.49722299999999997,-0.017792,-0.059479,-0.00339,0.001842,0.00016,-40.25,4.25,10.75,2a
2019-07-15_113359:740,-0.496704,-0.016753999999999998,-0.058441,-0.0036340000000000005,0.002116,0.00016,-39.869999,4.25,10.75,2a
2019-07-15_113359:760,-0.496704,-0.016266,-0.057434000000000006,-0.003512,0.001994,0.000343,-39.869999,4.25,10.75,2a
2019-07-15_113359:780,-0.49823,-0.017273,-0.057434000000000006,-0.003939,0.002116,0.00028199999999999997,-39.869999,4.68,10.75,2a
2019-07-15_113359:800,-0.496704,-0.017273,-0.056427,-0.004152,0.001994,0.000221,-39.869999,4.68,10.75,2a
2019-07-15_113359:820,-0.495697,-0.017792,-0.056915,-0.004427,0.0023,6.8e-05,-39.560001,4.0,11.5,2a
2019-07-15_113359:840,-0.496216,-0.016753999999999998,-0.056915,-0.00461,0.002116,6.8e-05,-39.560001,4.0,11.5,2a
2019-07-15_113359:860,-0.496216,-0.016753999999999998,-0.057953,-0.004549,0.001842,-0.00011499999999999999,-39.560001,4.0,11.5,2a
2019-07-15_113359:880,-0.496704,-0.017273,-0.059479,-0.004213000000000001,0.001598,-5.4000000000000005e-05,-39.560001,5.06,11.06,2a
2019-07-15_113359:900,-0.49926800000000005,-0.017792,-0.057953,-0.004091,0.0016589999999999999,6.8e-05,-39.560001,5.06,11.06,2a
2019-07-15_113359:920,-0.497742,-0.016753999999999998,-0.058960000000000005,-0.0036950000000000004,0.0017809999999999998,-0.00045099999999999996,-39.560001,5.06,11.06,2a
2019-07-15_113359:940,-0.497742,-0.016266,-0.057434000000000006,-0.0037560000000000002,0.002239,-0.00045099999999999996,-39.869999,4.68,11.87,2a
2019-07-15_113359:960,-0.49823,-0.017792,-0.056427,-0.0037560000000000002,0.002391,0.000404,-39.869999,4.68,11.87,2a
2019-07-15_113359:980,-0.49468999999999996,-0.017792,-0.057953,-0.0037560000000000002,0.002574,0.000343,-39.18,5.5,10.75,2a
2019-07-15_113400:000,-0.49468999999999996,-0.017273,-0.056427,-0.0034509999999999996,0.0019030000000000002,0.000343,-39.18,5.5,10.75,2a
2019-07-15_113400:020,-0.494171,-0.01828,-0.058960000000000005,-0.003237,0.0014759999999999999,-0.000908,-39.18,5.5,10.75,2a
2019-07-15_113400:040,-0.49316400000000005,-0.016753999999999998,-0.058441,-0.003237,0.0009570000000000001,-0.0013050000000000002,-40.25,4.25,11.5,2a
2019-07-15_113400:060,-0.49468999999999996,-0.017273,-0.059479,-0.002932,0.000499,-0.000389,-40.25,4.25,11.5,2a
2019-07-15_113400:080,-0.496216,-0.016266,-0.060486,-0.002993,0.00022400000000000002,-0.001,-40.25,4.68,11.5,2a
2019-07-15_113400:100,-0.49722299999999997,-0.013702,-0.059479,-0.002779,0.000346,-0.001,-40.25,4.68,11.5,2a
2019-07-15_113400:120,-0.49823,-0.013213999999999998,-0.061005,-0.002779,0.000621,-0.000664,-40.25,4.68,11.5,2a
2019-07-15_113400:140,-0.49823,-0.012177,-0.060486,-0.0029010000000000004,0.001018,-0.00045099999999999996,-38.75,4.68,11.06,2a
2019-07-15_113400:160,-0.49722299999999997,-0.011169,-0.056427,-0.003237,0.00114,-5.4000000000000005e-05,-38.75,4.68,11.06,2a
2019-07-15_113400:180,-0.49468999999999996,-0.011169,-0.057434000000000006,-0.0033280000000000002,0.001353,0.000343,-40.25,4.25,11.06,2a
2019-07-15_113400:200,-0.49468999999999996,-0.011169,-0.056915,-0.003573,0.001201,0.000923,-40.25,4.25,11.06,2a
2019-07-15_113400:220,-0.49517799999999995,-0.011169,-0.057953,-0.003878,0.000682,0.001991,-40.25,4.25,11.06,2a
2019-07-15_113400:240,-0.496216,-0.013213999999999998,-0.056427,-0.004336,0.000346,0.002449,-39.560001,5.75,10.25,2a
2019-07-15_113400:260,-0.501282,-0.015228,-0.059479,-0.004732,0.000407,0.00251,-39.560001,5.75,10.25,2a
2019-07-15_113400:280,-0.498749,-0.017273,-0.058960000000000005,-0.0051600000000000005,0.000743,0.00251,-39.869999,4.25,11.5,2a
2019-07-15_113400:300,-0.497742,-0.021332,-0.058960000000000005,-0.0051600000000000005,0.001292,0.001106,-39.869999,4.25,11.5,2a
2019-07-15_113400:320,-0.495697,-0.020844,-0.060486,-0.005129,0.001353,-0.0008470000000000001,-39.869999,4.25,11.5,2a
2019-07-15_113400:340,-0.49468999999999996,-0.020844,-0.061005,-0.00461,0.0009570000000000001,-0.000725,-40.25,5.06,11.06,2a
2019-07-15_113400:360,-0.494171,-0.019806,-0.061005,-0.004,0.000499,-0.000664,-40.25,5.06,11.06,2a
2019-07-15_113400:380,-0.495697,-0.01828,-0.061005,-0.003512,0.000499,-0.000908,-39.560001,4.68,11.06,2a
2019-07-15_113400:400,-0.498749,-0.017273,-0.061005,-0.002932,0.000682,-0.000634,-39.560001,4.68,11.06,2a
2019-07-15_113400:420,-0.49823,-0.014740000000000001,-0.061005,-0.002657,0.0008960000000000001,-0.000573,-39.560001,4.68,11.06,2a
2019-07-15_113400:440,-0.49722299999999997,-0.014221000000000001,-0.062012,-0.0025960000000000002,0.0010789999999999999,-0.00011499999999999999,-40.25,5.06,10.75,2a
2019-07-15_113400:460,-0.496704,-0.013213999999999998,-0.061005,-0.002932,0.001201,0.000221,-40.25,5.06,10.75,2a
2019-07-15_113400:480,-0.49722299999999997,-0.013213999999999998,-0.062012,-0.0033280000000000002,0.001201,0.000343,-40.68,4.68,11.5,2a
2019-07-15_113400:500,-0.49823,-0.013213999999999998,-0.06149299999999999,-0.0036950000000000004,0.0012619999999999999,0.000343,-40.68,4.68,11.5,2a
2019-07-15_113400:520,-0.49823,-0.014221000000000001,-0.06253099999999999,-0.00403,0.001628,0.000404,-40.68,4.68,11.5,2a
2019-07-15_113400:540,-0.497742,-0.015228,-0.06253099999999999,-0.004275,0.0019030000000000002,0.000465,-40.25,4.68,10.75,2a
2019-07-15_113400:560,-0.49823,-0.015228,-0.061005,-0.004397,0.0019030000000000002,0.000526,-40.25,4.68,10.75,2a
2019-07-15_113400:580,-0.49722299999999997,-0.016266,-0.063019,-0.004397,0.001842,0.000923,-39.560001,4.0,10.75,2a
2019-07-15_113400:600,-0.496704,-0.016266,-0.061005,-0.004397,0.002177,0.000984,-39.560001,4.0,10.75,2a
2019-07-15_113400:620,-0.495697,-0.015228,-0.061005,-0.004488000000000001,0.002239,0.0008619999999999999,-39.560001,4.0,10.75,2a
2019-07-15_113400:640,-0.496216,-0.015747,-0.060486,-0.004549,0.002055,0.000831,-39.560001,4.25,11.5,2a
2019-07-15_113400:660,-0.49468999999999996,-0.015747,-0.060486,-0.004732,0.0019030000000000002,0.000709,-39.560001,4.25,11.5,2a
2019-07-15_113400:680,-0.495697,-0.014740000000000001,-0.061005,-0.004793,0.002116,0.000831,-40.25,4.68,11.06,2a
2019-07-15_113400:700,-0.498749,-0.015228,-0.05996699999999999,-0.004671,0.001964,0.000923,-40.25,4.68,11.06,2a
2019-07-15_113400:720,-0.498749,-0.017792,-0.061005,-0.004336,0.001842,0.000526,-40.25,4.68,11.06,2a
2019-07-15_113400:740,-0.498749,-0.017792,-0.061005,-0.004152,0.002055,0.00016,-38.75,4.68,10.75,2a
2019-07-15_113400:760,-0.49823,-0.016266,-0.06149299999999999,-0.0037560000000000002,0.0023,-0.00011499999999999999,-38.75,4.68,10.75,2a
2019-07-15_113400:780,-0.49823,-0.017273,-0.059479,-0.0036340000000000005,0.002513,-0.000176,-39.869999,4.68,10.75,2a
2019-07-15_113400:800,-0.49722299999999997,-0.015747,-0.058960000000000005,-0.0032979999999999997,0.002757,-0.000176,-39.869999,4.68,10.75,2a
2019-07-15_113400:820,-0.495697,-0.015747,-0.060486,-0.003054,0.002788,-0.000176,-39.869999,4.68,10.75,2a
2019-07-15_113400:840,-0.49468999999999996,-0.015228,-0.058960000000000005,-0.003054,0.002849,-0.00023700000000000001,-31.5,49.25,2.75,2a
2019-07-15_113400:860,-0.496704,-0.012695,-0.060486,-0.0033280000000000002,0.002635,-0.00011499999999999999,-31.5,49.25,2.75,2a
2019-07-15_113400:880,-0.500275,-0.012695,-0.059479,-0.003512,0.002361,6.8e-05,-31.059998999999998,49.68,1.87,2a
2019-07-15_113400:900,-0.500275,-0.010651,-0.058441,-0.004,0.002574,0.000221,-31.059998999999998,49.68,1.87,2a
2019-07-15_113400:920,-0.49926800000000005,-0.012177,-0.058441,-0.00461,0.003032,0.000587,-31.059998999999998,49.68,1.87,2a
2019-07-15_113400:940,-0.496216,-0.013213999999999998,-0.059479,-0.005068,0.0031850000000000003,0.000648,-31.5,49.68,4.25,2a
2019-07-15_113400:960,-0.49468999999999996,-0.014221000000000001,-0.058960000000000005,-0.005404,0.003368,0.000526,-31.5,49.68,4.25,2a
2019-07-15_113400:980,-0.49316400000000005,-0.015747,-0.058960000000000005,-0.005404,0.002971,0.000465,-18.75,28.75,1.37,2a
2019-07-15_113401:000,-0.495697,-0.017273,-0.055908000000000006,-0.005007,0.002635,6.8e-05,-18.75,28.75,1.37,2a
2019-07-15_113401:020,-0.49823,-0.016753999999999998,-0.057953,-0.004275,0.002757,0.000129,-18.75,28.75,1.37,2a
2019-07-15_113401:040,-0.498749,-0.01828,-0.057953,-0.003664,0.002696,6.8e-05,-19.5,29.559998999999998,2.37,2a
2019-07-15_113401:060,-0.495697,-0.014740000000000001,-0.056427,-0.0032979999999999997,0.002971,0.000221,-19.5,29.559998999999998,2.37,2a
2019-07-15_113401:080,-0.49823,-0.015747,-0.055908000000000006,-0.0028399999999999996,0.002788,0.001106,-18.0,29.25,0.75,2a
2019-07-15_113401:100,-0.49468999999999996,-0.013213999999999998,-0.052338,-0.0028399999999999996,0.002696,0.001167,-18.0,29.25,0.75,2a
2019-07-15_113401:120,-0.49365200000000004,-0.013213999999999998,-0.053863999999999995,-0.003054,0.0019030000000000002,0.001106,-18.0,29.25,0.75,2a
2019-07-15_113401:140,-0.490601,-0.014221000000000001,-0.053863999999999995,-0.0032979999999999997,0.00114,-0.000267,-19.18,29.25,3.0,2a
2019-07-15_113401:160,-0.49468999999999996,-0.012177,-0.055389,-0.0036950000000000004,0.00022400000000000002,-0.001183,-19.18,29.25,3.0,2a
2019-07-15_113401:180,-0.497742,-0.014740000000000001,-0.055908000000000006,-0.003817,-0.000264,-0.000176,-18.75,30.0,2.56,2a
2019-07-15_113401:200,-0.498749,-0.014740000000000001,-0.056427,-0.003878,-0.00011100000000000001,-0.000573,-18.75,30.0,2.56,2a
2019-07-15_113401:220,-0.49975600000000003,-0.013702,-0.057434000000000006,-0.0036340000000000005,7.2e-05,-0.000786,-18.75,30.0,2.56,2a
2019-07-15_113401:240,-0.49975600000000003,-0.013702,-0.058441,-0.0031149999999999997,0.000499,-5.4000000000000005e-05,-19.559998999999998,30.25,2.87,2a
2019-07-15_113401:260,-0.500793,-0.012177,-0.058441,-0.003237,0.0009570000000000001,0.000343,-19.559998999999998,30.25,2.87,2a
2019-07-15_113401:280,-0.500793,-0.011687999999999999,-0.058441,-0.003237,0.001353,0.0007700000000000001,-18.68,29.370001000000002,1.68,2a
2019-07-15_113401:300,-0.49926800000000005,-0.011169,-0.058441,-0.0036340000000000005,0.001964,0.0008619999999999999,-18.68,29.370001000000002,1.68,2a
2019-07-15_113401:320,-0.496704,-0.012177,-0.058960000000000005,-0.003878,0.002116,0.000831,-18.68,29.370001000000002,1.68,2a
2019-07-15_113401:340,-0.495697,-0.012695,-0.057953,-0.004275,0.001994,0.0007700000000000001,-18.370001000000002,29.75,2.06,2a
2019-07-15_113401:360,-0.49468999999999996,-0.014221000000000001,-0.058960000000000005,-0.00461,0.0016589999999999999,0.000648,-18.370001000000002,29.75,2.06,2a
2019-07-15_113401:380,-0.496216,-0.014740000000000001,-0.056427,-0.004732,0.001415,0.000526,-18.68,29.370001000000002,0.87,2a
2019-07-15_113401:400,-0.496704,-0.015228,-0.055389,-0.004732,0.001537,0.000526,-18.68,29.370001000000002,0.87,2a
2019-07-15_113401:420,-0.49722299999999997,-0.015747,-0.058441,-0.004549,0.0017809999999999998,0.0008619999999999999,-18.68,29.370001000000002,0.87,2a
2019-07-15_113401:440,-0.49365200000000004,-0.016266,-0.057434000000000006,-0.004275,0.001842,0.000648,-19.059998999999998,28.68,1.37,2a
2019-07-15_113401:460,-0.494171,-0.016753999999999998,-0.056915,-0.004,0.0012619999999999999,7.000000000000001e-06,-19.059998999999998,28.68,1.37,2a
2019-07-15_113401:480,-0.49722299999999997,-0.016266,-0.057953,-0.0036340000000000005,0.000865,7.000000000000001e-06,-19.870001000000002,29.75,1.68,2a
2019-07-15_113401:500,-0.49823,-0.015747,-0.057434000000000006,-0.0033280000000000002,0.0008960000000000001,-0.000328,-19.870001000000002,29.75,1.68,2a
2019-07-15_113401:520,-0.49823,-0.016266,-0.05996699999999999,-0.0031149999999999997,0.00114,-0.000634,-19.870001000000002,29.75,1.68,2a
2019-07-15_113401:540,-0.497742,-0.014740000000000001,-0.060486,-0.002718,0.001201,-0.00045099999999999996,-18.370001000000002,30.870001000000002,1.68,2a
2019-07-15_113401:560,-0.49823,-0.013213999999999998,-0.057953,-0.0028399999999999996,0.0012619999999999999,-0.000664,-18.370001000000002,30.870001000000002,1.68,2a
2019-07-15_113401:580,-0.500275,-0.011169,-0.061005,-0.002779,0.001628,-0.000634,-19.059998999999998,29.75,1.37,2a
2019-07-15_113401:600,-0.497742,-0.010651,-0.058960000000000005,-0.0029010000000000004,0.001994,-0.000634,-19.059998999999998,29.75,1.37,2a
2019-07-15_113401:620,-0.49722299999999997,-0.011169,-0.05996699999999999,-0.003176,0.002239,-0.000267,-19.059998999999998,29.75,1.37,2a
2019-07-15_113401:640,-0.498749,-0.011169,-0.058441,-0.0032979999999999997,0.002239,-0.00023700000000000001,-19.5,29.370001000000002,1.68,2a
2019-07-15_113401:660,-0.49722299999999997,-0.011687999999999999,-0.058960000000000005,-0.0033280000000000002,0.002391,7.000000000000001e-06,-19.5,29.370001000000002,1.68,2a
2019-07-15_113401:680,-0.496216,-0.010651,-0.057953,-0.0033280000000000002,0.002239,0.00028199999999999997,-18.68,29.370001000000002,1.37,2a
2019-07-15_113401:700,-0.495697,-0.011169,-0.056915,-0.0034509999999999996,0.001994,0.000526,-18.68,29.370001000000002,1.37,2a
2019-07-15_113401:720,-0.496216,-0.010651,-0.058960000000000005,-0.003512,0.0019030000000000002,0.000648,-18.68,29.370001000000002,1.37,2a
2019-07-15_113401:740,-0.49823,-0.011687999999999999,-0.058960000000000005,-0.003573,0.0017809999999999998,0.000984,-19.059998999999998,29.75,2.06,2a
2019-07-15_113401:760,-0.49722299999999997,-0.012177,-0.058960000000000005,-0.003573,0.001842,0.0007700000000000001,-19.059998999999998,29.75,2.06,2a
2019-07-15_113401:780,-0.497742,-0.012695,-0.057953,-0.003664,0.001994,0.000404,-18.68,29.75,1.68,2a
2019-07-15_113401:800,-0.49722299999999997,-0.012177,-0.057434000000000006,-0.003573,0.002116,0.000496,-18.68,29.75,1.68,2a
2019-07-15_113401:820,-0.49722299999999997,-0.013213999999999998,-0.057953,-0.0036950000000000004,0.001994,0.00028199999999999997,-18.68,29.75,1.68,2a
2019-07-15_113401:840,-0.496216,-0.014740000000000001,-0.058441,-0.003512,0.002055,7.000000000000001e-06,-18.68,29.370001000000002,1.68,2a
2019-07-15_113401:860,-0.496704,-0.014221000000000001,-0.058441,-0.0031149999999999997,0.002116,-5.4000000000000005e-05,-18.68,29.370001000000002,1.68,2a
2019-07-15_113401:880,-0.49722299999999997,-0.013702,-0.057953,-0.002718,0.001994,-0.000176,-18.0,30.18,0.87,2a
2019-07-15_113401:900,-0.49823,-0.012177,-0.056915,-0.002443,0.00172,0.000129,-18.0,30.18,0.87,2a
2019-07-15_113401:920,-0.497742,-0.011687999999999999,-0.056427,-0.002169,0.001964,0.000465,-18.0,30.18,0.87,2a
2019-07-15_113401:940,-0.49722299999999997,-0.010162000000000001,-0.056915,-0.002382,0.001994,0.000496,-18.370001000000002,30.18,1.68,2a
2019-07-15_113401:960,-0.49722299999999997,-0.009644,-0.056915,-0.002657,0.001842,0.000831,-18.370001000000002,30.18,1.68,2a
2019-07-15_113401:980,-0.496704,-0.009125,-0.056427,-0.00339,0.002055,0.000831,-19.059998999999998,29.059998999999998,2.5,2a
2019-07-15_113402:000,-0.49517799999999995,-0.008636,-0.055908000000000006,-0.00403,0.001994,0.000923,-19.059998999999998,29.059998999999998,2.5,2a
2019-07-15_113402:020,-0.496216,-0.010162000000000001,-0.056427,-0.004336,0.0017809999999999998,0.000984,-19.059998999999998,29.059998999999998,2.5,2a
2019-07-15_113402:040,-0.49722299999999997,-0.011169,-0.055389,-0.004671,0.001628,0.0008619999999999999,-18.370001000000002,29.75,2.06,2a
2019-07-15_113402:060,-0.49975600000000003,-0.013213999999999998,-0.056915,-0.004732,0.001598,0.001167,-18.370001000000002,29.75,2.06,2a
2019-07-15_113402:080,-0.49975600000000003,-0.014221000000000001,-0.056427,-0.00461,0.00172,0.001503,-19.059998999999998,29.75,1.37,2a
2019-07-15_113402:100,-0.498749,-0.013213999999999998,-0.055389,-0.004549,0.001964,0.001381,-19.059998999999998,29.75,1.37,2a
2019-07-15_113402:120,-0.49823,-0.015228,-0.056427,-0.004397,0.002177,0.001258,-19.059998999999998,29.75,1.37,2a
2019-07-15_113402:140,-0.496704,-0.014740000000000001,-0.056427,-0.004213000000000001,0.002116,0.000984,-18.68,29.059998999999998,2.5,2a
2019-07-15_113402:160,-0.496704,-0.013702,-0.056427,-0.00403,0.001964,0.000923,-18.68,29.059998999999998,2.5,2a
2019-07-15_113402:180,-0.49722299999999997,-0.015228,-0.056427,-0.0037560000000000002,0.0017809999999999998,0.000587,-19.059998999999998,29.370001000000002,0.87,2a
2019-07-15_113402:200,-0.49722299999999997,-0.013702,-0.055389,-0.003664,0.0019030000000000002,0.000587,-19.059998999999998,29.370001000000002,0.87,2a
2019-07-15_113402:220,-0.497742,-0.014221000000000001,-0.056915,-0.003512,0.001964,0.000984,-19.059998999999998,29.370001000000002,0.87,2a
2019-07-15_113402:240,-0.498749,-0.014221000000000001,-0.055908000000000006,-0.0031149999999999997,0.002055,0.000404,-18.370001000000002,29.75,2.06,2a
2019-07-15_113402:260,-0.496216,-0.012695,-0.05438200000000001,-0.0033280000000000002,0.002513,0.001167,-18.370001000000002,29.75,2.06,2a
2019-07-15_113402:280,-0.500793,-0.014221000000000001,-0.054901,-0.003512,0.002513,0.001716,-19.5,29.75,3.25,2a
2019-07-15_113402:300,-0.496216,-0.012695,-0.053863999999999995,-0.004,0.0029100000000000003,0.001777,-19.5,29.75,3.25,2a
2019-07-15_113402:320,-0.495697,-0.015228,-0.055908000000000006,-0.004488000000000001,0.002513,0.001777,-19.5,29.75,3.25,2a
2019-07-15_113402:340,-0.49468999999999996,-0.014740000000000001,-0.055908000000000006,-0.004732,0.001842,-0.000176,-18.370001000000002,29.370001000000002,2.37,2a
2019-07-15_113402:360,-0.49468999999999996,-0.013702,-0.055389,-0.0048850000000000005,0.001415,0.000129,-18.370001000000002,29.370001000000002,2.37,2a
2019-07-15_113402:380,-0.496216,-0.017273,-0.056915,-0.004427,0.000743,0.000984,-18.68,29.75,1.56,2a
2019-07-15_113402:400,-0.496704,-0.016266,-0.056915,-0.004275,0.000682,0.000221,-18.68,29.75,1.56,2a
2019-07-15_113402:420,-0.49722299999999997,-0.015228,-0.056915,-0.003939,0.001201,0.00016,-18.68,29.75,1.56,2a
2019-07-15_113402:440,-0.496704,-0.015747,-0.057434000000000006,-0.003817,0.0014759999999999999,0.000587,-18.68,30.18,0.75,2a
2019-07-15_113402:460,-0.49926800000000005,-0.014221000000000001,-0.057434000000000006,-0.004,0.0014759999999999999,0.000465,-18.68,30.18,0.75,2a
2019-07-15_113402:480,-0.500275,-0.014221000000000001,-0.056915,-0.004152,0.001598,0.000709,-18.370001000000002,29.370001000000002,1.25,2a
2019-07-15_113402:500,-0.500793,-0.013702,-0.055389,-0.004152,0.001842,0.000465,-18.370001000000002,29.370001000000002,1.25,2a
2019-07-15_113402:520,-0.500275,-0.015747,-0.057434000000000006,-0.004336,0.002391,0.000343,-18.370001000000002,29.370001000000002,1.25,2a
2019-07-15_113402:540,-0.500275,-0.014221000000000001,-0.055389,-0.004275,0.002574,0.000465,-18.370001000000002,29.370001000000002,1.25,2a
2019-07-15_113402:560,-0.496704,-0.015228,-0.055908000000000006,-0.004275,0.002574,0.000648,-18.370001000000002,29.370001000000002,1.25,2a
2019-07-15_113402:580,-0.49823,-0.017273,-0.053375,-0.00403,0.002757,0.000648,-19.059998999999998,28.68,2.75,2a
2019-07-15_113402:600,-0.497742,-0.015228,-0.053863999999999995,-0.003817,0.003032,0.001228,-19.059998999999998,28.68,2.75,2a
2019-07-15_113402:620,-0.497742,-0.016753999999999998,-0.054901,-0.0036340000000000005,0.003093,0.00132,-19.059998999999998,28.68,2.75,2a
2019-07-15_113402:640,-0.496216,-0.016266,-0.055389,-0.0036340000000000005,0.0031850000000000003,7.000000000000001e-06,-19.059998999999998,29.370001000000002,1.56,2a
2019-07-15_113402:660,-0.496704,-0.014221000000000001,-0.05438200000000001,-0.00339,0.002849,0.000465,-19.059998999999998,29.370001000000002,1.56,2a
2019-07-15_113402:680,-0.496216,-0.016753999999999998,-0.05438200000000001,-0.00339,0.002788,0.000831,-18.559998999999998,29.75,2.0,2a
2019-07-15_113402:700,-0.49722299999999997,-0.015228,-0.053863999999999995,-0.003573,0.002635,0.000404,-18.559998999999998,29.75,2.0,2a
2019-07-15_113402:720,-0.49823,-0.016266,-0.05285599999999999,-0.0034509999999999996,0.002574,0.000587,-18.559998999999998,29.75,2.0,2a
2019-07-15_113402:740,-0.496216,-0.016266,-0.053863999999999995,-0.0036340000000000005,0.002757,7.000000000000001e-06,-17.870001000000002,30.870001000000002,2.87,2a
2019-07-15_113402:760,-0.497742,-0.016266,-0.051849,-0.003573,0.002635,-0.00011499999999999999,-17.870001000000002,30.870001000000002,2.87,2a
2019-07-15_113402:780,-0.49722299999999997,-0.016266,-0.05438200000000001,-0.003512,0.002788,0.000129,-19.0,29.059998999999998,2.5,2a
2019-07-15_113402:800,-0.497742,-0.016266,-0.051330999999999995,-0.0033280000000000002,0.002971,-0.000176,-19.0,29.059998999999998,2.5,2a
2019-07-15_113402:820,-0.49722299999999997,-0.015228,-0.052338,-0.003054,0.002757,-0.00011499999999999999,-19.0,29.059998999999998,2.5,2a
2019-07-15_113402:840,-0.498749,-0.015228,-0.05285599999999999,-0.0029010000000000004,0.002757,6.8e-05,-18.25,30.18,1.56,2a
2019-07-15_113402:860,-0.498749,-0.014221000000000001,-0.049805,-0.0029010000000000004,0.002971,0.000129,-18.25,30.18,1.56,2a
2019-07-15_113402:880,-0.496704,-0.013213999999999998,-0.050323,-0.002779,0.002971,0.000496,-17.870001000000002,29.370001000000002,3.25,2a
2019-07-15_113402:900,-0.497742,-0.011687999999999999,-0.048798,-0.0028399999999999996,0.003093,0.000526,-17.870001000000002,29.370001000000002,3.25,2a
2019-07-15_113402:920,-0.49823,-0.013213999999999998,-0.050323,-0.003176,0.0031850000000000003,0.000587,-17.870001000000002,29.370001000000002,3.25,2a
2019-07-15_113402:940,-0.498749,-0.011169,-0.050323,-0.0034509999999999996,0.0029100000000000003,0.000526,-18.68,29.370001000000002,2.06,2a
2019-07-15_113402:960,-0.498749,-0.013213999999999998,-0.050323,-0.003664,0.003124,0.000648,-18.68,29.370001000000002,2.06,2a
2019-07-15_113402:980,-0.496216,-0.012695,-0.050842,-0.004152,0.0031850000000000003,0.000709,-18.68,29.059998999999998,2.06,2a
2019-07-15_113403:000,-0.49722299999999997,-0.014221000000000001,-0.048798,-0.004213000000000001,0.0029100000000000003,0.000404,-18.68,29.059998999999998,2.06,2a
2019-07-15_113403:020,-0.500275,-0.014221000000000001,-0.049805,-0.004397,0.003093,0.000221,-18.68,29.059998999999998,2.06,2a
2019-07-15_113403:040,-0.501282,-0.014740000000000001,-0.050842,-0.004427,0.0031850000000000003,0.000221,-18.25,30.18,3.68,2a
2019-07-15_113403:060,-0.49975600000000003,-0.013702,-0.048279,-0.00461,0.0036420000000000003,0.000129,-18.25,30.18,3.68,2a
2019-07-15_113403:080,-0.498749,-0.013702,-0.051330999999999995,-0.004427,0.0036420000000000003,0.000343,-18.68,29.75,3.68,2a
2019-07-15_113403:100,-0.49722299999999997,-0.014221000000000001,-0.047791,-0.004397,0.003978,0.000496,-18.68,29.75,3.68,2a
2019-07-15_113403:120,-0.49975600000000003,-0.013213999999999998,-0.049316000000000006,-0.004427,0.0036420000000000003,0.000496,-18.68,29.75,3.68,2a
2019-07-15_113403:140,-0.49926800000000005,-0.012695,-0.049805,-0.004213000000000001,0.003917,0.000587,-19.18,30.18,2.87,2a
2019-07-15_113403:160,-0.49823,-0.014221000000000001,-0.047272,-0.004,0.003886,0.000526,-19.18,30.18,2.87,2a
2019-07-15_113403:180,-0.497742,-0.014740000000000001,-0.048279,-0.003939,0.003978,0.000831,-20.0,29.75,3.25,2a
2019-07-15_113403:200,-0.49722299999999997,-0.012695,-0.046265,-0.003878,0.003917,0.001045,-20.0,29.75,3.25,2a
2019-07-15_113403:220,-0.498749,-0.013702,-0.046265,-0.0037560000000000002,0.003825,0.000923,-20.0,29.75,3.25,2a
2019-07-15_113403:240,-0.501282,-0.014221000000000001,-0.044219999999999995,-0.0036950000000000004,0.003978,0.000709,-17.68,30.870001000000002,3.18,2a
2019-07-15_113403:260,-0.500793,-0.013702,-0.045745999999999995,-0.003939,0.004497,0.000496,-17.68,30.870001000000002,3.18,2a
2019-07-15_113403:280,-0.500275,-0.013213999999999998,-0.045745999999999995,-0.004,0.004833,0.000496,-18.5,29.370001000000002,2.87,2a
2019-07-15_113403:300,-0.498749,-0.013702,-0.044219999999999995,-0.003878,0.004619,0.000343,-18.5,29.370001000000002,2.87,2a
2019-07-15_113403:320,-0.503326,-0.014740000000000001,-0.045745999999999995,-0.003817,0.0045579999999999996,0.000496,-18.5,29.370001000000002,2.87,2a
2019-07-15_113403:340,-0.5073850000000001,-0.013702,-0.044219999999999995,-0.0036340000000000005,0.005107,0.000465,-18.5,29.370001000000002,3.25,2a
2019-07-15_113403:360,-0.501801,-0.012695,-0.045226999999999996,-0.0036340000000000005,0.006297,0.000923,-18.5,29.370001000000002,3.25,2a
2019-07-15_113403:380,-0.505371,-0.013213999999999998,-0.042175,-0.003512,0.007213,0.002388,-18.059998999999998,30.18,3.25,2a
2019-07-15_113403:400,-0.503326,-0.014221000000000001,-0.041168,-0.0037560000000000002,0.007945,0.0022960000000000003,-18.059998999999998,30.18,3.25,2a
2019-07-15_113403:420,-0.49975600000000003,-0.014740000000000001,-0.043213,-0.003939,0.008617,0.0022960000000000003,-18.059998999999998,30.18,3.25,2a
2019-07-15_113403:440,-0.500793,-0.015747,-0.042175,-0.004,0.008434,0.001716,-18.75,30.18,3.75,2a
2019-07-15_113403:460,-0.49975600000000003,-0.015747,-0.042694,-0.004336,0.008403,0.001106,-18.75,30.18,3.75,2a
2019-07-15_113403:480,-0.498749,-0.014740000000000001,-0.041168,-0.004336,0.008403,0.001991,-18.18,29.370001000000002,4.87,2a
2019-07-15_113403:500,-0.49926800000000005,-0.016753999999999998,-0.038116000000000004,-0.004275,0.008556,0.00251,-18.18,29.370001000000002,4.87,2a
2019-07-15_113403:520,-0.501282,-0.017273,-0.037598,-0.004,0.008617,0.00196,-18.18,29.370001000000002,4.87,2a
2019-07-15_113403:540,-0.501282,-0.016753999999999998,-0.036072,-0.003664,0.00883,0.001991,-18.370001000000002,29.75,5.0,2a
2019-07-15_113403:560,-0.502319,-0.017792,-0.034546,-0.0032979999999999997,0.00941,0.002449,-18.370001000000002,29.75,5.0,2a
2019-07-15_113403:580,-0.502319,-0.019318000000000002,-0.032532,-0.0032979999999999997,0.010143000000000001,0.0026320000000000002,-18.5,30.059998999999998,4.18,2a
2019-07-15_113403:600,-0.500275,-0.019806,-0.028961,-0.002932,0.010478,0.002754,-18.5,30.059998999999998,4.18,2a
2019-07-15_113403:620,-0.49926800000000005,-0.019806,-0.026427999999999997,-0.002779,0.010722,0.002967,-18.5,30.059998999999998,4.18,2a
2019-07-15_113403:640,-0.49926800000000005,-0.019318000000000002,-0.023375999999999997,-0.002718,0.010539,0.0026320000000000002,-18.5,30.18,4.56,2a
2019-07-15_113403:660,-0.495697,-0.019318000000000002,-0.021851,-0.0025050000000000003,0.010081999999999999,0.002388,-18.5,30.18,4.56,2a
2019-07-15_113403:680,-0.49926800000000005,-0.018799,-0.020844,-0.002932,0.008952,0.00196,-18.559998999999998,29.75,6.06,2a
2019-07-15_113403:700,-0.500275,-0.021332,-0.01828,-0.002932,0.008403,0.002052,-18.559998999999998,29.75,6.06,2a
2019-07-15_113403:720,-0.49823,-0.021851,-0.013213999999999998,-0.0032979999999999997,0.007945,0.002693,-18.559998999999998,29.75,6.06,2a
2019-07-15_113403:740,-0.49823,-0.024384,-0.012177,-0.00339,0.007762000000000001,0.0022960000000000003,-18.5,30.059998999999998,6.5,2a
2019-07-15_113403:760,-0.495697,-0.023375999999999997,-0.009644,-0.0033280000000000002,0.007548999999999999,0.00132,-18.5,30.059998999999998,6.5,2a
2019-07-15_113403:780,-0.49316400000000005,-0.025421,-0.011169,-0.003176,0.006693999999999999,0.001655,-18.5,29.75,5.5,2a
2019-07-15_113403:800,-0.495697,-0.025908999999999998,-0.008636,-0.003176,0.005565,0.001381,-18.5,29.75,5.5,2a
2019-07-15_113403:820,-0.496216,-0.027435,-0.011169,-0.002718,0.004833,0.000831,-18.5,29.75,5.5,2a
2019-07-15_113403:840,-0.498749,-0.026917,-0.008636,-0.002199,0.004314,0.000404,-18.5,30.18,6.25,2a
2019-07-15_113403:860,-0.498749,-0.025421,-0.007599,-0.001864,0.004222,7.000000000000001e-06,-18.5,30.18,6.25,2a
2019-07-15_113403:880,-0.503845,-0.021332,-0.009644,-0.0015890000000000001,0.0041,-0.000267,-19.370001000000002,30.559998999999998,5.68,2a
2019-07-15_113403:900,-0.503326,-0.021332,-0.007111,-0.0015279999999999998,0.004314,6.8e-05,-19.370001000000002,30.559998999999998,5.68,2a
2019-07-15_113403:920,-0.501801,-0.019806,-0.008636,-0.0015890000000000001,0.004619,0.0007700000000000001,-19.370001000000002,30.559998999999998,5.68,2a
2019-07-15_113403:940,-0.503845,-0.019806,-0.0055850000000000006,-0.001864,0.004894,0.001503,-18.5,29.75,6.18,2a
2019-07-15_113403:960,-0.501282,-0.019318000000000002,-0.005065999999999999,-0.0025050000000000003,0.004649,0.00196,-18.5,29.75,6.18,2a
2019-07-15_113403:980,-0.500275,-0.017273,-0.006072999999999999,-0.0032979999999999997,0.004833,0.002052,-19.0,30.559998999999998,6.68,2a
2019-07-15_113404:000,-0.496216,-0.017792,-0.0030210000000000002,-0.00403,0.0042829999999999995,0.0022960000000000003,-19.0,30.559998999999998,6.68,2a
2019-07-15_113404:020,-0.495697,-0.019806,-0.0025329999999999997,-0.0048850000000000005,0.003703,0.002449,-19.0,30.559998999999998,6.68,2a
2019-07-15_113404:040,-0.49468999999999996,-0.022858,-0.0035399999999999997,-0.005556,0.002696,0.0022960000000000003,-18.370001000000002,30.18,5.18,2a
2019-07-15_113404:060,-0.496216,-0.023375999999999997,-0.002014,-0.006136,0.0016589999999999999,0.002052,-18.370001000000002,30.18,5.18,2a
2019-07-15_113404:080,-0.49823,-0.025908999999999998,-0.0030210000000000002,-0.006411,0.001201,0.001655,-18.5,30.18,6.75,2a
2019-07-15_113404:100,-0.500275,-0.026427999999999997,-0.004547,-0.006319,0.000865,0.001442,-18.5,30.18,6.75,2a
2019-07-15_113404:120,-0.502319,-0.028442000000000002,-0.0055850000000000006,-0.005922,0.0009570000000000001,0.0007700000000000001,-18.5,30.18,6.75,2a
2019-07-15_113404:140,-0.502808,-0.029480000000000003,-0.004547,-0.005556,0.00114,0.000404,-19.0,30.559998999999998,6.37,2a
2019-07-15_113404:160,-0.504333,-0.028961,-0.006072999999999999,-0.004824,0.0016589999999999999,0.000221,-19.0,30.559998999999998,6.37,2a
2019-07-15_113404:180,-0.503326,-0.028442000000000002,-0.006072999999999999,-0.004091,0.00172,-0.00011499999999999999,-17.870001000000002,30.559998999999998,6.68,2a
2019-07-15_113404:200,-0.502808,-0.026427999999999997,-0.005065999999999999,-0.0036340000000000005,0.0019030000000000002,0.00016,-17.870001000000002,30.559998999999998,6.68,2a
2019-07-15_113404:220,-0.503326,-0.025421,-0.005065999999999999,-0.0031149999999999997,0.002055,6.8e-05,-17.870001000000002,30.559998999999998,6.68,2a
2019-07-15_113404:240,-0.501801,-0.024384,-0.005065999999999999,-0.0029010000000000004,0.002696,0.00016,-18.559998999999998,31.68,7.18,2a
2019-07-15_113404:260,-0.501282,-0.024902,-0.0055850000000000006,-0.002993,0.003093,0.000129,-18.559998999999998,31.68,7.18,2a
2019-07-15_113404:280,-0.500275,-0.024902,-0.0055850000000000006,-0.002993,0.003032,-0.000176,-19.0,31.25,6.0,2a
2019-07-15_113404:300,-0.498749,-0.024902,-0.006072999999999999,-0.003176,0.002696,-0.00045099999999999996,-19.0,31.25,6.0,2a
2019-07-15_113404:320,-0.49926800000000005,-0.025908999999999998,-0.006072999999999999,-0.003176,0.0024519999999999998,-0.000512,-19.0,31.25,6.0,2a
2019-07-15_113404:340,-0.49975600000000003,-0.024384,-0.004059,-0.003237,0.001994,-0.000573,-17.870001000000002,31.25,5.56,2a
2019-07-15_113404:360,-0.500793,-0.025421,-0.0035399999999999997,-0.003237,0.001964,-0.000634,-17.870001000000002,31.25,5.56,2a
2019-07-15_113404:380,-0.501801,-0.024384,-0.006072999999999999,-0.003237,0.001964,-0.000664,-18.25,30.18,6.25,2a
2019-07-15_113404:400,-0.501282,-0.024384,-0.005065999999999999,-0.003237,0.0019030000000000002,-0.000786,-18.25,30.18,6.25,2a
2019-07-15_113404:420,-0.501282,-0.023375999999999997,-0.0055850000000000006,-0.0031149999999999997,0.001994,-0.000664,-18.25,30.18,6.25,2a
2019-07-15_113404:440,-0.501282,-0.022369,-0.007111,-0.003054,0.001842,-0.000328,-18.370001000000002,30.559998999999998,7.25,2a
2019-07-15_113404:460,-0.500793,-0.023895,-0.004059,-0.0031149999999999997,0.0016589999999999999,-0.00011499999999999999,-18.370001000000002,30.559998999999998,7.25,2a
2019-07-15_113404:480,-0.498749,-0.021851,-0.0055850000000000006,-0.003176,0.001537,-0.00023700000000000001,-18.68,30.18,6.06,2a
2019-07-15_113404:500,-0.498749,-0.024384,-0.0055850000000000006,-0.0032979999999999997,0.001201,-0.000512,-18.68,30.18,6.06,2a
2019-07-15_113404:520,-0.49975600000000003,-0.022369,-0.004547,-0.0031149999999999997,0.001018,-0.00045099999999999996,-18.68,30.18,6.06,2a
2019-07-15_113404:540,-0.49926800000000005,-0.022858,-0.005065999999999999,-0.003054,0.000468,-0.000664,-18.68,30.18,5.25,2a
2019-07-15_113404:560,-0.501282,-0.022369,-0.004547,-0.003237,0.000468,-0.0008470000000000001,-18.68,30.18,5.25,2a
2019-07-15_113404:580,-0.502808,-0.021332,-0.005065999999999999,-0.003054,0.0008960000000000001,7.000000000000001e-06,-19.059998999999998,29.75,6.06,2a
2019-07-15_113404:600,-0.503845,-0.022369,-0.004547,-0.0032979999999999997,0.0012619999999999999,6.8e-05,-19.059998999999998,29.75,6.06,2a
2019-07-15_113404:620,-0.501801,-0.022369,-0.005065999999999999,-0.0032979999999999997,0.001018,-0.00023700000000000001,-19.059998999999998,29.75,6.06,2a
2019-07-15_113404:640,-0.49926800000000005,-0.023375999999999997,-0.007111,-0.003512,0.000682,-0.001641,-18.68,30.18,6.75,2a
2019-07-15_113404:660,-0.497742,-0.021332,-0.006072999999999999,-0.0033280000000000002,0.00016299999999999998,-0.001458,-18.68,30.18,6.75,2a
2019-07-15_113404:680,-0.49722299999999997,-0.022369,-0.008118,-0.003237,1.1e-05,-0.0011220000000000002,-18.75,30.18,6.75,2a
2019-07-15_113404:700,-0.498749,-0.022369,-0.009125,-0.002779,-0.000325,-0.001519,-18.75,30.18,6.75,2a
2019-07-15_113404:720,-0.500275,-0.021332,-0.007599,-0.002443,-0.000233,-0.001641,-18.75,30.18,6.75,2a
2019-07-15_113404:740,-0.502808,-0.021851,-0.009125,-0.0021079999999999996,7.2e-05,-0.00158,-19.059998999999998,30.18,6.37,2a
2019-07-15_113404:760,-0.503326,-0.020325,-0.009644,-0.001925,0.000407,-0.001397,-19.059998999999998,30.18,6.37,2a
2019-07-15_113404:780,-0.503845,-0.018799,-0.010651,-0.0017109999999999998,0.000865,-0.0012439999999999999,-19.5,29.75,7.56,2a
2019-07-15_113404:800,-0.506378,-0.019318000000000002,-0.009644,-0.001925,0.001598,-0.001397,-19.5,29.75,7.56,2a
2019-07-15_113404:820,-0.506897,-0.016753999999999998,-0.009125,-0.0021079999999999996,0.0023,-0.0011220000000000002,-19.5,29.75,7.56,2a
2019-07-15_113404:840,-0.506378,-0.017273,-0.009125,-0.002199,0.002849,-0.0010609999999999999,-18.0,30.25,6.06,2a
2019-07-15_113404:860,-0.503326,-0.016753999999999998,-0.008118,-0.002932,0.003703,-0.0010609999999999999,-18.0,30.25,6.06,2a
2019-07-15_113404:880,-0.500793,-0.016753999999999998,-0.009644,-0.003054,0.0034289999999999998,-0.001,-19.5,29.370001000000002,6.37,2a
2019-07-15_113404:900,-0.501282,-0.016753999999999998,-0.007599,-0.003237,0.003368,-0.001183,-19.5,29.370001000000002,6.37,2a
2019-07-15_113404:920,-0.498749,-0.016753999999999998,-0.0055850000000000006,-0.00339,0.003032,-0.000786,-19.5,29.370001000000002,6.37,2a
2019-07-15_113404:940,-0.49975600000000003,-0.017273,-0.007111,-0.0033280000000000002,0.003032,-0.001183,-18.059998999999998,29.370001000000002,6.75,2a
2019-07-15_113404:960,-0.500275,-0.017273,-0.0055850000000000006,-0.003664,0.002574,-0.0011220000000000002,-18.059998999999998,29.370001000000002,6.75,2a
2019-07-15_113404:980,-0.49975600000000003,-0.016266,-0.006072999999999999,-0.003573,0.002239,-0.000908,-18.059998999999998,29.370001000000002,6.75,2a
2019-07-15_113405:000,-0.501282,-0.017792,-0.0055850000000000006,-0.003573,0.0019030000000000002,-0.001458,-18.75,29.68,7.37,2a
2019-07-15_113405:020,-0.49975600000000003,-0.016753999999999998,-0.006072999999999999,-0.002932,0.001415,-0.00158,-18.75,29.68,7.37,2a
2019-07-15_113405:040,-0.49975600000000003,-0.016753999999999998,-0.0055850000000000006,-0.002993,0.001292,-0.00158,-19.18,29.68,7.37,2a
2019-07-15_113405:060,-0.500793,-0.015228,-0.004547,-0.002718,0.0010789999999999999,-0.001519,-19.18,29.68,7.37,2a
2019-07-15_113405:080,-0.502319,-0.014740000000000001,-0.006072999999999999,-0.002535,0.0012619999999999999,-0.001458,-19.559998999999998,29.75,6.06,2a
2019-07-15_113405:100,-0.502319,-0.013702,-0.006072999999999999,-0.002443,0.001537,-0.0012439999999999999,-19.559998999999998,29.75,6.06,2a
2019-07-15_113405:120,-0.504333,-0.013702,-0.0055850000000000006,-0.002382,0.002239,-0.0011220000000000002,-19.559998999999998,29.75,6.06,2a
2019-07-15_113405:140,-0.505371,-0.013702,-0.006072999999999999,-0.002199,0.002574,-0.0010609999999999999,-18.75,29.370001000000002,6.37,2a
2019-07-15_113405:160,-0.506897,-0.011687999999999999,-0.004547,-0.002382,0.0036420000000000003,-0.0017929999999999999,-18.75,29.370001000000002,6.37,2a
2019-07-15_113405:180,-0.5073850000000001,-0.010651,-0.006072999999999999,-0.002382,0.004436,-0.002251,-18.75,29.370001000000002,6.37,2a
2019-07-15_113405:200,-0.503845,-0.010651,-0.006072999999999999,-0.0032979999999999997,0.005504,-0.0037159999999999997,-20.0,29.25,7.37,2a
2019-07-15_113405:220,-0.49975600000000003,-0.009125,-0.0055850000000000006,-0.0036950000000000004,0.005229,-0.003319,-20.0,29.25,7.37,2a
2019-07-15_113405:240,-0.49722299999999997,-0.009644,-0.007111,-0.004,0.005016,-0.0035020000000000003,-19.18,29.75,6.75,2a
2019-07-15_113405:260,-0.49926800000000005,-0.010162000000000001,-0.004547,-0.003878,0.004375,-0.003228,-19.18,29.75,6.75,2a
2019-07-15_113405:280,-0.49975600000000003,-0.010162000000000001,-0.004547,-0.003817,0.004222,-0.002892,-19.559998999999998,29.370001000000002,6.06,2a
2019-07-15_113405:300,-0.49926800000000005,-0.010162000000000001,-0.004059,-0.003237,0.003368,-0.0021899999999999997,-19.559998999999998,29.370001000000002,6.06,2a
2019-07-15_113405:320,-0.500793,-0.009125,-0.004059,-0.002779,0.002696,-0.001641,-19.559998999999998,29.370001000000002,6.06,2a
2019-07-15_113405:340,-0.501282,-0.008636,-0.004059,-0.002779,0.002513,-0.001366,-18.75,29.0,6.75,2a
2019-07-15_113405:360,-0.500793,-0.008636,-0.002014,-0.001925,0.002361,-0.000512,-18.75,29.0,6.75,2a
2019-07-15_113405:380,-0.500793,-0.007111,-0.0025329999999999997,-0.001986,0.002116,-0.000267,-18.75,29.0,6.75,2a
2019-07-15_113405:400,-0.498749,-0.007111,-0.0030210000000000002,-0.0015890000000000001,0.001842,0.000221,-18.75,29.0,7.68,2a
2019-07-15_113405:420,-0.49975600000000003,-0.006072999999999999,-0.001495,-0.0015890000000000001,0.001415,0.000526,-18.75,29.0,7.68,2a
2019-07-15_113405:440,-0.497742,-0.005065999999999999,-0.001495,-0.0015279999999999998,0.001292,0.000496,-18.870001000000002,28.5,7.37,2a
2019-07-15_113405:460,-0.49823,-0.0055850000000000006,0.0,-0.0017109999999999998,0.000499,0.000984,-18.870001000000002,28.5,7.37,2a
2019-07-15_113405:480,-0.500275,-0.0055850000000000006,-0.001007,-0.0018030000000000001,0.00022400000000000002,0.001167,-18.870001000000002,28.5,7.37,2a
2019-07-15_113405:500,-0.501801,-0.0055850000000000006,-0.0025329999999999997,-0.0022600000000000003,-5e-05,0.00132,-18.870001000000002,28.059998999999998,9.0,2a
2019-07-15_113405:520,-0.503326,-0.007111,-0.002014,-0.002321,1.1e-05,0.001228,-18.870001000000002,28.059998999999998,9.0,2a
2019-07-15_113405:540,-0.503326,-0.0055850000000000006,-0.0025329999999999997,-0.002443,0.00022400000000000002,0.001167,-20.18,29.559998999999998,7.0,2a
2019-07-15_113405:560,-0.503326,-0.006592,-0.0025329999999999997,-0.002657,0.000468,0.001258,-20.18,29.559998999999998,7.0,2a
2019-07-15_113405:580,-0.504333,-0.007599,-0.004547,-0.0029010000000000004,0.0008039999999999999,0.001442,-19.75,29.18,6.56,2a
2019-07-15_113405:600,-0.503326,-0.007111,0.0,-0.0028399999999999996,0.001018,0.001381,-19.75,29.18,6.56,2a
2019-07-15_113405:620,-0.502319,-0.009644,-0.004547,-0.0031149999999999997,0.0008960000000000001,0.001625,-19.75,29.18,6.56,2a
2019-07-15_113405:640,-0.500793,-0.008636,-0.0030210000000000002,-0.003176,0.0008960000000000001,0.001503,-18.68,28.5,5.5,2a
2019-07-15_113405:660,-0.500793,-0.008636,-0.002014,-0.0036950000000000004,0.000407,0.001503,-18.68,28.5,5.5,2a
2019-07-15_113405:680,-0.49823,-0.009125,-0.0030210000000000002,-0.003817,1.1e-05,0.001655,-18.68,28.5,5.5,2a
2019-07-15_113405:700,-0.502319,-0.010162000000000001,-0.004059,-0.003817,-0.000508,0.001655,-19.0,28.5,6.25,2a
2019-07-15_113405:720,-0.501801,-0.010162000000000001,-0.0035399999999999997,-0.003878,-0.0007830000000000001,0.00132,-19.0,28.5,6.25,2a
2019-07-15_113405:740,-0.501282,-0.011169,-0.004059,-0.003664,-0.000722,0.001167,-18.68,28.75,7.0,2a
2019-07-15_113405:760,-0.500793,-0.011169,-0.004059,-0.0034509999999999996,-0.0009050000000000001,0.001381,-18.68,28.75,7.0,2a
2019-07-15_113405:780,-0.49926800000000005,-0.011169,-0.005065999999999999,-0.003176,-0.0009660000000000001,0.001258,-18.68,28.75,7.0,2a
2019-07-15_113405:800,-0.496704,-0.010651,-0.005065999999999999,-0.0031149999999999997,-0.001454,0.001564,-19.0,28.370001000000002,7.0,2a
2019-07-15_113405:820,-0.500793,-0.010651,-0.007111,-0.003176,-0.001973,0.002235,-19.0,28.370001000000002,7.0,2a
2019-07-15_113405:840,-0.500793,-0.011169,-0.007111,-0.0033280000000000002,-0.002156,0.00251,-19.0,29.5,6.56,2a
2019-07-15_113405:860,-0.502319,-0.012177,-0.007111,-0.0033280000000000002,-0.0024920000000000003,0.002845,-19.0,29.5,6.56,2a
2019-07-15_113405:880,-0.503326,-0.011687999999999999,-0.009644,-0.0032979999999999997,-0.002309,0.001381,-19.0,29.5,6.56,2a
2019-07-15_113405:900,-0.502319,-0.011169,-0.010162000000000001,-0.0032979999999999997,-0.002034,0.0007700000000000001,-19.0,28.75,6.56,2a
2019-07-15_113405:920,-0.503845,-0.012695,-0.013213999999999998,-0.0033280000000000002,-0.001454,0.001045,-19.0,28.75,6.56,2a
2019-07-15_113405:940,-0.500793,-0.011687999999999999,-0.014221000000000001,-0.0032979999999999997,-0.001179,0.000465,-19.0,28.370001000000002,6.25,2a
2019-07-15_113405:960,-0.501801,-0.011169,-0.012177,-0.00339,-0.0008439999999999999,0.000129,-19.0,28.370001000000002,6.25,2a
2019-07-15_113405:980,-0.502808,-0.012695,-0.014221000000000001,-0.0033280000000000002,-0.0007830000000000001,0.000496,-19.0,28.370001000000002,6.25,2a
2019-07-15_113406:000,-0.503845,-0.010162000000000001,-0.014221000000000001,-0.003573,-0.0005690000000000001,0.000496,-20.25,29.059998999999998,6.56,2a
2019-07-15_113406:020,-0.504333,-0.012177,-0.014221000000000001,-0.003512,-0.000172,0.000831,-20.25,29.059998999999998,6.56,2a
2019-07-15_113406:040,-0.5048520000000001,-0.013213999999999998,-0.015228,-0.003573,0.000285,0.0007700000000000001,-18.75,28.68,6.0,2a
2019-07-15_113406:060,-0.503326,-0.013213999999999998,-0.013702,-0.003512,0.000682,0.000923,-18.75,28.68,6.0,2a
2019-07-15_113406:080,-0.501801,-0.012695,-0.014740000000000001,-0.003512,0.0008039999999999999,0.0008619999999999999,-18.870001000000002,28.68,5.87,2a
2019-07-15_113406:100,-0.500793,-0.012695,-0.015228,-0.003664,0.0008960000000000001,0.000526,-18.870001000000002,28.68,5.87,2a
2019-07-15_113406:120,-0.500275,-0.014221000000000001,-0.014740000000000001,-0.0034509999999999996,0.000499,0.000465,-18.870001000000002,28.68,5.87,2a
2019-07-15_113406:140,-0.501282,-0.012695,-0.012695,-0.003573,0.0008039999999999999,0.000526,-19.559998999999998,29.0,7.5,2a
2019-07-15_113406:160,-0.503326,-0.013702,-0.012177,-0.003512,0.001292,0.001045,-19.559998999999998,29.0,7.5,2a
2019-07-15_113406:180,-0.501282,-0.013702,-0.012695,-0.003664,0.001628,-0.00023700000000000001,-19.18,28.25,5.5,2a
2019-07-15_113406:200,-0.502808,-0.013213999999999998,-0.014740000000000001,-0.0036950000000000004,0.0016589999999999999,-0.000176,-19.18,28.25,5.5,2a
2019-07-15_113406:220,-0.500275,-0.013213999999999998,-0.015228,-0.0037560000000000002,0.001598,0.000465,-19.18,28.25,5.5,2a
2019-07-15_113406:240,-0.501282,-0.012177,-0.013702,-0.0036950000000000004,0.0014759999999999999,0.00016,-19.18,29.0,5.06,2a
2019-07-15_113406:260,-0.501282,-0.011687999999999999,-0.012695,-0.0037560000000000002,0.001537,0.000496,-19.18,29.0,5.06,2a
2019-07-15_113406:280,-0.500275,-0.011687999999999999,-0.011687999999999999,-0.0036950000000000004,0.001598,0.00016,-19.559998999999998,28.68,6.25,2a
2019-07-15_113406:300,-0.501801,-0.011687999999999999,-0.012177,-0.0037560000000000002,0.001353,6.8e-05,-19.559998999999998,28.68,6.25,2a
2019-07-15_113406:320,-0.501282,-0.013702,-0.012695,-0.0037560000000000002,0.001353,-0.00011499999999999999,-19.559998999999998,28.68,6.25,2a
2019-07-15_113406:340,-0.501801,-0.011687999999999999,-0.013702,-0.0036950000000000004,0.001415,-0.000389,-18.18,28.68,5.06,2a
2019-07-15_113406:360,-0.502319,-0.012695,-0.011169,-0.003512,0.001415,-0.000389,-18.18,28.68,5.06,2a
2019-07-15_113406:380,-0.502808,-0.011169,-0.013213999999999998,-0.003054,0.001415,-0.000328,-18.18,28.68,5.06,2a
2019-07-15_113406:400,-0.500793,-0.012177,-0.014740000000000001,-0.002932,0.001537,-0.00023700000000000001,-19.559998999999998,29.0,6.56,2a
2019-07-15_113406:420,-0.501282,-0.009644,-0.012695,-0.002779,0.0017809999999999998,-0.00011499999999999999,-19.559998999999998,29.0,6.56,2a
2019-07-15_113406:440,-0.500793,-0.011169,-0.014740000000000001,-0.002993,0.001598,-0.00011499999999999999,-19.559998999999998,29.370001000000002,5.06,2a
2019-07-15_113406:460,-0.503845,-0.009125,-0.013213999999999998,-0.0029010000000000004,0.001628,-5.4000000000000005e-05,-19.559998999999998,29.370001000000002,5.06,2a
2019-07-15_113406:480,-0.503845,-0.010651,-0.015747,-0.0031149999999999997,0.0019030000000000002,7.000000000000001e-06,-19.559998999999998,29.370001000000002,5.06,2a
2019-07-15_113406:500,-0.502808,-0.010162000000000001,-0.015228,-0.0034509999999999996,0.002116,0.000343,-20.370001000000002,28.25,6.25,2a
2019-07-15_113406:520,-0.501282,-0.008636,-0.015228,-0.003817,0.0023,0.000465,-20.370001000000002,28.25,6.25,2a
2019-07-15_113406:540,-0.49975600000000003,-0.010162000000000001,-0.014740000000000001,-0.004091,0.002361,0.000343,-19.18,29.0,6.25,2a
2019-07-15_113406:560,-0.49823,-0.010162000000000001,-0.013702,-0.004427,0.0019030000000000002,0.000343,-19.18,29.0,6.25,2a
2019-07-15_113406:580,-0.49823,-0.011169,-0.014740000000000001,-0.004549,0.0014759999999999999,0.000404,-19.18,29.0,6.25,2a
2019-07-15_113406:600,-0.500275,-0.012695,-0.014740000000000001,-0.004427,0.00114,0.000343,-19.559998999999998,29.0,5.87,2a
2019-07-15_113406:620,-0.501801,-0.011169,-0.015228,-0.004213000000000001,0.0010789999999999999,0.000343,-19.559998999999998,29.0,5.87,2a
2019-07-15_113406:640,-0.502319,-0.011687999999999999,-0.015747,-0.0036950000000000004,0.0008960000000000001,0.000404,-19.18,28.68,6.56,2a
2019-07-15_113406:660,-0.501282,-0.010651,-0.014221000000000001,-0.0036950000000000004,0.0010789999999999999,0.000587,-19.18,28.68,6.56,2a
2019-07-15_113406:680,-0.502808,-0.010162000000000001,-0.015228,-0.0034509999999999996,0.001201,0.000648,-19.18,28.68,6.56,2a
2019-07-15_113406:700,-0.502319,-0.009644,-0.013702,-0.0033280000000000002,0.0012619999999999999,0.001045,-19.559998999999998,29.0,5.5,2a
2019-07-15_113406:720,-0.504333,-0.009125,-0.012695,-0.0036950000000000004,0.001292,0.001228,-19.559998999999998,29.0,5.5,2a
2019-07-15_113406:740,-0.502319,-0.009644,-0.013213999999999998,-0.00403,0.001598,0.001258,-19.559998999999998,29.0,5.87,2a
2019-07-15_113406:760,-0.501282,-0.009125,-0.012695,-0.004336,0.0016589999999999999,0.001258,-19.559998999999998,29.0,5.87,2a
2019-07-15_113406:780,-0.501282,-0.009644,-0.015228,-0.004549,0.001537,0.000984,-19.559998999999998,29.0,5.87,2a
2019-07-15_113406:800,-0.500275,-0.011169,-0.014221000000000001,-0.004671,0.001537,0.000984,-19.559998999999998,28.68,5.87,2a
2019-07-15_113406:820,-0.500275,-0.012177,-0.014221000000000001,-0.004488000000000001,0.001353,0.001106,-19.559998999999998,28.68,5.87,2a
2019-07-15_113406:840,-0.500793,-0.013213999999999998,-0.015228,-0.004488000000000001,0.0008960000000000001,0.000923,-19.559998999999998,28.68,6.56,2a
2019-07-15_113406:860,-0.500275,-0.014740000000000001,-0.015228,-0.004152,0.0009570000000000001,0.0008619999999999999,-19.559998999999998,28.68,6.56,2a
2019-07-15_113406:880,-0.502319,-0.013702,-0.016266,-0.0036340000000000005,0.000865,0.000984,-19.559998999999998,28.68,6.56,2a
2019-07-15_113406:900,-0.5048520000000001,-0.013702,-0.015747,-0.0032979999999999997,0.0010789999999999999,0.000709,-20.0,28.25,5.87,2a
2019-07-15_113406:920,-0.501282,-0.010651,-0.015228,-0.0033280000000000002,0.001537,0.000709,-20.0,28.25,5.87,2a
2019-07-15_113406:940,-0.503845,-0.011169,-0.015228,-0.00339,0.0019030000000000002,0.001258,-19.18,28.68,5.87,2a
2019-07-15_113406:960,-0.502319,-0.010651,-0.013213999999999998,-0.0037560000000000002,0.002391,0.00132,-19.18,28.68,5.87,2a
2019-07-15_113406:980,-0.500275,-0.012177,-0.014221000000000001,-0.004091,0.002239,0.001625,-19.18,28.68,5.87,2a
2019-07-15_113407:000,-0.497742,-0.011169,-0.013702,-0.004549,0.001842,0.000709,-19.559998999999998,28.68,6.25,2a
2019-07-15_113407:020,-0.49823,-0.011169,-0.015228,-0.0048850000000000005,0.001598,0.000343,-19.559998999999998,28.68,6.25,2a
2019-07-15_113407:040,-0.49975600000000003,-0.011687999999999999,-0.015228,-0.005221,0.000865,0.001228,-20.0,28.68,5.06,2a
2019-07-15_113407:060,-0.49975600000000003,-0.011687999999999999,-0.015228,-0.005343,0.000743,0.001167,-20.0,28.68,5.06,2a
2019-07-15_113407:080,-0.501282,-0.013702,-0.014740000000000001,-0.005465,0.0008960000000000001,0.00132,-20.0,28.68,5.06,2a
2019-07-15_113407:100,-0.502319,-0.013702,-0.014740000000000001,-0.005465,0.00114,0.001716,-19.25,29.370001000000002,7.06,2a
2019-07-15_113407:120,-0.503326,-0.016266,-0.016266,-0.005526,0.001415,0.001716,-19.25,29.370001000000002,7.06,2a
2019-07-15_113407:140,-0.505371,-0.016753999999999998,-0.016753999999999998,-0.005282,0.0017809999999999998,0.002052,-19.25,29.370001000000002,5.18,2a
2019-07-15_113407:160,-0.503845,-0.015228,-0.013213999999999998,-0.0051600000000000005,0.002116,0.001838,-19.25,29.370001000000002,5.18,2a
2019-07-15_113407:180,-0.503326,-0.016753999999999998,-0.014221000000000001,-0.0051600000000000005,0.002239,0.001777,-19.25,29.370001000000002,5.18,2a
2019-07-15_113407:200,-0.49823,-0.015747,-0.013702,-0.004946,0.002757,0.001777,-19.68,28.68,7.0,2a
2019-07-15_113407:220,-0.498749,-0.017792,-0.015747,-0.005068,0.002361,0.001503,-19.68,28.68,7.0,2a
2019-07-15_113407:240,-0.500275,-0.016753999999999998,-0.015228,-0.005221,0.0016589999999999999,0.001167,-20.0,29.0,5.56,2a
2019-07-15_113407:260,-0.49975600000000003,-0.017273,-0.012177,-0.005007,0.001415,0.000984,-20.0,29.0,5.56,2a
2019-07-15_113407:280,-0.501801,-0.019318000000000002,-0.014740000000000001,-0.0048850000000000005,0.00114,0.001625,-20.0,29.0,5.56,2a
2019-07-15_113407:300,-0.501282,-0.019806,-0.015747,-0.004488000000000001,0.001415,0.001228,-19.68,29.370001000000002,7.06,2a
2019-07-15_113407:320,-0.501282,-0.01828,-0.015228,-0.004275,0.001628,6.8e-05,-19.68,29.370001000000002,7.06,2a
2019-07-15_113407:340,-0.500793,-0.019318000000000002,-0.016266,-0.004152,0.0014759999999999999,0.00028199999999999997,-19.25,29.0,6.0,2a
2019-07-15_113407:360,-0.501282,-0.017273,-0.015228,-0.0036950000000000004,0.001353,6.8e-05,-19.25,29.0,6.0,2a
2019-07-15_113407:380,-0.503326,-0.016753999999999998,-0.016266,-0.0036340000000000005,0.0009570000000000001,7.000000000000001e-06,-19.25,29.0,6.0,2a
2019-07-15_113407:400,-0.502808,-0.015228,-0.015747,-0.00339,0.0010789999999999999,-5.4000000000000005e-05,-20.75,28.68,6.0,2a
2019-07-15_113407:420,-0.504333,-0.014740000000000001,-0.015228,-0.003512,0.001537,-0.00011499999999999999,-20.75,28.68,6.0,2a
2019-07-15_113407:440,-0.501282,-0.014221000000000001,-0.015747,-0.003664,0.0019030000000000002,0.00016,-20.5,29.75,6.37,2a
2019-07-15_113407:460,-0.500275,-0.012177,-0.016266,-0.003878,0.001842,0.000343,-20.5,29.75,6.37,2a
2019-07-15_113407:480,-0.49975600000000003,-0.014740000000000001,-0.016753999999999998,-0.004213000000000001,0.001842,0.000343,-20.5,29.75,6.37,2a
2019-07-15_113407:500,-0.500275,-0.015747,-0.014740000000000001,-0.004275,0.00172,0.000465,-20.059998999999998,28.68,5.18,2a
2019-07-15_113407:520,-0.500275,-0.015228,-0.014221000000000001,-0.004336,0.001353,0.000343,-20.059998999999998,28.68,5.18,2a
2019-07-15_113407:540,-0.501282,-0.015228,-0.015228,-0.004091,0.001353,0.000343,-19.68,29.370001000000002,5.18,2a
2019-07-15_113407:560,-0.501801,-0.014740000000000001,-0.014740000000000001,-0.00403,0.001353,0.000496,-19.68,29.370001000000002,5.18,2a
2019-07-15_113407:580,-0.502808,-0.015228,-0.015228,-0.004,0.001415,0.000496,-19.68,29.370001000000002,5.18,2a
2019-07-15_113407:600,-0.501801,-0.013702,-0.015747,-0.0036950000000000004,0.0016589999999999999,0.000404,-20.059998999999998,29.370001000000002,5.56,2a
2019-07-15_113407:620,-0.502319,-0.014740000000000001,-0.015228,-0.003878,0.001842,0.000465,-20.059998999999998,29.370001000000002,5.56,2a
2019-07-15_113407:640,-0.501282,-0.015747,-0.014740000000000001,-0.003939,0.002177,0.000404,-19.68,29.370001000000002,6.68,2a
2019-07-15_113407:660,-0.500793,-0.014221000000000001,-0.014221000000000001,-0.0037560000000000002,0.002055,0.00028199999999999997,-19.68,29.370001000000002,6.68,2a
2019-07-15_113407:680,-0.500793,-0.015747,-0.015228,-0.003664,0.002055,0.000221,-19.68,29.370001000000002,6.68,2a
2019-07-15_113407:700,-0.500793,-0.014740000000000001,-0.016266,-0.003512,0.002116,6.8e-05,-20.5,29.0,6.0,2a
2019-07-15_113407:720,-0.502319,-0.016266,-0.015228,-0.003237,0.002239,0.000129,-20.5,29.0,6.0,2a
2019-07-15_113407:740,-0.501282,-0.015747,-0.014221000000000001,-0.002718,0.001994,7.000000000000001e-06,-20.75,28.68,6.0,2a
2019-07-15_113407:760,-0.49975600000000003,-0.014740000000000001,-0.013213999999999998,-0.002657,0.001842,0.000221,-20.75,28.68,6.0,2a
2019-07-15_113407:780,-0.500275,-0.015747,-0.015228,-0.002321,0.001628,0.000343,-20.75,28.68,6.0,2a
2019-07-15_113407:800,-0.500793,-0.014740000000000001,-0.014740000000000001,-0.0025050000000000003,0.0014759999999999999,0.000465,-19.68,30.18,6.0,2a
2019-07-15_113407:820,-0.501801,-0.014221000000000001,-0.015228,-0.0025050000000000003,0.001415,0.000465,-19.68,30.18,6.0,2a
2019-07-15_113407:840,-0.502319,-0.013213999999999998,-0.016266,-0.002718,0.001598,0.000343,-20.059998999999998,29.0,6.37,2a
2019-07-15_113407:860,-0.502319,-0.013702,-0.013213999999999998,-0.0029010000000000004,0.001842,0.000404,-20.059998999999998,29.0,6.37,2a
2019-07-15_113407:880,-0.501282,-0.012695,-0.014740000000000001,-0.0032979999999999997,0.001842,0.000496,-20.059998999999998,29.0,6.37,2a
2019-07-15_113407:900,-0.500793,-0.013702,-0.015228,-0.0037560000000000002,0.001964,0.000587,-19.68,29.0,5.56,2a
2019-07-15_113407:920,-0.502319,-0.014740000000000001,-0.015228,-0.004,0.001842,0.000496,-19.68,29.0,5.56,2a
2019-07-15_113407:940,-0.501801,-0.015228,-0.014740000000000001,-0.004213000000000001,0.0017809999999999998,0.000587,-19.25,29.370001000000002,6.68,2a
2019-07-15_113407:960,-0.501801,-0.015747,-0.014221000000000001,-0.004336,0.001842,0.000404,-19.25,29.370001000000002,6.68,2a
2019-07-15_113407:980,-0.500275,-0.017792,-0.014740000000000001,-0.004427,0.001842,0.000129,-19.25,29.370001000000002,6.68,2a
2019-07-15_113408:000,-0.49975600000000003,-0.017273,-0.014740000000000001,-0.004152,0.0017809999999999998,-0.000328,-20.75,28.68,4.75,2a
2019-07-15_113408:020,-0.501282,-0.017273,-0.013702,-0.003939,0.001415,-0.000512,-20.75,28.68,4.75,2a
2019-07-15_113408:040,-0.500793,-0.017273,-0.015228,-0.0032979999999999997,0.001415,-0.000725,-20.059998999999998,29.370001000000002,6.37,2a
2019-07-15_113408:060,-0.503845,-0.016753999999999998,-0.013213999999999998,-0.0028399999999999996,0.001598,-0.000786,-20.059998999999998,29.370001000000002,6.37,2a
2019-07-15_113408:080,-0.501282,-0.014221000000000001,-0.016266,-0.002321,0.001964,-0.000389,-20.059998999999998,29.370001000000002,6.37,2a
2019-07-15_113408:100,-0.502808,-0.015747,-0.016753999999999998,-0.001986,0.002055,-0.00045099999999999996,-20.059998999999998,29.75,7.18,2a
2019-07-15_113408:120,-0.502319,-0.010651,-0.013213999999999998,-0.001986,0.002391,0.00016,-20.059998999999998,29.75,7.18,2a
2019-07-15_113408:140,-0.506897,-0.011169,-0.013702,-0.002321,0.002849,0.000709,-19.68,28.870001000000002,6.5,2a
2019-07-15_113408:160,-0.500793,-0.009644,-0.011169,-0.003176,0.003246,0.000923,-19.68,28.870001000000002,6.5,2a
2019-07-15_113408:180,-0.49926800000000005,-0.011687999999999999,-0.015228,-0.0037560000000000002,0.002849,0.000923,-19.68,28.870001000000002,6.5,2a
2019-07-15_113408:200,-0.495697,-0.012177,-0.013702,-0.00461,0.002574,-0.000908,-20.059998999999998,29.25,6.5,2a
2019-07-15_113408:220,-0.496216,-0.011687999999999999,-0.013702,-0.004793,0.001842,-0.0009689999999999999,-20.059998999999998,29.25,6.5,2a
2019-07-15_113408:240,-0.498749,-0.014221000000000001,-0.013702,-0.00461,0.00114,0.000129,-20.059998999999998,28.870001000000002,6.06,2a
2019-07-15_113408:260,-0.49926800000000005,-0.015747,-0.014221000000000001,-0.004336,0.0008039999999999999,-0.000176,-20.059998999999998,28.870001000000002,6.06,2a
2019-07-15_113408:280,-0.502319,-0.015228,-0.014740000000000001,-0.003512,0.001018,-0.00023700000000000001,-20.059998999999998,28.870001000000002,6.06,2a
2019-07-15_113408:300,-0.502808,-0.013213999999999998,-0.014221000000000001,-0.002932,0.001415,6.8e-05,-19.68,29.68,6.06,2a
2019-07-15_113408:320,-0.5048520000000001,-0.013213999999999998,-0.014221000000000001,-0.002535,0.001842,0.000465,-19.68,29.68,6.06,2a
2019-07-15_113408:340,-0.503326,-0.013213999999999998,-0.013702,-0.002443,0.0023,0.000526,-19.68,29.25,6.75,2a
2019-07-15_113408:360,-0.503326,-0.010651,-0.012695,-0.002443,0.002391,0.000648,-19.68,29.25,6.75,2a
2019-07-15_113408:380,-0.502808,-0.011687999999999999,-0.013702,-0.0028399999999999996,0.0029100000000000003,0.000648,-19.68,29.25,6.75,2a
2019-07-15_113408:400,-0.501801,-0.011169,-0.014740000000000001,-0.002993,0.0031850000000000003,0.000587,-20.0,28.870001000000002,6.06,2a
2019-07-15_113408:420,-0.500793,-0.011169,-0.012177,-0.003512,0.003368,0.00028199999999999997,-20.0,28.870001000000002,6.06,2a
2019-07-15_113408:440,-0.49975600000000003,-0.012695,-0.011169,-0.003878,0.003124,0.000221,-20.5,28.559998999999998,6.5,2a
2019-07-15_113408:460,-0.500793,-0.011687999999999999,-0.011169,-0.003939,0.003032,0.000587,-20.5,28.559998999999998,6.5,2a
2019-07-15_113408:480,-0.49926800000000005,-0.012695,-0.010651,-0.003939,0.0029100000000000003,0.001228,-20.5,28.559998999999998,6.5,2a
2019-07-15_113408:500,-0.49823,-0.014221000000000001,-0.012177,-0.004152,0.002696,0.0007700000000000001,-19.370001000000002,29.25,7.18,2a
2019-07-15_113408:520,-0.49975600000000003,-0.012695,-0.010651,-0.004,0.002177,0.000526,-19.370001000000002,29.25,7.18,2a
2019-07-15_113408:540,-0.501282,-0.014221000000000001,-0.009644,-0.004,0.001842,0.000831,-19.68,28.870001000000002,6.06,2a
2019-07-15_113408:560,-0.49926800000000005,-0.015228,-0.008636,-0.00403,0.0017809999999999998,0.000496,-19.68,28.870001000000002,6.06,2a
2019-07-15_113408:580,-0.503845,-0.014221000000000001,-0.009125,-0.0037560000000000002,0.001628,0.0007700000000000001,-19.68,28.870001000000002,6.06,2a
2019-07-15_113408:600,-0.502808,-0.015747,-0.010162000000000001,-0.0036340000000000005,0.0019030000000000002,0.0008619999999999999,-19.0,28.870001000000002,7.68,2a
2019-07-15_113408:620,-0.500275,-0.013213999999999998,-0.008636,-0.0036950000000000004,0.002055,0.000526,-19.0,28.870001000000002,7.68,2a
2019-07-15_113408:640,-0.501801,-0.014740000000000001,-0.011169,-0.003512,0.002116,0.000496,-19.68,29.25,6.06,2a
2019-07-15_113408:660,-0.501282,-0.015228,-0.009125,-0.0034509999999999996,0.002513,0.000221,-19.68,29.25,6.06,2a
2019-07-15_113408:680,-0.501801,-0.015228,-0.009125,-0.003054,0.0023,0.000404,-19.68,29.25,6.06,2a
2019-07-15_113408:700,-0.500275,-0.014740000000000001,-0.009125,-0.002718,0.0023,0.000496,-19.0,28.870001000000002,5.25,2a
2019-07-15_113408:720,-0.500275,-0.014221000000000001,-0.009644,-0.002321,0.0023,0.000404,-19.0,28.870001000000002,5.25,2a
2019-07-15_113408:740,-0.500275,-0.013213999999999998,-0.009644,-0.002169,0.002177,0.000709,-19.68,28.559998999999998,5.68,2a
2019-07-15_113408:760,-0.500275,-0.012695,-0.008636,-0.002382,0.002116,0.000831,-19.68,28.559998999999998,5.68,2a
2019-07-15_113408:780,-0.500275,-0.011687999999999999,-0.010162000000000001,-0.002443,0.001842,0.000587,-19.68,28.559998999999998,5.68,2a
2019-07-15_113408:800,-0.500793,-0.011687999999999999,-0.009644,-0.0029010000000000004,0.001537,0.000709,-19.559998999999998,28.870001000000002,7.18,2a
2019-07-15_113408:820,-0.500275,-0.012177,-0.010162000000000001,-0.0031149999999999997,0.001292,0.000587,-19.559998999999998,28.870001000000002,7.18,2a
2019-07-15_113408:840,-0.501282,-0.012695,-0.009644,-0.0036950000000000004,0.001201,0.000709,-20.0,28.870001000000002,6.5,2a
2019-07-15_113408:860,-0.501282,-0.013213999999999998,-0.008636,-0.003878,0.0012619999999999999,0.000526,-20.0,28.870001000000002,6.5,2a
2019-07-15_113408:880,-0.501801,-0.013702,-0.010162000000000001,-0.00403,0.001353,0.000526,-20.0,28.870001000000002,6.5,2a
