timestamp,AccX,AccY,AccZ,GyroX,GyroY,GyroZ,MagX,MagY,MagZ,Activity
2019-07-15_174216:460,-0.42248500000000005,-0.026917,-0.269958,0.002073,0.002574,-0.00045099999999999996,-25.25,-24.0,-27.559998999999998,1a
2019-07-15_174216:480,-0.432159,-0.06253099999999999,-0.25827,0.002928,0.00016299999999999998,0.000831,-26.370001000000002,-23.559998999999998,-26.68,1a
2019-07-15_174216:500,-0.41586300000000004,-0.081329,-0.254211,0.00717,0.001018,0.000587,-26.370001000000002,-23.559998999999998,-26.68,1a
2019-07-15_174216:520,-0.399597,-0.10928299999999999,-0.254211,0.01486,-0.00011100000000000001,-0.003563,-26.870001000000002,-22.5,-27.059998999999998,1a
2019-07-15_174216:540,-0.390442,-0.121002,-0.2547,0.026213,-0.002156,-0.010338,-26.870001000000002,-22.5,-27.059998999999998,1a
2019-07-15_174216:560,-0.397583,-0.111328,-0.260284,0.039182999999999996,-0.004414,-0.016319999999999998,-26.870001000000002,-22.5,-27.059998999999998,1a
2019-07-15_174216:580,-0.411804,-0.098633,-0.263336,0.050321,-0.0037119999999999996,-0.018578,-27.059998999999998,-23.18,-28.0,1a
2019-07-15_174216:600,-0.435699,-0.089478,-0.274017,0.059599,-0.000233,-0.019371,-27.059998999999998,-23.18,-28.0,1a
2019-07-15_174216:620,-0.434692,-0.094055,-0.28418000000000004,0.067259,0.005565,-0.02224,-25.559998999999998,-22.059998999999998,-28.75,1a
2019-07-15_174216:640,-0.455017,-0.101685,-0.301483,0.07534600000000001,0.012737,-0.029381,-25.559998999999998,-22.059998999999998,-28.75,1a
2019-07-15_174216:660,-0.441803,-0.100159,-0.295898,0.08282300000000001,0.020366,-0.036675,-25.559998999999998,-22.059998999999998,-28.75,1a
2019-07-15_174216:680,-0.430634,-0.095581,-0.293854,0.089659,0.025554,-0.038475,-26.0,-21.0,-30.0,1a
2019-07-15_174216:700,-0.41384899999999997,-0.096069,-0.290283,0.096983,0.028392,-0.039330000000000004,-26.0,-21.0,-30.0,1a
2019-07-15_174216:720,-0.414337,-0.089478,-0.285706,0.10269,0.028606,-0.044396,-25.25,-19.18,-31.5,1a
2019-07-15_174216:740,-0.407227,-0.082336,-0.270966,0.10732799999999999,0.028727999999999997,-0.048119,-25.25,-19.18,-31.5,1a
2019-07-15_174216:760,-0.390442,-0.065582,-0.260284,0.110502,0.028208999999999998,-0.046898,-25.25,-19.18,-31.5,1a
2019-07-15_174216:780,-0.381317,-0.063538,-0.254211,0.11071600000000001,0.024822,-0.043999,-26.370001000000002,-16.5,-31.870001000000002,1a
2019-07-15_174216:800,-0.377747,-0.055389,-0.23895300000000003,0.10977,0.019969,-0.043389,-26.370001000000002,-16.5,-31.870001000000002,1a
2019-07-15_174216:820,-0.38028,-0.047272,-0.22927899999999998,0.10659600000000001,0.014385,-0.043847000000000004,-26.0,-14.68,-34.25,1a
2019-07-15_174216:840,-0.390442,-0.041687,-0.21402,0.101011,0.008891,-0.042321,-26.0,-14.68,-34.25,1a
2019-07-15_174216:860,-0.40063499999999996,-0.044219999999999995,-0.21148699999999998,0.094663,0.00471,-0.039421,-26.0,-14.68,-34.25,1a
2019-07-15_174216:880,-0.411285,-0.045745999999999995,-0.213531,0.087614,0.0010789999999999999,-0.037163,-27.059998999999998,-12.06,-34.25,1a
2019-07-15_174216:900,-0.439758,-0.046752999999999996,-0.21759,0.08065599999999999,-0.000325,-0.03463,-27.059998999999998,-12.06,-34.25,1a
2019-07-15_174216:920,-0.452484,-0.042694,-0.225739,0.074552,0.001353,-0.031243,-26.0,-10.18,-35.5,1a
2019-07-15_174216:940,-0.467743,-0.040649,-0.223694,0.067839,0.004619,-0.027855,-26.0,-10.18,-35.5,1a
2019-07-15_174216:960,-0.578064,-0.042175,-0.22927899999999998,0.061613,0.006175,-0.025596999999999998,-26.0,-10.18,-35.5,1a
2019-07-15_174216:980,-0.530792,-0.047272,-0.24453699999999998,0.055478999999999994,0.0036420000000000003,-0.024071000000000002,-26.370001000000002,-8.56,-36.25,1a
2019-07-15_174217:000,-0.526215,-0.055908000000000006,-0.227264,0.048246,0.005565,-0.020684,-26.370001000000002,-8.56,-36.25,1a
2019-07-15_174217:020,-0.492645,-0.065063,-0.23284899999999997,0.045347000000000005,0.010020000000000001,-0.021477,-25.25,-6.37,-37.5,1a
2019-07-15_174217:040,-0.45553599999999994,-0.066071,-0.21859699999999999,0.04315,0.015575,-0.028923,-25.25,-6.37,-37.5,1a
2019-07-15_174217:060,-0.45196499999999995,-0.056915,-0.22116100000000002,0.045194,0.018290999999999998,-0.030907,-25.25,-6.37,-37.5,1a
2019-07-15_174217:080,-0.407227,-0.053375,-0.20538299999999998,0.046934,0.021769999999999998,-0.025872000000000003,-26.75,-5.37,-37.5,1a
2019-07-15_174217:100,-0.410278,-0.047272,-0.198273,0.046263,0.023296,-0.018364,-26.75,-5.37,-37.5,1a
2019-07-15_174217:120,-0.41384899999999997,-0.048798,-0.182007,0.044676,0.024669,-0.008232,-26.75,-4.68,-37.5,1a
2019-07-15_174217:140,-0.445374,-0.048279,-0.171326,0.0426,0.026683,-0.003563,-26.75,-4.68,-37.5,1a
2019-07-15_174217:160,-0.500793,-0.046265,-0.153015,0.040708,0.0312,-0.006615,-26.75,-4.68,-37.5,1a
2019-07-15_174217:180,-0.477386,-0.046265,-0.151489,0.040373,0.031383,-0.013787,-29.0,-3.5,-36.25,1a
2019-07-15_174217:200,-0.434692,-0.038116000000000004,-0.155548,0.04022,0.026347000000000002,-0.02163,-29.0,-3.5,-36.25,1a
2019-07-15_174217:220,-0.44232200000000005,-0.036591000000000005,-0.165741,0.039823000000000004,0.018108000000000003,-0.022606,-28.18,-1.25,-35.060001,1a
2019-07-15_174217:240,-0.405212,-0.043213,-0.183014,0.039976,0.006693999999999999,-0.02401,-28.18,-1.25,-35.060001,1a
2019-07-15_174217:260,-0.41232299999999994,-0.039642000000000004,-0.187073,0.039579,-0.005757,-0.027672000000000002,-28.18,-1.25,-35.060001,1a
2019-07-15_174217:280,-0.445374,-0.021851,-0.19775399999999999,0.040159,-0.013936000000000002,-0.024132,-30.059998999999998,-0.5,-35.5,1a
2019-07-15_174217:300,-0.459595,-0.016753999999999998,-0.200317,0.037901,-0.015767,-0.018364,-30.059998999999998,-0.5,-35.5,1a
2019-07-15_174217:320,-0.475372,-0.015747,-0.195221,0.033598,-0.011585999999999999,-0.016655,-29.25,0.56,-35.869999,1a
2019-07-15_174217:340,-0.47332799999999997,-0.016266,-0.17996199999999998,0.030331999999999998,-0.00124,-0.015526,-29.25,0.56,-35.869999,1a
2019-07-15_174217:360,-0.443329,-0.010162000000000001,-0.165741,0.027555,0.009593,-0.015862,-29.25,0.56,-35.869999,1a
2019-07-15_174217:380,-0.42453,-0.007599,-0.154022,0.024687,0.018108000000000003,-0.016594,-29.25,0.18,-35.869999,1a
2019-07-15_174217:400,-0.40011599999999997,-0.009644,-0.141846,0.022032,0.02235,-0.015526,-29.25,0.18,-35.869999,1a
2019-07-15_174217:420,-0.387909,-0.011687999999999999,-0.137756,0.019926,0.021616999999999997,-0.014855000000000002,-29.68,1.0,-35.869999,1a
2019-07-15_174217:440,-0.404175,-0.012695,-0.136749,0.018308,0.01765,-0.014183000000000001,-29.68,1.0,-35.869999,1a
2019-07-15_174217:460,-0.426544,-0.012177,-0.139282,0.017606999999999998,0.012279,-0.011925,-29.68,1.0,-35.869999,1a
2019-07-15_174217:480,-0.44281000000000004,-0.016266,-0.134705,0.017271,0.010936,-0.009148,-31.18,1.75,-34.68,1a
2019-07-15_174217:500,-0.477905,-0.01828,-0.142853,0.017575999999999998,0.012248,-0.006829000000000001,-31.18,1.75,-34.68,1a
2019-07-15_174217:520,-0.48858599999999996,-0.023375999999999997,-0.149963,0.01898,0.010722,-0.006768000000000001,-31.18,1.75,-35.060001,1a
2019-07-15_174217:540,-0.48349,-0.024384,-0.152527,0.021391,0.006084,-0.008019,-31.18,1.75,-35.060001,1a
2019-07-15_174217:560,-0.476379,-0.026917,-0.164215,0.024443,0.000133,-0.008629000000000001,-31.18,1.75,-35.060001,1a
2019-07-15_174217:580,-0.45043900000000003,-0.039124,-0.176422,0.027555,-0.007831999999999999,-0.007409000000000001,-32.0,1.75,-34.25,1a
2019-07-15_174217:600,-0.475861,-0.045226999999999996,-0.193176,0.032469,-0.017781,-0.008477,-32.0,1.75,-34.25,1a
2019-07-15_174217:620,-0.5404359999999999,-0.044739,-0.20944200000000002,0.037168,-0.023488,-0.014733000000000001,-32.0,2.87,-34.68,1a
2019-07-15_174217:640,-0.7748109999999999,-0.034546,-0.223175,0.040708,-0.027211000000000003,-0.020958,-32.0,2.87,-34.68,1a
2019-07-15_174217:660,-0.484497,-0.046265,-0.164703,0.045011,-0.034505,-0.022026,-32.0,2.87,-34.68,1a
2019-07-15_174217:680,-0.570435,-0.045226999999999996,-0.209961,0.046934,-0.029377999999999998,-0.026055000000000002,-32.0,2.87,-34.25,1a
2019-07-15_174217:700,-0.47280900000000003,-0.057953,-0.17385899999999999,0.051176,-0.029988,-0.022545,-32.0,2.87,-34.25,1a
2019-07-15_174217:720,-0.514496,-0.057953,-0.183533,0.049986,-0.021107,-0.02343,-29.68,4.25,-36.25,1a
2019-07-15_174217:740,-0.44384799999999996,-0.06253099999999999,-0.23233,0.048979,-0.017842,-0.021019,-29.68,4.25,-36.25,1a
2019-07-15_174217:760,-0.40316799999999997,-0.066071,-0.244019,0.045805,-0.019978,-0.018090000000000002,-29.68,4.25,-36.25,1a
2019-07-15_174217:780,-0.47079499999999996,-0.055908000000000006,-0.273529,0.042539,-0.028462,-0.019158,-29.370001000000002,5.06,-36.25,1a
2019-07-15_174217:800,-0.48858599999999996,-0.043213,-0.277588,0.039762,-0.031117000000000002,-0.018181,-29.370001000000002,5.06,-36.25,1a
2019-07-15_174217:820,-0.467743,-0.03302,-0.26181,0.036161,-0.025075,-0.016777,-29.059998999999998,5.75,-37.0,1a
2019-07-15_174217:840,-0.435699,-0.022858,-0.252686,0.033384,-0.016316,-0.020623,-29.059998999999998,5.75,-37.0,1a
2019-07-15_174217:860,-0.390442,-0.007111,-0.23028600000000002,0.030789999999999998,-0.007497,-0.023034,-29.059998999999998,5.75,-37.0,1a
2019-07-15_174217:880,-0.353333,-0.002014,-0.21402,0.027433,0.000346,-0.019555,-28.68,7.25,-36.68,1a
2019-07-15_174217:900,-0.322327,-0.0030210000000000002,-0.194702,0.024412,0.004314,-0.014641,-28.68,7.25,-36.68,1a
2019-07-15_174217:920,-0.308594,-0.000488,-0.191162,0.021177,0.005046,-0.013054,-28.25,6.68,-36.25,1a
2019-07-15_174217:940,-0.331482,0.001495,-0.177429,0.017332,0.004894,-0.011864,-28.25,6.68,-36.25,1a
2019-07-15_174217:960,-0.348267,0.002014,-0.18249500000000002,0.013669999999999998,0.007945,-0.009545,-28.25,6.68,-36.25,1a
2019-07-15_174217:980,-0.38385,0.007111,-0.189117,0.00955,0.011333,-0.00927,-29.370001000000002,8.18,-35.75,1a
2019-07-15_174218:000,-0.387909,0.004547,-0.188599,0.004667,0.013927000000000002,-0.008140999999999999,-29.370001000000002,8.18,-35.75,1a
2019-07-15_174218:020,-0.432159,-0.004547,-0.18249500000000002,0.000791,0.017192,-0.005242,-29.370001000000002,7.37,-37.0,1a
2019-07-15_174218:040,-0.466217,-0.010162000000000001,-0.185547,-0.0021079999999999996,0.023143,-0.0028309999999999997,-29.370001000000002,7.37,-37.0,1a
2019-07-15_174218:060,-0.46823100000000006,-0.015228,-0.20233199999999998,-0.004152,0.025951,-0.000389,-29.370001000000002,7.37,-37.0,1a
2019-07-15_174218:080,-0.47842399999999996,-0.014740000000000001,-0.19775399999999999,-0.006319,0.023296,0.001777,-29.059998999999998,7.0,-34.560001,1a
2019-07-15_174218:100,-0.530273,-0.014221000000000001,-0.192169,-0.009585,0.017894,0.005409000000000001,-29.059998999999998,7.0,-34.560001,1a
2019-07-15_174218:120,-0.5495909999999999,-0.020844,-0.183014,-0.013491,0.013316,0.010353,-30.870001000000002,7.5,-36.18,1a
2019-07-15_174218:140,-0.559753,-0.019806,-0.186066,-0.017763,0.013469,0.012855000000000002,-30.870001000000002,7.5,-36.18,1a
2019-07-15_174218:160,-0.555176,-0.017273,-0.200317,-0.021212,0.015727,0.014838999999999998,-30.870001000000002,7.5,-36.18,1a
2019-07-15_174218:180,-0.73111,-0.017792,-0.240479,-0.024111,0.012065000000000001,0.016365,-31.68,6.75,-34.869999,1a
2019-07-15_174218:200,-0.517059,-0.022858,-0.250641,-0.025973000000000003,-0.00179,0.016914,-31.68,6.75,-34.869999,1a
2019-07-15_174218:220,-0.561279,-0.008636,-0.21505700000000003,-0.029635,0.009226999999999999,0.012245,-31.25,7.5,-34.060001,1a
2019-07-15_174218:240,-0.516541,0.0,-0.20639000000000002,-0.028231,0.015575,0.011451000000000001,-31.25,7.5,-34.060001,1a
2019-07-15_174218:260,-0.433167,0.011169,-0.151001,-0.027193000000000002,0.033305,0.0065379999999999995,-31.25,7.5,-34.060001,1a
2019-07-15_174218:280,-0.44433599999999995,0.018799,-0.1698,-0.026858,0.027538,0.009071,-31.68,6.0,-34.5,1a
2019-07-15_174218:300,-0.401642,0.016266,-0.159119,-0.028231,0.017925,0.012916,-31.68,6.0,-34.5,1a
2019-07-15_174218:320,-0.42807,0.012177,-0.151489,-0.029238,0.006755,0.014106,-32.060001,5.25,-33.68,1a
2019-07-15_174218:340,-0.429596,0.011169,-0.17996199999999998,-0.028627999999999997,-0.004018,0.014838999999999998,-32.060001,5.25,-33.68,1a
2019-07-15_174218:360,-0.39502,0.008636,-0.186584,-0.027833999999999998,-0.014972999999999998,0.013313,-32.060001,5.25,-33.68,1a
2019-07-15_174218:380,-0.374695,0.015228,-0.23284899999999997,-0.027651,-0.028523000000000003,0.013862000000000001,-32.75,6.0,-33.0,1a
2019-07-15_174218:400,-0.40063499999999996,0.007599,-0.24453699999999998,-0.028292,-0.037433999999999995,0.019508,-32.75,6.0,-33.0,1a
2019-07-15_174218:420,-0.46823100000000006,-0.007599,-0.227264,-0.028689,-0.028645,0.02314,-32.369999,5.25,-33.68,1a
2019-07-15_174218:440,-0.46569799999999995,-0.015747,-0.21148699999999998,-0.028627999999999997,-0.008748,0.023688999999999998,-32.369999,5.25,-33.68,1a
2019-07-15_174218:460,-0.42147799999999996,-0.025908999999999998,-0.187073,-0.028048000000000003,0.011333,0.022895,-32.369999,5.25,-33.68,1a
2019-07-15_174218:480,-0.37674,-0.029480000000000003,-0.166748,-0.027193000000000002,0.024425,0.023811000000000002,-31.75,4.18,-34.5,1a
2019-07-15_174218:500,-0.322327,-0.034058,-0.14032,-0.026125,0.028941,0.024756999999999998,-31.75,4.18,-34.5,1a
2019-07-15_174218:520,-0.327911,-0.037598,-0.128601,-0.025179,0.026927,0.024543000000000002,-32.75,4.5,-36.560001,1a
2019-07-15_174218:540,-0.353851,-0.043701,-0.122528,-0.023928,0.022563,0.023292,-32.75,4.5,-36.560001,1a
2019-07-15_174218:560,-0.365021,-0.047272,-0.127106,-0.021486,0.019115,0.020697999999999998,-32.75,4.5,-36.560001,1a
2019-07-15_174218:580,-0.425018,-0.046265,-0.12558,-0.019411,0.017925,0.016853,-32.060001,4.87,-33.0,1a
2019-07-15_174218:600,-0.47433500000000006,-0.046265,-0.142853,-0.017275,0.015849000000000002,0.016243,-32.060001,4.87,-33.0,1a
2019-07-15_174218:620,-0.518066,-0.049316000000000006,-0.164703,-0.014712000000000001,0.013193999999999999,0.015724000000000002,-33.560001,4.5,-33.0,1a
2019-07-15_174218:640,-0.552643,-0.05285599999999999,-0.166748,-0.011385,0.010417000000000001,0.010322,-33.560001,4.5,-33.0,1a
2019-07-15_174218:660,-0.5211180000000001,-0.047272,-0.192169,-0.008059,0.00584,0.002235,-33.560001,4.5,-33.0,1a
2019-07-15_174218:680,-0.521637,-0.044739,-0.196747,-0.005922,0.000346,-0.003563,-32.75,4.37,-33.369999,1a
2019-07-15_174218:700,-0.8399049999999999,-0.046265,-0.21453899999999998,-0.003939,-0.008748,-0.00808,-32.75,4.37,-33.369999,1a
2019-07-15_174218:720,-0.575012,-0.039642000000000004,-0.260803,-0.002443,-0.019948,-0.011406,-33.560001,4.37,-33.060001,1a
2019-07-15_174218:740,-0.635529,-0.029968,-0.21402,-0.0017109999999999998,-0.004567,-0.021569,-33.560001,4.37,-33.060001,1a
2019-07-15_174218:760,-0.554688,-0.028442000000000002,-0.223175,-0.0014060000000000001,0.01115,-0.014458000000000002,-33.560001,4.37,-33.060001,1a
2019-07-15_174218:780,-0.420441,-0.051330999999999995,-0.159637,-0.004824,0.025889999999999996,-0.0017929999999999999,-33.560001,4.5,-32.18,1a
2019-07-15_174218:800,-0.44995100000000005,-0.050842,-0.15506,-0.007051999999999999,0.022165999999999998,0.00727,-33.560001,4.5,-32.18,1a
2019-07-15_174218:820,-0.389435,-0.064545,-0.172333,-0.008669,0.009959,0.015113,-33.869999,3.37,-32.18,1a
2019-07-15_174218:840,-0.394012,-0.074738,-0.162689,-0.010103000000000001,-0.0040479999999999995,0.01371,-33.869999,3.37,-32.18,1a
2019-07-15_174218:860,-0.431122,-0.0737,-0.192688,-0.011262999999999999,-0.015767,0.008888,-33.869999,3.37,-32.18,1a
2019-07-15_174218:880,-0.423004,-0.073212,-0.189636,-0.012575,-0.020283000000000002,0.006141,-34.560001,3.68,-32.18,1a
2019-07-15_174218:900,-0.420441,-0.069641,-0.201843,-0.011720999999999999,-0.020345,0.000496,-34.560001,3.68,-32.18,1a
2019-07-15_174218:920,-0.412811,-0.06149299999999999,-0.206909,-0.010865999999999999,-0.017384,-0.008873,-34.25,3.68,-32.18,1a
2019-07-15_174218:940,-0.40011599999999997,-0.044739,-0.189117,-0.010103000000000001,-0.010457,-0.013938999999999998,-34.25,3.68,-32.18,1a
2019-07-15_174218:960,-0.379791,-0.039642000000000004,-0.172852,-0.009188,-0.002431,-0.014855000000000002,-34.25,3.68,-32.18,1a
2019-07-15_174218:980,-0.360962,-0.035065,-0.160126,-0.007662,0.002788,-0.015648,-33.560001,3.0,-33.75,1a
2019-07-15_174219:000,-0.321808,-0.031494,-0.145386,-0.006258,0.003886,-0.016259,-33.560001,3.0,-33.75,1a
2019-07-15_174219:020,-0.308075,-0.036591000000000005,-0.141846,-0.003573,-0.0005690000000000001,-0.015128999999999998,-33.18,3.0,-33.75,1a
2019-07-15_174219:040,-0.315216,-0.038635,-0.136749,0.000273,-0.007802,-0.016442,-33.18,3.0,-33.75,1a
2019-07-15_174219:060,-0.353851,-0.035583,-0.141327,0.00366,-0.014394,-0.016715999999999998,-33.18,3.0,-33.75,1a
2019-07-15_174219:080,-0.420441,-0.027954000000000003,-0.154022,0.006651000000000001,-0.016590999999999998,-0.013207,-32.369999,3.0,-32.560001,1a
2019-07-15_174219:100,-0.425537,-0.023895,-0.168793,0.008695,-0.013844,-0.011284,-32.369999,3.0,-32.560001,1a
2019-07-15_174219:120,-0.516022,-0.010651,-0.195221,0.008818000000000001,-0.010274,-0.010459999999999999,-32.060001,3.37,-34.18,1a
2019-07-15_174219:140,-0.583649,-0.0025329999999999997,-0.208954,0.007109000000000001,-0.004018,-0.004418,-32.060001,3.37,-34.18,1a
2019-07-15_174219:160,-0.6370239999999999,-0.007599,-0.22164899999999998,0.002989,0.002971,0.0043100000000000005,-32.060001,3.37,-34.18,1a
2019-07-15_174219:180,-0.603485,-0.009644,-0.223175,-0.0017109999999999998,0.010204000000000001,0.009956,-32.369999,2.56,-34.18,1a
2019-07-15_174219:200,-0.576538,-0.011687999999999999,-0.23590100000000003,-0.006594,0.019237,0.014534,-32.369999,2.56,-34.18,1a
2019-07-15_174219:220,-0.604492,-0.017273,-0.239441,-0.009004999999999999,0.026683,0.0167,-33.18,2.56,-34.560001,1a
2019-07-15_174219:240,-0.729065,0.0055850000000000006,-0.277069,-0.010531,0.024272,0.012275,-33.18,2.56,-34.560001,1a
2019-07-15_174219:260,-0.49365200000000004,-0.012695,-0.233856,-0.013430000000000001,0.025157,0.013130000000000001,-33.18,2.56,-34.560001,1a
2019-07-15_174219:280,-0.535339,-0.006072999999999999,-0.21911599999999998,-0.015780000000000002,0.035838,0.010933,-33.18,3.0,-33.369999,1a
2019-07-15_174219:300,-0.484497,0.0035399999999999997,-0.18811,-0.013308,0.042064,0.003975,-33.18,3.0,-33.369999,1a
2019-07-15_174219:320,-0.46926899999999994,0.022369,-0.186584,-0.013125,0.035564,-0.006218,-33.869999,3.0,-33.369999,1a
2019-07-15_174219:340,-0.44027700000000003,0.034546,-0.174896,-0.011781999999999999,0.024822,-0.011742,-33.869999,3.0,-33.369999,1a
2019-07-15_174219:360,-0.47689799999999993,0.035583,-0.164215,-0.012362,0.012798,-0.013999999999999999,-33.869999,3.0,-33.369999,1a
2019-07-15_174219:380,-0.459595,0.040161,-0.182007,-0.012057,-0.000264,-0.010459999999999999,-34.25,3.37,-31.059998999999998,1a
2019-07-15_174219:400,-0.407227,0.031006,-0.169281,-0.011170999999999999,-0.010792,-0.005822,-34.25,3.37,-31.059998999999998,1a
2019-07-15_174219:420,-0.408752,0.033539,-0.171326,-0.01047,-0.015706,-0.003624,-35.369999,2.56,-31.059998999999998,1a
2019-07-15_174219:440,-0.398071,0.030487,-0.163696,-0.01047,-0.013661000000000001,0.004219,-35.369999,2.56,-31.059998999999998,1a
2019-07-15_174219:460,-0.376221,0.020844,-0.156067,-0.011262999999999999,-0.007497,0.013800999999999999,-35.369999,2.56,-31.059998999999998,1a
2019-07-15_174219:480,-0.34875500000000004,0.004547,-0.138794,-0.012758,-0.000722,0.017768,-34.25,2.18,-31.870001000000002,1a
2019-07-15_174219:500,-0.328949,-0.006072999999999999,-0.127106,-0.014100999999999999,0.0041,0.018379,-34.25,2.18,-31.870001000000002,1a
2019-07-15_174219:520,-0.304535,-0.020844,-0.116425,-0.014437,0.004894,0.017158,-33.560001,3.0,-32.560001,1a
2019-07-15_174219:540,-0.326904,-0.028961,-0.11438,-0.014559,0.0014759999999999999,0.015387999999999999,-33.560001,3.0,-32.560001,1a
2019-07-15_174219:560,-0.361969,-0.035583,-0.128113,-0.014376,-0.002888,0.015449000000000001,-33.560001,3.0,-32.560001,1a
2019-07-15_174219:580,-0.391968,-0.040649,-0.134705,-0.01285,-0.006154,0.014106,-34.560001,1.87,-31.870001000000002,1a
2019-07-15_174219:600,-0.43774399999999997,-0.038635,-0.14843800000000001,-0.010775,-0.005482,0.008491,-34.560001,1.87,-31.870001000000002,1a
2019-07-15_174219:620,-0.46823100000000006,-0.035583,-0.14743,-0.008333,-0.000386,0.002571,-34.560001,2.56,-32.560001,1a
2019-07-15_174219:640,-0.5073850000000001,-0.032532,-0.161163,-0.005861,0.003703,0.000526,-34.560001,2.56,-32.560001,1a
2019-07-15_174219:660,-0.511444,-0.031494,-0.180481,-0.0036340000000000005,0.0036420000000000003,0.000465,-34.560001,2.56,-32.560001,1a
2019-07-15_174219:680,-0.5495909999999999,-0.03302,-0.183014,-0.001925,0.001415,0.000648,-34.18,3.37,-31.75,1a
2019-07-15_174219:700,-0.531799,-0.031494,-0.20742800000000003,5.9e-05,-0.002522,0.00016,-34.18,3.37,-31.75,1a
2019-07-15_174219:720,-0.5048520000000001,-0.026427999999999997,-0.233856,-0.000185,-0.005482,-0.0011220000000000002,-33.560001,3.0,-33.0,1a
2019-07-15_174219:740,-0.539429,-0.027435,-0.257751,-0.001375,-0.004018,-0.001397,-33.560001,3.0,-33.0,1a
2019-07-15_174219:760,-0.724487,-0.064545,-0.24096700000000001,-0.001009,0.005901,-0.005822,-33.560001,3.0,-33.0,1a
2019-07-15_174219:780,-0.733124,-0.028442000000000002,-0.295898,0.002531,0.012462,-0.017296000000000002,-34.25,2.56,-32.18,1a
2019-07-15_174219:800,-0.596863,-0.027435,-0.116425,0.00485,0.035838,-0.02575,-34.25,2.56,-32.18,1a
2019-07-15_174219:820,-0.5119630000000001,-0.034546,-0.17385899999999999,0.005796,0.044657999999999996,-0.020165,-33.869999,2.56,-31.75,1a
2019-07-15_174219:840,-0.41232299999999994,-0.054901,-0.11691300000000002,0.007383,0.046764,-0.009941,-33.869999,2.56,-31.75,1a
2019-07-15_174219:860,-0.44281000000000004,-0.058441,-0.09963999999999999,0.003599,0.03416,-0.006829000000000001,-33.869999,2.56,-31.75,1a
2019-07-15_174219:880,-0.425537,-0.071167,-0.127106,0.002409,0.016399,0.004615,-35.68,2.18,-31.059998999999998,1a
2019-07-15_174219:900,-0.449432,-0.086914,-0.127594,0.00045599999999999997,0.0008039999999999999,0.009590000000000001,-35.68,2.18,-31.059998999999998,1a
2019-07-15_174219:920,-0.466217,-0.081329,-0.159637,0.00011999999999999999,-0.015034,0.003761,-36.060001,1.87,-30.18,1a
2019-07-15_174219:940,-0.44891400000000004,-0.075745,-0.1586,-0.000338,-0.024617,0.00028199999999999997,-36.060001,1.87,-30.18,1a
2019-07-15_174219:960,-0.447906,-0.065582,-0.176422,-0.000338,-0.026997000000000004,-0.002098,-36.060001,1.87,-30.18,1a
2019-07-15_174219:980,-0.41995200000000005,-0.058960000000000005,-0.17690999999999998,-0.000643,-0.021901,-0.00747,-36.869999,2.56,-30.18,1a
2019-07-15_174220:000,-0.39502,-0.046265,-0.165741,-0.000124,-0.013661000000000001,-0.013543000000000001,-36.869999,2.56,-30.18,1a
2019-07-15_174220:020,-0.365021,-0.035583,-0.157593,0.00073,-0.004567,-0.017449,-35.68,2.18,-31.370001000000002,1a
2019-07-15_174220:040,-0.323853,-0.022369,-0.129639,0.001463,0.001415,-0.018181,-35.68,2.18,-31.370001000000002,1a
2019-07-15_174220:060,-0.313171,-0.014740000000000001,-0.11843900000000002,0.0019210000000000002,0.002361,-0.017327000000000002,-35.68,2.18,-31.370001000000002,1a
2019-07-15_174220:080,-0.312164,-0.0055850000000000006,-0.103699,0.001982,0.000499,-0.015709,-35.68,2.56,-31.75,1a
2019-07-15_174220:100,-0.321808,-0.0030210000000000002,-0.10675,0.0016760000000000002,-0.004109000000000001,-0.013848,-35.68,2.56,-31.75,1a
2019-07-15_174220:120,-0.375214,-0.000488,-0.11795,0.000944,-0.009602,-0.011009999999999999,-35.369999,1.87,-30.18,1a
2019-07-15_174220:140,-0.40570100000000003,-0.002014,-0.128113,-2e-06,-0.01241,-0.006096,-35.369999,1.87,-30.18,1a
2019-07-15_174220:160,-0.45907600000000004,-0.0055850000000000006,-0.14032,-0.001253,-0.013142,-0.000634,-35.369999,1.87,-30.18,1a
2019-07-15_174220:180,-0.49365200000000004,-0.008118,-0.150482,-0.002382,-0.012806999999999999,0.002449,-35.68,2.18,-31.059998999999998,1a
2019-07-15_174220:200,-0.53891,-0.012177,-0.172333,-0.0048850000000000005,-0.014728999999999999,0.005439,-35.68,2.18,-31.059998999999998,1a
2019-07-15_174220:220,-0.593811,-0.01828,-0.176422,-0.007143000000000001,-0.016713,0.009864,-36.060001,1.87,-31.75,1a
2019-07-15_174220:240,-0.615173,-0.027954000000000003,-0.201843,-0.009646,-0.014119,0.012977,-36.060001,1.87,-31.75,1a
2019-07-15_174220:260,-0.579071,-0.030487,-0.216583,-0.013308,-0.007405,0.014503,-36.060001,1.87,-31.75,1a
2019-07-15_174220:280,-0.6060180000000001,-0.034058,-0.22979699999999997,-0.015413,0.000621,0.01493,-35.369999,1.87,-33.0,1a
2019-07-15_174220:300,-0.847534,-0.025908999999999998,-0.236389,-0.016878,0.00172,0.010719,-35.369999,1.87,-33.0,1a
2019-07-15_174220:320,-0.537384,-0.014221000000000001,-0.20285,-0.019533000000000002,0.0035810000000000004,0.013465000000000001,-36.060001,1.5,-33.75,1a
2019-07-15_174220:340,-0.539429,-0.004547,-0.19775399999999999,-0.022738,0.016399,0.01371,-36.060001,1.5,-33.75,1a
2019-07-15_174220:360,-0.45706199999999997,0.010651,-0.18811,-0.020266,0.024425,0.010475,-36.060001,1.5,-33.75,1a
2019-07-15_174220:380,-0.443329,0.019318000000000002,-0.17944300000000002,-0.020937,0.022563,0.0018989999999999999,-36.060001,1.87,-33.0,1a
2019-07-15_174220:400,-0.417389,0.023895,-0.190643,-0.019747,0.012523000000000001,-0.004906000000000001,-36.060001,1.87,-33.0,1a
2019-07-15_174220:420,-0.401123,0.023375999999999997,-0.187073,-0.019686000000000002,0.000468,-0.007103,-36.869999,2.56,-33.0,1a
2019-07-15_174220:440,-0.455017,0.018799,-0.209961,-0.019076,-0.014577000000000001,-0.004448,-36.869999,2.56,-33.0,1a
2019-07-15_174220:460,-0.420441,0.014221000000000001,-0.210968,-0.017824,-0.026539999999999998,0.001258,-36.869999,2.56,-33.0,1a
2019-07-15_174220:480,-0.43621800000000005,0.013702,-0.21148699999999998,-0.016572999999999997,-0.030843000000000002,0.0065379999999999995,-37.18,1.06,-33.369999,1a
2019-07-15_174220:500,-0.432648,0.008636,-0.21911599999999998,-0.014894999999999999,-0.026326,0.011543000000000001,-37.18,1.06,-33.369999,1a
2019-07-15_174220:520,-0.405212,0.002014,-0.21249400000000002,-0.014894999999999999,-0.016835,0.015907,-36.869999,0.37,-35.0,1a
2019-07-15_174220:540,-0.368073,-0.010162000000000001,-0.194214,-0.015902,-0.0071,0.020546000000000002,-36.869999,0.37,-35.0,1a
2019-07-15_174220:560,-0.354858,-0.022369,-0.182007,-0.017214,0.000743,0.024604,-36.869999,0.37,-35.0,1a
2019-07-15_174220:580,-0.347748,-0.026917,-0.17337,-0.018221,0.00584,0.02555,-36.060001,0.37,-34.560001,1a
2019-07-15_174220:600,-0.332489,-0.039124,-0.152527,-0.018953,0.00883,0.024818,-36.060001,0.37,-34.560001,1a
2019-07-15_174220:620,-0.33300799999999997,-0.042694,-0.14843800000000001,-0.018557,0.009288,0.02256,-35.0,0.37,-34.5,1a
2019-07-15_174220:640,-0.34570300000000004,-0.047791,-0.138794,-0.017946,0.00941,0.019905000000000003,-35.0,0.37,-34.5,1a
2019-07-15_174220:660,-0.359955,-0.050323,-0.141327,-0.016421,0.008434,0.017372,-35.0,0.37,-34.5,1a
2019-07-15_174220:680,-0.42147799999999996,-0.053863999999999995,-0.166748,-0.014100999999999999,0.008952,0.014778,-35.68,0.68,-34.560001,1a
2019-07-15_174220:700,-0.433167,-0.054901,-0.165741,-0.011843000000000001,0.011943,0.011879,-35.68,0.68,-34.560001,1a
2019-07-15_174220:720,-0.498749,-0.05285599999999999,-0.17538499999999999,-0.009340000000000001,0.013652000000000001,0.010078,-36.060001,0.68,-33.75,1a
2019-07-15_174220:740,-0.508423,-0.052338,-0.190125,-0.00635,0.014995,0.0061719999999999995,-36.060001,0.68,-33.75,1a
2019-07-15_174220:760,-0.5368649999999999,-0.048798,-0.18811,-0.004213000000000001,0.01292,-0.0017929999999999999,-36.060001,0.68,-33.75,1a
2019-07-15_174220:780,-0.49926800000000005,-0.042175,-0.207916,-0.002718,0.009685,-0.005577,-36.5,1.87,-34.560001,1a
2019-07-15_174220:800,-0.46417200000000003,-0.045226999999999996,-0.22164899999999998,-0.0015890000000000001,0.003917,-0.005577,-36.5,1.87,-34.560001,1a
2019-07-15_174220:820,-0.599426,-0.063019,-0.226746,-0.0009789999999999998,-0.008076,-0.006157,-37.18,1.5,-34.18,1a
2019-07-15_174220:840,-0.574005,-0.046265,-0.314697,0.001585,-0.018636,-0.004753,-37.18,1.5,-34.18,1a
2019-07-15_174220:860,-0.5979,-0.051330999999999995,-0.21505700000000003,0.003843,0.0008960000000000001,-0.021813,-37.18,1.5,-34.18,1a
2019-07-15_174220:880,-0.56485,-0.030487,-0.258759,0.0034460000000000003,0.011271999999999999,-0.020043000000000002,-37.560001,0.68,-34.5,1a
2019-07-15_174220:900,-0.44891400000000004,-0.05438200000000001,-0.21759,0.002317,0.017894,-0.002587,-37.560001,0.68,-34.5,1a
2019-07-15_174220:920,-0.43927,-0.07775900000000001,-0.21048000000000003,0.002134,0.014537000000000001,0.000984,-36.869999,0.68,-35.369999,1a
2019-07-15_174220:940,-0.417908,-0.076263,-0.20538299999999998,0.00045599999999999997,-0.002431,0.004615,-36.869999,0.68,-35.369999,1a
2019-07-15_174220:960,-0.434692,-0.085388,-0.20385699999999998,0.001982,-0.013905,0.005958,-36.869999,0.68,-35.369999,1a
2019-07-15_174220:980,-0.474854,-0.081329,-0.21505700000000003,0.001463,-0.019704,-0.000725,-37.560001,1.5,-34.5,1a
2019-07-15_174221:000,-0.46670500000000004,-0.068115,-0.213531,0.000334,-0.019093000000000002,-0.006615,-37.560001,1.5,-34.5,1a
2019-07-15_174221:020,-0.452484,-0.058960000000000005,-0.21759,0.000151,-0.014790000000000001,-0.007836,-36.5,1.5,-35.68,1a
2019-07-15_174221:040,-0.40823400000000004,-0.048798,-0.213531,-0.000734,-0.008992,-0.011681,-36.5,1.5,-35.68,1a
2019-07-15_174221:060,-0.383331,-0.039124,-0.20486500000000002,-0.001314,-0.0033159999999999995,-0.015313,-36.5,1.5,-35.68,1a
2019-07-15_174221:080,-0.361481,-0.026917,-0.185059,-0.00165,-0.000233,-0.015128999999999998,-35.369999,1.87,-36.5,1a
2019-07-15_174221:100,-0.3508,-0.024384,-0.167755,-0.002718,0.0088,-0.01162,-35.369999,1.87,-36.5,1a
2019-07-15_174221:120,-0.324371,-0.019318000000000002,-0.152008,-0.003054,0.010753,-0.011193,-35.369999,0.0,-35.25,1a
2019-07-15_174221:140,-0.319275,-0.014740000000000001,-0.144379,-0.0037560000000000002,0.010753,-0.012412999999999999,-35.369999,0.0,-35.25,1a
2019-07-15_174221:160,-0.32486,-0.012695,-0.14386,-0.003878,0.006938,-0.01281,-35.369999,0.0,-35.25,1a
2019-07-15_174221:180,-0.380798,-0.015747,-0.138794,-0.004397,0.003825,-0.011406,-36.060001,-0.37,-34.869999,1a
2019-07-15_174221:200,-0.421967,-0.015747,-0.146423,-0.004946,0.003825,-0.007103,-36.060001,-0.37,-34.869999,1a
2019-07-15_174221:220,-0.44232200000000005,-0.018799,-0.148956,-0.005343,0.005565,-0.004509,-36.5,-0.37,-34.060001,1a
2019-07-15_174221:240,-0.48553500000000005,-0.017273,-0.1698,-0.0066549999999999995,0.008281,-0.000634,-36.5,-0.37,-34.060001,1a
2019-07-15_174221:260,-0.5109560000000001,-0.020844,-0.184021,-0.007784,0.00822,0.002571,-36.5,-0.37,-34.060001,1a
2019-07-15_174221:280,-0.544495,-0.025421,-0.180481,-0.008454999999999999,0.007426,0.004219,-36.869999,-0.75,-36.560001,1a
2019-07-15_174221:300,-0.554688,-0.025908999999999998,-0.196747,-0.010714,0.004375,0.008674,-36.869999,-0.75,-36.560001,1a
2019-07-15_174221:320,-0.531799,-0.029968,-0.193176,-0.012240000000000001,0.0042829999999999995,0.010353,-36.5,-0.37,-36.5,1a
2019-07-15_174221:340,-0.536377,-0.023375999999999997,-0.21554600000000002,-0.012636,0.004954999999999999,0.01081,-36.5,-0.37,-36.5,1a
2019-07-15_174221:360,-0.743286,-0.032532,-0.21453899999999998,-0.013094,-0.002522,0.014503,-36.5,-0.37,-36.5,1a
2019-07-15_174221:380,-0.533844,-0.028961,-0.273529,-0.01404,-0.004445,0.01844,-36.869999,-0.37,-36.5,1a
2019-07-15_174221:400,-0.649231,-0.006072999999999999,-0.18096900000000002,-0.015841,0.020488,0.015632,-36.869999,-0.37,-36.5,1a
2019-07-15_174221:420,-0.514496,-0.000488,-0.203369,-0.014100999999999999,0.029643,0.012916,-37.560001,-0.75,-35.68,1a
2019-07-15_174221:440,-0.463654,0.005065999999999999,-0.143372,-0.013581999999999999,0.038829,-0.001458,-37.560001,-0.75,-35.68,1a
2019-07-15_174221:460,-0.425018,0.024902,-0.1586,-0.012575,0.028544999999999997,-0.005822,-37.560001,-0.75,-35.68,1a
2019-07-15_174221:480,-0.398071,0.032532,-0.14386,-0.013491,0.021556,-0.005974,-38.0,0.0,-34.869999,1a
2019-07-15_174221:500,-0.45553599999999994,0.029480000000000003,-0.154541,-0.016024,-0.002522,-0.0019149999999999998,-38.0,0.0,-34.869999,1a
2019-07-15_174221:520,-0.466217,0.022858,-0.17944300000000002,-0.016146,-0.008870000000000001,0.000709,-38.0,-0.37,-34.5,1a
2019-07-15_174221:540,-0.411804,0.019806,-0.17996199999999998,-0.015108000000000002,-0.020038999999999998,0.002967,-38.0,-0.37,-34.5,1a
2019-07-15_174221:560,-0.416382,0.021851,-0.195221,-0.013827,-0.022206,0.007209,-38.0,-0.37,-34.5,1a
2019-07-15_174221:580,-0.414337,0.013213999999999998,-0.19574,-0.013491,-0.021412999999999998,0.009864,-38.25,-0.75,-33.68,1a
2019-07-15_174221:600,-0.42605600000000005,0.004059,-0.187592,-0.01285,-0.008534,0.016638999999999998,-38.25,-0.75,-33.68,1a
2019-07-15_174221:620,-0.425537,-0.006592,-0.160126,-0.012697,-0.001698,0.019111000000000003,-38.25,-1.5,-35.25,1a
2019-07-15_174221:640,-0.40823400000000004,-0.017273,-0.143372,-0.011995,0.016246,0.021613999999999998,-38.25,-1.5,-35.25,1a
2019-07-15_174221:660,-0.35180700000000004,-0.026917,-0.12200899999999999,-0.012118,0.02122,0.020424,-38.25,-1.5,-35.25,1a
2019-07-15_174221:680,-0.318756,-0.031006,-0.111328,-0.011995,0.020885,0.019966,-37.5,0.0,-36.060001,1a
2019-07-15_174221:700,-0.321808,-0.036072,-0.113373,-0.010714,0.012004,0.01493,-37.5,0.0,-36.060001,1a
2019-07-15_174221:720,-0.341644,-0.034546,-0.12200899999999999,-0.01047,0.009288,0.012062,-37.5,0.0,-36.060001,1a
2019-07-15_174221:740,-0.378265,-0.028961,-0.127106,-0.008578,0.005046,0.005745,-38.560001,0.0,-35.68,1a
2019-07-15_174221:760,-0.401123,-0.028442000000000002,-0.12149000000000001,-0.007998,0.004161,0.004219,-38.560001,0.0,-35.68,1a
2019-07-15_174221:780,-0.48553500000000005,-0.019318000000000002,-0.141846,-0.006869,0.001964,0.002113,-38.560001,0.0,-34.5,1a
2019-07-15_174221:800,-0.5267029999999999,-0.015228,-0.160126,-0.005556,0.002055,0.000221,-38.560001,0.0,-34.5,1a
2019-07-15_174221:820,-0.559265,-0.014221000000000001,-0.16217,-0.005068,0.0023,-0.0017929999999999999,-39.369999,0.0,-34.060001,1a
2019-07-15_174221:840,-0.5495909999999999,-0.007599,-0.183014,-0.00403,0.001537,-0.003106,-39.369999,0.0,-34.060001,1a
2019-07-15_174221:860,-0.5185850000000001,-0.007111,-0.198273,-0.003939,-0.000264,-0.000267,-39.369999,0.0,-34.060001,1a
2019-07-15_174221:880,-0.517059,-0.009644,-0.22216799999999998,-0.004,-0.001973,-0.000176,-39.0,-0.37,-34.5,1a
2019-07-15_174221:900,-0.8851620000000001,-0.005065999999999999,-0.256744,-0.002932,-0.009022,-0.002098,-39.0,-0.37,-34.5,1a
2019-07-15_174221:920,-0.556213,-0.036591000000000005,-0.245056,-0.0028399999999999996,-0.0008439999999999999,-0.00396,-39.0,-0.37,-34.5,1a
2019-07-15_174221:940,-0.6238100000000001,-0.014221000000000001,-0.22879000000000002,-0.0022600000000000003,0.025401,-0.002373,-39.0,-1.06,-35.25,1a
2019-07-15_174221:960,-0.515015,-0.020325,-0.20385699999999998,-0.005922,0.04127,0.008491,-39.0,-1.06,-35.25,1a
2019-07-15_174221:980,-0.445374,-0.046752999999999996,-0.137268,-0.007723000000000001,0.040874,0.012672,-39.369999,-0.37,-34.5,1a
2019-07-15_174222:000,-0.416901,-0.056915,-0.170807,-0.012301000000000001,0.022746000000000002,0.028267,-39.369999,-0.37,-34.5,1a
2019-07-15_174222:020,-0.380798,-0.085388,-0.160126,-0.013827,0.013805000000000001,0.029243,-40.75,-0.75,-33.25,1a
2019-07-15_174222:040,-0.398071,-0.097595,-0.168274,-0.014773,-0.011861,0.021034,-40.75,-0.75,-33.25,1a
2019-07-15_174222:060,-0.45605500000000004,-0.095581,-0.175903,-0.015016999999999999,-0.019887000000000002,0.014137,-40.75,-0.75,-33.25,1a
2019-07-15_174222:080,-0.46469099999999997,-0.095581,-0.170807,-0.014712000000000001,-0.02068,0.010017,-40.75,0.68,-33.0,1a
2019-07-15_174222:100,-0.45907600000000004,-0.081848,-0.17538499999999999,-0.013033000000000001,-0.014119,-0.004631000000000001,-40.75,0.68,-33.0,1a
2019-07-15_174222:120,-0.43621800000000005,-0.069122,-0.176422,-0.012362,-0.010334999999999999,-0.008232,-40.75,0.68,-33.0,1a
2019-07-15_174222:140,-0.40011599999999997,-0.047791,-0.164215,-0.012057,0.002635,-0.011528,-40.75,0.0,-33.68,1a
2019-07-15_174222:160,-0.388916,-0.038635,-0.150482,-0.012301000000000001,0.006297,-0.010154999999999999,-40.75,0.0,-33.68,1a
2019-07-15_174222:180,-0.37316900000000003,-0.030487,-0.12912,-0.012362,0.012248,-0.008934000000000001,-39.75,-0.37,-33.25,1a
2019-07-15_174222:200,-0.35180700000000004,-0.024902,-0.11538699999999999,-0.012911,0.016063,-0.010064,-39.75,-0.37,-33.25,1a
2019-07-15_174222:220,-0.345215,-0.015747,-0.102173,-0.01285,0.015513999999999998,-0.010551999999999999,-39.75,-0.37,-33.25,1a
2019-07-15_174222:240,-0.34368899999999997,-0.009644,-0.100159,-0.013033000000000001,0.012004,-0.008751,-40.060001,-0.75,-33.68,1a
2019-07-15_174222:260,-0.383331,-0.012695,-0.095581,-0.013918,0.007304000000000001,-0.007347,-40.060001,-0.75,-33.68,1a
2019-07-15_174222:280,-0.411285,-0.011687999999999999,-0.107269,-0.014956,0.003825,-0.004235,-40.75,-1.87,-33.25,1a
2019-07-15_174222:300,-0.441803,-0.015747,-0.10775799999999999,-0.015627000000000002,0.002574,0.000648,-40.75,-1.87,-33.25,1a
2019-07-15_174222:320,-0.474854,-0.016266,-0.11386099999999999,-0.017092,0.002574,0.0033640000000000002,-40.75,-1.87,-33.25,1a
2019-07-15_174222:340,-0.5109560000000001,-0.011687999999999999,-0.134705,-0.01935,0.000346,0.0065379999999999995,-40.75,-1.87,-32.5,1a
2019-07-15_174222:360,-0.5480649999999999,-0.015747,-0.135742,-0.02286,-0.003102,0.011329,-40.75,-1.87,-32.5,1a
2019-07-15_174222:380,-0.566864,-0.026917,-0.156067,-0.026644,-0.006093,0.015266,-40.060001,-3.0,-32.060001,1a
2019-07-15_174222:400,-0.546539,-0.031006,-0.161652,-0.029848000000000003,-0.006886,0.018287,-40.060001,-3.0,-32.060001,1a
2019-07-15_174222:420,-0.557739,-0.039124,-0.194214,-0.030213999999999998,-0.0052380000000000005,0.018959,-40.060001,-3.0,-32.060001,1a
2019-07-15_174222:440,-0.873444,-0.045226999999999996,-0.189636,-0.029574,-0.006551,0.017433,-40.060001,-3.0,-32.5,1a
2019-07-15_174222:460,-0.48349,-0.047791,-0.20742800000000003,-0.03055,-0.001759,0.023475,-40.060001,-3.0,-32.5,1a
2019-07-15_174222:480,-0.577545,-0.026917,-0.154541,-0.029908999999999998,0.014446,0.019172,-40.5,-3.68,-32.5,1a
2019-07-15_174222:500,-0.46926899999999994,0.006072999999999999,-0.192169,-0.026583,0.022075,0.015113,-40.5,-3.68,-32.5,1a
2019-07-15_174222:520,-0.502319,0.015228,-0.131653,-0.027498,0.023601,0.007209,-40.5,-3.68,-32.5,1a
2019-07-15_174222:540,-0.497742,0.036072,-0.162689,-0.027101999999999998,0.016582,-0.000267,-41.18,-3.25,-31.059998999999998,1a
2019-07-15_174222:560,-0.45605500000000004,0.039642000000000004,-0.136749,-0.02936,0.009197,-0.004692,-41.18,-3.25,-31.059998999999998,1a
2019-07-15_174222:580,-0.5109560000000001,0.046265,-0.172852,-0.030886,-0.003896,-0.004906000000000001,-41.560001,-3.0,-30.68,1a
2019-07-15_174222:600,-0.47332799999999997,0.047272,-0.172333,-0.032686,-0.015431,0.001045,-41.560001,-3.0,-30.68,1a
2019-07-15_174222:620,-0.44891400000000004,0.042694,-0.184021,-0.033602,-0.021352,0.005836,-41.560001,-3.0,-30.68,1a
2019-07-15_174222:640,-0.44433599999999995,0.041168,-0.17996199999999998,-0.035616,-0.018971000000000002,0.012458,-41.18,-4.75,-30.18,1a
2019-07-15_174222:660,-0.447906,0.031006,-0.172852,-0.038332,-0.009816,0.023994,-41.18,-4.75,-30.18,1a
2019-07-15_174222:680,-0.405212,0.016753999999999998,-0.147949,-0.042452,0.004161,0.033027,-40.560001,-5.68,-31.059998999999998,1a
2019-07-15_174222:700,-0.384857,0.0055850000000000006,-0.12558,-0.045564999999999994,0.016765000000000002,0.034553,-40.560001,-5.68,-31.059998999999998,1a
2019-07-15_174222:720,-0.353851,-0.011169,-0.101685,-0.047152,0.025462000000000002,0.031105,-40.560001,-5.68,-31.059998999999998,1a
2019-07-15_174222:740,-0.332489,-0.016753999999999998,-0.084381,-0.048556,0.029979000000000002,0.028114,-40.060001,-6.06,-31.059998999999998,1a
2019-07-15_174222:760,-0.3508,-0.022858,-0.078278,-0.049227,0.029704,0.02787,-40.060001,-6.06,-31.059998999999998,1a
2019-07-15_174222:780,-0.363007,-0.029968,-0.077271,-0.05002,0.028911000000000003,0.028663,-41.560001,-5.68,-29.5,1a
2019-07-15_174222:800,-0.382324,-0.037598,-0.07421900000000001,-0.049563,0.028117000000000003,0.027533999999999996,-41.560001,-5.68,-29.5,1a
2019-07-15_174222:820,-0.429108,-0.038116000000000004,-0.090485,-0.047365,0.02534,0.024543000000000002,-41.560001,-5.68,-29.5,1a
2019-07-15_174222:840,-0.48349,-0.047791,-0.094055,-0.044832,0.026407999999999997,0.022499,-41.18,-4.87,-28.25,1a
2019-07-15_174222:860,-0.532806,-0.046752999999999996,-0.114899,-0.040774,0.02653,0.020424,-41.18,-4.87,-28.25,1a
2019-07-15_174222:880,-0.537903,-0.056427,-0.11538699999999999,-0.035463,0.025218,0.016304,-42.369999,-6.37,-25.870001000000002,1a
2019-07-15_174222:900,-0.585175,-0.051849,-0.109802,-0.02997,0.021892,0.007087,-42.369999,-6.37,-25.870001000000002,1a
2019-07-15_174222:920,-0.539917,-0.038635,-0.135742,-0.026125,0.018382,0.002235,-42.369999,-6.37,-25.870001000000002,1a
2019-07-15_174222:940,-0.517059,-0.039642000000000004,-0.147949,-0.022127,0.013255000000000001,-0.0021899999999999997,-43.560001,-5.25,-25.059998999999998,1a
2019-07-15_174222:960,-0.786011,-0.049316000000000006,-0.12353499999999999,-0.019198,0.005351,-0.013512,-43.560001,-5.25,-25.059998999999998,1a
2019-07-15_174222:980,-0.771271,-0.008118,-0.208954,-0.01755,-0.002705,-0.018029,-43.560001,-6.5,-23.559998999999998,1a
2019-07-15_174223:000,-0.585693,-0.020325,-0.107269,-0.016572999999999997,0.010326,-0.014977,-43.560001,-6.5,-23.559998999999998,1a
2019-07-15_174223:020,-0.523651,-0.007599,-0.18454,-0.015749000000000003,0.018962,-0.013787,-43.560001,-6.5,-23.559998999999998,1a
2019-07-15_174223:040,-0.39502,-0.024384,-0.134705,-0.018831,0.029338,-0.000573,-43.25,-8.25,-23.18,1a
2019-07-15_174223:060,-0.47943100000000005,-0.036072,-0.095581,-0.022005,0.028392,0.009742,-43.25,-8.25,-23.18,1a
2019-07-15_174223:080,-0.43927,-0.048798,-0.13269,-0.02585,0.018779,0.021095,-42.869999,-8.68,-22.370001000000002,1a
2019-07-15_174223:100,-0.387909,-0.074738,-0.112854,-0.028383,0.008067,0.026527,-42.869999,-8.68,-22.370001000000002,1a
2019-07-15_174223:120,-0.45706199999999997,-0.079803,-0.135742,-0.028322000000000003,-0.005757,0.018318,-42.869999,-8.68,-22.370001000000002,1a
2019-07-15_174223:140,-0.45706199999999997,-0.078278,-0.136749,-0.028627999999999997,-0.014790000000000001,0.011848000000000001,-44.0,-8.25,-20.0,1a
2019-07-15_174223:160,-0.46823100000000006,-0.081848,-0.133698,-0.026766,-0.018512999999999998,0.006233,-44.0,-8.25,-20.0,1a
2019-07-15_174223:180,-0.47332799999999997,-0.069641,-0.139801,-0.025332,-0.01656,-0.004418,-42.560001,-8.37,-20.870001000000002,1a
2019-07-15_174223:200,-0.432159,-0.055389,-0.129639,-0.023469999999999998,-0.010731000000000001,-0.010277,-42.560001,-8.37,-20.870001000000002,1a
2019-07-15_174223:220,-0.410797,-0.045745999999999995,-0.12200899999999999,-0.020753999999999998,-0.003896,-0.014183000000000001,-42.560001,-8.37,-20.870001000000002,1a
2019-07-15_174223:240,-0.38739,-0.031006,-0.10775799999999999,-0.019137,0.002361,-0.018241999999999998,-42.25,-8.75,-21.68,1a
2019-07-15_174223:260,-0.384857,-0.022858,-0.096588,-0.01697,0.006541,-0.021019,-42.25,-8.75,-21.68,1a
2019-07-15_174223:280,-0.382812,-0.009644,-0.079803,-0.014834,0.009073999999999999,-0.02224,-41.869999,-9.87,-20.5,1a
2019-07-15_174223:300,-0.382812,-0.004059,-0.0737,-0.013643,0.009746,-0.022087,-41.869999,-9.87,-20.5,1a
2019-07-15_174223:320,-0.390442,-0.0025329999999999997,-0.063538,-0.013491,0.009531999999999999,-0.019951,-41.869999,-9.87,-20.5,1a
2019-07-15_174223:340,-0.40976,-0.0025329999999999997,-0.056427,-0.013521,0.008891,-0.017174000000000002,-41.869999,-10.68,-19.68,1a
2019-07-15_174223:360,-0.431122,-0.0030210000000000002,-0.056915,-0.013918,0.007273999999999999,-0.014641,-41.869999,-10.68,-19.68,1a
2019-07-15_174223:380,-0.445374,-0.002014,-0.06253099999999999,-0.013918,0.004954999999999999,-0.011742,-41.560001,-12.25,-20.5,1a
2019-07-15_174223:400,-0.498749,0.005065999999999999,-0.069122,-0.014497999999999999,0.002361,-0.008019,-41.560001,-12.25,-20.5,1a
2019-07-15_174223:420,-0.520111,0.008118,-0.078796,-0.016572999999999997,-0.00044699999999999997,-0.002098,-41.560001,-12.25,-20.5,1a
2019-07-15_174223:440,-0.5872189999999999,0.0025329999999999997,-0.085388,-0.019472,-0.0033770000000000002,0.004615,-42.369999,-12.68,-19.25,1a
2019-07-15_174223:460,-0.585693,0.0,-0.102173,-0.023256,-0.006551,0.011451000000000001,-42.369999,-12.68,-19.25,1a
2019-07-15_174223:480,-0.5404359999999999,-0.009644,-0.111328,-0.026247000000000003,-0.006825,0.020027,-40.869999,-12.68,-19.68,1a
2019-07-15_174223:500,-0.561279,-0.009644,-0.130127,-0.026522000000000004,-0.0037119999999999996,0.023292,-40.869999,-12.68,-19.68,1a
2019-07-15_174223:520,-0.854126,0.005065999999999999,-0.150482,-0.026247000000000003,-0.002156,0.021827000000000003,-40.869999,-12.68,-19.68,1a
2019-07-15_174223:540,-0.580597,-0.005065999999999999,-0.17944300000000002,-0.029908999999999998,1.1e-05,0.027198000000000003,-40.869999,-13.0,-18.5,1a
2019-07-15_174223:560,-0.559753,0.016753999999999998,-0.098633,-0.034884,0.022899,0.03199,-40.869999,-13.0,-18.5,1a
2019-07-15_174223:580,-0.583649,0.022369,-0.1586,-0.035891,0.030864,0.039192000000000005,-40.869999,-11.5,-18.870001000000002,1a
2019-07-15_174223:600,-0.564331,0.020325,-0.084381,-0.040651,0.038097000000000006,0.032722,-40.869999,-11.5,-18.870001000000002,1a
2019-07-15_174223:620,-0.535339,0.01828,-0.07928500000000001,-0.042970999999999995,0.035227999999999995,0.016028999999999998,-40.869999,-11.5,-18.870001000000002,1a
2019-07-15_174223:640,-0.50943,0.023895,-0.066071,-0.042299,0.031963,0.001777,-40.869999,-12.25,-17.0,1a
2019-07-15_174223:660,-0.520111,0.025908999999999998,-0.080322,-0.043123,0.022472,-0.0038380000000000003,-40.869999,-12.25,-17.0,1a
2019-07-15_174223:680,-0.42807,0.022369,-0.096588,-0.043917000000000005,0.010204000000000001,-0.003228,-40.869999,-10.75,-15.25,1a
2019-07-15_174223:700,-0.396057,0.022369,-0.09963999999999999,-0.043093,-0.001637,-0.0029219999999999997,-40.869999,-10.75,-15.25,1a
2019-07-15_174223:720,-0.388916,0.022369,-0.10928299999999999,-0.040651,-0.009328,-0.000389,-40.869999,-10.75,-15.25,1a
2019-07-15_174223:740,-0.381317,0.018799,-0.10675,-0.037722000000000006,-0.010884,0.006141,-40.869999,-12.37,-14.56,1a
2019-07-15_174223:760,-0.390961,0.011169,-0.09301799999999999,-0.035006,-0.007954000000000001,0.013800999999999999,-40.869999,-12.37,-14.56,1a
2019-07-15_174223:780,-0.393494,0.006592,-0.082336,-0.033755,-0.001454,0.022895,-40.869999,-13.06,-15.18,1a
2019-07-15_174223:800,-0.374176,-0.005065999999999999,-0.066071,-0.033236,0.005443,0.032295,-40.869999,-13.06,-15.18,1a
2019-07-15_174223:820,-0.352844,-0.013702,-0.061005,-0.033816000000000006,0.010265,0.037086,-40.869999,-13.06,-15.18,1a
2019-07-15_174223:840,-0.3396,-0.026427999999999997,-0.047791,-0.034945,0.009807,0.038276,-40.869999,-13.0,-14.87,1a
2019-07-15_174223:860,-0.340118,-0.032532,-0.050842,-0.03528,0.004039,0.037361,-40.869999,-13.0,-14.87,1a
2019-07-15_174223:880,-0.34674099999999997,-0.050323,-0.062012,-0.035067,-0.006764,0.031958999999999994,-41.18,-11.18,-13.25,1a
2019-07-15_174223:900,-0.364014,-0.049805,-0.0737,-0.033693,-0.021809000000000002,0.023994,-41.18,-11.18,-13.25,1a
2019-07-15_174223:920,-0.433655,-0.068634,-0.075226,-0.030764,-0.035358999999999995,0.017494,-41.18,-11.18,-13.25,1a
2019-07-15_174223:940,-0.521637,-0.074738,-0.087952,-0.025637,-0.04192,0.009009999999999999,-40.5,-10.75,-13.68,1a
2019-07-15_174223:960,-0.600952,-0.073212,-0.113373,-0.01874,-0.03893,0.000984,-40.5,-10.75,-13.68,1a
2019-07-15_174223:980,-0.607544,-0.062012,-0.13269,-0.011385,-0.030598,-0.0064930000000000005,-39.75,-11.5,-15.18,1a
2019-07-15_174224:000,-0.566864,-0.029968,-0.17337,-0.006258,-0.024342,-0.009819,-39.75,-11.5,-15.18,1a
2019-07-15_174224:020,-0.563812,-0.017273,-0.186584,-0.003664,-0.018971000000000002,-0.012412999999999999,-39.75,-11.5,-15.18,1a
2019-07-15_174224:040,-0.934967,-0.021332,-0.158112,-0.0034509999999999996,-0.014516,-0.018456,-39.0,-10.37,-15.25,1a
2019-07-15_174224:060,-0.611115,0.009644,-0.242493,-0.0056170000000000005,-0.013386000000000002,-0.015801,-39.0,-10.37,-15.25,1a
2019-07-15_174224:080,-0.503326,-0.030487,-0.158112,-0.008578,1.1e-05,-0.017327000000000002,-37.869999,-12.25,-15.25,1a
2019-07-15_174224:100,-0.460114,-0.008636,-0.20742800000000003,-0.008578,0.004161,-0.025353,-37.869999,-12.25,-15.25,1a
2019-07-15_174224:120,-0.48095699999999997,-0.028961,-0.140808,-0.012575,0.010081999999999999,-0.013207,-37.869999,-12.25,-15.25,1a
2019-07-15_174224:140,-0.473846,-0.041168,-0.166229,-0.015962999999999998,0.0052899999999999996,0.003242,-36.75,-13.0,-17.0,1a
2019-07-15_174224:160,-0.435699,-0.048798,-0.165741,-0.019533000000000002,-0.005025,0.011451000000000001,-36.75,-13.0,-17.0,1a
2019-07-15_174224:180,-0.49926800000000005,-0.050323,-0.18096900000000002,-0.020876,-0.014180000000000002,0.007606,-36.369999,-13.75,-16.18,1a
2019-07-15_174224:200,-0.504333,-0.044219999999999995,-0.197266,-0.020937,-0.022144999999999998,0.00016,-36.369999,-13.75,-16.18,1a
2019-07-15_174224:220,-0.503326,-0.040161,-0.189636,-0.022249,-0.023030000000000002,0.000404,-36.369999,-13.75,-16.18,1a
2019-07-15_174224:240,-0.491638,-0.036591000000000005,-0.193176,-0.023134000000000002,-0.020283000000000002,0.001625,-36.369999,-13.37,-15.37,1a
2019-07-15_174224:260,-0.435699,-0.028442000000000002,-0.178955,-0.024386,-0.014728999999999999,-0.0008470000000000001,-36.369999,-13.37,-15.37,1a
2019-07-15_174224:280,-0.40063499999999996,-0.021851,-0.170319,-0.024386,-0.008870000000000001,-0.004113,-34.869999,-14.18,-16.25,1a
2019-07-15_174224:300,-0.382812,-0.013213999999999998,-0.151001,-0.024659999999999998,-0.0045060000000000005,-0.00457,-34.869999,-14.18,-16.25,1a
2019-07-15_174224:320,-0.37112399999999995,-0.009644,-0.141327,-0.024721,-0.000661,-0.00277,-34.869999,-14.18,-16.25,1a
2019-07-15_174224:340,-0.356903,-0.006072999999999999,-0.12558,-0.024538,0.002635,-0.0012439999999999999,-34.869999,-14.5,-17.059998999999998,1a
2019-07-15_174224:360,-0.35436999999999996,-0.0055850000000000006,-0.11843900000000002,-0.024538,0.004375,-0.001,-34.869999,-14.5,-17.059998999999998,1a
2019-07-15_174224:380,-0.36044299999999996,-0.005065999999999999,-0.12149000000000001,-0.023928,0.003917,-0.002892,-33.869999,-15.56,-15.87,1a
2019-07-15_174224:400,-0.379272,0.0,-0.11438,-0.023867,0.003093,-0.005547,-33.869999,-15.56,-15.87,1a
2019-07-15_174224:420,-0.401642,-0.005065999999999999,-0.126068,-0.024659999999999998,0.002513,-0.0032890000000000003,-33.869999,-15.56,-15.87,1a
2019-07-15_174224:440,-0.42401099999999997,-0.008118,-0.122528,-0.025179,0.003307,0.000129,-32.68,-15.56,-15.5,1a
2019-07-15_174224:460,-0.46823100000000006,-0.005065999999999999,-0.145905,-0.025575999999999998,0.002635,0.001045,-32.68,-15.56,-15.5,1a
2019-07-15_174224:480,-0.507904,-0.004547,-0.148956,-0.027437,0.001598,0.008278,-34.18,-16.370001000000002,-15.5,1a
2019-07-15_174224:500,-0.572968,-0.008118,-0.154541,-0.029848000000000003,0.0016589999999999999,0.014594999999999999,-34.18,-16.370001000000002,-15.5,1a
2019-07-15_174224:520,-0.589752,-0.008118,-0.165741,-0.032808,0.00352,0.01963,-34.18,-16.370001000000002,-15.5,1a
2019-07-15_174224:540,-0.539429,-0.0030210000000000002,-0.167755,-0.037264,0.007213,0.026741,-33.5,-17.059998999999998,-15.5,1a
2019-07-15_174224:560,-0.582123,0.000488,-0.172852,-0.040926,0.009288,0.030586000000000002,-33.5,-17.059998999999998,-15.5,1a
2019-07-15_174224:580,-0.6975399999999999,0.015747,-0.256226,-0.046876999999999995,0.000468,0.032173,-32.369999,-17.059998999999998,-14.87,1a
2019-07-15_174224:600,-0.5272220000000001,-0.0025329999999999997,-0.183014,-0.05444500000000001,0.011881999999999998,0.033119,-32.369999,-17.059998999999998,-14.87,1a
2019-07-15_174224:620,-0.58316,0.019318000000000002,-0.19622799999999999,-0.056001999999999996,0.020488,0.030861000000000003,-32.369999,-17.059998999999998,-14.87,1a
2019-07-15_174224:640,-0.466217,0.029968,-0.191162,-0.056001999999999996,0.029124,0.020149,-32.369999,-15.56,-14.5,1a
2019-07-15_174224:660,-0.49517799999999995,0.058960000000000005,-0.156586,-0.05533,0.023937,0.000404,-32.369999,-15.56,-14.5,1a
2019-07-15_174224:680,-0.462128,0.0849,-0.17843599999999998,-0.053529999999999994,0.012187,-0.007958,-32.75,-16.370001000000002,-12.5,1a
2019-07-15_174224:700,-0.445374,0.095062,-0.152008,-0.053926999999999996,-5e-05,-0.008477,-32.75,-16.370001000000002,-12.5,1a
2019-07-15_174224:720,-0.504333,0.09963999999999999,-0.17337,-0.055269000000000006,-0.013050999999999998,-0.004906000000000001,-32.75,-16.370001000000002,-12.5,1a
2019-07-15_174224:740,-0.47689799999999993,0.102692,-0.168793,-0.056307,-0.020497,0.0075450000000000005,-31.559998999999998,-17.5,-11.0,1a
2019-07-15_174224:760,-0.44891400000000004,0.096588,-0.17690999999999998,-0.057039,-0.02187,0.021888,-31.559998999999998,-17.5,-11.0,1a
2019-07-15_174224:780,-0.399597,0.083862,-0.177948,-0.058382,-0.016774,0.031654,-32.0,-17.75,-10.06,1a
2019-07-15_174224:800,-0.395538,0.07421900000000001,-0.167755,-0.060244000000000006,-0.009755,0.039802,-32.0,-17.75,-10.06,1a
2019-07-15_174224:820,-0.374176,0.050842,-0.152527,-0.06335700000000001,-0.001118,0.046699,-32.0,-17.75,-10.06,1a
2019-07-15_174224:840,-0.354858,0.032532,-0.13623,-0.066256,0.0052899999999999996,0.049171,-32.0,-18.18,-10.06,1a
2019-07-15_174224:860,-0.319794,0.017273,-0.12506099999999998,-0.068728,0.007548999999999999,0.050087,-32.0,-18.18,-10.06,1a
2019-07-15_174224:880,-0.32132,0.005065999999999999,-0.128601,-0.069857,0.005748,0.050697000000000006,-32.369999,-17.0,-10.18,1a
2019-07-15_174224:900,-0.34265100000000004,-0.011687999999999999,-0.136749,-0.070376,0.003703,0.049568,-32.369999,-17.0,-10.18,1a
2019-07-15_174224:920,-0.364014,-0.021332,-0.142853,-0.069002,0.002788,0.044044,-32.369999,-17.0,-10.18,1a
2019-07-15_174224:940,-0.39502,-0.035583,-0.154022,-0.065798,0.0031850000000000003,0.035377,-33.5,-17.0,-8.68,1a
2019-07-15_174224:960,-0.429108,-0.040649,-0.168793,-0.060305,0.0034289999999999998,0.02555,-33.5,-17.0,-8.68,1a
2019-07-15_174224:980,-0.49722299999999997,-0.040161,-0.189117,-0.05414,0.003307,0.017189,-33.869999,-16.25,-7.56,1a
2019-07-15_174225:000,-0.522644,-0.036591000000000005,-0.192688,-0.046755,0.00471,0.010475,-33.869999,-16.25,-7.56,1a
2019-07-15_174225:020,-0.577545,-0.024384,-0.190643,-0.039736,0.007304000000000001,0.002845,-33.869999,-16.25,-7.56,1a
2019-07-15_174225:040,-0.600433,-0.007111,-0.192688,-0.034731,0.009959,-0.0013050000000000002,-32.560001,-15.75,-6.75,1a
2019-07-15_174225:060,-0.564331,-0.000488,-0.193176,-0.030152999999999996,0.01353,-0.002037,-32.560001,-15.75,-6.75,1a
2019-07-15_174225:080,-0.556702,0.0035399999999999997,-0.20944200000000002,-0.02585,0.015666,-0.007897,-33.75,-16.18,-6.0,1a
2019-07-15_174225:100,-0.9125979999999999,-0.0025329999999999997,-0.17538499999999999,-0.021273,0.015453,-0.013848,-33.75,-16.18,-6.0,1a
2019-07-15_174225:120,-0.558228,0.025421,-0.24453699999999998,-0.01816,0.012401,-0.009362,-33.75,-16.18,-6.0,1a
2019-07-15_174225:140,-0.603485,0.024902,-0.17944300000000002,-0.018404,0.024608,-0.007012000000000001,-33.75,-16.18,-4.06,1a
2019-07-15_174225:160,-0.470276,0.017792,-0.23590100000000003,-0.020998,0.025737,0.008339,-33.75,-16.18,-4.06,1a
2019-07-15_174225:180,-0.386383,-0.015747,-0.159637,-0.026583,0.032054,0.019966,-33.0,-16.870001000000002,-4.06,1a
2019-07-15_174225:200,-0.46316499999999994,-0.025421,-0.141327,-0.031832,0.02708,0.028724,-33.0,-16.870001000000002,-4.06,1a
2019-07-15_174225:220,-0.38385,-0.049316000000000006,-0.160126,-0.03705,0.016399,0.042213,-33.0,-16.870001000000002,-4.06,1a
2019-07-15_174225:240,-0.34368899999999997,-0.070648,-0.158112,-0.039797000000000006,-5e-05,0.041542,-33.369999,-17.68,-3.75,1a
2019-07-15_174225:260,-0.420959,-0.075745,-0.188599,-0.041323,-0.018971000000000002,0.028845999999999997,-33.369999,-17.68,-3.75,1a
2019-07-15_174225:280,-0.42807,-0.0737,-0.189117,-0.043093,-0.027119,0.021431,-34.75,-15.75,-1.37,1a
2019-07-15_174225:300,-0.466217,-0.07016,-0.20385699999999998,-0.042910000000000004,-0.026204,0.014594999999999999,-34.75,-15.75,-1.37,1a
2019-07-15_174225:320,-0.45095799999999997,-0.060486,-0.21505700000000003,-0.043764,-0.019643,0.005043,-34.75,-15.75,-1.37,1a
2019-07-15_174225:340,-0.425018,-0.043701,-0.20385699999999998,-0.043123,-0.01067,-0.0019149999999999998,-33.75,-15.37,-2.68,1a
2019-07-15_174225:360,-0.412811,-0.032532,-0.193695,-0.042299,-0.0005690000000000001,-0.006829000000000001,-33.75,-15.37,-2.68,1a
2019-07-15_174225:380,-0.41232299999999994,-0.017273,-0.1698,-0.041658999999999995,0.008159,-0.010948999999999999,-34.0,-15.0,-2.68,1a
2019-07-15_174225:400,-0.402161,-0.006592,-0.144897,-0.041201,0.015178,-0.014458000000000002,-34.0,-15.0,-2.68,1a
2019-07-15_174225:420,-0.388428,0.007111,-0.12558,-0.041323,0.018565,-0.016899,-34.0,-15.0,-2.68,1a
2019-07-15_174225:440,-0.377228,0.016753999999999998,-0.119965,-0.042910000000000004,0.018687,-0.017113,-33.68,-15.37,-1.5,1a
2019-07-15_174225:460,-0.37674,0.023375999999999997,-0.111328,-0.045045999999999996,0.01646,-0.013604,-33.68,-15.37,-1.5,1a
2019-07-15_174225:480,-0.40011599999999997,0.028442000000000002,-0.110321,-0.047762,0.014322999999999999,-0.007836,-34.0,-16.18,0.87,1a
2019-07-15_174225:500,-0.421967,0.036591000000000005,-0.108276,-0.050142,0.013193999999999999,-0.002526,-34.0,-16.18,0.87,1a
2019-07-15_174225:520,-0.46569799999999995,0.038635,-0.117432,-0.052797000000000004,0.011089,0.000587,-34.0,-16.18,0.87,1a
2019-07-15_174225:540,-0.495697,0.041168,-0.121002,-0.056399,0.009929,0.00663,-33.68,-16.5,3.25,1a
2019-07-15_174225:560,-0.530792,0.038635,-0.12912,-0.060578999999999994,0.0069689999999999995,0.016791999999999998,-33.68,-16.5,3.25,1a
2019-07-15_174225:580,-0.556702,0.027435,-0.145386,-0.066012,0.003764,0.027777999999999997,-32.560001,-16.25,1.56,1a
2019-07-15_174225:600,-0.535339,0.017792,-0.152008,-0.0712,0.002116,0.036567,-32.560001,-16.25,1.56,1a
2019-07-15_174225:620,-0.5343319999999999,0.007111,-0.164703,-0.07422100000000001,0.002757,0.041328,-32.560001,-16.25,1.56,1a
2019-07-15_174225:640,-0.81601,0.001495,-0.19574,-0.074892,0.0008039999999999999,0.039557999999999996,-33.0,-15.5,3.56,1a
2019-07-15_174225:660,-0.553162,-0.023895,-0.209961,-0.07608200000000001,-0.003773,0.040016,-33.0,-15.5,3.56,1a
2019-07-15_174225:680,-0.5709529999999999,0.007599,-0.169281,-0.077364,0.00941,0.041602999999999994,-34.060001,-14.06,5.18,1a
2019-07-15_174225:700,-0.47842399999999996,0.014740000000000001,-0.174896,-0.072115,0.017375,0.046699,-34.060001,-14.06,5.18,1a
2019-07-15_174225:720,-0.510437,0.03302,-0.139801,-0.068728,0.022502,0.03025,-34.060001,-14.06,5.18,1a
2019-07-15_174225:740,-0.475372,0.068115,-0.159637,-0.066256,0.014659,0.013313,-34.060001,-12.18,6.68,1a
2019-07-15_174225:760,-0.431641,0.08081100000000001,-0.145386,-0.066073,0.004894,0.012275,-34.060001,-12.18,6.68,1a
2019-07-15_174225:780,-0.457581,0.077271,-0.162689,-0.06866699999999999,-0.008870000000000001,0.011665,-34.060001,-10.37,6.25,1a
2019-07-15_174225:800,-0.449432,0.075745,-0.170807,-0.071505,-0.021504,0.014106,-34.060001,-10.37,6.25,1a
2019-07-15_174225:820,-0.434692,0.068115,-0.174377,-0.071657,-0.029256,0.021339,-34.060001,-10.37,6.25,1a
2019-07-15_174225:840,-0.420959,0.057434000000000006,-0.18454,-0.071657,-0.029042000000000002,0.027931,-34.5,-9.25,7.18,1a
2019-07-15_174225:860,-0.42248500000000005,0.047272,-0.180481,-0.070467,-0.022206,0.035774,-34.5,-9.25,7.18,1a
2019-07-15_174225:880,-0.41586300000000004,0.021851,-0.163696,-0.069002,-0.01125,0.043647000000000005,-34.5,-8.18,7.18,1a
2019-07-15_174225:900,-0.38385,0.010651,-0.14843800000000001,-0.067385,0.000468,0.047035,-34.5,-8.18,7.18,1a
2019-07-15_174225:920,-0.33300799999999997,-0.006592,-0.130127,-0.06640800000000001,0.007823,0.046638,-34.5,-8.18,7.18,1a
2019-07-15_174225:940,-0.311646,-0.016266,-0.131165,-0.065127,0.008891,0.044502,-35.869999,-6.37,7.18,1a
2019-07-15_174225:960,-0.341125,-0.027954000000000003,-0.126068,-0.06341799999999999,0.006358,0.039955000000000004,-35.869999,-6.37,7.18,1a
2019-07-15_174225:980,-0.378265,-0.032013,-0.138794,-0.061098,0.004619,0.034033999999999995,-35.560001,-3.68,7.18,1a
2019-07-15_174226:000,-0.410278,-0.028442000000000002,-0.151001,-0.05823,0.007091,0.029914,-35.560001,-3.68,7.18,1a
2019-07-15_174226:020,-0.45605500000000004,-0.021851,-0.163696,-0.055269000000000006,0.012584,0.025673,-35.560001,-3.68,7.18,1a
2019-07-15_174226:040,-0.519592,0.0025329999999999997,-0.17690999999999998,-0.054110000000000005,0.020763,0.019844,-36.0,-1.87,8.06,1a
2019-07-15_174226:060,-0.518066,0.011169,-0.17996199999999998,-0.05533,0.028911000000000003,0.013404,-36.0,-1.87,8.06,1a
2019-07-15_174226:080,-0.52774,0.0055850000000000006,-0.17944300000000002,-0.057253,0.032389999999999995,0.0026320000000000002,-35.68,-0.75,8.37,1a
2019-07-15_174226:100,-0.559265,0.000488,-0.171326,-0.056916999999999995,0.030833,-0.005639,-35.68,-0.75,8.37,1a
2019-07-15_174226:120,-0.5424800000000001,0.004059,-0.17385899999999999,-0.052523,0.02708,-0.006554000000000001,-35.68,-0.75,8.37,1a
2019-07-15_174226:140,-0.533325,0.007111,-0.17337,-0.045748000000000004,0.022624000000000002,-0.008751,-34.560001,0.68,8.75,1a
2019-07-15_174226:160,-0.789062,0.014740000000000001,-0.130127,-0.038729,0.016856,-0.015709,-34.560001,0.68,8.75,1a
2019-07-15_174226:180,-0.737213,0.050842,-0.220642,-0.034548,0.006572,-0.015984,-34.25,1.06,9.68,1a
2019-07-15_174226:200,-0.5272220000000001,0.039642000000000004,-0.11691300000000002,-0.035525,0.010417000000000001,-0.008355,-34.25,1.06,9.68,1a
2019-07-15_174226:220,-0.47842399999999996,0.042175,-0.19165,-0.035067,0.007365000000000001,0.000984,-34.25,1.06,9.68,1a
2019-07-15_174226:240,-0.392487,0.016266,-0.142334,-0.037386,0.010661,0.016121,-35.0,0.68,10.56,1a
2019-07-15_174226:260,-0.477905,0.009644,-0.122528,-0.041781,0.009868,0.024665,-35.0,0.68,10.56,1a
2019-07-15_174226:280,-0.447388,-0.013702,-0.154022,-0.047945,0.003368,0.03556,-34.25,0.68,10.18,1a
2019-07-15_174226:300,-0.415375,-0.039124,-0.154022,-0.051789999999999996,-0.003834,0.033699,-34.25,0.68,10.18,1a
2019-07-15_174226:320,-0.45806899999999995,-0.041687,-0.17996199999999998,-0.051485,-0.011128,0.018287,-34.25,0.68,10.18,1a
2019-07-15_174226:340,-0.45706199999999997,-0.028442000000000002,-0.195221,-0.050477999999999995,-0.016896,0.011207,-34.0,2.56,9.5,1a
2019-07-15_174226:360,-0.494171,-0.027954000000000003,-0.187592,-0.04883,-0.018697,0.013130000000000001,-34.0,2.56,9.5,1a
2019-07-15_174226:380,-0.508423,-0.020325,-0.194214,-0.047609,-0.013142,0.008461,-34.25,3.25,9.5,1a
2019-07-15_174226:400,-0.451477,-0.0025329999999999997,-0.186066,-0.045839,-0.0018510000000000002,0.0043100000000000005,-34.25,3.25,9.5,1a
2019-07-15_174226:420,-0.429596,0.007599,-0.172852,-0.044039,0.008342,0.003975,-34.25,3.25,9.5,1a
2019-07-15_174226:440,-0.41333000000000003,0.013702,-0.146912,-0.043368000000000004,0.015788,0.0043100000000000005,-34.25,3.75,8.37,1a
2019-07-15_174226:460,-0.393494,0.015228,-0.12658699999999998,-0.043123,0.020366,0.005409000000000001,-34.25,3.75,8.37,1a
2019-07-15_174226:480,-0.37112399999999995,0.011687999999999999,-0.101685,-0.042849,0.021769999999999998,0.007026,-34.0,4.87,8.37,1a
2019-07-15_174226:500,-0.361969,0.007111,-0.096588,-0.041781,0.020152,0.007667,-34.0,4.87,8.37,1a
2019-07-15_174226:520,-0.364532,-0.0055850000000000006,-0.094055,-0.040316000000000005,0.015971,0.007759,-34.0,4.87,8.37,1a
2019-07-15_174226:540,-0.387909,-0.011687999999999999,-0.092529,-0.037722000000000006,0.010753,0.007026,-34.25,5.18,9.06,1a
2019-07-15_174226:560,-0.416382,-0.018799,-0.096069,-0.034609,0.006175,0.006691,-34.25,5.18,9.06,1a
2019-07-15_174226:580,-0.45401,-0.019318000000000002,-0.091003,-0.031954,0.005046,0.006934999999999999,-34.68,5.56,8.68,1a
2019-07-15_174226:600,-0.47842399999999996,-0.023375999999999997,-0.096069,-0.030581,0.004894,0.009742,-34.68,5.56,8.68,1a
2019-07-15_174226:620,-0.491638,-0.025421,-0.109802,-0.02997,0.002696,0.010872,-34.68,5.56,8.68,1a
2019-07-15_174226:640,-0.553162,-0.028961,-0.12200899999999999,-0.029818,-0.003102,0.009468,-32.75,6.37,8.37,1a
2019-07-15_174226:660,-0.554688,-0.029968,-0.132172,-0.029818,-0.008351,0.009925,-32.75,6.37,8.37,1a
2019-07-15_174226:680,-0.56076,-0.022858,-0.141327,-0.029024,-0.0072829999999999995,0.012916,-34.0,6.5,7.87,1a
2019-07-15_174226:700,-0.604492,-0.01828,-0.143372,-0.027498,-0.001393,0.015236000000000001,-34.0,6.5,7.87,1a
2019-07-15_174226:720,-0.773285,0.0035399999999999997,-0.21810900000000003,-0.02817,-0.001912,0.014656,-34.0,6.5,7.87,1a
2019-07-15_174226:740,-0.543488,-0.017273,-0.169281,-0.032351,0.000865,0.021949,-34.18,7.56,7.56,1a
2019-07-15_174226:760,-0.497742,0.009125,-0.152527,-0.032503,0.013072,0.018837,-34.18,7.56,7.56,1a
2019-07-15_174226:780,-0.473846,0.023375999999999997,-0.146423,-0.029176999999999998,0.020702,0.012397,-34.18,9.06,7.18,1a
2019-07-15_174226:800,-0.486023,0.051330999999999995,-0.14843800000000001,-0.026795999999999997,0.022014,-0.000328,-34.18,9.06,7.18,1a
2019-07-15_174226:820,-0.42758199999999996,0.064545,-0.14386,-0.027163,0.014597999999999998,-0.008477,-34.18,9.06,7.18,1a
2019-07-15_174226:840,-0.473846,0.068115,-0.154541,-0.028383,0.0016589999999999999,-0.008751,-33.18,9.5,7.25,1a
2019-07-15_174226:860,-0.51297,0.054901,-0.151489,-0.029757,-0.009206,-0.0019760000000000003,-33.18,9.5,7.25,1a
2019-07-15_174226:880,-0.502319,0.039124,-0.155548,-0.029574,-0.014577000000000001,0.003913000000000001,-34.0,8.68,5.25,1a
2019-07-15_174226:900,-0.47842399999999996,0.038116000000000004,-0.15506,-0.02878,-0.014638,0.008948999999999999,-34.0,8.68,5.25,1a
2019-07-15_174226:920,-0.42605600000000005,0.025908999999999998,-0.156586,-0.027651,-0.011739,0.013527,-34.0,8.68,5.25,1a
2019-07-15_174226:940,-0.412811,0.01828,-0.141846,-0.026795999999999997,-0.005971,0.014990999999999999,-33.869999,9.18,6.06,1a
2019-07-15_174226:960,-0.399597,0.009125,-0.11843900000000002,-0.026033999999999998,0.001964,0.014838999999999998,-33.869999,9.18,6.06,1a
2019-07-15_174226:980,-0.36911,0.0030210000000000002,-0.10318,-0.025271000000000002,0.010356,0.016638999999999998,-34.18,9.87,5.75,1a
2019-07-15_174227:000,-0.322845,-0.006592,-0.089478,-0.024843,0.014597999999999998,0.018684,-34.18,9.87,5.75,1a
2019-07-15_174227:020,-0.309601,-0.009125,-0.08843999999999999,-0.024721,0.012737,0.018897999999999998,-34.18,9.87,5.75,1a
2019-07-15_174227:040,-0.338593,-0.012695,-0.095062,-0.02405,0.00703,0.018562000000000002,-33.5,10.56,5.25,1a
2019-07-15_174227:060,-0.368591,-0.015228,-0.102173,-0.02405,0.0010789999999999999,0.016975,-33.5,10.56,5.25,1a
2019-07-15_174227:080,-0.432648,-0.013702,-0.122528,-0.023928,-0.001179,0.014990999999999999,-34.560001,11.75,4.56,1a
2019-07-15_174227:100,-0.47180200000000005,-0.015228,-0.14743,-0.023592,0.001994,0.013374,-34.560001,11.75,4.56,1a
2019-07-15_174227:120,-0.572968,-0.013213999999999998,-0.162689,-0.022188,0.010326,0.009864,-34.560001,11.75,4.56,1a
2019-07-15_174227:140,-0.5979,-0.010162000000000001,-0.166229,-0.020479,0.023357,0.0060799999999999995,-33.5,12.06,4.06,1a
2019-07-15_174227:160,-0.567383,-0.008118,-0.159637,-0.018007,0.034251,0.0029059999999999997,-33.5,12.06,4.06,1a
2019-07-15_174227:180,-0.565338,-0.000488,-0.161163,-0.016543000000000002,0.038158,-0.000725,-34.18,13.0,3.0,1a
2019-07-15_174227:200,-0.529266,-0.002014,-0.153534,-0.015566,0.036632,-0.000512,-34.18,13.0,3.0,1a
2019-07-15_174227:220,-0.518066,-0.0030210000000000002,-0.153534,-0.014223,0.031444,-0.002037,-34.18,13.0,3.0,1a
2019-07-15_174227:240,-0.884125,0.005065999999999999,-0.135742,-0.013033000000000001,0.027201999999999997,-0.007744,-33.869999,12.56,4.68,1a
2019-07-15_174227:260,-0.677216,0.010162000000000001,-0.17944300000000002,-0.014162000000000001,0.02235,-0.008751,-33.869999,12.56,4.68,1a
2019-07-15_174227:280,-0.448425,-0.017273,-0.08843999999999999,-0.015413,0.031902,-0.014733000000000001,-34.18,13.0,6.18,1a
2019-07-15_174227:300,-0.48754899999999995,-0.006072999999999999,-0.130646,-0.015413,0.020763,-0.003899,-34.18,13.0,6.18,1a
2019-07-15_174227:320,-0.5058590000000001,-0.061005,-0.077271,-0.015841,0.014597999999999998,0.009009999999999999,-34.18,13.0,6.18,1a
2019-07-15_174227:340,-0.496704,-0.066589,-0.104706,-0.017488999999999998,0.001994,0.013130000000000001,-34.18,12.56,7.0,1a
2019-07-15_174227:360,-0.423492,-0.085388,-0.11538699999999999,-0.015780000000000002,-0.009358,0.018501,-34.18,12.56,7.0,1a
2019-07-15_174227:380,-0.434692,-0.092529,-0.118958,-0.012636,-0.021474,0.013800999999999999,-34.869999,12.56,5.87,1a
2019-07-15_174227:400,-0.491638,-0.078278,-0.131165,-0.010256,-0.028858999999999996,0.002967,-34.869999,12.56,5.87,1a
2019-07-15_174227:420,-0.491638,-0.075226,-0.128601,-0.007784,-0.029042000000000002,-0.0019760000000000003,-34.869999,12.56,5.87,1a
2019-07-15_174227:440,-0.474854,-0.058960000000000005,-0.140808,-0.005678,-0.025287999999999998,-0.005577,-34.869999,13.68,6.18,1a
2019-07-15_174227:460,-0.448425,-0.048279,-0.139801,-0.005068,-0.019826,-0.010338,-34.869999,13.68,6.18,1a
2019-07-15_174227:480,-0.396057,-0.029968,-0.129639,-0.004549,-0.013844,-0.012719,-35.25,13.0,4.56,1a
2019-07-15_174227:500,-0.372162,-0.024902,-0.121002,-0.004793,-0.007954000000000001,-0.013328999999999999,-35.25,13.0,4.56,1a
2019-07-15_174227:520,-0.34368899999999997,-0.018799,-0.101685,-0.004549,-0.003285,-0.014580000000000001,-35.25,13.0,4.56,1a
2019-07-15_174227:540,-0.34317,-0.016266,-0.096588,-0.00403,-0.0007830000000000001,-0.017509999999999998,-36.369999,12.56,3.75,1a
2019-07-15_174227:560,-0.33605999999999997,-0.011687999999999999,-0.0849,-0.002932,-0.00063,-0.020623,-36.369999,12.56,3.75,1a
2019-07-15_174227:580,-0.330475,-0.010651,-0.082855,-0.001253,-0.004842,-0.025138999999999998,-37.18,11.87,2.56,1a
2019-07-15_174227:600,-0.354858,-0.006072999999999999,-0.087952,-0.00045999999999999996,-0.008199,-0.025414,-37.18,11.87,2.56,1a
2019-07-15_174227:620,-0.374695,-0.0025329999999999997,-0.09811399999999999,0.0016460000000000001,-0.016041999999999997,-0.021965000000000002,-37.18,11.87,2.56,1a
2019-07-15_174227:640,-0.47433500000000006,0.007111,-0.104706,0.002867,-0.014302,-0.016442,-37.18,12.18,2.68,1a
2019-07-15_174227:660,-0.494171,0.008636,-0.110321,0.002073,-0.011403,-0.009331,-37.18,12.18,2.68,1a
2019-07-15_174227:680,-0.605011,0.013213999999999998,-0.157074,-0.000185,-0.005696,-0.0037159999999999997,-37.869999,10.68,2.68,1a
2019-07-15_174227:700,-0.6375430000000001,0.012177,-0.161163,-0.0036950000000000004,0.0023,0.0022960000000000003,-37.869999,10.68,2.68,1a
2019-07-15_174227:720,-0.661438,0.0025329999999999997,-0.170319,-0.00635,0.010478,0.010872,-37.869999,10.68,2.68,1a
2019-07-15_174227:740,-0.634003,-0.006592,-0.171844,-0.007784,0.016978,0.017189,-38.25,10.0,1.87,1a
2019-07-15_174227:760,-0.638062,-0.015747,-0.168793,-0.008059,0.019359,0.019569,-38.25,10.0,1.87,1a
2019-07-15_174227:780,-0.874969,-0.015747,-0.150482,-0.007998,0.013713,0.023628,-38.68,11.06,1.87,1a
2019-07-15_174227:800,-0.5658569999999999,-0.025908999999999998,-0.159119,-0.009188,0.023540000000000002,0.023292,-38.68,11.06,1.87,1a
2019-07-15_174227:820,-0.5572199999999999,-0.0055850000000000006,-0.119476,-0.005343,0.024822,0.019508,-38.68,11.06,1.87,1a
2019-07-15_174227:840,-0.401642,0.017792,-0.165741,-0.002718,0.028117000000000003,0.004432,-37.869999,11.56,1.5,1a
2019-07-15_174227:860,-0.49823,0.03302,-0.083862,0.00011999999999999999,0.018290999999999998,-0.013054,-37.869999,11.56,1.5,1a
2019-07-15_174227:880,-0.44232200000000005,0.066589,-0.146423,-0.000338,0.006633,-0.011528,-38.25,12.25,2.25,1a
2019-07-15_174227:900,-0.393494,0.068115,-0.10116599999999999,-0.003237,-0.007558,-0.003319,-38.25,12.25,2.25,1a
2019-07-15_174227:920,-0.44433599999999995,0.065582,-0.11386099999999999,-0.007204,-0.022206,0.0065379999999999995,-38.25,12.25,2.25,1a
2019-07-15_174227:940,-0.43518100000000004,0.054901,-0.135742,-0.00873,-0.032124,0.017768,-38.68,12.0,3.5,1a
2019-07-15_174227:960,-0.423004,0.040649,-0.131653,-0.009859,-0.038136,0.022407,-38.68,12.0,3.5,1a
2019-07-15_174227:980,-0.41995200000000005,0.022369,-0.146423,-0.010531,-0.038197,0.024543000000000002,-37.75,12.25,2.25,1a
2019-07-15_174228:000,-0.393494,0.008118,-0.144897,-0.010378,-0.034352,0.026069,-37.75,12.25,2.25,1a
2019-07-15_174228:020,-0.378754,-0.014221000000000001,-0.14843800000000001,-0.010103000000000001,-0.027943,0.025062,-37.75,12.25,2.25,1a
2019-07-15_174228:040,-0.371643,-0.031006,-0.144897,-0.009646,-0.024159,0.023688999999999998,-39.25,13.06,0.68,1a
2019-07-15_174228:060,-0.363007,-0.041687,-0.138794,-0.007601,-0.014058000000000001,0.019355,-39.25,13.06,0.68,1a
2019-07-15_174228:080,-0.35943600000000003,-0.047791,-0.135223,-0.007051999999999999,-0.011342,0.018959,-39.25,13.5,-0.37,1a
2019-07-15_174228:100,-0.36044299999999996,-0.050323,-0.128601,-0.004793,-0.0052380000000000005,0.017981999999999998,-39.25,13.5,-0.37,1a
2019-07-15_174228:120,-0.363007,-0.051849,-0.12912,-0.002932,-0.001698,0.014838999999999998,-39.25,13.5,-0.37,1a
2019-07-15_174228:140,-0.374176,-0.047272,-0.138275,-0.001009,7.2e-05,0.009529000000000001,-37.75,14.5,0.68,1a
2019-07-15_174228:160,-0.398071,-0.043701,-0.145905,0.000669,-0.001179,0.005439,-37.75,14.5,0.68,1a
2019-07-15_174228:180,-0.43621800000000005,-0.043213,-0.16217,0.002653,-0.001637,0.002113,-38.560001,14.87,-0.87,1a
2019-07-15_174228:200,-0.49111899999999997,-0.045745999999999995,-0.157074,0.004972,-0.000722,-0.001397,-38.560001,14.87,-0.87,1a
2019-07-15_174228:220,-0.551636,-0.041687,-0.172852,0.0075049999999999995,0.001842,-0.004448,-38.560001,14.87,-0.87,1a
2019-07-15_174228:240,-0.5709529999999999,-0.039642000000000004,-0.163177,0.008298999999999999,0.002239,-0.0063100000000000005,-38.869999,14.87,-0.87,1a
2019-07-15_174228:260,-0.56485,-0.029480000000000003,-0.189117,0.00897,-0.001973,-0.005883,-38.869999,14.87,-0.87,1a
2019-07-15_174228:280,-0.5419619999999999,-0.027954000000000003,-0.20486500000000002,0.009245,-0.003285,-0.006371,-39.25,15.18,-0.87,1a
2019-07-15_174228:300,-0.578583,-0.029968,-0.23233,0.008573,-0.0024920000000000003,-0.013938999999999998,-39.25,15.18,-0.87,1a
2019-07-15_174228:320,-0.8088989999999999,-0.046752999999999996,-0.220123,0.010740000000000001,0.00349,-0.018822,-39.25,15.18,-0.87,1a
2019-07-15_174228:340,-0.5709529999999999,-0.043213,-0.270477,0.011747,0.005901,-0.017968,-40.060001,15.18,-0.87,1a
2019-07-15_174228:360,-0.600952,-0.038116000000000004,-0.16217,0.008298999999999999,0.036295999999999995,-0.020104,-40.060001,15.18,-0.87,1a
2019-07-15_174228:380,-0.508423,-0.033539,-0.220642,0.008024,0.039073000000000004,-0.009941,-40.060001,14.06,-1.56,1a
2019-07-15_174228:400,-0.405212,-0.063019,-0.155548,0.002653,0.044475,0.008491,-40.060001,14.06,-1.56,1a
2019-07-15_174228:420,-0.42401099999999997,-0.07016,-0.150482,-0.001986,0.03065,0.019691,-40.060001,14.06,-1.56,1a
2019-07-15_174228:440,-0.378754,-0.083862,-0.157074,-0.003237,0.022472,0.026344,-40.369999,14.06,0.37,1a
2019-07-15_174228:460,-0.397583,-0.10775799999999999,-0.152527,-0.0066549999999999995,-0.008199,0.024269,-40.369999,14.06,0.37,1a
2019-07-15_174228:480,-0.44384799999999996,-0.105225,-0.18249500000000002,-0.007784,-0.01772,0.019172,-40.75,14.5,1.87,1a
2019-07-15_174228:500,-0.45806899999999995,-0.102173,-0.17944300000000002,-0.011233,-0.028798,0.007423000000000001,-40.75,14.5,1.87,1a
2019-07-15_174228:520,-0.467224,-0.097107,-0.193176,-0.011995,-0.024556,-0.0033799999999999998,-40.75,14.5,1.87,1a
2019-07-15_174228:540,-0.44384799999999996,-0.080322,-0.205902,-0.012240000000000001,-0.020436000000000003,-0.009148,-39.68,14.87,0.68,1a
2019-07-15_174228:560,-0.41995200000000005,-0.069122,-0.200317,-0.010836,-0.0039570000000000004,-0.021752,-39.68,14.87,0.68,1a
2019-07-15_174228:580,-0.393494,-0.051849,-0.175903,-0.010195000000000001,0.002177,-0.024406999999999998,-39.68,14.87,0.68,1a
2019-07-15_174228:600,-0.38028,-0.041168,-0.15506,-0.007540000000000001,0.01823,-0.028862,-40.369999,14.06,0.68,1a
2019-07-15_174228:620,-0.353333,-0.027954000000000003,-0.124054,-0.005922,0.024883000000000002,-0.030052999999999996,-40.369999,14.06,0.68,1a
2019-07-15_174228:640,-0.336548,-0.018799,-0.105743,-0.0048850000000000005,0.026347000000000002,-0.030175,-40.75,13.0,-1.25,1a
2019-07-15_174228:660,-0.315704,-0.011169,-0.088959,-0.0029010000000000004,0.025462000000000002,-0.027611,-40.75,13.0,-1.25,1a
2019-07-15_174228:680,-0.346222,-0.011687999999999999,-0.078796,-0.0025960000000000002,0.024211,-0.026268,-41.5,11.87,0.25,1a
2019-07-15_174228:700,-0.40368699999999996,-0.012177,-0.08590700000000001,-0.001864,0.023204,-0.022300999999999998,-41.5,11.87,0.25,1a
2019-07-15_174228:720,-0.41995200000000005,-0.009125,-0.07928500000000001,-0.0021079999999999996,0.023082,-0.021355000000000002,-41.5,11.87,0.25,1a
2019-07-15_174228:740,-0.47995,-0.005065999999999999,-0.092529,-0.002443,0.020702,-0.018639,-41.869999,10.68,1.87,1a
2019-07-15_174228:760,-0.49926800000000005,-0.0025329999999999997,-0.10318,-0.003664,0.016063,-0.015434999999999999,-41.869999,10.68,1.87,1a
2019-07-15_174228:780,-0.571442,-0.002014,-0.105225,-0.005678,0.010661,-0.012017,-41.869999,10.68,1.87,1a
2019-07-15_174228:800,-0.620758,-0.0035399999999999997,-0.114899,-0.008578,0.008067,-0.004418,-41.869999,9.68,1.06,1a
2019-07-15_174228:820,-0.5846859999999999,-0.005065999999999999,-0.119965,-0.015413,0.009746,0.014259,-41.869999,9.68,1.06,1a
2019-07-15_174228:840,-0.589233,-0.008636,-0.12912,-0.016878,0.010722,0.017921,-41.869999,9.25,2.25,1a
2019-07-15_174228:860,-0.8846440000000001,-0.012695,-0.139801,-0.020205,0.005565,0.021766,-41.869999,9.25,2.25,1a
2019-07-15_174228:880,-0.647217,-0.028961,-0.174377,-0.021059,0.006297,0.022621000000000002,-41.869999,9.25,2.25,1a
2019-07-15_174228:900,-0.53891,-0.002014,-0.119476,-0.024386,0.025889999999999996,0.021736000000000002,-42.25,9.25,1.5,1a
2019-07-15_174228:920,-0.460114,0.009125,-0.15506,-0.022188,0.029704,0.020973,-42.25,9.25,1.5,1a
2019-07-15_174228:940,-0.516022,0.008118,-0.092529,-0.018343,0.034099000000000004,0.005012,-41.060001,10.37,3.06,1a
2019-07-15_174228:960,-0.48349,0.024384,-0.114899,-0.013978999999999998,0.023601,-0.014061,-41.060001,10.37,3.06,1a
2019-07-15_174228:980,-0.441803,0.042694,-0.108276,-0.010927,0.012523000000000001,-0.018578,-41.060001,10.37,3.06,1a
2019-07-15_174229:000,-0.47332799999999997,0.045226999999999996,-0.11386099999999999,-0.011170999999999999,-0.000386,-0.013207,-41.869999,11.87,3.06,1a
2019-07-15_174229:020,-0.45706199999999997,0.040649,-0.13623,-0.012057,-0.016652,-0.002251,-41.869999,11.87,3.06,1a
2019-07-15_174229:040,-0.43823199999999995,0.038116000000000004,-0.132172,-0.01166,-0.020741,-0.00011499999999999999,-41.869999,10.68,3.5,1a
2019-07-15_174229:060,-0.440796,0.042694,-0.141846,-0.011049,-0.022542,0.008154999999999999,-41.869999,10.68,3.5,1a
2019-07-15_174229:080,-0.432159,0.042175,-0.142334,-0.011446,-0.01949,0.011451000000000001,-41.869999,10.68,3.5,1a
2019-07-15_174229:100,-0.378754,-0.004059,-0.092529,-0.022677000000000003,0.013133,0.027045999999999997,-43.0,10.37,1.5,1a
2019-07-15_174229:120,-0.378754,-0.004059,-0.092529,-0.024203,0.017375,0.028845999999999997,-43.0,10.37,1.5,1a
2019-07-15_174229:140,-0.366058,-0.009125,-0.08590700000000001,-0.024203,0.017375,0.028845999999999997,-43.0,10.37,1.5,1a
2019-07-15_174229:160,-0.35943600000000003,-0.027435,-0.067596,-0.026705,0.023753,0.032356,-43.0,10.37,1.5,1a
2019-07-15_174229:180,-0.35791,-0.031494,-0.066071,-0.027498,0.025615,0.033882,-43.0,10.37,1.5,1a
2019-07-15_174229:200,-0.363007,-0.041168,-0.067108,-0.027193000000000002,0.027324,0.035102,-43.0,11.5,1.5,1a
2019-07-15_174229:220,-0.375702,-0.051849,-0.068115,-0.025727999999999997,0.025858999999999997,0.034492,-43.0,11.5,1.5,1a
2019-07-15_174229:240,-0.405212,-0.058441,-0.067596,-0.022402000000000002,0.022899,0.031898,-41.060001,13.0,1.87,1a
2019-07-15_174229:260,-0.427063,-0.068634,-0.069122,-0.01755,0.021159,0.02555,-41.060001,13.0,1.87,1a
2019-07-15_174229:280,-0.498749,-0.068115,-0.068115,-0.011995,0.01823,0.018104,-41.060001,13.0,1.87,1a
2019-07-15_174229:300,-0.551117,-0.066589,-0.083374,-0.007081999999999999,0.015331000000000001,0.014106,-41.5,13.5,3.87,1a
2019-07-15_174229:320,-0.609589,-0.065063,-0.068115,-0.004,0.013866,0.007667,-41.5,13.5,3.87,1a
2019-07-15_174229:340,-0.5872189999999999,-0.054901,-0.097107,-0.002443,0.010814,0.00016,-41.869999,14.5,3.5,1a
2019-07-15_174229:360,-0.541443,-0.056427,-0.10116599999999999,-0.001192,0.0106,-0.008202,-41.869999,14.5,3.5,1a
2019-07-15_174229:380,-0.604004,-0.05996699999999999,-0.103699,0.000212,0.009531999999999999,-0.022026,-41.869999,14.5,3.5,1a
2019-07-15_174229:400,-0.811951,-0.015747,-0.143372,0.001585,0.008495,-0.030846,-40.75,13.68,4.18,1a
2019-07-15_174229:420,-0.519073,-0.055908000000000006,-0.096588,0.000395,0.013744,-0.026206999999999998,-40.75,13.68,4.18,1a
2019-07-15_174229:440,-0.530273,-0.024902,-0.065582,0.000608,0.033092,-0.035973000000000005,-42.25,12.56,4.18,1a
2019-07-15_174229:460,-0.48654200000000003,-0.020325,-0.09811399999999999,-0.000796,0.032573000000000005,-0.023949,-42.25,12.56,4.18,1a
2019-07-15_174229:480,-0.470276,-0.041687,-0.053863999999999995,-0.004793,0.030833,-0.002526,-42.25,12.56,4.18,1a
2019-07-15_174229:500,-0.449432,-0.038116000000000004,-0.07928500000000001,-0.009585,0.015727,0.00727,-41.75,10.68,5.37,1a
2019-07-15_174229:520,-0.44638100000000003,-0.051330999999999995,-0.085388,-0.012453,-0.002309,0.010933,-41.75,10.68,5.37,1a
2019-07-15_174229:540,-0.47079499999999996,-0.053863999999999995,-0.096588,-0.013643,-0.021291,0.008094,-42.5,10.37,6.18,1a
2019-07-15_174229:560,-0.475372,-0.055389,-0.108276,-0.014834,-0.036610000000000004,0.002754,-42.5,10.37,6.18,1a
2019-07-15_174229:580,-0.48706099999999997,-0.053863999999999995,-0.111328,-0.014162000000000001,-0.041127,-0.005181,-42.5,10.37,6.18,1a
2019-07-15_174229:600,-0.437225,-0.040649,-0.119965,-0.013888,-0.03597,-0.012719,-42.25,10.0,5.75,1a
2019-07-15_174229:620,-0.399109,-0.038635,-0.112854,-0.014223,-0.027211000000000003,-0.015709,-42.25,10.0,5.75,1a
2019-07-15_174229:640,-0.377747,-0.030487,-0.095581,-0.014284,-0.017445,-0.016838,-43.369999,10.5,4.56,1a
2019-07-15_174229:660,-0.364014,-0.027435,-0.081848,-0.015016999999999999,-0.009084,-0.015587,-43.369999,10.5,4.56,1a
2019-07-15_174229:680,-0.352325,-0.024902,-0.065063,-0.01404,-0.002431,-0.015587,-43.369999,10.5,4.56,1a
2019-07-15_174229:700,-0.347229,-0.023895,-0.057434000000000006,-0.013704,0.001537,-0.017907,-43.369999,9.75,3.37,1a
2019-07-15_174229:720,-0.34265100000000004,-0.022369,-0.052338,-0.012972,0.0023,-0.019768,-43.369999,9.75,3.37,1a
2019-07-15_174229:740,-0.365021,-0.026427999999999997,-0.05285599999999999,-0.010653,0.000682,-0.020347999999999998,-44.5,8.56,3.0,1a
2019-07-15_174229:760,-0.412811,-0.020844,-0.067108,-0.007601,-0.0024920000000000003,-0.018578,-44.5,8.56,3.0,1a
2019-07-15_174229:780,-0.445862,-0.019318000000000002,-0.072174,-0.004549,-0.006032,-0.01278,-44.5,8.56,3.0,1a
2019-07-15_174229:800,-0.51297,-0.020325,-0.083374,-0.001253,-0.009328,-0.0063100000000000005,-44.060001,8.25,3.37,1a
2019-07-15_174229:820,-0.549072,-0.018799,-0.09811399999999999,0.001188,-0.012929,0.000923,-44.060001,8.25,3.37,1a
2019-07-15_174229:840,-0.611115,-0.024384,-0.11538699999999999,0.003324,-0.017171000000000002,0.009193000000000002,-44.5,6.37,3.0,1a
2019-07-15_174229:860,-0.615173,-0.028442000000000002,-0.12658699999999998,0.004789,-0.019765,0.016638999999999998,-44.5,6.37,3.0,1a
2019-07-15_174229:880,-0.586182,-0.029968,-0.144379,0.005796,-0.017171000000000002,0.024604,-44.5,6.37,3.0,1a
2019-07-15_174229:900,-0.587708,-0.026917,-0.158112,0.007047,-0.012532,0.030769,-45.560001,6.37,2.18,1a
2019-07-15_174229:920,-0.876007,-0.006072999999999999,-0.165222,0.007383,-0.010487,0.030067,-45.560001,6.37,2.18,1a
2019-07-15_174229:940,-0.533325,-0.032013,-0.193176,0.003599,-0.013325,0.033088,-45.560001,8.25,1.75,1a
2019-07-15_174229:960,-0.506378,-0.012177,-0.10116599999999999,0.001066,0.00114,0.02613,-45.560001,8.25,1.75,1a
2019-07-15_174229:980,-0.533844,0.009125,-0.12353499999999999,0.006162,0.008495,0.018226,-45.560001,8.25,1.75,1a
2019-07-15_174230:000,-0.506897,0.022369,-0.115906,0.006376,0.013255000000000001,0.005012,-45.560001,7.87,1.0,1a
2019-07-15_174230:020,-0.45553599999999994,0.036591000000000005,-0.115906,0.005064,0.007213,-0.013787,-45.560001,7.87,1.0,1a
2019-07-15_174230:040,-0.447388,0.046265,-0.134705,0.0022559999999999998,-0.0071,-0.021508000000000003,-46.369999,9.37,1.37,1a
2019-07-15_174230:060,-0.48553500000000005,0.045226999999999996,-0.154022,-0.000582,-0.024556,-0.015191,-46.369999,9.37,1.37,1a
2019-07-15_174230:080,-0.49316400000000005,0.03302,-0.160645,-0.003054,-0.037068000000000004,-0.0063100000000000005,-46.369999,9.37,1.37,1a
2019-07-15_174230:100,-0.48754899999999995,0.03302,-0.163696,-0.004488000000000001,-0.038625,-0.0023120000000000003,-46.75,8.25,1.37,1a
2019-07-15_174230:120,-0.45043900000000003,0.026427999999999997,-0.160645,-0.004427,-0.031789,0.002784,-46.75,8.25,1.37,1a
2019-07-15_174230:140,-0.417908,0.022858,-0.158112,-0.005922,-0.02187,0.006233,-47.25,7.5,1.0,1a
2019-07-15_174230:160,-0.365021,0.010651,-0.140808,-0.008912999999999999,-0.012593,0.008827,-47.25,7.5,1.0,1a
2019-07-15_174230:180,-0.35436999999999996,0.0,-0.127106,-0.011629,-0.005482,0.011543000000000001,-47.25,7.5,1.0,1a
2019-07-15_174230:200,-0.338074,-0.015747,-0.108795,-0.013918,0.000346,0.014441999999999998,-47.0,8.25,-0.06,1a
2019-07-15_174230:220,-0.322327,-0.021332,-0.09963999999999999,-0.015749000000000003,0.00471,0.016578,-47.0,8.25,-0.06,1a
2019-07-15_174230:240,-0.333496,-0.024902,-0.095581,-0.016421,0.006145,0.017646000000000002,-48.0,8.56,-0.06,1a
2019-07-15_174230:260,-0.346222,-0.028442000000000002,-0.09454299999999999,-0.016421,0.0069689999999999995,0.017768,-48.0,8.56,-0.06,1a
2019-07-15_174230:280,-0.406219,-0.026427999999999997,-0.096588,-0.015780000000000002,0.007488,0.016365,-48.0,8.56,-0.06,1a
2019-07-15_174230:300,-0.430634,-0.021851,-0.110321,-0.014834,0.008952,0.016243,-47.18,9.37,-0.06,1a
2019-07-15_174230:320,-0.49926800000000005,-0.019806,-0.114899,-0.013521,0.012065000000000001,0.014106,-47.18,9.37,-0.06,1a
2019-07-15_174230:340,-0.5343319999999999,-0.011687999999999999,-0.13623,-0.013308,0.013927000000000002,0.011329,-48.0,9.37,0.68,1a
2019-07-15_174230:360,-0.566376,-0.010162000000000001,-0.137756,-0.012697,0.013652000000000001,0.009071,-48.0,9.37,0.68,1a
2019-07-15_174230:380,-0.5867,-0.004547,-0.151489,-0.013247,0.010722,0.004219,-48.0,9.37,0.68,1a
2019-07-15_174230:400,-0.5419619999999999,-0.007599,-0.165741,-0.014712000000000001,0.008495,0.001381,-47.060001,10.0,0.0,1a
2019-07-15_174230:420,-0.5211180000000001,-0.008636,-0.187073,-0.01404,0.006633,-0.0037770000000000004,-47.060001,10.0,0.0,1a
2019-07-15_174230:440,-0.910065,-0.022858,-0.148956,-0.012575,0.003124,-0.010459999999999999,-47.5,10.0,0.75,1a
2019-07-15_174230:460,-0.685333,0.022369,-0.241486,-0.011170999999999999,0.002055,-0.008294,-47.5,10.0,0.75,1a
2019-07-15_174230:480,-0.55365,0.001007,-0.122528,-0.012636,0.017162,0.000709,-47.5,10.0,0.75,1a
2019-07-15_174230:500,-0.44384799999999996,0.0025329999999999997,-0.17996199999999998,-0.013827,0.031841,0.005043,-47.869999,10.37,1.56,1a
2019-07-15_174230:520,-0.447388,-0.028442000000000002,-0.12353499999999999,-0.019198,0.035289,0.021613999999999998,-47.869999,10.37,1.56,1a
2019-07-15_174230:540,-0.393005,-0.055389,-0.135223,-0.025393000000000002,0.021343,0.035377,-47.869999,11.5,2.0,1a
2019-07-15_174230:560,-0.39502,-0.077271,-0.156067,-0.029695999999999997,-0.000172,0.037544,-47.869999,11.5,2.0,1a
2019-07-15_174230:580,-0.44384799999999996,-0.08996599999999999,-0.159637,-0.030306,-0.020772,0.027656,-47.869999,11.5,2.0,1a
2019-07-15_174230:600,-0.508911,-0.083374,-0.185547,-0.029085000000000003,-0.033498,0.010657999999999999,-47.869999,11.5,2.75,1a
2019-07-15_174230:620,-0.523163,-0.073212,-0.18811,-0.026583,-0.033223,7.000000000000001e-06,-47.869999,11.5,2.75,1a
2019-07-15_174230:640,-0.495697,-0.05996699999999999,-0.191162,-0.023195,-0.020497,-0.002251,-47.869999,12.56,1.5,1a
2019-07-15_174230:660,-0.452484,-0.05285599999999999,-0.181488,-0.021943999999999998,-0.015462,-0.003228,-47.869999,12.56,1.5,1a
2019-07-15_174230:680,-0.405212,-0.035065,-0.15506,-0.017366999999999997,-0.001118,-0.010154999999999999,-47.869999,12.56,1.5,1a
2019-07-15_174230:700,-0.382324,-0.025421,-0.137756,-0.015841,0.002696,-0.011193,-48.560001,12.56,-0.06,1a
2019-07-15_174230:720,-0.363007,-0.011687999999999999,-0.111847,-0.012179,0.011791,-0.013665,-48.560001,12.56,-0.06,1a
2019-07-15_174230:740,-0.348267,-0.0035399999999999997,-0.09963999999999999,-0.01111,0.01411,-0.016198,-48.25,11.5,-1.25,1a
2019-07-15_174230:760,-0.342163,0.009644,-0.08743300000000001,-0.011049,0.012981,-0.015313,-48.25,11.5,-1.25,1a
2019-07-15_174230:780,-0.355377,0.010162000000000001,-0.090485,-0.011965,0.010661,-0.00988,-48.25,11.5,-1.25,1a
2019-07-15_174230:800,-0.38028,0.008118,-0.086426,-0.013125,0.008495,-0.004845,-48.560001,11.06,0.68,1a
2019-07-15_174230:820,-0.42807,0.012177,-0.097595,-0.014497999999999999,0.007670999999999999,-0.000573,-48.560001,11.06,0.68,1a
2019-07-15_174230:840,-0.45196499999999995,0.014740000000000001,-0.114899,-0.015749000000000003,0.008067,0.004371,-49.0,10.0,0.25,1a
2019-07-15_174230:860,-0.5058590000000001,0.012177,-0.119476,-0.018557,0.008281,0.008278,-49.0,10.0,0.25,1a
2019-07-15_174230:880,-0.5556949999999999,0.006072999999999999,-0.131165,-0.022249,0.006755,0.014137,-49.0,10.0,0.25,1a
2019-07-15_174230:900,-0.603485,-0.001495,-0.143372,-0.027375999999999998,0.005504,0.022803999999999998,-49.369999,10.37,-0.87,1a
2019-07-15_174230:920,-0.562286,-0.015228,-0.152527,-0.032503,0.006145,0.031654,-49.369999,10.37,-0.87,1a
2019-07-15_174230:940,-0.519073,-0.028442000000000002,-0.164215,-0.034333999999999996,0.009868,0.03437,-48.25,11.06,-0.37,1a
2019-07-15_174230:960,-0.631958,-0.027954000000000003,-0.152008,-0.033755,0.011943,0.027777999999999997,-48.25,11.06,-0.37,1a
2019-07-15_174230:980,-0.6238100000000001,0.0,-0.261322,-0.036867000000000004,0.00114,0.029335000000000003,-48.25,11.06,-0.37,1a
2019-07-15_174231:000,-0.516022,-0.016753999999999998,-0.1586,-0.043368000000000004,0.015269999999999999,0.033424,-47.869999,12.18,0.25,1a
2019-07-15_174231:020,-0.559265,0.005065999999999999,-0.18811,-0.043764,0.023235,0.035011,-47.869999,12.18,0.25,1a
2019-07-15_174231:040,-0.475861,0.008636,-0.136749,-0.045015,0.029979000000000002,0.030647000000000004,-48.25,13.68,-0.06,1a
2019-07-15_174231:060,-0.44281000000000004,0.033539,-0.133698,-0.050142,0.02122,0.015449000000000001,-48.25,13.68,-0.06,1a
2019-07-15_174231:080,-0.43011499999999997,0.043213,-0.12454200000000001,-0.053866,0.008067,0.008827,-48.25,13.68,-0.06,1a
2019-07-15_174231:100,-0.45806899999999995,0.031006,-0.139801,-0.059115,-0.008748,0.008216,-46.75,14.5,0.25,1a
2019-07-15_174231:120,-0.44638100000000003,0.022858,-0.148956,-0.062685,-0.025197,0.00782,-46.75,14.5,0.25,1a
2019-07-15_174231:140,-0.42147799999999996,0.015228,-0.160645,-0.06314299999999999,-0.037433999999999995,0.006294,-47.369999,15.18,1.06,1a
2019-07-15_174231:160,-0.425018,0.012177,-0.17337,-0.060091,-0.041798,0.008003,-47.369999,15.18,1.06,1a
2019-07-15_174231:180,-0.41995200000000005,0.009644,-0.185059,-0.056063,-0.037099,0.010475,-47.369999,15.18,1.06,1a
2019-07-15_174231:200,-0.423492,0.008118,-0.183014,-0.053011,-0.026662,0.013008,-46.68,16.370001000000002,-1.25,1a
2019-07-15_174231:220,-0.411285,0.010651,-0.17385899999999999,-0.051485,-0.014455,0.018379,-46.68,16.370001000000002,-1.25,1a
2019-07-15_174231:240,-0.388428,0.008118,-0.159637,-0.050692,-0.002888,0.023811000000000002,-46.0,16.25,-3.56,1a
2019-07-15_174231:260,-0.352325,0.0030210000000000002,-0.14843800000000001,-0.051454999999999994,0.004161,0.025154,-46.0,16.25,-3.56,1a
2019-07-15_174231:280,-0.34265100000000004,0.0,-0.14743,-0.052126,0.006755,0.026649000000000003,-46.0,16.25,-3.56,1a
2019-07-15_174231:300,-0.35131799999999996,-0.009125,-0.135223,-0.051789999999999996,0.007701,0.027137,-46.68,16.559998999999998,-5.56,1a
2019-07-15_174231:320,-0.376221,-0.013213999999999998,-0.137756,-0.050875,0.008617,0.023811000000000002,-46.68,16.559998999999998,-5.56,1a
2019-07-15_174231:340,-0.40976,-0.013702,-0.134216,-0.048433,0.010753,0.022682,-45.560001,18.370001000000002,-5.56,1a
2019-07-15_174231:360,-0.457581,-0.009644,-0.142334,-0.045778,0.013652000000000001,0.022682,-45.560001,18.370001000000002,-5.56,1a
2019-07-15_174231:380,-0.528229,-0.0025329999999999997,-0.163177,-0.043764,0.016399,0.020942,-45.560001,18.370001000000002,-5.56,1a
2019-07-15_174231:400,-0.5505979999999999,-0.000488,-0.15506,-0.041902999999999996,0.019053999999999998,0.017158,-44.869999,18.370001000000002,-6.0,1a
2019-07-15_174231:420,-0.581635,0.007111,-0.161652,-0.040132999999999995,0.019908000000000002,0.010933,-44.869999,18.370001000000002,-6.0,1a
2019-07-15_174231:440,-0.5658569999999999,0.006592,-0.169281,-0.039522,0.019237,0.006141,-44.5,19.559998999999998,-5.18,1a
2019-07-15_174231:460,-0.540955,-0.006072999999999999,-0.172852,-0.037264,0.01765,0.000465,-44.5,19.559998999999998,-5.18,1a
2019-07-15_174231:480,-0.569427,-0.008636,-0.17538499999999999,-0.033022,0.016124,-0.007897,-44.5,19.559998999999998,-5.18,1a
2019-07-15_174231:500,-0.761108,0.0030210000000000002,-0.193176,-0.028444,0.012798,-0.010277,-44.869999,20.25,-5.56,1a
2019-07-15_174231:520,-0.515533,-0.009644,-0.201843,-0.026125,0.016246,-0.002587,-44.869999,20.25,-5.56,1a
2019-07-15_174231:540,-0.496704,-0.001495,-0.145386,-0.023379,0.028941,0.001106,-45.0,19.870001000000002,-4.0,1a
2019-07-15_174231:560,-0.46823100000000006,-0.008636,-0.163696,-0.026858,0.033519,0.021278000000000002,-45.0,19.870001000000002,-4.0,1a
2019-07-15_174231:580,-0.440796,-0.043701,-0.118958,-0.031679,0.03178,0.042122,-45.0,19.870001000000002,-4.0,1a
2019-07-15_174231:600,-0.406219,-0.064545,-0.12912,-0.037783,0.017314,0.050148000000000005,-44.560001,18.68,-4.25,1a
2019-07-15_174231:620,-0.397583,-0.091003,-0.137268,-0.042391000000000005,-0.002248,0.046577,-44.560001,18.68,-4.25,1a
2019-07-15_174231:640,-0.414337,-0.097595,-0.150482,-0.044893,-0.022603,0.036476,-43.5,21.25,-3.56,1a
2019-07-15_174231:660,-0.432648,-0.10318,-0.1698,-0.044771,-0.037068000000000004,0.020942,-43.5,21.25,-3.56,1a
2019-07-15_174231:680,-0.46823100000000006,-0.095581,-0.184021,-0.041994,-0.040882999999999996,-0.00045099999999999996,-43.5,21.25,-3.56,1a
2019-07-15_174231:700,-0.46569799999999995,-0.054901,-0.194214,-0.038393000000000004,-0.035023,-0.013848,-42.0,22.059998999999998,-5.5,1a
2019-07-15_174231:720,-0.45654300000000003,-0.029968,-0.188599,-0.034731,-0.024922,-0.016503,-42.0,22.059998999999998,-5.5,1a
2019-07-15_174231:740,-0.45907600000000004,-0.0030210000000000002,-0.183014,-0.032076,-0.015858,-0.018090000000000002,-42.0,21.25,-7.87,1a
2019-07-15_174231:760,-0.441803,0.011169,-0.172333,-0.029695999999999997,-0.008412000000000001,-0.020745,-42.0,21.25,-7.87,1a
2019-07-15_174231:780,-0.423492,0.021332,-0.160645,-0.026644,-0.0040479999999999995,-0.020562,-42.0,21.25,-7.87,1a
2019-07-15_174231:800,-0.408752,0.023375999999999997,-0.156586,-0.023714,-0.002431,-0.017785,-42.25,21.0,-8.68,1a
2019-07-15_174231:820,-0.405212,0.020325,-0.154541,-0.021059,-0.003102,-0.015862,-42.25,21.0,-8.68,1a
2019-07-15_174231:840,-0.418915,0.016266,-0.154022,-0.019015,-0.0039570000000000004,-0.015923,-42.68,20.559998999999998,-9.75,1a
2019-07-15_174231:860,-0.439758,0.006072999999999999,-0.160126,-0.017275,-0.00475,-0.014122,-42.68,20.559998999999998,-9.75,1a
2019-07-15_174231:880,-0.448425,-0.0030210000000000002,-0.164215,-0.014894999999999999,-0.004231,-0.012261,-42.68,20.559998999999998,-9.75,1a
2019-07-15_174231:900,-0.45401,-0.009644,-0.16217,-0.01285,-0.001363,-0.01162,-42.25,19.5,-9.0,1a
2019-07-15_174231:920,-0.45095799999999997,-0.010651,-0.160645,-0.011781999999999999,0.002177,-0.008751,-42.25,19.5,-9.0,1a
2019-07-15_174231:940,-0.46569799999999995,-0.014221000000000001,-0.171844,-0.012392,0.00352,-0.003655,-42.68,19.059998999999998,-10.18,1a
2019-07-15_174231:960,-0.491638,-0.01828,-0.17690999999999998,-0.015505000000000001,0.001842,0.001106,-42.68,19.059998999999998,-10.18,1a
2019-07-15_174231:980,-0.522644,-0.028442000000000002,-0.183014,-0.020083,0.001415,0.007698,-42.68,19.059998999999998,-10.18,1a
2019-07-15_174232:000,-0.525696,-0.031494,-0.177948,-0.024599,0.005107,0.016028999999999998,-43.060001,18.68,-10.68,1a
2019-07-15_174232:020,-0.566376,-0.034546,-0.17944300000000002,-0.028719,0.010997,0.022682,-43.060001,18.68,-10.68,1a
2019-07-15_174232:040,-0.6238100000000001,-0.036072,-0.17690999999999998,-0.032563999999999996,0.014659,0.025276,-42.0,19.5,-11.37,1a
2019-07-15_174232:060,-0.652802,-0.037598,-0.187073,-0.036257,0.012279,0.022743,-42.0,19.5,-11.37,1a
2019-07-15_174232:080,-0.50943,-0.034546,-0.185059,-0.040194,0.016124,0.017768,-42.0,19.5,-11.37,1a
2019-07-15_174232:100,-0.467743,-0.017792,-0.129639,-0.042177,0.027812,0.012519,-42.25,20.18,-11.37,1a
2019-07-15_174232:120,-0.516022,-0.006592,-0.140808,-0.039309,0.030254000000000003,0.003913000000000001,-42.25,20.18,-11.37,1a
2019-07-15_174232:140,-0.42605600000000005,0.017792,-0.140808,-0.035891,0.024425,-0.012871,-41.560001,20.18,-11.75,1a
2019-07-15_174232:160,-0.44638100000000003,0.035065,-0.128113,-0.033419,0.013805000000000001,-0.025414,-41.560001,20.18,-11.75,1a
2019-07-15_174232:180,-0.47842399999999996,0.045226999999999996,-0.143372,-0.030764,0.0029100000000000003,-0.023674,-41.560001,20.18,-11.75,1a
2019-07-15_174232:200,-0.475861,0.037598,-0.141327,-0.029116000000000003,-0.003834,-0.018517,-42.25,19.75,-11.0,1a
2019-07-15_174232:220,-0.45654300000000003,0.035583,-0.136749,-0.027773000000000003,-0.005086,-0.013207,-42.25,19.75,-11.0,1a
2019-07-15_174232:240,-0.438751,0.033539,-0.136749,-0.024904,-0.001515,-0.00396,-42.68,18.68,-12.5,1a
2019-07-15_174232:260,-0.381317,0.029968,-0.141846,-0.02228,0.001201,0.0029059999999999997,-42.68,18.68,-12.5,1a
2019-07-15_174232:280,-0.375214,0.022858,-0.142334,-0.021059,0.0023,0.004097,-42.68,18.68,-12.5,1a
2019-07-15_174232:300,-0.371643,0.018799,-0.142853,-0.019198,0.002788,0.0021739999999999997,-41.5,18.68,-12.87,1a
2019-07-15_174232:320,-0.378265,0.011687999999999999,-0.126068,-0.016817,0.005686999999999999,-0.00011499999999999999,-41.5,18.68,-12.87,1a
2019-07-15_174232:340,-0.376221,0.010162000000000001,-0.130127,-0.013186000000000002,0.009349,-0.003228,-41.060001,17.18,-12.5,1a
2019-07-15_174232:360,-0.381805,0.010162000000000001,-0.128113,-0.008394,0.011943,-0.007286,-41.060001,17.18,-12.5,1a
2019-07-15_174232:380,-0.404694,0.009125,-0.13623,-0.0015279999999999998,0.013316,-0.011071,-41.060001,17.18,-12.5,1a
2019-07-15_174232:400,-0.41485600000000006,0.016266,-0.140808,0.0073219999999999995,0.014659,-0.014794,-42.18,18.0,-12.5,1a
2019-07-15_174232:420,-0.44638100000000003,0.024902,-0.145386,0.017851,0.013987999999999999,-0.020347999999999998,-42.18,18.0,-12.5,1a
2019-07-15_174232:440,-0.492126,0.046265,-0.165741,0.028135000000000004,0.011394,-0.025811,-41.5,17.559998999999998,-11.68,1a
2019-07-15_174232:460,-0.521637,0.056427,-0.178955,0.038236,0.009226999999999999,-0.029258999999999997,-41.5,17.559998999999998,-11.68,1a
2019-07-15_174232:480,-0.514496,0.072693,-0.18454,0.047727,0.010143000000000001,-0.030907,-41.5,17.559998999999998,-11.68,1a
2019-07-15_174232:500,-0.498749,0.07928500000000001,-0.19165,0.055174,0.010722,-0.031365,-42.18,17.18,-11.25,1a
2019-07-15_174232:520,-0.510437,0.085388,-0.20843499999999998,0.058683000000000006,0.009623999999999999,-0.025932999999999998,-42.18,17.18,-11.25,1a
2019-07-15_174232:540,-0.561279,0.063019,-0.20843499999999998,0.060484,0.005961999999999999,-0.018241999999999998,-43.369999,16.18,-10.87,1a
2019-07-15_174232:560,-0.8358459999999999,0.036072,-0.227753,0.062466999999999995,0.002971,-0.024224000000000002,-43.369999,16.18,-10.87,1a
2019-07-15_174232:580,-0.445862,0.025421,-0.21402,0.06439,0.003978,-0.034783,-43.369999,16.18,-10.87,1a
2019-07-15_174232:600,-0.583649,0.016753999999999998,-0.161163,0.058683000000000006,0.021343,-0.033043,-42.560001,15.75,-10.56,1a
2019-07-15_174232:620,-0.42807,-0.023375999999999997,-0.21453899999999998,0.060087,0.02058,-0.020501,-42.560001,15.75,-10.56,1a
2019-07-15_174232:640,-0.34265100000000004,-0.034058,-0.10675,0.05853099999999999,0.027049,-0.03695,-43.68,15.37,-7.37,1a
2019-07-15_174232:660,-0.46875,-0.025908999999999998,-0.118958,0.058561,0.021098,-0.047508999999999996,-43.68,15.37,-7.37,1a
2019-07-15_174232:680,-0.482483,-0.044739,-0.134705,0.061186000000000004,0.013255000000000001,-0.034386,-43.68,15.37,-7.37,1a
2019-07-15_174232:700,-0.47079499999999996,-0.054901,-0.12301600000000001,0.058622,0.004894,-0.023490999999999998,-43.560001,13.87,-6.56,1a
2019-07-15_174232:720,-0.45553599999999994,-0.052338,-0.151489,0.055966999999999996,-0.005482,-0.015984,-43.560001,13.87,-6.56,1a
2019-07-15_174232:740,-0.44384799999999996,-0.055908000000000006,-0.154022,0.056364,-0.014790000000000001,-0.009819,-44.75,13.37,-4.87,1a
2019-07-15_174232:760,-0.48654200000000003,-0.039642000000000004,-0.155548,0.056608000000000006,-0.022481,-0.01931,-44.75,13.37,-4.87,1a
2019-07-15_174232:780,-0.48858599999999996,-0.022369,-0.14386,0.054045,-0.023,-0.028983999999999996,-44.75,13.37,-4.87,1a
2019-07-15_174232:800,-0.459595,-0.017273,-0.13623,0.051298,-0.01656,-0.026787000000000002,-44.0,13.37,-5.37,1a
2019-07-15_174232:820,-0.462128,-0.013213999999999998,-0.130646,0.047605,-0.008229,-0.025016999999999998,-44.0,13.37,-5.37,1a
2019-07-15_174232:840,-0.414337,-0.000488,-0.12558,0.044493,-0.00124,-0.027183999999999996,-45.5,12.68,-5.37,1a
2019-07-15_174232:860,-0.380798,0.010162000000000001,-0.12048299999999999,0.042753,0.0014759999999999999,-0.028069,-45.5,12.68,-5.37,1a
2019-07-15_174232:880,-0.336548,0.021332,-0.119476,0.040281,0.00172,-0.026818,-45.5,12.68,-5.37,1a
2019-07-15_174232:900,-0.350281,0.023375999999999997,-0.119476,0.036833,-0.00179,-0.021904,-45.5,11.18,-6.56,1a
2019-07-15_174232:920,-0.384857,0.021851,-0.130646,0.033048,-0.006612000000000001,-0.013665,-45.5,11.18,-6.56,1a
2019-07-15_174232:940,-0.41586300000000004,0.020844,-0.12658699999999998,0.028470999999999996,-0.01006,-0.005974,-45.5,10.68,-4.56,1a
2019-07-15_174232:960,-0.453003,0.022369,-0.142334,0.02371,-0.01067,-0.0028309999999999997,-45.5,10.68,-4.56,1a
2019-07-15_174232:980,-0.471283,0.020844,-0.146423,0.016325,-0.006673,-0.0021899999999999997,-45.5,10.68,-4.56,1a
2019-07-15_174233:000,-0.5343319999999999,0.013702,-0.15506,0.009764,-0.000264,-0.003106,-46.18,10.25,-5.37,1a
2019-07-15_174233:020,-0.597382,0.008118,-0.152008,0.002653,0.007426,-0.003228,-46.18,10.25,-5.37,1a
2019-07-15_174233:040,-0.6146550000000001,-0.006592,-0.135223,-0.0037560000000000002,0.017497,-0.00023700000000000001,-45.0,10.25,-5.37,1a
2019-07-15_174233:060,-0.62027,-0.01828,-0.119476,-0.009401000000000001,0.027721,0.003913000000000001,-45.0,10.25,-5.37,1a
2019-07-15_174233:080,-0.60144,-0.025908999999999998,-0.107269,-0.012392,0.034648000000000005,0.0075450000000000005,-45.0,10.25,-5.37,1a
2019-07-15_174233:100,-0.594849,-0.020844,-0.09963999999999999,-0.013094,0.038554000000000005,0.007423000000000001,-46.5,11.06,-4.18,1a
2019-07-15_174233:120,-0.726532,-0.017273,-0.081848,-0.013094,0.0377,0.008094,-46.5,11.06,-4.18,1a
2019-07-15_174233:140,-0.7615970000000001,-0.009644,-0.114899,-0.011507,0.032787000000000004,0.010017,-45.75,11.5,-3.75,1a
2019-07-15_174233:160,-0.501801,0.007599,-0.096588,-0.011904000000000001,0.028911000000000003,0.012672,-45.75,11.5,-3.75,1a
2019-07-15_174233:180,-0.384857,0.0055850000000000006,-0.127594,-0.014223,0.027995,0.022468000000000002,-45.75,11.5,-3.75,1a
2019-07-15_174233:200,-0.298431,-0.001007,-0.131653,-0.010134,0.025005,0.025062,-45.75,11.06,-2.56,1a
2019-07-15_174233:220,-0.43927,-0.010651,-0.104218,-0.0069299999999999995,0.018900999999999998,0.01371,-45.75,11.06,-2.56,1a
2019-07-15_174233:240,-0.492645,-0.010651,-0.157593,-0.001131,0.011484999999999999,0.004493,-45.75,12.56,-1.06,1a
2019-07-15_174233:260,-0.432159,-0.015228,-0.12658699999999998,0.004331000000000001,0.006418999999999999,0.00028199999999999997,-45.75,12.56,-1.06,1a
2019-07-15_174233:280,-0.482483,-0.018799,-0.146423,0.007047,1.1e-05,-0.003167,-45.75,12.56,-1.06,1a
2019-07-15_174233:300,-0.48349,-0.024384,-0.153534,0.010496,-0.005086,-0.002037,-45.0,12.56,-0.68,1a
2019-07-15_174233:320,-0.452484,-0.022369,-0.142334,0.014952000000000002,-0.008595,-0.004052,-45.0,12.56,-0.68,1a
2019-07-15_174233:340,-0.460114,-0.013702,-0.142853,0.019651,-0.009755,-0.010003,-45.369999,12.56,-0.18,1a
2019-07-15_174233:360,-0.447906,-0.008118,-0.130127,0.024565,-0.008137,-0.01278,-45.369999,12.56,-0.18,1a
2019-07-15_174233:380,-0.43927,-0.008636,-0.12506099999999998,0.026487,-0.004903,-0.0122,-45.369999,12.56,-0.18,1a
2019-07-15_174233:400,-0.437225,-0.029968,-0.108276,0.026608999999999997,-0.000661,-0.005822,-46.5,12.18,0.5,1a
2019-07-15_174233:420,-0.408752,-0.046752999999999996,-0.108276,0.028623000000000003,0.004039,0.002113,-46.5,12.18,0.5,1a
2019-07-15_174233:440,-0.374695,-0.059479,-0.099121,0.033444999999999996,0.006876999999999999,0.004951,-46.18,13.0,-0.75,1a
2019-07-15_174233:460,-0.360962,-0.064545,-0.09353600000000001,0.039579,0.005626,0.005409000000000001,-46.18,13.0,-0.75,1a
2019-07-15_174233:480,-0.377228,-0.071686,-0.099121,0.045988,0.001415,0.006569,-46.18,13.0,-0.75,1a
2019-07-15_174233:500,-0.392487,-0.074738,-0.098633,0.053037,-0.002827,0.006965000000000001,-46.18,13.0,0.37,1a
2019-07-15_174233:520,-0.440796,-0.067596,-0.102692,0.060087,-0.006154,0.0051649999999999995,-46.18,13.0,0.37,1a
2019-07-15_174233:540,-0.45706199999999997,-0.05285599999999999,-0.12658699999999998,0.066374,-0.007893,0.0043100000000000005,-46.18,12.56,1.56,1a
2019-07-15_174233:560,-0.49823,-0.039124,-0.110321,0.07055499999999999,-0.005757,0.004158,-46.18,12.56,1.56,1a
2019-07-15_174233:580,-0.517548,-0.022369,-0.127594,0.070707,-0.002919,0.001838,-46.18,12.56,1.56,1a
2019-07-15_174233:600,-0.5343319999999999,-0.009644,-0.13623,0.06811299999999999,-0.002522,0.000221,-46.5,13.0,2.0,1a
2019-07-15_174233:620,-0.549072,-0.0035399999999999997,-0.154022,0.062803,-0.006551,-0.004021,-46.5,13.0,2.0,1a
2019-07-15_174233:640,-0.561279,-0.004547,-0.18811,0.0567,-0.011189,-0.010338,-45.369999,13.68,1.56,1a
2019-07-15_174233:660,-0.591797,-0.011169,-0.19574,0.05139,-0.008595,-0.018029,-45.369999,13.68,1.56,1a
2019-07-15_174233:680,-0.920746,-0.027954000000000003,-0.168274,0.047666,-0.001698,-0.023094999999999997,-45.369999,13.68,1.56,1a
2019-07-15_174233:700,-0.7565310000000001,-0.0035399999999999997,-0.23791500000000002,0.048246,-0.000722,-0.021019,-46.5,12.18,1.87,1a
2019-07-15_174233:720,-0.545532,-0.039642000000000004,-0.103699,0.046324000000000004,0.022746000000000002,-0.022759,-46.5,12.18,1.87,1a
2019-07-15_174233:740,-0.544006,-0.038116000000000004,-0.133698,0.046415,0.036876,-0.010735,-46.5,11.75,2.0,1a
2019-07-15_174233:760,-0.45806899999999995,-0.067108,-0.074738,0.044858999999999996,0.040202,-0.0032890000000000003,-46.5,11.75,2.0,1a
2019-07-15_174233:780,-0.40976,-0.063538,-0.09454299999999999,0.042082,0.027141000000000002,0.003517,-46.5,11.75,2.0,1a
2019-07-15_174233:800,-0.399597,-0.06253099999999999,-0.100647,0.038419999999999996,0.007945,0.014838999999999998,-45.75,11.06,5.06,1a
2019-07-15_174233:820,-0.444855,-0.084381,-0.128113,0.03372,-0.015858,0.014197999999999999,-45.75,11.06,5.06,1a
2019-07-15_174233:840,-0.462128,-0.086426,-0.14032,0.029264,-0.031452999999999995,0.0030280000000000003,-45.869999,10.25,5.37,1a
2019-07-15_174233:860,-0.506378,-0.07775900000000001,-0.145905,0.026701,-0.035237,-0.008812,-45.869999,10.25,5.37,1a
2019-07-15_174233:880,-0.494171,-0.066589,-0.164703,0.025297,-0.028981,-0.018364,-45.869999,10.25,5.37,1a
2019-07-15_174233:900,-0.43774399999999997,-0.043701,-0.164703,0.022978,-0.017567,-0.025353,-46.060001,10.25,6.56,1a
2019-07-15_174233:920,-0.40976,-0.028961,-0.155548,0.020994,-0.006337,-0.027001,-46.060001,10.25,6.56,1a
2019-07-15_174233:940,-0.36911,-0.018799,-0.133698,0.019651,0.0009570000000000001,-0.025292,-46.869999,9.37,5.06,1a
2019-07-15_174233:960,-0.350281,-0.011687999999999999,-0.118958,0.018583000000000002,0.0045579999999999996,-0.024224000000000002,-46.869999,9.37,5.06,1a
2019-07-15_174233:980,-0.322845,-0.004059,-0.100159,0.01779,0.004497,-0.023278,-46.869999,9.37,5.06,1a
2019-07-15_174234:000,-0.312164,0.002014,-0.09201000000000001,0.017393000000000002,0.001415,-0.02221,-47.18,8.18,5.06,1a
2019-07-15_174234:020,-0.320801,0.0035399999999999997,-0.09149199999999999,0.016599000000000003,-0.004567,-0.020287,-47.18,8.18,5.06,1a
2019-07-15_174234:040,-0.326904,0.0030210000000000002,-0.09454299999999999,0.016263999999999997,-0.013447999999999998,-0.016899,-47.560001,7.06,5.37,1a
2019-07-15_174234:060,-0.386902,0.004059,-0.102692,0.015806,-0.023274,-0.012322,-47.560001,7.06,5.37,1a
2019-07-15_174234:080,-0.416901,0.006072999999999999,-0.10675,0.015347999999999999,-0.030994999999999998,-0.007073,-47.560001,7.06,5.37,1a
2019-07-15_174234:100,-0.453003,0.008636,-0.124054,0.013669999999999998,-0.033313999999999996,-0.003319,-46.5,5.56,5.87,1a
2019-07-15_174234:120,-0.544006,0.006592,-0.134705,0.010893,-0.031575,0.000221,-46.5,5.56,5.87,1a
2019-07-15_174234:140,-0.59433,0.006592,-0.161163,0.006376,-0.026813999999999998,0.00663,-46.75,6.75,4.68,1a
2019-07-15_174234:160,-0.644165,0.0,-0.177429,-0.000185,-0.021809000000000002,0.014044999999999998,-46.75,6.75,4.68,1a
2019-07-15_174234:180,-0.575531,-0.013213999999999998,-0.19927999999999998,-0.006075,-0.016103,0.02021,-46.75,6.75,4.68,1a
2019-07-15_174234:200,-0.572479,-0.015747,-0.201843,-0.009524,-0.013447999999999998,0.021095,-47.18,6.06,3.5,1a
2019-07-15_174234:220,-0.7529600000000001,-0.025908999999999998,-0.196747,-0.011233,-0.020619,0.022682,-47.18,6.06,3.5,1a
2019-07-15_174234:240,-0.551636,-0.027954000000000003,-0.240479,-0.01404,-0.015309,0.025001,-47.18,8.0,1.87,1a
2019-07-15_174234:260,-0.529755,-0.010162000000000001,-0.21759,-0.011843000000000001,-0.010395999999999999,0.026985000000000002,-47.18,8.0,1.87,1a
2019-07-15_174234:280,-0.485016,0.005065999999999999,-0.257233,-0.008333,0.001292,0.021491999999999997,-47.18,8.0,1.87,1a
2019-07-15_174234:300,-0.431641,0.010162000000000001,-0.21554600000000002,-0.0051600000000000005,0.004771,0.007148000000000001,-46.75,9.06,2.25,1a
2019-07-15_174234:320,-0.43927,0.044219999999999995,-0.25116,-0.005343,0.00022400000000000002,0.000465,-46.75,9.06,2.25,1a
2019-07-15_174234:340,-0.404694,0.05438200000000001,-0.225739,-0.008454999999999999,-0.007802,-0.00023700000000000001,-46.060001,9.75,2.68,1a
2019-07-15_174234:360,-0.431122,0.058960000000000005,-0.240479,-0.013094,-0.015858,0.004097,-46.060001,9.75,2.68,1a
2019-07-15_174234:380,-0.451477,0.058960000000000005,-0.255707,-0.016939,-0.020741,0.011146,-46.060001,9.75,2.68,1a
2019-07-15_174234:400,-0.433167,0.042694,-0.253693,-0.019594,-0.021504,0.012977,-46.68,9.5,1.06,1a
2019-07-15_174234:420,-0.432648,0.037598,-0.257751,-0.020205,-0.018239,0.015266,-46.68,9.5,1.06,1a
2019-07-15_174234:440,-0.41943400000000003,0.022858,-0.246063,-0.019686000000000002,-0.011067,0.017981999999999998,-45.68,9.5,-0.06,1a
2019-07-15_174234:460,-0.407227,0.013213999999999998,-0.23233,-0.01874,-0.001698,0.019294,-45.68,9.5,-0.06,1a
2019-07-15_174234:480,-0.376221,-0.001007,-0.20742800000000003,-0.017488999999999998,0.007548999999999999,0.020637,-45.68,9.5,-0.06,1a
2019-07-15_174234:500,-0.35131799999999996,-0.0055850000000000006,-0.189117,-0.016024,0.014385,0.021095,-46.060001,10.18,-0.37,1a
2019-07-15_174234:520,-0.308594,-0.006592,-0.163696,-0.016085,0.016856,0.021888,-46.060001,10.18,-0.37,1a
2019-07-15_174234:540,-0.291321,-0.008118,-0.152008,-0.017214,0.014446,0.023292,-45.68,11.25,-0.37,1a
2019-07-15_174234:560,-0.29742399999999997,-0.013702,-0.148956,-0.018435,0.008952,0.024086,-45.68,11.25,-0.37,1a
2019-07-15_174234:580,-0.353333,-0.019806,-0.151001,-0.019747,0.004954999999999999,0.023413999999999997,-45.68,11.25,-0.37,1a
2019-07-15_174234:600,-0.402649,-0.022369,-0.157074,-0.02054,0.003368,0.021553,-44.869999,12.37,0.25,1a
2019-07-15_174234:620,-0.42147799999999996,-0.021332,-0.165741,-0.021394999999999997,0.005686999999999999,0.02024,-44.869999,12.37,0.25,1a
2019-07-15_174234:640,-0.477386,-0.017792,-0.176422,-0.021456,0.008891,0.021339,-43.75,12.37,1.5,1a
2019-07-15_174234:660,-0.5134890000000001,-0.019806,-0.20843499999999998,-0.020876,0.010539,0.020424,-43.75,12.37,1.5,1a
2019-07-15_174234:680,-0.541443,-0.021851,-0.21402,-0.020327,0.008891,0.013800999999999999,-43.75,12.37,1.5,1a
2019-07-15_174234:700,-0.562805,-0.012695,-0.24353000000000002,-0.020083,0.008281,0.009285,-43.369999,14.25,1.87,1a
2019-07-15_174234:720,-0.544006,-0.021332,-0.234375,-0.01816,0.013408000000000002,0.002113,-43.369999,14.25,1.87,1a
2019-07-15_174234:740,-0.66806,-0.036072,-0.23590100000000003,-0.016694999999999998,0.01704,-0.003167,-44.18,15.0,1.06,1a
2019-07-15_174234:760,-0.8861690000000001,0.017273,-0.297913,-0.017366999999999997,0.005046,0.001564,-44.18,15.0,1.06,1a
2019-07-15_174234:780,-0.613129,-0.022369,-0.21148699999999998,-0.017946,0.025889999999999996,0.001564,-44.18,15.0,1.06,1a
2019-07-15_174234:800,-0.506897,-0.019806,-0.23690799999999998,-0.018953,0.027538,0.003151,-43.369999,15.37,2.68,1a
2019-07-15_174234:820,-0.41333000000000003,-0.027435,-0.20233199999999998,-0.025575999999999998,0.039867,0.033912,-43.369999,15.37,2.68,1a
2019-07-15_174234:840,-0.381317,-0.054901,-0.153015,-0.027498,0.036295999999999995,0.040260000000000004,-43.060001,15.0,3.87,1a
2019-07-15_174234:860,-0.34875500000000004,-0.066071,-0.19775399999999999,-0.034487000000000004,0.006084,0.039528,-43.060001,15.0,3.87,1a
2019-07-15_174234:880,-0.34317,-0.068634,-0.198273,-0.037142,-0.013783000000000002,0.028388999999999998,-43.060001,15.0,3.87,1a
2019-07-15_174234:900,-0.406219,-0.055908000000000006,-0.228271,-0.037538999999999996,-0.021687,0.020759,-42.68,15.75,3.87,1a
2019-07-15_174234:920,-0.431641,-0.043701,-0.249115,-0.038119,-0.030719999999999997,0.008154999999999999,-42.68,15.75,3.87,1a
2019-07-15_174234:940,-0.45605500000000004,-0.03302,-0.253693,-0.037538999999999996,-0.029042000000000002,0.00663,-41.869999,17.559998999999998,2.68,1a
2019-07-15_174234:960,-0.446899,-0.024384,-0.25521900000000003,-0.03528,-0.018758,0.003151,-41.869999,17.559998999999998,2.68,1a
2019-07-15_174234:980,-0.409271,-0.009125,-0.243011,-0.032625,-0.011128,0.001564,-41.869999,17.559998999999998,2.68,1a
2019-07-15_174235:000,-0.394531,-0.000488,-0.22521999999999998,-0.031038,-0.007679999999999999,0.000923,-42.0,18.68,1.5,1a
2019-07-15_174235:020,-0.386902,0.016266,-0.200317,-0.027833999999999998,-0.00044699999999999997,0.003425,-42.0,18.68,1.5,1a
2019-07-15_174235:040,-0.368073,0.017273,-0.185059,-0.027193000000000002,0.0008960000000000001,0.005104,-42.0,18.68,1.5,1a
2019-07-15_174235:060,-0.34265100000000004,0.018799,-0.161652,-0.026795999999999997,0.000346,0.0061719999999999995,-41.68,17.18,1.06,1a
2019-07-15_174235:080,-0.33605999999999997,0.015747,-0.154022,-0.026644,-0.005147,0.0075450000000000005,-41.68,17.18,1.06,1a
2019-07-15_174235:100,-0.322845,0.004547,-0.153015,-0.026125,-0.008748,0.007301,-41.68,18.68,0.18,1a
2019-07-15_174235:120,-0.32486,0.004059,-0.153534,-0.026583,-0.024922,0.006233,-41.68,18.68,0.18,1a
2019-07-15_174235:140,-0.355377,0.0,-0.164703,-0.026858,-0.030964999999999996,0.008216,-41.25,18.0,-1.25,1a
2019-07-15_174235:160,-0.373688,-0.0055850000000000006,-0.17337,-0.029848000000000003,-0.040882999999999996,0.014044999999999998,-41.25,18.0,-1.25,1a
2019-07-15_174235:180,-0.46417200000000003,0.0030210000000000002,-0.207916,-0.032076,-0.031177999999999997,0.016243,-41.25,18.0,-1.25,1a
2019-07-15_174235:200,-0.525696,0.017273,-0.23791500000000002,-0.033541,-0.022359,0.018287,-41.25,19.5,-2.5,1a
2019-07-15_174235:220,-0.5205989999999999,0.025421,-0.278107,-0.044314,0.001201,0.029518,-41.25,19.5,-2.5,1a
2019-07-15_174235:240,-0.540955,0.028961,-0.279114,-0.049624,0.005686999999999999,0.034095,-41.25,19.5,-2.5,1a
2019-07-15_174235:260,-0.57196,0.032532,-0.282654,-0.067202,0.019237,0.051551,-40.5,20.18,-4.0,1a
2019-07-15_174235:280,-0.56839,0.027435,-0.266907,-0.079012,0.029979000000000002,0.061561000000000005,-40.5,20.18,-4.0,1a
2019-07-15_174235:300,-0.569427,0.024902,-0.310638,-0.08432200000000001,0.030070999999999997,0.064979,-39.75,21.0,-3.25,1a
2019-07-15_174235:320,-0.5572199999999999,0.019318000000000002,-0.29232800000000003,-0.099337,0.023875,0.065559,-39.75,21.0,-3.25,1a
2019-07-15_174235:340,-0.535339,0.032532,-0.341125,-0.103853,0.019908000000000002,0.064033,-39.75,21.0,-3.25,1a
2019-07-15_174235:360,-0.46670500000000004,0.031006,-0.31723,-0.114077,0.023204,0.062049,-38.18,22.25,-3.56,1a
2019-07-15_174235:380,-0.452484,0.028442000000000002,-0.29486100000000004,-0.11398499999999999,0.027721,0.057776999999999995,-38.18,22.25,-3.56,1a
2019-07-15_174235:400,-0.45806899999999995,0.044219999999999995,-0.30300900000000003,-0.112124,0.030193,0.044593,-37.5,24.559998999999998,-5.56,1a
2019-07-15_174235:420,-0.42147799999999996,0.053863999999999995,-0.291321,-0.10968199999999999,0.020975999999999998,0.038337,-37.5,24.559998999999998,-5.56,1a
2019-07-15_174235:440,-0.461639,0.056915,-0.305054,-0.10650799999999999,0.009623999999999999,0.036476,-37.5,24.559998999999998,-5.56,1a
2019-07-15_174235:460,-0.453491,0.062012,-0.288269,-0.102968,0.006023,0.039619,-36.369999,25.68,-7.87,1a
2019-07-15_174235:480,-0.425537,0.06405599999999999,-0.293335,-0.098208,0.005168,0.049049,-36.369999,25.68,-7.87,1a
2019-07-15_174235:500,-0.406738,0.062012,-0.28064,-0.097201,0.005351,0.051765,-36.060001,26.75,-9.06,1a
2019-07-15_174235:520,-0.402649,0.06253099999999999,-0.26944,-0.094149,0.006541,0.054480999999999995,-36.060001,26.75,-9.06,1a
2019-07-15_174235:540,-0.40368699999999996,0.060486,-0.2659,-0.09421,0.008006000000000001,0.054725,-36.060001,26.75,-9.06,1a
2019-07-15_174235:560,-0.37112399999999995,0.057434000000000006,-0.260284,-0.094149,0.015269999999999999,0.055549,-34.560001,27.059998999999998,-9.87,1a
2019-07-15_174235:580,-0.341644,0.046265,-0.248108,-0.094362,0.017894,0.05475599999999999,-34.560001,27.059998999999998,-9.87,1a
2019-07-15_174235:600,-0.317749,0.041168,-0.241486,-0.094698,0.022502,0.05170399999999999,-33.5,27.68,-13.87,1a
2019-07-15_174235:620,-0.311646,0.027435,-0.235382,-0.09362999999999999,0.024822,0.049964999999999996,-33.5,27.68,-13.87,1a
2019-07-15_174235:640,-0.312653,0.020844,-0.237427,-0.090822,0.025462000000000002,0.050697000000000006,-33.5,27.68,-13.87,1a
2019-07-15_174235:660,-0.307068,0.01828,-0.223694,-0.086641,0.026744,0.048713,-32.369999,27.68,-15.87,1a
2019-07-15_174235:680,-0.318756,0.021851,-0.21810900000000003,-0.07974400000000001,0.028331,0.042976,-32.369999,27.68,-15.87,1a
2019-07-15_174235:700,-0.39859,0.023895,-0.21505700000000003,-0.077639,0.02827,0.041664,-30.870001000000002,28.5,-18.559998999999998,1a
2019-07-15_174235:720,-0.444855,0.029968,-0.213531,-0.07574700000000001,0.027781999999999998,0.041937999999999996,-30.870001000000002,28.5,-18.559998999999998,1a
2019-07-15_174235:740,-0.48095699999999997,0.036072,-0.219635,-0.07690599999999999,0.027416000000000003,0.045051,-30.870001000000002,28.5,-18.559998999999998,1a
2019-07-15_174235:760,-0.52774,0.024902,-0.198273,-0.079165,0.028606,0.047493,-30.25,28.870001000000002,-18.059998999999998,1a
2019-07-15_174235:780,-0.519592,0.019806,-0.194702,-0.082186,0.032726,0.043129,-30.25,28.870001000000002,-18.059998999999998,1a
2019-07-15_174235:800,-0.505371,0.006592,-0.199799,-0.086001,0.034038,0.038734,-29.059998999999998,28.870001000000002,-19.68,1a
2019-07-15_174235:820,-0.515533,-0.021851,-0.20639000000000002,-0.088259,0.030864,0.036476,-29.059998999999998,28.870001000000002,-19.68,1a
2019-07-15_174235:840,-0.522125,-0.036591000000000005,-0.21859699999999999,-0.088961,0.023021,0.03556,-29.059998999999998,28.870001000000002,-19.68,1a
2019-07-15_174235:860,-0.555176,-0.049805,-0.23690799999999998,-0.08783200000000001,0.012248,0.031837,-29.059998999999998,28.5,-19.68,1a
2019-07-15_174235:880,-0.49468999999999996,-0.060486,-0.24453699999999998,-0.084047,0.003764,0.023994,-29.059998999999998,28.5,-19.68,1a
2019-07-15_174235:900,-0.47995,-0.047791,-0.23690799999999998,-0.077089,0.006358,0.009009999999999999,-28.5,28.059998999999998,-22.059998999999998,1a
