timestamp,AccX,AccY,AccZ,GyroX,GyroY,GyroZ,MagX,MagY,MagZ,Activity
2019-07-15_140755:940,-0.453003,-0.042175,-0.185059,-0.004152,0.002574,0.001045,-33.68,-21.0,-8.06,2d
2019-07-15_140755:960,-0.45095799999999997,-0.040649,-0.194214,-0.004793,0.001201,0.000221,-33.18,-21.75,-7.0,2d
2019-07-15_140755:980,-0.45654300000000003,-0.044739,-0.193695,-0.0048850000000000005,0.001018,0.00016,-33.18,-21.75,-7.0,2d
2019-07-15_140756:000,-0.459595,-0.045745999999999995,-0.193176,-0.004427,0.0008960000000000001,0.000923,-33.18,-21.75,-7.0,2d
2019-07-15_140756:020,-0.459595,-0.042175,-0.19165,-0.004213000000000001,0.00114,0.00028199999999999997,-33.560001,-21.0,-9.68,2d
2019-07-15_140756:040,-0.462128,-0.041168,-0.19165,-0.004,0.001292,-0.0011220000000000002,-33.560001,-21.0,-9.68,2d
2019-07-15_140756:060,-0.458588,-0.039124,-0.19622799999999999,-0.004091,0.0016589999999999999,-0.001,-33.560001,-21.0,-9.68,2d
2019-07-15_140756:080,-0.462646,-0.037108999999999996,-0.197266,-0.004152,0.0024519999999999998,-0.001641,-34.25,-21.0,-8.5,2d
2019-07-15_140756:100,-0.458588,-0.037598,-0.193695,-0.00403,0.002849,-0.001641,-34.25,-21.0,-8.5,2d
2019-07-15_140756:120,-0.452484,-0.034058,-0.193695,-0.0036340000000000005,0.0034289999999999998,-0.0009689999999999999,-34.0,-21.0,-9.0,2d
2019-07-15_140756:140,-0.44995100000000005,-0.034058,-0.193176,-0.003176,0.003032,-0.000512,-34.0,-21.0,-9.0,2d
2019-07-15_140756:160,-0.432159,-0.028961,-0.196747,-0.003176,0.0016589999999999999,-0.000573,-34.0,-21.0,-9.0,2d
2019-07-15_140756:180,-0.453491,-0.027954000000000003,-0.194214,-0.0037560000000000002,0.000285,0.000984,-34.0,-21.370001000000002,-8.06,2d
2019-07-15_140756:200,-0.459595,-0.029968,-0.191162,-0.0048850000000000005,0.0008039999999999999,0.002784,-34.0,-21.370001000000002,-8.06,2d
2019-07-15_140756:220,-0.45605500000000004,-0.034058,-0.19165,-0.006319,0.0019030000000000002,0.002845,-34.0,-21.370001000000002,-9.0,2d
2019-07-15_140756:240,-0.452484,-0.040161,-0.195221,-0.006807,0.002361,0.002113,-34.0,-21.370001000000002,-9.0,2d
2019-07-15_140756:260,-0.454529,-0.044219999999999995,-0.198273,-0.0064719999999999995,0.002116,0.000831,-34.0,-21.370001000000002,-9.0,2d
2019-07-15_140756:280,-0.452484,-0.046265,-0.197266,-0.0058,0.0017809999999999998,0.00016,-34.25,-21.370001000000002,-8.06,2d
2019-07-15_140756:300,-0.45605500000000004,-0.045745999999999995,-0.195221,-0.004091,0.001201,0.000129,-34.25,-21.370001000000002,-8.06,2d
2019-07-15_140756:320,-0.454529,-0.044219999999999995,-0.194702,-0.0031149999999999997,0.000865,0.000404,-34.25,-21.370001000000002,-7.75,2d
2019-07-15_140756:340,-0.45907600000000004,-0.040649,-0.190125,-0.002199,0.0009570000000000001,0.000404,-34.25,-21.370001000000002,-7.75,2d
2019-07-15_140756:360,-0.460114,-0.037598,-0.187592,-0.001986,0.001537,-0.00011499999999999999,-34.25,-21.370001000000002,-7.75,2d
2019-07-15_140756:380,-0.45654300000000003,-0.037598,-0.186584,-0.0017109999999999998,0.00172,-0.000267,-34.68,-21.75,-8.5,2d
2019-07-15_140756:400,-0.455017,-0.034546,-0.186066,-0.0020469999999999998,0.0012619999999999999,-5.4000000000000005e-05,-34.68,-21.75,-8.5,2d
2019-07-15_140756:420,-0.457581,-0.035583,-0.185059,-0.002321,0.000468,0.00016,-33.560001,-22.18,-7.75,2d
2019-07-15_140756:440,-0.457581,-0.032013,-0.18454,-0.002779,0.000407,-0.000512,-33.560001,-22.18,-7.75,2d
2019-07-15_140756:460,-0.458588,-0.034546,-0.187592,-0.003664,-0.000233,-0.001,-33.560001,-22.18,-7.75,2d
2019-07-15_140756:480,-0.453003,-0.035065,-0.186584,-0.004213000000000001,-0.000386,-0.000634,-34.0,-21.370001000000002,-8.06,2d
2019-07-15_140756:500,-0.45907600000000004,-0.041687,-0.187592,-0.004488000000000001,-0.0009660000000000001,-0.000573,-34.0,-21.370001000000002,-8.06,2d
2019-07-15_140756:520,-0.465179,-0.041168,-0.19165,-0.00403,-0.000325,-0.00023700000000000001,-34.25,-21.370001000000002,-8.5,2d
2019-07-15_140756:540,-0.46060200000000007,-0.041687,-0.19165,-0.003664,0.000407,0.000648,-34.25,-21.370001000000002,-8.5,2d
2019-07-15_140756:560,-0.45654300000000003,-0.041687,-0.193176,-0.0033280000000000002,0.000865,0.0008619999999999999,-33.560001,-21.75,-8.5,2d
2019-07-15_140756:580,-0.45553599999999994,-0.042694,-0.190643,-0.0032979999999999997,0.000865,0.000648,-33.560001,-21.75,-8.5,2d
2019-07-15_140756:600,-0.44995100000000005,-0.039124,-0.194214,-0.002779,0.000285,0.0022960000000000003,-33.560001,-21.75,-8.5,2d
2019-07-15_140756:620,-0.453491,-0.042175,-0.19775399999999999,-0.002321,-0.000722,0.00132,-34.25,-22.18,-9.68,2d
2019-07-15_140756:640,-0.45553599999999994,-0.040649,-0.19622799999999999,-0.0018030000000000001,-0.001027,-0.0013050000000000002,-34.25,-22.18,-9.68,2d
2019-07-15_140756:660,-0.457581,-0.035583,-0.197266,-0.001131,-0.0008439999999999999,-0.000573,-34.25,-22.18,-9.68,2d
2019-07-15_140756:680,-0.457581,-0.036591000000000005,-0.197266,-0.0014060000000000001,0.00016299999999999998,7.000000000000001e-06,-34.060001,-21.0,-7.75,2d
2019-07-15_140756:700,-0.452484,-0.034058,-0.198792,-0.0015890000000000001,0.000865,-0.0008470000000000001,-34.060001,-21.0,-7.75,2d
2019-07-15_140756:720,-0.45196499999999995,-0.03302,-0.198273,-0.0018030000000000001,0.000743,-0.000786,-33.560001,-21.75,-7.75,2d
2019-07-15_140756:740,-0.45196499999999995,-0.031494,-0.195221,-0.0020469999999999998,0.000499,-0.000725,-33.560001,-21.75,-7.75,2d
2019-07-15_140756:760,-0.45043900000000003,-0.031494,-0.196747,-0.0025050000000000003,0.000133,-0.000512,-33.560001,-21.75,-7.75,2d
2019-07-15_140756:780,-0.445862,-0.03302,-0.201843,-0.0029010000000000004,-0.0008439999999999999,-0.00011499999999999999,-33.18,-21.75,-7.25,2d
2019-07-15_140756:800,-0.447388,-0.035065,-0.203369,-0.0028399999999999996,-0.002248,-0.000176,-33.18,-21.75,-7.25,2d
2019-07-15_140756:820,-0.459595,-0.035583,-0.20639000000000002,-0.002535,-0.002644,-0.000267,-33.18,-21.370001000000002,-8.5,2d
2019-07-15_140756:840,-0.467743,-0.036072,-0.20486500000000002,-0.002443,-0.001393,0.000526,-33.18,-21.370001000000002,-8.5,2d
2019-07-15_140756:860,-0.467743,-0.038635,-0.20285,-0.002169,0.001018,0.0018989999999999999,-33.18,-21.370001000000002,-8.5,2d
2019-07-15_140756:880,-0.457581,-0.039124,-0.20080599999999998,-0.00165,0.0029100000000000003,0.002967,-33.560001,-21.75,-9.25,2d
2019-07-15_140756:900,-0.44891400000000004,-0.038635,-0.199799,-0.001009,0.003124,0.002967,-33.560001,-21.75,-9.25,2d
2019-07-15_140756:920,-0.45605500000000004,-0.034546,-0.201843,-0.000857,0.002696,0.002967,-33.18,-21.370001000000002,-8.5,2d
2019-07-15_140756:940,-0.461639,-0.03302,-0.197266,-0.001192,0.002849,0.003639,-33.18,-21.370001000000002,-8.5,2d
2019-07-15_140756:960,-0.45553599999999994,-0.033539,-0.19775399999999999,-0.0021079999999999996,0.003368,0.0030280000000000003,-33.18,-21.370001000000002,-8.5,2d
2019-07-15_140756:980,-0.455017,-0.03302,-0.19927999999999998,-0.003512,0.0034289999999999998,0.0026320000000000002,-33.560001,-21.75,-9.25,2d
2019-07-15_140757:000,-0.45553599999999994,-0.037598,-0.195221,-0.00461,0.0036420000000000003,0.003486,-33.560001,-21.75,-9.25,2d
2019-07-15_140757:020,-0.45706199999999997,-0.040161,-0.19165,-0.0056170000000000005,0.00352,0.002967,-33.560001,-21.370001000000002,-9.25,2d
2019-07-15_140757:040,-0.455017,-0.040161,-0.186584,-0.006014,0.0041,0.001503,-33.560001,-21.370001000000002,-9.25,2d
2019-07-15_140757:060,-0.446899,-0.043213,-0.186066,-0.006684999999999999,0.004222,0.001167,-33.560001,-21.370001000000002,-9.25,2d
2019-07-15_140757:080,-0.440796,-0.045226999999999996,-0.192169,-0.006807,0.002971,0.003303,-33.18,-20.68,-8.5,2d
2019-07-15_140757:100,-0.44281000000000004,-0.048279,-0.19775399999999999,-0.006197,0.000499,0.0037,-33.18,-20.68,-8.5,2d
2019-07-15_140757:120,-0.452484,-0.045226999999999996,-0.198273,-0.0051600000000000005,-0.002034,-0.00023700000000000001,-34.25,-21.75,-7.25,2d
2019-07-15_140757:140,-0.460114,-0.040161,-0.19574,-0.004397,-0.0024920000000000003,-0.000786,-34.25,-21.75,-7.25,2d
2019-07-15_140757:160,-0.46316499999999994,-0.038635,-0.194702,-0.004,-0.00124,0.000923,-34.25,-21.75,-7.25,2d
2019-07-15_140757:180,-0.46060200000000007,-0.035583,-0.19574,-0.0048850000000000005,0.0008960000000000001,0.000465,-34.25,-21.370001000000002,-8.06,2d
2019-07-15_140757:200,-0.452484,-0.037598,-0.19622799999999999,-0.005404,0.002116,-5.4000000000000005e-05,-34.25,-21.370001000000002,-8.06,2d
2019-07-15_140757:220,-0.447906,-0.035583,-0.194214,-0.006319,0.001628,-0.000664,-32.5,-21.0,-9.0,2d
2019-07-15_140757:240,-0.43774399999999997,-0.039124,-0.195221,-0.007143000000000001,0.00016299999999999998,-0.00023700000000000001,-32.5,-21.0,-9.0,2d
2019-07-15_140757:260,-0.438751,-0.045226999999999996,-0.198792,-0.007143000000000001,-0.001912,0.000221,-32.5,-21.0,-9.0,2d
2019-07-15_140757:280,-0.44995100000000005,-0.047272,-0.20233199999999998,-0.00635,-0.0039570000000000004,0.000496,-33.68,-21.0,-8.5,2d
2019-07-15_140757:300,-0.455017,-0.049316000000000006,-0.20385699999999998,-0.004946,-0.004414,0.000984,-33.68,-21.0,-8.5,2d
2019-07-15_140757:320,-0.45654300000000003,-0.046752999999999996,-0.205902,-0.0037560000000000002,-0.0037119999999999996,0.000404,-33.25,-21.75,-9.25,2d
2019-07-15_140757:340,-0.45654300000000003,-0.044219999999999995,-0.201324,-0.002932,-0.0024920000000000003,-0.000267,-33.25,-21.75,-9.25,2d
2019-07-15_140757:360,-0.45095799999999997,-0.041687,-0.20080599999999998,-0.002718,-0.001454,0.000923,-33.25,-21.75,-9.25,2d
2019-07-15_140757:380,-0.44891400000000004,-0.043213,-0.19927999999999998,-0.002657,-0.001363,0.003425,-32.869999,-22.18,-8.06,2d
2019-07-15_140757:400,-0.43927,-0.043701,-0.20285,-0.0028399999999999996,-0.002248,0.00309,-32.869999,-22.18,-8.06,2d
2019-07-15_140757:420,-0.43670699999999996,-0.043213,-0.20639000000000002,-0.00339,-0.0045060000000000005,0.002113,-33.18,-21.0,-9.0,2d
2019-07-15_140757:440,-0.44384799999999996,-0.045226999999999996,-0.20843499999999998,-0.003512,-0.006886,0.002571,-33.18,-21.0,-9.0,2d
2019-07-15_140757:460,-0.451477,-0.045745999999999995,-0.210968,-0.003878,-0.007831999999999999,0.000831,-33.18,-21.0,-9.0,2d
2019-07-15_140757:480,-0.45196499999999995,-0.046265,-0.213013,-0.0036950000000000004,-0.0072829999999999995,0.001716,-33.68,-21.370001000000002,-9.25,2d
2019-07-15_140757:500,-0.45095799999999997,-0.048279,-0.213531,-0.003512,-0.005757,0.00309,-33.68,-21.370001000000002,-9.25,2d
2019-07-15_140757:520,-0.44384799999999996,-0.045226999999999996,-0.21759,-0.003878,-0.0046890000000000005,0.001777,-33.25,-21.370001000000002,-9.68,2d
2019-07-15_140757:540,-0.439758,-0.044739,-0.220642,-0.0037560000000000002,-0.0045060000000000005,0.00132,-33.25,-21.370001000000002,-9.68,2d
2019-07-15_140757:560,-0.446899,-0.045745999999999995,-0.22216799999999998,-0.004152,-0.00536,0.00028199999999999997,-33.25,-21.370001000000002,-9.68,2d
2019-07-15_140757:580,-0.453491,-0.049805,-0.22521999999999998,-0.004427,-0.005086,-0.000786,-33.25,-21.0,-9.0,2d
2019-07-15_140757:600,-0.457581,-0.053375,-0.220123,-0.003573,-0.0032240000000000003,-0.001458,-33.25,-21.0,-9.0,2d
2019-07-15_140757:620,-0.454529,-0.054901,-0.217072,-0.00165,-0.001179,-0.002709,-33.560001,-21.370001000000002,-10.5,2d
2019-07-15_140757:640,-0.449432,-0.049316000000000006,-0.208954,0.00045599999999999997,0.000346,-0.003563,-33.560001,-21.370001000000002,-10.5,2d
2019-07-15_140757:660,-0.445374,-0.046265,-0.20742800000000003,0.002012,0.001415,-0.003655,-33.560001,-21.370001000000002,-10.5,2d
2019-07-15_140757:680,-0.444855,-0.043701,-0.206909,0.00247,0.0012619999999999999,-0.003045,-32.560001,-21.75,-10.5,2d
2019-07-15_140757:700,-0.44638100000000003,-0.042175,-0.21048000000000003,0.002317,0.000499,-0.001,-32.560001,-21.75,-10.5,2d
2019-07-15_140757:720,-0.44638100000000003,-0.037598,-0.21554600000000002,0.002806,-0.0005690000000000001,-0.001458,-33.25,-21.75,-10.06,2d
2019-07-15_140757:740,-0.448425,-0.032532,-0.21453899999999998,0.00247,-0.001027,-0.0038380000000000003,-33.25,-21.75,-10.06,2d
2019-07-15_140757:760,-0.45401,-0.026427999999999997,-0.21249400000000002,0.00186,-0.001118,-0.003624,-33.25,-21.75,-10.06,2d
2019-07-15_140757:780,-0.452484,-0.026427999999999997,-0.21249400000000002,0.000273,-0.000264,-0.002037,-32.560001,-21.0,-10.06,2d
2019-07-15_140757:800,-0.441284,-0.026427999999999997,-0.21249400000000002,-0.0018030000000000001,0.000407,-0.000389,-32.560001,-21.0,-10.06,2d
2019-07-15_140757:820,-0.439758,-0.027954000000000003,-0.213531,-0.003878,-0.00044699999999999997,0.001045,-33.68,-21.75,-9.25,2d
2019-07-15_140757:840,-0.447906,-0.033539,-0.21453899999999998,-0.005526,-0.0009660000000000001,0.0007700000000000001,-33.68,-21.75,-9.25,2d
2019-07-15_140757:860,-0.445374,-0.035583,-0.217072,-0.0066549999999999995,-0.0005690000000000001,0.000496,-33.68,-21.75,-9.25,2d
2019-07-15_140757:880,-0.435699,-0.039642000000000004,-0.219635,-0.007479,-0.0009050000000000001,0.001167,-33.18,-22.5,-9.25,2d
2019-07-15_140757:900,-0.431641,-0.040649,-0.217072,-0.007784,-0.001973,0.001564,-33.18,-22.5,-9.25,2d
2019-07-15_140757:920,-0.438751,-0.043701,-0.223175,-0.007723000000000001,-0.0032240000000000003,0.000709,-32.75,-21.370001000000002,-10.87,2d
2019-07-15_140757:940,-0.437225,-0.045745999999999995,-0.226746,-0.0066549999999999995,-0.00417,0.000343,-32.75,-21.370001000000002,-10.87,2d
2019-07-15_140757:960,-0.44232200000000005,-0.044739,-0.231812,-0.005129,-0.004811,0.000587,-32.75,-21.370001000000002,-10.87,2d
2019-07-15_140757:980,-0.45401,-0.043213,-0.22927899999999998,-0.003664,-0.004567,0.00132,-32.5,-21.370001000000002,-10.87,2d
2019-07-15_140758:000,-0.461121,-0.041168,-0.23590100000000003,-0.0029010000000000004,-0.002583,0.0022960000000000003,-32.5,-21.370001000000002,-10.87,2d
2019-07-15_140758:020,-0.45654300000000003,-0.037598,-0.235382,-0.0025960000000000002,0.00016299999999999998,0.0022960000000000003,-33.68,-21.0,-10.87,2d
2019-07-15_140758:040,-0.446899,-0.035583,-0.230804,-0.003054,0.0023,0.00196,-33.68,-21.0,-10.87,2d
2019-07-15_140758:060,-0.43927,-0.034546,-0.228271,-0.003664,0.003032,0.001442,-33.68,-21.0,-10.87,2d
2019-07-15_140758:080,-0.433655,-0.036591000000000005,-0.227264,-0.004427,0.002116,0.000831,-32.869999,-21.370001000000002,-10.5,2d
2019-07-15_140758:100,-0.433167,-0.038635,-0.226227,-0.004793,0.000865,0.000587,-32.869999,-21.370001000000002,-10.5,2d
2019-07-15_140758:120,-0.434174,-0.042175,-0.222687,-0.004946,-0.000722,0.000587,-33.25,-21.0,-12.06,2d
2019-07-15_140758:140,-0.432648,-0.045745999999999995,-0.220123,-0.004427,-0.001973,0.000587,-33.25,-21.0,-12.06,2d
2019-07-15_140758:160,-0.42807,-0.045745999999999995,-0.222687,-0.0034509999999999996,-0.003102,0.000587,-33.25,-21.0,-12.06,2d
2019-07-15_140758:180,-0.431122,-0.043701,-0.227753,-0.002321,-0.005543,0.002388,-33.25,-21.75,-10.87,2d
2019-07-15_140758:200,-0.44027700000000003,-0.043213,-0.226746,-0.001925,-0.0071,0.004371,-33.25,-21.75,-10.87,2d
2019-07-15_140758:220,-0.452484,-0.043213,-0.223175,-0.002169,-0.007344,0.003181,-32.869999,-21.75,-10.5,2d
2019-07-15_140758:240,-0.451477,-0.041168,-0.228271,-0.0029010000000000004,-0.004842,0.003242,-32.869999,-21.75,-10.5,2d
2019-07-15_140758:260,-0.44891400000000004,-0.041687,-0.230804,-0.004152,-0.002034,0.003761,-32.869999,-21.75,-10.5,2d
2019-07-15_140758:280,-0.437225,-0.043213,-0.231812,-0.0058,-0.000661,0.002388,-32.869999,-21.0,-10.87,2d
2019-07-15_140758:300,-0.441284,-0.047791,-0.23028600000000002,-0.006533,-0.00063,0.001838,-32.869999,-21.0,-10.87,2d
2019-07-15_140758:320,-0.440796,-0.050842,-0.231323,-0.00635,0.000346,0.00196,-32.869999,-21.0,-11.25,2d
2019-07-15_140758:340,-0.43670699999999996,-0.05285599999999999,-0.230804,-0.005861,0.00056,0.0021739999999999997,-32.869999,-21.0,-11.25,2d
2019-07-15_140758:360,-0.43670699999999996,-0.051849,-0.231323,-0.004488000000000001,0.000499,0.0026320000000000002,-32.869999,-21.0,-11.25,2d
2019-07-15_140758:380,-0.433167,-0.049805,-0.231812,-0.004,0.000499,0.002845,-32.869999,-21.0,-11.25,2d
2019-07-15_140758:400,-0.434174,-0.050842,-0.234375,-0.003176,1.1e-05,0.003486,-32.869999,-21.0,-11.25,2d
2019-07-15_140758:420,-0.445374,-0.048798,-0.23284899999999997,-0.0029010000000000004,0.000743,0.002357,-33.25,-20.68,-10.5,2d
2019-07-15_140758:440,-0.441284,-0.046752999999999996,-0.23233,-0.003054,0.002391,0.0018989999999999999,-33.25,-20.68,-10.5,2d
2019-07-15_140758:460,-0.432648,-0.049805,-0.23284899999999997,-0.0028399999999999996,0.003124,0.000923,-33.25,-20.68,-10.5,2d
2019-07-15_140758:480,-0.42858900000000005,-0.049805,-0.234375,-0.002932,0.0023,-0.000328,-33.18,-20.68,-10.87,2d
2019-07-15_140758:500,-0.425018,-0.052338,-0.233337,-0.002443,0.0008960000000000001,-0.00023700000000000001,-33.18,-20.68,-10.87,2d
2019-07-15_140758:520,-0.425537,-0.050842,-0.233856,-0.0015890000000000001,-0.00063,-0.00045099999999999996,-32.75,-20.68,-10.5,2d
2019-07-15_140758:540,-0.425537,-0.047272,-0.23284899999999997,-0.001009,-0.0018510000000000002,-0.000908,-32.75,-20.68,-10.5,2d
2019-07-15_140758:560,-0.42858900000000005,-0.046752999999999996,-0.235382,-0.000918,-0.002919,-0.000512,-32.75,-20.68,-10.5,2d
2019-07-15_140758:580,-0.429596,-0.046752999999999996,-0.236389,-0.000582,-0.003621,-0.001183,-33.18,-21.0,-11.25,2d
2019-07-15_140758:600,-0.432648,-0.045745999999999995,-0.23690799999999998,-0.000582,-0.003896,-0.002098,-33.18,-21.0,-11.25,2d
2019-07-15_140758:620,-0.43518100000000004,-0.044219999999999995,-0.241486,-0.000277,-0.004231,-0.001366,-33.560001,-21.370001000000002,-11.68,2d
2019-07-15_140758:640,-0.432159,-0.043701,-0.24353000000000002,-0.000124,-0.004414,-0.0013050000000000002,-33.560001,-21.370001000000002,-11.68,2d
2019-07-15_140758:660,-0.431122,-0.041168,-0.24658200000000002,-0.000185,-0.004903,-0.001519,-33.560001,-21.370001000000002,-11.68,2d
2019-07-15_140758:680,-0.429596,-0.040161,-0.249115,-6.3e-05,-0.004842,-0.0010609999999999999,-33.18,-21.0,-12.06,2d
2019-07-15_140758:700,-0.43927,-0.038116000000000004,-0.2547,-0.000918,-0.004231,-0.000634,-33.18,-21.0,-12.06,2d
2019-07-15_140758:720,-0.443329,-0.041168,-0.252686,-0.001925,-0.003163,0.001045,-33.18,-21.0,-12.5,2d
2019-07-15_140758:740,-0.440796,-0.047272,-0.25012199999999996,-0.002535,-0.0009660000000000001,0.001258,-33.18,-21.0,-12.5,2d
2019-07-15_140758:760,-0.443329,-0.047272,-0.24963400000000002,-0.002718,0.0010789999999999999,0.000587,-33.18,-21.0,-12.5,2d
2019-07-15_140758:780,-0.43621800000000005,-0.048798,-0.25216700000000003,-0.002718,0.003368,-5.4000000000000005e-05,-32.060001,-21.370001000000002,-12.5,2d
2019-07-15_140758:800,-0.433655,-0.045745999999999995,-0.248596,-0.003054,0.004497,-0.00045099999999999996,-32.060001,-21.370001000000002,-12.5,2d
2019-07-15_140758:820,-0.432159,-0.045745999999999995,-0.244019,-0.00339,0.0045579999999999996,-5.4000000000000005e-05,-32.5,-21.370001000000002,-12.87,2d
2019-07-15_140758:840,-0.438751,-0.047272,-0.24658200000000002,-0.0037560000000000002,0.005351,-0.000908,-32.5,-21.370001000000002,-12.87,2d
2019-07-15_140758:860,-0.443329,-0.048279,-0.24706999999999998,-0.003512,0.006541,-0.001458,-32.5,-21.370001000000002,-12.87,2d
2019-07-15_140758:880,-0.44281000000000004,-0.048798,-0.244019,-0.002718,0.008098000000000001,-0.00216,-32.560001,-21.370001000000002,-12.5,2d
2019-07-15_140758:900,-0.43670699999999996,-0.046265,-0.23791500000000002,-0.0018030000000000001,0.009013,-0.002526,-32.560001,-21.370001000000002,-12.5,2d
2019-07-15_140758:920,-0.432648,-0.044739,-0.23690799999999998,-0.000918,0.009197,-0.001397,-32.869999,-20.68,-12.87,2d
2019-07-15_140758:940,-0.430634,-0.042175,-0.23590100000000003,-0.000277,0.008739,-0.000512,-32.869999,-20.68,-12.87,2d
2019-07-15_140758:960,-0.435699,-0.042175,-0.23284899999999997,-0.000582,0.008281,-0.000786,-32.869999,-20.68,-12.87,2d
2019-07-15_140758:980,-0.433167,-0.038635,-0.22979699999999997,-0.000857,0.008067,0.000221,-34.060001,-21.0,-11.25,2d
2019-07-15_140759:000,-0.434692,-0.040161,-0.23233,-0.0014060000000000001,0.007213,0.000343,-34.060001,-21.0,-11.25,2d
2019-07-15_140759:020,-0.435699,-0.041168,-0.23233,-0.001864,0.006633,-0.000908,-32.560001,-21.75,-11.0,2d
2019-07-15_140759:040,-0.439758,-0.040649,-0.22979699999999997,-0.001864,0.006693999999999999,-0.000267,-32.560001,-21.75,-11.0,2d
2019-07-15_140759:060,-0.440796,-0.046265,-0.22927899999999998,-0.001925,0.0069689999999999995,0.001045,-32.560001,-21.75,-11.0,2d
2019-07-15_140759:080,-0.437225,-0.044219999999999995,-0.227753,-0.0017109999999999998,0.007701,0.001045,-32.869999,-21.370001000000002,-12.06,2d
2019-07-15_140759:100,-0.432648,-0.044739,-0.224701,-0.001314,0.007548999999999999,0.000923,-32.869999,-21.370001000000002,-12.06,2d
2019-07-15_140759:120,-0.42758199999999996,-0.043701,-0.220642,-0.000918,0.007091,0.000587,-33.25,-21.75,-11.25,2d
2019-07-15_140759:140,-0.42401099999999997,-0.041687,-0.220642,-0.001131,0.006023,0.001045,-33.25,-21.75,-11.25,2d
2019-07-15_140759:160,-0.42758199999999996,-0.041168,-0.223694,-0.002199,0.004039,0.001838,-33.25,-21.75,-11.25,2d
2019-07-15_140759:180,-0.43518100000000004,-0.041168,-0.223175,-0.003512,0.002239,0.002113,-33.68,-21.0,-11.68,2d
2019-07-15_140759:200,-0.44281000000000004,-0.043701,-0.223694,-0.004946,0.001292,0.002449,-33.68,-21.0,-11.68,2d
2019-07-15_140759:220,-0.448425,-0.051849,-0.225739,-0.005739,0.002055,0.002235,-33.25,-21.0,-11.68,2d
2019-07-15_140759:240,-0.447388,-0.054901,-0.22521999999999998,-0.0056170000000000005,0.00352,0.001106,-33.25,-21.0,-11.68,2d
2019-07-15_140759:260,-0.44433599999999995,-0.058960000000000005,-0.223694,-0.004488000000000001,0.003978,0.000404,-33.25,-21.0,-11.68,2d
2019-07-15_140759:280,-0.44281000000000004,-0.055389,-0.223175,-0.003176,0.003917,-0.000267,-32.869999,-21.0,-11.68,2d
2019-07-15_140759:300,-0.44027700000000003,-0.052338,-0.219635,-0.001925,0.003825,-0.000176,-32.869999,-21.0,-11.68,2d
2019-07-15_140759:320,-0.438751,-0.050323,-0.21911599999999998,-0.001253,0.003368,0.0007700000000000001,-32.560001,-20.25,-11.25,2d
2019-07-15_140759:340,-0.43670699999999996,-0.045745999999999995,-0.21859699999999999,-0.001772,0.002513,0.000923,-32.560001,-20.25,-11.25,2d
2019-07-15_140759:360,-0.434692,-0.042694,-0.219635,-0.0028399999999999996,0.001598,0.001258,-32.560001,-20.25,-11.25,2d
2019-07-15_140759:380,-0.429596,-0.046265,-0.220642,-0.004397,0.00056,0.001167,-32.869999,-21.75,-10.87,2d
2019-07-15_140759:400,-0.429596,-0.047791,-0.222687,-0.005953,-0.000661,0.000465,-32.869999,-21.75,-10.87,2d
2019-07-15_140759:420,-0.431122,-0.050323,-0.22979699999999997,-0.00635,-0.001302,-5.4000000000000005e-05,-33.25,-21.0,-11.68,2d
2019-07-15_140759:440,-0.432159,-0.051330999999999995,-0.231812,-0.00635,-0.001973,-0.00023700000000000001,-33.25,-21.0,-11.68,2d
2019-07-15_140759:460,-0.439758,-0.051330999999999995,-0.23895300000000003,-0.006319,-0.0027660000000000002,0.000343,-33.25,-21.0,-11.68,2d
2019-07-15_140759:480,-0.44891400000000004,-0.051849,-0.23791500000000002,-0.005739,-0.002187,0.001167,-32.869999,-21.0,-10.87,2d
2019-07-15_140759:500,-0.44891400000000004,-0.051330999999999995,-0.23895300000000003,-0.005526,-0.000233,0.001625,-32.869999,-21.0,-10.87,2d
2019-07-15_140759:520,-0.44638100000000003,-0.05285599999999999,-0.236389,-0.005221,0.001353,0.001716,-32.869999,-21.0,-11.68,2d
2019-07-15_140759:540,-0.441284,-0.049805,-0.22979699999999997,-0.004824,0.002116,0.001228,-32.869999,-21.0,-11.68,2d
2019-07-15_140759:560,-0.43823199999999995,-0.049316000000000006,-0.22421300000000002,-0.004275,0.002788,0.000984,-32.869999,-21.0,-11.68,2d
2019-07-15_140759:580,-0.433167,-0.046752999999999996,-0.222687,-0.0036950000000000004,0.0024519999999999998,0.000129,-33.68,-21.370001000000002,-10.87,2d
2019-07-15_140759:600,-0.440796,-0.043213,-0.220642,-0.003664,0.001018,-0.000389,-33.68,-21.370001000000002,-10.87,2d
2019-07-15_140759:620,-0.457581,-0.039124,-0.220642,-0.004275,0.00056,0.000526,-33.68,-21.75,-10.5,2d
2019-07-15_140759:640,-0.45806899999999995,-0.038635,-0.21810900000000003,-0.005556,0.001628,0.001625,-33.68,-21.75,-10.5,2d
2019-07-15_140759:660,-0.446899,-0.041687,-0.220123,-0.006869,0.002635,0.001655,-33.68,-21.75,-10.5,2d
2019-07-15_140759:680,-0.437225,-0.042694,-0.220642,-0.007662,0.002971,0.00132,-32.869999,-21.0,-11.25,2d
2019-07-15_140759:700,-0.431641,-0.047791,-0.220642,-0.007662,0.001628,0.000465,-32.869999,-21.0,-11.25,2d
2019-07-15_140759:720,-0.43670699999999996,-0.048279,-0.223175,-0.007081999999999999,0.000499,-0.00023700000000000001,-33.25,-21.370001000000002,-11.25,2d
2019-07-15_140759:740,-0.44384799999999996,-0.047791,-0.223694,-0.006258,-0.000325,0.000404,-33.25,-21.370001000000002,-11.25,2d
2019-07-15_140759:760,-0.44638100000000003,-0.048798,-0.226227,-0.005526,-0.00011100000000000001,0.0008619999999999999,-33.25,-21.370001000000002,-11.25,2d
2019-07-15_140759:780,-0.44384799999999996,-0.047791,-0.22164899999999998,-0.005343,0.000621,0.0007700000000000001,-34.060001,-21.75,-10.06,2d
2019-07-15_140759:800,-0.43518100000000004,-0.044739,-0.22216799999999998,-0.005739,0.0009570000000000001,0.002113,-34.060001,-21.75,-10.06,2d
2019-07-15_140759:820,-0.433167,-0.045226999999999996,-0.223694,-0.006319,7.2e-05,0.002052,-32.869999,-21.370001000000002,-11.0,2d
2019-07-15_140759:840,-0.431122,-0.042694,-0.226227,-0.007051999999999999,-0.001454,-0.000389,-32.869999,-21.370001000000002,-11.0,2d
2019-07-15_140759:860,-0.432648,-0.043213,-0.22979699999999997,-0.00812,-0.004018,-0.001183,-32.869999,-21.370001000000002,-11.0,2d
2019-07-15_140759:880,-0.420441,-0.048279,-0.231323,-0.008394,-0.005543,0.000129,-33.25,-21.75,-10.5,2d
2019-07-15_140759:900,-0.42248500000000005,-0.048798,-0.23486300000000002,-0.007998,-0.008199,0.000404,-33.25,-21.75,-10.5,2d
2019-07-15_140759:920,-0.426544,-0.049805,-0.233337,-0.0069299999999999995,-0.010731000000000001,-0.000176,-34.060001,-21.0,-10.5,2d
2019-07-15_140759:940,-0.43823199999999995,-0.048279,-0.233856,-0.0058,-0.0118,-0.0011220000000000002,-34.060001,-21.0,-10.5,2d
2019-07-15_140759:960,-0.445862,-0.047272,-0.23995999999999998,-0.004946,-0.011128,-0.001397,-34.060001,-21.0,-10.5,2d
2019-07-15_140759:980,-0.446899,-0.045226999999999996,-0.239441,-0.004549,-0.009267000000000001,-0.0012439999999999999,-33.25,-21.75,-12.06,2d
2019-07-15_140800:000,-0.45553599999999994,-0.044739,-0.233856,-0.004793,-0.006428,-0.0019149999999999998,-33.25,-21.75,-12.06,2d
2019-07-15_140800:020,-0.452484,-0.044739,-0.235382,-0.0048850000000000005,-0.002431,-0.003228,-32.869999,-21.370001000000002,-11.25,2d
2019-07-15_140800:040,-0.44027700000000003,-0.042175,-0.237427,-0.004336,0.0008960000000000001,-0.0035020000000000003,-32.869999,-21.370001000000002,-11.25,2d
2019-07-15_140800:060,-0.434692,-0.039124,-0.238434,-0.004,0.001994,-0.002983,-32.869999,-21.370001000000002,-11.25,2d
2019-07-15_140800:080,-0.433655,-0.034546,-0.23233,-0.00403,0.0016589999999999999,-0.001702,-32.18,-21.75,-10.87,2d
2019-07-15_140800:100,-0.43011499999999997,-0.034058,-0.228271,-0.004488000000000001,0.001353,7.000000000000001e-06,-32.18,-21.75,-10.87,2d
2019-07-15_140800:120,-0.431641,-0.033539,-0.22979699999999997,-0.0051600000000000005,0.000682,0.000496,-32.75,-22.18,-11.68,2d
2019-07-15_140800:140,-0.43518100000000004,-0.036072,-0.23028600000000002,-0.005678,0.00022400000000000002,0.001381,-32.75,-22.18,-11.68,2d
2019-07-15_140800:160,-0.43621800000000005,-0.040649,-0.239441,-0.005678,-0.00011100000000000001,0.002357,-32.75,-22.18,-11.68,2d
2019-07-15_140800:180,-0.43774399999999997,-0.041168,-0.242004,-0.005129,-0.00011100000000000001,0.002449,-32.75,-21.370001000000002,-11.25,2d
2019-07-15_140800:200,-0.437225,-0.041687,-0.244019,-0.00461,0.00016299999999999998,0.002693,-32.75,-21.370001000000002,-11.25,2d
2019-07-15_140800:220,-0.43927,-0.041168,-0.248108,-0.004336,0.000133,0.0022960000000000003,-32.75,-21.75,-12.5,2d
2019-07-15_140800:240,-0.446899,-0.040161,-0.250641,-0.004091,0.000285,0.002388,-32.75,-21.75,-12.5,2d
2019-07-15_140800:260,-0.45043900000000003,-0.039124,-0.251648,-0.004091,0.0016589999999999999,0.0033640000000000002,-32.75,-21.75,-12.5,2d
2019-07-15_140800:280,-0.461121,-0.039124,-0.2547,-0.004549,0.004436,0.003975,-32.869999,-21.370001000000002,-10.87,2d
2019-07-15_140800:300,-0.467743,-0.041687,-0.2547,-0.0051600000000000005,0.008403,0.004036,-32.869999,-21.370001000000002,-10.87,2d
2019-07-15_140800:320,-0.457581,-0.044219999999999995,-0.246063,-0.005282,0.013927000000000002,0.004951,-32.75,-21.0,-12.5,2d
2019-07-15_140800:340,-0.44638100000000003,-0.048279,-0.23895300000000003,-0.004946,0.018718000000000002,0.005012,-32.75,-21.0,-12.5,2d
2019-07-15_140800:360,-0.42758199999999996,-0.046265,-0.231812,-0.004671,0.020091,0.004493,-32.75,-21.0,-12.5,2d
2019-07-15_140800:380,-0.42605600000000005,-0.046752999999999996,-0.22521999999999998,-0.00403,0.018687,0.00489,-32.75,-21.0,-10.87,2d
2019-07-15_140800:400,-0.423492,-0.045745999999999995,-0.21759,-0.003664,0.015636,0.005287,-32.75,-21.0,-10.87,2d
2019-07-15_140800:420,-0.42758199999999996,-0.045226999999999996,-0.217072,-0.00339,0.012614,0.006476999999999999,-33.18,-21.0,-10.5,2d
2019-07-15_140800:440,-0.432648,-0.044219999999999995,-0.21505700000000003,-0.003939,0.010356,0.007209,-33.18,-21.0,-10.5,2d
2019-07-15_140800:460,-0.434692,-0.044739,-0.216583,-0.004824,0.009226999999999999,0.007301,-33.18,-21.0,-10.5,2d
2019-07-15_140800:480,-0.434174,-0.046265,-0.216583,-0.0058,0.00761,0.006569,-32.869999,-20.68,-11.25,2d
2019-07-15_140800:500,-0.433167,-0.047272,-0.21554600000000002,-0.006991,0.006693999999999999,0.005684000000000001,-32.869999,-20.68,-11.25,2d
2019-07-15_140800:520,-0.433167,-0.051849,-0.216583,-0.007540000000000001,0.005412,0.004951,-33.560001,-20.68,-9.68,2d
2019-07-15_140800:540,-0.431122,-0.053375,-0.213013,-0.00812,0.004375,0.003822,-33.560001,-20.68,-9.68,2d
2019-07-15_140800:560,-0.432648,-0.054901,-0.21505700000000003,-0.007784,0.003307,0.00309,-33.560001,-20.68,-9.68,2d
2019-07-15_140800:580,-0.435699,-0.053863999999999995,-0.21505700000000003,-0.007601,0.002116,0.002357,-32.75,-20.25,-9.68,2d
2019-07-15_140800:600,-0.43518100000000004,-0.05438200000000001,-0.217072,-0.007204,0.0012619999999999999,0.001381,-32.75,-20.25,-9.68,2d
2019-07-15_140800:620,-0.43823199999999995,-0.05285599999999999,-0.217072,-0.0066549999999999995,0.0008039999999999999,0.000343,-34.369999,-21.0,-9.25,2d
2019-07-15_140800:640,-0.438751,-0.050842,-0.21759,-0.00635,0.000468,0.0021739999999999997,-34.369999,-21.0,-9.25,2d
2019-07-15_140800:660,-0.43774399999999997,-0.049805,-0.219635,-0.006136,-0.00011100000000000001,0.00309,-34.369999,-21.0,-9.25,2d
2019-07-15_140800:680,-0.43518100000000004,-0.048279,-0.22216799999999998,-0.006197,-0.000722,0.000526,-34.060001,-21.0,-9.25,2d
2019-07-15_140800:700,-0.432159,-0.046752999999999996,-0.22521999999999998,-0.005739,-0.001515,-0.000389,-34.060001,-21.0,-9.25,2d
2019-07-15_140800:720,-0.430634,-0.047791,-0.23028600000000002,-0.005068,-0.003102,0.000587,-34.369999,-20.68,-10.06,2d
2019-07-15_140800:740,-0.439758,-0.046265,-0.23284899999999997,-0.0048850000000000005,-0.00475,0.000831,-34.369999,-20.68,-10.06,2d
2019-07-15_140800:760,-0.45095799999999997,-0.050842,-0.23791500000000002,-0.004427,-0.0040479999999999995,0.0018989999999999999,-34.369999,-20.68,-10.06,2d
2019-07-15_140800:780,-0.452484,-0.05285599999999999,-0.238434,-0.004213000000000001,-0.002187,0.00196,-34.060001,-21.0,-10.06,2d
2019-07-15_140800:800,-0.44638100000000003,-0.052338,-0.23590100000000003,-0.004213000000000001,0.000346,0.0008619999999999999,-34.060001,-21.0,-10.06,2d
2019-07-15_140800:820,-0.43927,-0.052338,-0.234375,-0.004,0.0017809999999999998,0.000129,-34.0,-20.25,-9.25,2d
2019-07-15_140800:840,-0.43670699999999996,-0.053863999999999995,-0.231323,-0.0037560000000000002,0.002116,-0.001458,-34.0,-20.25,-9.25,2d
2019-07-15_140800:860,-0.437225,-0.05285599999999999,-0.231323,-0.003237,0.002116,-0.002709,-34.0,-20.25,-9.25,2d
2019-07-15_140800:880,-0.434692,-0.049316000000000006,-0.227264,-0.002718,0.0016589999999999999,-0.003899,-34.25,-20.68,-10.5,2d
2019-07-15_140800:900,-0.434174,-0.049316000000000006,-0.226227,-0.002321,0.001292,-0.00457,-34.25,-20.68,-10.5,2d
2019-07-15_140800:920,-0.433167,-0.049316000000000006,-0.22521999999999998,-0.001925,0.000285,-0.00457,-34.0,-21.0,-10.5,2d
2019-07-15_140800:940,-0.433167,-0.051330999999999995,-0.223694,-0.001131,-0.000386,-0.0038380000000000003,-34.0,-21.0,-10.5,2d
2019-07-15_140800:960,-0.433655,-0.05285599999999999,-0.228271,0.000273,-0.001454,-0.004906000000000001,-34.0,-21.0,-10.5,2d
2019-07-15_140800:980,-0.43670699999999996,-0.051849,-0.228271,0.001982,-0.001973,-0.004967,-33.18,-21.0,-9.68,2d
2019-07-15_140801:000,-0.43823199999999995,-0.046752999999999996,-0.22879000000000002,0.0032020000000000004,-0.002309,-0.00457,-33.18,-21.0,-9.68,2d
2019-07-15_140801:020,-0.43774399999999997,-0.042694,-0.22927899999999998,0.003996,-0.002309,-0.005089,-33.560001,-21.0,-11.68,2d
2019-07-15_140801:040,-0.438751,-0.037108999999999996,-0.228271,0.003507,-0.002248,-0.004815,-33.560001,-21.0,-11.68,2d
2019-07-15_140801:060,-0.43823199999999995,-0.035065,-0.22979699999999997,0.002409,-0.002034,-0.004357,-33.560001,-21.0,-11.68,2d
2019-07-15_140801:080,-0.435699,-0.035583,-0.22979699999999997,0.00073,-0.0018510000000000002,-0.0037159999999999997,-33.25,-21.370001000000002,-11.25,2d
2019-07-15_140801:100,-0.43670699999999996,-0.037598,-0.23233,-0.001009,-0.002248,-0.00396,-33.25,-21.370001000000002,-11.25,2d
2019-07-15_140801:120,-0.43927,-0.039124,-0.23284899999999997,-0.002321,-0.002431,-0.004021,-34.060001,-21.0,-10.06,2d
2019-07-15_140801:140,-0.43823199999999995,-0.041687,-0.234375,-0.002779,-0.00237,-0.003655,-34.060001,-21.0,-10.06,2d
2019-07-15_140801:160,-0.439758,-0.042694,-0.237427,-0.002993,-0.002522,-0.002648,-34.060001,-21.0,-10.06,2d
2019-07-15_140801:180,-0.440796,-0.039642000000000004,-0.23690799999999998,-0.002535,-0.002187,-0.0019149999999999998,-32.75,-21.0,-10.87,2d
2019-07-15_140801:200,-0.441284,-0.037598,-0.23791500000000002,-0.002779,-0.001363,-0.001397,-32.75,-21.0,-10.87,2d
2019-07-15_140801:220,-0.439758,-0.038116000000000004,-0.237427,-0.002993,-0.000508,-0.001,-32.5,-21.0,-11.25,2d
2019-07-15_140801:240,-0.43518100000000004,-0.037108999999999996,-0.23590100000000003,-0.0036340000000000005,0.000133,-0.000267,-32.5,-21.0,-11.25,2d
2019-07-15_140801:260,-0.432648,-0.038116000000000004,-0.233337,-0.004091,0.00022400000000000002,0.00016,-32.5,-21.0,-11.25,2d
2019-07-15_140801:280,-0.435699,-0.039124,-0.234375,-0.0048850000000000005,-0.00011100000000000001,-0.000176,-32.75,-21.75,-12.06,2d
2019-07-15_140801:300,-0.43621800000000005,-0.042694,-0.236389,-0.005068,1.1e-05,-0.000512,-32.75,-21.75,-12.06,2d
2019-07-15_140801:320,-0.43670699999999996,-0.041687,-0.23895300000000003,-0.004824,-0.00011100000000000001,-0.000664,-32.060001,-21.370001000000002,-11.25,2d
2019-07-15_140801:340,-0.431641,-0.040649,-0.239441,-0.004427,1.1e-05,-0.001366,-32.060001,-21.370001000000002,-11.25,2d
2019-07-15_140801:360,-0.433167,-0.040649,-0.24096700000000001,-0.004091,-0.000172,-0.001397,-32.060001,-21.370001000000002,-11.25,2d
2019-07-15_140801:380,-0.440796,-0.039642000000000004,-0.240479,-0.0036950000000000004,-0.000264,-0.000908,-32.5,-21.370001000000002,-10.5,2d
2019-07-15_140801:400,-0.440796,-0.038635,-0.23895300000000003,-0.003054,0.00022400000000000002,-0.00045099999999999996,-32.5,-21.370001000000002,-10.5,2d
2019-07-15_140801:420,-0.439758,-0.037108999999999996,-0.24096700000000001,-0.002199,0.001537,0.000923,-32.75,-22.18,-12.06,2d
2019-07-15_140801:440,-0.437225,-0.036072,-0.242493,-0.002199,0.002116,0.000923,-32.75,-22.18,-12.06,2d
2019-07-15_140801:460,-0.43621800000000005,-0.034546,-0.23284899999999997,-0.003573,0.0029100000000000003,0.003151,-32.75,-22.18,-12.06,2d
2019-07-15_140801:480,-0.432159,-0.036072,-0.23233,-0.004,0.002391,0.003425,-32.18,-21.370001000000002,-11.25,2d
2019-07-15_140801:500,-0.43621800000000005,-0.041168,-0.23895300000000003,-0.004549,0.001964,0.0007700000000000001,-32.18,-21.370001000000002,-11.25,2d
2019-07-15_140801:520,-0.43621800000000005,-0.040161,-0.23590100000000003,-0.004793,0.001994,0.000709,-32.5,-21.370001000000002,-11.68,2d
2019-07-15_140801:540,-0.441284,-0.046752999999999996,-0.241486,-0.004488000000000001,0.002971,0.001503,-32.5,-21.370001000000002,-11.68,2d
2019-07-15_140801:560,-0.43670699999999996,-0.046752999999999996,-0.240479,-0.004091,0.003917,-0.000176,-32.5,-21.370001000000002,-11.68,2d
2019-07-15_140801:580,-0.434174,-0.043701,-0.23791500000000002,-0.003176,0.004314,-0.0009689999999999999,-32.75,-22.18,-12.06,2d
2019-07-15_140801:600,-0.43518100000000004,-0.044739,-0.23690799999999998,-0.002199,0.004314,-0.000786,-32.75,-22.18,-12.06,2d
2019-07-15_140801:620,-0.43621800000000005,-0.044219999999999995,-0.23690799999999998,-0.0017109999999999998,0.005016,-0.000725,-32.560001,-21.0,-10.5,2d
2019-07-15_140801:640,-0.44027700000000003,-0.042694,-0.23690799999999998,-0.001192,0.005565,-0.000634,-32.560001,-21.0,-10.5,2d
2019-07-15_140801:660,-0.44281000000000004,-0.043213,-0.23791500000000002,-0.000857,0.006418999999999999,-0.000664,-32.560001,-21.0,-10.5,2d
2019-07-15_140801:680,-0.447906,-0.039642000000000004,-0.23995999999999998,-0.000796,0.007670999999999999,-0.000573,-32.5,-22.18,-10.06,2d
2019-07-15_140801:700,-0.444855,-0.038635,-0.237427,-0.000734,0.009013,-0.000664,-32.5,-22.18,-10.06,2d
2019-07-15_140801:720,-0.441284,-0.037598,-0.23284899999999997,-0.001375,0.009226999999999999,-0.001,-32.869999,-21.370001000000002,-11.25,2d
2019-07-15_140801:740,-0.438751,-0.036591000000000005,-0.22927899999999998,-0.001864,0.00941,-0.00023700000000000001,-32.869999,-21.370001000000002,-11.25,2d
2019-07-15_140801:760,-0.440796,-0.039124,-0.225739,-0.001986,0.009807,-0.000664,-32.869999,-21.370001000000002,-11.25,2d
2019-07-15_140801:780,-0.43823199999999995,-0.040161,-0.223694,-0.0015890000000000001,0.009531999999999999,-0.001458,-32.5,-21.370001000000002,-10.06,2d
2019-07-15_140801:800,-0.432159,-0.039642000000000004,-0.22164899999999998,-0.001253,0.00822,-0.000786,-32.5,-21.370001000000002,-10.06,2d
2019-07-15_140801:820,-0.432159,-0.041168,-0.22164899999999998,-0.000918,0.007488,-0.00023700000000000001,-32.869999,-22.18,-10.06,2d
2019-07-15_140801:840,-0.433655,-0.037598,-0.22164899999999998,-0.000796,0.005626,0.001167,-32.869999,-22.18,-10.06,2d
2019-07-15_140801:860,-0.441803,-0.037108999999999996,-0.22116100000000002,-0.001314,0.0052899999999999996,0.001503,-32.869999,-22.18,-10.06,2d
2019-07-15_140801:880,-0.45095799999999997,-0.037108999999999996,-0.22164899999999998,-0.002169,0.006297,0.001228,-32.869999,-22.18,-10.06,2d
2019-07-15_140801:900,-0.44995100000000005,-0.038116000000000004,-0.22164899999999998,-0.002779,0.007762000000000001,0.000343,-32.869999,-22.18,-10.06,2d
2019-07-15_140801:920,-0.44433599999999995,-0.039642000000000004,-0.22421300000000002,-0.0034509999999999996,0.008098000000000001,0.00016,-33.68,-21.370001000000002,-11.68,2d
2019-07-15_140801:940,-0.444855,-0.040649,-0.223694,-0.003817,0.007762000000000001,0.000221,-33.68,-21.370001000000002,-11.68,2d
2019-07-15_140801:960,-0.44995100000000005,-0.039642000000000004,-0.22216799999999998,-0.003878,0.008281,0.000465,-33.68,-21.370001000000002,-11.68,2d
2019-07-15_140801:980,-0.44891400000000004,-0.041168,-0.219635,-0.003939,0.008739,0.000526,-32.5,-21.370001000000002,-10.5,2d
2019-07-15_140802:000,-0.444855,-0.040649,-0.217072,-0.004275,0.009134999999999999,0.000709,-32.5,-21.370001000000002,-10.5,2d
2019-07-15_140802:020,-0.440796,-0.042694,-0.21759,-0.004213000000000001,0.0088,0.000709,-32.5,-21.75,-10.06,2d
2019-07-15_140802:040,-0.441803,-0.042175,-0.21453899999999998,-0.00403,0.007548999999999999,0.001106,-32.5,-21.75,-10.06,2d
2019-07-15_140802:060,-0.441803,-0.043213,-0.20944200000000002,-0.004152,0.006572,0.00132,-32.5,-21.75,-10.06,2d
2019-07-15_140802:080,-0.44027700000000003,-0.043701,-0.208954,-0.003939,0.00584,0.0008619999999999999,-33.18,-21.75,-10.06,2d
2019-07-15_140802:100,-0.445374,-0.042694,-0.207916,-0.004,0.005107,0.000526,-33.18,-21.75,-10.06,2d
2019-07-15_140802:120,-0.44638100000000003,-0.043701,-0.208954,-0.0037560000000000002,0.005016,0.0007700000000000001,-33.18,-21.0,-10.06,2d
2019-07-15_140802:140,-0.445862,-0.042694,-0.20742800000000003,-0.003664,0.004375,0.000465,-33.18,-21.0,-10.06,2d
2019-07-15_140802:160,-0.44638100000000003,-0.042175,-0.20538299999999998,-0.0036340000000000005,0.003764,0.00028199999999999997,-33.18,-21.0,-10.06,2d
2019-07-15_140802:180,-0.44433599999999995,-0.043213,-0.20486500000000002,-0.0036340000000000005,0.0029100000000000003,-0.000176,-34.0,-21.370001000000002,-9.68,2d
2019-07-15_140802:200,-0.446899,-0.042694,-0.203369,-0.003512,0.0024519999999999998,-0.000176,-34.0,-21.370001000000002,-9.68,2d
2019-07-15_140802:220,-0.448425,-0.043213,-0.20639000000000002,-0.0033280000000000002,0.002513,-5.4000000000000005e-05,-33.560001,-21.75,-9.25,2d
2019-07-15_140802:240,-0.446899,-0.043213,-0.20742800000000003,-0.003054,0.002116,-0.000267,-33.560001,-21.75,-9.25,2d
2019-07-15_140802:260,-0.444855,-0.039124,-0.20538299999999998,-0.003176,0.0016589999999999999,0.00028199999999999997,-33.560001,-21.75,-9.25,2d
2019-07-15_140802:280,-0.44638100000000003,-0.037598,-0.207916,-0.0036950000000000004,0.001018,0.00196,-33.560001,-21.75,-10.5,2d
2019-07-15_140802:300,-0.447388,-0.037108999999999996,-0.20742800000000003,-0.004397,1.1e-05,0.001564,-33.560001,-21.75,-10.5,2d
2019-07-15_140802:320,-0.44891400000000004,-0.035583,-0.209961,-0.004671,-0.00011100000000000001,0.001228,-34.0,-21.370001000000002,-10.06,2d
2019-07-15_140802:340,-0.451477,-0.035065,-0.208954,-0.006197,1.1e-05,0.001838,-34.0,-21.370001000000002,-10.06,2d
2019-07-15_140802:360,-0.45043900000000003,-0.036591000000000005,-0.206909,-0.007204,0.000682,0.0026320000000000002,-34.0,-21.370001000000002,-10.06,2d
2019-07-15_140802:380,-0.44891400000000004,-0.038635,-0.209961,-0.007662,0.0008039999999999999,0.002693,-32.75,-22.18,-9.68,2d
2019-07-15_140802:400,-0.446899,-0.040649,-0.20742800000000003,-0.008211,0.0008960000000000001,0.00251,-32.75,-22.18,-9.68,2d
2019-07-15_140802:420,-0.444855,-0.043213,-0.208954,-0.008181,0.000499,0.002449,-32.5,-21.75,-9.68,2d
2019-07-15_140802:440,-0.445862,-0.043213,-0.20944200000000002,-0.008454999999999999,-0.0005690000000000001,0.0030280000000000003,-32.5,-21.75,-9.68,2d
2019-07-15_140802:460,-0.447388,-0.046752999999999996,-0.209961,-0.008333,-0.0007830000000000001,0.002784,-32.5,-21.75,-9.68,2d
2019-07-15_140802:480,-0.452484,-0.046265,-0.208954,-0.008181,-0.0005690000000000001,0.0022960000000000003,-32.5,-21.0,-8.06,2d
2019-07-15_140802:500,-0.44995100000000005,-0.047791,-0.20944200000000002,-0.007265000000000001,-0.000264,0.000831,-32.5,-21.0,-8.06,2d
2019-07-15_140802:520,-0.45196499999999995,-0.049316000000000006,-0.208954,-0.006807,1.1e-05,0.000587,-32.5,-21.0,-8.06,2d
2019-07-15_140802:540,-0.453003,-0.048279,-0.209961,-0.004946,0.0008960000000000001,0.000129,-33.18,-22.18,-9.0,2d
2019-07-15_140802:560,-0.45095799999999997,-0.045226999999999996,-0.208954,-0.0037560000000000002,0.001537,0.000526,-33.18,-22.18,-9.0,2d
2019-07-15_140802:580,-0.44891400000000004,-0.043213,-0.208954,-0.003176,0.001537,0.000587,-33.560001,-21.0,-9.0,2d
2019-07-15_140802:600,-0.44891400000000004,-0.040649,-0.20639000000000002,-0.002932,0.0016589999999999999,0.0007700000000000001,-33.560001,-21.0,-9.0,2d
2019-07-15_140802:620,-0.44638100000000003,-0.038635,-0.20639000000000002,-0.0029010000000000004,0.0017809999999999998,0.0008619999999999999,-34.0,-21.75,-10.06,2d
2019-07-15_140802:640,-0.444855,-0.037598,-0.20742800000000003,-0.00339,0.001018,0.000465,-34.0,-21.75,-10.06,2d
2019-07-15_140802:660,-0.445374,-0.037598,-0.208954,-0.003573,0.000682,0.00028199999999999997,-34.0,-21.75,-10.06,2d
2019-07-15_140802:680,-0.445862,-0.039642000000000004,-0.20944200000000002,-0.003939,1.1e-05,0.000343,-33.560001,-22.18,-10.5,2d
2019-07-15_140802:700,-0.45043900000000003,-0.040649,-0.20843499999999998,-0.004336,-0.00011100000000000001,0.00016,-33.560001,-22.18,-10.5,2d
2019-07-15_140802:720,-0.453003,-0.043213,-0.21048000000000003,-0.004213000000000001,0.0009570000000000001,-0.00023700000000000001,-33.18,-21.370001000000002,-9.25,2d
2019-07-15_140802:740,-0.45043900000000003,-0.044739,-0.212006,-0.003939,0.001201,-0.00045099999999999996,-33.18,-21.370001000000002,-9.25,2d
2019-07-15_140802:760,-0.44891400000000004,-0.043213,-0.210968,-0.003176,0.001598,-0.000267,-33.18,-21.370001000000002,-9.25,2d
2019-07-15_140802:780,-0.44433599999999995,-0.042175,-0.209961,-0.0028399999999999996,0.001415,7.000000000000001e-06,-33.560001,-21.0,-10.06,2d
2019-07-15_140802:800,-0.444855,-0.042694,-0.20944200000000002,-0.0025960000000000002,0.000407,-5.4000000000000005e-05,-33.560001,-21.0,-10.06,2d
2019-07-15_140802:820,-0.44433599999999995,-0.040161,-0.209961,-0.002718,0.00022400000000000002,-0.00023700000000000001,-33.560001,-21.0,-10.06,2d
2019-07-15_140802:840,-0.44638100000000003,-0.041168,-0.212006,-0.002779,-0.000325,-0.00045099999999999996,-33.560001,-21.370001000000002,-10.06,2d
2019-07-15_140802:860,-0.448425,-0.040649,-0.21249400000000002,-0.002993,-0.000386,-0.000512,-33.560001,-21.370001000000002,-10.06,2d
2019-07-15_140802:880,-0.446899,-0.040649,-0.21505700000000003,-0.002779,-0.000508,-0.000786,-32.75,-22.5,-9.68,2d
2019-07-15_140802:900,-0.448425,-0.040161,-0.213013,-0.002718,-0.00044699999999999997,-0.0008470000000000001,-32.75,-22.5,-9.68,2d
2019-07-15_140802:920,-0.449432,-0.037598,-0.213531,-0.002657,-0.000264,-0.000328,-32.75,-22.5,-9.68,2d
2019-07-15_140802:940,-0.446899,-0.034058,-0.21402,-0.003054,7.2e-05,0.000648,-34.25,-21.75,-9.0,2d
2019-07-15_140802:960,-0.44232200000000005,-0.032013,-0.21402,-0.004213000000000001,-0.0005690000000000001,0.002388,-34.25,-21.75,-9.0,2d
2019-07-15_140802:980,-0.43823199999999995,-0.030487,-0.21554600000000002,-0.0048850000000000005,-0.0009050000000000001,0.002967,-32.75,-21.370001000000002,-9.0,2d
2019-07-15_140803:000,-0.438751,-0.032013,-0.21453899999999998,-0.006745999999999999,-0.0027660000000000002,0.004158,-32.75,-21.370001000000002,-9.0,2d
2019-07-15_140803:020,-0.452484,-0.038116000000000004,-0.21606399999999998,-0.007265000000000001,-0.0027660000000000002,0.004768,-32.75,-21.370001000000002,-9.0,2d
2019-07-15_140803:040,-0.45095799999999997,-0.042175,-0.21911599999999998,-0.007662,-0.001576,0.004158,-32.75,-21.370001000000002,-10.87,2d
2019-07-15_140803:060,-0.447906,-0.044739,-0.21911599999999998,-0.007448000000000001,-0.0009660000000000001,0.003517,-32.75,-21.370001000000002,-10.87,2d
2019-07-15_140803:080,-0.44433599999999995,-0.047272,-0.220642,-0.0069299999999999995,-0.000661,0.003242,-32.75,-21.0,-9.68,2d
2019-07-15_140803:100,-0.44638100000000003,-0.048279,-0.21606399999999998,-0.006258,-0.0005690000000000001,0.00196,-32.75,-21.0,-9.68,2d
2019-07-15_140803:120,-0.44995100000000005,-0.048279,-0.21810900000000003,-0.005404,0.000133,0.001228,-32.75,-21.0,-9.68,2d
2019-07-15_140803:140,-0.44891400000000004,-0.049316000000000006,-0.21911599999999998,-0.004793,0.000682,0.001564,-33.18,-22.18,-10.06,2d
2019-07-15_140803:160,-0.44891400000000004,-0.047791,-0.219635,-0.003664,0.0010789999999999999,-0.000176,-33.18,-22.18,-10.06,2d
2019-07-15_140803:180,-0.445374,-0.042694,-0.220642,-0.0032979999999999997,0.001537,-0.001366,-32.75,-21.75,-9.25,2d
2019-07-15_140803:200,-0.44281000000000004,-0.042175,-0.21759,-0.003237,0.001628,-0.000634,-32.75,-21.75,-9.25,2d
2019-07-15_140803:220,-0.445374,-0.039124,-0.21810900000000003,-0.003573,0.001353,-0.000664,-34.0,-21.0,-9.0,2d
2019-07-15_140803:240,-0.445862,-0.038635,-0.21859699999999999,-0.003664,0.001598,-0.000328,-34.0,-21.0,-9.0,2d
2019-07-15_140803:260,-0.445862,-0.038635,-0.21911599999999998,-0.00403,0.001842,0.00028199999999999997,-34.0,-21.0,-9.0,2d
2019-07-15_140803:280,-0.44232200000000005,-0.039124,-0.21859699999999999,-0.004336,0.002116,0.001106,-34.0,-21.0,-10.5,2d
2019-07-15_140803:300,-0.441284,-0.040649,-0.21606399999999998,-0.004427,0.0017809999999999998,0.001716,-34.0,-21.0,-10.5,2d
2019-07-15_140803:320,-0.43774399999999997,-0.041168,-0.21759,-0.00461,0.00114,0.001381,-34.0,-21.0,-10.5,2d
2019-07-15_140803:340,-0.440796,-0.042694,-0.21606399999999998,-0.00461,0.00016299999999999998,0.001045,-33.18,-21.370001000000002,-10.87,2d
2019-07-15_140803:360,-0.44638100000000003,-0.045226999999999996,-0.216583,-0.004549,-0.000233,0.000709,-33.18,-21.370001000000002,-10.87,2d
2019-07-15_140803:380,-0.44891400000000004,-0.044739,-0.219635,-0.004152,1.1e-05,0.000221,-33.18,-20.25,-9.25,2d
2019-07-15_140803:400,-0.445374,-0.044739,-0.21759,-0.003664,0.000865,7.000000000000001e-06,-33.18,-20.25,-9.25,2d
2019-07-15_140803:420,-0.441803,-0.044739,-0.220123,-0.003176,0.000865,-0.000389,-33.18,-20.25,-9.25,2d
2019-07-15_140803:440,-0.44281000000000004,-0.043213,-0.220642,-0.0029010000000000004,0.0009570000000000001,-0.00158,-32.75,-21.370001000000002,-9.0,2d
2019-07-15_140803:460,-0.443329,-0.042694,-0.21911599999999998,-0.002535,0.000468,-0.001366,-32.75,-21.370001000000002,-9.0,2d
2019-07-15_140803:480,-0.44384799999999996,-0.042694,-0.220642,-0.002169,0.000285,-0.0008470000000000001,-32.75,-21.5,-10.06,2d
2019-07-15_140803:500,-0.44433599999999995,-0.041687,-0.219635,-0.001864,0.000285,-0.0012439999999999999,-32.75,-21.5,-10.06,2d
2019-07-15_140803:520,-0.443329,-0.040161,-0.220642,-0.001772,0.000346,-0.0009689999999999999,-32.75,-21.5,-10.06,2d
2019-07-15_140803:540,-0.443329,-0.040649,-0.22164899999999998,-0.0018030000000000001,0.00022400000000000002,-0.000908,-32.75,-21.370001000000002,-9.68,2d
2019-07-15_140803:560,-0.444855,-0.038635,-0.22116100000000002,-0.001772,0.000346,-0.000634,-32.75,-21.370001000000002,-9.68,2d
2019-07-15_140803:580,-0.44433599999999995,-0.037108999999999996,-0.22164899999999998,-0.0018030000000000001,0.000743,7.000000000000001e-06,-32.75,-21.370001000000002,-10.06,2d
2019-07-15_140803:600,-0.443329,-0.037598,-0.22164899999999998,-0.0021079999999999996,0.0008039999999999999,0.00016,-32.75,-21.370001000000002,-10.06,2d
2019-07-15_140803:620,-0.44281000000000004,-0.038116000000000004,-0.223694,-0.0022600000000000003,0.0008039999999999999,0.000404,-32.75,-21.370001000000002,-10.06,2d
2019-07-15_140803:640,-0.444855,-0.039124,-0.220642,-0.002657,0.001018,0.00028199999999999997,-33.560001,-21.75,-10.5,2d
2019-07-15_140803:660,-0.44384799999999996,-0.040161,-0.22116100000000002,-0.0025050000000000003,0.00114,0.000465,-33.560001,-21.75,-10.5,2d
2019-07-15_140803:680,-0.44281000000000004,-0.039642000000000004,-0.223694,-0.002779,0.001201,0.000343,-33.18,-21.0,-11.25,2d
2019-07-15_140803:700,-0.44232200000000005,-0.041168,-0.22164899999999998,-0.002657,0.001292,0.000404,-33.18,-21.0,-11.25,2d
2019-07-15_140803:720,-0.441803,-0.043213,-0.223694,-0.002718,0.001292,0.0007700000000000001,-32.75,-21.0,-10.5,2d
2019-07-15_140803:740,-0.44232200000000005,-0.043213,-0.22216799999999998,-0.0029010000000000004,0.001018,0.0008619999999999999,-32.75,-21.0,-10.5,2d
2019-07-15_140803:760,-0.440796,-0.044739,-0.222687,-0.0028399999999999996,0.00114,0.000831,-32.75,-21.0,-10.5,2d
2019-07-15_140803:780,-0.44281000000000004,-0.044739,-0.224701,-0.0025050000000000003,0.0009570000000000001,0.000404,-33.18,-21.370001000000002,-10.06,2d
2019-07-15_140803:800,-0.444855,-0.044219999999999995,-0.220642,-0.002199,0.001018,0.000129,-33.18,-21.370001000000002,-10.06,2d
2019-07-15_140803:820,-0.44638100000000003,-0.043701,-0.22116100000000002,-0.001772,0.001292,-0.00011499999999999999,-33.18,-21.370001000000002,-10.06,2d
2019-07-15_140803:840,-0.44281000000000004,-0.042694,-0.220642,-0.001864,0.001537,-0.000328,-33.18,-20.68,-9.68,2d
2019-07-15_140803:860,-0.43823199999999995,-0.041687,-0.22164899999999998,-0.001772,0.001537,-0.00045099999999999996,-33.18,-20.68,-9.68,2d
2019-07-15_140803:880,-0.437225,-0.039642000000000004,-0.223175,-0.0018030000000000001,0.00056,-0.000786,-32.75,-21.75,-10.06,2d
2019-07-15_140803:900,-0.440796,-0.038635,-0.22216799999999998,-0.001772,-0.000172,-0.000389,-32.75,-21.75,-10.06,2d
2019-07-15_140803:920,-0.445374,-0.039642000000000004,-0.224701,-0.001986,-0.000325,-0.00045099999999999996,-32.75,-21.75,-10.06,2d
2019-07-15_140803:940,-0.447388,-0.036591000000000005,-0.226227,-0.0022600000000000003,0.000621,-0.000267,-32.75,-21.75,-11.25,2d
2019-07-15_140803:960,-0.44433599999999995,-0.038635,-0.224701,-0.002382,0.001353,0.000648,-32.75,-21.75,-11.25,2d
2019-07-15_140803:980,-0.44232200000000005,-0.037108999999999996,-0.22164899999999998,-0.002718,0.0016589999999999999,0.000343,-32.75,-21.5,-9.0,2d
2019-07-15_140804:000,-0.440796,-0.037598,-0.22116100000000002,-0.003176,0.0016589999999999999,0.00196,-32.75,-21.5,-9.0,2d
2019-07-15_140804:020,-0.440796,-0.041168,-0.220642,-0.003664,0.001353,0.003822,-32.75,-21.5,-9.0,2d
2019-07-15_140804:040,-0.43823199999999995,-0.040649,-0.22116100000000002,-0.004427,0.000682,0.0018989999999999999,-33.18,-21.870001000000002,-11.68,2d
2019-07-15_140804:060,-0.437225,-0.041687,-0.22116100000000002,-0.004732,-0.00011100000000000001,0.001655,-33.18,-21.870001000000002,-11.68,2d
2019-07-15_140804:080,-0.44027700000000003,-0.043701,-0.22216799999999998,-0.005007,-0.00063,0.0022960000000000003,-34.0,-21.5,-9.25,2d
2019-07-15_140804:100,-0.438751,-0.043213,-0.222687,-0.005282,-0.0009050000000000001,0.001655,-34.0,-21.5,-9.25,2d
2019-07-15_140804:120,-0.43823199999999995,-0.043213,-0.223175,-0.005282,-0.0009660000000000001,0.001625,-34.0,-21.5,-9.25,2d
2019-07-15_140804:140,-0.43670699999999996,-0.043701,-0.22216799999999998,-0.005282,-0.001454,0.001564,-32.75,-21.370001000000002,-10.06,2d
2019-07-15_140804:160,-0.441284,-0.044219999999999995,-0.224701,-0.005556,-0.001698,0.001625,-32.75,-21.370001000000002,-10.06,2d
2019-07-15_140804:180,-0.445862,-0.045745999999999995,-0.224701,-0.005739,-0.001698,0.001503,-32.75,-21.0,-11.68,2d
2019-07-15_140804:200,-0.443329,-0.045745999999999995,-0.22521999999999998,-0.005526,-0.001118,0.000831,-32.75,-21.0,-11.68,2d
2019-07-15_140804:220,-0.441284,-0.045745999999999995,-0.22927899999999998,-0.005221,-0.000722,0.000404,-32.75,-21.0,-11.68,2d
2019-07-15_140804:240,-0.438751,-0.044739,-0.227753,-0.004732,-0.000661,0.00028199999999999997,-33.18,-21.75,-10.87,2d
2019-07-15_140804:260,-0.440796,-0.043213,-0.227264,-0.004732,-0.00124,0.00028199999999999997,-33.18,-21.75,-10.87,2d
2019-07-15_140804:280,-0.44027700000000003,-0.040649,-0.227264,-0.004549,-0.001027,0.001228,-32.5,-21.0,-10.5,2d
2019-07-15_140804:300,-0.434174,-0.040649,-0.22521999999999998,-0.004946,-0.0009050000000000001,0.000404,-32.5,-21.0,-10.5,2d
2019-07-15_140804:320,-0.43518100000000004,-0.037598,-0.226746,-0.005526,-0.001393,0.00028199999999999997,-32.5,-21.0,-10.5,2d
2019-07-15_140804:340,-0.43823199999999995,-0.041168,-0.228271,-0.006075,-0.00237,0.001991,-33.18,-21.75,-12.06,2d
2019-07-15_140804:360,-0.44027700000000003,-0.044219999999999995,-0.231812,-0.006014,-0.002034,0.002052,-33.18,-21.75,-12.06,2d
2019-07-15_140804:380,-0.441803,-0.044739,-0.23284899999999997,-0.005861,-0.00179,0.001777,-32.75,-21.75,-10.5,2d
2019-07-15_140804:400,-0.43823199999999995,-0.046265,-0.231323,-0.005465,-0.001363,0.002052,-32.75,-21.75,-10.5,2d
2019-07-15_140804:420,-0.43774399999999997,-0.045226999999999996,-0.231323,-0.005221,-0.001118,0.001625,-32.75,-21.75,-10.5,2d
2019-07-15_140804:440,-0.437225,-0.045745999999999995,-0.23233,-0.004732,-0.001118,0.001564,-33.18,-21.75,-9.68,2d
2019-07-15_140804:460,-0.43518100000000004,-0.044219999999999995,-0.231812,-0.004488000000000001,-0.001393,0.001442,-33.18,-21.75,-9.68,2d
2019-07-15_140804:480,-0.434692,-0.042694,-0.23233,-0.004488000000000001,-0.001576,0.000709,-33.560001,-21.5,-11.68,2d
2019-07-15_140804:500,-0.435699,-0.040649,-0.230804,-0.004732,-0.001393,0.000648,-33.560001,-21.5,-11.68,2d
2019-07-15_140804:520,-0.43518100000000004,-0.043701,-0.23486300000000002,-0.005221,-0.001637,6.8e-05,-33.560001,-21.5,-11.68,2d
2019-07-15_140804:540,-0.43774399999999997,-0.043213,-0.23791500000000002,-0.005221,-0.001637,-0.000176,-33.560001,-20.370001000000002,-10.06,2d
2019-07-15_140804:560,-0.440796,-0.045745999999999995,-0.238434,-0.00461,-0.001057,0.000496,-33.560001,-20.370001000000002,-10.06,2d
2019-07-15_140804:580,-0.44027700000000003,-0.046265,-0.23895300000000003,-0.004,-0.00011100000000000001,0.0008619999999999999,-32.060001,-21.059998999999998,-10.87,2d
2019-07-15_140804:600,-0.43774399999999997,-0.044219999999999995,-0.238434,-0.0032979999999999997,0.000468,0.001503,-32.060001,-21.059998999999998,-10.87,2d
2019-07-15_140804:620,-0.43823199999999995,-0.043701,-0.23895300000000003,-0.002932,0.000682,0.001777,-32.060001,-21.059998999999998,-10.87,2d
2019-07-15_140804:640,-0.43774399999999997,-0.043213,-0.23791500000000002,-0.002993,0.001018,0.001503,-33.560001,-21.5,-9.68,2d
2019-07-15_140804:660,-0.43621800000000005,-0.043701,-0.235382,-0.0033280000000000002,0.001415,0.001228,-33.560001,-21.5,-9.68,2d
2019-07-15_140804:680,-0.434692,-0.044219999999999995,-0.236389,-0.003512,0.0016589999999999999,0.00132,-32.75,-21.059998999999998,-12.5,2d
2019-07-15_140804:700,-0.433167,-0.044739,-0.23486300000000002,-0.0036950000000000004,0.001353,0.000526,-32.75,-21.059998999999998,-12.5,2d
2019-07-15_140804:720,-0.433167,-0.043701,-0.235382,-0.0036950000000000004,0.00114,0.000465,-32.75,-21.059998999999998,-12.5,2d
2019-07-15_140804:740,-0.429108,-0.046752999999999996,-0.236389,-0.003664,0.000865,0.00016,-33.18,-21.059998999999998,-11.68,2d
2019-07-15_140804:760,-0.429108,-0.045226999999999996,-0.238434,-0.0034509999999999996,0.000133,-0.000725,-33.18,-21.059998999999998,-11.68,2d
2019-07-15_140804:780,-0.43011499999999997,-0.042694,-0.241486,-0.003054,-0.0009050000000000001,-0.000725,-34.0,-21.870001000000002,-11.25,2d
2019-07-15_140804:800,-0.434692,-0.040161,-0.24353000000000002,-0.002779,-0.001302,-0.00023700000000000001,-34.0,-21.870001000000002,-11.25,2d
2019-07-15_140804:820,-0.43621800000000005,-0.040649,-0.244019,-0.002779,-0.000722,-0.000634,-34.0,-21.870001000000002,-11.25,2d
2019-07-15_140804:840,-0.43621800000000005,-0.038635,-0.243011,-0.0032979999999999997,0.000285,0.0008619999999999999,-33.560001,-21.5,-10.87,2d
2019-07-15_140804:860,-0.431122,-0.039642000000000004,-0.245544,-0.003573,0.000621,0.00251,-33.560001,-21.5,-10.87,2d
2019-07-15_140804:880,-0.42807,-0.043213,-0.24706999999999998,-0.00403,0.000407,0.001228,-32.75,-21.5,-11.25,2d
2019-07-15_140804:900,-0.42807,-0.042175,-0.248596,-0.003939,-0.00011100000000000001,0.000221,-32.75,-21.5,-11.25,2d
2019-07-15_140804:920,-0.429108,-0.044219999999999995,-0.24963400000000002,-0.0036950000000000004,-0.000233,0.001625,-32.75,-21.5,-11.25,2d
2019-07-15_140804:940,-0.432159,-0.044219999999999995,-0.250641,-0.0036950000000000004,0.000133,0.001045,-33.560001,-21.5,-10.87,2d
2019-07-15_140804:960,-0.430634,-0.044219999999999995,-0.251648,-0.003664,0.001292,0.000404,-33.560001,-21.5,-10.87,2d
2019-07-15_140804:980,-0.426544,-0.043701,-0.25116,-0.003573,0.0017809999999999998,-0.00023700000000000001,-32.75,-20.75,-11.25,2d
2019-07-15_140805:000,-0.42605600000000005,-0.042694,-0.248596,-0.003664,0.0023,-0.0009689999999999999,-32.75,-20.75,-11.25,2d
2019-07-15_140805:020,-0.425537,-0.043213,-0.249115,-0.0036950000000000004,0.002055,-0.0009689999999999999,-32.75,-20.75,-11.25,2d
2019-07-15_140805:040,-0.42758199999999996,-0.042694,-0.25012199999999996,-0.003512,0.0019030000000000002,-0.0010609999999999999,-32.5,-21.870001000000002,-12.06,2d
2019-07-15_140805:060,-0.42858900000000005,-0.041687,-0.248108,-0.00339,0.00172,-0.0011220000000000002,-32.5,-21.870001000000002,-12.06,2d
2019-07-15_140805:080,-0.43011499999999997,-0.041168,-0.248108,-0.002932,0.0017809999999999998,-0.0010609999999999999,-32.5,-21.870001000000002,-11.68,2d
2019-07-15_140805:100,-0.434692,-0.040161,-0.24353000000000002,-0.002718,0.001994,-0.000786,-32.5,-21.870001000000002,-11.68,2d
2019-07-15_140805:120,-0.433655,-0.039642000000000004,-0.24096700000000001,-0.002993,0.002696,-0.00023700000000000001,-32.5,-21.870001000000002,-11.68,2d
2019-07-15_140805:140,-0.42758199999999996,-0.040649,-0.234375,-0.003237,0.003032,-0.000267,-33.18,-21.5,-12.5,2d
2019-07-15_140805:160,-0.427063,-0.041687,-0.231323,-0.0036950000000000004,0.002391,-0.000908,-33.18,-21.5,-12.5,2d
2019-07-15_140805:180,-0.42401099999999997,-0.048798,-0.225739,-0.003939,0.001018,-5.4000000000000005e-05,-32.75,-21.5,-10.87,2d
2019-07-15_140805:200,-0.427063,-0.051330999999999995,-0.222687,-0.004671,-0.001118,-0.000328,-32.75,-21.5,-10.87,2d
2019-07-15_140805:220,-0.43774399999999997,-0.055389,-0.22421300000000002,-0.005526,-0.002583,-0.0010609999999999999,-32.75,-21.5,-10.87,2d
2019-07-15_140805:240,-0.44995100000000005,-0.058441,-0.226227,-0.005861,-0.002644,-0.0019149999999999998,-32.5,-21.5,-12.06,2d
2019-07-15_140805:260,-0.455017,-0.058441,-0.227264,-0.005556,-0.0007830000000000001,-0.003167,-32.5,-21.5,-12.06,2d
2019-07-15_140805:280,-0.455017,-0.056915,-0.23028600000000002,-0.004793,0.001018,-0.003106,-32.75,-21.870001000000002,-11.25,2d
2019-07-15_140805:300,-0.44638100000000003,-0.05438200000000001,-0.22879000000000002,-0.0037560000000000002,0.001994,-0.001854,-32.75,-21.870001000000002,-11.25,2d
2019-07-15_140805:320,-0.44232200000000005,-0.049316000000000006,-0.227264,-0.002993,0.0023,-0.000664,-32.75,-21.870001000000002,-11.25,2d
2019-07-15_140805:340,-0.433655,-0.041687,-0.22521999999999998,-0.002779,0.002116,0.000343,-32.75,-21.870001000000002,-10.5,2d
2019-07-15_140805:360,-0.432648,-0.038116000000000004,-0.226227,-0.00339,0.001018,0.001258,-32.75,-21.870001000000002,-10.5,2d
2019-07-15_140805:380,-0.432159,-0.036072,-0.22521999999999998,-0.004549,-0.00011100000000000001,0.001716,-32.75,-21.5,-11.25,2d
2019-07-15_140805:400,-0.426544,-0.037108999999999996,-0.224701,-0.0058,-0.001454,0.0026320000000000002,-32.75,-21.5,-11.25,2d
2019-07-15_140805:420,-0.421967,-0.035065,-0.228271,-0.006869,-0.0035600000000000002,0.003517,-32.75,-21.5,-11.25,2d
2019-07-15_140805:440,-0.426544,-0.037598,-0.231323,-0.007937,-0.006032,0.003975,-32.060001,-21.870001000000002,-10.87,2d
2019-07-15_140805:460,-0.441803,-0.038635,-0.233337,-0.008669,-0.007069,0.004097,-32.060001,-21.870001000000002,-10.87,2d
2019-07-15_140805:480,-0.447388,-0.039642000000000004,-0.23486300000000002,-0.008974,-0.0062759999999999995,0.004646,-32.75,-22.25,-11.68,2d
2019-07-15_140805:500,-0.447906,-0.043701,-0.236389,-0.008974,-0.0045060000000000005,0.005439,-32.75,-22.25,-11.68,2d
2019-07-15_140805:520,-0.438751,-0.042175,-0.23995999999999998,-0.009004999999999999,-0.0027660000000000002,0.005806,-32.75,-22.25,-11.68,2d
2019-07-15_140805:540,-0.430634,-0.041168,-0.24706999999999998,-0.009066,-0.001973,0.006141,-32.060001,-21.870001000000002,-11.68,2d
2019-07-15_140805:560,-0.423492,-0.040649,-0.25116,-0.009127,-0.002156,0.005439,-32.060001,-21.870001000000002,-11.68,2d
2019-07-15_140805:580,-0.420959,-0.040649,-0.255707,-0.009249,-0.002919,0.0043100000000000005,-32.060001,-21.5,-11.68,2d
2019-07-15_140805:600,-0.42858900000000005,-0.039642000000000004,-0.256226,-0.009188,-0.0033159999999999995,0.003425,-32.060001,-21.5,-11.68,2d
2019-07-15_140805:620,-0.431122,-0.039642000000000004,-0.259277,-0.008851999999999999,-0.002187,0.0037,-32.060001,-21.5,-11.68,2d
2019-07-15_140805:640,-0.425537,-0.038635,-0.260803,-0.008272,-0.001393,0.005043,-32.5,-22.25,-13.25,2d
2019-07-15_140805:660,-0.42758199999999996,-0.038635,-0.259796,-0.007998,-0.0009050000000000001,0.005684000000000001,-32.5,-22.25,-13.25,2d
2019-07-15_140805:680,-0.429596,-0.037598,-0.262848,-0.007448000000000001,-0.000325,0.005439,-33.560001,-22.18,-12.5,2d
2019-07-15_140805:700,-0.433167,-0.038635,-0.259277,-0.006533,1.1e-05,0.004951,-33.560001,-22.18,-12.5,2d
2019-07-15_140805:720,-0.432648,-0.039642000000000004,-0.259796,-0.0058,0.000499,0.003761,-33.560001,-22.18,-12.5,2d
2019-07-15_140805:740,-0.433655,-0.039124,-0.264374,-0.005007,0.0012619999999999999,0.004646,-32.75,-21.0,-10.87,2d
2019-07-15_140805:760,-0.43823199999999995,-0.040161,-0.26181,-0.004427,0.0017809999999999998,0.007423000000000001,-32.75,-21.0,-10.87,2d
2019-07-15_140805:780,-0.43011499999999997,-0.039642000000000004,-0.256744,-0.004213000000000001,0.003825,0.006416,-34.0,-21.5,-11.68,2d
2019-07-15_140805:800,-0.426544,-0.037108999999999996,-0.2547,-0.004824,0.0052899999999999996,0.004646,-34.0,-21.5,-11.68,2d
2019-07-15_140805:820,-0.416901,-0.043701,-0.256226,-0.005068,0.005412,0.003639,-34.0,-21.5,-11.68,2d
2019-07-15_140805:840,-0.41842700000000005,-0.045226999999999996,-0.254211,-0.004427,0.005412,0.001838,-32.75,-20.75,-11.25,2d
2019-07-15_140805:860,-0.42248500000000005,-0.045226999999999996,-0.251648,-0.003664,0.005565,0.002449,-32.75,-20.75,-11.25,2d
2019-07-15_140805:880,-0.410278,-0.046265,-0.251648,-0.002718,0.005686999999999999,0.00428,-33.18,-21.059998999999998,-12.06,2d
2019-07-15_140805:900,-0.409271,-0.043213,-0.25216700000000003,-0.002169,0.00471,0.003761,-33.18,-21.059998999999998,-12.06,2d
2019-07-15_140805:920,-0.414337,-0.040161,-0.253693,-0.001772,0.003032,0.001655,-33.18,-21.059998999999998,-12.06,2d
2019-07-15_140805:940,-0.420959,-0.042175,-0.256226,-0.001467,0.0016589999999999999,-0.00023700000000000001,-32.5,-20.75,-10.5,2d
2019-07-15_140805:960,-0.431641,-0.041687,-0.256744,-0.0009789999999999998,0.001964,-0.0011220000000000002,-32.5,-20.75,-10.5,2d
2019-07-15_140805:980,-0.432648,-0.040161,-0.255707,-0.0006730000000000001,0.002849,-0.001183,-33.18,-20.75,-10.87,2d
2019-07-15_140806:000,-0.429596,-0.035583,-0.251648,-0.0006730000000000001,0.0041,-0.001183,-33.18,-20.75,-10.87,2d
2019-07-15_140806:020,-0.420959,-0.038635,-0.250641,-0.001192,0.004954999999999999,-0.000267,-33.18,-20.75,-10.87,2d
2019-07-15_140806:040,-0.411804,-0.043701,-0.25216700000000003,-0.00107,0.004771,0.00028199999999999997,-32.75,-20.370001000000002,-11.25,2d
2019-07-15_140806:060,-0.41485600000000006,-0.043701,-0.254211,-0.000857,0.004039,7.000000000000001e-06,-32.75,-20.370001000000002,-11.25,2d
2019-07-15_140806:080,-0.42248500000000005,-0.043213,-0.25317399999999995,-0.000643,0.003307,0.000709,-34.0,-21.059998999999998,-11.68,2d
2019-07-15_140806:100,-0.432159,-0.043701,-0.254211,-0.001192,0.002635,0.001228,-34.0,-21.059998999999998,-11.68,2d
2019-07-15_140806:120,-0.445374,-0.047272,-0.24658200000000002,-0.002443,0.002788,0.000496,-34.0,-21.059998999999998,-11.68,2d
2019-07-15_140806:140,-0.44232200000000005,-0.050323,-0.243011,-0.003176,0.004161,-0.001854,-33.560001,-21.059998999999998,-10.5,2d
2019-07-15_140806:160,-0.435699,-0.053863999999999995,-0.242493,-0.002443,0.005351,-0.005639,-33.560001,-21.059998999999998,-10.5,2d
2019-07-15_140806:180,-0.432159,-0.050323,-0.242493,-0.001009,0.005686999999999999,-0.008232,-32.75,-20.75,-12.06,2d
2019-07-15_140806:200,-0.441284,-0.043213,-0.242493,0.000944,0.004894,-0.006829000000000001,-32.75,-20.75,-12.06,2d
2019-07-15_140806:220,-0.445862,-0.037598,-0.23895300000000003,0.002012,0.0045579999999999996,-0.004631000000000001,-32.75,-20.75,-12.06,2d
2019-07-15_140806:240,-0.44232200000000005,-0.033539,-0.23791500000000002,0.002134,0.005686999999999999,-0.003655,-33.18,-21.059998999999998,-10.06,2d
2019-07-15_140806:260,-0.440796,-0.033539,-0.238434,0.000883,0.00703,-0.003319,-33.18,-21.059998999999998,-10.06,2d
2019-07-15_140806:280,-0.43621800000000005,-0.039642000000000004,-0.23791500000000002,-0.000643,0.007762000000000001,-0.002434,-32.75,-21.059998999999998,-12.06,2d
2019-07-15_140806:300,-0.431641,-0.043701,-0.23284899999999997,-0.001864,0.008098000000000001,-0.0019149999999999998,-32.75,-21.059998999999998,-12.06,2d
2019-07-15_140806:320,-0.426544,-0.049316000000000006,-0.230804,-0.002382,0.008159,-0.001458,-32.75,-21.059998999999998,-12.06,2d
2019-07-15_140806:340,-0.42248500000000005,-0.048798,-0.230804,-0.0022600000000000003,0.008006000000000001,-0.0013050000000000002,-34.0,-21.059998999999998,-11.25,2d
2019-07-15_140806:360,-0.42248500000000005,-0.047272,-0.235382,-0.0021079999999999996,0.006633,-0.001702,-34.0,-21.059998999999998,-11.25,2d
2019-07-15_140806:380,-0.423004,-0.044219999999999995,-0.23690799999999998,-0.001986,0.004954999999999999,-0.002037,-34.0,-21.5,-10.87,2d
2019-07-15_140806:400,-0.431122,-0.045745999999999995,-0.233856,-0.002321,0.0036420000000000003,-0.0019760000000000003,-34.0,-21.5,-10.87,2d
2019-07-15_140806:420,-0.43823199999999995,-0.046265,-0.234375,-0.0025050000000000003,0.0035810000000000004,-0.00216,-34.0,-21.5,-10.87,2d
2019-07-15_140806:440,-0.441284,-0.048279,-0.233337,-0.0022600000000000003,0.004649,-0.002434,-32.75,-21.870001000000002,-10.87,2d
2019-07-15_140806:460,-0.434692,-0.046752999999999996,-0.23690799999999998,-0.0009789999999999998,0.005504,-0.003045,-32.75,-21.870001000000002,-10.87,2d
2019-07-15_140806:480,-0.432159,-0.038635,-0.235382,-2e-06,0.005229,-0.004113,-34.0,-21.059998999999998,-11.25,2d
2019-07-15_140806:500,-0.431122,-0.037108999999999996,-0.233856,0.000395,0.004436,-0.002892,-34.0,-21.059998999999998,-11.25,2d
2019-07-15_140806:520,-0.434692,-0.035583,-0.231323,0.000273,0.003917,-0.00011499999999999999,-34.0,-21.059998999999998,-11.25,2d
2019-07-15_140806:540,-0.44232200000000005,-0.036072,-0.23028600000000002,-0.000246,0.003307,0.001442,-33.560001,-21.870001000000002,-10.5,2d
2019-07-15_140806:560,-0.43670699999999996,-0.039642000000000004,-0.22927899999999998,-0.001253,0.003825,0.001228,-33.560001,-21.870001000000002,-10.5,2d
2019-07-15_140806:580,-0.434174,-0.043213,-0.22979699999999997,-0.001986,0.004222,0.001991,-32.75,-21.5,-10.87,2d
2019-07-15_140806:600,-0.431641,-0.047791,-0.230804,-0.002169,0.003825,0.0026320000000000002,-32.75,-21.5,-10.87,2d
2019-07-15_140806:620,-0.43774399999999997,-0.050842,-0.231812,-0.002169,0.0031850000000000003,0.00251,-32.75,-21.5,-10.87,2d
2019-07-15_140806:640,-0.443329,-0.052338,-0.231812,-0.001986,0.002757,0.001716,-33.560001,-20.75,-10.5,2d
2019-07-15_140806:660,-0.44281000000000004,-0.051330999999999995,-0.231323,-0.001192,0.003093,0.001228,-33.560001,-20.75,-10.5,2d
2019-07-15_140806:680,-0.44027700000000003,-0.048279,-0.228271,-0.000582,0.0041,0.000923,-33.560001,-20.75,-11.25,2d
2019-07-15_140806:700,-0.43927,-0.046752999999999996,-0.228271,-0.000185,0.0042829999999999995,-5.4000000000000005e-05,-33.560001,-20.75,-11.25,2d
2019-07-15_140806:720,-0.43774399999999997,-0.046265,-0.226746,-6.3e-05,0.004161,7.000000000000001e-06,-33.560001,-20.75,-11.25,2d
2019-07-15_140806:740,-0.43774399999999997,-0.046265,-0.227264,-0.000277,0.00349,-0.000176,-33.18,-21.059998999999998,-11.25,2d
2019-07-15_140806:760,-0.441284,-0.045745999999999995,-0.22521999999999998,-0.000643,0.002757,-0.000328,-33.18,-21.059998999999998,-11.25,2d
2019-07-15_140806:780,-0.443329,-0.047272,-0.22164899999999998,-0.000734,0.002788,-5.4000000000000005e-05,-33.560001,-21.5,-10.5,2d
2019-07-15_140806:800,-0.444855,-0.045745999999999995,-0.220642,-0.001314,0.002757,6.8e-05,-33.560001,-21.5,-10.5,2d
2019-07-15_140806:820,-0.437225,-0.046265,-0.220642,-0.001925,0.002788,-0.000328,-33.560001,-21.5,-10.5,2d
2019-07-15_140806:840,-0.43774399999999997,-0.046752999999999996,-0.223694,-0.0022600000000000003,0.002757,-0.000328,-34.0,-21.059998999999998,-10.87,2d
2019-07-15_140806:860,-0.439758,-0.044219999999999995,-0.227753,-0.002718,0.002361,0.000831,-34.0,-21.059998999999998,-10.87,2d
2019-07-15_140806:880,-0.44638100000000003,-0.049316000000000006,-0.228271,-0.0036950000000000004,0.001994,0.00132,-32.75,-21.5,-10.5,2d
2019-07-15_140806:900,-0.44638100000000003,-0.050323,-0.223694,-0.004,0.002361,0.000984,-32.75,-21.5,-10.5,2d
2019-07-15_140806:920,-0.44384799999999996,-0.05285599999999999,-0.220123,-0.003817,0.003124,0.001045,-32.75,-21.5,-10.5,2d
2019-07-15_140806:940,-0.434174,-0.053863999999999995,-0.219635,-0.0036950000000000004,0.003246,6.8e-05,-33.560001,-21.5,-11.25,2d
2019-07-15_140806:960,-0.43823199999999995,-0.051849,-0.224701,-0.003237,0.002757,-0.000786,-33.560001,-21.5,-11.25,2d
2019-07-15_140806:980,-0.44384799999999996,-0.052338,-0.225739,-0.002657,0.0017809999999999998,-0.0013050000000000002,-34.0,-21.059998999999998,-11.0,2d
2019-07-15_140807:000,-0.447388,-0.052338,-0.22521999999999998,-0.0018030000000000001,0.00114,-0.001519,-34.0,-21.059998999999998,-11.0,2d
2019-07-15_140807:020,-0.44027700000000003,-0.051330999999999995,-0.22421300000000002,-0.0006730000000000001,0.001628,-0.00158,-34.0,-21.059998999999998,-11.0,2d
2019-07-15_140807:040,-0.432648,-0.046265,-0.226227,0.00048600000000000005,0.0019030000000000002,-0.002098,-33.560001,-21.059998999999998,-10.5,2d
2019-07-15_140807:060,-0.433167,-0.043213,-0.227264,0.000883,0.0008039999999999999,-0.0019760000000000003,-33.560001,-21.059998999999998,-10.5,2d
2019-07-15_140807:080,-0.445374,-0.038116000000000004,-0.224701,0.00073,-0.000264,-0.001397,-33.18,-21.059998999999998,-10.06,2d
2019-07-15_140807:100,-0.45095799999999997,-0.039124,-0.223175,-0.000185,-0.00011100000000000001,-0.000176,-33.18,-21.059998999999998,-10.06,2d
2019-07-15_140807:120,-0.446899,-0.046265,-0.226746,-0.001131,0.001415,0.000465,-33.18,-21.059998999999998,-10.06,2d
2019-07-15_140807:140,-0.435699,-0.048279,-0.22979699999999997,-0.0015279999999999998,0.002513,0.00016,-34.0,-22.25,-11.68,2d
2019-07-15_140807:160,-0.427063,-0.051849,-0.231323,-0.001253,0.002391,0.00016,-34.0,-22.25,-11.68,2d
2019-07-15_140807:180,-0.429596,-0.051849,-0.233337,-0.000734,0.001598,-0.000389,-32.75,-21.5,-10.5,2d
2019-07-15_140807:200,-0.43518100000000004,-0.051849,-0.23233,-0.0006730000000000001,0.00056,-0.0008470000000000001,-32.75,-21.5,-10.5,2d
2019-07-15_140807:220,-0.441284,-0.050842,-0.233337,-0.000918,0.000865,-0.001366,-32.75,-21.5,-10.5,2d
2019-07-15_140807:240,-0.43927,-0.051330999999999995,-0.23486300000000002,-0.000857,0.002116,-0.00216,-33.560001,-21.870001000000002,-10.5,2d
2019-07-15_140807:260,-0.441284,-0.047791,-0.23233,-0.000857,0.003093,-0.001702,-33.560001,-21.870001000000002,-10.5,2d
2019-07-15_140807:280,-0.435699,-0.046265,-0.23233,-0.001009,0.004039,-0.000664,-33.560001,-21.059998999999998,-10.5,2d
2019-07-15_140807:300,-0.438751,-0.043213,-0.23028600000000002,-0.001192,0.0036420000000000003,6.8e-05,-33.560001,-21.059998999999998,-10.5,2d
2019-07-15_140807:320,-0.443329,-0.041168,-0.22927899999999998,-0.002199,0.003246,0.001625,-33.560001,-21.059998999999998,-10.5,2d
2019-07-15_140807:340,-0.444855,-0.048279,-0.224701,-0.0034509999999999996,0.003307,0.004371,-32.75,-21.059998999999998,-11.25,2d
2019-07-15_140807:360,-0.448425,-0.053863999999999995,-0.222687,-0.004549,0.003978,0.004432,-32.75,-21.059998999999998,-11.25,2d
2019-07-15_140807:380,-0.44384799999999996,-0.054901,-0.22116100000000002,-0.004732,0.004314,0.002784,-33.560001,-21.870001000000002,-10.87,2d
2019-07-15_140807:400,-0.451477,-0.054901,-0.220642,-0.004793,0.003825,0.0021739999999999997,-33.560001,-21.870001000000002,-10.87,2d
2019-07-15_140807:420,-0.45095799999999997,-0.057953,-0.22216799999999998,-0.004549,0.0042829999999999995,0.002967,-33.560001,-21.870001000000002,-10.87,2d
2019-07-15_140807:440,-0.455017,-0.058960000000000005,-0.216583,-0.00403,0.004375,0.002754,-32.75,-21.5,-10.87,2d
2019-07-15_140807:460,-0.452484,-0.060486,-0.216583,-0.003664,0.005686999999999999,0.001716,-32.75,-21.5,-10.87,2d
2019-07-15_140807:480,-0.449432,-0.060486,-0.21453899999999998,-0.0020469999999999998,0.007701,0.000496,-34.25,-21.5,-9.68,2d
2019-07-15_140807:500,-0.43823199999999995,-0.054901,-0.21402,-0.0014060000000000001,0.007701,-0.000176,-34.25,-21.5,-9.68,2d
2019-07-15_140807:520,-0.440796,-0.05285599999999999,-0.213531,-0.00107,0.006541,-0.000634,-34.25,-21.5,-9.68,2d
2019-07-15_140807:540,-0.44281000000000004,-0.049316000000000006,-0.210968,-0.000857,0.005351,0.001045,-33.18,-21.870001000000002,-10.87,2d
2019-07-15_140807:560,-0.437225,-0.048798,-0.208954,-0.0018030000000000001,0.0052899999999999996,0.000923,-33.18,-21.870001000000002,-10.87,2d
2019-07-15_140807:580,-0.43774399999999997,-0.047791,-0.21402,-0.0025050000000000003,0.004894,-0.000512,-34.25,-21.059998999999998,-10.5,2d
2019-07-15_140807:600,-0.43774399999999997,-0.047791,-0.213013,-0.0036340000000000005,0.004375,-0.001397,-34.25,-21.059998999999998,-10.5,2d
2019-07-15_140807:620,-0.44384799999999996,-0.046265,-0.21148699999999998,-0.004213000000000001,0.003978,-0.000389,-34.25,-21.059998999999998,-10.5,2d
2019-07-15_140807:640,-0.44638100000000003,-0.048798,-0.212006,-0.00461,0.003978,-0.000908,-33.560001,-21.059998999999998,-10.06,2d
2019-07-15_140807:660,-0.448425,-0.047791,-0.21148699999999998,-0.004427,0.004436,-0.002251,-33.560001,-21.059998999999998,-10.06,2d
2019-07-15_140807:680,-0.44891400000000004,-0.049316000000000006,-0.21249400000000002,-0.0036340000000000005,0.004619,-0.000573,-34.0,-21.870001000000002,-9.25,2d
2019-07-15_140807:700,-0.447906,-0.050842,-0.21249400000000002,-0.002993,0.004039,-0.00045099999999999996,-34.0,-21.870001000000002,-9.25,2d
2019-07-15_140807:720,-0.452484,-0.046265,-0.212006,-0.0025050000000000003,0.004222,-0.000267,-34.0,-21.870001000000002,-9.25,2d
2019-07-15_140807:740,-0.452484,-0.044739,-0.210968,-0.002443,0.003886,0.001503,-33.560001,-21.870001000000002,-10.06,2d
2019-07-15_140807:760,-0.45095799999999997,-0.045226999999999996,-0.21048000000000003,-0.003512,0.004039,0.001228,-33.560001,-21.870001000000002,-10.06,2d
2019-07-15_140807:780,-0.44995100000000005,-0.045226999999999996,-0.21048000000000003,-0.004152,0.004619,0.000221,-33.18,-20.75,-10.06,2d
2019-07-15_140807:800,-0.44995100000000005,-0.045226999999999996,-0.208954,-0.0048850000000000005,0.005107,-0.0012439999999999999,-33.18,-20.75,-10.06,2d
2019-07-15_140807:820,-0.44638100000000003,-0.043213,-0.206909,-0.005282,0.006023,-0.0013050000000000002,-33.18,-20.75,-10.06,2d
2019-07-15_140807:840,-0.44384799999999996,-0.044219999999999995,-0.207916,-0.005404,0.006023,6.8e-05,-33.18,-21.870001000000002,-10.06,2d
2019-07-15_140807:860,-0.43927,-0.046265,-0.20639000000000002,-0.0056170000000000005,0.005168,0.000526,-33.18,-21.870001000000002,-10.06,2d
2019-07-15_140807:880,-0.438751,-0.045745999999999995,-0.207916,-0.005953,0.004161,0.001503,-34.68,-20.75,-10.87,2d
2019-07-15_140807:900,-0.43927,-0.046752999999999996,-0.20742800000000003,-0.006411,0.003246,0.002052,-34.68,-20.75,-10.87,2d
2019-07-15_140807:920,-0.44384799999999996,-0.048279,-0.20843499999999998,-0.007265000000000001,0.002849,0.001564,-34.68,-20.75,-10.87,2d
2019-07-15_140807:940,-0.448425,-0.047791,-0.21048000000000003,-0.007662,0.002513,0.001045,-33.560001,-21.5,-10.06,2d
2019-07-15_140807:960,-0.45043900000000003,-0.049316000000000006,-0.208954,-0.008181,0.00172,0.001655,-33.560001,-21.5,-10.06,2d
2019-07-15_140807:980,-0.44891400000000004,-0.050842,-0.207916,-0.00873,0.001201,0.001777,-34.0,-21.5,-9.68,2d
2019-07-15_140808:000,-0.447906,-0.051330999999999995,-0.208954,-0.009004999999999999,0.0008960000000000001,0.001381,-34.0,-21.5,-9.68,2d
2019-07-15_140808:020,-0.447906,-0.053375,-0.209961,-0.008912999999999999,0.000346,0.001381,-34.0,-21.5,-9.68,2d
2019-07-15_140808:040,-0.447906,-0.053375,-0.209961,-0.008669,0.000346,0.00016,-34.0,-21.5,-10.5,2d
2019-07-15_140808:060,-0.44384799999999996,-0.051849,-0.20843499999999998,-0.008211,7.2e-05,-0.000389,-34.0,-21.5,-10.5,2d
2019-07-15_140808:080,-0.43823199999999995,-0.048798,-0.20843499999999998,-0.008059,-0.001454,-0.000176,-33.560001,-21.870001000000002,-10.06,2d
2019-07-15_140808:100,-0.43621800000000005,-0.049316000000000006,-0.204376,-0.007998,-0.003285,-0.0011220000000000002,-33.560001,-21.870001000000002,-10.06,2d
2019-07-15_140808:120,-0.437225,-0.045745999999999995,-0.20486500000000002,-0.007937,-0.004445,0.000648,-33.560001,-21.870001000000002,-10.06,2d
2019-07-15_140808:140,-0.43621800000000005,-0.046752999999999996,-0.206909,-0.007784,-0.005879,0.001991,-33.560001,-21.0,-9.25,2d
2019-07-15_140808:160,-0.432159,-0.047272,-0.209961,-0.007601,-0.007679999999999999,-0.000267,-33.560001,-21.0,-9.25,2d
2019-07-15_140808:180,-0.433167,-0.045226999999999996,-0.21911599999999998,-0.007051999999999999,-0.009328,-0.001183,-34.0,-21.059998999999998,-10.06,2d
2019-07-15_140808:200,-0.443329,-0.044739,-0.22421300000000002,-0.006533,-0.009541,0.000587,-34.0,-21.059998999999998,-10.06,2d
2019-07-15_140808:220,-0.457581,-0.046752999999999996,-0.225739,-0.0058,-0.007893,0.000404,-34.0,-21.059998999999998,-10.06,2d
2019-07-15_140808:240,-0.463654,-0.045745999999999995,-0.22879000000000002,-0.005129,-0.004414,-0.00045099999999999996,-34.0,-21.5,-9.0,2d
2019-07-15_140808:260,-0.46417200000000003,-0.044219999999999995,-0.231812,-0.004732,-0.00044699999999999997,-0.0008470000000000001,-34.0,-21.5,-9.0,2d
2019-07-15_140808:280,-0.455017,-0.043213,-0.233337,-0.004824,0.001018,-0.001458,-33.560001,-21.5,-10.06,2d
2019-07-15_140808:300,-0.441284,-0.043213,-0.230804,-0.0056170000000000005,0.002391,-0.002098,-33.560001,-21.5,-10.06,2d
2019-07-15_140808:320,-0.438751,-0.046752999999999996,-0.234375,-0.005465,0.002513,-0.002709,-33.560001,-21.5,-10.06,2d
2019-07-15_140808:340,-0.445374,-0.048279,-0.233337,-0.0048850000000000005,0.0024519999999999998,-0.003106,-33.18,-21.5,-9.68,2d
2019-07-15_140808:360,-0.447388,-0.048279,-0.227753,-0.003573,0.00352,-0.002434,-33.18,-21.5,-9.68,2d
2019-07-15_140808:380,-0.444855,-0.046752999999999996,-0.223694,-0.002535,0.0036420000000000003,-0.002434,-33.560001,-21.059998999999998,-10.06,2d
2019-07-15_140808:400,-0.439758,-0.043701,-0.22521999999999998,-0.001864,0.0035810000000000004,-0.0023120000000000003,-33.560001,-21.059998999999998,-10.06,2d
2019-07-15_140808:420,-0.448425,-0.037108999999999996,-0.22216799999999998,-0.0017109999999999998,0.0036420000000000003,-0.001397,-33.560001,-21.059998999999998,-10.06,2d
2019-07-15_140808:440,-0.44995100000000005,-0.036072,-0.220123,-0.001986,0.003825,-0.001519,-34.0,-21.5,-9.68,2d
2019-07-15_140808:460,-0.44638100000000003,-0.031494,-0.216583,-0.004,0.0042829999999999995,-0.000512,-34.0,-21.5,-9.68,2d
2019-07-15_140808:480,-0.445374,-0.031494,-0.216583,-0.004793,0.004161,0.000343,-33.869999,-22.25,-9.25,2d
2019-07-15_140808:500,-0.444855,-0.036591000000000005,-0.213013,-0.006258,0.004161,0.000526,-33.869999,-22.25,-9.25,2d
2019-07-15_140808:520,-0.44433599999999995,-0.039124,-0.21453899999999998,-0.005922,0.004649,-0.000389,-33.869999,-22.25,-9.25,2d
2019-07-15_140808:540,-0.445862,-0.041168,-0.212006,-0.004671,0.004619,-0.00011499999999999999,-33.869999,-21.870001000000002,-10.06,2d
2019-07-15_140808:560,-0.441803,-0.042175,-0.208954,-0.0036340000000000005,0.003917,6.8e-05,-33.869999,-21.870001000000002,-10.06,2d
2019-07-15_140808:580,-0.43670699999999996,-0.039642000000000004,-0.208954,-0.0032979999999999997,0.00352,0.00028199999999999997,-33.5,-21.870001000000002,-9.68,2d
2019-07-15_140808:600,-0.43670699999999996,-0.041168,-0.209961,-0.001375,0.0010789999999999999,-0.000176,-33.5,-21.870001000000002,-9.68,2d
2019-07-15_140808:620,-0.445862,-0.038116000000000004,-0.208954,-0.000643,-0.000508,0.001045,-33.5,-21.870001000000002,-9.68,2d
2019-07-15_140808:640,-0.454529,-0.037598,-0.208954,-0.00045999999999999996,-0.0008439999999999999,0.002388,-33.5,-21.059998999999998,-10.5,2d
2019-07-15_140808:660,-0.465179,-0.036072,-0.209961,-0.0015279999999999998,0.0009570000000000001,0.0030280000000000003,-33.5,-21.059998999999998,-10.5,2d
2019-07-15_140808:680,-0.457581,-0.034546,-0.210968,-0.002321,0.00172,0.002693,-33.060001,-21.870001000000002,-10.5,2d
2019-07-15_140808:700,-0.44384799999999996,-0.038635,-0.198273,-0.0028399999999999996,0.002757,0.001625,-33.060001,-21.870001000000002,-10.5,2d
2019-07-15_140808:720,-0.440796,-0.039124,-0.198792,-0.002932,0.001994,0.000709,-33.060001,-21.870001000000002,-10.5,2d
2019-07-15_140808:740,-0.44281000000000004,-0.039642000000000004,-0.206909,-0.003176,0.001537,0.000404,-33.5,-21.5,-8.5,2d
2019-07-15_140808:760,-0.448425,-0.038116000000000004,-0.213531,-0.003573,0.000743,0.000709,-33.5,-21.5,-8.5,2d
2019-07-15_140808:780,-0.445374,-0.040649,-0.21554600000000002,-0.004213000000000001,0.000682,-0.000573,-33.060001,-21.5,-9.68,2d
2019-07-15_140808:800,-0.449432,-0.039642000000000004,-0.21453899999999998,-0.005678,0.0008960000000000001,7.000000000000001e-06,-33.060001,-21.5,-9.68,2d
2019-07-15_140808:820,-0.447388,-0.039124,-0.21148699999999998,-0.006258,0.0008960000000000001,0.001228,-33.060001,-21.5,-9.68,2d
2019-07-15_140808:840,-0.445862,-0.040161,-0.21048000000000003,-0.006807,0.000865,0.000709,-33.060001,-21.870001000000002,-9.0,2d
2019-07-15_140808:860,-0.44384799999999996,-0.042175,-0.212006,-0.0069299999999999995,0.000468,-0.000389,-33.060001,-21.870001000000002,-9.0,2d
2019-07-15_140808:880,-0.445862,-0.042694,-0.212006,-0.006807,0.000499,-5.4000000000000005e-05,-33.869999,-21.870001000000002,-9.25,2d
2019-07-15_140808:900,-0.45043900000000003,-0.040649,-0.21402,-0.005953,0.0008960000000000001,0.00132,-33.869999,-21.870001000000002,-9.25,2d
2019-07-15_140808:920,-0.44891400000000004,-0.039642000000000004,-0.213531,-0.005404,0.0008960000000000001,0.001838,-33.869999,-21.870001000000002,-9.25,2d
2019-07-15_140808:940,-0.44433599999999995,-0.039124,-0.219635,-0.005343,0.0008039999999999999,0.001442,-33.060001,-21.870001000000002,-9.68,2d
2019-07-15_140808:960,-0.443329,-0.037598,-0.21554600000000002,-0.005556,0.00022400000000000002,0.000831,-33.060001,-21.870001000000002,-9.68,2d
2019-07-15_140808:980,-0.44995100000000005,-0.039642000000000004,-0.21810900000000003,-0.005404,0.000468,0.000831,-33.5,-21.059998999999998,-9.0,2d
2019-07-15_140809:000,-0.44891400000000004,-0.040649,-0.21759,-0.004397,0.001628,0.000526,-33.5,-21.059998999999998,-9.0,2d
2019-07-15_140809:020,-0.445862,-0.037598,-0.21759,-0.0036340000000000005,0.0024519999999999998,0.001258,-33.5,-21.059998999999998,-9.0,2d
2019-07-15_140809:040,-0.441803,-0.036591000000000005,-0.21859699999999999,-0.002993,0.0023,0.000984,-33.5,-21.059998999999998,-9.25,2d
2019-07-15_140809:060,-0.43670699999999996,-0.030487,-0.21911599999999998,-0.002993,0.001201,-0.00023700000000000001,-33.5,-21.059998999999998,-9.25,2d
2019-07-15_140809:080,-0.444855,-0.030487,-0.220642,-0.0032979999999999997,0.000499,-0.000573,-33.5,-20.75,-9.68,2d
2019-07-15_140809:100,-0.434692,-0.032532,-0.204376,-0.003664,-0.0009660000000000001,-5.4000000000000005e-05,-33.5,-20.75,-9.68,2d
2019-07-15_140809:120,-0.435699,-0.032013,-0.21148699999999998,-0.0036340000000000005,-0.00179,0.000129,-33.5,-20.75,-9.68,2d
2019-07-15_140809:140,-0.433167,-0.032532,-0.21759,-0.004152,-0.00298,0.000831,-32.68,-21.5,-9.68,2d
2019-07-15_140809:160,-0.433167,-0.033539,-0.216583,-0.004488000000000001,-0.0039570000000000004,0.001777,-32.68,-21.5,-9.68,2d
2019-07-15_140809:180,-0.43670699999999996,-0.034546,-0.231812,-0.00461,-0.005025,0.0022960000000000003,-32.68,-21.5,-9.68,2d
2019-07-15_140809:200,-0.44232200000000005,-0.035065,-0.22927899999999998,-0.004793,-0.005147,0.001777,-32.68,-22.25,-10.06,2d
2019-07-15_140809:220,-0.45043900000000003,-0.039124,-0.233856,-0.0048850000000000005,-0.003773,0.001564,-32.68,-22.25,-10.06,2d
2019-07-15_140809:240,-0.44433599999999995,-0.040161,-0.23284899999999997,-0.00461,-0.00298,0.0022960000000000003,-32.68,-22.25,-9.68,2d
2019-07-15_140809:260,-0.44638100000000003,-0.045745999999999995,-0.23233,-0.00339,-0.001912,0.001838,-32.68,-22.25,-9.68,2d
2019-07-15_140809:280,-0.447906,-0.048279,-0.225739,-0.0029010000000000004,-0.001363,0.001258,-32.68,-22.25,-9.68,2d
2019-07-15_140809:300,-0.444855,-0.046265,-0.225739,-0.000643,-0.00063,0.003181,-33.060001,-21.5,-10.06,2d
2019-07-15_140809:320,-0.441803,-0.047272,-0.225739,-0.000185,-0.0005690000000000001,0.003151,-33.060001,-21.5,-10.06,2d
2019-07-15_140809:340,-0.43670699999999996,-0.040161,-0.227753,-0.00045999999999999996,-0.001118,0.002357,-32.369999,-21.059998999999998,-9.68,2d
2019-07-15_140809:360,-0.42858900000000005,-0.038116000000000004,-0.22979699999999997,-0.0014060000000000001,-0.001973,0.002235,-32.369999,-21.059998999999998,-9.68,2d
2019-07-15_140809:380,-0.431122,-0.040161,-0.23233,-0.0028399999999999996,-0.003041,0.000709,-32.369999,-21.059998999999998,-9.68,2d
2019-07-15_140809:400,-0.44027700000000003,-0.042175,-0.22979699999999997,-0.003939,-0.003621,-0.00023700000000000001,-33.5,-21.059998999999998,-10.06,2d
2019-07-15_140809:420,-0.43621800000000005,-0.044739,-0.23028600000000002,-0.0037560000000000002,-0.00237,0.000984,-33.5,-21.059998999999998,-10.06,2d
2019-07-15_140809:440,-0.42453,-0.045745999999999995,-0.231812,-0.00339,-0.002156,0.001228,-33.5,-21.5,-10.5,2d
2019-07-15_140809:460,-0.42248500000000005,-0.045745999999999995,-0.23233,-0.002443,-0.00417,0.001228,-33.5,-21.5,-10.5,2d
2019-07-15_140809:480,-0.426544,-0.043701,-0.239441,-0.0022600000000000003,-0.005574,0.0008619999999999999,-33.5,-21.5,-10.5,2d
2019-07-15_140809:500,-0.42758199999999996,-0.041168,-0.240479,-0.002535,-0.007741,0.001503,-33.869999,-21.870001000000002,-10.87,2d
2019-07-15_140809:520,-0.42807,-0.044739,-0.241486,-0.0032979999999999997,-0.009358,0.00196,-33.869999,-21.870001000000002,-10.87,2d
2019-07-15_140809:540,-0.431122,-0.045745999999999995,-0.243011,-0.004213000000000001,-0.011281,0.001991,-32.68,-21.5,-11.25,2d
2019-07-15_140809:560,-0.43927,-0.047791,-0.241486,-0.004824,-0.011739,0.001838,-32.68,-21.5,-11.25,2d
2019-07-15_140809:580,-0.43774399999999997,-0.048798,-0.24353000000000002,-0.0048850000000000005,-0.010854,0.001716,-32.68,-21.5,-11.25,2d
2019-07-15_140809:600,-0.433655,-0.048279,-0.24453699999999998,-0.004793,-0.009602,0.001442,-32.75,-21.059998999999998,-10.06,2d
2019-07-15_140809:620,-0.441284,-0.047791,-0.245056,-0.00461,-0.008534,0.001045,-32.75,-21.059998999999998,-10.06,2d
2019-07-15_140809:640,-0.44891400000000004,-0.044219999999999995,-0.250641,-0.004549,-0.005971,0.000709,-32.68,-21.059998999999998,-10.87,2d
2019-07-15_140809:660,-0.443329,-0.043213,-0.25116,-0.004732,-0.0027660000000000002,0.000923,-32.68,-21.059998999999998,-10.87,2d
2019-07-15_140809:680,-0.43518100000000004,-0.043213,-0.25012199999999996,-0.005129,-0.0005690000000000001,0.001381,-32.68,-21.059998999999998,-10.87,2d
2019-07-15_140809:700,-0.423492,-0.043213,-0.249115,-0.005526,0.000346,0.001838,-32.0,-21.5,-11.68,2d
2019-07-15_140809:720,-0.423004,-0.045226999999999996,-0.248596,-0.005526,-0.000386,0.003303,-32.0,-21.5,-11.68,2d
2019-07-15_140809:740,-0.427063,-0.048279,-0.249115,-0.0058,-0.001118,0.0033640000000000002,-32.68,-21.5,-11.25,2d
2019-07-15_140809:760,-0.43774399999999997,-0.047791,-0.24758899999999998,-0.005556,-0.001393,0.00251,-32.68,-21.5,-11.25,2d
2019-07-15_140809:780,-0.437225,-0.048798,-0.25216700000000003,-0.004824,-0.00011100000000000001,0.002357,-32.68,-21.5,-11.25,2d
2019-07-15_140809:800,-0.431641,-0.047791,-0.25216700000000003,-0.004397,0.001201,0.001258,-32.0,-21.059998999999998,-10.5,2d
2019-07-15_140809:820,-0.42605600000000005,-0.046752999999999996,-0.249115,-0.004152,0.001994,0.0007700000000000001,-32.0,-21.059998999999998,-10.5,2d
2019-07-15_140809:840,-0.425537,-0.043213,-0.24963400000000002,-0.0036340000000000005,0.001964,0.001564,-33.060001,-21.5,-11.68,2d
2019-07-15_140809:860,-0.427063,-0.042694,-0.24758899999999998,-0.003573,0.0019030000000000002,0.0018989999999999999,-33.060001,-21.5,-11.68,2d
2019-07-15_140809:880,-0.43011499999999997,-0.043213,-0.250641,-0.0036950000000000004,0.0019030000000000002,0.002784,-33.060001,-21.5,-11.68,2d
2019-07-15_140809:900,-0.431122,-0.042694,-0.25012199999999996,-0.004,0.0023,0.003486,-32.68,-21.059998999999998,-12.06,2d
2019-07-15_140809:920,-0.430634,-0.043701,-0.248596,-0.004152,0.002788,0.003181,-32.68,-21.059998999999998,-12.06,2d
2019-07-15_140809:940,-0.42807,-0.043213,-0.248108,-0.004427,0.003124,0.002784,-31.18,-21.059998999999998,-11.25,2d
2019-07-15_140809:960,-0.425018,-0.045226999999999996,-0.24353000000000002,-0.004549,0.002696,0.002845,-31.18,-21.059998999999998,-11.25,2d
2019-07-15_140809:980,-0.42453,-0.046265,-0.245544,-0.0048850000000000005,0.0023,0.003303,-31.18,-21.059998999999998,-11.25,2d
2019-07-15_140810:000,-0.423492,-0.047272,-0.246063,-0.005404,0.001292,0.004036,-33.060001,-20.75,-12.06,2d
2019-07-15_140810:020,-0.42605600000000005,-0.051849,-0.246063,-0.005343,0.000407,0.004371,-33.060001,-20.75,-12.06,2d
2019-07-15_140810:040,-0.42858900000000005,-0.053375,-0.246063,-0.004946,-5e-05,0.002967,-31.559998999999998,-21.5,-11.25,2d
2019-07-15_140810:060,-0.42758199999999996,-0.051330999999999995,-0.245056,-0.004549,-0.000233,0.001991,-31.559998999999998,-21.5,-11.25,2d
2019-07-15_140810:080,-0.429596,-0.051849,-0.245056,-0.003939,-0.00011100000000000001,0.001716,-31.559998999999998,-21.5,-11.25,2d
2019-07-15_140810:100,-0.42858900000000005,-0.050323,-0.245056,-0.003664,0.000133,0.001442,-32.0,-21.059998999999998,-11.68,2d
2019-07-15_140810:120,-0.425018,-0.048798,-0.245056,-0.003817,-5e-05,0.001442,-32.0,-21.059998999999998,-11.68,2d
2019-07-15_140810:140,-0.423004,-0.047791,-0.24658200000000002,-0.004091,-0.0007830000000000001,0.0018989999999999999,-32.68,-21.059998999999998,-12.06,2d
2019-07-15_140810:160,-0.423004,-0.048279,-0.24658200000000002,-0.004732,-0.001759,0.002235,-32.68,-21.059998999999998,-12.06,2d
2019-07-15_140810:180,-0.425537,-0.049805,-0.249115,-0.005129,-0.002705,0.002357,-32.68,-21.059998999999998,-12.06,2d
2019-07-15_140810:200,-0.427063,-0.049805,-0.25116,-0.005282,-0.002644,0.001838,-32.369999,-20.75,-13.25,2d
2019-07-15_140810:220,-0.425537,-0.051330999999999995,-0.252686,-0.005221,-0.003041,0.001503,-32.369999,-20.75,-13.25,2d
2019-07-15_140810:240,-0.42605600000000005,-0.051330999999999995,-0.253693,-0.0051600000000000005,-0.0027660000000000002,0.001258,-32.68,-20.68,-12.87,2d
2019-07-15_140810:260,-0.425018,-0.050842,-0.2547,-0.005129,-0.00237,0.001228,-32.68,-20.68,-12.87,2d
2019-07-15_140810:280,-0.420441,-0.050323,-0.257751,-0.005129,-0.002095,0.001777,-32.68,-20.68,-12.87,2d
2019-07-15_140810:300,-0.42758199999999996,-0.052338,-0.256744,-0.005404,-0.002309,0.001838,-32.68,-20.25,-11.68,2d
2019-07-15_140810:320,-0.433655,-0.051849,-0.259796,-0.005465,-0.0007830000000000001,0.001381,-32.68,-20.25,-11.68,2d
2019-07-15_140810:340,-0.433167,-0.051849,-0.260803,-0.005282,0.0009570000000000001,0.001228,-33.060001,-20.370001000000002,-12.87,2d
2019-07-15_140810:360,-0.41995200000000005,-0.051849,-0.258759,-0.005282,0.002574,0.000526,-33.060001,-20.370001000000002,-12.87,2d
2019-07-15_140810:380,-0.41485600000000006,-0.051330999999999995,-0.256226,-0.0051600000000000005,0.002361,0.000221,-33.060001,-20.370001000000002,-12.87,2d
2019-07-15_140810:400,-0.41333000000000003,-0.050842,-0.256226,-0.005282,0.0010789999999999999,0.00016,-32.369999,-20.75,-12.06,2d
2019-07-15_140810:420,-0.415375,-0.049805,-0.25521900000000003,-0.005282,-0.00044699999999999997,6.8e-05,-32.369999,-20.75,-12.06,2d
2019-07-15_140810:440,-0.41995200000000005,-0.049805,-0.25827,-0.005129,-0.001454,0.0007700000000000001,-32.369999,-20.75,-12.5,2d
2019-07-15_140810:460,-0.423004,-0.048798,-0.25827,-0.004824,-0.002034,0.001167,-32.369999,-20.75,-12.5,2d
2019-07-15_140810:480,-0.42453,-0.048279,-0.259796,-0.005007,-0.001759,0.000984,-32.369999,-20.75,-12.5,2d
2019-07-15_140810:500,-0.432648,-0.049805,-0.259277,-0.005129,-0.001454,0.000587,-33.060001,-20.75,-11.68,2d
2019-07-15_140810:520,-0.431641,-0.048798,-0.258759,-0.0051600000000000005,0.00056,0.000526,-33.060001,-20.75,-11.68,2d
2019-07-15_140810:540,-0.429596,-0.051849,-0.260803,-0.004793,0.0029100000000000003,-0.00011499999999999999,-33.5,-21.5,-11.68,2d
2019-07-15_140810:560,-0.42147799999999996,-0.052338,-0.253693,-0.004824,0.0036420000000000003,-0.00011499999999999999,-33.5,-21.5,-11.68,2d
2019-07-15_140810:580,-0.41232299999999994,-0.049805,-0.25521900000000003,-0.003939,0.003093,0.00132,-32.369999,-20.75,-12.5,2d
2019-07-15_140810:600,-0.41333000000000003,-0.049316000000000006,-0.253693,-0.004091,0.00114,-0.000786,-32.369999,-20.75,-12.5,2d
2019-07-15_140810:620,-0.42453,-0.048279,-0.255707,-0.004213000000000001,0.00022400000000000002,-0.002434,-32.369999,-20.75,-12.5,2d
2019-07-15_140810:640,-0.420959,-0.045745999999999995,-0.255707,-0.004091,0.000133,-0.00011499999999999999,-33.060001,-20.370001000000002,-12.5,2d
2019-07-15_140810:660,-0.418915,-0.049316000000000006,-0.25521900000000003,-0.003817,7.2e-05,0.00016,-33.060001,-20.370001000000002,-12.5,2d
2019-07-15_140810:680,-0.417908,-0.047791,-0.257233,-0.003878,-0.000325,-0.000908,-33.060001,-20.370001000000002,-12.5,2d
2019-07-15_140810:700,-0.41995200000000005,-0.046752999999999996,-0.256226,-0.003573,-0.0007830000000000001,-0.00023700000000000001,-32.68,-20.75,-11.68,2d
2019-07-15_140810:720,-0.423004,-0.045226999999999996,-0.260803,-0.003817,-0.000722,0.00016,-32.68,-20.75,-11.68,2d
2019-07-15_140810:740,-0.425537,-0.044219999999999995,-0.262329,-0.0037560000000000002,-0.000325,0.000129,-32.68,-20.370001000000002,-11.68,2d
2019-07-15_140810:760,-0.425537,-0.043701,-0.260284,-0.004,0.00022400000000000002,0.000587,-32.68,-20.370001000000002,-11.68,2d
2019-07-15_140810:780,-0.42248500000000005,-0.044739,-0.259277,-0.004427,0.000865,0.000526,-32.68,-20.370001000000002,-11.68,2d
2019-07-15_140810:800,-0.416901,-0.045226999999999996,-0.259796,-0.004732,0.0008039999999999999,0.001045,-33.060001,-21.059998999999998,-12.5,2d
2019-07-15_140810:820,-0.41842700000000005,-0.048279,-0.26181,-0.0048850000000000005,-5e-05,0.001503,-33.060001,-21.059998999999998,-12.5,2d
2019-07-15_140810:840,-0.42147799999999996,-0.048279,-0.261322,-0.004549,-0.000508,0.001625,-33.060001,-20.370001000000002,-13.25,2d
2019-07-15_140810:860,-0.423004,-0.047791,-0.258759,-0.004397,-0.00063,0.002113,-33.060001,-20.370001000000002,-13.25,2d
2019-07-15_140810:880,-0.41842700000000005,-0.048279,-0.259796,-0.004275,-0.00011100000000000001,0.001045,-33.060001,-20.370001000000002,-13.25,2d
2019-07-15_140810:900,-0.42453,-0.044739,-0.26181,-0.004397,-0.00011100000000000001,0.001106,-33.060001,-21.059998999999998,-13.25,2d
2019-07-15_140810:920,-0.425537,-0.045745999999999995,-0.264374,-0.004732,0.000407,0.002388,-33.060001,-21.059998999999998,-13.25,2d
2019-07-15_140810:940,-0.425537,-0.045745999999999995,-0.266388,-0.005068,0.00114,0.002052,-32.0,-20.75,-12.87,2d
2019-07-15_140810:960,-0.42453,-0.044739,-0.263336,-0.0058,0.002055,0.0018989999999999999,-32.0,-20.75,-12.87,2d
2019-07-15_140810:980,-0.420959,-0.046752999999999996,-0.263336,-0.00635,0.0024519999999999998,0.002235,-32.0,-20.75,-12.87,2d
2019-07-15_140811:000,-0.41995200000000005,-0.047272,-0.261322,-0.0066549999999999995,0.002513,0.00196,-32.68,-20.75,-11.68,2d
2019-07-15_140811:020,-0.423004,-0.048798,-0.260803,-0.006594,0.002391,0.001777,-32.68,-20.75,-11.68,2d
2019-07-15_140811:040,-0.42248500000000005,-0.048279,-0.261322,-0.006258,0.002696,0.001777,-32.68,-21.059998999999998,-12.06,2d
2019-07-15_140811:060,-0.420441,-0.047791,-0.26181,-0.005861,0.0029100000000000003,0.001228,-32.68,-21.059998999999998,-12.06,2d
2019-07-15_140811:080,-0.417908,-0.046752999999999996,-0.26181,-0.005678,0.002696,0.0007700000000000001,-32.68,-21.059998999999998,-12.06,2d
2019-07-15_140811:100,-0.420441,-0.044219999999999995,-0.261322,-0.005404,0.002574,6.8e-05,-32.68,-20.75,-12.06,2d
2019-07-15_140811:120,-0.423492,-0.042694,-0.26181,-0.005465,0.0024519999999999998,-0.000328,-32.68,-20.75,-12.06,2d
2019-07-15_140811:140,-0.425018,-0.040161,-0.259277,-0.006014,0.003246,0.000709,-32.68,-20.370001000000002,-12.06,2d
2019-07-15_140811:160,-0.423004,-0.040649,-0.25827,-0.006684999999999999,0.004436,0.0018989999999999999,-32.68,-20.370001000000002,-12.06,2d
2019-07-15_140811:180,-0.41995200000000005,-0.039642000000000004,-0.259277,-0.007815,0.0045579999999999996,0.0029059999999999997,-32.68,-20.370001000000002,-12.06,2d
2019-07-15_140811:200,-0.42248500000000005,-0.043701,-0.256744,-0.008669,0.004436,0.003639,-32.369999,-21.059998999999998,-10.87,2d
2019-07-15_140811:220,-0.425537,-0.045745999999999995,-0.261322,-0.009127,0.004436,0.003639,-32.369999,-21.059998999999998,-10.87,2d
2019-07-15_140811:240,-0.425537,-0.049316000000000006,-0.261322,-0.008974,0.004375,0.004158,-33.5,-20.75,-12.5,2d
2019-07-15_140811:260,-0.429108,-0.053863999999999995,-0.259277,-0.008578,0.004771,0.004219,-33.5,-20.75,-12.5,2d
2019-07-15_140811:280,-0.43011499999999997,-0.05285599999999999,-0.258759,-0.007723000000000001,0.005565,0.004036,-33.5,-20.75,-12.5,2d
2019-07-15_140811:300,-0.429596,-0.053375,-0.256226,-0.006807,0.006693999999999999,0.003975,-33.5,-20.75,-11.68,2d
2019-07-15_140811:320,-0.429108,-0.053375,-0.251648,-0.005861,0.007701,0.002967,-33.5,-20.75,-11.68,2d
2019-07-15_140811:340,-0.423492,-0.053375,-0.24963400000000002,-0.005129,0.007670999999999999,0.001625,-32.68,-21.059998999999998,-11.68,2d
2019-07-15_140811:360,-0.41943400000000003,-0.053863999999999995,-0.246063,-0.004275,0.0069689999999999995,0.0007700000000000001,-32.68,-21.059998999999998,-11.68,2d
2019-07-15_140811:380,-0.42147799999999996,-0.053863999999999995,-0.24658200000000002,-0.0036340000000000005,0.005443,0.000221,-32.68,-21.059998999999998,-11.68,2d
2019-07-15_140811:400,-0.42605600000000005,-0.056915,-0.245544,-0.002535,0.0045579999999999996,-0.0012439999999999999,-33.060001,-20.370001000000002,-10.5,2d
2019-07-15_140811:420,-0.425537,-0.051330999999999995,-0.243011,-0.0014060000000000001,0.004161,-0.001854,-33.060001,-20.370001000000002,-10.5,2d
2019-07-15_140811:440,-0.42605600000000005,-0.050323,-0.24658200000000002,-0.000643,0.0036420000000000003,-0.0009689999999999999,-32.68,-21.059998999999998,-10.06,2d
2019-07-15_140811:460,-0.425018,-0.047272,-0.24706999999999998,-0.000338,0.0031850000000000003,-0.00216,-32.68,-21.059998999999998,-10.06,2d
2019-07-15_140811:480,-0.426544,-0.043701,-0.250641,-0.000185,0.002757,-0.0023120000000000003,-32.68,-21.059998999999998,-10.06,2d
2019-07-15_140811:500,-0.42605600000000005,-0.042175,-0.251648,-0.000399,0.002971,-0.0017929999999999999,-32.68,-21.5,-10.06,2d
2019-07-15_140811:520,-0.425537,-0.041168,-0.24963400000000002,-0.000796,0.0034289999999999998,-0.001458,-32.68,-21.5,-10.06,2d
2019-07-15_140811:540,-0.421967,-0.040649,-0.249115,-0.001314,0.00349,-0.001,-32.68,-20.75,-11.25,2d
2019-07-15_140811:560,-0.420441,-0.041168,-0.24758899999999998,-0.0018030000000000001,0.0029100000000000003,-0.0008470000000000001,-32.68,-20.75,-11.25,2d
2019-07-15_140811:580,-0.42147799999999996,-0.042694,-0.24963400000000002,-0.002382,0.0024519999999999998,-0.000389,-32.68,-20.75,-11.25,2d
2019-07-15_140811:600,-0.42401099999999997,-0.043213,-0.250641,-0.002932,0.0017809999999999998,7.000000000000001e-06,-33.060001,-20.370001000000002,-11.25,2d
2019-07-15_140811:620,-0.42147799999999996,-0.042694,-0.25012199999999996,-0.0036950000000000004,0.001018,0.00016,-33.060001,-20.370001000000002,-11.25,2d
2019-07-15_140811:640,-0.42248500000000005,-0.043213,-0.251648,-0.004427,1.1e-05,0.000221,-32.68,-20.75,-10.87,2d
2019-07-15_140811:660,-0.42758199999999996,-0.045745999999999995,-0.24963400000000002,-0.0051600000000000005,-0.000722,0.000343,-32.68,-20.75,-10.87,2d
2019-07-15_140811:680,-0.43011499999999997,-0.049316000000000006,-0.251648,-0.005068,-0.000325,0.00028199999999999997,-32.68,-20.75,-10.87,2d
2019-07-15_140811:700,-0.42858900000000005,-0.050323,-0.25012199999999996,-0.004732,0.000346,0.000343,-33.060001,-21.059998999999998,-11.25,2d
2019-07-15_140811:720,-0.427063,-0.052338,-0.248596,-0.003817,0.000865,0.000831,-33.060001,-21.059998999999998,-11.25,2d
2019-07-15_140811:740,-0.425018,-0.052338,-0.248596,-0.003054,0.000865,-0.000267,-33.060001,-21.059998999999998,-11.25,2d
2019-07-15_140811:760,-0.423492,-0.049316000000000006,-0.249115,-0.0020469999999999998,0.0008960000000000001,-0.000786,-33.060001,-21.059998999999998,-11.25,2d
2019-07-15_140811:780,-0.423004,-0.045226999999999996,-0.25012199999999996,-0.001253,0.000468,-0.00011499999999999999,-33.060001,-21.059998999999998,-11.25,2d
2019-07-15_140811:800,-0.42147799999999996,-0.044739,-0.25012199999999996,-0.001253,-0.000172,-0.000328,-33.060001,-20.370001000000002,-11.68,2d
2019-07-15_140811:820,-0.42248500000000005,-0.043213,-0.249115,-0.0018030000000000001,-0.0008439999999999999,-0.000573,-33.060001,-20.370001000000002,-11.68,2d
2019-07-15_140811:840,-0.423492,-0.043213,-0.251648,-0.002199,-0.001027,-0.000725,-32.0,-21.059998999999998,-12.06,2d
2019-07-15_140811:860,-0.425018,-0.043213,-0.25216700000000003,-0.002657,-0.001057,-0.001519,-32.0,-21.059998999999998,-12.06,2d
2019-07-15_140811:880,-0.425018,-0.043213,-0.253693,-0.003176,-0.0009660000000000001,-0.0017629999999999998,-32.0,-21.059998999999998,-12.06,2d
2019-07-15_140811:900,-0.42248500000000005,-0.044739,-0.25116,-0.0032979999999999997,-0.001057,-0.0019149999999999998,-33.869999,-20.75,-11.68,2d
2019-07-15_140811:920,-0.421967,-0.045745999999999995,-0.251648,-0.00339,-0.001118,-0.0029219999999999997,-33.869999,-20.75,-11.68,2d
2019-07-15_140811:940,-0.42147799999999996,-0.044219999999999995,-0.25521900000000003,-0.0031149999999999997,-0.00124,-0.004631000000000001,-33.5,-21.5,-11.68,2d
2019-07-15_140811:960,-0.41586300000000004,-0.045226999999999996,-0.25317399999999995,-0.003237,-0.001759,-0.00689,-33.5,-21.5,-11.68,2d
2019-07-15_140811:980,-0.412811,-0.044739,-0.257233,-0.0032979999999999997,-0.003041,-0.010003,-33.5,-21.5,-11.68,2d
2019-07-15_140812:000,-0.417389,-0.044739,-0.261322,-0.002535,-0.0046890000000000005,-0.012719,-33.060001,-21.059998999999998,-11.68,2d
2019-07-15_140812:020,-0.425018,-0.038635,-0.264862,-0.001772,-0.005299,-0.015374,-33.060001,-21.059998999999998,-11.68,2d
2019-07-15_140812:040,-0.431641,-0.030487,-0.270966,-0.000338,-0.004445,-0.016991,-32.369999,-20.75,-10.5,2d
2019-07-15_140812:060,-0.434174,-0.025908999999999998,-0.272491,0.00011999999999999999,-0.003041,-0.014397,-32.369999,-20.75,-10.5,2d
2019-07-15_140812:080,-0.429596,-0.021332,-0.272003,0.000944,-0.001393,-0.009087,-32.369999,-20.75,-10.5,2d
2019-07-15_140812:100,-0.42858900000000005,-0.019318000000000002,-0.268433,0.000669,-0.000386,-0.004631000000000001,-32.369999,-21.5,-13.25,2d
2019-07-15_140812:120,-0.42858900000000005,-0.020844,-0.265381,0.000273,0.0008039999999999999,-0.000389,-32.369999,-21.5,-13.25,2d
2019-07-15_140812:140,-0.42605600000000005,-0.022369,-0.260803,-0.000338,0.0017809999999999998,0.002449,-32.0,-22.25,-11.68,2d
2019-07-15_140812:160,-0.42401099999999997,-0.025421,-0.261322,-0.0018030000000000001,0.002391,0.004036,-32.0,-22.25,-11.68,2d
2019-07-15_140812:180,-0.42401099999999997,-0.029480000000000003,-0.261322,-0.003054,0.003032,0.005561,-32.0,-22.25,-11.68,2d
2019-07-15_140812:200,-0.423492,-0.038635,-0.260803,-0.004213000000000001,0.003032,0.005958,-31.18,-21.870001000000002,-12.06,2d
2019-07-15_140812:220,-0.427063,-0.043213,-0.260284,-0.004793,0.003307,0.005439,-31.18,-21.870001000000002,-12.06,2d
2019-07-15_140812:240,-0.43011499999999997,-0.048798,-0.262329,-0.00403,0.0042829999999999995,0.0053479999999999995,-32.0,-21.870001000000002,-12.06,2d
2019-07-15_140812:260,-0.42605600000000005,-0.047791,-0.259796,-0.0031149999999999997,0.004954999999999999,0.004615,-32.0,-21.870001000000002,-12.06,2d
2019-07-15_140812:280,-0.423492,-0.043213,-0.256744,-0.002535,0.005229,0.004371,-32.0,-21.870001000000002,-12.06,2d
2019-07-15_140812:300,-0.423492,-0.038635,-0.2547,-0.0025050000000000003,0.005412,0.0053479999999999995,-32.0,-21.059998999999998,-12.5,2d
2019-07-15_140812:320,-0.42147799999999996,-0.036072,-0.252686,-0.0032979999999999997,0.00471,0.00663,-32.0,-21.059998999999998,-12.5,2d
2019-07-15_140812:340,-0.420959,-0.037598,-0.252686,-0.004,0.004039,0.005806,-32.0,-21.059998999999998,-10.87,2d
2019-07-15_140812:360,-0.421967,-0.037598,-0.25216700000000003,-0.005007,0.003307,0.004615,-32.0,-21.059998999999998,-10.87,2d
2019-07-15_140812:380,-0.417908,-0.040161,-0.25317399999999995,-0.0058,0.002849,0.005439,-32.0,-21.059998999999998,-10.87,2d
2019-07-15_140812:400,-0.41842700000000005,-0.043701,-0.2547,-0.006533,0.001964,0.005836,-32.369999,-21.870001000000002,-11.25,2d
2019-07-15_140812:420,-0.418915,-0.045745999999999995,-0.253693,-0.006684999999999999,0.001353,0.005806,-32.369999,-21.870001000000002,-11.25,2d
2019-07-15_140812:440,-0.423492,-0.048279,-0.255707,-0.006533,0.0008960000000000001,0.005043,-32.68,-21.059998999999998,-12.5,2d
2019-07-15_140812:460,-0.423004,-0.049316000000000006,-0.256226,-0.005953,0.001292,0.004097,-32.68,-21.059998999999998,-12.5,2d
2019-07-15_140812:480,-0.41943400000000003,-0.051849,-0.258759,-0.0051600000000000005,0.0014759999999999999,0.003578,-32.68,-21.059998999999998,-12.5,2d
2019-07-15_140812:500,-0.41995200000000005,-0.049316000000000006,-0.260284,-0.004275,0.000865,0.003425,-33.060001,-21.5,-12.06,2d
2019-07-15_140812:520,-0.423004,-0.047272,-0.262848,-0.003573,-5e-05,0.0038829999999999997,-33.060001,-21.5,-12.06,2d
2019-07-15_140812:540,-0.42605600000000005,-0.046265,-0.265381,-0.00339,-0.000661,0.004493,-32.369999,-22.25,-11.68,2d
2019-07-15_140812:560,-0.429108,-0.045226999999999996,-0.260284,-0.0034509999999999996,-5e-05,0.00489,-32.369999,-22.25,-11.68,2d
2019-07-15_140812:580,-0.43011499999999997,-0.044739,-0.26181,-0.0034509999999999996,0.000682,0.0053479999999999995,-32.369999,-22.25,-11.68,2d
2019-07-15_140812:600,-0.42858900000000005,-0.047272,-0.25827,-0.0036950000000000004,0.00172,0.0060799999999999995,-32.369999,-21.059998999999998,-11.68,2d
2019-07-15_140812:620,-0.42248500000000005,-0.047791,-0.256744,-0.0036950000000000004,0.002513,0.006233,-32.369999,-21.059998999999998,-11.68,2d
2019-07-15_140812:640,-0.41586300000000004,-0.047272,-0.254211,-0.004213000000000001,0.002391,0.005806,-32.0,-20.0,-11.25,2d
2019-07-15_140812:660,-0.414337,-0.047791,-0.25216700000000003,-0.00461,0.001537,0.0055,-32.0,-20.0,-11.25,2d
2019-07-15_140812:680,-0.415375,-0.050842,-0.252686,-0.0048850000000000005,0.000346,0.005012,-32.0,-20.0,-11.25,2d
2019-07-15_140812:700,-0.423492,-0.053375,-0.251648,-0.005465,-0.000325,0.004219,-33.060001,-21.059998999999998,-10.87,2d
2019-07-15_140812:720,-0.42605600000000005,-0.055389,-0.251648,-0.005282,1.1e-05,0.003151,-33.060001,-21.059998999999998,-10.87,2d
2019-07-15_140812:740,-0.425018,-0.054901,-0.2547,-0.004732,0.001018,0.002357,-32.369999,-20.370001000000002,-11.68,2d
2019-07-15_140812:760,-0.425537,-0.05438200000000001,-0.251648,-0.004213000000000001,0.0019030000000000002,0.0018989999999999999,-32.369999,-20.370001000000002,-11.68,2d
2019-07-15_140812:780,-0.42453,-0.05285599999999999,-0.25521900000000003,-0.003817,0.002696,0.001045,-32.369999,-20.370001000000002,-11.68,2d
2019-07-15_140812:800,-0.417908,-0.051849,-0.2547,-0.003939,0.003368,0.000129,-33.5,-20.75,-11.68,2d
2019-07-15_140812:820,-0.414337,-0.051849,-0.25317399999999995,-0.003512,0.002513,-0.000664,-33.5,-20.75,-11.68,2d
2019-07-15_140812:840,-0.418915,-0.051849,-0.254211,-0.0028399999999999996,0.0019030000000000002,-0.000725,-33.060001,-20.370001000000002,-10.87,2d
2019-07-15_140812:860,-0.423004,-0.050842,-0.25317399999999995,-0.002443,0.0014759999999999999,-0.0009689999999999999,-33.060001,-20.370001000000002,-10.87,2d
2019-07-15_140812:880,-0.423004,-0.049316000000000006,-0.252686,-0.001986,0.001537,-0.000267,-33.060001,-20.370001000000002,-10.87,2d
2019-07-15_140812:900,-0.418915,-0.045745999999999995,-0.253693,-0.0022600000000000003,0.001292,0.00028199999999999997,-33.060001,-20.75,-11.25,2d
2019-07-15_140812:920,-0.417389,-0.045745999999999995,-0.251648,-0.002932,0.000346,0.000923,-33.060001,-20.75,-11.25,2d
2019-07-15_140812:940,-0.417908,-0.045745999999999995,-0.25216700000000003,-0.003878,-0.0009660000000000001,0.001503,-33.5,-21.059998999999998,-13.25,2d
2019-07-15_140812:960,-0.42147799999999996,-0.048798,-0.2547,-0.0048850000000000005,-0.001637,0.001564,-33.5,-21.059998999999998,-13.25,2d
2019-07-15_140812:980,-0.42248500000000005,-0.050323,-0.256744,-0.005129,-0.001973,0.001045,-33.5,-21.059998999999998,-13.25,2d
2019-07-15_140813:000,-0.423492,-0.052338,-0.263336,-0.0051600000000000005,-0.002034,0.000923,-33.060001,-20.75,-12.87,2d
2019-07-15_140813:020,-0.425537,-0.053375,-0.26181,-0.005007,-0.001576,0.000831,-33.060001,-20.75,-12.87,2d
2019-07-15_140813:040,-0.42401099999999997,-0.052338,-0.263855,-0.004793,-0.0009660000000000001,0.001045,-33.5,-20.75,-12.5,2d
2019-07-15_140813:060,-0.42147799999999996,-0.053375,-0.262848,-0.004732,-0.00044699999999999997,0.001228,-33.5,-20.75,-12.5,2d
2019-07-15_140813:080,-0.417389,-0.050323,-0.260803,-0.00461,-0.000264,0.000404,-33.5,-20.75,-12.5,2d
2019-07-15_140813:100,-0.416382,-0.050842,-0.261322,-0.004732,-0.000722,-0.000664,-32.0,-20.0,-12.06,2d
2019-07-15_140813:120,-0.418915,-0.051849,-0.25827,-0.004732,-0.001363,-0.001397,-32.0,-20.0,-12.06,2d
2019-07-15_140813:140,-0.41586300000000004,-0.050842,-0.25827,-0.004824,-0.00179,-0.0011220000000000002,-32.68,-20.370001000000002,-12.5,2d
2019-07-15_140813:160,-0.415375,-0.049805,-0.256226,-0.004824,-0.002187,-0.0012439999999999999,-32.68,-20.370001000000002,-12.5,2d
2019-07-15_140813:180,-0.417389,-0.047272,-0.267426,-0.004946,-0.002583,-0.000908,-32.68,-20.370001000000002,-12.5,2d
2019-07-15_140813:200,-0.40774499999999997,-0.047272,-0.256744,-0.0051600000000000005,-0.003438,7.000000000000001e-06,-32.68,-20.75,-12.5,2d
2019-07-15_140813:220,-0.416382,-0.049805,-0.262329,-0.005221,-0.00536,-0.00011499999999999999,-32.68,-20.75,-12.5,2d
2019-07-15_140813:240,-0.42248500000000005,-0.047272,-0.267914,-0.004824,-0.0054210000000000005,-0.000725,-32.369999,-21.059998999999998,-11.68,2d
2019-07-15_140813:260,-0.41842700000000005,-0.047791,-0.266388,-0.004671,-0.004231,6.8e-05,-32.369999,-21.059998999999998,-11.68,2d
2019-07-15_140813:280,-0.417389,-0.049316000000000006,-0.270966,-0.004213000000000001,-0.0033159999999999995,0.000923,-32.369999,-21.059998999999998,-11.68,2d
2019-07-15_140813:300,-0.417908,-0.047791,-0.276062,-0.004275,-0.0027660000000000002,0.000587,-32.0,-20.370001000000002,-12.06,2d
2019-07-15_140813:320,-0.41943400000000003,-0.052338,-0.277069,-0.003939,-0.002248,0.000404,-32.0,-20.370001000000002,-12.06,2d
2019-07-15_140813:340,-0.416382,-0.052338,-0.273529,-0.00339,-0.001302,-5.4000000000000005e-05,-33.0,-20.75,-12.06,2d
2019-07-15_140813:360,-0.412811,-0.050842,-0.272003,-0.003054,-0.0007830000000000001,-5.4000000000000005e-05,-33.0,-20.75,-12.06,2d
2019-07-15_140813:380,-0.410278,-0.049316000000000006,-0.272491,-0.0025960000000000002,-0.001027,7.000000000000001e-06,-33.0,-20.75,-12.06,2d
2019-07-15_140813:400,-0.41333000000000003,-0.049316000000000006,-0.274536,-0.0025050000000000003,-0.001698,-0.000634,-32.560001,-20.0,-12.06,2d
2019-07-15_140813:420,-0.416382,-0.048798,-0.274017,-0.002382,-0.001912,-0.001519,-32.560001,-20.0,-12.06,2d
2019-07-15_140813:440,-0.41586300000000004,-0.049316000000000006,-0.274536,-0.002443,-0.001637,-0.002037,-32.560001,-21.5,-12.87,2d
2019-07-15_140813:460,-0.41333000000000003,-0.048798,-0.27301,-0.0028399999999999996,-0.0007830000000000001,-0.002434,-32.560001,-21.5,-12.87,2d
2019-07-15_140813:480,-0.41333000000000003,-0.048798,-0.272491,-0.003054,-0.000264,-0.0029219999999999997,-32.560001,-21.5,-12.87,2d
2019-07-15_140813:500,-0.411804,-0.047272,-0.272003,-0.0034509999999999996,0.00016299999999999998,-0.003655,-33.75,-21.059998999999998,-12.87,2d
2019-07-15_140813:520,-0.40976,-0.046752999999999996,-0.27301,-0.003573,7.2e-05,-0.003655,-33.75,-21.059998999999998,-12.87,2d
2019-07-15_140813:540,-0.41232299999999994,-0.046752999999999996,-0.274017,-0.003664,-0.000233,-0.0028309999999999997,-31.5,-20.370001000000002,-13.68,2d
2019-07-15_140813:560,-0.41333000000000003,-0.045745999999999995,-0.272003,-0.003878,-0.000264,-0.002373,-31.5,-20.370001000000002,-13.68,2d
2019-07-15_140813:580,-0.416382,-0.045226999999999996,-0.276581,-0.003573,0.00016299999999999998,-0.001641,-31.5,-20.370001000000002,-13.68,2d
2019-07-15_140813:600,-0.41586300000000004,-0.043213,-0.277069,-0.0036340000000000005,0.001018,-0.0011220000000000002,-32.25,-21.059998999999998,-14.06,2d
2019-07-15_140813:620,-0.41586300000000004,-0.043213,-0.278107,-0.003573,0.0017809999999999998,-0.00045099999999999996,-32.25,-21.059998999999998,-14.06,2d
2019-07-15_140813:640,-0.415375,-0.044219999999999995,-0.28064,-0.003512,0.002361,6.8e-05,-32.369999,-21.5,-13.68,2d
2019-07-15_140813:660,-0.417389,-0.044739,-0.28064,-0.003939,0.003093,0.00028199999999999997,-32.369999,-21.5,-13.68,2d
2019-07-15_140813:680,-0.41586300000000004,-0.045226999999999996,-0.279114,-0.004213000000000001,0.003917,0.000221,-32.369999,-21.5,-13.68,2d
2019-07-15_140813:700,-0.414337,-0.046752999999999996,-0.278595,-0.004091,0.0042829999999999995,0.000129,-32.68,-21.5,-14.06,2d
2019-07-15_140813:720,-0.41586300000000004,-0.046752999999999996,-0.279114,-0.0036950000000000004,0.004436,-0.000328,-32.68,-21.5,-14.06,2d
2019-07-15_140813:740,-0.418915,-0.048279,-0.280121,-0.0031149999999999997,0.005168,-0.00011499999999999999,-31.559998999999998,-20.75,-12.5,2d
2019-07-15_140813:760,-0.417908,-0.045745999999999995,-0.276062,-0.0025050000000000003,0.005748,0.000221,-31.559998999999998,-20.75,-12.5,2d
2019-07-15_140813:780,-0.418915,-0.042694,-0.274536,-0.002382,0.006236,0.000709,-31.559998999999998,-20.75,-12.5,2d
2019-07-15_140813:800,-0.416382,-0.040649,-0.27301,-0.002718,0.006693999999999999,0.001045,-32.369999,-21.5,-11.68,2d
2019-07-15_140813:820,-0.415375,-0.041168,-0.270966,-0.003512,0.0069689999999999995,0.00132,-32.369999,-21.5,-11.68,2d
2019-07-15_140813:840,-0.41485600000000006,-0.042694,-0.26944,-0.004213000000000001,0.0069689999999999995,0.001503,-32.369999,-21.059998999999998,-13.25,2d
2019-07-15_140813:860,-0.41333000000000003,-0.044739,-0.266907,-0.004275,0.00703,0.00132,-32.369999,-21.059998999999998,-13.25,2d
2019-07-15_140813:880,-0.411804,-0.046752999999999996,-0.2659,-0.004427,0.006358,0.001503,-32.369999,-21.059998999999998,-13.25,2d
2019-07-15_140813:900,-0.412811,-0.047272,-0.264374,-0.003939,0.005961999999999999,0.001564,-32.0,-20.75,-11.68,2d
2019-07-15_140813:920,-0.41232299999999994,-0.046265,-0.263336,-0.0036950000000000004,0.0052899999999999996,0.001564,-32.0,-20.75,-11.68,2d
2019-07-15_140813:940,-0.411804,-0.046265,-0.261322,-0.0036340000000000005,0.0042829999999999995,0.001655,-32.369999,-21.059998999999998,-11.25,2d
2019-07-15_140813:960,-0.410797,-0.045745999999999995,-0.260803,-0.0036950000000000004,0.00349,0.001167,-32.369999,-21.059998999999998,-11.25,2d
2019-07-15_140813:980,-0.414337,-0.048798,-0.260284,-0.0037560000000000002,0.002696,0.00016,-32.369999,-21.059998999999998,-11.25,2d
2019-07-15_140814:000,-0.415375,-0.048798,-0.259796,-0.0034509999999999996,0.002177,-0.000176,-32.68,-21.059998999999998,-11.68,2d
2019-07-15_140814:020,-0.417908,-0.049805,-0.260803,-0.002779,0.0019030000000000002,-0.000725,-32.68,-21.059998999999998,-11.68,2d
2019-07-15_140814:040,-0.41586300000000004,-0.048279,-0.260284,-0.002169,0.002055,-0.000573,-32.0,-21.5,-11.25,2d
2019-07-15_140814:060,-0.416901,-0.046752999999999996,-0.262329,-0.0015279999999999998,0.001598,0.000587,-32.0,-21.5,-11.25,2d
2019-07-15_140814:080,-0.420441,-0.044739,-0.263855,-0.0014060000000000001,0.001353,-0.000328,-32.0,-21.5,-11.25,2d
2019-07-15_140814:100,-0.427063,-0.043213,-0.264374,-0.0021079999999999996,0.001842,-0.002434,-32.369999,-20.75,-11.68,2d
2019-07-15_140814:120,-0.42758199999999996,-0.040649,-0.264862,-0.002535,0.002971,-0.002648,-32.369999,-20.75,-11.68,2d
2019-07-15_140814:140,-0.42401099999999997,-0.042694,-0.266907,-0.0033280000000000002,0.0041,-0.00216,-32.0,-21.059998999999998,-12.06,2d
2019-07-15_140814:160,-0.420959,-0.044219999999999995,-0.2659,-0.0036340000000000005,0.004619,-0.002526,-32.0,-21.059998999999998,-12.06,2d
2019-07-15_140814:180,-0.41586300000000004,-0.042694,-0.2659,-0.0036340000000000005,0.004833,-0.002709,-32.0,-21.059998999999998,-12.06,2d
2019-07-15_140814:200,-0.41485600000000006,-0.042175,-0.263855,-0.0037560000000000002,0.004314,-0.003228,-32.0,-20.75,-12.5,2d
2019-07-15_140814:220,-0.41384899999999997,-0.041687,-0.26181,-0.003512,0.003825,-0.0034409999999999996,-32.0,-20.75,-12.5,2d
2019-07-15_140814:240,-0.41333000000000003,-0.041687,-0.263336,-0.0036950000000000004,0.0029100000000000003,-0.0034409999999999996,-31.559998999999998,-21.059998999999998,-11.68,2d
2019-07-15_140814:260,-0.41586300000000004,-0.040649,-0.26181,-0.003817,0.002361,-0.0038380000000000003,-31.559998999999998,-21.059998999999998,-11.68,2d
