timestamp,AccX,AccY,AccZ,GyroX,GyroY,GyroZ,MagX,MagY,MagZ,Activity
2019-07-15_124011:040,-0.488068,-0.036591000000000005,-0.141846,-0.002779,0.000499,0.001777,-34.68,20.5,-8.68,2b
2019-07-15_124011:060,-0.49111899999999997,-0.039124,-0.134705,-0.0029010000000000004,0.002574,0.0007700000000000001,-34.68,20.5,-8.68,2b
2019-07-15_124011:080,-0.469757,-0.036591000000000005,-0.136749,-0.003054,0.004497,0.001167,-34.68,20.5,-8.68,2b
2019-07-15_124011:100,-0.46926899999999994,-0.036072,-0.138794,-0.0032979999999999997,0.003703,0.003242,-34.0,19.370001000000002,-8.68,2b
2019-07-15_124011:120,-0.467224,-0.038635,-0.139282,-0.004,0.002513,0.002967,-34.0,19.370001000000002,-8.68,2b
2019-07-15_124011:140,-0.469757,-0.038116000000000004,-0.141327,-0.004213000000000001,0.0009570000000000001,0.00196,-34.0,20.5,-8.25,2b
2019-07-15_124011:160,-0.44281000000000004,-0.041168,-0.144897,-0.004397,-0.001363,0.001655,-34.0,20.5,-8.25,2b
2019-07-15_124011:180,-0.502808,-0.039124,-0.149475,-0.004275,-0.002034,6.8e-05,-34.0,20.5,-8.25,2b
2019-07-15_124011:200,-0.48754899999999995,-0.037598,-0.142334,-0.004091,-0.001179,0.000129,-34.68,19.75,-8.68,2b
2019-07-15_124011:220,-0.485016,-0.038116000000000004,-0.142334,-0.003664,1.1e-05,0.00016,-34.68,19.75,-8.68,2b
2019-07-15_124011:240,-0.48095699999999997,-0.037108999999999996,-0.144379,-0.0036950000000000004,0.0014759999999999999,-0.00011499999999999999,-34.369999,20.18,-8.25,2b
2019-07-15_124011:260,-0.473846,-0.037598,-0.140808,-0.0032979999999999997,0.002177,0.000221,-34.369999,20.18,-8.25,2b
2019-07-15_124011:280,-0.470276,-0.037598,-0.141846,-0.0029010000000000004,0.001964,0.000923,-34.369999,20.18,-8.25,2b
2019-07-15_124011:300,-0.46823100000000006,-0.039124,-0.141846,-0.002535,0.001018,0.001564,-34.0,20.18,-8.25,2b
2019-07-15_124011:320,-0.474854,-0.037108999999999996,-0.139801,-0.0020469999999999998,0.000133,0.001381,-34.0,20.18,-8.25,2b
2019-07-15_124011:340,-0.48043800000000003,-0.036072,-0.139282,-0.0018030000000000001,0.000285,0.00132,-34.0,20.5,-8.68,2b
2019-07-15_124011:360,-0.478912,-0.034546,-0.138275,-0.0018030000000000001,0.000743,0.000984,-34.0,20.5,-8.68,2b
2019-07-15_124011:380,-0.475861,-0.033539,-0.139801,-0.002321,0.0010789999999999999,0.000709,-34.0,20.5,-8.68,2b
2019-07-15_124011:400,-0.47079499999999996,-0.035583,-0.142334,-0.002718,0.00016299999999999998,0.000709,-34.369999,20.18,-7.87,2b
2019-07-15_124011:420,-0.46670500000000004,-0.036591000000000005,-0.139801,-0.0031149999999999997,-0.001027,0.0008619999999999999,-34.369999,20.18,-7.87,2b
2019-07-15_124011:440,-0.471283,-0.037598,-0.142334,-0.002993,-0.002156,0.000465,-34.0,20.870001000000002,-9.06,2b
2019-07-15_124011:460,-0.47280900000000003,-0.038116000000000004,-0.141327,-0.003176,-0.002187,0.000496,-34.0,20.870001000000002,-9.06,2b
2019-07-15_124011:480,-0.477386,-0.038635,-0.145386,-0.0034509999999999996,-0.002522,0.001838,-34.0,20.870001000000002,-9.06,2b
2019-07-15_124011:500,-0.47943100000000005,-0.042175,-0.145386,-0.003573,-0.002248,0.002052,-34.369999,20.870001000000002,-7.87,2b
2019-07-15_124011:520,-0.481476,-0.041687,-0.145905,-0.0036950000000000004,-0.001515,0.0018989999999999999,-34.369999,20.870001000000002,-7.87,2b
2019-07-15_124011:540,-0.477905,-0.041168,-0.14843800000000001,-0.003817,-0.00063,0.0026320000000000002,-34.0,20.18,-9.5,2b
2019-07-15_124011:560,-0.472321,-0.044219999999999995,-0.14843800000000001,-0.003664,-0.000264,0.0021739999999999997,-34.0,20.18,-9.5,2b
2019-07-15_124011:580,-0.471283,-0.041168,-0.149963,-0.003664,-0.000661,0.000984,-34.0,20.18,-9.5,2b
2019-07-15_124011:600,-0.471283,-0.039124,-0.151001,-0.0037560000000000002,-0.000661,6.8e-05,-34.0,19.75,-7.87,2b
2019-07-15_124011:620,-0.471283,-0.038635,-0.152008,-0.004091,-0.0009660000000000001,-0.000389,-34.0,19.75,-7.87,2b
2019-07-15_124011:640,-0.47280900000000003,-0.036591000000000005,-0.151489,-0.00403,-0.001027,-0.000573,-34.0,20.5,-8.25,2b
2019-07-15_124011:660,-0.477386,-0.035583,-0.153534,-0.004275,-0.000722,-0.000725,-34.0,20.5,-8.25,2b
2019-07-15_124011:680,-0.47842399999999996,-0.034546,-0.153534,-0.004549,0.000285,-0.000267,-34.0,20.5,-8.25,2b
2019-07-15_124011:700,-0.473846,-0.035065,-0.153534,-0.004732,0.0010789999999999999,0.000587,-34.68,20.5,-8.68,2b
2019-07-15_124011:720,-0.472321,-0.038116000000000004,-0.153015,-0.004824,0.001292,0.000709,-34.68,20.5,-8.68,2b
2019-07-15_124011:740,-0.474854,-0.037108999999999996,-0.152527,-0.004549,0.001201,0.000648,-33.68,20.5,-9.5,2b
2019-07-15_124011:760,-0.474854,-0.037108999999999996,-0.152008,-0.004427,0.001537,0.001045,-33.68,20.5,-9.5,2b
2019-07-15_124011:780,-0.473846,-0.037598,-0.151489,-0.004275,0.0016589999999999999,0.001564,-33.68,20.5,-9.5,2b
2019-07-15_124011:800,-0.469757,-0.037598,-0.153534,-0.004213000000000001,0.00172,0.0021739999999999997,-35.060001,20.18,-9.5,2b
2019-07-15_124011:820,-0.469757,-0.038116000000000004,-0.154541,-0.00403,0.001598,0.0018989999999999999,-35.060001,20.18,-9.5,2b
2019-07-15_124011:840,-0.47280900000000003,-0.038635,-0.153015,-0.003817,0.001292,0.001381,-34.68,20.870001000000002,-7.87,2b
2019-07-15_124011:860,-0.481476,-0.035583,-0.153015,-0.003664,0.001628,0.001106,-34.68,20.870001000000002,-7.87,2b
2019-07-15_124011:880,-0.48300200000000004,-0.032013,-0.152527,-0.003878,0.002696,0.001716,-34.68,20.870001000000002,-7.87,2b
2019-07-15_124011:900,-0.474854,-0.03302,-0.145386,-0.004488000000000001,0.004375,0.002571,-33.68,20.18,-7.87,2b
2019-07-15_124011:920,-0.474854,-0.033539,-0.146912,-0.005282,0.004894,0.003181,-33.68,20.18,-7.87,2b
2019-07-15_124011:940,-0.469757,-0.036072,-0.141327,-0.00635,0.005351,0.004554,-34.0,19.75,-9.87,2b
2019-07-15_124011:960,-0.47079499999999996,-0.036591000000000005,-0.144379,-0.007051999999999999,0.0041,0.005226,-34.0,19.75,-9.87,2b
2019-07-15_124011:980,-0.47079499999999996,-0.041168,-0.144897,-0.007876000000000001,0.003124,0.004951,-34.0,19.75,-9.87,2b
2019-07-15_124012:000,-0.471283,-0.044219999999999995,-0.14843800000000001,-0.007937,0.002361,0.0038829999999999997,-34.0,20.18,-8.25,2b
2019-07-15_124012:020,-0.469757,-0.047791,-0.148956,-0.007662,0.001598,0.003578,-34.0,20.18,-8.25,2b
2019-07-15_124012:040,-0.47180200000000005,-0.051330999999999995,-0.14743,-0.006807,0.00114,0.003151,-34.369999,20.5,-9.5,2b
2019-07-15_124012:060,-0.47689799999999993,-0.049316000000000006,-0.146912,-0.0056170000000000005,0.001292,0.00251,-34.369999,20.5,-9.5,2b
2019-07-15_124012:080,-0.475861,-0.050323,-0.146423,-0.004336,0.0019030000000000002,0.002571,-34.369999,20.5,-9.5,2b
2019-07-15_124012:100,-0.471283,-0.046265,-0.145386,-0.002993,0.002055,0.0026320000000000002,-34.0,20.870001000000002,-9.06,2b
2019-07-15_124012:120,-0.46875,-0.044739,-0.14743,-0.0022600000000000003,0.0019030000000000002,0.003151,-34.0,20.870001000000002,-9.06,2b
2019-07-15_124012:140,-0.47180200000000005,-0.041687,-0.144897,-0.002382,0.001018,0.0043100000000000005,-34.0,20.5,-9.06,2b
2019-07-15_124012:160,-0.473846,-0.040649,-0.14386,-0.002779,0.001018,0.00489,-34.0,20.5,-9.06,2b
2019-07-15_124012:180,-0.47433500000000006,-0.038116000000000004,-0.144379,-0.003817,0.001018,0.00489,-34.0,20.5,-9.06,2b
2019-07-15_124012:200,-0.47689799999999993,-0.041687,-0.144897,-0.005129,0.0012619999999999999,0.004493,-33.68,21.25,-9.06,2b
2019-07-15_124012:220,-0.473846,-0.046752999999999996,-0.147949,-0.00635,0.0012619999999999999,0.003578,-33.68,21.25,-9.06,2b
2019-07-15_124012:240,-0.475372,-0.050842,-0.150482,-0.0064719999999999995,0.0012619999999999999,0.003303,-34.0,22.0,-9.06,2b
2019-07-15_124012:260,-0.47689799999999993,-0.054901,-0.148956,-0.0058,0.001598,0.0022960000000000003,-34.0,22.0,-9.06,2b
2019-07-15_124012:280,-0.473846,-0.05438200000000001,-0.149475,-0.004549,0.0017809999999999998,0.001655,-34.0,22.0,-9.06,2b
2019-07-15_124012:300,-0.474854,-0.053375,-0.14743,-0.0031149999999999997,0.002513,0.001991,-34.369999,21.18,-7.87,2b
2019-07-15_124012:320,-0.47332799999999997,-0.053375,-0.14743,-0.002199,0.002971,0.001503,-34.369999,21.18,-7.87,2b
2019-07-15_124012:340,-0.47332799999999997,-0.049316000000000006,-0.147949,-0.0020469999999999998,0.003124,0.001442,-33.68,20.870001000000002,-9.5,2b
2019-07-15_124012:360,-0.46926899999999994,-0.051330999999999995,-0.146912,-0.001925,0.002788,0.002449,-33.68,20.870001000000002,-9.5,2b
2019-07-15_124012:380,-0.46875,-0.053863999999999995,-0.146423,-0.001772,0.002574,0.001716,-33.68,20.870001000000002,-9.5,2b
2019-07-15_124012:400,-0.469757,-0.053863999999999995,-0.146423,-0.0015279999999999998,0.002055,0.000496,-33.68,21.18,-7.5,2b
2019-07-15_124012:420,-0.471283,-0.05285599999999999,-0.144897,-0.001375,0.00172,0.000129,-33.68,21.18,-7.5,2b
2019-07-15_124012:440,-0.47332799999999997,-0.05285599999999999,-0.146423,-0.000796,0.001415,-0.000176,-34.0,20.870001000000002,-8.68,2b
2019-07-15_124012:460,-0.47079499999999996,-0.052338,-0.146423,-0.000582,0.001353,-0.000267,-34.0,20.870001000000002,-8.68,2b
2019-07-15_124012:480,-0.472321,-0.051849,-0.14843800000000001,-0.000734,0.0008960000000000001,-0.00011499999999999999,-34.0,20.870001000000002,-8.68,2b
2019-07-15_124012:500,-0.475861,-0.049316000000000006,-0.146912,-0.001131,0.000407,-5.4000000000000005e-05,-34.0,21.559998999999998,-9.5,2b
2019-07-15_124012:520,-0.475861,-0.047791,-0.14743,-0.001986,0.000499,0.000587,-34.0,21.559998999999998,-9.5,2b
2019-07-15_124012:540,-0.467224,-0.050842,-0.149475,-0.0029010000000000004,0.000499,0.000496,-33.25,21.18,-8.75,2b
2019-07-15_124012:560,-0.46926899999999994,-0.049316000000000006,-0.146912,-0.003817,0.00022400000000000002,-0.00045099999999999996,-33.25,21.18,-8.75,2b
2019-07-15_124012:580,-0.471283,-0.049316000000000006,-0.146912,-0.004336,-0.000172,0.000343,-33.25,21.18,-8.75,2b
2019-07-15_124012:600,-0.47689799999999993,-0.049805,-0.147949,-0.0048850000000000005,-0.000386,-0.000389,-32.869999,21.559998999999998,-9.06,2b
2019-07-15_124012:620,-0.47280900000000003,-0.048279,-0.144379,-0.004824,-0.000386,-0.0009689999999999999,-32.869999,21.559998999999998,-9.06,2b
2019-07-15_124012:640,-0.47433500000000006,-0.05285599999999999,-0.14843800000000001,-0.00403,-0.0005690000000000001,-0.000634,-32.869999,21.18,-9.06,2b
2019-07-15_124012:660,-0.471283,-0.05438200000000001,-0.145386,-0.0034509999999999996,-0.000386,-0.001,-32.869999,21.18,-9.06,2b
2019-07-15_124012:680,-0.470276,-0.053375,-0.14843800000000001,-0.0020469999999999998,-0.000264,0.00028199999999999997,-32.869999,21.18,-9.06,2b
2019-07-15_124012:700,-0.470276,-0.051330999999999995,-0.14843800000000001,-0.001253,-0.000264,0.000404,-34.369999,20.870001000000002,-9.06,2b
2019-07-15_124012:720,-0.46875,-0.049805,-0.148956,-0.000918,-0.000508,7.000000000000001e-06,-34.369999,20.870001000000002,-9.06,2b
2019-07-15_124012:740,-0.46875,-0.050842,-0.153015,-0.001375,-0.0009660000000000001,0.000923,-32.869999,21.559998999999998,-8.68,2b
2019-07-15_124012:760,-0.47180200000000005,-0.051849,-0.152008,-0.0015890000000000001,-0.001454,0.0007700000000000001,-32.869999,21.559998999999998,-8.68,2b
2019-07-15_124012:780,-0.474854,-0.050842,-0.153534,-0.001864,-0.001393,-0.0008470000000000001,-32.869999,21.559998999999998,-8.68,2b
2019-07-15_124012:800,-0.471283,-0.052338,-0.15506,-0.0018030000000000001,-0.001454,-0.001854,-34.0,20.870001000000002,-9.06,2b
2019-07-15_124012:820,-0.474854,-0.053375,-0.152527,-0.00165,-0.001454,-0.0019149999999999998,-34.0,20.870001000000002,-9.06,2b
2019-07-15_124012:840,-0.48043800000000003,-0.05285599999999999,-0.1586,-0.001192,-0.001179,-0.001397,-33.68,21.559998999999998,-9.5,2b
2019-07-15_124012:860,-0.478912,-0.051849,-0.14843800000000001,-0.00107,-0.000264,-0.000267,-33.68,21.559998999999998,-9.5,2b
2019-07-15_124012:880,-0.477905,-0.051849,-0.152008,-0.000918,0.000621,0.001167,-33.68,21.559998999999998,-9.5,2b
2019-07-15_124012:900,-0.47433500000000006,-0.051330999999999995,-0.151489,-0.000643,0.0019030000000000002,0.00132,-33.68,21.25,-9.06,2b
2019-07-15_124012:920,-0.470276,-0.049316000000000006,-0.153534,-0.000521,0.002239,0.000404,-33.68,21.25,-9.06,2b
2019-07-15_124012:940,-0.471283,-0.046752999999999996,-0.157593,-0.000796,0.002696,-0.00045099999999999996,-34.369999,21.18,-9.87,2b
2019-07-15_124012:960,-0.470276,-0.048798,-0.155548,-0.001375,0.002849,-0.0009689999999999999,-34.369999,21.18,-9.87,2b
2019-07-15_124012:980,-0.46926899999999994,-0.047791,-0.156586,-0.0020469999999999998,0.002757,-0.001702,-34.369999,21.18,-9.87,2b
2019-07-15_124013:000,-0.46926899999999994,-0.046752999999999996,-0.155548,-0.002443,0.002757,-0.002098,-34.0,21.18,-8.68,2b
2019-07-15_124013:020,-0.473846,-0.046265,-0.15506,-0.0029010000000000004,0.002513,-0.001641,-34.0,21.18,-8.68,2b
2019-07-15_124013:040,-0.473846,-0.048279,-0.156586,-0.003237,0.002788,-0.000786,-33.68,21.559998999999998,-9.06,2b
2019-07-15_124013:060,-0.477386,-0.049316000000000006,-0.151489,-0.0032979999999999997,0.003032,-0.0013050000000000002,-33.68,21.559998999999998,-9.06,2b
2019-07-15_124013:080,-0.475372,-0.049316000000000006,-0.152527,-0.0032979999999999997,0.0034289999999999998,-0.002037,-33.68,21.559998999999998,-9.06,2b
2019-07-15_124013:100,-0.470276,-0.047791,-0.154022,-0.0032979999999999997,0.003764,-0.0011220000000000002,-34.0,21.559998999999998,-8.25,2b
2019-07-15_124013:120,-0.46875,-0.046752999999999996,-0.153015,-0.0036950000000000004,0.002788,-0.0008470000000000001,-34.0,21.559998999999998,-8.25,2b
2019-07-15_124013:140,-0.471283,-0.046752999999999996,-0.154541,-0.004732,0.001994,-0.000786,-34.369999,20.5,-9.5,2b
2019-07-15_124013:160,-0.48300200000000004,-0.045745999999999995,-0.152008,-0.005556,0.0023,-0.001702,-34.369999,20.5,-9.5,2b
2019-07-15_124013:180,-0.47433500000000006,-0.045226999999999996,-0.15506,-0.006075,0.003917,-0.004113,-34.369999,20.5,-9.5,2b
2019-07-15_124013:200,-0.471283,-0.045226999999999996,-0.157074,-0.006411,0.004497,-0.00457,-32.869999,21.18,-8.68,2b
2019-07-15_124013:220,-0.47079499999999996,-0.045226999999999996,-0.155548,-0.006533,0.004375,-0.0038380000000000003,-32.869999,21.18,-8.68,2b
2019-07-15_124013:240,-0.467743,-0.046265,-0.155548,-0.0056170000000000005,0.004222,-0.004418,-34.0,20.870001000000002,-7.87,2b
2019-07-15_124013:260,-0.47332799999999997,-0.044219999999999995,-0.155548,-0.004427,0.003917,-0.005577,-34.0,20.870001000000002,-7.87,2b
2019-07-15_124013:280,-0.47689799999999993,-0.046265,-0.154022,-0.003237,0.004375,-0.004235,-34.0,20.870001000000002,-7.87,2b
2019-07-15_124013:300,-0.47332799999999997,-0.043701,-0.151001,-0.0018030000000000001,0.005748,-0.002892,-34.369999,20.5,-8.68,2b
2019-07-15_124013:320,-0.466217,-0.042175,-0.15506,-0.000643,0.006297,-0.0035020000000000003,-34.369999,20.5,-8.68,2b
2019-07-15_124013:340,-0.465179,-0.044739,-0.158112,0.000212,0.005016,-0.004357,-35.060001,20.5,-7.87,2b
2019-07-15_124013:360,-0.474854,-0.044219999999999995,-0.14743,0.000944,0.003917,-0.004174000000000001,-35.060001,20.5,-7.87,2b
2019-07-15_124013:380,-0.484497,-0.044739,-0.139282,0.00186,0.005412,-0.005547,-35.060001,20.5,-7.87,2b
2019-07-15_124013:400,-0.48196400000000006,-0.042694,-0.138275,0.002989,0.007426,-0.009209,-34.369999,20.5,-8.25,2b
2019-07-15_124013:420,-0.47842399999999996,-0.038116000000000004,-0.13623,0.0041789999999999996,0.008434,-0.011132,-34.369999,20.5,-8.25,2b
2019-07-15_124013:440,-0.475861,-0.036591000000000005,-0.133698,0.004454,0.008495,-0.010003,-35.060001,20.18,-9.06,2b
2019-07-15_124013:460,-0.475372,-0.031006,-0.128113,0.004972,0.009134999999999999,-0.008140999999999999,-35.060001,20.18,-9.06,2b
2019-07-15_124013:480,-0.474854,-0.027435,-0.127594,0.005125,0.008891,-0.008751,-35.060001,20.18,-9.06,2b
2019-07-15_124013:500,-0.46670500000000004,-0.021851,-0.129639,0.005369,0.007945,-0.010551999999999999,-35.5,20.18,-7.5,2b
2019-07-15_124013:520,-0.470276,-0.019318000000000002,-0.132172,0.005186,0.005748,-0.009606,-35.5,20.18,-7.5,2b
2019-07-15_124013:540,-0.477905,-0.017273,-0.131653,0.004454,0.0042829999999999995,-0.0063100000000000005,-35.5,19.370001000000002,-7.5,2b
2019-07-15_124013:560,-0.489075,-0.01828,-0.129639,0.0034460000000000003,0.0042829999999999995,-0.002495,-35.5,19.370001000000002,-7.5,2b
2019-07-15_124013:580,-0.484497,-0.018799,-0.133698,0.002928,0.005565,-0.000908,-35.5,19.370001000000002,-7.5,2b
2019-07-15_124013:600,-0.481476,-0.018799,-0.131165,0.002378,0.006236,-0.000908,-35.060001,19.370001000000002,-6.75,2b
2019-07-15_124013:620,-0.47995,-0.017792,-0.13269,0.001585,0.005626,-0.000267,-35.060001,19.370001000000002,-6.75,2b
2019-07-15_124013:640,-0.486023,-0.017792,-0.12912,0.000334,0.005046,0.003639,-34.68,19.370001000000002,-6.75,2b
2019-07-15_124013:660,-0.49365200000000004,-0.020844,-0.12149000000000001,-0.001314,0.005686999999999999,0.007667,-34.68,19.370001000000002,-6.75,2b
2019-07-15_124013:680,-0.496216,-0.023895,-0.122528,-0.0029010000000000004,0.007273999999999999,0.009406999999999999,-34.68,19.370001000000002,-6.75,2b
2019-07-15_124013:700,-0.48654200000000003,-0.021851,-0.119476,-0.00403,0.009288,0.007667,-35.75,20.18,-5.06,2b
2019-07-15_124013:720,-0.48043800000000003,-0.017273,-0.11691300000000002,-0.0051600000000000005,0.009959,0.0051649999999999995,-35.75,20.18,-5.06,2b
2019-07-15_124013:740,-0.47332799999999997,-0.019318000000000002,-0.11438,-0.0066549999999999995,0.00883,0.004646,-35.060001,19.75,-6.25,2b
2019-07-15_124013:760,-0.47689799999999993,-0.025421,-0.10775799999999999,-0.008669,0.0069689999999999995,0.005012,-35.060001,19.75,-6.25,2b
2019-07-15_124013:780,-0.475372,-0.026917,-0.108276,-0.010134,0.005351,0.002388,-35.060001,19.75,-6.25,2b
2019-07-15_124013:800,-0.47079499999999996,-0.023895,-0.104218,-0.01047,0.005504,-0.0017929999999999999,-35.75,19.370001000000002,-5.87,2b
2019-07-15_124013:820,-0.449432,-0.020325,-0.11386099999999999,-0.008454999999999999,0.005779,-0.005577,-35.75,19.370001000000002,-5.87,2b
2019-07-15_124013:840,-0.44891400000000004,-0.006592,-0.12301600000000001,-0.006991,0.0023,-0.007103,-34.68,19.0,-7.06,2b
2019-07-15_124013:860,-0.467224,-0.007599,-0.124054,-0.007204,-0.004292,-0.000908,-34.68,19.0,-7.06,2b
2019-07-15_124013:880,-0.5048520000000001,-0.014740000000000001,-0.12301600000000001,-0.008912999999999999,-0.007405,0.008339,-34.68,19.0,-7.06,2b
2019-07-15_124013:900,-0.5073850000000001,-0.021332,-0.11843900000000002,-0.010439,-0.003834,0.01258,-35.5,19.0,-6.25,2b
2019-07-15_124013:920,-0.486023,-0.022369,-0.12558,-0.010775,0.001201,0.008888,-35.5,19.0,-6.25,2b
2019-07-15_124013:940,-0.481476,-0.029480000000000003,-0.12658699999999998,-0.010775,0.003825,0.007087,-35.75,20.18,-4.75,2b
2019-07-15_124013:960,-0.488068,-0.039124,-0.114899,-0.009340000000000001,0.004222,0.006476999999999999,-35.75,20.18,-4.75,2b
2019-07-15_124013:980,-0.47995,-0.042694,-0.11080899999999999,-0.0069299999999999995,0.005351,0.004036,-35.75,20.18,-4.75,2b
2019-07-15_124014:000,-0.46469099999999997,-0.039642000000000004,-0.109802,-0.0036950000000000004,0.005046,0.000496,-35.75,19.75,-6.75,2b
2019-07-15_124014:020,-0.461639,-0.041687,-0.114899,-0.000918,0.001964,0.001258,-35.75,19.75,-6.75,2b
2019-07-15_124014:040,-0.486023,-0.047791,-0.118958,0.000883,-0.002705,0.006294,-35.060001,20.18,-5.56,2b
2019-07-15_124014:060,-0.489075,-0.050842,-0.119476,0.002073,-0.00475,0.010353,-35.060001,20.18,-5.56,2b
2019-07-15_124014:080,-0.48706099999999997,-0.048279,-0.126068,0.0019210000000000002,-0.005086,0.009864,-35.060001,20.18,-5.56,2b
2019-07-15_124014:100,-0.47433500000000006,-0.051849,-0.128601,0.001402,-0.004903,0.009468,-35.5,20.5,-6.75,2b
2019-07-15_124014:120,-0.47433500000000006,-0.060486,-0.131653,-6.3e-05,-0.006337,0.009224,-35.5,20.5,-6.75,2b
2019-07-15_124014:140,-0.47079499999999996,-0.069122,-0.133179,-0.001864,-0.007954000000000001,0.010719,-34.369999,20.870001000000002,-7.5,2b
2019-07-15_124014:160,-0.46060200000000007,-0.07928500000000001,-0.135742,-0.0032979999999999997,-0.008992,0.012977,-34.369999,20.870001000000002,-7.5,2b
2019-07-15_124014:180,-0.452484,-0.086914,-0.144897,-0.002718,-0.009999,0.010872,-34.369999,20.870001000000002,-7.5,2b
2019-07-15_124014:200,-0.459595,-0.080322,-0.150482,-0.0014060000000000001,-0.013447999999999998,0.003303,-34.0,21.559998999999998,-6.75,2b
2019-07-15_124014:220,-0.47842399999999996,-0.07928500000000001,-0.14843800000000001,-0.0009789999999999998,-0.017232,0.002357,-34.0,21.559998999999998,-6.75,2b
2019-07-15_124014:240,-0.49468999999999996,-0.075226,-0.140808,5.9e-05,-0.017628,0.003303,-34.0,21.559998999999998,-7.06,2b
2019-07-15_124014:260,-0.490601,-0.064545,-0.141327,0.000395,-0.014455,-0.001366,-34.0,21.559998999999998,-7.06,2b
2019-07-15_124014:280,-0.474854,-0.055908000000000006,-0.143372,0.0016760000000000002,-0.011585999999999999,-0.004692,-34.0,21.559998999999998,-7.06,2b
2019-07-15_124014:300,-0.46926899999999994,-0.05285599999999999,-0.145386,0.003904,-0.009602,-0.007622,-34.0,22.0,-7.06,2b
2019-07-15_124014:320,-0.475372,-0.039124,-0.14386,0.005765999999999999,-0.009358,-0.010003,-34.0,22.0,-7.06,2b
2019-07-15_124014:340,-0.47842399999999996,-0.036072,-0.144897,0.008116,-0.009145,-0.0054859999999999996,-34.68,21.18,-8.68,2b
2019-07-15_124014:360,-0.475861,-0.035583,-0.14843800000000001,0.008695,-0.008748,-0.004296,-34.68,21.18,-8.68,2b
2019-07-15_124014:380,-0.475861,-0.03302,-0.152527,0.008756,-0.008412000000000001,-0.0034409999999999996,-34.68,21.18,-8.68,2b
2019-07-15_124014:400,-0.472321,-0.034546,-0.156067,0.008237999999999999,-0.008351,-0.0011220000000000002,-34.0,21.559998999999998,-8.25,2b
2019-07-15_124014:420,-0.475861,-0.038635,-0.157593,0.005918,-0.008199,0.000496,-34.0,21.559998999999998,-8.25,2b
2019-07-15_124014:440,-0.47995,-0.040161,-0.161163,0.004118,-0.006703,0.001228,-33.68,21.18,-8.75,2b
2019-07-15_124014:460,-0.477386,-0.043701,-0.160645,0.0022559999999999998,-0.00417,0.00132,-33.68,21.18,-8.75,2b
2019-07-15_124014:480,-0.46569799999999995,-0.045226999999999996,-0.163177,0.000791,-0.0024920000000000003,-0.000328,-33.68,21.18,-8.75,2b
2019-07-15_124014:500,-0.454529,-0.051330999999999995,-0.165222,0.000395,-0.001759,-0.002373,-33.68,21.559998999999998,-6.75,2b
2019-07-15_124014:520,-0.457581,-0.05285599999999999,-0.168274,-0.000185,-0.003102,-0.001854,-33.68,21.559998999999998,-6.75,2b
2019-07-15_124014:540,-0.47180200000000005,-0.05285599999999999,-0.171326,-0.001009,-0.004018,0.002388,-34.0,21.18,-8.25,2b
2019-07-15_124014:560,-0.48553500000000005,-0.05438200000000001,-0.167755,-0.002321,-0.002888,0.00428,-34.0,21.18,-8.25,2b
2019-07-15_124014:580,-0.48300200000000004,-0.052338,-0.168793,-0.003573,-0.000661,0.003181,-34.0,21.18,-8.25,2b
2019-07-15_124014:600,-0.46875,-0.051330999999999995,-0.166748,-0.004091,0.0014759999999999999,0.00016,-34.0,20.5,-8.25,2b
2019-07-15_124014:620,-0.45907600000000004,-0.047791,-0.170807,-0.004427,0.0019030000000000002,-0.002434,-34.0,20.5,-8.25,2b
2019-07-15_124014:640,-0.459595,-0.051849,-0.170319,-0.004213000000000001,0.0017809999999999998,-0.00396,-33.68,21.559998999999998,-8.68,2b
2019-07-15_124014:660,-0.462128,-0.048798,-0.166748,-0.0036340000000000005,0.001628,-0.0057,-33.68,21.559998999999998,-8.68,2b
2019-07-15_124014:680,-0.465179,-0.046265,-0.164215,-0.002932,0.001537,-0.004296,-33.68,21.559998999999998,-8.68,2b
2019-07-15_124014:700,-0.46875,-0.045226999999999996,-0.166229,-0.002657,0.0012619999999999999,-0.0023120000000000003,-34.0,20.5,-8.25,2b
2019-07-15_124014:720,-0.470276,-0.039642000000000004,-0.161163,-0.003054,0.00114,-0.000328,-34.0,20.5,-8.25,2b
2019-07-15_124014:740,-0.46469099999999997,-0.039124,-0.161163,-0.004152,0.001018,0.001564,-34.68,21.18,-9.5,2b
2019-07-15_124014:760,-0.45706199999999997,-0.039642000000000004,-0.163177,-0.0058,-0.000325,0.002754,-34.68,21.18,-9.5,2b
2019-07-15_124014:780,-0.45043900000000003,-0.041168,-0.162689,-0.007326000000000001,-0.00298,0.004158,-34.68,21.18,-9.5,2b
2019-07-15_124014:800,-0.447388,-0.043213,-0.166748,-0.008974,-0.006093,0.0061719999999999995,-34.68,20.870001000000002,-9.06,2b
2019-07-15_124014:820,-0.449432,-0.046265,-0.168274,-0.010042,-0.008809,0.005439,-34.68,20.870001000000002,-9.06,2b
2019-07-15_124014:840,-0.460114,-0.049316000000000006,-0.174896,-0.010531,-0.010854,0.0026320000000000002,-34.0,20.870001000000002,-9.5,2b
2019-07-15_124014:860,-0.46823100000000006,-0.049316000000000006,-0.17538499999999999,-0.010439,-0.011006,0.000831,-34.0,20.870001000000002,-9.5,2b
2019-07-15_124014:880,-0.47433500000000006,-0.048279,-0.18096900000000002,-0.010134,-0.009541,0.000496,-34.0,20.870001000000002,-9.5,2b
2019-07-15_124014:900,-0.475372,-0.047272,-0.185059,-0.009066,-0.007741,0.000984,-34.0,20.5,-9.06,2b
2019-07-15_124014:920,-0.47332799999999997,-0.049805,-0.183014,-0.007937,-0.005574,0.000831,-34.0,20.5,-9.06,2b
2019-07-15_124014:940,-0.473846,-0.050323,-0.18454,-0.006197,-0.002919,0.001564,-34.0,20.870001000000002,-10.68,2b
2019-07-15_124014:960,-0.47180200000000005,-0.049316000000000006,-0.183014,-0.0048850000000000005,-0.001027,0.002784,-34.0,20.870001000000002,-10.68,2b
2019-07-15_124014:980,-0.467743,-0.047791,-0.18454,-0.003878,0.000743,0.004036,-34.0,20.870001000000002,-10.68,2b
2019-07-15_124015:000,-0.46469099999999997,-0.046265,-0.184021,-0.003573,0.001598,0.0058969999999999995,-33.68,21.18,-10.68,2b
2019-07-15_124015:020,-0.46469099999999997,-0.047791,-0.184021,-0.00403,0.001994,0.0075450000000000005,-33.68,21.18,-10.68,2b
2019-07-15_124015:040,-0.46823100000000006,-0.050842,-0.185059,-0.004671,0.0031850000000000003,0.007026,-32.869999,20.870001000000002,-10.68,2b
2019-07-15_124015:060,-0.466217,-0.051330999999999995,-0.18096900000000002,-0.005678,0.004039,0.0060799999999999995,-32.869999,20.870001000000002,-10.68,2b
2019-07-15_124015:080,-0.46875,-0.053863999999999995,-0.18249500000000002,-0.0066549999999999995,0.005229,0.005622,-32.869999,20.870001000000002,-10.68,2b
2019-07-15_124015:100,-0.471283,-0.053375,-0.18096900000000002,-0.007876000000000001,0.006175,0.006019,-32.869999,22.0,-9.87,2b
2019-07-15_124015:120,-0.47079499999999996,-0.057434000000000006,-0.18096900000000002,-0.008974,0.007213,0.006416,-32.869999,22.0,-9.87,2b
2019-07-15_124015:140,-0.466217,-0.058441,-0.18096900000000002,-0.009737,0.008098000000000001,0.005684000000000001,-33.68,21.559998999999998,-9.87,2b
2019-07-15_124015:160,-0.459595,-0.059479,-0.177948,-0.009706999999999999,0.00883,0.004158,-33.68,21.559998999999998,-9.87,2b
2019-07-15_124015:180,-0.458588,-0.058441,-0.175903,-0.008912999999999999,0.008952,0.001625,-33.68,21.559998999999998,-9.87,2b
2019-07-15_124015:200,-0.45401,-0.055389,-0.172333,-0.00812,0.008739,-0.000725,-33.25,21.18,-9.5,2b
2019-07-15_124015:220,-0.45401,-0.055389,-0.168274,-0.007081999999999999,0.008281,-0.0010609999999999999,-33.25,21.18,-9.5,2b
2019-07-15_124015:240,-0.459595,-0.051330999999999995,-0.168274,-0.006411,0.008006000000000001,-0.001641,-33.25,22.0,-9.06,2b
2019-07-15_124015:260,-0.45553599999999994,-0.051330999999999995,-0.166229,-0.006014,0.0071519999999999995,-0.002373,-33.25,22.0,-9.06,2b
2019-07-15_124015:280,-0.45654300000000003,-0.048279,-0.169281,-0.0056170000000000005,0.005686999999999999,-0.003228,-33.25,22.0,-9.06,2b
2019-07-15_124015:300,-0.457581,-0.046265,-0.168274,-0.005861,0.0036420000000000003,-0.003228,-32.5,22.0,-9.5,2b
2019-07-15_124015:320,-0.45706199999999997,-0.045745999999999995,-0.168274,-0.006594,0.001628,-0.001519,-32.5,22.0,-9.5,2b
2019-07-15_124015:340,-0.45806899999999995,-0.046265,-0.171326,-0.007815,-5e-05,0.000526,-34.0,21.18,-9.5,2b
2019-07-15_124015:360,-0.46060200000000007,-0.046752999999999996,-0.169281,-0.009188,-0.001637,0.00132,-34.0,21.18,-9.5,2b
2019-07-15_124015:380,-0.463654,-0.047272,-0.171326,-0.010195000000000001,-0.002431,0.001625,-34.0,21.18,-9.5,2b
2019-07-15_124015:400,-0.462646,-0.050842,-0.17337,-0.011233,-0.002705,0.00132,-33.68,21.559998999999998,-10.25,2b
2019-07-15_124015:420,-0.46569799999999995,-0.051849,-0.172852,-0.01166,-0.0027660000000000002,0.000831,-33.68,21.559998999999998,-10.25,2b
2019-07-15_124015:440,-0.46569799999999995,-0.053375,-0.17538499999999999,-0.011904000000000001,-0.002187,0.000831,-32.5,21.559998999999998,-9.5,2b
2019-07-15_124015:460,-0.46316499999999994,-0.054901,-0.177948,-0.01166,-0.002034,0.0008619999999999999,-32.5,21.559998999999998,-9.5,2b
2019-07-15_124015:480,-0.462128,-0.05438200000000001,-0.178955,-0.011170999999999999,-0.002309,0.0008619999999999999,-32.5,21.559998999999998,-9.5,2b
2019-07-15_124015:500,-0.46569799999999995,-0.054901,-0.18096900000000002,-0.010042,-0.002095,0.0007700000000000001,-33.25,20.5,-9.87,2b
2019-07-15_124015:520,-0.46875,-0.056427,-0.18096900000000002,-0.008791,-0.001363,0.000129,-33.25,20.5,-9.87,2b
2019-07-15_124015:540,-0.46875,-0.052338,-0.182007,-0.007662,-0.000325,-0.00045099999999999996,-33.25,20.870001000000002,-10.68,2b
2019-07-15_124015:560,-0.46926899999999994,-0.050323,-0.177948,-0.007204,0.000743,-0.000328,-33.25,20.870001000000002,-10.68,2b
2019-07-15_124015:580,-0.463654,-0.049316000000000006,-0.177429,-0.0069299999999999995,0.001598,0.00132,-33.25,20.870001000000002,-10.68,2b
2019-07-15_124015:600,-0.46060200000000007,-0.055389,-0.177948,-0.0066549999999999995,0.002055,0.001716,-33.25,20.870001000000002,-9.06,2b
2019-07-15_124015:620,-0.461639,-0.05285599999999999,-0.175903,-0.00635,0.00172,0.000496,-33.25,20.870001000000002,-9.06,2b
2019-07-15_124015:640,-0.461121,-0.051330999999999995,-0.17690999999999998,-0.005861,0.001537,0.000221,-33.68,21.18,-11.5,2b
2019-07-15_124015:660,-0.462646,-0.051849,-0.177429,-0.005556,0.0010789999999999999,-0.000634,-33.68,21.18,-11.5,2b
2019-07-15_124015:680,-0.46316499999999994,-0.053375,-0.176422,-0.005129,0.00056,-0.0010609999999999999,-33.68,21.18,-11.5,2b
2019-07-15_124015:700,-0.466217,-0.055908000000000006,-0.175903,-0.004152,0.000743,-0.0011220000000000002,-32.869999,21.18,-11.06,2b
2019-07-15_124015:720,-0.46670500000000004,-0.051849,-0.175903,-0.002779,0.001018,-0.0009689999999999999,-32.869999,21.18,-11.06,2b
2019-07-15_124015:740,-0.467224,-0.048279,-0.17690999999999998,-0.0015279999999999998,0.00114,6.8e-05,-32.5,21.18,-10.25,2b
2019-07-15_124015:760,-0.465179,-0.046265,-0.174896,-0.000582,0.0016589999999999999,0.00132,-32.5,21.18,-10.25,2b
2019-07-15_124015:780,-0.460114,-0.045226999999999996,-0.177948,-0.000338,0.001964,0.001106,-32.5,21.18,-10.25,2b
2019-07-15_124015:800,-0.46060200000000007,-0.045226999999999996,-0.176422,5.9e-05,0.001598,0.0008619999999999999,-34.0,21.18,-9.87,2b
2019-07-15_124015:820,-0.461639,-0.044739,-0.177429,0.000273,0.0012619999999999999,0.000831,-34.0,21.18,-9.87,2b
2019-07-15_124015:840,-0.461639,-0.045226999999999996,-0.17843599999999998,0.000273,0.0012619999999999999,0.001106,-32.5,20.870001000000002,-11.06,2b
2019-07-15_124015:860,-0.46417200000000003,-0.047272,-0.176422,0.00048600000000000005,0.001353,0.001777,-32.5,20.870001000000002,-11.06,2b
2019-07-15_124015:880,-0.46417200000000003,-0.047272,-0.17944300000000002,0.000547,0.001537,0.00196,-32.5,20.870001000000002,-11.06,2b
2019-07-15_124015:900,-0.46469099999999997,-0.045745999999999995,-0.177948,0.00048600000000000005,0.0019030000000000002,0.002357,-33.25,21.18,-11.06,2b
2019-07-15_124015:920,-0.46417200000000003,-0.048279,-0.177948,0.00045599999999999997,0.002177,0.0029059999999999997,-33.25,21.18,-11.06,2b
2019-07-15_124015:940,-0.46469099999999997,-0.048279,-0.177429,0.00011999999999999999,0.002513,0.002967,-32.869999,21.18,-9.5,2b
2019-07-15_124015:960,-0.465179,-0.050323,-0.174377,-0.000277,0.003368,0.002449,-32.869999,21.18,-9.5,2b
2019-07-15_124015:980,-0.46569799999999995,-0.046265,-0.174896,-0.000734,0.003886,0.0018989999999999999,-32.869999,21.18,-9.5,2b
2019-07-15_124016:000,-0.465179,-0.046265,-0.176422,-0.001986,0.0042829999999999995,0.001228,-33.25,21.18,-10.25,2b
2019-07-15_124016:020,-0.462646,-0.046265,-0.174377,-0.003664,0.004619,0.000343,-33.25,21.18,-10.25,2b
2019-07-15_124016:040,-0.46469099999999997,-0.046265,-0.175903,-0.0051600000000000005,0.00471,-0.000512,-33.25,21.18,-9.5,2b
2019-07-15_124016:060,-0.467743,-0.048798,-0.174896,-0.007143000000000001,0.004954999999999999,-0.0010609999999999999,-33.25,21.18,-9.5,2b
2019-07-15_124016:080,-0.46926899999999994,-0.05285599999999999,-0.17690999999999998,-0.008851999999999999,0.005565,-0.0012439999999999999,-33.25,21.18,-9.5,2b
2019-07-15_124016:100,-0.467224,-0.054901,-0.17690999999999998,-0.01047,0.005901,-0.0019760000000000003,-32.18,20.870001000000002,-10.68,2b
2019-07-15_124016:120,-0.46469099999999997,-0.056915,-0.176422,-0.011507,0.006236,-0.002892,-32.18,20.870001000000002,-10.68,2b
2019-07-15_124016:140,-0.46316499999999994,-0.057434000000000006,-0.176422,-0.01166,0.006145,-0.004906000000000001,-32.869999,21.18,-9.87,2b
2019-07-15_124016:160,-0.45907600000000004,-0.056427,-0.172852,-0.011233,0.005626,-0.007347,-32.869999,21.18,-9.87,2b
2019-07-15_124016:180,-0.46060200000000007,-0.05285599999999999,-0.172333,-0.010439,0.005016,-0.008812,-32.869999,21.18,-9.87,2b
2019-07-15_124016:200,-0.46417200000000003,-0.051330999999999995,-0.167755,-0.009309999999999999,0.00471,-0.00988,-33.68,21.18,-9.87,2b
2019-07-15_124016:220,-0.472321,-0.046752999999999996,-0.165741,-0.007876000000000001,0.004771,-0.010459999999999999,-33.68,21.18,-9.87,2b
2019-07-15_124016:240,-0.47280900000000003,-0.041168,-0.166748,-0.0064719999999999995,0.005686999999999999,-0.010888,-34.0,20.18,-10.68,2b
2019-07-15_124016:260,-0.47079499999999996,-0.035583,-0.164703,-0.005526,0.006693999999999999,-0.010948999999999999,-34.0,20.18,-10.68,2b
2019-07-15_124016:280,-0.467224,-0.030487,-0.164215,-0.004549,0.006938,-0.010338,-34.0,20.18,-10.68,2b
2019-07-15_124016:300,-0.46316499999999994,-0.026427999999999997,-0.162689,-0.003817,0.006816,-0.010338,-33.25,20.18,-10.25,2b
2019-07-15_124016:320,-0.46469099999999997,-0.022858,-0.160645,-0.003512,0.006084,-0.010459999999999999,-33.25,20.18,-10.25,2b
2019-07-15_124016:340,-0.466217,-0.019806,-0.160645,-0.0032979999999999997,0.0052899999999999996,-0.010216,-34.369999,19.370001000000002,-9.87,2b
2019-07-15_124016:360,-0.467224,-0.016753999999999998,-0.158112,-0.0034509999999999996,0.004833,-0.010064,-34.369999,19.370001000000002,-9.87,2b
2019-07-15_124016:380,-0.46823100000000006,-0.015228,-0.159637,-0.0034509999999999996,0.0045579999999999996,-0.009758,-34.369999,19.370001000000002,-9.87,2b
2019-07-15_124016:400,-0.467743,-0.014221000000000001,-0.157074,-0.0037560000000000002,0.0042829999999999995,-0.009026000000000001,-34.369999,19.370001000000002,-10.25,2b
2019-07-15_124016:420,-0.467743,-0.013213999999999998,-0.159119,-0.004,0.0036420000000000003,-0.007073,-34.369999,19.370001000000002,-10.25,2b
2019-07-15_124016:440,-0.46469099999999997,-0.013702,-0.157593,-0.003939,0.002696,-0.005181,-35.060001,19.0,-9.5,2b
2019-07-15_124016:460,-0.469757,-0.013213999999999998,-0.159119,-0.0032979999999999997,0.0016589999999999999,-0.004357,-35.060001,19.0,-9.5,2b
2019-07-15_124016:480,-0.469757,-0.012177,-0.161163,-0.0025960000000000002,0.001292,-0.003655,-35.060001,19.0,-9.5,2b
2019-07-15_124016:500,-0.470276,-0.012177,-0.160126,-0.00165,0.000743,-0.001519,-34.369999,18.68,-9.06,2b
2019-07-15_124016:520,-0.471283,-0.010162000000000001,-0.160645,-0.001467,0.00056,0.0007700000000000001,-34.369999,18.68,-9.06,2b
2019-07-15_124016:540,-0.47079499999999996,-0.010162000000000001,-0.161163,-0.0015279999999999998,0.001018,0.0021739999999999997,-34.369999,18.25,-9.87,2b
2019-07-15_124016:560,-0.474854,-0.009125,-0.160645,-0.0015890000000000001,0.001353,0.002388,-34.369999,18.25,-9.87,2b
2019-07-15_124016:580,-0.473846,-0.009125,-0.16217,-0.001864,0.0024519999999999998,0.0022960000000000003,-34.369999,18.25,-9.87,2b
2019-07-15_124016:600,-0.47079499999999996,-0.009125,-0.160645,-0.002443,0.002849,0.002754,-34.369999,18.68,-7.87,2b
2019-07-15_124016:620,-0.467224,-0.010162000000000001,-0.160645,-0.0033280000000000002,0.003246,0.003822,-34.369999,18.68,-7.87,2b
2019-07-15_124016:640,-0.467224,-0.011169,-0.161163,-0.004397,0.002635,0.004554,-34.68,19.0,-9.87,2b
2019-07-15_124016:660,-0.470276,-0.011687999999999999,-0.158112,-0.005404,0.001842,0.00489,-34.68,19.0,-9.87,2b
2019-07-15_124016:680,-0.471283,-0.014740000000000001,-0.159119,-0.006258,0.001537,0.005287,-34.68,19.0,-9.87,2b
2019-07-15_124016:700,-0.471283,-0.017273,-0.161163,-0.0069299999999999995,0.0012619999999999999,0.005622,-34.0,19.0,-9.5,2b
2019-07-15_124016:720,-0.470276,-0.021332,-0.160645,-0.007387,0.001292,0.005104,-34.0,19.0,-9.5,2b
2019-07-15_124016:740,-0.467743,-0.022858,-0.160645,-0.007479,0.0009570000000000001,0.005287,-35.5,18.68,-9.06,2b
2019-07-15_124016:760,-0.467224,-0.022858,-0.159119,-0.007204,0.000407,0.005684000000000001,-35.5,18.68,-9.06,2b
2019-07-15_124016:780,-0.469757,-0.025421,-0.159637,-0.007143000000000001,0.000682,0.005806,-35.5,18.68,-9.06,2b
2019-07-15_124016:800,-0.471283,-0.025421,-0.161163,-0.006807,0.000743,0.005012,-34.369999,19.370001000000002,-9.06,2b
2019-07-15_124016:820,-0.46875,-0.026427999999999997,-0.16217,-0.006807,0.000682,0.005012,-34.369999,19.370001000000002,-9.06,2b
2019-07-15_124016:840,-0.46823100000000006,-0.025908999999999998,-0.161163,-0.006745999999999999,0.00022400000000000002,0.005439,-34.0,19.370001000000002,-9.5,2b
2019-07-15_124016:860,-0.467743,-0.027435,-0.160126,-0.007051999999999999,-0.000264,0.005561,-34.0,19.370001000000002,-9.5,2b
2019-07-15_124016:880,-0.469757,-0.028961,-0.16217,-0.007143000000000001,-0.000508,0.005439,-34.0,19.370001000000002,-9.5,2b
2019-07-15_124016:900,-0.471283,-0.031006,-0.162689,-0.006991,-0.000264,0.004768,-34.0,19.370001000000002,-9.06,2b
2019-07-15_124016:920,-0.47180200000000005,-0.031006,-0.161163,-0.006807,-0.000172,0.003913000000000001,-34.0,19.370001000000002,-9.06,2b
2019-07-15_124016:940,-0.46926899999999994,-0.03302,-0.163177,-0.0066549999999999995,1.1e-05,0.003242,-33.68,19.75,-9.5,2b
2019-07-15_124016:960,-0.46823100000000006,-0.031494,-0.162689,-0.006136,0.000133,0.003151,-33.68,19.75,-9.5,2b
2019-07-15_124016:980,-0.46823100000000006,-0.032013,-0.163177,-0.005678,-0.000325,0.003181,-33.68,19.75,-9.5,2b
2019-07-15_124017:000,-0.470276,-0.030487,-0.1698,-0.005556,-0.000661,0.003517,-33.68,19.75,-10.25,2b
2019-07-15_124017:020,-0.46670500000000004,-0.029968,-0.159637,-0.006197,0.000468,0.0043100000000000005,-33.68,19.75,-10.25,2b
2019-07-15_124017:040,-0.46670500000000004,-0.032532,-0.159637,-0.005678,-0.000233,0.004371,-34.369999,19.75,-10.68,2b
2019-07-15_124017:060,-0.46569799999999995,-0.032532,-0.160126,-0.004549,-0.000722,0.003303,-34.369999,19.75,-10.68,2b
2019-07-15_124017:080,-0.46926899999999994,-0.030487,-0.167755,-0.004549,-0.001118,0.003303,-34.369999,19.75,-10.68,2b
2019-07-15_124017:100,-0.471283,-0.032532,-0.168274,-0.004549,-0.00063,0.003578,-32.869999,19.75,-9.06,2b
2019-07-15_124017:120,-0.472321,-0.034058,-0.166748,-0.00461,-5e-05,0.00309,-32.869999,19.75,-9.06,2b
2019-07-15_124017:140,-0.469757,-0.034058,-0.1698,-0.004549,0.000407,0.002754,-34.68,20.5,-8.68,2b
2019-07-15_124017:160,-0.467743,-0.037108999999999996,-0.167755,-0.004336,0.00022400000000000002,0.002388,-34.68,20.5,-8.68,2b
2019-07-15_124017:180,-0.46670500000000004,-0.036072,-0.169281,-0.004,1.1e-05,0.001991,-34.68,20.5,-8.68,2b
2019-07-15_124017:200,-0.467224,-0.035583,-0.168793,-0.0036340000000000005,1.1e-05,0.002052,-33.68,20.870001000000002,-9.87,2b
2019-07-15_124017:220,-0.46670500000000004,-0.035583,-0.167755,-0.003573,-0.000386,0.001991,-33.68,20.870001000000002,-9.87,2b
2019-07-15_124017:240,-0.46670500000000004,-0.034058,-0.168793,-0.0036950000000000004,-0.00011100000000000001,0.00196,-33.68,20.5,-10.25,2b
2019-07-15_124017:260,-0.46875,-0.034058,-0.169281,-0.0036340000000000005,-0.000325,0.0021739999999999997,-33.68,20.5,-10.25,2b
2019-07-15_124017:280,-0.467743,-0.036072,-0.168274,-0.003817,1.1e-05,0.00196,-33.68,20.5,-10.25,2b
2019-07-15_124017:300,-0.46823100000000006,-0.034058,-0.169281,-0.003939,-0.000233,0.001655,-32.869999,20.5,-11.06,2b
2019-07-15_124017:320,-0.46875,-0.035583,-0.166748,-0.004,7.2e-05,0.001258,-32.869999,20.5,-11.06,2b
2019-07-15_124017:340,-0.467743,-0.036591000000000005,-0.169281,-0.0037560000000000002,0.00022400000000000002,0.001167,-34.0,19.75,-9.87,2b
2019-07-15_124017:360,-0.467743,-0.036591000000000005,-0.168793,-0.00339,0.000285,0.001625,-34.0,19.75,-9.87,2b
2019-07-15_124017:380,-0.465179,-0.036591000000000005,-0.168793,-0.003054,0.00022400000000000002,0.001564,-34.0,19.75,-9.87,2b
2019-07-15_124017:400,-0.465179,-0.035583,-0.170807,-0.003054,0.000346,0.001228,-32.18,19.370001000000002,-10.25,2b
2019-07-15_124017:420,-0.466217,-0.036072,-0.1698,-0.002932,1.1e-05,0.001228,-32.18,19.370001000000002,-10.25,2b
2019-07-15_124017:440,-0.46670500000000004,-0.036072,-0.171326,-0.002993,7.2e-05,0.000648,-34.369999,20.18,-11.5,2b
2019-07-15_124017:460,-0.46823100000000006,-0.035065,-0.171844,-0.003176,0.000346,0.000526,-34.369999,20.18,-11.5,2b
2019-07-15_124017:480,-0.467743,-0.037108999999999996,-0.171844,-0.003054,0.000682,0.000404,-34.369999,20.18,-11.5,2b
2019-07-15_124017:500,-0.467743,-0.036591000000000005,-0.172333,-0.002932,0.0009570000000000001,0.000465,-33.25,19.75,-11.06,2b
2019-07-15_124017:520,-0.46670500000000004,-0.037108999999999996,-0.171844,-0.002657,0.001353,0.000343,-33.25,19.75,-11.06,2b
2019-07-15_124017:540,-0.465179,-0.036591000000000005,-0.170319,-0.002535,0.001598,0.000465,-34.369999,19.75,-10.68,2b
2019-07-15_124017:560,-0.465179,-0.037108999999999996,-0.171844,-0.002321,0.00172,0.001258,-34.369999,19.75,-10.68,2b
2019-07-15_124017:580,-0.46417200000000003,-0.036591000000000005,-0.1698,-0.0025960000000000002,0.001353,0.000648,-34.369999,19.75,-10.68,2b
2019-07-15_124017:600,-0.46569799999999995,-0.036591000000000005,-0.170807,-0.0025960000000000002,0.000865,-0.000267,-33.25,20.870001000000002,-10.68,2b
2019-07-15_124017:620,-0.467224,-0.034058,-0.1698,-0.0029010000000000004,0.0009570000000000001,7.000000000000001e-06,-33.25,20.870001000000002,-10.68,2b
2019-07-15_124017:640,-0.467743,-0.034058,-0.172333,-0.003237,0.0008960000000000001,0.001258,-33.68,19.75,-11.06,2b
2019-07-15_124017:660,-0.46670500000000004,-0.034546,-0.1698,-0.003664,0.0010789999999999999,0.00132,-33.68,19.75,-11.06,2b
2019-07-15_124017:680,-0.46569799999999995,-0.035065,-0.170807,-0.004,0.001353,0.0008619999999999999,-33.68,19.75,-11.06,2b
2019-07-15_124017:700,-0.467224,-0.037108999999999996,-0.171844,-0.003939,0.0014759999999999999,0.000709,-33.68,20.18,-11.5,2b
2019-07-15_124017:720,-0.46823100000000006,-0.036591000000000005,-0.172333,-0.0036950000000000004,0.001628,0.000496,-33.68,20.18,-11.5,2b
2019-07-15_124017:740,-0.466217,-0.037108999999999996,-0.172333,-0.003237,0.001964,0.0008619999999999999,-33.25,20.75,-10.25,2b
2019-07-15_124017:760,-0.46417200000000003,-0.037108999999999996,-0.171326,-0.003237,0.001842,0.0008619999999999999,-33.25,20.75,-10.25,2b
2019-07-15_124017:780,-0.465179,-0.035583,-0.170319,-0.003054,0.001598,0.000984,-33.25,20.75,-10.25,2b
2019-07-15_124017:800,-0.465179,-0.034058,-0.171326,-0.003237,0.001353,0.0008619999999999999,-34.0,19.75,-11.06,2b
2019-07-15_124017:820,-0.466217,-0.033539,-0.169281,-0.0034509999999999996,0.001415,0.001167,-34.0,19.75,-11.06,2b
2019-07-15_124017:840,-0.466217,-0.034546,-0.170807,-0.003817,0.001537,0.001167,-34.369999,20.18,-11.06,2b
2019-07-15_124017:860,-0.46823100000000006,-0.035065,-0.170319,-0.00403,0.001537,0.001167,-34.369999,20.18,-11.06,2b
2019-07-15_124017:880,-0.467743,-0.036072,-0.171844,-0.004336,0.0017809999999999998,0.001258,-34.369999,20.18,-11.06,2b
2019-07-15_124017:900,-0.465179,-0.036072,-0.170807,-0.004336,0.002055,0.001655,-33.25,20.18,-10.25,2b
2019-07-15_124017:920,-0.46417200000000003,-0.039124,-0.170319,-0.004213000000000001,0.002055,0.000648,-33.25,20.18,-10.25,2b
2019-07-15_124017:940,-0.46569799999999995,-0.039642000000000004,-0.170319,-0.003939,0.0014759999999999999,0.0008619999999999999,-33.68,20.870001000000002,-10.25,2b
2019-07-15_124017:960,-0.467743,-0.039642000000000004,-0.1698,-0.003573,0.0014759999999999999,0.001442,-33.68,20.870001000000002,-10.25,2b
2019-07-15_124017:980,-0.46670500000000004,-0.039124,-0.170807,-0.003512,0.001598,0.001106,-33.68,20.870001000000002,-10.25,2b
2019-07-15_124018:000,-0.46670500000000004,-0.038635,-0.170319,-0.0034509999999999996,0.001994,0.000831,-33.25,20.870001000000002,-10.25,2b
2019-07-15_124018:020,-0.466217,-0.038635,-0.170319,-0.003573,0.0023,0.000465,-33.25,20.870001000000002,-10.25,2b
2019-07-15_124018:040,-0.465179,-0.038116000000000004,-0.170807,-0.003664,0.0023,0.000129,-34.0,20.870001000000002,-10.68,2b
2019-07-15_124018:060,-0.46569799999999995,-0.039124,-0.170319,-0.0036340000000000005,0.001964,0.00028199999999999997,-34.0,20.870001000000002,-10.68,2b
2019-07-15_124018:080,-0.46569799999999995,-0.038116000000000004,-0.1698,-0.003512,0.001964,0.00028199999999999997,-34.0,20.870001000000002,-10.68,2b
2019-07-15_124018:100,-0.467224,-0.037598,-0.170319,-0.0033280000000000002,0.0017809999999999998,0.000343,-33.68,20.18,-11.5,2b
2019-07-15_124018:120,-0.466217,-0.036591000000000005,-0.167755,-0.0031149999999999997,0.001537,0.000404,-33.68,20.18,-11.5,2b
2019-07-15_124018:140,-0.467224,-0.036072,-0.168793,-0.0032979999999999997,0.0014759999999999999,0.000648,-32.869999,20.5,-9.5,2b
2019-07-15_124018:160,-0.46670500000000004,-0.034058,-0.169281,-0.003512,0.001628,0.0008619999999999999,-32.869999,20.5,-9.5,2b
2019-07-15_124018:180,-0.46670500000000004,-0.035065,-0.168274,-0.003939,0.00172,0.000648,-32.869999,20.5,-9.5,2b
2019-07-15_124018:200,-0.46569799999999995,-0.036072,-0.170319,-0.004152,0.001598,0.000343,-34.0,20.870001000000002,-11.06,2b
2019-07-15_124018:220,-0.46469099999999997,-0.037108999999999996,-0.168793,-0.004213000000000001,0.001415,0.000587,-34.0,20.870001000000002,-11.06,2b
2019-07-15_124018:240,-0.46670500000000004,-0.036591000000000005,-0.1698,-0.004152,0.001537,0.000648,-34.369999,20.18,-11.06,2b
2019-07-15_124018:260,-0.466217,-0.038116000000000004,-0.1698,-0.004091,0.001537,0.0007700000000000001,-34.369999,20.18,-11.06,2b
2019-07-15_124018:280,-0.467743,-0.039124,-0.170807,-0.003878,0.0016589999999999999,0.001106,-34.369999,20.18,-11.06,2b
2019-07-15_124018:300,-0.467224,-0.037598,-0.171844,-0.0036950000000000004,0.001842,0.001106,-33.25,20.18,-11.06,2b
2019-07-15_124018:320,-0.466217,-0.039124,-0.170807,-0.0036340000000000005,0.001964,0.000984,-33.25,20.18,-11.06,2b
2019-07-15_124018:340,-0.46670500000000004,-0.039124,-0.171326,-0.003664,0.001964,0.0008619999999999999,-33.68,20.870001000000002,-9.87,2b
2019-07-15_124018:360,-0.46670500000000004,-0.039124,-0.171326,-0.003512,0.002116,0.000923,-33.68,20.870001000000002,-9.87,2b
2019-07-15_124018:380,-0.466217,-0.038116000000000004,-0.170319,-0.00339,0.001994,0.000831,-33.68,20.870001000000002,-9.87,2b
2019-07-15_124018:400,-0.46823100000000006,-0.039642000000000004,-0.171844,-0.003512,0.002055,0.000831,-33.68,20.870001000000002,-10.68,2b
2019-07-15_124018:420,-0.467743,-0.039124,-0.169281,-0.0036340000000000005,0.0023,0.000831,-33.68,20.870001000000002,-10.68,2b
2019-07-15_124018:440,-0.467743,-0.038116000000000004,-0.1698,-0.0036950000000000004,0.0023,0.000831,-33.25,20.5,-11.06,2b
2019-07-15_124018:460,-0.467224,-0.037598,-0.168793,-0.0037560000000000002,0.002696,0.0008619999999999999,-33.25,20.5,-11.06,2b
2019-07-15_124018:480,-0.46670500000000004,-0.038116000000000004,-0.168793,-0.003878,0.002757,0.000648,-33.25,20.5,-11.06,2b
2019-07-15_124018:500,-0.46670500000000004,-0.038116000000000004,-0.167755,-0.003939,0.002574,0.000709,-33.68,19.75,-11.5,2b
2019-07-15_124018:520,-0.467224,-0.036591000000000005,-0.166229,-0.003817,0.002513,0.000831,-33.68,19.75,-11.5,2b
2019-07-15_124018:540,-0.466217,-0.037108999999999996,-0.165741,-0.003939,0.0024519999999999998,0.001045,-34.369999,20.18,-10.25,2b
2019-07-15_124018:560,-0.466217,-0.037108999999999996,-0.165222,-0.003939,0.002513,0.00132,-34.369999,20.18,-10.25,2b
2019-07-15_124018:580,-0.466217,-0.037108999999999996,-0.165741,-0.003817,0.002391,0.001258,-34.369999,20.18,-10.25,2b
2019-07-15_124018:600,-0.463654,-0.036591000000000005,-0.167755,-0.004152,0.001964,0.001258,-32.869999,20.870001000000002,-10.68,2b
2019-07-15_124018:620,-0.465179,-0.036591000000000005,-0.166748,-0.004152,0.001628,0.001655,-32.869999,20.870001000000002,-10.68,2b
2019-07-15_124018:640,-0.467743,-0.038635,-0.167267,-0.004336,0.0012619999999999999,0.001655,-33.25,21.25,-11.06,2b
2019-07-15_124018:660,-0.46875,-0.039124,-0.166229,-0.004275,0.001353,0.001503,-33.25,21.25,-11.06,2b
2019-07-15_124018:680,-0.46875,-0.039642000000000004,-0.166229,-0.004152,0.0014759999999999999,0.001564,-33.25,21.25,-11.06,2b
2019-07-15_124018:700,-0.46823100000000006,-0.039642000000000004,-0.166748,-0.004213000000000001,0.001598,0.001258,-34.0,21.18,-10.68,2b
2019-07-15_124018:720,-0.467224,-0.038635,-0.163696,-0.004091,0.001964,0.002052,-34.0,21.18,-10.68,2b
2019-07-15_124018:740,-0.467224,-0.040161,-0.167267,-0.004091,0.001994,0.002754,-34.0,21.18,-10.68,2b
2019-07-15_124018:760,-0.46417200000000003,-0.040161,-0.168274,-0.004671,0.0019030000000000002,0.002235,-33.68,20.870001000000002,-10.68,2b
2019-07-15_124018:780,-0.466217,-0.041168,-0.167267,-0.004671,0.0012619999999999999,0.001045,-33.68,20.870001000000002,-10.68,2b
2019-07-15_124018:800,-0.467743,-0.042694,-0.168793,-0.004671,0.000682,0.000404,-34.0,20.5,-10.25,2b
2019-07-15_124018:820,-0.46670500000000004,-0.042694,-0.166748,-0.004275,0.000468,0.001258,-34.0,20.5,-10.25,2b
2019-07-15_124018:840,-0.467743,-0.042694,-0.168274,-0.004091,0.000865,0.001625,-33.25,20.18,-9.87,2b
2019-07-15_124018:860,-0.46875,-0.043701,-0.169281,-0.004,0.001201,0.000831,-33.25,20.18,-9.87,2b
2019-07-15_124018:880,-0.46823100000000006,-0.042694,-0.167755,-0.003573,0.001598,0.000465,-33.25,20.18,-9.87,2b
2019-07-15_124018:900,-0.46875,-0.041687,-0.1698,-0.003176,0.001964,0.000129,-34.369999,20.18,-9.87,2b
2019-07-15_124018:920,-0.467224,-0.039642000000000004,-0.167755,-0.0029010000000000004,0.002055,0.000129,-34.369999,20.18,-9.87,2b
2019-07-15_124018:940,-0.46670500000000004,-0.039642000000000004,-0.168274,-0.002779,0.002116,0.000343,-32.869999,20.18,-10.68,2b
2019-07-15_124018:960,-0.46569799999999995,-0.038116000000000004,-0.168793,-0.002932,0.002116,0.000404,-32.869999,20.18,-10.68,2b
2019-07-15_124018:980,-0.467224,-0.037598,-0.167267,-0.003054,0.001964,0.000465,-32.869999,20.18,-10.68,2b
2019-07-15_124019:000,-0.467224,-0.038635,-0.166748,-0.00339,0.002055,0.000343,-33.68,20.5,-9.87,2b
2019-07-15_124019:020,-0.46670500000000004,-0.038635,-0.167267,-0.0036950000000000004,0.001964,0.000129,-33.68,20.5,-9.87,2b
2019-07-15_124019:040,-0.467224,-0.038635,-0.167267,-0.0037560000000000002,0.001842,0.000221,-33.68,20.5,-9.87,2b
2019-07-15_124019:060,-0.46670500000000004,-0.039642000000000004,-0.169281,-0.003817,0.001994,0.000343,-33.25,20.18,-10.68,2b
2019-07-15_124019:080,-0.466217,-0.039124,-0.168793,-0.0037560000000000002,0.001994,0.0008619999999999999,-33.25,20.18,-10.68,2b
2019-07-15_124019:100,-0.467743,-0.039642000000000004,-0.167267,-0.0036950000000000004,0.001994,0.001167,-32.869999,20.5,-10.68,2b
2019-07-15_124019:120,-0.467743,-0.039642000000000004,-0.167755,-0.003817,0.002177,0.000404,-32.869999,20.5,-10.68,2b
2019-07-15_124019:140,-0.46670500000000004,-0.040649,-0.167267,-0.0036340000000000005,0.002177,0.000831,-32.869999,20.5,-10.68,2b
2019-07-15_124019:160,-0.46823100000000006,-0.040649,-0.168274,-0.0036950000000000004,0.001994,0.001045,-34.0,20.5,-9.5,2b
2019-07-15_124019:180,-0.467224,-0.039642000000000004,-0.165222,-0.003939,0.002239,0.000923,-34.0,20.5,-9.5,2b
2019-07-15_124019:200,-0.46875,-0.040161,-0.166229,-0.004091,0.002116,0.000984,-33.25,20.870001000000002,-10.25,2b
2019-07-15_124019:220,-0.467224,-0.041168,-0.163177,-0.004336,0.0023,0.00016,-33.25,20.870001000000002,-10.25,2b
2019-07-15_124019:240,-0.467224,-0.042175,-0.166229,-0.003939,0.002177,-0.00011499999999999999,-33.25,20.870001000000002,-10.25,2b
2019-07-15_124019:260,-0.467743,-0.043701,-0.166229,-0.003573,0.001994,0.00016,-33.25,20.870001000000002,-10.25,2b
2019-07-15_124019:280,-0.46875,-0.040161,-0.163696,-0.0032979999999999997,0.002055,0.000221,-33.25,20.870001000000002,-10.25,2b
2019-07-15_124019:300,-0.467743,-0.041168,-0.165222,-0.002932,0.002116,0.000465,-33.68,20.5,-9.5,2b
2019-07-15_124019:320,-0.46875,-0.038116000000000004,-0.164703,-0.0028399999999999996,0.002116,0.000526,-33.68,20.5,-9.5,2b
2019-07-15_124019:340,-0.467224,-0.038635,-0.163696,-0.003176,0.002055,0.000648,-33.68,20.5,-9.5,2b
2019-07-15_124019:360,-0.46569799999999995,-0.038116000000000004,-0.163696,-0.003512,0.002055,0.0007700000000000001,-32.5,20.18,-9.87,2b
2019-07-15_124019:380,-0.46569799999999995,-0.039124,-0.164215,-0.004,0.001964,0.000343,-32.5,20.18,-9.87,2b
2019-07-15_124019:400,-0.46670500000000004,-0.039642000000000004,-0.165222,-0.00403,0.0016589999999999999,0.00016,-32.5,20.18,-9.06,2b
2019-07-15_124019:420,-0.467224,-0.041168,-0.164215,-0.004091,0.0017809999999999998,0.000343,-32.5,20.18,-9.06,2b
2019-07-15_124019:440,-0.46823100000000006,-0.040161,-0.165741,-0.003939,0.001537,0.000496,-32.5,20.18,-9.06,2b
2019-07-15_124019:460,-0.467743,-0.041168,-0.164703,-0.003664,0.0016589999999999999,0.000709,-34.0,20.18,-9.5,2b
2019-07-15_124019:480,-0.469757,-0.040161,-0.165222,-0.003237,0.001598,0.0007700000000000001,-34.0,20.18,-9.5,2b
2019-07-15_124019:500,-0.467743,-0.039124,-0.165222,-0.00339,0.001842,0.0008619999999999999,-33.25,20.5,-9.87,2b
2019-07-15_124019:520,-0.46875,-0.038635,-0.164703,-0.003573,0.00172,0.000831,-33.25,20.5,-9.87,2b
2019-07-15_124019:540,-0.467743,-0.039642000000000004,-0.166229,-0.0036340000000000005,0.0019030000000000002,0.000648,-33.25,20.5,-9.87,2b
2019-07-15_124019:560,-0.466217,-0.039642000000000004,-0.164703,-0.003939,0.001842,0.000709,-32.869999,20.870001000000002,-9.87,2b
2019-07-15_124019:580,-0.46823100000000006,-0.039124,-0.165222,-0.004152,0.001537,0.0007700000000000001,-32.869999,20.870001000000002,-9.87,2b
2019-07-15_124019:600,-0.46875,-0.039124,-0.165741,-0.004,0.001537,0.000923,-34.0,20.870001000000002,-10.68,2b
2019-07-15_124019:620,-0.46875,-0.041168,-0.164703,-0.004152,0.0012619999999999999,0.001167,-34.0,20.870001000000002,-10.68,2b
2019-07-15_124019:640,-0.469757,-0.041168,-0.164215,-0.004,0.0019030000000000002,0.001258,-34.0,20.870001000000002,-10.68,2b
2019-07-15_124019:660,-0.467743,-0.040649,-0.163696,-0.004,0.001964,0.0008619999999999999,-33.25,20.18,-10.25,2b
2019-07-15_124019:680,-0.46823100000000006,-0.041168,-0.165741,-0.003939,0.0019030000000000002,0.000923,-33.25,20.18,-10.25,2b
2019-07-15_124019:700,-0.46670500000000004,-0.041687,-0.164215,-0.0037560000000000002,0.001842,0.001228,-32.869999,20.18,-9.5,2b
2019-07-15_124019:720,-0.46926899999999994,-0.041687,-0.164215,-0.003878,0.001842,0.001167,-32.869999,20.18,-9.5,2b
2019-07-15_124019:740,-0.46926899999999994,-0.040649,-0.164703,-0.003664,0.001964,0.000923,-32.869999,20.18,-9.5,2b
2019-07-15_124019:760,-0.46875,-0.040161,-0.163696,-0.0036950000000000004,0.0017809999999999998,0.0008619999999999999,-33.25,20.75,-9.87,2b
2019-07-15_124019:780,-0.467224,-0.041687,-0.163696,-0.0037560000000000002,0.001964,0.0007700000000000001,-33.25,20.75,-9.87,2b
2019-07-15_124019:800,-0.466217,-0.041687,-0.163696,-0.003878,0.0016589999999999999,0.000587,-34.0,20.870001000000002,-11.87,2b
2019-07-15_124019:820,-0.467743,-0.042175,-0.163696,-0.0037560000000000002,0.001537,0.000526,-34.0,20.870001000000002,-11.87,2b
2019-07-15_124019:840,-0.46823100000000006,-0.041687,-0.165222,-0.003664,0.0014759999999999999,0.000709,-34.0,20.870001000000002,-11.87,2b
2019-07-15_124019:860,-0.46926899999999994,-0.042694,-0.164215,-0.0036340000000000005,0.00114,0.000404,-32.18,20.18,-10.25,2b
2019-07-15_124019:880,-0.470276,-0.041687,-0.163696,-0.003512,0.001537,0.000526,-32.18,20.18,-10.25,2b
2019-07-15_124019:900,-0.47079499999999996,-0.042175,-0.164703,-0.0032979999999999997,0.001537,0.0007700000000000001,-33.25,20.5,-10.25,2b
2019-07-15_124019:920,-0.469757,-0.041687,-0.163696,-0.00339,0.001842,0.00028199999999999997,-33.25,20.5,-10.25,2b
2019-07-15_124019:940,-0.467224,-0.040649,-0.162689,-0.003512,0.002116,0.000709,-33.25,20.5,-10.25,2b
2019-07-15_124019:960,-0.467224,-0.041168,-0.164215,-0.0034509999999999996,0.0023,0.001258,-33.68,21.559998999999998,-10.25,2b
2019-07-15_124019:980,-0.466217,-0.040649,-0.163696,-0.004,0.001994,0.000648,-33.68,21.559998999999998,-10.25,2b
2019-07-15_124020:000,-0.46670500000000004,-0.042694,-0.163177,-0.004152,0.001537,-0.00045099999999999996,-33.25,20.5,-10.25,2b
2019-07-15_124020:020,-0.469757,-0.041168,-0.164215,-0.00403,0.0008960000000000001,-0.000634,-33.25,20.5,-10.25,2b
2019-07-15_124020:040,-0.467743,-0.041687,-0.164703,-0.0037560000000000002,0.0008960000000000001,0.000465,-33.25,20.5,-10.25,2b
2019-07-15_124020:060,-0.467743,-0.041687,-0.165222,-0.0036340000000000005,0.001018,0.000984,-33.68,20.5,-11.5,2b
2019-07-15_124020:080,-0.46926899999999994,-0.040161,-0.165222,-0.00339,0.00114,0.000526,-33.68,20.5,-11.5,2b
2019-07-15_124020:100,-0.471283,-0.039124,-0.170807,-0.00339,0.0014759999999999999,0.000404,-34.0,20.5,-9.06,2b
2019-07-15_124020:120,-0.465179,-0.038635,-0.159119,-0.004091,0.0024519999999999998,0.000404,-34.0,20.5,-9.06,2b
2019-07-15_124020:140,-0.46670500000000004,-0.039124,-0.161652,-0.003939,0.0019030000000000002,0.000984,-34.0,20.5,-9.06,2b
2019-07-15_124020:160,-0.466217,-0.037598,-0.161652,-0.0036340000000000005,0.0014759999999999999,0.0007700000000000001,-33.25,21.18,-9.5,2b
2019-07-15_124020:180,-0.46670500000000004,-0.037108999999999996,-0.163177,-0.003817,0.001201,0.000984,-33.25,21.18,-9.5,2b
2019-07-15_124020:200,-0.46670500000000004,-0.038116000000000004,-0.164215,-0.004397,0.000682,0.001442,-32.5,20.870001000000002,-10.68,2b
2019-07-15_124020:220,-0.46875,-0.038635,-0.16217,-0.0048850000000000005,0.000468,0.001381,-32.5,20.870001000000002,-10.68,2b
2019-07-15_124020:240,-0.467224,-0.038116000000000004,-0.164703,-0.005068,0.000285,0.001258,-32.5,20.870001000000002,-10.68,2b
2019-07-15_124020:260,-0.46823100000000006,-0.039642000000000004,-0.164703,-0.005221,0.00016299999999999998,0.000923,-33.68,21.559998999999998,-9.5,2b
2019-07-15_124020:280,-0.46875,-0.040649,-0.164703,-0.005221,0.000468,0.001167,-33.68,21.559998999999998,-9.5,2b
2019-07-15_124020:300,-0.46823100000000006,-0.039642000000000004,-0.166229,-0.005129,0.000621,0.001716,-34.0,20.870001000000002,-10.25,2b
2019-07-15_124020:320,-0.467224,-0.042694,-0.166229,-0.0048850000000000005,0.000865,0.001991,-34.0,20.870001000000002,-10.25,2b
2019-07-15_124020:340,-0.46823100000000006,-0.041168,-0.166748,-0.004793,0.000682,0.001625,-34.0,20.870001000000002,-10.25,2b
2019-07-15_124020:360,-0.470276,-0.040161,-0.167267,-0.004732,0.000865,0.0026320000000000002,-33.25,20.5,-9.87,2b
2019-07-15_124020:380,-0.47079499999999996,-0.042694,-0.166748,-0.005007,0.0008960000000000001,0.002845,-33.25,20.5,-9.87,2b
2019-07-15_124020:400,-0.470276,-0.041687,-0.166748,-0.0051600000000000005,0.0012619999999999999,0.002693,-32.5,20.870001000000002,-10.68,2b
2019-07-15_124020:420,-0.46823100000000006,-0.044739,-0.164215,-0.005465,0.0016589999999999999,0.002357,-32.5,20.870001000000002,-10.68,2b
2019-07-15_124020:440,-0.46569799999999995,-0.044739,-0.166748,-0.005556,0.001994,0.001167,-32.5,20.870001000000002,-10.68,2b
2019-07-15_124020:460,-0.466217,-0.046265,-0.165222,-0.005221,0.002055,0.001045,-33.25,20.5,-9.5,2b
2019-07-15_124020:480,-0.467743,-0.046752999999999996,-0.166229,-0.004732,0.00172,0.001228,-33.25,20.5,-9.5,2b
2019-07-15_124020:500,-0.46926899999999994,-0.045226999999999996,-0.166748,-0.004152,0.0017809999999999998,0.001167,-33.68,21.559998999999998,-9.87,2b
2019-07-15_124020:520,-0.471283,-0.044739,-0.166229,-0.003664,0.0019030000000000002,0.001442,-33.68,21.559998999999998,-9.87,2b
2019-07-15_124020:540,-0.46926899999999994,-0.045226999999999996,-0.166229,-0.003664,0.0023,0.001167,-33.68,21.559998999999998,-9.87,2b
2019-07-15_124020:560,-0.46926899999999994,-0.043701,-0.167267,-0.003512,0.002361,0.001106,-32.18,20.870001000000002,-11.5,2b
2019-07-15_124020:580,-0.467743,-0.044219999999999995,-0.166748,-0.0036340000000000005,0.002574,0.0008619999999999999,-32.18,20.870001000000002,-11.5,2b
2019-07-15_124020:600,-0.46569799999999995,-0.044219999999999995,-0.166748,-0.003664,0.0024519999999999998,0.001167,-32.869999,20.75,-10.25,2b
2019-07-15_124020:620,-0.46875,-0.044219999999999995,-0.165741,-0.003664,0.002239,0.001106,-32.869999,20.75,-10.25,2b
2019-07-15_124020:640,-0.46926899999999994,-0.046265,-0.165741,-0.003664,0.002574,0.000709,-32.869999,20.75,-10.25,2b
2019-07-15_124020:660,-0.47280900000000003,-0.044739,-0.166229,-0.003664,0.002849,0.00016,-33.25,20.18,-9.87,2b
2019-07-15_124020:680,-0.465179,-0.044739,-0.158112,-0.003512,0.003368,7.000000000000001e-06,-33.25,20.18,-9.87,2b
2019-07-15_124020:700,-0.469757,-0.043701,-0.163177,-0.003237,0.003032,0.000129,-32.869999,21.18,-10.25,2b
2019-07-15_124020:720,-0.46823100000000006,-0.043213,-0.160645,-0.002657,0.002849,0.000465,-32.869999,21.18,-10.25,2b
2019-07-15_124020:740,-0.46823100000000006,-0.041687,-0.16217,-0.002932,0.002849,0.000496,-32.869999,21.18,-10.25,2b
2019-07-15_124020:760,-0.46670500000000004,-0.042175,-0.161652,-0.002932,0.002757,0.000526,-34.369999,20.870001000000002,-9.87,2b
2019-07-15_124020:780,-0.46569799999999995,-0.042175,-0.161652,-0.00339,0.002757,0.000343,-34.369999,20.870001000000002,-9.87,2b
2019-07-15_124020:800,-0.46670500000000004,-0.042175,-0.160645,-0.003512,0.002239,6.8e-05,-33.25,21.18,-9.87,2b
2019-07-15_124020:820,-0.46875,-0.043701,-0.161163,-0.0036950000000000004,0.00172,0.000221,-33.25,21.18,-9.87,2b
2019-07-15_124020:840,-0.46926899999999994,-0.044219999999999995,-0.159637,-0.003939,0.001964,0.000129,-33.25,21.18,-9.87,2b
2019-07-15_124020:860,-0.46823100000000006,-0.042694,-0.161163,-0.00403,0.001598,7.000000000000001e-06,-34.0,19.75,-10.68,2b
2019-07-15_124020:880,-0.46823100000000006,-0.044739,-0.161163,-0.003878,0.001628,7.000000000000001e-06,-34.0,19.75,-10.68,2b
2019-07-15_124020:900,-0.46926899999999994,-0.044219999999999995,-0.161163,-0.0037560000000000002,0.0014759999999999999,0.000129,-32.869999,20.870001000000002,-10.25,2b
2019-07-15_124020:920,-0.469757,-0.042694,-0.160645,-0.003664,0.001415,0.000221,-32.869999,20.870001000000002,-10.25,2b
2019-07-15_124020:940,-0.46926899999999994,-0.043213,-0.161652,-0.0036340000000000005,0.0014759999999999999,0.000129,-32.869999,20.870001000000002,-10.25,2b
2019-07-15_124020:960,-0.46875,-0.044219999999999995,-0.162689,-0.0034509999999999996,0.0014759999999999999,-0.000176,-33.25,21.18,-8.25,2b
2019-07-15_124020:980,-0.467743,-0.042175,-0.161652,-0.0033280000000000002,0.001415,-0.00023700000000000001,-33.25,21.18,-8.25,2b
2019-07-15_124021:000,-0.466217,-0.042175,-0.163696,-0.003573,0.001353,6.8e-05,-33.68,20.870001000000002,-10.25,2b
2019-07-15_124021:020,-0.466217,-0.041168,-0.160645,-0.0033280000000000002,0.0009570000000000001,0.00028199999999999997,-33.68,20.870001000000002,-10.25,2b
2019-07-15_124021:040,-0.46823100000000006,-0.042694,-0.162689,-0.0032979999999999997,0.000682,-0.00023700000000000001,-33.68,20.870001000000002,-10.25,2b
2019-07-15_124021:060,-0.471283,-0.041168,-0.161652,-0.0032979999999999997,0.001018,-0.000328,-33.68,21.559998999999998,-10.25,2b
2019-07-15_124021:080,-0.471283,-0.039642000000000004,-0.162689,-0.0032979999999999997,0.0010789999999999999,-0.000176,-33.68,21.559998999999998,-10.25,2b
2019-07-15_124021:100,-0.470276,-0.040649,-0.163696,-0.003512,0.001201,0.00028199999999999997,-32.869999,20.5,-9.87,2b
2019-07-15_124021:120,-0.46823100000000006,-0.039124,-0.161163,-0.003817,0.0014759999999999999,0.001564,-32.869999,20.5,-9.87,2b
2019-07-15_124021:140,-0.46875,-0.042694,-0.162689,-0.004427,0.001353,0.001258,-32.869999,20.5,-9.87,2b
2019-07-15_124021:160,-0.467743,-0.042175,-0.163696,-0.00461,0.00114,0.000709,-34.0,20.5,-10.68,2b
2019-07-15_124021:180,-0.46875,-0.044219999999999995,-0.162689,-0.004397,0.000621,-0.000512,-34.0,20.5,-10.68,2b
2019-07-15_124021:200,-0.46926899999999994,-0.044219999999999995,-0.163696,-0.0037560000000000002,0.000499,-0.000573,-33.68,20.5,-8.68,2b
2019-07-15_124021:220,-0.470276,-0.043701,-0.162689,-0.003237,0.000346,0.000923,-33.68,20.5,-8.68,2b
2019-07-15_124021:240,-0.46875,-0.042694,-0.165741,-0.0028399999999999996,0.000743,0.001045,-33.68,20.5,-8.68,2b
2019-07-15_124021:260,-0.470276,-0.040161,-0.165222,-0.002993,0.001353,0.000587,-33.25,20.18,-10.25,2b
2019-07-15_124021:280,-0.470276,-0.040649,-0.163177,-0.003054,0.001628,0.00016,-33.25,20.18,-10.25,2b
2019-07-15_124021:300,-0.467743,-0.041168,-0.163696,-0.00339,0.001842,-5.4000000000000005e-05,-33.25,20.5,-10.68,2b
2019-07-15_124021:320,-0.46823100000000006,-0.041168,-0.161652,-0.0034509999999999996,0.001842,0.000496,-33.25,20.5,-10.68,2b
2019-07-15_124021:340,-0.46875,-0.040649,-0.161163,-0.0036340000000000005,0.001842,0.000648,-33.25,20.5,-10.68,2b
2019-07-15_124021:360,-0.46875,-0.040161,-0.162689,-0.0036950000000000004,0.001842,0.000923,-32.869999,20.5,-11.06,2b
2019-07-15_124021:380,-0.467743,-0.040161,-0.162689,-0.003939,0.0017809999999999998,0.001106,-32.869999,20.5,-11.06,2b
2019-07-15_124021:400,-0.465179,-0.042694,-0.163177,-0.003939,0.001415,0.0007700000000000001,-33.68,21.18,-10.68,2b
2019-07-15_124021:420,-0.463654,-0.043701,-0.16217,-0.003878,0.0009570000000000001,0.000221,-33.68,21.18,-10.68,2b
2019-07-15_124021:440,-0.46875,-0.043213,-0.163696,-0.0036340000000000005,0.00056,6.8e-05,-33.68,21.18,-10.68,2b
2019-07-15_124021:460,-0.46926899999999994,-0.041687,-0.163696,-0.0033280000000000002,0.000468,0.000465,-33.25,21.18,-9.87,2b
2019-07-15_124021:480,-0.471283,-0.040649,-0.16217,-0.003176,0.0008960000000000001,0.001228,-33.25,21.18,-9.87,2b
2019-07-15_124021:500,-0.471283,-0.040649,-0.165222,-0.003237,0.001537,0.00132,-34.0,20.5,-9.87,2b
2019-07-15_124021:520,-0.46875,-0.040649,-0.163696,-0.0037560000000000002,0.001842,0.000648,-34.0,20.5,-9.87,2b
2019-07-15_124021:540,-0.46875,-0.039642000000000004,-0.164215,-0.003939,0.001598,0.001503,-34.0,20.5,-9.87,2b
2019-07-15_124021:560,-0.467224,-0.042694,-0.164703,-0.004397,0.0014759999999999999,0.001045,-33.25,20.5,-9.87,2b
2019-07-15_124021:580,-0.46670500000000004,-0.040649,-0.163696,-0.004793,0.001598,0.000984,-33.25,20.5,-9.87,2b
2019-07-15_124021:600,-0.46823100000000006,-0.044739,-0.164703,-0.004549,0.001598,0.001045,-33.25,20.870001000000002,-10.68,2b
2019-07-15_124021:620,-0.467743,-0.043701,-0.162689,-0.004427,0.001598,0.000587,-33.25,20.870001000000002,-10.68,2b
2019-07-15_124021:640,-0.46875,-0.044739,-0.165222,-0.00403,0.001598,0.0007700000000000001,-33.25,20.870001000000002,-10.68,2b
2019-07-15_124021:660,-0.467743,-0.044219999999999995,-0.164703,-0.003573,0.001842,0.0008619999999999999,-33.25,20.870001000000002,-10.68,2b
2019-07-15_124021:680,-0.469757,-0.043701,-0.162689,-0.003176,0.001598,0.001045,-33.25,20.870001000000002,-10.68,2b
2019-07-15_124021:700,-0.471283,-0.043213,-0.165222,-0.0028399999999999996,0.0016589999999999999,0.0008619999999999999,-33.68,20.5,-11.5,2b
2019-07-15_124021:720,-0.470276,-0.041168,-0.163177,-0.002932,0.002055,0.000923,-33.68,20.5,-11.5,2b
2019-07-15_124021:740,-0.46875,-0.040649,-0.162689,-0.0031149999999999997,0.001994,0.001106,-33.68,20.5,-11.5,2b
2019-07-15_124021:760,-0.466217,-0.041168,-0.163177,-0.0036950000000000004,0.001994,0.001228,-33.68,20.75,-10.68,2b
2019-07-15_124021:780,-0.46670500000000004,-0.040161,-0.163177,-0.004213000000000001,0.0017809999999999998,0.001167,-33.68,20.75,-10.68,2b
2019-07-15_124021:800,-0.46926899999999994,-0.043213,-0.161652,-0.004549,0.0016589999999999999,0.00132,-33.68,20.75,-10.25,2b
2019-07-15_124021:820,-0.46875,-0.044219999999999995,-0.16217,-0.00461,0.001842,0.001442,-33.68,20.75,-10.25,2b
2019-07-15_124021:840,-0.46875,-0.044219999999999995,-0.161163,-0.004488000000000001,0.00172,0.001258,-33.68,20.75,-10.25,2b
2019-07-15_124021:860,-0.46926899999999994,-0.044739,-0.161652,-0.004336,0.0016589999999999999,0.001045,-33.68,20.18,-9.5,2b
2019-07-15_124021:880,-0.46823100000000006,-0.044739,-0.162689,-0.00403,0.0016589999999999999,0.001045,-33.68,20.18,-9.5,2b
2019-07-15_124021:900,-0.467224,-0.044739,-0.162689,-0.0036950000000000004,0.0017809999999999998,0.000984,-33.68,20.18,-10.68,2b
2019-07-15_124021:920,-0.46569799999999995,-0.043701,-0.16217,-0.0037560000000000002,0.00172,0.001228,-33.68,20.18,-10.68,2b
2019-07-15_124021:940,-0.467224,-0.044219999999999995,-0.163177,-0.003573,0.001415,0.001228,-33.68,20.18,-10.68,2b
2019-07-15_124021:960,-0.467743,-0.042694,-0.16217,-0.003878,0.0010789999999999999,0.001106,-32.5,20.18,-9.5,2b
2019-07-15_124021:980,-0.46875,-0.043213,-0.16217,-0.003817,0.00114,0.001228,-32.5,20.18,-9.5,2b
2019-07-15_124022:000,-0.46926899999999994,-0.043213,-0.163177,-0.003878,0.0010789999999999999,0.001381,-33.68,20.870001000000002,-11.06,2b
2019-07-15_124022:020,-0.469757,-0.044219999999999995,-0.161652,-0.003939,0.001353,0.001625,-33.68,20.870001000000002,-11.06,2b
2019-07-15_124022:040,-0.469757,-0.044219999999999995,-0.163696,-0.004091,0.0014759999999999999,0.001625,-33.68,20.870001000000002,-11.06,2b
2019-07-15_124022:060,-0.46926899999999994,-0.044739,-0.163177,-0.004213000000000001,0.0016589999999999999,0.001655,-33.68,21.18,-11.06,2b
2019-07-15_124022:080,-0.467224,-0.044219999999999995,-0.161163,-0.004152,0.001598,0.001503,-33.68,21.18,-11.06,2b
2019-07-15_124022:100,-0.46670500000000004,-0.045226999999999996,-0.163177,-0.004275,0.001598,0.001625,-32.869999,20.75,-9.87,2b
2019-07-15_124022:120,-0.46823100000000006,-0.045745999999999995,-0.160645,-0.00403,0.001353,0.001442,-32.869999,20.75,-9.87,2b
2019-07-15_124022:140,-0.46875,-0.045745999999999995,-0.162689,-0.003939,0.001201,0.00132,-32.869999,20.75,-9.87,2b
2019-07-15_124022:160,-0.469757,-0.045226999999999996,-0.161652,-0.00403,0.001292,0.001503,-33.25,20.5,-10.68,2b
2019-07-15_124022:180,-0.46926899999999994,-0.045745999999999995,-0.163177,-0.004152,0.001415,0.001503,-33.25,20.5,-10.68,2b
2019-07-15_124022:200,-0.46569799999999995,-0.046265,-0.162689,-0.004091,0.001628,0.001564,-33.68,20.5,-10.68,2b
2019-07-15_124022:220,-0.46670500000000004,-0.047791,-0.163696,-0.004275,0.001415,0.001228,-33.68,20.5,-10.68,2b
2019-07-15_124022:240,-0.46670500000000004,-0.047272,-0.163696,-0.004152,0.001201,0.0007700000000000001,-33.68,20.5,-10.68,2b
2019-07-15_124022:260,-0.46823100000000006,-0.046265,-0.164215,-0.003939,0.0012619999999999999,0.000923,-32.5,20.870001000000002,-9.87,2b
2019-07-15_124022:280,-0.47079499999999996,-0.045745999999999995,-0.164703,-0.003664,0.0014759999999999999,0.001228,-32.5,20.870001000000002,-9.87,2b
2019-07-15_124022:300,-0.47079499999999996,-0.046265,-0.163177,-0.0036340000000000005,0.001598,0.001442,-32.869999,20.75,-11.87,2b
2019-07-15_124022:320,-0.470276,-0.048279,-0.161652,-0.003512,0.0017809999999999998,0.000984,-32.869999,20.75,-11.87,2b
2019-07-15_124022:340,-0.469757,-0.045745999999999995,-0.161163,-0.003573,0.001994,0.001381,-32.869999,20.75,-11.87,2b
2019-07-15_124022:360,-0.46569799999999995,-0.046752999999999996,-0.161652,-0.003817,0.002177,0.001991,-32.869999,20.75,-10.68,2b
2019-07-15_124022:380,-0.46417200000000003,-0.046265,-0.161163,-0.004336,0.0019030000000000002,0.001258,-32.869999,20.75,-10.68,2b
2019-07-15_124022:400,-0.46670500000000004,-0.047791,-0.162689,-0.004488000000000001,0.0010789999999999999,0.000648,-33.25,21.18,-10.25,2b
2019-07-15_124022:420,-0.46823100000000006,-0.049316000000000006,-0.16217,-0.004427,0.0008039999999999999,-0.00023700000000000001,-33.25,21.18,-10.25,2b
2019-07-15_124022:440,-0.469757,-0.048279,-0.163177,-0.004091,0.00056,0.000496,-33.25,21.18,-10.25,2b
2019-07-15_124022:460,-0.46823100000000006,-0.049316000000000006,-0.164703,-0.003817,0.0008960000000000001,0.001228,-32.5,20.5,-10.68,2b
2019-07-15_124022:480,-0.467224,-0.047791,-0.163177,-0.00339,0.0010789999999999999,0.000923,-32.5,20.5,-10.68,2b
2019-07-15_124022:500,-0.466217,-0.047272,-0.162689,-0.00339,0.001201,0.000496,-32.869999,21.18,-11.87,2b
2019-07-15_124022:520,-0.469757,-0.046265,-0.163177,-0.003176,0.001415,0.00028199999999999997,-32.869999,21.18,-11.87,2b
2019-07-15_124022:540,-0.470276,-0.046265,-0.162689,-0.003176,0.0014759999999999999,7.000000000000001e-06,-32.869999,21.18,-11.87,2b
2019-07-15_124022:560,-0.46926899999999994,-0.047272,-0.164215,-0.003176,0.001598,6.8e-05,-33.25,19.75,-9.06,2b
2019-07-15_124022:580,-0.46823100000000006,-0.045226999999999996,-0.160645,-0.0031149999999999997,0.0019030000000000002,0.00016,-33.25,19.75,-9.06,2b
2019-07-15_124022:600,-0.46569799999999995,-0.044219999999999995,-0.161652,-0.0033280000000000002,0.0014759999999999999,0.000496,-34.25,19.75,-10.25,2b
2019-07-15_124022:620,-0.467743,-0.046265,-0.164215,-0.00339,0.001353,0.000343,-34.25,19.75,-10.25,2b
2019-07-15_124022:640,-0.467743,-0.044739,-0.163696,-0.003512,0.0012619999999999999,6.8e-05,-34.25,19.75,-10.25,2b
2019-07-15_124022:660,-0.467743,-0.046265,-0.164703,-0.003573,0.0009570000000000001,0.00028199999999999997,-32.869999,20.870001000000002,-10.25,2b
2019-07-15_124022:680,-0.46926899999999994,-0.045226999999999996,-0.16217,-0.0036340000000000005,0.0010789999999999999,0.000343,-32.869999,20.870001000000002,-10.25,2b
2019-07-15_124022:700,-0.470276,-0.046265,-0.16217,-0.003573,0.001292,0.000648,-33.25,20.870001000000002,-10.68,2b
2019-07-15_124022:720,-0.467743,-0.046265,-0.162689,-0.0036950000000000004,0.00172,0.001106,-33.25,20.870001000000002,-10.68,2b
2019-07-15_124022:740,-0.465179,-0.046752999999999996,-0.164703,-0.0036950000000000004,0.001842,0.000343,-33.25,20.870001000000002,-10.68,2b
2019-07-15_124022:760,-0.467224,-0.045745999999999995,-0.164215,-0.003664,0.0016589999999999999,0.000221,-33.25,20.75,-10.25,2b
2019-07-15_124022:780,-0.46823100000000006,-0.046752999999999996,-0.164215,-0.0034509999999999996,0.001292,0.001167,-33.25,20.75,-10.25,2b
2019-07-15_124022:800,-0.46926899999999994,-0.046752999999999996,-0.162689,-0.0036950000000000004,0.001018,0.000831,-33.25,20.5,-10.68,2b
2019-07-15_124022:820,-0.46823100000000006,-0.046752999999999996,-0.163696,-0.0036950000000000004,0.0014759999999999999,0.000831,-33.25,20.5,-10.68,2b
2019-07-15_124022:840,-0.467743,-0.047791,-0.163696,-0.004,0.0017809999999999998,0.000496,-33.25,20.5,-10.68,2b
2019-07-15_124022:860,-0.46823100000000006,-0.046752999999999996,-0.164703,-0.004,0.0019030000000000002,0.000129,-34.0,21.18,-9.5,2b
2019-07-15_124022:880,-0.467743,-0.047791,-0.163177,-0.003939,0.0019030000000000002,0.00016,-34.0,21.18,-9.5,2b
2019-07-15_124022:900,-0.46875,-0.046752999999999996,-0.164703,-0.003512,0.001415,0.00016,-32.869999,21.18,-10.25,2b
2019-07-15_124022:920,-0.46875,-0.048279,-0.163177,-0.002932,0.001598,0.000343,-32.869999,21.18,-10.25,2b
2019-07-15_124022:940,-0.46926899999999994,-0.044739,-0.162689,-0.002718,0.00172,0.00028199999999999997,-32.869999,21.18,-10.25,2b
2019-07-15_124022:960,-0.467743,-0.044739,-0.164215,-0.0025960000000000002,0.001994,0.000404,-33.25,21.18,-10.68,2b
2019-07-15_124022:980,-0.467224,-0.041687,-0.163177,-0.002779,0.002177,0.0007700000000000001,-33.25,21.18,-10.68,2b
2019-07-15_124023:000,-0.46875,-0.043701,-0.164215,-0.0033280000000000002,0.002239,0.000984,-32.5,21.18,-9.87,2b
2019-07-15_124023:020,-0.46823100000000006,-0.044219999999999995,-0.161163,-0.003664,0.002177,0.0008619999999999999,-32.5,21.18,-9.87,2b
2019-07-15_124023:040,-0.46875,-0.045226999999999996,-0.162689,-0.004152,0.002055,0.0007700000000000001,-32.5,21.18,-9.87,2b
2019-07-15_124023:060,-0.467224,-0.046265,-0.161163,-0.004275,0.002239,0.000831,-33.25,20.870001000000002,-9.87,2b
2019-07-15_124023:080,-0.46875,-0.047272,-0.161163,-0.004213000000000001,0.002116,0.000923,-33.25,20.870001000000002,-9.87,2b
2019-07-15_124023:100,-0.467743,-0.048798,-0.160645,-0.0037560000000000002,0.001994,0.0008619999999999999,-33.25,21.559998999999998,-9.87,2b
2019-07-15_124023:120,-0.467743,-0.046752999999999996,-0.160126,-0.003512,0.002055,0.000984,-33.25,21.559998999999998,-9.87,2b
2019-07-15_124023:140,-0.467224,-0.046752999999999996,-0.160126,-0.0032979999999999997,0.001964,0.001167,-33.25,21.559998999999998,-9.87,2b
2019-07-15_124023:160,-0.46823100000000006,-0.045745999999999995,-0.160645,-0.0032979999999999997,0.0016589999999999999,0.001258,-33.25,21.559998999999998,-11.06,2b
2019-07-15_124023:180,-0.46823100000000006,-0.046752999999999996,-0.161652,-0.00339,0.00172,0.00132,-33.25,21.559998999999998,-11.06,2b
2019-07-15_124023:200,-0.46926899999999994,-0.047272,-0.16217,-0.003573,0.0016589999999999999,0.001167,-33.25,21.18,-8.68,2b
2019-07-15_124023:220,-0.46823100000000006,-0.046265,-0.160645,-0.003664,0.0016589999999999999,0.001045,-33.25,21.18,-8.68,2b
2019-07-15_124023:240,-0.46875,-0.047272,-0.161652,-0.0036950000000000004,0.0017809999999999998,0.001167,-33.25,21.18,-8.68,2b
2019-07-15_124023:260,-0.467743,-0.047791,-0.161163,-0.004,0.001628,0.000984,-33.25,20.870001000000002,-9.87,2b
2019-07-15_124023:280,-0.46875,-0.048798,-0.160645,-0.004213000000000001,0.0016589999999999999,0.001045,-33.25,20.870001000000002,-9.87,2b
2019-07-15_124023:300,-0.46823100000000006,-0.048279,-0.160645,-0.00403,0.00172,0.0007700000000000001,-33.25,21.18,-9.87,2b
2019-07-15_124023:320,-0.46926899999999994,-0.048798,-0.160126,-0.003939,0.0017809999999999998,0.000587,-33.25,21.18,-9.87,2b
2019-07-15_124023:340,-0.46823100000000006,-0.047791,-0.161163,-0.003664,0.002055,0.0007700000000000001,-33.25,21.18,-9.87,2b
2019-07-15_124023:360,-0.46875,-0.048798,-0.160645,-0.003512,0.001964,0.000709,-32.869999,21.18,-9.87,2b
2019-07-15_124023:380,-0.470276,-0.047791,-0.160645,-0.0033280000000000002,0.002116,0.000648,-32.869999,21.18,-9.87,2b
2019-07-15_124023:400,-0.469757,-0.045745999999999995,-0.161163,-0.0033280000000000002,0.001994,0.000648,-33.68,21.559998999999998,-10.68,2b
2019-07-15_124023:420,-0.469757,-0.045226999999999996,-0.159119,-0.0036340000000000005,0.002391,0.000648,-33.68,21.559998999999998,-10.68,2b
2019-07-15_124023:440,-0.46823100000000006,-0.046752999999999996,-0.161652,-0.003817,0.002361,0.000709,-33.68,21.559998999999998,-10.68,2b
2019-07-15_124023:460,-0.467224,-0.047272,-0.161163,-0.00403,0.00172,0.000648,-33.68,20.870001000000002,-9.87,2b
2019-07-15_124023:480,-0.46670500000000004,-0.048798,-0.159637,-0.004213000000000001,0.001537,0.000923,-33.68,20.870001000000002,-9.87,2b
2019-07-15_124023:500,-0.469757,-0.048279,-0.160645,-0.004275,0.001292,0.000648,-34.0,21.559998999999998,-10.25,2b
2019-07-15_124023:520,-0.46926899999999994,-0.048798,-0.159119,-0.00403,0.001598,0.000496,-34.0,21.559998999999998,-10.25,2b
2019-07-15_124023:540,-0.47079499999999996,-0.048798,-0.161163,-0.003939,0.0016589999999999999,0.000404,-34.0,21.559998999999998,-10.25,2b
2019-07-15_124023:560,-0.469757,-0.047791,-0.160126,-0.0033280000000000002,0.00172,0.000404,-32.869999,21.18,-9.87,2b
2019-07-15_124023:580,-0.467224,-0.047272,-0.157074,-0.0032979999999999997,0.002055,0.001258,-32.869999,21.18,-9.87,2b
2019-07-15_124023:600,-0.46823100000000006,-0.046752999999999996,-0.158112,-0.003512,0.002055,0.001503,-31.75,21.18,-9.5,2b
2019-07-15_124023:620,-0.46875,-0.045745999999999995,-0.159119,-0.003939,0.001598,0.000709,-31.75,21.18,-9.5,2b
2019-07-15_124023:640,-0.46823100000000006,-0.046752999999999996,-0.160645,-0.004152,0.001292,0.000465,-31.75,21.18,-9.5,2b
2019-07-15_124023:660,-0.469757,-0.048279,-0.161652,-0.004732,0.0010789999999999999,7.000000000000001e-06,-32.869999,20.870001000000002,-10.68,2b
2019-07-15_124023:680,-0.46926899999999994,-0.048279,-0.160645,-0.004824,0.0009570000000000001,0.0008619999999999999,-32.869999,20.870001000000002,-10.68,2b
2019-07-15_124023:700,-0.467224,-0.049805,-0.160645,-0.004824,0.0009570000000000001,0.000984,-32.869999,21.18,-10.25,2b
2019-07-15_124023:720,-0.46926899999999994,-0.050323,-0.160645,-0.004671,0.001201,0.000343,-32.869999,21.18,-10.25,2b
2019-07-15_124023:740,-0.46875,-0.049316000000000006,-0.160645,-0.004213000000000001,0.0010789999999999999,0.00016,-32.869999,21.18,-10.25,2b
2019-07-15_124023:760,-0.469757,-0.049316000000000006,-0.160645,-0.003664,0.0014759999999999999,-0.000328,-32.5,21.18,-9.87,2b
2019-07-15_124023:780,-0.467743,-0.047272,-0.160126,-0.00339,0.001537,-0.000176,-32.5,21.18,-9.87,2b
2019-07-15_124023:800,-0.46926899999999994,-0.046752999999999996,-0.161163,-0.003054,0.001353,0.000465,-33.68,20.870001000000002,-9.06,2b
2019-07-15_124023:820,-0.46926899999999994,-0.045226999999999996,-0.160126,-0.0032979999999999997,0.001292,0.000221,-33.68,20.870001000000002,-9.06,2b
2019-07-15_124023:840,-0.46926899999999994,-0.045226999999999996,-0.161163,-0.0036340000000000005,0.001353,0.000343,-33.68,20.870001000000002,-9.06,2b
2019-07-15_124023:860,-0.467224,-0.044219999999999995,-0.160645,-0.00403,0.001415,0.000343,-33.25,20.75,-10.68,2b
2019-07-15_124023:880,-0.467743,-0.045226999999999996,-0.159637,-0.004397,0.0010789999999999999,0.00016,-33.25,20.75,-10.68,2b
2019-07-15_124023:900,-0.46823100000000006,-0.046265,-0.160645,-0.004824,0.0008039999999999999,6.8e-05,-32.869999,21.559998999999998,-9.87,2b
2019-07-15_124023:920,-0.470276,-0.046265,-0.160126,-0.004671,0.0008960000000000001,0.000221,-32.869999,21.559998999999998,-9.87,2b
2019-07-15_124023:940,-0.46926899999999994,-0.045745999999999995,-0.160645,-0.004549,0.00114,0.0007700000000000001,-32.869999,21.559998999999998,-9.87,2b
2019-07-15_124023:960,-0.469757,-0.047272,-0.161163,-0.004152,0.001353,0.001106,-33.68,21.18,-8.25,2b
2019-07-15_124023:980,-0.46823100000000006,-0.046265,-0.16217,-0.004152,0.00114,6.8e-05,-33.68,21.18,-8.25,2b
2019-07-15_124024:000,-0.46823100000000006,-0.046265,-0.162689,-0.003939,0.000865,0.0007700000000000001,-34.0,21.559998999999998,-10.25,2b
2019-07-15_124024:020,-0.46926899999999994,-0.047791,-0.161163,-0.00403,0.000621,0.001045,-34.0,21.559998999999998,-10.25,2b
2019-07-15_124024:040,-0.470276,-0.046752999999999996,-0.16217,-0.004091,0.0008960000000000001,0.0007700000000000001,-34.0,21.559998999999998,-10.25,2b
2019-07-15_124024:060,-0.470276,-0.049316000000000006,-0.161652,-0.004275,0.001018,0.000526,-32.869999,20.5,-9.87,2b
2019-07-15_124024:080,-0.469757,-0.048279,-0.162689,-0.004397,0.0014759999999999999,-5.4000000000000005e-05,-32.869999,20.5,-9.87,2b
2019-07-15_124024:100,-0.467224,-0.050323,-0.163177,-0.003878,0.00172,0.00028199999999999997,-34.0,21.559998999999998,-11.5,2b
2019-07-15_124024:120,-0.46823100000000006,-0.049805,-0.164215,-0.0036950000000000004,0.0016589999999999999,0.00016,-34.0,21.559998999999998,-11.5,2b
2019-07-15_124024:140,-0.469757,-0.048279,-0.161652,-0.00339,0.001537,7.000000000000001e-06,-34.0,21.559998999999998,-11.5,2b
2019-07-15_124024:160,-0.46926899999999994,-0.047791,-0.163177,-0.0028399999999999996,0.0016589999999999999,0.00016,-34.0,20.75,-10.68,2b
2019-07-15_124024:180,-0.469757,-0.045745999999999995,-0.160126,-0.0029010000000000004,0.002116,0.000221,-34.0,20.75,-10.68,2b
2019-07-15_124024:200,-0.46875,-0.044219999999999995,-0.159637,-0.0028399999999999996,0.001994,0.000343,-32.869999,20.5,-10.68,2b
2019-07-15_124024:220,-0.467743,-0.044739,-0.161163,-0.003512,0.002055,0.000221,-32.869999,20.5,-10.68,2b
2019-07-15_124024:240,-0.467224,-0.043213,-0.160645,-0.0037560000000000002,0.00172,6.8e-05,-32.869999,20.5,-10.68,2b
2019-07-15_124024:260,-0.467224,-0.044219999999999995,-0.161652,-0.0037560000000000002,0.001598,0.000129,-32.869999,20.5,-9.87,2b
2019-07-15_124024:280,-0.46823100000000006,-0.044739,-0.160645,-0.003817,0.001353,0.000221,-32.869999,20.5,-9.87,2b
2019-07-15_124024:300,-0.471283,-0.044739,-0.16217,-0.003939,0.0014759999999999999,0.000587,-33.68,20.870001000000002,-9.06,2b
2019-07-15_124024:320,-0.469757,-0.045226999999999996,-0.161163,-0.004,0.001537,0.0007700000000000001,-33.68,20.870001000000002,-9.06,2b
2019-07-15_124024:340,-0.469757,-0.046265,-0.161163,-0.0036950000000000004,0.0017809999999999998,0.001106,-33.68,20.870001000000002,-9.06,2b
2019-07-15_124024:360,-0.467743,-0.046265,-0.160645,-0.003878,0.0014759999999999999,0.000831,-32.5,20.870001000000002,-9.87,2b
2019-07-15_124024:380,-0.467224,-0.046265,-0.161652,-0.0036950000000000004,0.001353,0.0007700000000000001,-32.5,20.870001000000002,-9.87,2b
2019-07-15_124024:400,-0.46926899999999994,-0.046265,-0.160645,-0.003664,0.001537,0.000709,-32.5,20.870001000000002,-9.87,2b
2019-07-15_124024:420,-0.46926899999999994,-0.047272,-0.160645,-0.0036950000000000004,0.001415,0.000404,-32.5,20.870001000000002,-9.87,2b
2019-07-15_124024:440,-0.46926899999999994,-0.047272,-0.161163,-0.003664,0.0016589999999999999,0.0007700000000000001,-32.5,20.870001000000002,-9.87,2b
2019-07-15_124024:460,-0.46926899999999994,-0.046752999999999996,-0.160645,-0.003512,0.0012619999999999999,0.000831,-32.869999,20.870001000000002,-11.06,2b
2019-07-15_124024:480,-0.46926899999999994,-0.044739,-0.160645,-0.0036340000000000005,0.0012619999999999999,0.000709,-32.869999,20.870001000000002,-11.06,2b
2019-07-15_124024:500,-0.46926899999999994,-0.045226999999999996,-0.159637,-0.0037560000000000002,0.0014759999999999999,0.000648,-33.68,20.870001000000002,-9.06,2b
2019-07-15_124024:520,-0.469757,-0.046265,-0.159119,-0.003817,0.00172,0.000648,-33.68,20.870001000000002,-9.06,2b
2019-07-15_124024:540,-0.46569799999999995,-0.046752999999999996,-0.160126,-0.004,0.001415,0.000526,-33.68,20.870001000000002,-9.06,2b
2019-07-15_124024:560,-0.467224,-0.046752999999999996,-0.160645,-0.0037560000000000002,0.00114,0.000526,-33.68,21.18,-9.5,2b
2019-07-15_124024:580,-0.46926899999999994,-0.046752999999999996,-0.160645,-0.003878,0.0010789999999999999,0.000496,-33.68,21.18,-9.5,2b
2019-07-15_124024:600,-0.469757,-0.046265,-0.160126,-0.0036340000000000005,0.001018,0.000587,-33.68,20.18,-9.87,2b
2019-07-15_124024:620,-0.469757,-0.045745999999999995,-0.161652,-0.0036340000000000005,0.001353,0.000648,-33.68,20.18,-9.87,2b
2019-07-15_124024:640,-0.46926899999999994,-0.045226999999999996,-0.161163,-0.0036950000000000004,0.001353,0.0007700000000000001,-33.68,20.18,-9.87,2b
2019-07-15_124024:660,-0.46823100000000006,-0.045226999999999996,-0.16217,-0.003878,0.001353,0.001045,-32.5,20.75,-9.5,2b
2019-07-15_124024:680,-0.46875,-0.044739,-0.161163,-0.003939,0.001292,0.000923,-32.5,20.75,-9.5,2b
2019-07-15_124024:700,-0.467743,-0.044739,-0.161652,-0.00403,0.001201,0.001106,-33.25,20.75,-10.25,2b
2019-07-15_124024:720,-0.46875,-0.046265,-0.161652,-0.004213000000000001,0.0010789999999999999,0.0008619999999999999,-33.25,20.75,-10.25,2b
2019-07-15_124024:740,-0.46875,-0.045745999999999995,-0.163696,-0.004275,0.001353,0.000984,-33.25,20.75,-10.25,2b
2019-07-15_124024:760,-0.46875,-0.046752999999999996,-0.162689,-0.003878,0.001537,0.001258,-32.869999,20.870001000000002,-9.5,2b
2019-07-15_124024:780,-0.46823100000000006,-0.045226999999999996,-0.160645,-0.0037560000000000002,0.001598,0.001564,-32.869999,20.870001000000002,-9.5,2b
2019-07-15_124024:800,-0.469757,-0.046752999999999996,-0.16217,-0.0037560000000000002,0.00172,0.001258,-33.68,21.18,-9.5,2b
2019-07-15_124024:820,-0.46926899999999994,-0.047272,-0.161163,-0.003817,0.0019030000000000002,0.001228,-33.68,21.18,-9.5,2b
2019-07-15_124024:840,-0.471283,-0.044219999999999995,-0.159637,-0.003939,0.002177,0.001991,-33.68,21.18,-9.5,2b
2019-07-15_124024:860,-0.467224,-0.047272,-0.161163,-0.004091,0.002177,0.002052,-32.869999,21.18,-10.68,2b
2019-07-15_124024:880,-0.46569799999999995,-0.047272,-0.160126,-0.004336,0.001628,0.001106,-32.869999,21.18,-10.68,2b
2019-07-15_124024:900,-0.467224,-0.048798,-0.160126,-0.004275,0.0010789999999999999,0.00016,-33.25,20.75,-9.06,2b
2019-07-15_124024:920,-0.467224,-0.049316000000000006,-0.16217,-0.003939,0.000682,0.00016,-33.25,20.75,-9.06,2b
2019-07-15_124024:940,-0.46875,-0.047791,-0.159119,-0.003878,0.000499,0.001503,-33.25,20.75,-9.06,2b
2019-07-15_124024:960,-0.46823100000000006,-0.048279,-0.16217,-0.0037560000000000002,0.000682,0.001381,-33.25,21.18,-9.06,2b
2019-07-15_124024:980,-0.469757,-0.049805,-0.161163,-0.0036950000000000004,0.000865,0.000526,-33.25,21.18,-9.06,2b
2019-07-15_124025:000,-0.46875,-0.049316000000000006,-0.163696,-0.0036950000000000004,0.0012619999999999999,0.000496,-33.25,20.75,-9.87,2b
2019-07-15_124025:020,-0.46926899999999994,-0.048279,-0.16217,-0.003573,0.001353,0.000343,-33.25,20.75,-9.87,2b
2019-07-15_124025:040,-0.46823100000000006,-0.046265,-0.162689,-0.003512,0.0014759999999999999,0.0007700000000000001,-33.25,20.75,-9.87,2b
2019-07-15_124025:060,-0.46875,-0.047272,-0.16217,-0.00339,0.001598,0.000984,-32.869999,21.559998999999998,-9.87,2b
2019-07-15_124025:080,-0.467743,-0.046752999999999996,-0.160645,-0.0034509999999999996,0.0010789999999999999,0.000984,-32.869999,21.559998999999998,-9.87,2b
2019-07-15_124025:100,-0.467224,-0.046752999999999996,-0.161163,-0.0037560000000000002,0.0010789999999999999,0.001106,-33.68,21.18,-9.5,2b
2019-07-15_124025:120,-0.46670500000000004,-0.045745999999999995,-0.161652,-0.003878,0.000743,0.001167,-33.68,21.18,-9.5,2b
2019-07-15_124025:140,-0.46823100000000006,-0.046752999999999996,-0.161652,-0.004275,0.000743,0.001106,-33.68,21.18,-9.5,2b
2019-07-15_124025:160,-0.46823100000000006,-0.047791,-0.163696,-0.004549,0.000743,0.000984,-32.5,21.559998999999998,-10.25,2b
2019-07-15_124025:180,-0.469757,-0.047272,-0.161163,-0.004336,0.0010789999999999999,0.000984,-32.5,21.559998999999998,-10.25,2b
2019-07-15_124025:200,-0.46875,-0.049316000000000006,-0.16217,-0.004336,0.000865,0.001167,-33.25,20.75,-9.5,2b
2019-07-15_124025:220,-0.46569799999999995,-0.048279,-0.161652,-0.004213000000000001,0.001018,0.001716,-33.25,20.75,-9.5,2b
2019-07-15_124025:240,-0.46670500000000004,-0.048798,-0.163696,-0.003939,0.000865,0.000923,-33.25,20.75,-9.5,2b
2019-07-15_124025:260,-0.46823100000000006,-0.047272,-0.163696,-0.00403,0.0008039999999999999,0.001258,-33.25,20.5,-9.5,2b
2019-07-15_124025:280,-0.46926899999999994,-0.048798,-0.162689,-0.004091,0.001018,0.001503,-33.25,20.5,-9.5,2b
2019-07-15_124025:300,-0.470276,-0.049805,-0.163177,-0.004397,0.0010789999999999999,0.000923,-33.25,20.18,-11.06,2b
2019-07-15_124025:320,-0.466217,-0.049316000000000006,-0.163696,-0.00461,0.00114,0.001258,-33.25,20.18,-11.06,2b
2019-07-15_124025:340,-0.467224,-0.049805,-0.161652,-0.004671,0.0012619999999999999,0.000831,-33.25,20.18,-11.06,2b
2019-07-15_124025:360,-0.46875,-0.052338,-0.164703,-0.004336,0.001598,0.000221,-32.869999,21.18,-10.25,2b
2019-07-15_124025:380,-0.470276,-0.05285599999999999,-0.163696,-0.0036950000000000004,0.001628,-5.4000000000000005e-05,-32.869999,21.18,-10.25,2b
2019-07-15_124025:400,-0.46823100000000006,-0.052338,-0.164215,-0.00339,0.001537,-5.4000000000000005e-05,-33.68,20.870001000000002,-10.25,2b
2019-07-15_124025:420,-0.46875,-0.050842,-0.164215,-0.002779,0.00172,0.00016,-33.68,20.870001000000002,-10.25,2b
2019-07-15_124025:440,-0.46926899999999994,-0.049805,-0.161652,-0.002199,0.00172,0.000404,-33.68,20.870001000000002,-10.25,2b
2019-07-15_124025:460,-0.46670500000000004,-0.047791,-0.162689,-0.0022600000000000003,0.0017809999999999998,0.00028199999999999997,-32.869999,22.25,-10.68,2b
2019-07-15_124025:480,-0.467224,-0.045226999999999996,-0.161163,-0.002932,0.0016589999999999999,0.000465,-32.869999,22.25,-10.68,2b
2019-07-15_124025:500,-0.46670500000000004,-0.044739,-0.163696,-0.003176,0.0017809999999999998,0.000404,-32.869999,21.559998999999998,-10.25,2b
2019-07-15_124025:520,-0.46569799999999995,-0.046265,-0.16217,-0.00403,0.0014759999999999999,0.00028199999999999997,-32.869999,21.559998999999998,-10.25,2b
2019-07-15_124025:540,-0.467224,-0.047272,-0.161652,-0.004152,0.001415,0.000496,-32.869999,21.559998999999998,-10.25,2b
2019-07-15_124025:560,-0.46823100000000006,-0.047791,-0.161163,-0.004488000000000001,0.001292,0.0007700000000000001,-34.0,21.18,-9.5,2b
2019-07-15_124025:580,-0.46875,-0.047791,-0.161652,-0.004275,0.0014759999999999999,0.000831,-34.0,21.18,-9.5,2b
2019-07-15_124025:600,-0.46875,-0.050323,-0.162689,-0.004336,0.001353,0.000831,-33.68,20.18,-10.25,2b
2019-07-15_124025:620,-0.46823100000000006,-0.050323,-0.163177,-0.004091,0.001598,0.0007700000000000001,-33.68,20.18,-10.25,2b
2019-07-15_124025:640,-0.466217,-0.050323,-0.162689,-0.0034509999999999996,0.001292,0.000923,-33.68,20.18,-10.25,2b
2019-07-15_124025:660,-0.46670500000000004,-0.049316000000000006,-0.161163,-0.003512,0.0012619999999999999,0.000984,-32.5,21.559998999999998,-10.25,2b
2019-07-15_124025:680,-0.467743,-0.049316000000000006,-0.161163,-0.0033280000000000002,0.001201,0.001106,-32.5,21.559998999999998,-10.25,2b
2019-07-15_124025:700,-0.46823100000000006,-0.049316000000000006,-0.163177,-0.00339,0.001201,0.000984,-33.68,21.18,-10.25,2b
2019-07-15_124025:720,-0.46670500000000004,-0.048279,-0.161652,-0.003512,0.001201,0.000923,-33.68,21.18,-10.25,2b
2019-07-15_124025:740,-0.46670500000000004,-0.048279,-0.164215,-0.0037560000000000002,0.001201,0.000831,-33.68,21.18,-10.25,2b
2019-07-15_124025:760,-0.47079499999999996,-0.046752999999999996,-0.167755,-0.004336,0.001415,0.001045,-33.25,21.18,-9.87,2b
2019-07-15_124025:780,-0.46469099999999997,-0.048279,-0.160645,-0.004732,0.00172,0.001106,-33.25,21.18,-9.87,2b
2019-07-15_124025:800,-0.462646,-0.050842,-0.1586,-0.004732,0.001598,0.001442,-33.25,21.18,-10.68,2b
2019-07-15_124025:820,-0.46875,-0.050323,-0.16217,-0.003817,0.001018,0.0007700000000000001,-33.25,21.18,-10.68,2b
2019-07-15_124025:840,-0.46875,-0.050323,-0.164215,-0.003939,0.0012619999999999999,0.000587,-33.25,21.18,-10.68,2b
2019-07-15_124025:860,-0.467743,-0.050323,-0.164215,-0.003573,0.001201,0.000831,-32.5,21.18,-9.87,2b
2019-07-15_124025:880,-0.46569799999999995,-0.049805,-0.165741,-0.003817,0.0008960000000000001,0.000587,-32.5,21.18,-9.87,2b
2019-07-15_124025:900,-0.466217,-0.049805,-0.164215,-0.003512,0.000743,0.000587,-33.25,21.18,-10.25,2b
2019-07-15_124025:920,-0.466217,-0.049805,-0.165222,-0.0033280000000000002,0.000743,0.000496,-33.25,21.18,-10.25,2b
2019-07-15_124025:940,-0.46823100000000006,-0.048798,-0.163696,-0.00339,0.0008960000000000001,0.00028199999999999997,-33.25,21.18,-10.25,2b
2019-07-15_124025:960,-0.469757,-0.050323,-0.165222,-0.0034509999999999996,0.0008960000000000001,0.000404,-32.869999,21.18,-11.06,2b
2019-07-15_124025:980,-0.46823100000000006,-0.048798,-0.164215,-0.003176,0.001292,0.000465,-32.869999,21.18,-11.06,2b
2019-07-15_124026:000,-0.46875,-0.048798,-0.165222,-0.0033280000000000002,0.001415,0.000343,-32.869999,21.18,-11.06,2b
2019-07-15_124026:020,-0.46670500000000004,-0.049316000000000006,-0.165222,-0.003237,0.001598,0.000648,-33.25,21.18,-10.68,2b
2019-07-15_124026:040,-0.46670500000000004,-0.047791,-0.164215,-0.0032979999999999997,0.001292,0.000526,-33.25,21.18,-10.68,2b
2019-07-15_124026:060,-0.467743,-0.047791,-0.165222,-0.003176,0.0012619999999999999,0.000709,-33.68,21.18,-10.25,2b
2019-07-15_124026:080,-0.46823100000000006,-0.048798,-0.163177,-0.0033280000000000002,0.0014759999999999999,0.000831,-33.68,21.18,-10.25,2b
2019-07-15_124026:100,-0.46823100000000006,-0.048279,-0.164215,-0.0034509999999999996,0.0014759999999999999,0.0008619999999999999,-34.25,20.75,-10.25,2b
2019-07-15_124026:120,-0.467224,-0.049316000000000006,-0.163177,-0.0034509999999999996,0.001598,0.000709,-34.25,20.75,-10.25,2b
2019-07-15_124026:140,-0.46670500000000004,-0.048798,-0.161163,-0.003512,0.001842,0.001258,-34.25,20.75,-10.25,2b
2019-07-15_124026:160,-0.46823100000000006,-0.049805,-0.164215,-0.003512,0.0017809999999999998,0.0018989999999999999,-33.25,22.0,-10.68,2b
2019-07-15_124026:180,-0.46469099999999997,-0.048798,-0.16217,-0.003878,0.0016589999999999999,0.001381,-33.25,22.0,-10.68,2b
2019-07-15_124026:200,-0.46569799999999995,-0.050842,-0.163177,-0.003939,0.0010789999999999999,0.0007700000000000001,-33.25,22.0,-10.68,2b
2019-07-15_124026:220,-0.467743,-0.050842,-0.165222,-0.003939,0.000621,0.000343,-34.0,21.18,-9.5,2b
2019-07-15_124026:240,-0.46823100000000006,-0.050323,-0.164703,-0.003817,0.00056,0.001167,-34.0,21.18,-9.5,2b
2019-07-15_124026:260,-0.467224,-0.050842,-0.165741,-0.003878,0.0008039999999999999,0.001503,-33.25,22.25,-10.68,2b
2019-07-15_124026:280,-0.46823100000000006,-0.050842,-0.164703,-0.003817,0.001018,0.001106,-33.25,22.25,-10.68,2b
2019-07-15_124026:300,-0.466217,-0.051849,-0.165222,-0.0036340000000000005,0.001598,0.001167,-33.25,22.25,-10.68,2b
2019-07-15_124026:320,-0.467224,-0.050842,-0.164703,-0.003573,0.001628,0.001045,-34.0,22.0,-10.25,2b
2019-07-15_124026:340,-0.46875,-0.050842,-0.164215,-0.0034509999999999996,0.001628,0.001045,-34.0,22.0,-10.25,2b
2019-07-15_124026:360,-0.467224,-0.049316000000000006,-0.164703,-0.00339,0.0016589999999999999,0.001228,-32.869999,21.559998999999998,-10.25,2b
2019-07-15_124026:380,-0.466217,-0.049316000000000006,-0.162689,-0.0036340000000000005,0.001628,0.001167,-32.869999,21.559998999999998,-10.25,2b
2019-07-15_124026:400,-0.465179,-0.050323,-0.164703,-0.003817,0.001598,0.00132,-32.869999,21.559998999999998,-10.25,2b
2019-07-15_124026:420,-0.466217,-0.050842,-0.164703,-0.004275,0.001201,0.001167,-32.869999,21.559998999999998,-9.06,2b
2019-07-15_124026:440,-0.466217,-0.051849,-0.165741,-0.004336,0.0012619999999999999,0.000831,-32.869999,21.559998999999998,-9.06,2b
2019-07-15_124026:460,-0.46670500000000004,-0.051330999999999995,-0.166229,-0.004488000000000001,0.001201,0.000709,-32.5,21.559998999999998,-9.87,2b
2019-07-15_124026:480,-0.470276,-0.05285599999999999,-0.162689,-0.004336,0.0012619999999999999,0.000831,-32.5,21.559998999999998,-9.87,2b
2019-07-15_124026:500,-0.469757,-0.053375,-0.166229,-0.004152,0.001628,0.001045,-32.5,21.559998999999998,-9.87,2b
2019-07-15_124026:520,-0.467224,-0.052338,-0.165222,-0.0037560000000000002,0.001964,0.001716,-32.869999,21.559998999999998,-11.06,2b
2019-07-15_124026:540,-0.46670500000000004,-0.051849,-0.165222,-0.0036950000000000004,0.0019030000000000002,0.0008619999999999999,-32.869999,21.559998999999998,-11.06,2b
2019-07-15_124026:560,-0.467743,-0.051330999999999995,-0.165741,-0.0036950000000000004,0.001628,0.0007700000000000001,-32.18,22.0,-11.06,2b
2019-07-15_124026:580,-0.46875,-0.053375,-0.162689,-0.0037560000000000002,0.00172,0.001167,-32.18,22.0,-11.06,2b
2019-07-15_124026:600,-0.467743,-0.051330999999999995,-0.165222,-0.004152,0.001964,0.000526,-32.18,22.0,-11.06,2b
2019-07-15_124026:620,-0.466217,-0.051849,-0.164215,-0.004488000000000001,0.002055,0.000709,-33.68,21.18,-10.25,2b
2019-07-15_124026:640,-0.465179,-0.05285599999999999,-0.163696,-0.004793,0.0023,0.000343,-33.68,21.18,-10.25,2b
2019-07-15_124026:660,-0.46670500000000004,-0.05285599999999999,-0.164703,-0.004488000000000001,0.002055,-0.00011499999999999999,-33.68,22.0,-10.25,2b
2019-07-15_124026:680,-0.46670500000000004,-0.051849,-0.16217,-0.004275,0.002239,-0.00011499999999999999,-33.68,22.0,-10.25,2b
2019-07-15_124026:700,-0.467743,-0.050842,-0.164703,-0.003573,0.001842,7.000000000000001e-06,-33.68,22.0,-10.25,2b
2019-07-15_124026:720,-0.467743,-0.050842,-0.163177,-0.003176,0.001628,0.000587,-34.0,21.18,-11.06,2b
2019-07-15_124026:740,-0.467743,-0.049316000000000006,-0.163177,-0.003176,0.0014759999999999999,0.000709,-34.0,21.18,-11.06,2b
2019-07-15_124026:760,-0.467743,-0.050323,-0.162689,-0.0034509999999999996,0.001537,0.000831,-32.869999,21.559998999999998,-9.5,2b
2019-07-15_124026:780,-0.46823100000000006,-0.047791,-0.163177,-0.003512,0.001537,0.000984,-32.869999,21.559998999999998,-9.5,2b
2019-07-15_124026:800,-0.467743,-0.050323,-0.163177,-0.0037560000000000002,0.00172,0.0007700000000000001,-32.869999,21.559998999999998,-9.5,2b
2019-07-15_124026:820,-0.466217,-0.049805,-0.163177,-0.004213000000000001,0.001964,0.0007700000000000001,-32.5,21.18,-9.5,2b
2019-07-15_124026:840,-0.46670500000000004,-0.052338,-0.163696,-0.004427,0.0016589999999999999,0.000496,-32.5,21.18,-9.5,2b
2019-07-15_124026:860,-0.46926899999999994,-0.052338,-0.162689,-0.004397,0.0017809999999999998,0.000709,-33.25,21.559998999999998,-10.25,2b
2019-07-15_124026:880,-0.46823100000000006,-0.05285599999999999,-0.161652,-0.004275,0.0016589999999999999,0.000648,-33.25,21.559998999999998,-10.25,2b
2019-07-15_124026:900,-0.46823100000000006,-0.05285599999999999,-0.16217,-0.004091,0.001964,0.000648,-33.25,21.559998999999998,-10.25,2b
2019-07-15_124026:920,-0.467743,-0.051849,-0.163177,-0.003878,0.0019030000000000002,0.000648,-34.0,20.870001000000002,-11.06,2b
2019-07-15_124026:940,-0.466217,-0.050842,-0.163696,-0.003573,0.002055,0.000526,-34.0,20.870001000000002,-11.06,2b
2019-07-15_124026:960,-0.466217,-0.050842,-0.163696,-0.003573,0.001964,0.000587,-32.869999,21.559998999999998,-10.68,2b
2019-07-15_124026:980,-0.46670500000000004,-0.050842,-0.16217,-0.003512,0.00172,0.00028199999999999997,-32.869999,21.559998999999998,-10.68,2b
2019-07-15_124027:000,-0.46670500000000004,-0.050842,-0.162689,-0.003512,0.001598,0.000343,-32.869999,21.559998999999998,-10.68,2b
2019-07-15_124027:020,-0.467743,-0.050323,-0.161652,-0.0034509999999999996,0.0016589999999999999,0.000465,-31.75,21.18,-10.68,2b
2019-07-15_124027:040,-0.467743,-0.050842,-0.163177,-0.0036340000000000005,0.001598,0.00028199999999999997,-31.75,21.18,-10.68,2b
2019-07-15_124027:060,-0.46670500000000004,-0.050842,-0.163177,-0.0036340000000000005,0.0017809999999999998,0.000526,-34.0,21.18,-10.68,2b
2019-07-15_124027:080,-0.467743,-0.050323,-0.16217,-0.003817,0.001415,0.000587,-34.0,21.18,-10.68,2b
2019-07-15_124027:100,-0.467224,-0.050323,-0.163177,-0.003878,0.001598,0.000496,-34.0,21.18,-10.68,2b
2019-07-15_124027:120,-0.46670500000000004,-0.051330999999999995,-0.162689,-0.004,0.001353,0.000496,-32.869999,22.25,-9.87,2b
2019-07-15_124027:140,-0.467224,-0.051849,-0.16217,-0.003878,0.001292,0.000587,-32.869999,22.25,-9.87,2b
2019-07-15_124027:160,-0.467743,-0.051849,-0.163696,-0.003817,0.001415,0.000526,-32.869999,20.870001000000002,-10.25,2b
2019-07-15_124027:180,-0.467743,-0.051330999999999995,-0.161163,-0.0037560000000000002,0.001292,0.000465,-32.869999,20.870001000000002,-10.25,2b
2019-07-15_124027:200,-0.46875,-0.051330999999999995,-0.16217,-0.003573,0.001353,0.000343,-32.869999,20.870001000000002,-10.25,2b
2019-07-15_124027:220,-0.467743,-0.050842,-0.163696,-0.003573,0.0014759999999999999,0.000526,-33.68,22.0,-10.68,2b
2019-07-15_124027:240,-0.467743,-0.050842,-0.161652,-0.0034509999999999996,0.001415,0.000465,-33.68,22.0,-10.68,2b
2019-07-15_124027:260,-0.466217,-0.050323,-0.164215,-0.0034509999999999996,0.001598,0.000404,-32.869999,21.18,-10.25,2b
2019-07-15_124027:280,-0.465179,-0.049805,-0.163177,-0.003573,0.001292,0.000526,-32.869999,21.18,-10.25,2b
2019-07-15_124027:300,-0.467743,-0.050842,-0.163177,-0.003664,0.0010789999999999999,0.000465,-32.869999,21.18,-10.25,2b
2019-07-15_124027:320,-0.469757,-0.050842,-0.164215,-0.003664,0.0009570000000000001,0.000465,-32.869999,21.559998999999998,-9.87,2b
2019-07-15_124027:340,-0.47079499999999996,-0.051849,-0.164703,-0.003664,0.001628,0.000343,-32.869999,21.559998999999998,-9.87,2b
2019-07-15_124027:360,-0.469757,-0.052338,-0.163177,-0.0036340000000000005,0.0019030000000000002,0.000129,-32.869999,21.18,-10.68,2b
2019-07-15_124027:380,-0.46823100000000006,-0.049805,-0.163177,-0.003664,0.0017809999999999998,0.000496,-32.869999,21.18,-10.68,2b
2019-07-15_124027:400,-0.465179,-0.050842,-0.161652,-0.003664,0.001994,0.001442,-32.869999,21.18,-10.68,2b
2019-07-15_124027:420,-0.465179,-0.049805,-0.162689,-0.00403,0.001994,0.0008619999999999999,-33.68,20.75,-9.5,2b
2019-07-15_124027:440,-0.46569799999999995,-0.050842,-0.16217,-0.004091,0.001537,0.000343,-33.68,20.75,-9.5,2b
2019-07-15_124027:460,-0.467224,-0.051849,-0.162689,-0.004427,0.0010789999999999999,-0.000664,-32.5,22.0,-10.25,2b
2019-07-15_124027:480,-0.469757,-0.052338,-0.161652,-0.004336,0.0009570000000000001,-5.4000000000000005e-05,-32.5,22.0,-10.25,2b
2019-07-15_124027:500,-0.467743,-0.051849,-0.163177,-0.00403,0.0010789999999999999,0.0008619999999999999,-32.5,22.0,-10.25,2b
2019-07-15_124027:520,-0.467743,-0.052338,-0.165222,-0.003878,0.001415,0.000343,-33.68,21.18,-9.87,2b
2019-07-15_124027:540,-0.46875,-0.050842,-0.162689,-0.003664,0.001598,-0.00011499999999999999,-33.68,21.18,-9.87,2b
2019-07-15_124027:560,-0.467224,-0.050842,-0.163696,-0.0033280000000000002,0.0019030000000000002,-0.00011499999999999999,-32.869999,21.18,-10.25,2b
2019-07-15_124027:580,-0.46875,-0.050323,-0.161652,-0.0032979999999999997,0.0017809999999999998,-0.000176,-32.869999,21.18,-10.25,2b
2019-07-15_124027:600,-0.46875,-0.050323,-0.163696,-0.003237,0.0019030000000000002,0.000129,-32.869999,21.18,-10.25,2b
2019-07-15_124027:620,-0.46926899999999994,-0.048798,-0.161652,-0.003237,0.001842,0.000221,-33.68,21.559998999999998,-9.87,2b
2019-07-15_124027:640,-0.467743,-0.048279,-0.163177,-0.0033280000000000002,0.002055,0.000465,-33.68,21.559998999999998,-9.87,2b
2019-07-15_124027:660,-0.46670500000000004,-0.049805,-0.163696,-0.003664,0.0019030000000000002,0.000343,-33.68,21.18,-9.87,2b
2019-07-15_124027:680,-0.46670500000000004,-0.048798,-0.16217,-0.003878,0.001598,0.00016,-33.68,21.18,-9.87,2b
2019-07-15_124027:700,-0.466217,-0.048798,-0.163696,-0.004091,0.0014759999999999999,0.00016,-33.68,21.18,-9.87,2b
2019-07-15_124027:720,-0.46670500000000004,-0.049805,-0.162689,-0.004091,0.001201,0.00028199999999999997,-33.25,21.559998999999998,-10.25,2b
2019-07-15_124027:740,-0.46926899999999994,-0.051330999999999995,-0.160645,-0.004091,0.001598,0.000465,-33.25,21.559998999999998,-10.25,2b
2019-07-15_124027:760,-0.46926899999999994,-0.050323,-0.16217,-0.00403,0.0016589999999999999,0.000526,-32.869999,21.559998999999998,-11.06,2b
2019-07-15_124027:780,-0.46875,-0.050323,-0.160645,-0.0037560000000000002,0.001842,0.000648,-32.869999,21.559998999999998,-11.06,2b
2019-07-15_124027:800,-0.46569799999999995,-0.051330999999999995,-0.163696,-0.0037560000000000002,0.001628,-5.4000000000000005e-05,-32.869999,21.559998999999998,-11.06,2b
2019-07-15_124027:820,-0.467743,-0.047791,-0.163177,-0.003664,0.001353,0.000648,-32.869999,21.559998999999998,-9.5,2b
2019-07-15_124027:840,-0.46823100000000006,-0.048798,-0.161163,-0.0036340000000000005,0.001292,0.000984,-32.869999,21.559998999999998,-9.5,2b
2019-07-15_124027:860,-0.46670500000000004,-0.047272,-0.16217,-0.004,0.001598,0.000984,-33.25,21.18,-10.25,2b
2019-07-15_124027:880,-0.467743,-0.049805,-0.16217,-0.004275,0.0014759999999999999,0.001106,-33.25,21.18,-10.25,2b
2019-07-15_124027:900,-0.467743,-0.049805,-0.163696,-0.00461,0.001415,0.000496,-33.25,21.18,-10.25,2b
2019-07-15_124027:920,-0.46823100000000006,-0.049316000000000006,-0.163696,-0.004549,0.0014759999999999999,0.000496,-32.5,21.559998999999998,-9.87,2b
2019-07-15_124027:940,-0.467743,-0.051849,-0.163696,-0.004427,0.0014759999999999999,0.000465,-32.5,21.559998999999998,-9.87,2b
2019-07-15_124027:960,-0.46823100000000006,-0.050842,-0.163696,-0.003878,0.001598,0.000526,-32.869999,21.559998999999998,-9.5,2b
2019-07-15_124027:980,-0.46926899999999994,-0.050842,-0.161652,-0.003664,0.001353,0.0008619999999999999,-32.869999,21.559998999999998,-9.5,2b
2019-07-15_124028:000,-0.469757,-0.050842,-0.164215,-0.00339,0.0016589999999999999,0.000984,-32.869999,21.559998999999998,-9.5,2b
2019-07-15_124028:020,-0.46926899999999994,-0.049316000000000006,-0.163177,-0.0034509999999999996,0.0019030000000000002,0.001045,-32.5,21.18,-10.68,2b
2019-07-15_124028:040,-0.467224,-0.048798,-0.16217,-0.0036340000000000005,0.002055,0.000923,-32.5,21.18,-10.68,2b
2019-07-15_124028:060,-0.46569799999999995,-0.048798,-0.16217,-0.004,0.001964,0.000831,-32.5,22.0,-10.68,2b
2019-07-15_124028:080,-0.466217,-0.049316000000000006,-0.161652,-0.004213000000000001,0.001964,0.000984,-32.5,22.0,-10.68,2b
2019-07-15_124028:100,-0.467743,-0.048798,-0.16217,-0.004488000000000001,0.001598,0.001106,-32.5,22.0,-10.68,2b
2019-07-15_124028:120,-0.46823100000000006,-0.049316000000000006,-0.160645,-0.004427,0.0017809999999999998,0.001106,-32.5,22.0,-10.25,2b
2019-07-15_124028:140,-0.470276,-0.049316000000000006,-0.160645,-0.004488000000000001,0.001628,0.001503,-32.5,22.0,-10.25,2b
2019-07-15_124028:160,-0.46823100000000006,-0.050842,-0.16217,-0.004336,0.001598,0.001564,-34.0,21.18,-9.06,2b
2019-07-15_124028:180,-0.46823100000000006,-0.050842,-0.161163,-0.004488000000000001,0.00172,0.001381,-34.0,21.18,-9.06,2b
2019-07-15_124028:200,-0.466217,-0.051849,-0.161652,-0.004091,0.00172,0.001045,-34.0,21.18,-9.06,2b
2019-07-15_124028:220,-0.466217,-0.051330999999999995,-0.163177,-0.00403,0.0016589999999999999,0.001167,-33.25,20.75,-10.68,2b
2019-07-15_124028:240,-0.46569799999999995,-0.051330999999999995,-0.16217,-0.003939,0.0014759999999999999,0.001381,-33.25,20.75,-10.68,2b
2019-07-15_124028:260,-0.467224,-0.050842,-0.16217,-0.004,0.001292,0.001228,-33.25,21.559998999999998,-9.87,2b
2019-07-15_124028:280,-0.469757,-0.051330999999999995,-0.16217,-0.003817,0.0012619999999999999,0.001045,-33.25,21.559998999999998,-9.87,2b
2019-07-15_124028:300,-0.46875,-0.052338,-0.163177,-0.004,0.001415,0.001106,-33.25,21.559998999999998,-9.87,2b
2019-07-15_124028:320,-0.46875,-0.051849,-0.16217,-0.004091,0.001628,0.0007700000000000001,-34.0,22.0,-9.87,2b
2019-07-15_124028:340,-0.467224,-0.052338,-0.163696,-0.004,0.0014759999999999999,0.000709,-34.0,22.0,-9.87,2b
2019-07-15_124028:360,-0.46670500000000004,-0.051849,-0.16217,-0.00403,0.001537,0.0008619999999999999,-32.5,22.0,-9.87,2b
2019-07-15_124028:380,-0.467224,-0.052338,-0.160126,-0.0037560000000000002,0.001201,0.000831,-32.5,22.0,-9.87,2b
2019-07-15_124028:400,-0.467743,-0.052338,-0.16217,-0.003939,0.0012619999999999999,0.000648,-32.5,22.0,-9.87,2b
2019-07-15_124028:420,-0.46875,-0.052338,-0.161652,-0.0036950000000000004,0.0012619999999999999,0.000648,-33.25,21.559998999999998,-10.25,2b
2019-07-15_124028:440,-0.46670500000000004,-0.051849,-0.160645,-0.003664,0.001292,0.000526,-33.25,21.559998999999998,-10.25,2b
2019-07-15_124028:460,-0.46823100000000006,-0.051330999999999995,-0.162689,-0.003939,0.001292,0.000496,-33.25,20.75,-9.87,2b
2019-07-15_124028:480,-0.46823100000000006,-0.050842,-0.161163,-0.0036950000000000004,0.001353,0.000496,-33.25,20.75,-9.87,2b
2019-07-15_124028:500,-0.467743,-0.050323,-0.161652,-0.003817,0.001018,0.000526,-33.25,20.75,-9.87,2b
2019-07-15_124028:520,-0.467743,-0.050842,-0.161163,-0.003939,0.0012619999999999999,0.000587,-32.5,21.18,-9.87,2b
2019-07-15_124028:540,-0.46823100000000006,-0.050842,-0.161163,-0.003939,0.00114,0.0007700000000000001,-32.5,21.18,-9.87,2b
2019-07-15_124028:560,-0.466217,-0.051849,-0.163177,-0.004275,0.001292,0.0008619999999999999,-32.5,21.559998999999998,-11.06,2b
2019-07-15_124028:580,-0.46670500000000004,-0.05285599999999999,-0.162689,-0.004336,0.0012619999999999999,0.000923,-32.5,21.559998999999998,-11.06,2b
2019-07-15_124028:600,-0.46569799999999995,-0.052338,-0.162689,-0.004275,0.0010789999999999999,0.000831,-32.5,21.559998999999998,-11.06,2b
2019-07-15_124028:620,-0.46670500000000004,-0.05285599999999999,-0.163696,-0.003939,0.000865,0.000465,-32.5,21.18,-10.25,2b
2019-07-15_124028:640,-0.467743,-0.053863999999999995,-0.16217,-0.0036950000000000004,0.0008960000000000001,0.000404,-32.5,21.18,-10.25,2b
2019-07-15_124028:660,-0.46875,-0.051849,-0.161652,-0.0032979999999999997,0.00114,7.000000000000001e-06,-33.25,21.18,-9.87,2b
2019-07-15_124028:680,-0.47079499999999996,-0.049316000000000006,-0.161163,-0.002993,0.0012619999999999999,0.000129,-33.25,21.18,-9.87,2b
2019-07-15_124028:700,-0.467743,-0.050323,-0.16217,-0.002718,0.0016589999999999999,0.00132,-33.25,21.18,-9.87,2b
2019-07-15_124028:720,-0.46569799999999995,-0.049316000000000006,-0.16217,-0.003054,0.00172,0.0007700000000000001,-32.869999,20.75,-9.5,2b
2019-07-15_124028:740,-0.46569799999999995,-0.048798,-0.160645,-0.003512,0.0012619999999999999,0.000465,-32.869999,20.75,-9.5,2b
2019-07-15_124028:760,-0.46670500000000004,-0.050323,-0.164215,-0.004,0.000499,-0.000328,-33.25,22.0,-10.25,2b
2019-07-15_124028:780,-0.46875,-0.049316000000000006,-0.162689,-0.00403,0.00022400000000000002,-5.4000000000000005e-05,-33.25,22.0,-10.25,2b
2019-07-15_124028:800,-0.46823100000000006,-0.050842,-0.163696,-0.004091,0.000407,0.001442,-33.25,22.0,-10.25,2b
2019-07-15_124028:820,-0.46875,-0.050842,-0.164215,-0.004091,0.0008039999999999999,0.001045,-32.5,21.18,-9.06,2b
2019-07-15_124028:840,-0.467224,-0.051849,-0.165222,-0.003939,0.0010789999999999999,0.000923,-32.5,21.18,-9.06,2b
2019-07-15_124028:860,-0.467224,-0.052338,-0.165741,-0.003664,0.0012619999999999999,0.000831,-32.5,21.559998999999998,-10.68,2b
2019-07-15_124028:880,-0.466217,-0.051330999999999995,-0.161652,-0.0036340000000000005,0.001415,0.000465,-32.5,21.559998999999998,-10.68,2b
2019-07-15_124028:900,-0.467743,-0.051330999999999995,-0.163696,-0.0034509999999999996,0.001292,0.0008619999999999999,-32.5,21.559998999999998,-10.68,2b
2019-07-15_124028:920,-0.46670500000000004,-0.050323,-0.163177,-0.00339,0.001415,0.000923,-33.25,21.559998999999998,-10.25,2b
2019-07-15_124028:940,-0.467743,-0.050842,-0.163696,-0.003237,0.001292,0.000984,-33.25,21.559998999999998,-10.25,2b
2019-07-15_124028:960,-0.467224,-0.050323,-0.164703,-0.0033280000000000002,0.0012619999999999999,0.000984,-33.25,22.0,-9.06,2b
2019-07-15_124028:980,-0.467743,-0.050323,-0.163177,-0.003573,0.0012619999999999999,0.000526,-33.25,22.0,-9.06,2b
2019-07-15_124029:000,-0.466217,-0.050323,-0.164215,-0.0037560000000000002,0.0012619999999999999,0.000709,-33.25,22.0,-9.06,2b
2019-07-15_124029:020,-0.46569799999999995,-0.049805,-0.164703,-0.003817,0.001292,0.000831,-32.869999,21.559998999999998,-10.25,2b
2019-07-15_124029:040,-0.46823100000000006,-0.051849,-0.163177,-0.0036950000000000004,0.0014759999999999999,0.001045,-32.869999,21.559998999999998,-10.25,2b
2019-07-15_124029:060,-0.46823100000000006,-0.052338,-0.164703,-0.0037560000000000002,0.001537,0.001381,-33.25,21.559998999999998,-10.68,2b
2019-07-15_124029:080,-0.466217,-0.051849,-0.163696,-0.003664,0.0017809999999999998,0.001381,-33.25,21.559998999999998,-10.68,2b
2019-07-15_124029:100,-0.466217,-0.052338,-0.164703,-0.003939,0.001598,0.000648,-33.25,21.559998999999998,-10.68,2b
2019-07-15_124029:120,-0.46875,-0.052338,-0.164215,-0.003878,0.0012619999999999999,0.001106,-33.25,21.559998999999998,-9.87,2b
2019-07-15_124029:140,-0.46875,-0.05285599999999999,-0.164215,-0.00403,0.0014759999999999999,0.001167,-33.25,21.559998999999998,-9.87,2b
2019-07-15_124029:160,-0.47079499999999996,-0.053375,-0.168793,-0.004152,0.0014759999999999999,0.000465,-32.869999,21.18,-10.25,2b
2019-07-15_124029:180,-0.467224,-0.053375,-0.161652,-0.004397,0.001964,0.000587,-32.869999,21.18,-10.25,2b
2019-07-15_124029:200,-0.46569799999999995,-0.055389,-0.16217,-0.004488000000000001,0.0019030000000000002,0.000221,-32.869999,21.18,-10.25,2b
2019-07-15_124029:220,-0.46569799999999995,-0.055389,-0.16217,-0.003878,0.0016589999999999999,-0.00023700000000000001,-32.5,22.0,-9.87,2b
2019-07-15_124029:240,-0.46926899999999994,-0.054901,-0.165741,-0.0028399999999999996,0.0016589999999999999,-0.000176,-32.5,22.0,-9.87,2b
2019-07-15_124029:260,-0.46823100000000006,-0.053375,-0.164215,-0.002443,0.00172,-0.000328,-33.25,21.18,-11.06,2b
2019-07-15_124029:280,-0.46926899999999994,-0.051330999999999995,-0.163696,-0.0022600000000000003,0.001964,-5.4000000000000005e-05,-33.25,21.18,-11.06,2b
2019-07-15_124029:300,-0.467224,-0.049316000000000006,-0.165222,-0.002169,0.001994,0.000221,-33.25,21.18,-11.06,2b
2019-07-15_124029:320,-0.46670500000000004,-0.048279,-0.162689,-0.002657,0.001994,0.000496,-32.869999,21.559998999999998,-10.68,2b
2019-07-15_124029:340,-0.467224,-0.048798,-0.16217,-0.0031149999999999997,0.0019030000000000002,0.000465,-32.869999,21.559998999999998,-10.68,2b
2019-07-15_124029:360,-0.46670500000000004,-0.048798,-0.163696,-0.0036950000000000004,0.0019030000000000002,0.000343,-32.5,22.0,-9.5,2b
2019-07-15_124029:380,-0.467743,-0.049805,-0.163177,-0.004152,0.0016589999999999999,0.000404,-32.5,22.0,-9.5,2b
2019-07-15_124029:400,-0.46875,-0.051330999999999995,-0.163696,-0.004336,0.001842,0.000526,-32.5,22.0,-9.5,2b
2019-07-15_124029:420,-0.46823100000000006,-0.05285599999999999,-0.163696,-0.004397,0.002055,0.000648,-32.869999,22.0,-11.5,2b
2019-07-15_124029:440,-0.467743,-0.052338,-0.160645,-0.003817,0.002055,0.000709,-32.869999,22.0,-11.5,2b
2019-07-15_124029:460,-0.467224,-0.051330999999999995,-0.163696,-0.003664,0.001994,0.000648,-32.869999,22.0,-10.25,2b
2019-07-15_124029:480,-0.467743,-0.051330999999999995,-0.161652,-0.0034509999999999996,0.001964,0.0007700000000000001,-32.869999,22.0,-10.25,2b
2019-07-15_124029:500,-0.46823100000000006,-0.050842,-0.161652,-0.003176,0.0017809999999999998,0.0008619999999999999,-32.869999,22.0,-10.25,2b
2019-07-15_124029:520,-0.467224,-0.050323,-0.162689,-0.003176,0.0019030000000000002,0.0007700000000000001,-32.5,22.0,-9.87,2b
2019-07-15_124029:540,-0.46875,-0.048798,-0.161652,-0.003237,0.001964,0.000923,-32.5,22.0,-9.87,2b
2019-07-15_124029:560,-0.467743,-0.049316000000000006,-0.162689,-0.0036950000000000004,0.001964,0.001106,-32.869999,22.0,-9.5,2b
2019-07-15_124029:580,-0.46823100000000006,-0.051330999999999995,-0.160645,-0.003939,0.0016589999999999999,0.001106,-32.869999,22.0,-9.5,2b
2019-07-15_124029:600,-0.467224,-0.052338,-0.16217,-0.004152,0.0017809999999999998,0.001106,-32.869999,22.0,-9.5,2b
2019-07-15_124029:620,-0.46823100000000006,-0.05285599999999999,-0.163177,-0.004275,0.0017809999999999998,0.001045,-32.5,21.18,-9.87,2b
2019-07-15_124029:640,-0.467224,-0.05285599999999999,-0.161163,-0.004488000000000001,0.001842,0.001045,-32.5,21.18,-9.87,2b
2019-07-15_124029:660,-0.46823100000000006,-0.052338,-0.16217,-0.004397,0.0016589999999999999,0.0008619999999999999,-32.5,21.18,-11.87,2b
2019-07-15_124029:680,-0.467224,-0.053375,-0.16217,-0.004275,0.00172,0.000831,-32.5,21.18,-11.87,2b
2019-07-15_124029:700,-0.46823100000000006,-0.053375,-0.161652,-0.004,0.0016589999999999999,0.000831,-32.5,21.18,-11.87,2b
2019-07-15_124029:720,-0.46875,-0.05285599999999999,-0.16217,-0.0036950000000000004,0.0016589999999999999,0.000709,-33.25,21.559998999999998,-8.68,2b
2019-07-15_124029:740,-0.467743,-0.051849,-0.16217,-0.0036340000000000005,0.00172,0.000831,-33.25,21.559998999999998,-8.68,2b
2019-07-15_124029:760,-0.46875,-0.051849,-0.163177,-0.003512,0.001994,0.000526,-33.68,22.0,-10.68,2b
2019-07-15_124029:780,-0.466217,-0.051849,-0.16217,-0.003664,0.001842,0.000496,-33.68,22.0,-10.68,2b
2019-07-15_124029:800,-0.46875,-0.052338,-0.163177,-0.0036950000000000004,0.001598,0.000709,-33.68,22.0,-10.68,2b
2019-07-15_124029:820,-0.469757,-0.051330999999999995,-0.162689,-0.003878,0.00172,0.0007700000000000001,-32.5,22.0,-10.25,2b
2019-07-15_124029:840,-0.46926899999999994,-0.050842,-0.16217,-0.003878,0.0019030000000000002,0.0008619999999999999,-32.5,22.0,-10.25,2b
2019-07-15_124029:860,-0.470276,-0.051849,-0.161163,-0.003878,0.0019030000000000002,0.001045,-32.5,22.0,-10.68,2b
2019-07-15_124029:880,-0.469757,-0.051330999999999995,-0.16217,-0.004,0.002239,0.000709,-32.5,22.0,-10.68,2b
2019-07-15_124029:900,-0.469757,-0.050842,-0.159119,-0.004152,0.002361,0.00132,-32.5,22.0,-10.68,2b
2019-07-15_124029:920,-0.46926899999999994,-0.051849,-0.161652,-0.004275,0.002849,0.0021739999999999997,-33.25,22.0,-10.25,2b
2019-07-15_124029:940,-0.462128,-0.053863999999999995,-0.160645,-0.00461,0.002788,0.001655,-33.25,22.0,-10.25,2b
2019-07-15_124029:960,-0.465179,-0.053375,-0.163177,-0.004946,0.002055,0.000526,-33.25,21.559998999999998,-9.5,2b
2019-07-15_124029:980,-0.46926899999999994,-0.053863999999999995,-0.160645,-0.0048850000000000005,0.0014759999999999999,7.000000000000001e-06,-33.25,21.559998999999998,-9.5,2b
2019-07-15_124030:000,-0.46926899999999994,-0.053375,-0.164703,-0.004793,0.001292,0.000465,-33.25,21.559998999999998,-9.5,2b
2019-07-15_124030:020,-0.469757,-0.05438200000000001,-0.163177,-0.004671,0.001598,0.000923,-33.25,21.559998999999998,-10.25,2b
2019-07-15_124030:040,-0.469757,-0.052338,-0.16217,-0.004488000000000001,0.0023,0.000496,-33.25,21.559998999999998,-10.25,2b
2019-07-15_124030:060,-0.470276,-0.051849,-0.16217,-0.004427,0.002696,0.000129,-32.869999,21.18,-10.25,2b
2019-07-15_124030:080,-0.467743,-0.05285599999999999,-0.160645,-0.004549,0.002971,7.000000000000001e-06,-32.869999,21.18,-10.25,2b
2019-07-15_124030:100,-0.46875,-0.052338,-0.160645,-0.004488000000000001,0.002971,0.000496,-32.869999,21.18,-10.25,2b
2019-07-15_124030:120,-0.46926899999999994,-0.05285599999999999,-0.160126,-0.004275,0.002788,0.000526,-33.25,21.559998999999998,-10.25,2b
