timestamp,AccX,AccY,AccZ,GyroX,GyroY,GyroZ,MagX,MagY,MagZ,Activity
2019-07-15_182211:220,-0.429596,0.023375999999999997,-0.245544,-0.000246,-0.001393,-0.000664,-34.68,-23.0,-5.37,2d
2019-07-15_182211:240,-0.433655,0.024902,-0.245544,-0.000338,-0.001363,-0.000328,-33.18,-22.559998999999998,-6.18,2d
2019-07-15_182211:260,-0.438751,0.024902,-0.24353000000000002,-0.000734,-0.00044699999999999997,0.001442,-33.18,-22.559998999999998,-6.18,2d
2019-07-15_182211:280,-0.43823199999999995,0.019318000000000002,-0.240479,-0.000582,0.000346,0.0021739999999999997,-34.369999,-23.0,-6.56,2d
2019-07-15_182211:300,-0.42858900000000005,0.018799,-0.239441,0.000608,0.0008039999999999999,-0.00023700000000000001,-34.369999,-23.0,-6.56,2d
2019-07-15_182211:320,-0.418915,0.021851,-0.243011,0.000944,0.00022400000000000002,-0.001183,-34.369999,-23.0,-5.75,2d
2019-07-15_182211:340,-0.418915,0.022369,-0.245056,0.001737,-0.002187,-0.001641,-34.369999,-23.0,-5.75,2d
2019-07-15_182211:360,-0.416382,0.024384,-0.25216700000000003,0.0017980000000000001,-0.004018,-0.0017929999999999999,-34.369999,-23.0,-5.75,2d
2019-07-15_182211:380,-0.41995200000000005,0.026917,-0.256226,0.0016460000000000001,-0.00475,-0.001641,-34.369999,-22.559998999999998,-6.56,2d
2019-07-15_182211:400,-0.429108,0.029968,-0.25827,-6.3e-05,-0.0045060000000000005,-0.000634,-34.369999,-22.559998999999998,-6.56,2d
2019-07-15_182211:420,-0.430634,0.027435,-0.261322,-0.0009789999999999998,-0.004018,-0.000267,-34.369999,-22.559998999999998,-6.56,2d
2019-07-15_182211:440,-0.432159,0.026427999999999997,-0.263336,-0.0033280000000000002,-0.0018510000000000002,0.000404,-34.369999,-22.559998999999998,-6.56,2d
2019-07-15_182211:460,-0.433655,0.024384,-0.260284,-0.003817,-0.0008439999999999999,0.000526,-34.369999,-22.559998999999998,-6.56,2d
2019-07-15_182211:480,-0.427063,0.021332,-0.261322,-0.005007,0.001415,0.00016,-33.18,-23.370001000000002,-7.37,2d
2019-07-15_182211:500,-0.427063,0.017792,-0.25827,-0.0056170000000000005,0.0029100000000000003,-0.000573,-33.18,-23.370001000000002,-7.37,2d
2019-07-15_182211:520,-0.420959,0.014740000000000001,-0.2547,-0.0048850000000000005,0.00349,-0.0011220000000000002,-33.18,-23.370001000000002,-7.37,2d
2019-07-15_182211:540,-0.41586300000000004,0.017792,-0.250641,-0.002718,0.002788,-0.00158,-33.560001,-23.0,-6.56,2d
2019-07-15_182211:560,-0.412811,0.019318000000000002,-0.24706999999999998,-0.001192,0.0010789999999999999,-0.001458,-33.560001,-23.0,-6.56,2d
2019-07-15_182211:580,-0.40774499999999997,0.021851,-0.246063,-0.000643,0.000285,-0.001519,-33.560001,-22.18,-6.18,2d
2019-07-15_182211:600,-0.414337,0.025421,-0.24706999999999998,0.000547,-0.001912,-0.0021899999999999997,-33.560001,-22.18,-6.18,2d
2019-07-15_182211:620,-0.41485600000000006,0.029480000000000003,-0.2547,0.000669,-0.002919,-0.0019149999999999998,-33.560001,-22.18,-6.18,2d
2019-07-15_182211:640,-0.425537,0.027954000000000003,-0.25827,0.000883,-0.004353,-0.001397,-34.369999,-23.0,-6.56,2d
2019-07-15_182211:660,-0.434174,0.026917,-0.259796,0.001524,-0.003041,-0.001702,-34.369999,-23.0,-6.56,2d
2019-07-15_182211:680,-0.430634,0.026917,-0.262848,0.001737,-0.002309,-0.001519,-34.369999,-22.559998999999998,-7.37,2d
2019-07-15_182211:700,-0.421967,0.024384,-0.263855,0.002195,-0.001027,-0.0011220000000000002,-34.369999,-22.559998999999998,-7.37,2d
2019-07-15_182211:720,-0.42807,0.021851,-0.263855,0.002531,-0.0008439999999999999,-0.0010609999999999999,-34.369999,-22.559998999999998,-7.37,2d
2019-07-15_182211:740,-0.433655,0.017273,-0.25216700000000003,0.003324,0.000285,-0.00011499999999999999,-34.0,-22.18,-7.75,2d
2019-07-15_182211:760,-0.42147799999999996,0.014740000000000001,-0.254211,0.003996,0.00114,6.8e-05,-34.0,-22.18,-7.75,2d
2019-07-15_182211:780,-0.417908,0.011687999999999999,-0.253693,0.005186,0.001018,-0.000725,-34.369999,-23.0,-8.18,2d
2019-07-15_182211:800,-0.417389,0.009125,-0.254211,0.006314999999999999,-5e-05,-0.0017629999999999998,-34.369999,-23.0,-8.18,2d
2019-07-15_182211:820,-0.42248500000000005,0.006072999999999999,-0.255707,0.00778,-0.001576,-0.002892,-34.369999,-23.0,-8.18,2d
2019-07-15_182211:840,-0.425537,0.007599,-0.254211,0.009153,-0.002919,-0.004021,-34.0,-23.370001000000002,-7.37,2d
2019-07-15_182211:860,-0.432159,-0.0035399999999999997,-0.254211,0.010679000000000001,-0.003834,-0.003319,-34.0,-23.370001000000002,-7.37,2d
2019-07-15_182211:880,-0.429108,-0.006072999999999999,-0.25521900000000003,0.012815,-0.0033770000000000002,-0.0035020000000000003,-32.869999,-23.68,-8.56,2d
2019-07-15_182211:900,-0.41995200000000005,-0.010162000000000001,-0.254211,0.01605,-0.0035600000000000002,-0.004357,-32.869999,-23.68,-8.56,2d
2019-07-15_182211:920,-0.410278,-0.011687999999999999,-0.255707,0.019712,-0.004811,-0.005547,-32.869999,-23.68,-8.56,2d
2019-07-15_182211:940,-0.40368699999999996,-0.015228,-0.2659,0.023496,-0.007161,-0.007347,-33.560001,-23.68,-8.18,2d
2019-07-15_182211:960,-0.404694,-0.016753999999999998,-0.264374,0.027555,-0.010792,-0.009087,-33.560001,-23.68,-8.18,2d
2019-07-15_182211:980,-0.408752,-0.012695,-0.265381,0.032072,-0.013936000000000002,-0.010735,-33.18,-22.559998999999998,-9.75,2d
2019-07-15_182212:000,-0.418915,-0.004059,-0.266388,0.035765,-0.017049,-0.011345000000000001,-33.18,-22.559998999999998,-9.75,2d
2019-07-15_182212:020,-0.425537,0.0055850000000000006,-0.268951,0.038053,-0.017567,-0.009728,-33.18,-22.559998999999998,-9.75,2d
2019-07-15_182212:040,-0.417908,0.008118,-0.2659,0.038511000000000004,-0.016896,-0.008751,-33.18,-22.559998999999998,-9.75,2d
2019-07-15_182212:060,-0.406738,0.011687999999999999,-0.27301,0.037504,-0.016652,-0.008934000000000001,-33.18,-22.559998999999998,-9.75,2d
2019-07-15_182212:080,-0.407227,0.010651,-0.275055,0.035124,-0.018086,-0.00747,-31.68,-23.370001000000002,-12.18,2d
2019-07-15_182212:100,-0.412811,0.009125,-0.287231,0.033995,-0.018422,-0.007409000000000001,-31.68,-23.370001000000002,-12.18,2d
2019-07-15_182212:120,-0.41586300000000004,0.010162000000000001,-0.28927600000000003,0.030668,-0.017049,-0.007561,-31.68,-23.370001000000002,-12.18,2d
2019-07-15_182212:140,-0.414337,0.006592,-0.28979499999999997,0.028227,-0.015369999999999998,-0.007683,-32.060001,-22.559998999999998,-13.68,2d
2019-07-15_182212:160,-0.409271,0.007111,-0.29232800000000003,0.025175,-0.013142,-0.008232,-32.060001,-22.559998999999998,-13.68,2d
2019-07-15_182212:180,-0.40316799999999997,0.011687999999999999,-0.302002,0.022306,-0.012135,-0.007744,-31.370001000000002,-22.18,-15.37,2d
2019-07-15_182212:200,-0.399597,0.011687999999999999,-0.301483,0.019316,-0.011189,-0.0064930000000000005,-31.370001000000002,-22.18,-15.37,2d
2019-07-15_182212:220,-0.394531,0.010162000000000001,-0.30249000000000004,0.016203,-0.010548,-0.006554000000000001,-31.370001000000002,-22.18,-15.37,2d
2019-07-15_182212:240,-0.39859,0.008118,-0.305542,0.013028999999999999,-0.009724,-0.004967,-31.370001000000002,-22.18,-15.68,2d
2019-07-15_182212:260,-0.40368699999999996,0.007599,-0.309601,0.010496,-0.007831999999999999,-0.003106,-31.370001000000002,-22.18,-15.68,2d
2019-07-15_182212:280,-0.402649,0.006072999999999999,-0.31012,0.0073219999999999995,-0.005818,-0.003319,-31.0,-22.18,-16.870001000000002,2d
2019-07-15_182212:300,-0.398071,0.005065999999999999,-0.308075,0.0041789999999999996,-0.004353,-0.0033799999999999998,-31.0,-22.18,-16.870001000000002,2d
2019-07-15_182212:320,-0.391968,-0.000488,-0.31012,0.00128,-0.002583,-0.002983,-31.0,-22.18,-16.870001000000002,2d
2019-07-15_182212:340,-0.386902,-0.0055850000000000006,-0.307068,-0.0009789999999999998,-0.001698,-0.00277,-30.25,-22.559998999999998,-16.870001000000002,2d
2019-07-15_182212:360,-0.386383,-0.009644,-0.303528,-0.001864,-0.0005690000000000001,-0.003655,-30.25,-22.559998999999998,-16.870001000000002,2d
2019-07-15_182212:380,-0.37316900000000003,-0.008636,-0.309601,-0.002443,-0.0009660000000000001,-0.004235,-30.25,-22.18,-17.68,2d
2019-07-15_182212:400,-0.368591,-0.007111,-0.308594,-0.002779,-0.003163,-0.0017629999999999998,-30.25,-22.18,-17.68,2d
2019-07-15_182212:420,-0.382812,-0.010162000000000001,-0.310638,-0.002779,-0.005757,-0.000512,-30.25,-22.18,-17.68,2d
2019-07-15_182212:440,-0.38739,-0.010651,-0.315216,-0.002993,-0.006551,-0.000725,-31.0,-22.18,-17.370001000000002,2d
2019-07-15_182212:460,-0.391968,-0.011687999999999999,-0.317749,-0.002993,-0.005696,-5.4000000000000005e-05,-31.0,-22.18,-17.370001000000002,2d
2019-07-15_182212:480,-0.393005,-0.013213999999999998,-0.319794,-0.002932,-0.004811,0.000221,-29.870001000000002,-23.0,-18.18,2d
2019-07-15_182212:500,-0.389954,-0.013213999999999998,-0.318756,-0.003176,-0.003102,0.000404,-29.870001000000002,-23.0,-18.18,2d
2019-07-15_182212:520,-0.386902,-0.014221000000000001,-0.322845,-0.003512,-0.002431,0.001106,-29.870001000000002,-23.0,-18.18,2d
2019-07-15_182212:540,-0.380798,-0.013702,-0.323853,-0.003573,-0.002034,0.001442,-30.0,-21.870001000000002,-18.18,2d
2019-07-15_182212:560,-0.381317,-0.014221000000000001,-0.322327,-0.004152,-0.002309,0.001045,-30.0,-21.870001000000002,-18.18,2d
2019-07-15_182212:580,-0.386383,-0.014740000000000001,-0.324371,-0.00461,-0.002095,0.00132,-29.559998999999998,-21.870001000000002,-17.370001000000002,2d
2019-07-15_182212:600,-0.388428,-0.017273,-0.322845,-0.005007,-0.001057,0.001625,-29.559998999999998,-21.870001000000002,-17.370001000000002,2d
2019-07-15_182212:620,-0.388916,-0.016753999999999998,-0.326904,-0.005465,-0.00044699999999999997,0.001258,-29.559998999999998,-21.870001000000002,-17.370001000000002,2d
2019-07-15_182212:640,-0.384857,-0.015747,-0.325897,-0.006014,-0.000172,0.001258,-29.5,-21.870001000000002,-18.18,2d
2019-07-15_182212:660,-0.38385,-0.016266,-0.325897,-0.0066549999999999995,0.000407,0.000496,-29.5,-21.870001000000002,-18.18,2d
2019-07-15_182212:680,-0.386383,-0.014740000000000001,-0.325897,-0.0069299999999999995,0.000346,-0.000512,-29.870001000000002,-22.18,-18.559998999999998,2d
2019-07-15_182212:700,-0.390442,-0.017273,-0.326904,-0.007143000000000001,0.001018,-0.0011220000000000002,-29.870001000000002,-22.18,-18.559998999999998,2d
2019-07-15_182212:720,-0.388916,-0.017273,-0.325378,-0.006807,0.0017809999999999998,-0.001397,-29.870001000000002,-22.18,-18.559998999999998,2d
2019-07-15_182212:740,-0.386902,-0.016753999999999998,-0.323853,-0.006014,0.0023,-0.001366,-29.870001000000002,-23.0,-17.370001000000002,2d
2019-07-15_182212:760,-0.384338,-0.015747,-0.321808,-0.005129,0.002635,-0.001397,-29.870001000000002,-23.0,-17.370001000000002,2d
2019-07-15_182212:780,-0.383331,-0.013213999999999998,-0.32132,-0.004549,0.002696,-0.001397,-29.5,-22.559998999999998,-19.370001000000002,2d
2019-07-15_182212:800,-0.381805,-0.012177,-0.319275,-0.003878,0.0023,-0.000725,-29.5,-22.559998999999998,-19.370001000000002,2d
2019-07-15_182212:820,-0.382812,-0.012695,-0.316742,-0.003176,0.002635,-0.000512,-29.5,-22.559998999999998,-19.370001000000002,2d
2019-07-15_182212:840,-0.381317,-0.009644,-0.31723,-0.0029010000000000004,0.002513,0.000923,-29.559998999999998,-23.0,-17.370001000000002,2d
2019-07-15_182212:860,-0.378265,-0.012695,-0.31723,-0.002657,0.002177,0.003181,-29.559998999999998,-23.0,-17.370001000000002,2d
2019-07-15_182212:880,-0.371643,-0.012695,-0.31723,-0.002993,0.0012619999999999999,0.0029059999999999997,-29.25,-22.559998999999998,-18.18,2d
2019-07-15_182212:900,-0.371643,-0.013702,-0.317749,-0.003237,0.000133,0.0029059999999999997,-29.25,-22.559998999999998,-18.18,2d
2019-07-15_182212:920,-0.379272,-0.016753999999999998,-0.323334,-0.003237,-0.001027,0.002052,-29.25,-22.559998999999998,-18.18,2d
2019-07-15_182212:940,-0.379791,-0.016753999999999998,-0.325897,-0.0034509999999999996,-0.000722,0.001381,-29.25,-21.870001000000002,-17.370001000000002,2d
2019-07-15_182212:960,-0.382324,-0.015747,-0.326385,-0.0032979999999999997,-0.000508,0.001991,-29.25,-21.870001000000002,-17.370001000000002,2d
2019-07-15_182212:980,-0.383331,-0.016753999999999998,-0.324371,-0.0036950000000000004,0.000285,0.001838,-29.559998999999998,-22.18,-17.68,2d
2019-07-15_182213:000,-0.38385,-0.016753999999999998,-0.320801,-0.004275,0.000865,0.001503,-29.559998999999998,-22.18,-17.68,2d
2019-07-15_182213:020,-0.384338,-0.016753999999999998,-0.323853,-0.004488000000000001,0.00172,0.001503,-29.559998999999998,-22.18,-17.68,2d
2019-07-15_182213:040,-0.389954,-0.013213999999999998,-0.323853,-0.004732,0.002177,0.001442,-30.25,-22.559998999999998,-19.0,2d
2019-07-15_182213:060,-0.391479,-0.011169,-0.32486,-0.005343,0.0034289999999999998,0.002357,-30.25,-22.559998999999998,-19.0,2d
2019-07-15_182213:080,-0.385376,-0.006592,-0.321808,-0.0056170000000000005,0.004894,0.003761,-29.18,-22.18,-17.75,2d
2019-07-15_182213:100,-0.385864,-0.006072999999999999,-0.323334,-0.006869,0.005443,0.005012,-29.18,-22.18,-17.75,2d
2019-07-15_182213:120,-0.377747,-0.004547,-0.319275,-0.008333,0.005748,0.005439,-29.18,-22.18,-17.75,2d
2019-07-15_182213:140,-0.374176,-0.004059,-0.31723,-0.009859,0.005351,0.006691,-29.18,-22.559998999999998,-18.68,2d
2019-07-15_182213:160,-0.368591,-0.006072999999999999,-0.314178,-0.011385,0.004314,0.007942,-29.18,-22.559998999999998,-18.68,2d
2019-07-15_182213:180,-0.368073,-0.009125,-0.314697,-0.01285,0.0024519999999999998,0.007667,-29.559998999999998,-23.0,-17.75,2d
2019-07-15_182213:200,-0.36706500000000003,-0.012695,-0.31369,-0.013704,0.0008960000000000001,0.008796,-29.559998999999998,-23.0,-17.75,2d
2019-07-15_182213:220,-0.36248800000000003,-0.014221000000000001,-0.31723,-0.014162000000000001,-0.001027,0.008796,-29.559998999999998,-23.0,-17.75,2d
2019-07-15_182213:240,-0.365021,-0.015747,-0.320282,-0.014497999999999999,-0.0032240000000000003,0.008888,-29.870001000000002,-22.559998999999998,-17.0,2d
2019-07-15_182213:260,-0.366058,-0.017792,-0.322845,-0.014650999999999999,-0.00536,0.009071,-29.870001000000002,-22.559998999999998,-17.0,2d
2019-07-15_182213:280,-0.378754,-0.020325,-0.325897,-0.014223,-0.006886,0.008551999999999999,-29.870001000000002,-22.18,-17.5,2d
2019-07-15_182213:300,-0.385376,-0.022858,-0.327423,-0.013491,-0.006825,0.008094,-29.870001000000002,-22.18,-17.5,2d
2019-07-15_182213:320,-0.391479,-0.023375999999999997,-0.328949,-0.012392,-0.0054210000000000005,0.007484,-29.870001000000002,-22.18,-17.5,2d
2019-07-15_182213:340,-0.391479,-0.024384,-0.32843,-0.011446,-0.0033770000000000002,0.006691,-30.68,-22.559998999999998,-16.68,2d
2019-07-15_182213:360,-0.386902,-0.024902,-0.328949,-0.01047,-0.001759,0.005806,-30.68,-22.559998999999998,-16.68,2d
2019-07-15_182213:380,-0.384338,-0.025421,-0.327911,-0.009249,-0.000661,0.004951,-30.25,-21.5,-17.5,2d
2019-07-15_182213:400,-0.382324,-0.024902,-0.325897,-0.007723000000000001,-0.00011100000000000001,0.003913000000000001,-30.25,-21.5,-17.5,2d
2019-07-15_182213:420,-0.386383,-0.024902,-0.323853,-0.006411,0.000499,0.002845,-30.25,-21.5,-17.5,2d
2019-07-15_182213:440,-0.388428,-0.024902,-0.32486,-0.005068,0.001415,0.001838,-29.870001000000002,-22.559998999999998,-18.18,2d
2019-07-15_182213:460,-0.385864,-0.023375999999999997,-0.32486,-0.004,0.002788,6.8e-05,-29.870001000000002,-22.559998999999998,-18.18,2d
2019-07-15_182213:480,-0.379791,-0.020325,-0.323334,-0.0031149999999999997,0.0041,-0.0010609999999999999,-30.370001000000002,-22.18,-17.5,2d
2019-07-15_182213:500,-0.377228,-0.017792,-0.322327,-0.002169,0.004619,-0.00216,-30.370001000000002,-22.18,-17.5,2d
2019-07-15_182213:520,-0.374695,-0.014221000000000001,-0.322327,-0.0018030000000000001,0.004375,-0.0033799999999999998,-30.370001000000002,-22.18,-17.5,2d
2019-07-15_182213:540,-0.375214,-0.012177,-0.321808,-0.001772,0.004039,-0.003899,-30.0,-22.18,-16.25,2d
2019-07-15_182213:560,-0.374695,-0.012177,-0.328949,-0.001772,0.003368,-0.00396,-30.0,-22.18,-16.25,2d
2019-07-15_182213:580,-0.376221,-0.011169,-0.325897,-0.002169,0.002971,-0.0037770000000000004,-29.18,-22.18,-17.5,2d
2019-07-15_182213:600,-0.37674,-0.011687999999999999,-0.320282,-0.002535,0.0023,-0.003624,-29.18,-22.18,-17.5,2d
2019-07-15_182213:620,-0.377228,-0.013702,-0.323853,-0.0022600000000000003,0.002177,-0.003624,-29.18,-22.18,-17.5,2d
2019-07-15_182213:640,-0.381317,-0.014221000000000001,-0.322327,-0.002443,0.0023,-0.0037159999999999997,-30.68,-21.870001000000002,-17.0,2d
2019-07-15_182213:660,-0.382812,-0.014221000000000001,-0.323334,-0.002321,0.002788,-0.003563,-30.68,-21.870001000000002,-17.0,2d
2019-07-15_182213:680,-0.382324,-0.013213999999999998,-0.326385,-0.0022600000000000003,0.00352,-0.0033799999999999998,-29.870001000000002,-22.18,-17.0,2d
2019-07-15_182213:700,-0.381317,-0.012177,-0.324371,-0.002199,0.0036420000000000003,-0.0037770000000000004,-29.870001000000002,-22.18,-17.0,2d
2019-07-15_182213:720,-0.37674,-0.010162000000000001,-0.323853,-0.001925,0.0035810000000000004,-0.00396,-29.870001000000002,-22.18,-17.0,2d
2019-07-15_182213:740,-0.377747,-0.008636,-0.324371,-0.0015890000000000001,0.003368,-0.004052,-29.870001000000002,-22.18,-16.68,2d
2019-07-15_182213:760,-0.377747,-0.006592,-0.322327,-0.0015279999999999998,0.002971,-0.003899,-29.870001000000002,-22.18,-16.68,2d
2019-07-15_182213:780,-0.37674,-0.007111,-0.321808,-0.0014060000000000001,0.002696,-0.003624,-29.870001000000002,-21.870001000000002,-17.5,2d
2019-07-15_182213:800,-0.377228,-0.005065999999999999,-0.319794,-0.0017109999999999998,0.002696,-0.003106,-29.870001000000002,-21.870001000000002,-17.5,2d
2019-07-15_182213:820,-0.38028,-0.005065999999999999,-0.319794,-0.001864,0.002635,-0.00158,-29.870001000000002,-21.870001000000002,-17.5,2d
2019-07-15_182213:840,-0.37674,-0.006072999999999999,-0.318756,-0.002535,0.0023,-0.001397,-29.5,-22.18,-17.5,2d
2019-07-15_182213:860,-0.378265,-0.0055850000000000006,-0.320282,-0.002993,0.002116,-0.001702,-29.5,-22.18,-17.5,2d
2019-07-15_182213:880,-0.376221,-0.006072999999999999,-0.319794,-0.0033280000000000002,0.001598,-0.002373,-29.18,-21.870001000000002,-17.5,2d
2019-07-15_182213:900,-0.375702,-0.006072999999999999,-0.320801,-0.003878,0.0012619999999999999,-0.002648,-29.18,-21.870001000000002,-17.5,2d
2019-07-15_182213:920,-0.374695,-0.006592,-0.323853,-0.004,0.000682,-0.002251,-29.18,-21.870001000000002,-17.5,2d
2019-07-15_182213:940,-0.375702,-0.007111,-0.323853,-0.004,0.00022400000000000002,-0.00277,-29.5,-22.18,-17.5,2d
2019-07-15_182213:960,-0.380798,-0.006072999999999999,-0.32486,-0.0036950000000000004,-0.000386,-0.003045,-29.5,-22.18,-17.5,2d
2019-07-15_182213:980,-0.380798,-0.006072999999999999,-0.321808,-0.0034509999999999996,1.1e-05,-0.002495,-29.5,-23.370001000000002,-17.0,2d
2019-07-15_182214:000,-0.378265,-0.004059,-0.322845,-0.0032979999999999997,0.000407,-0.001854,-29.5,-23.370001000000002,-17.0,2d
2019-07-15_182214:020,-0.378265,-0.0035399999999999997,-0.323853,-0.003176,0.000285,-0.001,-29.5,-23.370001000000002,-17.0,2d
2019-07-15_182214:040,-0.374695,-0.002014,-0.323334,-0.0032979999999999997,1.1e-05,-0.000664,-29.5,-22.559998999999998,-17.0,2d
2019-07-15_182214:060,-0.37674,-0.000488,-0.323334,-0.003512,-0.00063,-0.000389,-29.5,-22.559998999999998,-17.0,2d
2019-07-15_182214:080,-0.37674,-0.002014,-0.326904,-0.0037560000000000002,-0.0008439999999999999,0.00028199999999999997,-29.5,-22.559998999999998,-17.0,2d
2019-07-15_182214:100,-0.38028,-0.0035399999999999997,-0.32486,-0.004091,-0.0007830000000000001,0.0008619999999999999,-29.5,-22.559998999999998,-17.0,2d
2019-07-15_182214:120,-0.38028,-0.004059,-0.328949,-0.004,-0.000264,0.00132,-29.5,-22.559998999999998,-17.0,2d
2019-07-15_182214:140,-0.381805,-0.005065999999999999,-0.32843,-0.004213000000000001,0.000499,0.001777,-29.870001000000002,-23.68,-16.68,2d
2019-07-15_182214:160,-0.381805,-0.006072999999999999,-0.327423,-0.004549,0.001292,0.0022960000000000003,-29.870001000000002,-23.68,-16.68,2d
2019-07-15_182214:180,-0.379791,-0.006592,-0.32843,-0.004732,0.0017809999999999998,0.002235,-29.18,-23.370001000000002,-17.5,2d
2019-07-15_182214:200,-0.38028,-0.008636,-0.32486,-0.005007,0.0023,0.001655,-29.18,-23.370001000000002,-17.5,2d
2019-07-15_182214:220,-0.378754,-0.007111,-0.326385,-0.005007,0.002513,0.001716,-29.18,-23.370001000000002,-17.5,2d
2019-07-15_182214:240,-0.379791,-0.010651,-0.325897,-0.004824,0.002971,0.001655,-28.75,-22.559998999999998,-17.0,2d
2019-07-15_182214:260,-0.379272,-0.009125,-0.325378,-0.00461,0.002635,0.00132,-28.75,-22.559998999999998,-17.0,2d
2019-07-15_182214:280,-0.384338,-0.008636,-0.324371,-0.004275,0.003093,0.001442,-30.25,-22.18,-17.0,2d
2019-07-15_182214:300,-0.382812,-0.008636,-0.323334,-0.004091,0.003703,0.001106,-30.25,-22.18,-17.0,2d
2019-07-15_182214:320,-0.379791,-0.007111,-0.322845,-0.004152,0.004161,0.000923,-30.25,-22.18,-17.0,2d
2019-07-15_182214:340,-0.378754,-0.007599,-0.322327,-0.004275,0.0041,0.000984,-28.370001000000002,-22.559998999999998,-17.5,2d
2019-07-15_182214:360,-0.381805,-0.007599,-0.322327,-0.004336,0.003978,0.000923,-28.370001000000002,-22.559998999999998,-17.5,2d
2019-07-15_182214:380,-0.379791,-0.006072999999999999,-0.319794,-0.004336,0.004161,0.000709,-29.5,-22.559998999999998,-17.0,2d
2019-07-15_182214:400,-0.379791,-0.006072999999999999,-0.319794,-0.004488000000000001,0.003886,0.000526,-29.5,-22.559998999999998,-17.0,2d
2019-07-15_182214:420,-0.379791,-0.005065999999999999,-0.320282,-0.004549,0.0035810000000000004,0.000526,-29.5,-22.559998999999998,-17.0,2d
2019-07-15_182214:440,-0.379791,-0.005065999999999999,-0.320282,-0.004793,0.0031850000000000003,0.0008619999999999999,-29.5,-23.0,-17.0,2d
2019-07-15_182214:460,-0.382812,-0.004547,-0.318756,-0.005068,0.0031850000000000003,0.000984,-29.5,-23.0,-17.0,2d
2019-07-15_182214:480,-0.382812,-0.0055850000000000006,-0.320801,-0.005221,0.00352,0.001045,-29.18,-22.559998999999998,-18.25,2d
2019-07-15_182214:500,-0.381317,-0.0055850000000000006,-0.321808,-0.005556,0.003825,0.001106,-29.18,-22.559998999999998,-18.25,2d
2019-07-15_182214:520,-0.38028,-0.006592,-0.32132,-0.0056170000000000005,0.004039,0.000984,-29.18,-22.559998999999998,-18.25,2d
2019-07-15_182214:540,-0.380798,-0.007599,-0.320282,-0.005556,0.00349,0.0007700000000000001,-29.5,-22.18,-17.75,2d
2019-07-15_182214:560,-0.381805,-0.008118,-0.318756,-0.005404,0.0031850000000000003,0.000831,-29.5,-22.18,-17.75,2d
2019-07-15_182214:580,-0.385376,-0.006592,-0.318268,-0.0051600000000000005,0.003124,0.000984,-30.68,-22.559998999999998,-17.370001000000002,2d
2019-07-15_182214:600,-0.385376,-0.008118,-0.318268,-0.004946,0.00352,0.000404,-30.68,-22.559998999999998,-17.370001000000002,2d
2019-07-15_182214:620,-0.388428,-0.007111,-0.317749,-0.004732,0.003703,0.00016,-30.68,-22.559998999999998,-17.370001000000002,2d
2019-07-15_182214:640,-0.386383,-0.008118,-0.318756,-0.004213000000000001,0.004161,6.8e-05,-30.25,-22.559998999999998,-18.18,2d
2019-07-15_182214:660,-0.385864,-0.006592,-0.316742,-0.004152,0.004375,-0.000328,-30.25,-22.559998999999998,-18.18,2d
2019-07-15_182214:680,-0.385376,-0.007599,-0.316223,-0.0036950000000000004,0.004771,-0.00045099999999999996,-29.870001000000002,-22.559998999999998,-16.870001000000002,2d
2019-07-15_182214:700,-0.384857,-0.006592,-0.316223,-0.0032979999999999997,0.00471,-0.000725,-29.870001000000002,-22.559998999999998,-16.870001000000002,2d
2019-07-15_182214:720,-0.385864,-0.0055850000000000006,-0.314178,-0.003176,0.004649,-0.000725,-29.870001000000002,-22.559998999999998,-16.870001000000002,2d
2019-07-15_182214:740,-0.382324,-0.0055850000000000006,-0.312653,-0.002779,0.004497,-0.000725,-29.5,-22.559998999999998,-16.870001000000002,2d
2019-07-15_182214:760,-0.382812,-0.005065999999999999,-0.312164,-0.0025960000000000002,0.004222,-0.0010609999999999999,-29.5,-22.559998999999998,-16.870001000000002,2d
2019-07-15_182214:780,-0.382812,-0.004059,-0.312164,-0.002321,0.003764,-0.0012439999999999999,-30.25,-23.0,-16.18,2d
2019-07-15_182214:800,-0.386383,-0.0035399999999999997,-0.311127,-0.002321,0.0034289999999999998,-0.001366,-30.25,-23.0,-16.18,2d
2019-07-15_182214:820,-0.386383,-0.001495,-0.312653,-0.002657,0.003307,-0.0010609999999999999,-30.25,-23.0,-16.18,2d
2019-07-15_182214:840,-0.385376,-0.002014,-0.312653,-0.002779,0.003032,-0.000634,-29.5,-23.370001000000002,-15.5,2d
2019-07-15_182214:860,-0.381805,0.001007,-0.310638,-0.0033280000000000002,0.002788,-0.000389,-29.5,-23.370001000000002,-15.5,2d
2019-07-15_182214:880,-0.38739,0.0,-0.312164,-0.0036950000000000004,0.002391,0.000648,-29.5,-22.559998999999998,-17.0,2d
2019-07-15_182214:900,-0.388428,-0.001007,-0.312164,-0.004275,0.002361,0.000648,-29.5,-22.559998999999998,-17.0,2d
2019-07-15_182214:920,-0.389435,-0.0030210000000000002,-0.314178,-0.004427,0.002361,0.000404,-29.5,-22.559998999999998,-17.0,2d
2019-07-15_182214:940,-0.388428,-0.0030210000000000002,-0.313171,-0.00461,0.002361,-0.000664,-29.870001000000002,-23.370001000000002,-17.5,2d
2019-07-15_182214:960,-0.384857,-0.0035399999999999997,-0.313171,-0.004397,0.002849,-0.000725,-29.870001000000002,-23.370001000000002,-17.5,2d
2019-07-15_182214:980,-0.380798,-0.004059,-0.310638,-0.004091,0.0023,-0.000267,-29.870001000000002,-23.370001000000002,-17.0,2d
2019-07-15_182215:000,-0.382324,-0.0030210000000000002,-0.310638,-0.003817,0.001628,-0.000664,-29.870001000000002,-23.370001000000002,-17.0,2d
2019-07-15_182215:020,-0.381805,-0.002014,-0.309601,-0.0033280000000000002,0.001018,-0.000908,-29.870001000000002,-23.370001000000002,-17.0,2d
2019-07-15_182215:040,-0.381317,-0.000488,-0.311127,-0.002993,0.000346,-0.000725,-30.25,-22.18,-17.0,2d
2019-07-15_182215:060,-0.385864,0.0,-0.312653,-0.002779,-0.000264,-0.000176,-30.25,-22.18,-17.0,2d
2019-07-15_182215:080,-0.386902,-0.000488,-0.311646,-0.002718,-0.000661,0.000129,-29.5,-23.0,-16.68,2d
2019-07-15_182215:100,-0.389435,0.0,-0.316223,-0.0028399999999999996,-0.000508,0.000129,-29.5,-23.0,-16.68,2d
2019-07-15_182215:120,-0.388428,-0.001007,-0.316223,-0.002993,-0.000264,6.8e-05,-29.5,-23.0,-16.68,2d
2019-07-15_182215:140,-0.388916,-0.000488,-0.318756,-0.002993,0.000468,0.000343,-29.18,-23.68,-15.75,2d
2019-07-15_182215:160,-0.388916,-0.001007,-0.317749,-0.003176,0.0008960000000000001,0.000343,-29.18,-23.68,-15.75,2d
2019-07-15_182215:180,-0.389954,-0.002014,-0.319275,-0.002932,0.001537,0.000404,-29.5,-23.0,-16.68,2d
2019-07-15_182215:200,-0.386902,-0.002014,-0.316223,-0.002932,0.0019030000000000002,0.0007700000000000001,-29.5,-23.0,-16.68,2d
2019-07-15_182215:220,-0.385376,-0.0030210000000000002,-0.316223,-0.002779,0.001964,0.001167,-29.5,-23.0,-16.68,2d
2019-07-15_182215:240,-0.385376,-0.0035399999999999997,-0.31369,-0.0029010000000000004,0.001964,0.000831,-28.75,-23.68,-17.5,2d
2019-07-15_182215:260,-0.384857,-0.004059,-0.314697,-0.0028399999999999996,0.00172,0.0008619999999999999,-28.75,-23.68,-17.5,2d
2019-07-15_182215:280,-0.384857,-0.005065999999999999,-0.312653,-0.0025050000000000003,0.001628,0.00028199999999999997,-28.75,-23.370001000000002,-16.25,2d
2019-07-15_182215:300,-0.384857,-0.0035399999999999997,-0.314178,-0.002321,0.001537,-0.000634,-28.75,-23.370001000000002,-16.25,2d
2019-07-15_182215:320,-0.383331,-0.0035399999999999997,-0.313171,-0.002199,0.0014759999999999999,-0.000908,-28.75,-23.370001000000002,-16.25,2d
2019-07-15_182215:340,-0.383331,-0.002014,-0.314697,-0.001986,0.00114,-0.001,-29.25,-23.0,-16.25,2d
2019-07-15_182215:360,-0.384338,-0.0025329999999999997,-0.314697,-0.00165,0.001292,-0.001,-29.25,-23.0,-16.25,2d
2019-07-15_182215:380,-0.382812,-0.0030210000000000002,-0.31723,-0.0018030000000000001,0.001353,-0.0008470000000000001,-30.0,-23.370001000000002,-17.0,2d
2019-07-15_182215:400,-0.383331,-0.0035399999999999997,-0.31723,-0.0015890000000000001,0.001415,-0.0009689999999999999,-30.0,-23.370001000000002,-17.0,2d
2019-07-15_182215:420,-0.384857,-0.005065999999999999,-0.318756,-0.0009789999999999998,0.001415,-0.0009689999999999999,-30.0,-23.370001000000002,-17.0,2d
2019-07-15_182215:440,-0.38385,-0.004547,-0.317749,-0.000277,0.001353,-0.001397,-30.0,-23.370001000000002,-16.68,2d
2019-07-15_182215:460,-0.384857,-0.0030210000000000002,-0.318756,0.000273,0.00114,-0.0017929999999999999,-30.0,-23.370001000000002,-16.68,2d
2019-07-15_182215:480,-0.387909,-0.0025329999999999997,-0.318268,0.000608,0.0010789999999999999,-0.001397,-30.370001000000002,-22.559998999999998,-16.68,2d
2019-07-15_182215:500,-0.390961,0.000488,-0.316742,0.000334,0.0016589999999999999,-0.000908,-30.370001000000002,-22.559998999999998,-16.68,2d
2019-07-15_182215:520,-0.390442,0.0030210000000000002,-0.316223,-0.000338,0.0023,0.000496,-30.370001000000002,-22.559998999999998,-16.68,2d
2019-07-15_182215:540,-0.389954,0.0030210000000000002,-0.314697,-0.0018030000000000001,0.002849,0.001381,-28.75,-23.370001000000002,-17.0,2d
2019-07-15_182215:560,-0.387909,0.000488,-0.313171,-0.0031149999999999997,0.002849,0.001991,-28.75,-23.370001000000002,-17.0,2d
2019-07-15_182215:580,-0.384857,-0.000488,-0.312164,-0.004549,0.002696,0.00251,-29.559998999999998,-23.0,-17.0,2d
2019-07-15_182215:600,-0.385376,-0.002014,-0.31012,-0.005861,0.002177,0.002754,-29.559998999999998,-23.0,-17.0,2d
2019-07-15_182215:620,-0.385376,-0.007111,-0.31012,-0.006745999999999999,0.001964,0.002784,-29.559998999999998,-23.0,-17.0,2d
2019-07-15_182215:640,-0.384857,-0.009644,-0.311127,-0.007204,0.001415,0.002571,-29.18,-22.559998999999998,-17.5,2d
2019-07-15_182215:660,-0.381317,-0.013702,-0.313171,-0.007051999999999999,0.00114,0.001991,-29.18,-22.559998999999998,-17.5,2d
2019-07-15_182215:680,-0.382324,-0.014221000000000001,-0.314178,-0.006258,0.000468,0.001381,-29.5,-23.0,-17.5,2d
2019-07-15_182215:700,-0.385864,-0.014740000000000001,-0.313171,-0.005068,0.00016299999999999998,0.001381,-29.5,-23.0,-17.5,2d
2019-07-15_182215:720,-0.387909,-0.013213999999999998,-0.316742,-0.003817,0.000407,0.001228,-29.5,-23.0,-17.5,2d
2019-07-15_182215:740,-0.387909,-0.012177,-0.318268,-0.0028399999999999996,0.0008039999999999999,0.0008619999999999999,-30.25,-22.559998999999998,-16.25,2d
2019-07-15_182215:760,-0.387909,-0.009644,-0.316223,-0.002199,0.0009570000000000001,0.000587,-30.25,-22.559998999999998,-16.25,2d
2019-07-15_182215:780,-0.389954,-0.007111,-0.315704,-0.0022600000000000003,0.001537,0.00016,-29.870001000000002,-23.0,-17.0,2d
2019-07-15_182215:800,-0.390961,-0.006592,-0.315704,-0.002382,0.002239,0.00028199999999999997,-29.870001000000002,-23.0,-17.0,2d
2019-07-15_182215:820,-0.38739,-0.0055850000000000006,-0.316223,-0.002779,0.003093,0.000343,-29.870001000000002,-23.0,-17.0,2d
2019-07-15_182215:840,-0.385864,-0.006072999999999999,-0.31723,-0.0033280000000000002,0.002849,-5.4000000000000005e-05,-29.5,-23.370001000000002,-16.68,2d
2019-07-15_182215:860,-0.382812,-0.0055850000000000006,-0.31369,-0.0033280000000000002,0.002788,-0.000328,-29.5,-23.370001000000002,-16.68,2d
2019-07-15_182215:880,-0.386902,-0.007111,-0.314178,-0.003573,0.002513,-0.000328,-30.25,-22.559998999999998,-16.68,2d
2019-07-15_182215:900,-0.38385,-0.008118,-0.31369,-0.003512,0.002177,-0.000512,-30.25,-22.559998999999998,-16.68,2d
2019-07-15_182215:920,-0.382324,-0.007599,-0.314697,-0.003176,0.001994,-0.000389,-30.25,-22.559998999999998,-16.68,2d
2019-07-15_182215:940,-0.381317,-0.007111,-0.315704,-0.0029010000000000004,0.001537,-0.000267,-30.68,-22.559998999999998,-16.25,2d
2019-07-15_182215:960,-0.387909,-0.006072999999999999,-0.315704,-0.002443,0.000865,-0.000725,-30.68,-22.559998999999998,-16.25,2d
2019-07-15_182215:980,-0.389954,-0.004059,-0.314697,-0.002382,0.001292,0.000221,-30.25,-22.559998999999998,-16.68,2d
2019-07-15_182216:000,-0.389954,-0.006072999999999999,-0.315216,-0.002321,0.002055,0.000648,-30.25,-22.559998999999998,-16.68,2d
2019-07-15_182216:020,-0.38385,-0.004059,-0.315704,-0.0029010000000000004,0.002391,-5.4000000000000005e-05,-30.25,-22.559998999999998,-16.68,2d
2019-07-15_182216:040,-0.385376,-0.007111,-0.316742,-0.002779,0.001964,-0.00045099999999999996,-29.870001000000002,-22.18,-17.75,2d
2019-07-15_182216:060,-0.385376,-0.006592,-0.315704,-0.002657,0.001994,-0.0013050000000000002,-29.870001000000002,-22.18,-17.75,2d
2019-07-15_182216:080,-0.38385,-0.006072999999999999,-0.317749,-0.002382,0.0019030000000000002,-0.000267,-29.5,-23.0,-17.5,2d
2019-07-15_182216:100,-0.382812,-0.006072999999999999,-0.317749,-0.001986,0.0019030000000000002,0.000221,-29.5,-23.0,-17.5,2d
2019-07-15_182216:120,-0.381317,-0.004059,-0.317749,-0.0018030000000000001,0.002055,7.000000000000001e-06,-29.5,-23.0,-17.5,2d
2019-07-15_182216:140,-0.380798,-0.0030210000000000002,-0.317749,-0.001925,0.001994,0.000404,-30.25,-23.370001000000002,-17.0,2d
2019-07-15_182216:160,-0.381317,-0.001007,-0.316742,-0.002443,0.001842,0.000496,-30.25,-23.370001000000002,-17.0,2d
2019-07-15_182216:180,-0.384338,-0.002014,-0.317749,-0.003054,0.001628,0.000709,-29.5,-22.559998999999998,-18.25,2d
2019-07-15_182216:200,-0.38739,-0.004059,-0.315216,-0.003512,0.00172,0.000587,-29.5,-22.559998999999998,-18.25,2d
2019-07-15_182216:220,-0.38739,-0.004547,-0.317749,-0.003817,0.002239,0.00016,-29.5,-22.559998999999998,-18.25,2d
2019-07-15_182216:240,-0.384338,-0.006072999999999999,-0.31723,-0.003878,0.0024519999999999998,0.000221,-29.5,-23.0,-16.68,2d
2019-07-15_182216:260,-0.381805,-0.0055850000000000006,-0.31723,-0.0036950000000000004,0.002361,0.000343,-29.5,-23.0,-16.68,2d
2019-07-15_182216:280,-0.382324,-0.005065999999999999,-0.316223,-0.003573,0.001842,0.000465,-29.5,-23.0,-16.68,2d
2019-07-15_182216:300,-0.381805,-0.0055850000000000006,-0.314697,-0.003512,0.001537,0.000648,-29.5,-23.0,-16.68,2d
2019-07-15_182216:320,-0.379791,-0.005065999999999999,-0.316223,-0.003512,0.001018,0.001381,-29.5,-23.0,-16.68,2d
2019-07-15_182216:340,-0.381317,-0.006072999999999999,-0.314178,-0.0036950000000000004,0.000407,0.001381,-29.5,-22.559998999999998,-17.0,2d
2019-07-15_182216:360,-0.381317,-0.004547,-0.314697,-0.0037560000000000002,-0.00011100000000000001,0.000526,-29.5,-22.559998999999998,-17.0,2d
2019-07-15_182216:380,-0.381317,-0.005065999999999999,-0.315216,-0.003664,-0.00063,0.001258,-29.870001000000002,-22.559998999999998,-17.0,2d
2019-07-15_182216:400,-0.378754,-0.008636,-0.315704,-0.0033280000000000002,-0.000661,0.0008619999999999999,-29.870001000000002,-22.559998999999998,-17.0,2d
2019-07-15_182216:420,-0.374695,-0.009125,-0.316223,-0.0025960000000000002,-0.001393,0.000465,-29.870001000000002,-22.559998999999998,-17.0,2d
2019-07-15_182216:440,-0.378265,-0.009644,-0.314697,-0.001314,-0.0027660000000000002,0.000709,-30.68,-22.18,-17.0,2d
2019-07-15_182216:460,-0.38385,-0.008636,-0.315704,-0.000338,-0.002919,0.001258,-30.68,-22.18,-17.0,2d
2019-07-15_182216:480,-0.385376,-0.008636,-0.317749,0.00045599999999999997,-0.0024920000000000003,0.002357,-29.5,-23.370001000000002,-17.0,2d
2019-07-15_182216:500,-0.384338,-0.006072999999999999,-0.316223,0.001066,-0.002095,0.003181,-29.5,-23.370001000000002,-17.0,2d
2019-07-15_182216:520,-0.383331,-0.006072999999999999,-0.320801,0.000852,-0.002156,0.0037,-29.5,-23.370001000000002,-17.0,2d
2019-07-15_182216:540,-0.384857,-0.0055850000000000006,-0.322845,0.000395,-0.00179,0.004097,-30.68,-23.0,-17.75,2d
2019-07-15_182216:560,-0.384338,-0.006072999999999999,-0.32132,-0.000643,-0.001363,0.0037,-30.68,-23.0,-17.75,2d
2019-07-15_182216:580,-0.38385,-0.006072999999999999,-0.322845,-0.0018030000000000001,-0.00063,0.0029059999999999997,-29.5,-22.18,-17.68,2d
2019-07-15_182216:600,-0.382324,-0.008118,-0.32132,-0.0034509999999999996,7.2e-05,0.002052,-29.5,-22.18,-17.68,2d
2019-07-15_182216:620,-0.382324,-0.011169,-0.323334,-0.004336,0.00056,0.001625,-29.5,-22.18,-17.68,2d
2019-07-15_182216:640,-0.380798,-0.015747,-0.323334,-0.005007,0.0008960000000000001,0.001564,-29.870001000000002,-23.0,-16.68,2d
2019-07-15_182216:660,-0.382324,-0.015228,-0.322845,-0.004946,0.001201,0.001228,-29.870001000000002,-23.0,-16.68,2d
2019-07-15_182216:680,-0.386383,-0.017273,-0.322845,-0.004732,0.0017809999999999998,0.0007700000000000001,-29.870001000000002,-22.559998999999998,-18.25,2d
2019-07-15_182216:700,-0.38739,-0.016266,-0.32132,-0.004336,0.0024519999999999998,0.0007700000000000001,-29.870001000000002,-22.559998999999998,-18.25,2d
2019-07-15_182216:720,-0.385376,-0.015747,-0.319794,-0.003939,0.00352,0.0008619999999999999,-29.870001000000002,-22.559998999999998,-18.25,2d
2019-07-15_182216:740,-0.38385,-0.015747,-0.318756,-0.0036950000000000004,0.003917,0.000587,-29.870001000000002,-22.18,-17.5,2d
2019-07-15_182216:760,-0.384338,-0.013702,-0.316223,-0.0036950000000000004,0.0042829999999999995,0.000496,-29.870001000000002,-22.18,-17.5,2d
2019-07-15_182216:780,-0.385864,-0.012177,-0.315704,-0.004213000000000001,0.0045579999999999996,7.000000000000001e-06,-31.370001000000002,-22.559998999999998,-18.25,2d
2019-07-15_182216:800,-0.382324,-0.013213999999999998,-0.315216,-0.00461,0.004954999999999999,6.8e-05,-31.370001000000002,-22.559998999999998,-18.25,2d
2019-07-15_182216:820,-0.38028,-0.014221000000000001,-0.314697,-0.005068,0.004833,0.000343,-31.370001000000002,-22.559998999999998,-18.25,2d
2019-07-15_182216:840,-0.380798,-0.015228,-0.313171,-0.005282,0.004039,-0.00045099999999999996,-29.870001000000002,-22.18,-16.870001000000002,2d
2019-07-15_182216:860,-0.383331,-0.015747,-0.312164,-0.005221,0.003764,-0.000786,-29.870001000000002,-22.18,-16.870001000000002,2d
2019-07-15_182216:880,-0.383331,-0.015228,-0.310638,-0.004824,0.003368,-0.000664,-30.68,-22.18,-17.0,2d
2019-07-15_182216:900,-0.38028,-0.014221000000000001,-0.311127,-0.00461,0.0029100000000000003,-0.00045099999999999996,-30.68,-22.18,-17.0,2d
2019-07-15_182216:920,-0.380798,-0.013213999999999998,-0.311127,-0.004397,0.002239,-0.000176,-30.68,-22.18,-17.0,2d
2019-07-15_182216:940,-0.379791,-0.012695,-0.311646,-0.003939,0.001598,-0.00011499999999999999,-29.5,-22.559998999999998,-16.68,2d
2019-07-15_182216:960,-0.381805,-0.013213999999999998,-0.309601,-0.0036340000000000005,0.001018,-0.000328,-29.5,-22.559998999999998,-16.68,2d
2019-07-15_182216:980,-0.381805,-0.012177,-0.314697,-0.003573,0.00056,7.000000000000001e-06,-29.870001000000002,-23.0,-18.18,2d
2019-07-15_182217:000,-0.38385,-0.011687999999999999,-0.315704,-0.0033280000000000002,7.2e-05,0.000404,-29.870001000000002,-23.0,-18.18,2d
2019-07-15_182217:020,-0.387909,-0.012177,-0.31723,-0.002993,0.000133,0.000404,-29.870001000000002,-23.0,-18.18,2d
2019-07-15_182217:040,-0.384857,-0.010162000000000001,-0.31723,-0.002932,0.000285,0.00028199999999999997,-29.5,-22.18,-18.18,2d
2019-07-15_182217:060,-0.382324,-0.009125,-0.318756,-0.0028399999999999996,0.000133,0.00028199999999999997,-29.5,-22.18,-18.18,2d
2019-07-15_182217:080,-0.381317,-0.007111,-0.319794,-0.0033280000000000002,-0.00044699999999999997,0.000465,-29.870001000000002,-23.370001000000002,-16.18,2d
2019-07-15_182217:100,-0.384857,-0.006592,-0.318756,-0.004152,-0.0007830000000000001,0.001716,-29.870001000000002,-23.370001000000002,-16.18,2d
2019-07-15_182217:120,-0.387909,-0.006592,-0.320282,-0.005068,-0.000386,0.001838,-29.870001000000002,-23.370001000000002,-16.18,2d
2019-07-15_182217:140,-0.386383,-0.006592,-0.32132,-0.006075,0.000285,0.00132,-29.870001000000002,-22.559998999999998,-16.25,2d
2019-07-15_182217:160,-0.381805,-0.008636,-0.32132,-0.0064719999999999995,0.000621,0.000648,-29.870001000000002,-22.559998999999998,-16.25,2d
2019-07-15_182217:180,-0.377228,-0.008118,-0.323853,-0.006807,0.00016299999999999998,0.000648,-30.25,-22.559998999999998,-17.5,2d
2019-07-15_182217:200,-0.378754,-0.008118,-0.32486,-0.0069299999999999995,-0.000508,0.001777,-30.25,-22.559998999999998,-17.5,2d
2019-07-15_182217:220,-0.385376,-0.009644,-0.325378,-0.006807,-0.0007830000000000001,0.002754,-30.25,-22.559998999999998,-17.5,2d
2019-07-15_182217:240,-0.393494,-0.010651,-0.325378,-0.006745999999999999,0.00022400000000000002,0.003151,-30.25,-23.0,-17.0,2d
2019-07-15_182217:260,-0.396057,-0.010651,-0.323334,-0.0064719999999999995,0.001628,0.00309,-30.25,-23.0,-17.0,2d
2019-07-15_182217:280,-0.39502,-0.012695,-0.32486,-0.00635,0.003246,0.003181,-29.870001000000002,-22.18,-16.68,2d
2019-07-15_182217:300,-0.396057,-0.013702,-0.327911,-0.006319,0.004436,0.003151,-29.870001000000002,-22.18,-16.68,2d
2019-07-15_182217:320,-0.396057,-0.012695,-0.320801,-0.0064719999999999995,0.006084,0.002967,-29.870001000000002,-22.18,-16.68,2d
2019-07-15_182217:340,-0.384857,-0.014740000000000001,-0.30654899999999996,-0.006258,0.006572,0.002571,-31.0,-22.559998999999998,-16.68,2d
2019-07-15_182217:360,-0.392487,-0.013702,-0.31012,-0.0056170000000000005,0.006633,0.00196,-31.0,-22.559998999999998,-16.68,2d
2019-07-15_182217:380,-0.390961,-0.013702,-0.31369,-0.005678,0.006693999999999999,0.001503,-30.68,-23.0,-16.68,2d
2019-07-15_182217:400,-0.390442,-0.015747,-0.309601,-0.004671,0.006816,0.000221,-30.68,-23.0,-16.68,2d
2019-07-15_182217:420,-0.392487,-0.014221000000000001,-0.308075,-0.00403,0.007091,-0.000176,-30.68,-23.0,-16.68,2d
2019-07-15_182217:440,-0.391968,-0.012177,-0.306061,-0.00339,0.007213,-0.00011499999999999999,-30.25,-23.370001000000002,-16.68,2d
2019-07-15_182217:460,-0.388428,-0.010162000000000001,-0.30300900000000003,-0.0029010000000000004,0.007273999999999999,-0.000512,-30.25,-23.370001000000002,-16.68,2d
2019-07-15_182217:480,-0.38739,-0.0055850000000000006,-0.304016,-0.0029010000000000004,0.006633,-0.0009689999999999999,-30.25,-22.559998999999998,-16.68,2d
2019-07-15_182217:500,-0.389954,-0.006072999999999999,-0.304016,-0.0028399999999999996,0.005504,-0.000573,-30.25,-22.559998999999998,-16.68,2d
2019-07-15_182217:520,-0.393494,-0.0055850000000000006,-0.301483,-0.0031149999999999997,0.005229,-0.000176,-30.25,-22.559998999999998,-16.68,2d
2019-07-15_182217:540,-0.394012,-0.006072999999999999,-0.30249000000000004,-0.003237,0.004894,-0.00011499999999999999,-31.0,-22.559998999999998,-16.68,2d
2019-07-15_182217:560,-0.391479,-0.006592,-0.302002,-0.00339,0.004771,-0.00011499999999999999,-31.0,-22.559998999999998,-16.68,2d
2019-07-15_182217:580,-0.391479,-0.006072999999999999,-0.30249000000000004,-0.0034509999999999996,0.004161,0.00016,-31.370001000000002,-22.559998999999998,-15.75,2d
2019-07-15_182217:600,-0.392487,-0.006072999999999999,-0.301483,-0.00339,0.0041,0.000984,-31.370001000000002,-22.559998999999998,-15.75,2d
2019-07-15_182217:620,-0.391968,-0.006072999999999999,-0.302002,-0.0037560000000000002,0.003978,0.001258,-31.370001000000002,-22.559998999999998,-15.75,2d
2019-07-15_182217:640,-0.390442,-0.006072999999999999,-0.30249000000000004,-0.003817,0.0035810000000000004,0.001625,-30.68,-23.0,-16.68,2d
2019-07-15_182217:660,-0.391968,-0.0055850000000000006,-0.301483,-0.003878,0.0029100000000000003,0.001838,-30.68,-23.0,-16.68,2d
2019-07-15_182217:680,-0.393005,-0.007111,-0.305542,-0.004091,0.002788,0.001838,-31.0,-22.559998999999998,-16.68,2d
2019-07-15_182217:700,-0.392487,-0.008636,-0.304535,-0.004152,0.002391,0.0018989999999999999,-31.0,-22.559998999999998,-16.68,2d
2019-07-15_182217:720,-0.390442,-0.010651,-0.304535,-0.004275,0.002055,0.001442,-31.0,-22.559998999999998,-16.68,2d
2019-07-15_182217:740,-0.389435,-0.011687999999999999,-0.305054,-0.004275,0.0016589999999999999,0.001381,-30.25,-22.18,-16.68,2d
2019-07-15_182217:760,-0.391479,-0.012177,-0.305054,-0.004397,0.001292,0.001381,-30.25,-22.18,-16.68,2d
2019-07-15_182217:780,-0.391479,-0.013213999999999998,-0.307068,-0.004397,0.001292,0.001106,-31.0,-22.18,-16.25,2d
2019-07-15_182217:800,-0.389435,-0.013702,-0.308075,-0.00461,0.0010789999999999999,0.000831,-31.0,-22.18,-16.25,2d
2019-07-15_182217:820,-0.386902,-0.013213999999999998,-0.306061,-0.004397,0.000743,0.000648,-31.0,-22.18,-16.25,2d
2019-07-15_182217:840,-0.384857,-0.013213999999999998,-0.308594,-0.004549,0.000407,0.000526,-31.370001000000002,-23.0,-16.25,2d
2019-07-15_182217:860,-0.382324,-0.012695,-0.307587,-0.00461,-0.0005690000000000001,7.000000000000001e-06,-31.370001000000002,-23.0,-16.25,2d
2019-07-15_182217:880,-0.382812,-0.013702,-0.309601,-0.004427,-0.001057,-5.4000000000000005e-05,-31.370001000000002,-23.0,-16.25,2d
2019-07-15_182217:900,-0.385376,-0.013702,-0.310638,-0.004213000000000001,-0.002034,-0.000664,-31.370001000000002,-22.559998999999998,-15.5,2d
2019-07-15_182217:920,-0.387909,-0.013213999999999998,-0.313171,-0.0037560000000000002,-0.002309,-0.001,-31.370001000000002,-22.559998999999998,-15.5,2d
2019-07-15_182217:940,-0.385864,-0.012695,-0.316742,-0.003664,-0.002248,-0.001366,-31.0,-23.0,-15.5,2d
2019-07-15_182217:960,-0.38739,-0.012177,-0.316742,-0.003237,-0.002522,-0.001519,-31.0,-23.0,-15.5,2d
2019-07-15_182217:980,-0.386383,-0.008636,-0.315704,-0.002993,-0.002583,-0.001641,-31.370001000000002,-23.0,-17.0,2d
2019-07-15_182218:000,-0.38385,-0.008118,-0.314178,-0.002932,-0.002827,-0.00158,-31.370001000000002,-23.0,-17.0,2d
2019-07-15_182218:020,-0.379272,-0.006072999999999999,-0.314697,-0.0031149999999999997,-0.003102,-0.001366,-31.370001000000002,-23.0,-17.0,2d
2019-07-15_182218:040,-0.380798,-0.004547,-0.31723,-0.0033280000000000002,-0.003621,-0.001183,-30.68,-22.559998999999998,-17.5,2d
2019-07-15_182218:060,-0.387909,-0.004547,-0.316742,-0.003664,-0.004109000000000001,-0.000786,-30.68,-22.559998999999998,-17.5,2d
2019-07-15_182218:080,-0.389435,-0.0055850000000000006,-0.319275,-0.004,-0.003682,-0.000573,-30.68,-22.559998999999998,-17.5,2d
2019-07-15_182218:100,-0.386902,-0.006592,-0.319794,-0.004336,-0.002248,0.000343,-30.68,-22.18,-15.75,2d
2019-07-15_182218:120,-0.388428,-0.006592,-0.320801,-0.004488000000000001,-0.001393,0.000587,-30.68,-22.18,-15.75,2d
2019-07-15_182218:140,-0.387909,-0.008118,-0.322327,-0.004732,-0.001027,0.0007700000000000001,-30.25,-22.18,-17.0,2d
2019-07-15_182218:160,-0.384338,-0.007111,-0.321808,-0.004427,0.000133,0.000648,-30.25,-22.18,-17.0,2d
2019-07-15_182218:180,-0.381805,-0.009125,-0.320282,-0.004397,0.000621,0.000496,-29.870001000000002,-22.559998999999998,-17.0,2d
2019-07-15_182218:200,-0.382324,-0.009644,-0.319275,-0.00403,0.000743,0.000465,-29.870001000000002,-22.559998999999998,-17.0,2d
2019-07-15_182218:220,-0.382812,-0.010162000000000001,-0.318756,-0.00403,0.000682,0.000221,-29.870001000000002,-22.559998999999998,-17.0,2d
2019-07-15_182218:240,-0.381805,-0.011687999999999999,-0.319794,-0.0037560000000000002,0.000682,-0.00045099999999999996,-30.25,-23.0,-16.25,2d
2019-07-15_182218:260,-0.382324,-0.008118,-0.318756,-0.0036340000000000005,0.000682,-0.000267,-30.25,-23.0,-16.25,2d
2019-07-15_182218:280,-0.382812,-0.008118,-0.320282,-0.0036340000000000005,0.0008960000000000001,0.0007700000000000001,-30.25,-22.18,-17.0,2d
2019-07-15_182218:300,-0.379791,-0.007599,-0.317749,-0.003878,0.001201,0.000709,-30.25,-22.18,-17.0,2d
2019-07-15_182218:320,-0.381317,-0.007599,-0.318756,-0.004397,0.00056,7.000000000000001e-06,-30.25,-22.18,-17.0,2d
2019-07-15_182218:340,-0.382812,-0.006592,-0.318268,-0.004549,0.000407,-0.0011220000000000002,-29.870001000000002,-21.5,-16.68,2d
2019-07-15_182218:360,-0.381317,-0.0055850000000000006,-0.31723,-0.004793,0.00022400000000000002,-0.001366,-29.870001000000002,-21.5,-16.68,2d
2019-07-15_182218:380,-0.381317,-0.0055850000000000006,-0.319275,-0.004824,0.000346,-0.0009689999999999999,-29.870001000000002,-21.5,-16.68,2d
2019-07-15_182218:400,-0.381317,-0.005065999999999999,-0.318756,-0.005343,-5e-05,-0.0011220000000000002,-29.870001000000002,-22.18,-16.68,2d
2019-07-15_182218:420,-0.382324,-0.0055850000000000006,-0.318756,-0.005282,-0.00011100000000000001,-0.000786,-29.870001000000002,-22.18,-16.68,2d
2019-07-15_182218:440,-0.381317,-0.006072999999999999,-0.319794,-0.004824,0.00022400000000000002,-0.000328,-30.25,-23.370001000000002,-17.0,2d
2019-07-15_182218:460,-0.378265,-0.0055850000000000006,-0.319794,-0.004397,1.1e-05,0.000129,-30.25,-23.370001000000002,-17.0,2d
2019-07-15_182218:480,-0.377228,-0.006592,-0.320801,-0.003817,-0.000264,0.000526,-30.25,-23.370001000000002,-17.5,2d
2019-07-15_182218:500,-0.381317,-0.006592,-0.320282,-0.003054,-0.000325,0.000343,-30.25,-23.370001000000002,-17.5,2d
2019-07-15_182218:520,-0.384857,-0.007111,-0.32132,-0.0025960000000000002,0.000407,-5.4000000000000005e-05,-30.25,-23.370001000000002,-17.5,2d
2019-07-15_182218:540,-0.381317,-0.006592,-0.323334,-0.002443,0.000468,-0.00023700000000000001,-29.870001000000002,-23.370001000000002,-17.0,2d
2019-07-15_182218:560,-0.378754,-0.007599,-0.32486,-0.002169,0.000468,-0.000573,-29.870001000000002,-23.370001000000002,-17.0,2d
2019-07-15_182218:580,-0.379272,-0.006072999999999999,-0.327423,-0.0020469999999999998,0.000285,-0.000725,-29.870001000000002,-23.370001000000002,-17.0,2d
2019-07-15_182218:600,-0.38028,-0.006072999999999999,-0.329437,-0.001986,0.000285,-0.000664,-30.25,-23.370001000000002,-17.75,2d
2019-07-15_182218:620,-0.38385,-0.005065999999999999,-0.330475,-0.0021079999999999996,0.001018,-0.001,-30.25,-23.370001000000002,-17.75,2d
2019-07-15_182218:640,-0.382324,-0.0030210000000000002,-0.327911,-0.002382,0.001415,-0.001519,-30.25,-23.370001000000002,-16.68,2d
2019-07-15_182218:660,-0.387909,-0.002014,-0.32843,-0.002535,0.0024519999999999998,-0.001366,-30.25,-23.370001000000002,-16.68,2d
2019-07-15_182218:680,-0.385864,-0.0025329999999999997,-0.329437,-0.002535,0.0035810000000000004,-0.000573,-30.25,-23.370001000000002,-16.68,2d
2019-07-15_182218:700,-0.381805,-0.000488,-0.325897,-0.002779,0.004161,-0.000634,-29.18,-23.0,-16.68,2d
2019-07-15_182218:720,-0.38028,0.0,-0.323853,-0.002932,0.004436,7.000000000000001e-06,-29.18,-23.0,-16.68,2d
2019-07-15_182218:740,-0.379272,0.001007,-0.318756,-0.00339,0.004436,0.000709,-30.25,-23.370001000000002,-16.68,2d
2019-07-15_182218:760,-0.378754,0.002014,-0.316223,-0.004336,0.004436,0.000709,-30.25,-23.370001000000002,-16.68,2d
2019-07-15_182218:780,-0.375702,0.0030210000000000002,-0.31723,-0.005221,0.003825,0.001503,-30.25,-23.370001000000002,-16.68,2d
2019-07-15_182218:800,-0.373688,0.002014,-0.318268,-0.006197,0.0029100000000000003,0.0022960000000000003,-29.5,-23.68,-17.0,2d
2019-07-15_182218:820,-0.375702,0.0,-0.318268,-0.0069299999999999995,0.001964,0.002784,-29.5,-23.68,-17.0,2d
2019-07-15_182218:840,-0.379272,-0.0035399999999999997,-0.320282,-0.007326000000000001,0.0012619999999999999,0.003151,-29.5,-22.559998999999998,-17.059998999999998,2d
2019-07-15_182218:860,-0.384857,-0.006592,-0.321808,-0.007326000000000001,0.001018,0.003303,-29.5,-22.559998999999998,-17.059998999999998,2d
2019-07-15_182218:880,-0.386902,-0.006072999999999999,-0.321808,-0.0069299999999999995,0.001415,0.003486,-29.5,-22.559998999999998,-17.059998999999998,2d
2019-07-15_182218:900,-0.386383,-0.007599,-0.322845,-0.00635,0.002391,0.003486,-30.25,-22.559998999999998,-17.059998999999998,2d
2019-07-15_182218:920,-0.385864,-0.008636,-0.321808,-0.005953,0.0029100000000000003,0.00309,-30.25,-22.559998999999998,-17.059998999999998,2d
2019-07-15_182218:940,-0.384338,-0.0055850000000000006,-0.318756,-0.005282,0.003368,0.00309,-30.68,-23.0,-16.68,2d
2019-07-15_182218:960,-0.384338,-0.0055850000000000006,-0.31723,-0.005221,0.0034289999999999998,0.002967,-30.68,-23.0,-16.68,2d
2019-07-15_182218:980,-0.382812,-0.005065999999999999,-0.318268,-0.0051600000000000005,0.0035810000000000004,0.002693,-30.68,-23.0,-16.68,2d
2019-07-15_182219:000,-0.381317,-0.0035399999999999997,-0.315704,-0.005129,0.00349,0.0026320000000000002,-30.68,-23.68,-16.25,2d
2019-07-15_182219:020,-0.382812,-0.005065999999999999,-0.316742,-0.005404,0.003124,0.00251,-30.68,-23.68,-16.25,2d
2019-07-15_182219:040,-0.384338,-0.005065999999999999,-0.31723,-0.005739,0.002757,0.002449,-30.25,-22.559998999999998,-17.75,2d
2019-07-15_182219:060,-0.385864,-0.005065999999999999,-0.314697,-0.005861,0.002696,0.002571,-30.25,-22.559998999999998,-17.75,2d
2019-07-15_182219:080,-0.384338,-0.007599,-0.314697,-0.0058,0.002971,0.002693,-30.25,-22.559998999999998,-17.75,2d
2019-07-15_182219:100,-0.38385,-0.006592,-0.31369,-0.0056170000000000005,0.002574,0.0029059999999999997,-30.25,-23.0,-15.75,2d
2019-07-15_182219:120,-0.383331,-0.007111,-0.314178,-0.005526,0.0023,0.00309,-30.25,-23.0,-15.75,2d
2019-07-15_182219:140,-0.382812,-0.007111,-0.31369,-0.005404,0.001994,0.002784,-29.870001000000002,-23.0,-16.68,2d
2019-07-15_182219:160,-0.385864,-0.006072999999999999,-0.313171,-0.005526,0.0019030000000000002,0.002784,-29.870001000000002,-23.0,-16.68,2d
2019-07-15_182219:180,-0.38739,-0.009644,-0.316742,-0.0058,0.002177,0.002449,-29.870001000000002,-23.0,-16.68,2d
2019-07-15_182219:200,-0.386902,-0.009644,-0.315704,-0.005526,0.002239,0.0022960000000000003,-30.25,-23.0,-17.0,2d
2019-07-15_182219:220,-0.38385,-0.011169,-0.315216,-0.005465,0.002177,0.001655,-30.25,-23.0,-17.0,2d
2019-07-15_182219:240,-0.38385,-0.010651,-0.31723,-0.005068,0.002239,0.001106,-30.25,-23.0,-16.68,2d
2019-07-15_182219:260,-0.38385,-0.011687999999999999,-0.316223,-0.004427,0.001964,0.000923,-30.25,-23.0,-16.68,2d
2019-07-15_182219:280,-0.385376,-0.010162000000000001,-0.316223,-0.004,0.001964,0.001258,-30.25,-22.559998999999998,-16.68,2d
2019-07-15_182219:300,-0.384857,-0.009644,-0.315704,-0.003664,0.0016589999999999999,0.000984,-30.25,-22.559998999999998,-16.68,2d
2019-07-15_182219:320,-0.385376,-0.008636,-0.31723,-0.0036340000000000005,0.0019030000000000002,0.000831,-30.25,-22.559998999999998,-16.68,2d
2019-07-15_182219:340,-0.38739,-0.006592,-0.316742,-0.003512,0.001994,0.001106,-29.870001000000002,-22.18,-16.25,2d
2019-07-15_182219:360,-0.385376,-0.008636,-0.315704,-0.0036950000000000004,0.002391,0.000496,-29.870001000000002,-22.18,-16.25,2d
2019-07-15_182219:380,-0.386383,-0.006072999999999999,-0.315216,-0.004091,0.002574,0.0007700000000000001,-29.870001000000002,-22.18,-16.25,2d
2019-07-15_182219:400,-0.385376,-0.009644,-0.314697,-0.003939,0.002849,0.001381,-30.25,-22.559998999999998,-17.75,2d
2019-07-15_182219:420,-0.384338,-0.009125,-0.315704,-0.004336,0.002788,0.000526,-30.25,-22.559998999999998,-17.75,2d
2019-07-15_182219:440,-0.384857,-0.011687999999999999,-0.31723,-0.00403,0.002177,0.00016,-30.25,-22.559998999999998,-16.68,2d
2019-07-15_182219:460,-0.388428,-0.012177,-0.314697,-0.003817,0.001964,-0.0010609999999999999,-30.25,-22.559998999999998,-16.68,2d
2019-07-15_182219:480,-0.388916,-0.009125,-0.31369,-0.00339,0.002116,-0.001,-29.870001000000002,-22.559998999999998,-17.0,2d
2019-07-15_182219:500,-0.387909,-0.010651,-0.314697,-0.002932,0.002849,-0.000267,-29.870001000000002,-22.559998999999998,-17.0,2d
2019-07-15_182219:520,-0.386902,-0.009125,-0.313171,-0.0028399999999999996,0.003093,-0.0010609999999999999,-29.870001000000002,-22.559998999999998,-17.0,2d
2019-07-15_182219:540,-0.38385,-0.009644,-0.313171,-0.002382,0.003124,-0.001641,-29.870001000000002,-22.559998999999998,-16.68,2d
2019-07-15_182219:560,-0.382324,-0.007599,-0.31369,-0.001925,0.002757,-0.00216,-29.870001000000002,-22.559998999999998,-16.68,2d
2019-07-15_182219:580,-0.382812,-0.007111,-0.31369,-0.001467,0.002361,-0.002251,-29.870001000000002,-22.559998999999998,-16.68,2d
2019-07-15_182219:600,-0.384338,-0.005065999999999999,-0.313171,-0.001467,0.00172,-0.001854,-30.68,-22.559998999999998,-16.25,2d
2019-07-15_182219:620,-0.384338,-0.002014,-0.312653,-0.0014060000000000001,0.0016589999999999999,-0.0013050000000000002,-30.68,-22.559998999999998,-16.25,2d
2019-07-15_182219:640,-0.385376,-0.0025329999999999997,-0.312653,-0.001986,0.001292,-0.0011220000000000002,-30.68,-22.559998999999998,-17.5,2d
2019-07-15_182219:660,-0.384338,-0.002014,-0.31369,-0.0025960000000000002,0.0012619999999999999,-0.0009689999999999999,-30.68,-22.559998999999998,-17.5,2d
2019-07-15_182219:680,-0.382812,-0.0035399999999999997,-0.314697,-0.003176,0.0010789999999999999,-0.000664,-30.68,-22.559998999999998,-17.5,2d
2019-07-15_182219:700,-0.38385,-0.005065999999999999,-0.316223,-0.0036340000000000005,0.000865,-0.000634,-29.870001000000002,-23.370001000000002,-15.06,2d
2019-07-15_182219:720,-0.384338,-0.005065999999999999,-0.315704,-0.003939,0.000468,-0.000176,-29.870001000000002,-23.370001000000002,-15.06,2d
2019-07-15_182219:740,-0.386383,-0.006072999999999999,-0.31723,-0.003817,0.000407,-0.00023700000000000001,-29.870001000000002,-23.0,-16.25,2d
2019-07-15_182219:760,-0.386383,-0.0055850000000000006,-0.315216,-0.0036950000000000004,0.000743,-0.0013050000000000002,-29.870001000000002,-23.0,-16.25,2d
2019-07-15_182219:780,-0.382812,-0.0055850000000000006,-0.317749,-0.0036340000000000005,0.000682,-0.000725,-29.870001000000002,-23.0,-16.25,2d
2019-07-15_182219:800,-0.385376,-0.0055850000000000006,-0.316742,-0.003512,0.000346,-0.000389,-30.68,-22.18,-17.0,2d
2019-07-15_182219:820,-0.385376,-0.0030210000000000002,-0.316223,-0.0036950000000000004,0.00016299999999999998,-0.000573,-30.68,-22.18,-17.0,2d
2019-07-15_182219:840,-0.384338,-0.0025329999999999997,-0.318756,-0.0037560000000000002,0.000468,-5.4000000000000005e-05,-30.25,-22.559998999999998,-17.5,2d
2019-07-15_182219:860,-0.385376,-0.001495,-0.316223,-0.004091,0.000499,-0.000176,-30.25,-22.559998999999998,-17.5,2d
2019-07-15_182219:880,-0.383331,-0.0030210000000000002,-0.316742,-0.004427,0.000682,-0.000176,-30.25,-22.559998999999998,-17.5,2d
2019-07-15_182219:900,-0.385864,-0.004059,-0.318756,-0.004488000000000001,0.000682,-0.00045099999999999996,-29.5,-23.0,-15.75,2d
2019-07-15_182219:920,-0.385864,-0.004059,-0.31723,-0.004427,0.001018,-0.000634,-29.5,-23.0,-15.75,2d
2019-07-15_182219:940,-0.384857,-0.004059,-0.318268,-0.003939,0.001201,-0.00023700000000000001,-29.5,-23.0,-17.0,2d
2019-07-15_182219:960,-0.382812,-0.0035399999999999997,-0.317749,-0.0034509999999999996,0.001415,-0.000267,-29.5,-23.0,-17.0,2d
2019-07-15_182219:980,-0.383331,-0.0030210000000000002,-0.31723,-0.002993,0.001292,-0.00011499999999999999,-29.5,-23.0,-17.0,2d
2019-07-15_182220:000,-0.38385,-0.0025329999999999997,-0.31723,-0.002718,0.001537,7.000000000000001e-06,-29.870001000000002,-23.0,-16.25,2d
2019-07-15_182220:020,-0.382812,-0.001495,-0.317749,-0.002718,0.001628,7.000000000000001e-06,-29.870001000000002,-23.0,-16.25,2d
2019-07-15_182220:040,-0.384338,-0.0035399999999999997,-0.317749,-0.002779,0.001537,7.000000000000001e-06,-29.870001000000002,-23.0,-16.68,2d
2019-07-15_182220:060,-0.384857,-0.0035399999999999997,-0.317749,-0.002779,0.00172,0.00016,-29.870001000000002,-23.0,-16.68,2d
2019-07-15_182220:080,-0.38385,-0.001495,-0.316742,-0.0028399999999999996,0.0017809999999999998,0.00028199999999999997,-29.870001000000002,-23.0,-16.68,2d
2019-07-15_182220:100,-0.383331,-0.002014,-0.31723,-0.002932,0.0016589999999999999,0.000129,-29.870001000000002,-23.0,-16.25,2d
2019-07-15_182220:120,-0.382812,-0.0035399999999999997,-0.315704,-0.0032979999999999997,0.00172,6.8e-05,-29.870001000000002,-23.0,-16.25,2d
2019-07-15_182220:140,-0.381317,-0.0035399999999999997,-0.315216,-0.0034509999999999996,0.001292,-0.000176,-30.25,-22.559998999999998,-17.5,2d
2019-07-15_182220:160,-0.38385,-0.005065999999999999,-0.316223,-0.0036340000000000005,0.00114,-5.4000000000000005e-05,-30.25,-22.559998999999998,-17.5,2d
2019-07-15_182220:180,-0.381317,-0.0035399999999999997,-0.315704,-0.0034509999999999996,0.0008960000000000001,6.8e-05,-30.25,-22.559998999999998,-17.5,2d
2019-07-15_182220:200,-0.381317,-0.004059,-0.316742,-0.0031149999999999997,0.000621,7.000000000000001e-06,-29.870001000000002,-22.559998999999998,-18.25,2d
2019-07-15_182220:220,-0.381805,-0.004059,-0.316742,-0.002993,0.000346,6.8e-05,-29.870001000000002,-22.559998999999998,-18.25,2d
2019-07-15_182220:240,-0.383331,-0.0030210000000000002,-0.319275,-0.002932,0.00022400000000000002,6.8e-05,-29.5,-23.0,-17.0,2d
2019-07-15_182220:260,-0.385376,-0.004059,-0.321808,-0.0033280000000000002,0.00016299999999999998,0.000221,-29.5,-23.0,-17.0,2d
2019-07-15_182220:280,-0.389954,-0.005065999999999999,-0.320801,-0.0034509999999999996,0.000682,0.000221,-29.5,-23.0,-17.0,2d
2019-07-15_182220:300,-0.38739,-0.004547,-0.320282,-0.0034509999999999996,0.001353,6.8e-05,-30.68,-23.0,-16.68,2d
2019-07-15_182220:320,-0.385376,-0.004059,-0.319275,-0.0034509999999999996,0.001964,-0.000389,-30.68,-23.0,-16.68,2d
2019-07-15_182220:340,-0.382812,-0.004059,-0.318268,-0.0033280000000000002,0.0023,-0.000512,-29.5,-23.0,-17.75,2d
2019-07-15_182220:360,-0.382812,-0.004059,-0.316742,-0.00339,0.0019030000000000002,-0.00045099999999999996,-29.5,-23.0,-17.75,2d
2019-07-15_182220:380,-0.38385,-0.004059,-0.318268,-0.0034509999999999996,0.001598,-0.000176,-29.5,-23.0,-17.75,2d
2019-07-15_182220:400,-0.38385,-0.0035399999999999997,-0.31723,-0.00339,0.0017809999999999998,-0.000176,-29.870001000000002,-23.370001000000002,-17.0,2d
2019-07-15_182220:420,-0.382324,-0.0025329999999999997,-0.315704,-0.0031149999999999997,0.0019030000000000002,-0.00011499999999999999,-29.870001000000002,-23.370001000000002,-17.0,2d
2019-07-15_182220:440,-0.38385,-0.0035399999999999997,-0.314697,-0.0032979999999999997,0.0014759999999999999,-0.000267,-29.18,-22.559998999999998,-17.75,2d
2019-07-15_182220:460,-0.382812,-0.001007,-0.314178,-0.00339,0.0014759999999999999,0.000526,-29.18,-22.559998999999998,-17.75,2d
2019-07-15_182220:480,-0.386902,-0.004059,-0.316742,-0.003664,0.0014759999999999999,0.001258,-29.18,-22.559998999999998,-17.75,2d
2019-07-15_182220:500,-0.384338,-0.0025329999999999997,-0.31723,-0.003878,0.00172,0.000831,-29.5,-23.0,-17.0,2d
2019-07-15_182220:520,-0.382324,-0.005065999999999999,-0.31723,-0.0037560000000000002,0.0014759999999999999,0.000831,-29.5,-23.0,-17.0,2d
2019-07-15_182220:540,-0.385376,-0.005065999999999999,-0.317749,-0.004091,0.000865,-0.000328,-30.25,-23.0,-16.68,2d
2019-07-15_182220:560,-0.384857,-0.006072999999999999,-0.316742,-0.003664,0.0009570000000000001,0.000343,-30.25,-23.0,-16.68,2d
2019-07-15_182220:580,-0.384857,-0.006072999999999999,-0.318268,-0.003237,0.001201,0.0008619999999999999,-30.25,-23.0,-16.68,2d
2019-07-15_182220:600,-0.384338,-0.0035399999999999997,-0.318756,-0.002779,0.0014759999999999999,0.000129,-29.870001000000002,-23.370001000000002,-17.0,2d
2019-07-15_182220:620,-0.384338,-0.0025329999999999997,-0.316223,-0.002535,0.001292,0.000221,-29.870001000000002,-23.370001000000002,-17.0,2d
2019-07-15_182220:640,-0.38385,-0.001007,-0.315704,-0.002535,0.0017809999999999998,0.000404,-30.25,-22.559998999999998,-17.0,2d
2019-07-15_182220:660,-0.383331,-0.001007,-0.316223,-0.002779,0.001842,0.000526,-30.25,-22.559998999999998,-17.0,2d
2019-07-15_182220:680,-0.38385,-0.000488,-0.31723,-0.003237,0.0016589999999999999,0.000526,-30.25,-22.559998999999998,-17.0,2d
2019-07-15_182220:700,-0.383331,-0.001495,-0.31723,-0.00339,0.0014759999999999999,0.000709,-29.18,-23.0,-16.68,2d
2019-07-15_182220:720,-0.382812,-0.004059,-0.317749,-0.0036950000000000004,0.001415,0.000709,-29.18,-23.0,-16.68,2d
2019-07-15_182220:740,-0.381805,-0.0035399999999999997,-0.319275,-0.003817,0.001201,0.000923,-29.870001000000002,-22.18,-18.25,2d
2019-07-15_182220:760,-0.384338,-0.004059,-0.316742,-0.0037560000000000002,0.0010789999999999999,0.001045,-29.870001000000002,-22.18,-18.25,2d
2019-07-15_182220:780,-0.385864,-0.004059,-0.318268,-0.00403,0.001415,0.000984,-29.870001000000002,-22.18,-18.25,2d
2019-07-15_182220:800,-0.38385,-0.004059,-0.31723,-0.003878,0.0019030000000000002,0.00132,-29.870001000000002,-23.0,-15.75,2d
2019-07-15_182220:820,-0.382324,-0.0055850000000000006,-0.31723,-0.004091,0.002055,0.00132,-29.870001000000002,-23.0,-15.75,2d
2019-07-15_182220:840,-0.380798,-0.0055850000000000006,-0.319275,-0.004091,0.00172,0.000221,-29.870001000000002,-22.559998999999998,-17.5,2d
2019-07-15_182220:860,-0.381317,-0.006072999999999999,-0.31723,-0.004,0.0014759999999999999,-0.000176,-29.870001000000002,-22.559998999999998,-17.5,2d
2019-07-15_182220:880,-0.38385,-0.006072999999999999,-0.319275,-0.00403,0.0010789999999999999,-0.000328,-29.870001000000002,-22.559998999999998,-17.5,2d
2019-07-15_182220:900,-0.385864,-0.0055850000000000006,-0.318268,-0.0036340000000000005,0.001292,-0.000389,-29.870001000000002,-22.559998999999998,-16.25,2d
2019-07-15_182220:920,-0.386383,-0.004059,-0.318268,-0.0031149999999999997,0.001628,-0.00011499999999999999,-29.870001000000002,-22.559998999999998,-16.25,2d
2019-07-15_182220:940,-0.384338,-0.002014,-0.317749,-0.003176,0.001964,0.000129,-29.870001000000002,-23.68,-16.68,2d
2019-07-15_182220:960,-0.38385,-0.002014,-0.316742,-0.002993,0.002239,-0.00023700000000000001,-29.870001000000002,-23.68,-16.68,2d
2019-07-15_182220:980,-0.38385,-0.000488,-0.317749,-0.00339,0.002361,-0.00023700000000000001,-29.870001000000002,-23.68,-16.68,2d
2019-07-15_182221:000,-0.383331,-0.0030210000000000002,-0.317749,-0.0036340000000000005,0.002239,-0.000328,-29.870001000000002,-23.0,-16.25,2d
2019-07-15_182221:020,-0.382812,-0.0030210000000000002,-0.317749,-0.003817,0.002177,-0.000328,-29.870001000000002,-23.0,-16.25,2d
2019-07-15_182221:040,-0.382812,-0.0030210000000000002,-0.317749,-0.003878,0.002116,-0.00023700000000000001,-30.25,-22.559998999999998,-15.5,2d
2019-07-15_182221:060,-0.384857,-0.0025329999999999997,-0.317749,-0.003817,0.002239,-5.4000000000000005e-05,-30.25,-22.559998999999998,-15.5,2d
2019-07-15_182221:080,-0.383331,-0.0025329999999999997,-0.31723,-0.003664,0.0023,6.8e-05,-30.25,-22.559998999999998,-15.5,2d
2019-07-15_182221:100,-0.383331,-0.001007,-0.31723,-0.003512,0.0023,0.000465,-29.870001000000002,-23.370001000000002,-17.5,2d
2019-07-15_182221:120,-0.383331,-0.001007,-0.317749,-0.003664,0.0023,0.000648,-29.870001000000002,-23.370001000000002,-17.5,2d
2019-07-15_182221:140,-0.382812,-0.002014,-0.319275,-0.003939,0.001994,0.000709,-29.870001000000002,-22.559998999999998,-17.5,2d
2019-07-15_182221:160,-0.383331,-0.002014,-0.318756,-0.004336,0.002177,0.000831,-29.870001000000002,-22.559998999999998,-17.5,2d
2019-07-15_182221:180,-0.38028,-0.0025329999999999997,-0.31723,-0.004336,0.002055,0.000709,-29.870001000000002,-22.559998999999998,-17.5,2d
2019-07-15_182221:200,-0.377747,-0.0030210000000000002,-0.31723,-0.00461,0.001353,0.000496,-29.5,-23.0,-17.0,2d
2019-07-15_182221:220,-0.374176,0.0,-0.315704,-0.0048850000000000005,0.00056,0.000221,-29.5,-23.0,-17.0,2d
2019-07-15_182221:240,-0.376221,-0.002014,-0.314178,-0.005404,-0.0008439999999999999,0.000465,-30.25,-22.559998999999998,-17.0,2d
2019-07-15_182221:260,-0.38739,-0.006072999999999999,-0.31369,-0.005404,-0.001759,-0.000664,-30.25,-22.559998999999998,-17.0,2d
2019-07-15_182221:280,-0.388916,-0.004059,-0.315216,-0.004946,-0.001179,-0.001397,-30.25,-22.559998999999998,-17.0,2d
2019-07-15_182221:300,-0.38739,-0.006072999999999999,-0.31723,-0.003939,0.00016299999999999998,-5.4000000000000005e-05,-29.870001000000002,-23.68,-17.0,2d
2019-07-15_182221:320,-0.385864,-0.0025329999999999997,-0.31723,-0.0033280000000000002,0.001018,6.8e-05,-29.870001000000002,-23.68,-17.0,2d
2019-07-15_182221:340,-0.382324,-0.000488,-0.320282,-0.003237,0.0012619999999999999,-5.4000000000000005e-05,-29.5,-23.370001000000002,-16.68,2d
2019-07-15_182221:360,-0.381805,-0.001495,-0.320282,-0.0033280000000000002,0.0012619999999999999,0.000587,-29.5,-23.370001000000002,-16.68,2d
2019-07-15_182221:380,-0.38385,0.0,-0.321808,-0.003512,0.001018,0.000343,-29.5,-23.370001000000002,-16.68,2d
2019-07-15_182221:400,-0.384857,-0.001495,-0.320801,-0.0036340000000000005,0.0012619999999999999,0.000923,-30.68,-22.559998999999998,-17.0,2d
2019-07-15_182221:420,-0.384857,-0.002014,-0.319794,-0.0037560000000000002,0.001537,0.000648,-30.68,-22.559998999999998,-17.0,2d
2019-07-15_182221:440,-0.38385,-0.0030210000000000002,-0.319794,-0.003939,0.001842,0.000496,-29.870001000000002,-23.0,-17.0,2d
2019-07-15_182221:460,-0.383331,-0.005065999999999999,-0.320801,-0.003817,0.002116,0.00016,-29.870001000000002,-23.0,-17.0,2d
2019-07-15_182221:480,-0.381805,-0.0030210000000000002,-0.320282,-0.003573,0.002239,-0.00011499999999999999,-29.870001000000002,-23.0,-17.0,2d
2019-07-15_182221:500,-0.381317,-0.0030210000000000002,-0.317749,-0.0032979999999999997,0.002177,7.000000000000001e-06,-30.25,-22.18,-17.5,2d
2019-07-15_182221:520,-0.382324,-0.002014,-0.318268,-0.002993,0.002116,7.000000000000001e-06,-30.25,-22.18,-17.5,2d
2019-07-15_182221:540,-0.384857,-0.001495,-0.317749,-0.0029010000000000004,0.0019030000000000002,7.000000000000001e-06,-29.870001000000002,-23.0,-16.68,2d
2019-07-15_182221:560,-0.384338,-0.002014,-0.31723,-0.002993,0.002177,0.00016,-29.870001000000002,-23.0,-16.68,2d
2019-07-15_182221:580,-0.382812,-0.0035399999999999997,-0.318268,-0.002993,0.002116,0.000221,-29.870001000000002,-23.0,-16.68,2d
2019-07-15_182221:600,-0.382324,-0.000488,-0.317749,-0.002993,0.0019030000000000002,7.000000000000001e-06,-29.870001000000002,-23.0,-15.75,2d
2019-07-15_182221:620,-0.385864,-0.002014,-0.316742,-0.0031149999999999997,0.0019030000000000002,0.001381,-29.870001000000002,-23.0,-15.75,2d
2019-07-15_182221:640,-0.384857,-0.001495,-0.317749,-0.0036340000000000005,0.0017809999999999998,0.000709,-29.870001000000002,-22.559998999999998,-17.5,2d
2019-07-15_182221:660,-0.384857,-0.0030210000000000002,-0.316742,-0.0036340000000000005,0.001628,0.0008619999999999999,-29.870001000000002,-22.559998999999998,-17.5,2d
2019-07-15_182221:680,-0.384338,-0.0035399999999999997,-0.31723,-0.003878,0.0019030000000000002,-0.000512,-29.870001000000002,-22.559998999999998,-17.5,2d
2019-07-15_182221:700,-0.382324,-0.002014,-0.317749,-0.003817,0.0016589999999999999,-0.000786,-29.870001000000002,-23.370001000000002,-17.0,2d
2019-07-15_182221:720,-0.384338,-0.0025329999999999997,-0.32486,-0.003664,0.001598,0.000343,-29.870001000000002,-23.370001000000002,-17.0,2d
2019-07-15_182221:740,-0.37674,-0.001007,-0.312164,-0.003939,0.002177,-0.00011499999999999999,-29.5,-23.370001000000002,-15.75,2d
2019-07-15_182221:760,-0.378754,0.0,-0.313171,-0.0033280000000000002,0.001415,-0.00023700000000000001,-29.5,-23.370001000000002,-15.75,2d
2019-07-15_182221:780,-0.381805,-0.000488,-0.316223,-0.0031149999999999997,0.001292,0.00028199999999999997,-29.5,-23.370001000000002,-15.75,2d
2019-07-15_182221:800,-0.381317,-0.000488,-0.318756,-0.0033280000000000002,0.001201,0.000343,-29.870001000000002,-23.370001000000002,-16.68,2d
2019-07-15_182221:820,-0.384338,-0.001007,-0.319794,-0.003512,0.001201,0.000709,-29.870001000000002,-23.370001000000002,-16.68,2d
2019-07-15_182221:840,-0.382324,-0.001495,-0.319794,-0.003573,0.00114,0.000526,-29.870001000000002,-23.370001000000002,-17.0,2d
2019-07-15_182221:860,-0.382324,-0.002014,-0.319794,-0.003664,0.001201,0.000496,-29.870001000000002,-23.370001000000002,-17.0,2d
2019-07-15_182221:880,-0.382324,-0.002014,-0.320801,-0.0037560000000000002,0.001201,0.000496,-29.870001000000002,-23.370001000000002,-17.0,2d
2019-07-15_182221:900,-0.381317,-0.002014,-0.321808,-0.0037560000000000002,0.0008039999999999999,0.000648,-29.18,-23.370001000000002,-16.68,2d
2019-07-15_182221:920,-0.381805,-0.0025329999999999997,-0.318268,-0.0036340000000000005,0.0008039999999999999,0.000587,-29.18,-23.370001000000002,-16.68,2d
2019-07-15_182221:940,-0.382324,-0.001495,-0.320282,-0.0036950000000000004,0.0009570000000000001,0.000709,-29.870001000000002,-23.370001000000002,-17.75,2d
2019-07-15_182221:960,-0.383331,-0.001495,-0.318756,-0.0036950000000000004,0.0014759999999999999,0.001167,-29.870001000000002,-23.370001000000002,-17.75,2d
2019-07-15_182221:980,-0.381317,-0.0035399999999999997,-0.320801,-0.003817,0.001353,0.000404,-29.870001000000002,-23.370001000000002,-17.75,2d
2019-07-15_182222:000,-0.381805,-0.0030210000000000002,-0.319794,-0.004091,0.0012619999999999999,7.000000000000001e-06,-29.5,-23.0,-16.25,2d
2019-07-15_182222:020,-0.382324,-0.004059,-0.319275,-0.003878,0.001292,0.00028199999999999997,-29.5,-23.0,-16.25,2d
2019-07-15_182222:040,-0.38028,-0.004547,-0.319794,-0.003664,0.001018,-0.000176,-29.18,-23.0,-17.0,2d
2019-07-15_182222:060,-0.379791,-0.0030210000000000002,-0.318756,-0.0034509999999999996,0.000743,-0.00011499999999999999,-29.18,-23.0,-17.0,2d
2019-07-15_182222:080,-0.378754,-0.001495,-0.317749,-0.003054,0.000133,0.000129,-29.18,-23.0,-17.0,2d
2019-07-15_182222:100,-0.37674,-0.001007,-0.318268,-0.003176,-0.000325,-0.00023700000000000001,-28.75,-23.370001000000002,-17.5,2d
2019-07-15_182222:120,-0.37265,-0.000488,-0.317749,-0.0032979999999999997,-0.001393,-0.000267,-28.75,-23.370001000000002,-17.5,2d
2019-07-15_182222:140,-0.371643,0.000488,-0.320801,-0.0036950000000000004,-0.002522,-0.000389,-29.18,-23.0,-17.0,2d
2019-07-15_182222:160,-0.37316900000000003,0.000488,-0.319794,-0.003817,-0.004018,-0.000176,-29.18,-23.0,-17.0,2d
2019-07-15_182222:180,-0.377228,0.0,-0.321808,-0.003878,-0.005025,-0.00045099999999999996,-29.18,-23.0,-17.0,2d
2019-07-15_182222:200,-0.380798,-0.0025329999999999997,-0.323334,-0.0036340000000000005,-0.005086,-0.000267,-29.18,-23.370001000000002,-16.68,2d
2019-07-15_182222:220,-0.382324,-0.002014,-0.327423,-0.003054,-0.0046890000000000005,0.000129,-29.18,-23.370001000000002,-16.68,2d
2019-07-15_182222:240,-0.383331,0.0,-0.329437,-0.002718,-0.003896,-0.00011499999999999999,-29.870001000000002,-23.370001000000002,-17.5,2d
2019-07-15_182222:260,-0.386902,-0.000488,-0.327911,-0.002382,-0.002431,-0.000176,-29.870001000000002,-23.370001000000002,-17.5,2d
2019-07-15_182222:280,-0.384338,-0.002014,-0.32843,-0.002199,-0.001057,-0.000328,-29.870001000000002,-23.370001000000002,-17.5,2d
2019-07-15_182222:300,-0.385864,-0.001007,-0.327911,-0.001925,-0.00011100000000000001,-0.00045099999999999996,-29.5,-23.370001000000002,-17.5,2d
2019-07-15_182222:320,-0.381317,0.0,-0.32995599999999997,-0.0018030000000000001,0.001018,-0.000664,-29.5,-23.370001000000002,-17.5,2d
2019-07-15_182222:340,-0.379272,-0.001007,-0.331482,-0.0015890000000000001,0.001994,-0.000634,-28.0,-23.0,-18.68,2d
2019-07-15_182222:360,-0.378265,0.0,-0.328949,-0.0018030000000000001,0.002177,-0.000267,-28.0,-23.0,-18.68,2d
2019-07-15_182222:380,-0.375214,-0.000488,-0.326904,-0.002321,0.001994,-5.4000000000000005e-05,-28.0,-23.0,-18.68,2d
2019-07-15_182222:400,-0.376221,-0.0030210000000000002,-0.325897,-0.002382,0.002055,-0.00011499999999999999,-29.18,-23.0,-15.75,2d
2019-07-15_182222:420,-0.375214,-0.005065999999999999,-0.323334,-0.002199,0.0017809999999999998,-0.00045099999999999996,-29.18,-23.0,-15.75,2d
2019-07-15_182222:440,-0.373688,-0.007111,-0.324371,-0.0017109999999999998,0.001537,-0.001,-29.870001000000002,-23.0,-18.25,2d
2019-07-15_182222:460,-0.374176,-0.007111,-0.323334,-0.000918,0.00114,-0.00158,-29.870001000000002,-23.0,-18.25,2d
2019-07-15_182222:480,-0.374695,-0.007599,-0.326904,-6.3e-05,0.000743,-0.002251,-29.870001000000002,-23.0,-18.25,2d
2019-07-15_182222:500,-0.37674,-0.006592,-0.326904,0.001005,0.000743,-0.00277,-28.370001000000002,-23.68,-17.75,2d
2019-07-15_182222:520,-0.377228,-0.004547,-0.326904,0.001402,0.0008039999999999999,-0.002892,-28.370001000000002,-23.68,-17.75,2d
2019-07-15_182222:540,-0.377228,-0.0030210000000000002,-0.326904,0.0019210000000000002,0.000865,-0.003563,-29.5,-23.68,-17.75,2d
2019-07-15_182222:560,-0.37674,-0.0035399999999999997,-0.325378,0.001982,0.001018,-0.003655,-29.5,-23.68,-17.75,2d
2019-07-15_182222:580,-0.379272,-0.002014,-0.326385,0.002012,0.0012619999999999999,-0.003563,-29.5,-23.68,-17.75,2d
2019-07-15_182222:600,-0.377228,0.000488,-0.326385,0.00186,0.00114,-0.0033799999999999998,-28.370001000000002,-23.68,-17.5,2d
2019-07-15_182222:620,-0.375702,0.000488,-0.32486,0.0016760000000000002,0.0012619999999999999,-0.003167,-28.370001000000002,-23.68,-17.5,2d
2019-07-15_182222:640,-0.378265,0.0025329999999999997,-0.32995599999999997,0.0012490000000000001,0.00114,-0.00277,-29.870001000000002,-23.370001000000002,-17.0,2d
2019-07-15_182222:660,-0.378754,0.0030210000000000002,-0.328949,0.000608,0.001537,-0.002251,-29.870001000000002,-23.370001000000002,-17.0,2d
2019-07-15_182222:680,-0.378754,0.0025329999999999997,-0.32843,-0.000277,0.001842,-0.002434,-29.870001000000002,-23.370001000000002,-17.0,2d
2019-07-15_182222:700,-0.377747,0.002014,-0.326904,-0.001192,0.0024519999999999998,-0.002495,-29.18,-23.68,-17.75,2d
2019-07-15_182222:720,-0.37112399999999995,-0.000488,-0.327911,-0.0020469999999999998,0.002361,-0.00216,-29.18,-23.68,-17.75,2d
2019-07-15_182222:740,-0.372162,-0.002014,-0.326904,-0.002535,0.001598,-0.0023120000000000003,-29.18,-24.059998999999998,-18.68,2d
2019-07-15_182222:760,-0.37674,-0.005065999999999999,-0.323334,-0.002718,0.00114,-0.002495,-29.18,-24.059998999999998,-18.68,2d
2019-07-15_182222:780,-0.377747,-0.0055850000000000006,-0.322845,-0.0025050000000000003,0.0010789999999999999,-0.001854,-29.18,-24.059998999999998,-18.68,2d
2019-07-15_182222:800,-0.379272,-0.007111,-0.325378,-0.0022600000000000003,0.0014759999999999999,-0.001641,-28.370001000000002,-23.68,-17.75,2d
2019-07-15_182222:820,-0.375702,-0.004547,-0.325897,-0.00165,0.001537,-0.0019149999999999998,-28.370001000000002,-23.68,-17.75,2d
2019-07-15_182222:840,-0.375214,-0.0035399999999999997,-0.326904,-0.0009789999999999998,0.001292,-0.0019149999999999998,-28.75,-23.0,-17.75,2d
2019-07-15_182222:860,-0.378265,-0.0025329999999999997,-0.32486,-0.000918,0.001201,-0.0023120000000000003,-28.75,-23.0,-17.75,2d
2019-07-15_182222:880,-0.379272,-0.001007,-0.326904,-0.001009,0.001415,-0.000908,-28.75,-23.0,-17.75,2d
2019-07-15_182222:900,-0.377747,-0.000488,-0.326904,-0.001253,0.001842,-0.000512,-29.18,-23.370001000000002,-17.75,2d
2019-07-15_182222:920,-0.375214,0.0,-0.325897,-0.0018030000000000001,0.0023,-0.001183,-29.18,-23.370001000000002,-17.75,2d
2019-07-15_182222:940,-0.374695,-0.001495,-0.32486,-0.0018030000000000001,0.002361,-0.0008470000000000001,-29.18,-23.68,-17.75,2d
2019-07-15_182222:960,-0.37316900000000003,-0.002014,-0.324371,-0.001925,0.001994,-0.000664,-29.18,-23.68,-17.75,2d
2019-07-15_182222:980,-0.374695,-0.002014,-0.325897,-0.001864,0.001598,-0.000512,-29.18,-23.68,-17.75,2d
2019-07-15_182223:000,-0.375702,-0.001007,-0.32843,-0.001864,0.001598,-0.00011499999999999999,-28.370001000000002,-23.68,-18.68,2d
2019-07-15_182223:020,-0.375214,0.0,-0.327423,-0.001986,0.001292,-5.4000000000000005e-05,-28.370001000000002,-23.68,-18.68,2d
2019-07-15_182223:040,-0.377228,0.001495,-0.325897,-0.0025050000000000003,0.001292,7.000000000000001e-06,-28.0,-24.059998999999998,-19.5,2d
2019-07-15_182223:060,-0.375702,0.001495,-0.327423,-0.002932,0.00172,0.000129,-28.0,-24.059998999999998,-19.5,2d
2019-07-15_182223:080,-0.374695,0.001007,-0.330475,-0.0036950000000000004,0.001964,-0.000512,-28.0,-24.059998999999998,-19.5,2d
2019-07-15_182223:100,-0.37674,0.0,-0.32995599999999997,-0.00403,0.002177,-0.000786,-28.370001000000002,-23.0,-18.68,2d
2019-07-15_182223:120,-0.375214,0.0,-0.32995599999999997,-0.004213000000000001,0.001994,-0.000634,-28.370001000000002,-23.0,-18.68,2d
2019-07-15_182223:140,-0.375214,-0.001007,-0.329437,-0.004275,0.001964,-0.001366,-28.75,-23.0,-17.5,2d
2019-07-15_182223:160,-0.37316900000000003,0.002014,-0.328949,-0.004091,0.002116,-0.0013050000000000002,-28.75,-23.0,-17.5,2d
2019-07-15_182223:180,-0.374176,0.001495,-0.328949,-0.0037560000000000002,0.001628,0.000129,-28.75,-23.0,-17.5,2d
2019-07-15_182223:200,-0.375214,0.0030210000000000002,-0.32843,-0.0036950000000000004,0.001353,0.001045,-29.18,-23.68,-18.25,2d
2019-07-15_182223:220,-0.375214,0.004059,-0.326904,-0.004091,0.001537,0.001991,-29.18,-23.68,-18.25,2d
2019-07-15_182223:240,-0.375702,0.002014,-0.325897,-0.004732,0.001598,0.002693,-28.370001000000002,-23.68,-19.0,2d
2019-07-15_182223:260,-0.374695,0.0,-0.325378,-0.0051600000000000005,0.00172,0.00251,-28.370001000000002,-23.68,-19.0,2d
2019-07-15_182223:280,-0.372162,-0.0030210000000000002,-0.327423,-0.005404,0.001628,0.0022960000000000003,-28.370001000000002,-23.68,-19.0,2d
2019-07-15_182223:300,-0.37265,-0.005065999999999999,-0.327911,-0.005129,0.001292,0.00196,-28.370001000000002,-23.370001000000002,-18.68,2d
2019-07-15_182223:320,-0.374695,-0.006592,-0.326904,-0.004671,0.0008960000000000001,0.001228,-28.370001000000002,-23.370001000000002,-18.68,2d
2019-07-15_182223:340,-0.37674,-0.006072999999999999,-0.328949,-0.004,0.001018,0.0007700000000000001,-28.370001000000002,-23.68,-18.68,2d
2019-07-15_182223:360,-0.376221,-0.004059,-0.327423,-0.0034509999999999996,0.001201,0.000221,-28.370001000000002,-23.68,-18.68,2d
2019-07-15_182223:380,-0.378265,-0.002014,-0.32995599999999997,-0.002993,0.00114,7.000000000000001e-06,-28.370001000000002,-23.68,-18.68,2d
2019-07-15_182223:400,-0.377747,-0.001007,-0.328949,-0.0029010000000000004,0.001537,-0.000176,-28.75,-23.370001000000002,-19.5,2d
2019-07-15_182223:420,-0.377747,0.0,-0.327423,-0.002932,0.001598,0.00016,-28.75,-23.370001000000002,-19.5,2d
2019-07-15_182223:440,-0.377228,0.002014,-0.327911,-0.0031149999999999997,0.0017809999999999998,0.000496,-28.370001000000002,-23.68,-17.75,2d
2019-07-15_182223:460,-0.376221,0.002014,-0.326385,-0.0036950000000000004,0.001994,0.0007700000000000001,-28.370001000000002,-23.68,-17.75,2d
2019-07-15_182223:480,-0.375702,0.001007,-0.325897,-0.004427,0.002055,0.001167,-28.370001000000002,-23.68,-17.75,2d
2019-07-15_182223:500,-0.375214,-0.000488,-0.326385,-0.005007,0.002055,0.001167,-28.0,-23.0,-19.0,2d
2019-07-15_182223:520,-0.377747,-0.002014,-0.325378,-0.005678,0.0019030000000000002,0.001258,-28.0,-23.0,-19.0,2d
2019-07-15_182223:540,-0.377747,-0.001495,-0.325378,-0.005739,0.0019030000000000002,0.001106,-28.75,-23.370001000000002,-18.68,2d
2019-07-15_182223:560,-0.377228,-0.0025329999999999997,-0.323334,-0.0058,0.001994,0.00132,-28.75,-23.370001000000002,-18.68,2d
2019-07-15_182223:580,-0.375702,-0.0025329999999999997,-0.327911,-0.0058,0.001964,0.00132,-28.75,-23.370001000000002,-18.68,2d
2019-07-15_182223:600,-0.37674,-0.0035399999999999997,-0.326904,-0.0056170000000000005,0.001842,0.001564,-28.75,-23.68,-17.75,2d
2019-07-15_182223:620,-0.37674,-0.002014,-0.325897,-0.005404,0.001994,0.001716,-28.75,-23.68,-17.75,2d
2019-07-15_182223:640,-0.378265,-0.0030210000000000002,-0.327911,-0.005221,0.002055,0.001625,-28.75,-23.68,-17.5,2d
2019-07-15_182223:660,-0.377747,-0.0035399999999999997,-0.32486,-0.005129,0.002239,0.001991,-28.75,-23.68,-17.5,2d
2019-07-15_182223:680,-0.377228,-0.0035399999999999997,-0.32486,-0.005007,0.002055,0.002052,-28.75,-23.68,-17.5,2d
2019-07-15_182223:700,-0.37674,-0.0025329999999999997,-0.32486,-0.0048850000000000005,0.001964,0.0018989999999999999,-28.0,-23.68,-18.68,2d
2019-07-15_182223:720,-0.377228,-0.0030210000000000002,-0.324371,-0.0048850000000000005,0.001964,0.002052,-28.0,-23.68,-18.68,2d
2019-07-15_182223:740,-0.37674,-0.0025329999999999997,-0.325897,-0.004732,0.0017809999999999998,0.0018989999999999999,-29.18,-23.68,-19.0,2d
2019-07-15_182223:760,-0.374176,-0.002014,-0.32486,-0.00461,0.001842,0.001777,-29.18,-23.68,-19.0,2d
2019-07-15_182223:780,-0.377228,-0.0030210000000000002,-0.325378,-0.004427,0.00172,0.001503,-29.18,-23.68,-19.0,2d
2019-07-15_182223:800,-0.374695,-0.0030210000000000002,-0.326904,-0.004427,0.001353,0.001381,-28.75,-23.0,-17.75,2d
2019-07-15_182223:820,-0.374176,-0.0025329999999999997,-0.323853,-0.004213000000000001,0.001292,0.001228,-28.75,-23.0,-17.75,2d
2019-07-15_182223:840,-0.372162,-0.0035399999999999997,-0.326385,-0.004,0.000621,0.001167,-28.370001000000002,-23.370001000000002,-18.68,2d
2019-07-15_182223:860,-0.377228,-0.0030210000000000002,-0.326904,-0.0036340000000000005,0.000133,0.000526,-28.370001000000002,-23.370001000000002,-18.68,2d
2019-07-15_182223:880,-0.375214,-0.000488,-0.32486,-0.0036340000000000005,7.2e-05,0.000923,-28.370001000000002,-23.370001000000002,-18.68,2d
2019-07-15_182223:900,-0.377747,-0.0030210000000000002,-0.325378,-0.0032979999999999997,0.00022400000000000002,0.001564,-29.18,-23.0,-18.25,2d
2019-07-15_182223:920,-0.375214,-0.000488,-0.326385,-0.0036950000000000004,0.000285,0.000709,-29.18,-23.0,-18.25,2d
2019-07-15_182223:940,-0.379272,-0.001007,-0.328949,-0.0037560000000000002,0.000346,0.000984,-29.5,-23.370001000000002,-17.5,2d
2019-07-15_182223:960,-0.379791,-0.001007,-0.327911,-0.004152,0.000621,-0.00011499999999999999,-29.5,-23.370001000000002,-17.5,2d
2019-07-15_182223:980,-0.37674,-0.000488,-0.328949,-0.004213000000000001,0.001018,-5.4000000000000005e-05,-29.5,-23.370001000000002,-17.5,2d
2019-07-15_182224:000,-0.373688,-0.001495,-0.32995599999999997,-0.004213000000000001,0.001415,0.0007700000000000001,-28.370001000000002,-23.68,-17.75,2d
2019-07-15_182224:020,-0.374695,-0.000488,-0.327911,-0.004336,0.001415,0.000343,-28.370001000000002,-23.68,-17.75,2d
2019-07-15_182224:040,-0.373688,-0.000488,-0.328949,-0.004,0.001292,0.000343,-29.5,-23.370001000000002,-18.68,2d
2019-07-15_182224:060,-0.374695,-0.000488,-0.326904,-0.004152,0.0012619999999999999,0.000587,-29.5,-23.370001000000002,-18.68,2d
2019-07-15_182224:080,-0.375702,0.0,-0.32843,-0.004336,0.001415,0.001045,-29.5,-23.370001000000002,-18.68,2d
2019-07-15_182224:100,-0.375702,-0.001007,-0.326904,-0.004488000000000001,0.001537,0.001381,-28.370001000000002,-22.559998999999998,-18.68,2d
2019-07-15_182224:120,-0.374176,-0.001495,-0.326385,-0.004488000000000001,0.0014759999999999999,0.000984,-28.370001000000002,-22.559998999999998,-18.68,2d
2019-07-15_182224:140,-0.375214,-0.002014,-0.328949,-0.004488000000000001,0.001292,0.0007700000000000001,-29.18,-24.059998999999998,-17.5,2d
2019-07-15_182224:160,-0.375214,-0.0030210000000000002,-0.326904,-0.003939,0.0012619999999999999,0.0008619999999999999,-29.18,-24.059998999999998,-17.5,2d
2019-07-15_182224:180,-0.374695,-0.001495,-0.32995599999999997,-0.003878,0.0010789999999999999,0.000587,-29.18,-24.059998999999998,-17.5,2d
2019-07-15_182224:200,-0.374695,-0.000488,-0.328949,-0.0036340000000000005,0.001018,0.000587,-29.5,-23.370001000000002,-18.25,2d
2019-07-15_182224:220,-0.375702,-0.001495,-0.327911,-0.003664,0.0012619999999999999,0.000831,-29.5,-23.370001000000002,-18.25,2d
2019-07-15_182224:240,-0.374176,-0.000488,-0.32843,-0.003817,0.0014759999999999999,0.001228,-28.75,-23.0,-17.75,2d
2019-07-15_182224:260,-0.375214,-0.0030210000000000002,-0.327423,-0.003939,0.001628,0.0008619999999999999,-28.75,-23.0,-17.75,2d
2019-07-15_182224:280,-0.375702,-0.0025329999999999997,-0.329437,-0.003939,0.0017809999999999998,0.00016,-28.75,-23.0,-17.75,2d
2019-07-15_182224:300,-0.376221,-0.002014,-0.32843,-0.00403,0.00172,0.000343,-29.18,-23.0,-18.68,2d
2019-07-15_182224:320,-0.375214,-0.001007,-0.32995599999999997,-0.00403,0.0019030000000000002,0.000526,-29.18,-23.0,-18.68,2d
2019-07-15_182224:340,-0.374176,-0.0025329999999999997,-0.329437,-0.003817,0.0016589999999999999,0.000587,-28.370001000000002,-22.559998999999998,-17.5,2d
2019-07-15_182224:360,-0.375702,-0.001495,-0.327911,-0.0037560000000000002,0.00172,0.0008619999999999999,-28.370001000000002,-22.559998999999998,-17.5,2d
2019-07-15_182224:380,-0.37674,-0.001495,-0.327911,-0.003817,0.001842,0.000648,-28.370001000000002,-22.559998999999998,-17.5,2d
2019-07-15_182224:400,-0.377228,-0.000488,-0.32843,-0.004091,0.002177,0.000404,-28.75,-23.370001000000002,-19.0,2d
2019-07-15_182224:420,-0.37674,-0.001495,-0.32843,-0.004,0.002513,0.000343,-28.75,-23.370001000000002,-19.0,2d
2019-07-15_182224:440,-0.375702,-0.0025329999999999997,-0.327911,-0.00403,0.002635,0.000221,-29.5,-23.370001000000002,-17.75,2d
2019-07-15_182224:460,-0.37674,-0.0035399999999999997,-0.327423,-0.004,0.002757,0.000221,-29.5,-23.370001000000002,-17.75,2d
2019-07-15_182224:480,-0.377228,-0.0025329999999999997,-0.326904,-0.003573,0.002696,0.00016,-29.5,-23.370001000000002,-17.75,2d
2019-07-15_182224:500,-0.37674,-0.002014,-0.326385,-0.0032979999999999997,0.002696,0.00028199999999999997,-28.75,-23.0,-19.75,2d
2019-07-15_182224:520,-0.375214,-0.000488,-0.325378,-0.003237,0.0024519999999999998,0.00028199999999999997,-28.75,-23.0,-19.75,2d
2019-07-15_182224:540,-0.375702,0.0,-0.326904,-0.0033280000000000002,0.0023,0.000496,-28.75,-23.68,-17.75,2d
2019-07-15_182224:560,-0.375214,-0.001495,-0.325378,-0.003573,0.0023,0.000526,-28.75,-23.68,-17.75,2d
2019-07-15_182224:580,-0.377228,0.0,-0.325378,-0.0036340000000000005,0.002116,0.000526,-28.75,-23.68,-17.75,2d
2019-07-15_182224:600,-0.374176,-0.0025329999999999997,-0.325378,-0.004,0.002239,0.000587,-29.18,-23.370001000000002,-17.75,2d
2019-07-15_182224:620,-0.374176,0.0,-0.326904,-0.004397,0.001964,0.000709,-29.18,-23.370001000000002,-17.75,2d
2019-07-15_182224:640,-0.374695,-0.001495,-0.325378,-0.004397,0.0016589999999999999,0.000709,-29.5,-24.059998999999998,-18.25,2d
2019-07-15_182224:660,-0.377747,-0.001495,-0.325897,-0.00461,0.0017809999999999998,0.000709,-29.5,-24.059998999999998,-18.25,2d
2019-07-15_182224:680,-0.377747,-0.002014,-0.326385,-0.004671,0.0014759999999999999,0.0007700000000000001,-29.5,-24.059998999999998,-18.25,2d
2019-07-15_182224:700,-0.377747,-0.0030210000000000002,-0.32843,-0.004397,0.001842,0.000923,-29.18,-22.559998999999998,-18.18,2d
2019-07-15_182224:720,-0.377228,-0.0025329999999999997,-0.325378,-0.004152,0.0017809999999999998,0.000587,-29.18,-22.559998999999998,-18.18,2d
2019-07-15_182224:740,-0.378265,-0.0030210000000000002,-0.326385,-0.003878,0.002177,0.000984,-29.18,-23.68,-18.25,2d
2019-07-15_182224:760,-0.377747,-0.002014,-0.325378,-0.003817,0.0023,0.0008619999999999999,-29.18,-23.68,-18.25,2d
2019-07-15_182224:780,-0.375702,-0.001007,-0.325378,-0.003878,0.002361,0.0008619999999999999,-29.18,-23.68,-18.25,2d
2019-07-15_182224:800,-0.375214,-0.000488,-0.32486,-0.003817,0.002239,0.0007700000000000001,-29.870001000000002,-23.370001000000002,-17.75,2d
2019-07-15_182224:820,-0.375214,0.0,-0.325378,-0.00403,0.0017809999999999998,0.000526,-29.870001000000002,-23.370001000000002,-17.75,2d
2019-07-15_182224:840,-0.375702,0.0,-0.325897,-0.004152,0.0016589999999999999,0.000648,-28.75,-23.370001000000002,-18.18,2d
2019-07-15_182224:860,-0.374695,0.0,-0.326904,-0.004549,0.0014759999999999999,0.0007700000000000001,-28.75,-23.370001000000002,-18.18,2d
2019-07-15_182224:880,-0.375214,0.0,-0.325897,-0.004671,0.00114,0.000984,-28.75,-23.370001000000002,-18.18,2d
2019-07-15_182224:900,-0.376221,-0.002014,-0.326904,-0.005007,0.0008960000000000001,0.001167,-29.870001000000002,-24.059998999999998,-18.18,2d
2019-07-15_182224:920,-0.376221,-0.0035399999999999997,-0.325897,-0.004732,0.0010789999999999999,0.001167,-29.870001000000002,-24.059998999999998,-18.18,2d
2019-07-15_182224:940,-0.378754,-0.004547,-0.327423,-0.004,0.001537,0.000984,-29.5,-23.0,-15.75,2d
2019-07-15_182224:960,-0.379272,-0.004547,-0.326385,-0.0036340000000000005,0.0017809999999999998,0.001106,-29.5,-23.0,-15.75,2d
2019-07-15_182224:980,-0.378754,-0.0035399999999999997,-0.326904,-0.003176,0.001842,0.001258,-29.5,-23.0,-15.75,2d
2019-07-15_182225:000,-0.378754,-0.0035399999999999997,-0.325378,-0.002993,0.002055,0.0008619999999999999,-29.5,-23.0,-18.25,2d
2019-07-15_182225:020,-0.378265,-0.0025329999999999997,-0.323853,-0.0028399999999999996,0.001994,0.000221,-29.5,-23.0,-18.25,2d
2019-07-15_182225:040,-0.374695,-0.002014,-0.325378,-0.002932,0.001628,-0.000512,-29.870001000000002,-23.370001000000002,-17.0,2d
2019-07-15_182225:060,-0.376221,0.0,-0.326385,-0.003512,0.001415,0.000221,-29.870001000000002,-23.370001000000002,-17.0,2d
2019-07-15_182225:080,-0.373688,0.000488,-0.32486,-0.0037560000000000002,0.001201,0.001381,-29.870001000000002,-23.370001000000002,-17.0,2d
2019-07-15_182225:100,-0.379272,-0.001495,-0.32486,-0.004427,0.0014759999999999999,0.000831,-29.18,-23.370001000000002,-18.68,2d
2019-07-15_182225:120,-0.378754,-0.000488,-0.325378,-0.004946,0.0014759999999999999,0.000648,-29.18,-23.370001000000002,-18.68,2d
2019-07-15_182225:140,-0.378754,-0.004547,-0.326904,-0.0048850000000000005,0.0017809999999999998,0.00016,-28.370001000000002,-23.370001000000002,-17.5,2d
2019-07-15_182225:160,-0.377228,-0.004059,-0.327911,-0.004427,0.002239,-0.001183,-28.370001000000002,-23.370001000000002,-17.5,2d
2019-07-15_182225:180,-0.374176,-0.004547,-0.326385,-0.0037560000000000002,0.0019030000000000002,-0.000512,-28.370001000000002,-23.370001000000002,-17.5,2d
2019-07-15_182225:200,-0.37316900000000003,-0.0035399999999999997,-0.32486,-0.002993,0.001292,-0.00045099999999999996,-29.870001000000002,-23.68,-17.75,2d
2019-07-15_182225:220,-0.377228,0.0,-0.326385,-0.003054,0.001018,-0.000573,-29.870001000000002,-23.68,-17.75,2d
2019-07-15_182225:240,-0.379791,0.0,-0.32486,-0.0031149999999999997,0.001598,-0.00023700000000000001,-28.75,-23.68,-18.25,2d
2019-07-15_182225:260,-0.37674,0.002014,-0.32486,-0.003939,0.001842,-0.00023700000000000001,-28.75,-23.68,-18.25,2d
2019-07-15_182225:280,-0.375214,0.0030210000000000002,-0.325378,-0.004549,0.0014759999999999999,0.000221,-28.75,-23.68,-18.25,2d
2019-07-15_182225:300,-0.375214,0.0,-0.324371,-0.004793,0.00114,0.000709,-29.18,-23.0,-17.75,2d
2019-07-15_182225:320,-0.375214,-0.001495,-0.32486,-0.004427,0.000621,0.000709,-29.18,-23.0,-17.75,2d
2019-07-15_182225:340,-0.378754,-0.000488,-0.323334,-0.00403,0.001292,0.000984,-29.5,-24.059998999999998,-17.75,2d
2019-07-15_182225:360,-0.38028,0.0,-0.326385,-0.004091,0.001537,0.001045,-29.5,-24.059998999999998,-17.75,2d
2019-07-15_182225:380,-0.379272,0.002014,-0.327423,-0.004824,0.001964,0.001564,-29.5,-24.059998999999998,-17.75,2d
2019-07-15_182225:400,-0.375214,0.0025329999999999997,-0.32843,-0.005068,0.001994,0.001838,-29.18,-23.370001000000002,-18.18,2d
2019-07-15_182225:420,-0.37011700000000003,0.0025329999999999997,-0.325897,-0.006075,0.0012619999999999999,0.001716,-29.18,-23.370001000000002,-18.18,2d
2019-07-15_182225:440,-0.377747,0.0030210000000000002,-0.326904,-0.006411,0.0010789999999999999,0.0018989999999999999,-29.18,-23.68,-17.75,2d
2019-07-15_182225:460,-0.37674,0.000488,-0.326904,-0.007387,0.000621,0.0008619999999999999,-29.18,-23.68,-17.75,2d
2019-07-15_182225:480,-0.377747,0.000488,-0.328949,-0.007540000000000001,0.001201,0.0007700000000000001,-29.18,-23.68,-17.75,2d
2019-07-15_182225:500,-0.379791,0.000488,-0.329437,-0.007662,0.001292,0.000923,-28.75,-23.0,-17.75,2d
2019-07-15_182225:520,-0.38028,-0.001007,-0.328949,-0.007937,0.002055,0.000648,-28.75,-23.0,-17.75,2d
2019-07-15_182225:540,-0.378265,-0.000488,-0.327423,-0.007723000000000001,0.0019030000000000002,0.001106,-29.18,-23.68,-17.5,2d
2019-07-15_182225:560,-0.378265,-0.000488,-0.327423,-0.007479,0.002635,0.000831,-29.18,-23.68,-17.5,2d
2019-07-15_182225:580,-0.378265,-0.001495,-0.326385,-0.0069299999999999995,0.003093,0.000129,-29.18,-23.68,-17.5,2d
2019-07-15_182225:600,-0.375702,-0.0030210000000000002,-0.326904,-0.006533,0.002849,-5.4000000000000005e-05,-28.75,-23.370001000000002,-16.68,2d
2019-07-15_182225:620,-0.372162,-0.001495,-0.323853,-0.0048850000000000005,0.001628,-0.000389,-28.75,-23.370001000000002,-16.68,2d
2019-07-15_182225:640,-0.378754,-0.001495,-0.323853,-0.004549,0.0017809999999999998,-0.000725,-29.18,-23.370001000000002,-17.75,2d
2019-07-15_182225:660,-0.385864,0.0,-0.320801,-0.003237,0.002849,-0.000573,-29.18,-23.370001000000002,-17.75,2d
2019-07-15_182225:680,-0.380798,0.000488,-0.323334,-0.002321,0.003124,-0.000786,-29.18,-23.370001000000002,-17.75,2d
2019-07-15_182225:700,-0.375214,0.001495,-0.325378,-0.0021079999999999996,0.003124,-0.0009689999999999999,-29.5,-23.68,-17.75,2d
2019-07-15_182225:720,-0.37316900000000003,0.0025329999999999997,-0.323334,-0.001864,0.0023,-0.0011220000000000002,-29.5,-23.68,-17.75,2d
2019-07-15_182225:740,-0.373688,0.0035399999999999997,-0.322845,-0.0015279999999999998,0.0016589999999999999,-0.000786,-29.5,-23.68,-17.75,2d
2019-07-15_182225:760,-0.375702,0.004059,-0.323334,-0.00107,0.0010789999999999999,-0.000908,-29.5,-24.059998999999998,-16.68,2d
2019-07-15_182225:780,-0.377747,0.0035399999999999997,-0.322327,-0.0009789999999999998,0.0008039999999999999,-0.0008470000000000001,-29.5,-24.059998999999998,-16.68,2d
2019-07-15_182225:800,-0.38028,0.0055850000000000006,-0.322845,-0.001131,0.001018,-0.0008470000000000001,-28.370001000000002,-23.68,-17.0,2d
2019-07-15_182225:820,-0.378754,0.007599,-0.323853,-0.0014060000000000001,0.002849,-0.00045099999999999996,-28.370001000000002,-23.68,-17.0,2d
2019-07-15_182225:840,-0.375702,0.005065999999999999,-0.325378,-0.0018030000000000001,0.002177,-0.000176,-28.370001000000002,-23.68,-17.0,2d
2019-07-15_182225:860,-0.37112399999999995,0.0055850000000000006,-0.323853,-0.002382,0.001018,7.000000000000001e-06,-29.870001000000002,-23.68,-17.0,2d
2019-07-15_182225:880,-0.37674,0.008118,-0.323334,-0.002657,0.000682,-0.000267,-29.870001000000002,-23.68,-17.0,2d
2019-07-15_182225:900,-0.375214,0.006072999999999999,-0.323853,-0.0032979999999999997,0.00016299999999999998,-0.00011499999999999999,-29.18,-24.059998999999998,-17.0,2d
2019-07-15_182225:920,-0.378754,0.0055850000000000006,-0.322845,-0.003664,0.000285,7.000000000000001e-06,-29.18,-24.059998999999998,-17.0,2d
2019-07-15_182225:940,-0.375702,0.004547,-0.324371,-0.0037560000000000002,0.00022400000000000002,0.000129,-29.18,-23.0,-17.75,2d
2019-07-15_182225:960,-0.37674,0.004547,-0.325378,-0.003939,-0.00011100000000000001,0.000526,-29.18,-23.0,-17.75,2d
2019-07-15_182225:980,-0.377228,0.004547,-0.326904,-0.0037560000000000002,-0.000264,0.000709,-29.18,-23.0,-17.75,2d
2019-07-15_182226:000,-0.379791,0.0035399999999999997,-0.335022,-0.003664,-5e-05,0.000709,-29.18,-24.059998999999998,-17.0,2d
2019-07-15_182226:020,-0.37011700000000003,0.002014,-0.317749,-0.0036340000000000005,0.000407,0.000984,-29.18,-24.059998999999998,-17.0,2d
2019-07-15_182226:040,-0.377228,0.002014,-0.324371,-0.0031149999999999997,0.000285,0.000984,-29.18,-24.059998999999998,-17.0,2d
2019-07-15_182226:060,-0.372162,0.000488,-0.32486,-0.002779,7.2e-05,0.0008619999999999999,-28.75,-24.059998999999998,-17.75,2d
2019-07-15_182226:080,-0.37316900000000003,0.001495,-0.329437,-0.002657,-0.000386,0.000984,-28.75,-24.059998999999998,-17.75,2d
2019-07-15_182226:100,-0.373688,0.0,-0.327911,-0.0025960000000000002,-0.000386,0.001106,-28.75,-24.059998999999998,-17.5,2d
2019-07-15_182226:120,-0.371643,-0.000488,-0.327911,-0.002169,-0.000661,0.000587,-28.75,-24.059998999999998,-17.5,2d
2019-07-15_182226:140,-0.374176,0.001495,-0.327911,-0.001772,-0.0009050000000000001,0.000343,-28.370001000000002,-24.059998999999998,-17.5,2d
2019-07-15_182226:160,-0.37316900000000003,0.000488,-0.325897,-0.00165,-0.000722,0.001625,-28.370001000000002,-24.059998999999998,-17.5,2d
2019-07-15_182226:180,-0.376221,0.001495,-0.32843,-0.0021079999999999996,-0.0008439999999999999,0.000831,-28.370001000000002,-24.059998999999998,-17.5,2d
2019-07-15_182226:200,-0.373688,0.002014,-0.330475,-0.0021079999999999996,-0.0007830000000000001,0.000984,-28.75,-23.68,-16.25,2d
2019-07-15_182226:220,-0.37316900000000003,0.0,-0.330963,-0.002321,-0.001057,0.000831,-28.75,-23.68,-16.25,2d
2019-07-15_182226:240,-0.37265,0.001495,-0.332489,-0.002779,-0.001302,7.000000000000001e-06,-28.75,-23.68,-16.25,2d
2019-07-15_182226:260,-0.373688,0.002014,-0.33197,-0.003237,-0.001515,0.000526,-27.25,-23.68,-17.5,2d
2019-07-15_182226:280,-0.374176,0.000488,-0.332489,-0.0032979999999999997,-0.001057,0.000984,-27.25,-23.68,-17.5,2d
2019-07-15_182226:300,-0.373688,0.000488,-0.33197,-0.0036340000000000005,-0.00044699999999999997,0.000587,-28.75,-23.0,-18.68,2d
2019-07-15_182226:320,-0.369598,0.0,-0.330963,-0.0037560000000000002,-0.000386,0.001045,-28.75,-23.0,-18.68,2d
2019-07-15_182226:340,-0.371643,0.0,-0.331482,-0.0036950000000000004,-0.000386,0.001045,-28.75,-23.0,-18.68,2d
2019-07-15_182226:360,-0.374176,-0.001007,-0.33300799999999997,-0.003817,-0.00044699999999999997,0.000984,-28.75,-23.68,-17.75,2d
2019-07-15_182226:380,-0.372162,-0.001007,-0.332489,-0.003817,-0.00044699999999999997,0.000984,-28.75,-23.68,-17.75,2d
2019-07-15_182226:400,-0.37265,-0.001007,-0.33300799999999997,-0.003817,-0.000264,0.000923,-27.68,-23.370001000000002,-18.68,2d
2019-07-15_182226:420,-0.369598,-0.002014,-0.332489,-0.003939,-0.000233,0.0007700000000000001,-27.68,-23.370001000000002,-18.68,2d
2019-07-15_182226:440,-0.37011700000000003,-0.002014,-0.333496,-0.0036950000000000004,-0.0005690000000000001,0.000831,-27.68,-23.370001000000002,-18.68,2d
2019-07-15_182226:460,-0.370636,-0.001007,-0.332489,-0.0036340000000000005,-0.00063,0.000648,-28.75,-23.68,-18.68,2d
2019-07-15_182226:480,-0.371643,-0.000488,-0.33605999999999997,-0.003512,-0.00044699999999999997,0.0007700000000000001,-28.75,-23.68,-18.68,2d
2019-07-15_182226:500,-0.371643,-0.001007,-0.335541,-0.003512,-5e-05,0.001258,-28.370001000000002,-24.059998999999998,-19.5,2d
2019-07-15_182226:520,-0.367584,-0.002014,-0.335022,-0.0036950000000000004,7.2e-05,0.000831,-28.370001000000002,-24.059998999999998,-19.5,2d
2019-07-15_182226:540,-0.37011700000000003,-0.001495,-0.335541,-0.0036340000000000005,0.00022400000000000002,0.00028199999999999997,-28.370001000000002,-24.059998999999998,-19.5,2d
2019-07-15_182226:560,-0.36911,-0.0030210000000000002,-0.335541,-0.003512,7.2e-05,0.000831,-28.0,-23.68,-17.5,2d
2019-07-15_182226:580,-0.369598,-0.0025329999999999997,-0.335022,-0.0033280000000000002,7.2e-05,0.0007700000000000001,-28.0,-23.68,-17.5,2d
2019-07-15_182226:600,-0.368073,-0.0025329999999999997,-0.335022,-0.0032979999999999997,0.00016299999999999998,0.000587,-28.75,-24.059998999999998,-19.0,2d
2019-07-15_182226:620,-0.366058,-0.002014,-0.335541,-0.0033280000000000002,0.000133,0.000465,-28.75,-24.059998999999998,-19.0,2d
2019-07-15_182226:640,-0.36706500000000003,-0.001007,-0.33605999999999997,-0.003512,-0.00011100000000000001,0.000221,-28.75,-24.059998999999998,-19.0,2d
2019-07-15_182226:660,-0.36654699999999996,0.0,-0.335022,-0.003878,-0.00044699999999999997,7.000000000000001e-06,-28.370001000000002,-23.68,-18.25,2d
2019-07-15_182226:680,-0.364014,0.0,-0.335541,-0.004,-0.000508,0.000129,-28.370001000000002,-23.68,-18.25,2d
2019-07-15_182226:700,-0.361969,-0.0025329999999999997,-0.335022,-0.004152,-0.001179,0.000129,-28.0,-23.370001000000002,-19.0,2d
2019-07-15_182226:720,-0.366058,-0.001007,-0.338074,-0.004,-0.001912,0.000221,-28.0,-23.370001000000002,-19.0,2d
2019-07-15_182226:740,-0.368073,-0.002014,-0.339111,-0.003664,-0.001759,0.000343,-28.0,-23.370001000000002,-19.0,2d
2019-07-15_182226:760,-0.369598,-0.001007,-0.339111,-0.0033280000000000002,-0.001637,0.000343,-28.0,-23.370001000000002,-18.25,2d
2019-07-15_182226:780,-0.370636,-0.0025329999999999997,-0.3396,-0.0028399999999999996,-0.001027,0.000343,-28.0,-23.370001000000002,-18.25,2d
2019-07-15_182226:800,-0.37316900000000003,-0.001495,-0.34063699999999997,-0.002382,-0.000325,0.000496,-28.370001000000002,-23.68,-18.25,2d
2019-07-15_182226:820,-0.36911,-0.001007,-0.3396,-0.002169,0.0009570000000000001,0.000587,-28.370001000000002,-23.68,-18.25,2d
2019-07-15_182226:840,-0.36554000000000003,0.0,-0.342163,-0.001986,0.001201,0.0008619999999999999,-28.370001000000002,-23.68,-18.25,2d
2019-07-15_182226:860,-0.364014,0.0,-0.3396,-0.0021079999999999996,0.0012619999999999999,0.000831,-28.0,-23.68,-18.18,2d
2019-07-15_182226:880,-0.36706500000000003,0.002014,-0.340118,-0.0025960000000000002,0.001537,0.001045,-28.0,-23.68,-18.18,2d
2019-07-15_182226:900,-0.366058,0.001007,-0.3396,-0.003054,0.001537,0.000831,-28.0,-23.370001000000002,-19.5,2d
2019-07-15_182226:920,-0.364014,0.001007,-0.339111,-0.0036950000000000004,0.001415,0.000587,-28.0,-23.370001000000002,-19.5,2d
2019-07-15_182226:940,-0.364532,-0.001007,-0.338074,-0.004091,0.001292,0.000404,-28.0,-23.370001000000002,-19.5,2d
2019-07-15_182226:960,-0.36654699999999996,-0.002014,-0.339111,-0.004488000000000001,0.0012619999999999999,0.000129,-28.0,-23.68,-19.5,2d
2019-07-15_182226:980,-0.36554000000000003,-0.001007,-0.337067,-0.004488000000000001,0.001201,0.000221,-28.0,-23.68,-19.5,2d
2019-07-15_182227:000,-0.365021,-0.002014,-0.34063699999999997,-0.004213000000000001,0.0014759999999999999,0.000587,-28.370001000000002,-23.370001000000002,-19.75,2d
2019-07-15_182227:020,-0.36349499999999996,-0.000488,-0.341125,-0.003939,0.0014759999999999999,0.000587,-28.370001000000002,-23.370001000000002,-19.75,2d
2019-07-15_182227:040,-0.364014,-0.001007,-0.341125,-0.0037560000000000002,0.0010789999999999999,0.000587,-28.370001000000002,-23.370001000000002,-19.75,2d
2019-07-15_182227:060,-0.36554000000000003,-0.000488,-0.341125,-0.0036950000000000004,0.001018,0.000526,-27.68,-23.370001000000002,-18.68,2d
2019-07-15_182227:080,-0.36911,0.001495,-0.341125,-0.003664,0.00114,0.000404,-27.68,-23.370001000000002,-18.68,2d
2019-07-15_182227:100,-0.368073,0.0,-0.341125,-0.0036340000000000005,0.001598,0.000709,-28.370001000000002,-23.370001000000002,-19.0,2d
2019-07-15_182227:120,-0.36554000000000003,0.0,-0.3396,-0.003939,0.002055,0.000923,-28.370001000000002,-23.370001000000002,-19.0,2d
2019-07-15_182227:140,-0.364532,0.0,-0.338593,-0.004,0.002177,0.001045,-28.370001000000002,-23.370001000000002,-19.0,2d
2019-07-15_182227:160,-0.363007,-0.001007,-0.33758499999999997,-0.004152,0.002116,0.001258,-28.0,-23.68,-19.0,2d
2019-07-15_182227:180,-0.364532,-0.000488,-0.3396,-0.004213000000000001,0.0016589999999999999,0.000831,-28.0,-23.68,-19.0,2d
2019-07-15_182227:200,-0.364532,-0.000488,-0.338074,-0.004427,0.00172,0.001625,-29.18,-23.370001000000002,-19.0,2d
2019-07-15_182227:220,-0.368073,-0.0035399999999999997,-0.339111,-0.004275,0.0019030000000000002,0.0018989999999999999,-29.18,-23.370001000000002,-19.0,2d
2019-07-15_182227:240,-0.363007,-0.001495,-0.338074,-0.004488000000000001,0.002055,0.000984,-29.18,-23.370001000000002,-19.0,2d
2019-07-15_182227:260,-0.364014,-0.0030210000000000002,-0.33758499999999997,-0.00461,0.00172,0.001258,-28.75,-23.0,-18.68,2d
2019-07-15_182227:280,-0.361969,-0.002014,-0.3396,-0.00461,0.0014759999999999999,-0.000389,-28.75,-23.0,-18.68,2d
2019-07-15_182227:300,-0.361481,-0.001495,-0.34063699999999997,-0.004397,0.0009570000000000001,-0.000786,-28.0,-23.370001000000002,-18.68,2d
2019-07-15_182227:320,-0.365021,-0.0025329999999999997,-0.340118,-0.004091,0.000407,-0.00045099999999999996,-28.0,-23.370001000000002,-18.68,2d
2019-07-15_182227:340,-0.368591,-0.001495,-0.341644,-0.003939,0.000865,-0.00045099999999999996,-28.0,-23.370001000000002,-18.68,2d
2019-07-15_182227:360,-0.36911,0.0,-0.341125,-0.003573,0.0012619999999999999,-0.00011499999999999999,-27.68,-24.370001000000002,-19.0,2d
2019-07-15_182227:380,-0.367584,0.0,-0.34063699999999997,-0.0034509999999999996,0.001964,7.000000000000001e-06,-27.68,-24.370001000000002,-19.0,2d
2019-07-15_182227:400,-0.368073,0.002014,-0.34063699999999997,-0.0036340000000000005,0.002635,0.000221,-27.25,-23.370001000000002,-19.5,2d
2019-07-15_182227:420,-0.366058,0.000488,-0.338593,-0.003664,0.002849,0.000465,-27.25,-23.370001000000002,-19.5,2d
2019-07-15_182227:440,-0.35791,0.0,-0.338593,-0.003878,0.003032,0.000221,-27.25,-23.370001000000002,-19.5,2d
2019-07-15_182227:460,-0.359955,-0.000488,-0.340118,-0.003878,0.002391,0.000404,-28.370001000000002,-23.68,-18.18,2d
2019-07-15_182227:480,-0.363007,-0.001007,-0.341125,-0.0036340000000000005,0.0014759999999999999,0.000526,-28.370001000000002,-23.68,-18.18,2d
2019-07-15_182227:500,-0.36554000000000003,-0.001007,-0.341644,-0.0034509999999999996,0.001292,0.001045,-28.0,-24.059998999999998,-19.0,2d
2019-07-15_182227:520,-0.367584,-0.001007,-0.3396,-0.0034509999999999996,0.001018,0.001228,-28.0,-24.059998999999998,-19.0,2d
2019-07-15_182227:540,-0.366058,-0.000488,-0.340118,-0.003573,0.001353,0.001381,-28.0,-24.059998999999998,-19.0,2d
2019-07-15_182227:560,-0.364532,-0.001007,-0.341125,-0.003664,0.0016589999999999999,0.001655,-28.75,-23.0,-19.5,2d
2019-07-15_182227:580,-0.364014,-0.001495,-0.341125,-0.004152,0.002055,0.000496,-28.75,-23.0,-19.5,2d
2019-07-15_182227:600,-0.365021,-0.001495,-0.34063699999999997,-0.004336,0.001842,0.000587,-27.68,-23.68,-19.0,2d
2019-07-15_182227:620,-0.36654699999999996,-0.001495,-0.338074,-0.004549,0.001628,0.000648,-27.68,-23.68,-19.0,2d
2019-07-15_182227:640,-0.366058,-0.002014,-0.34063699999999997,-0.004397,0.0017809999999999998,0.000404,-27.68,-23.68,-19.0,2d
2019-07-15_182227:660,-0.36554000000000003,-0.0035399999999999997,-0.338593,-0.004152,0.001994,0.000526,-27.25,-23.68,-18.68,2d
2019-07-15_182227:680,-0.365021,-0.001007,-0.338074,-0.003878,0.001994,0.000343,-27.25,-23.68,-18.68,2d
2019-07-15_182227:700,-0.36554000000000003,-0.001495,-0.338593,-0.003573,0.0017809999999999998,0.000129,-27.68,-24.370001000000002,-18.68,2d
2019-07-15_182227:720,-0.36706500000000003,-0.000488,-0.33758499999999997,-0.0033280000000000002,0.0017809999999999998,-0.00011499999999999999,-27.68,-24.370001000000002,-18.68,2d
2019-07-15_182227:740,-0.367584,0.0,-0.3396,-0.0033280000000000002,0.001598,-5.4000000000000005e-05,-27.68,-24.370001000000002,-18.68,2d
2019-07-15_182227:760,-0.367584,-0.000488,-0.3396,-0.0033280000000000002,0.0019030000000000002,-0.00011499999999999999,-29.5,-23.68,-18.68,2d
2019-07-15_182227:780,-0.367584,-0.000488,-0.341125,-0.003512,0.00172,-0.000389,-29.5,-23.68,-18.68,2d
2019-07-15_182227:800,-0.36911,0.0,-0.34063699999999997,-0.003176,0.002391,-0.000176,-28.75,-23.68,-19.0,2d
2019-07-15_182227:820,-0.369598,0.001495,-0.338074,-0.003054,0.002635,0.00016,-28.75,-23.68,-19.0,2d
2019-07-15_182227:840,-0.366058,0.001007,-0.338074,-0.002993,0.003093,0.000496,-28.75,-23.68,-19.0,2d
2019-07-15_182227:860,-0.364532,0.001007,-0.33605999999999997,-0.0032979999999999997,0.003246,0.000587,-27.68,-23.0,-18.25,2d
2019-07-15_182227:880,-0.366058,0.0,-0.336548,-0.0033280000000000002,0.002757,0.0007700000000000001,-27.68,-23.0,-18.25,2d
2019-07-15_182227:900,-0.366058,-0.000488,-0.337067,-0.0036340000000000005,0.002635,0.0007700000000000001,-28.75,-23.68,-18.68,2d
2019-07-15_182227:920,-0.367584,-0.000488,-0.335022,-0.0037560000000000002,0.0024519999999999998,0.0008619999999999999,-28.75,-23.68,-18.68,2d
2019-07-15_182227:940,-0.36654699999999996,-0.001495,-0.33605999999999997,-0.003512,0.002391,0.000923,-28.75,-23.68,-18.68,2d
2019-07-15_182227:960,-0.36706500000000003,-0.002014,-0.335541,-0.00339,0.0023,0.0008619999999999999,-28.0,-23.0,-18.68,2d
2019-07-15_182227:980,-0.368073,-0.000488,-0.334534,-0.003054,0.001842,0.0008619999999999999,-28.0,-23.0,-18.68,2d
2019-07-15_182228:000,-0.367584,0.0,-0.336548,-0.0031149999999999997,0.001994,0.0008619999999999999,-28.370001000000002,-23.68,-19.0,2d
2019-07-15_182228:020,-0.366058,-0.000488,-0.335022,-0.002932,0.0017809999999999998,0.001045,-28.370001000000002,-23.68,-19.0,2d
2019-07-15_182228:040,-0.36554000000000003,-0.000488,-0.335022,-0.00339,0.00172,0.001045,-28.370001000000002,-23.68,-19.0,2d
2019-07-15_182228:060,-0.36554000000000003,-0.000488,-0.333496,-0.0036340000000000005,0.001415,0.001045,-28.370001000000002,-24.059998999999998,-19.5,2d
2019-07-15_182228:080,-0.365021,-0.001007,-0.335022,-0.003664,0.001018,0.000923,-28.370001000000002,-24.059998999999998,-19.5,2d
2019-07-15_182228:100,-0.366058,-0.000488,-0.336548,-0.004,0.00056,0.001045,-28.0,-23.68,-18.68,2d
2019-07-15_182228:120,-0.367584,-0.002014,-0.33605999999999997,-0.004,0.000346,0.000984,-28.0,-23.68,-18.68,2d
2019-07-15_182228:140,-0.368591,-0.001007,-0.33758499999999997,-0.003939,0.00016299999999999998,0.001045,-28.0,-23.68,-18.68,2d
2019-07-15_182228:160,-0.368073,-0.001007,-0.3396,-0.003939,0.00056,0.00132,-28.370001000000002,-23.370001000000002,-19.0,2d
2019-07-15_182228:180,-0.369598,-0.000488,-0.340118,-0.004091,0.0008039999999999999,0.001564,-28.370001000000002,-23.370001000000002,-19.0,2d
2019-07-15_182228:200,-0.370636,-0.001495,-0.340118,-0.004213000000000001,0.001292,0.001564,-28.370001000000002,-23.0,-18.68,2d
2019-07-15_182228:220,-0.36706500000000003,-0.0030210000000000002,-0.337067,-0.004336,0.001598,0.001381,-28.370001000000002,-23.0,-18.68,2d
2019-07-15_182228:240,-0.36706500000000003,-0.004547,-0.338593,-0.004152,0.0016589999999999999,0.001564,-28.370001000000002,-23.0,-18.68,2d
2019-07-15_182228:260,-0.364532,-0.006072999999999999,-0.337067,-0.0036950000000000004,0.001292,0.000526,-28.370001000000002,-23.68,-18.68,2d
2019-07-15_182228:280,-0.367584,-0.004059,-0.335541,-0.003512,0.0012619999999999999,0.001167,-28.370001000000002,-23.68,-18.68,2d
2019-07-15_182228:300,-0.36911,-0.0030210000000000002,-0.336548,-0.002993,0.001415,0.0021739999999999997,-28.0,-23.68,-18.25,2d
2019-07-15_182228:320,-0.36554000000000003,-0.004059,-0.335541,-0.0034509999999999996,0.001292,0.0008619999999999999,-28.0,-23.68,-18.25,2d
2019-07-15_182228:340,-0.364014,-0.0030210000000000002,-0.33758499999999997,-0.003573,0.000621,0.00132,-28.0,-23.68,-18.25,2d
2019-07-15_182228:360,-0.366058,-0.004547,-0.339111,-0.003939,0.00022400000000000002,0.000526,-28.75,-23.370001000000002,-17.75,2d
2019-07-15_182228:380,-0.37011700000000003,-0.0025329999999999997,-0.338593,-0.00403,0.000468,0.000343,-28.75,-23.370001000000002,-17.75,2d
2019-07-15_182228:400,-0.370636,-0.004547,-0.341644,-0.00403,0.0012619999999999999,0.001167,-28.0,-23.0,-19.75,2d
2019-07-15_182228:420,-0.36911,-0.004547,-0.339111,-0.004152,0.001842,0.000343,-28.0,-23.0,-19.75,2d
2019-07-15_182228:440,-0.368073,-0.002014,-0.3396,-0.00403,0.002391,0.000526,-28.0,-23.0,-19.75,2d
2019-07-15_182228:460,-0.36654699999999996,-0.0030210000000000002,-0.341125,-0.004397,0.002757,0.000831,-28.0,-23.0,-18.18,2d
2019-07-15_182228:480,-0.36554000000000003,-0.004059,-0.340118,-0.004793,0.003032,0.000587,-28.0,-23.0,-18.18,2d
2019-07-15_182228:500,-0.364014,-0.006072999999999999,-0.340118,-0.004397,0.0029100000000000003,0.000496,-28.75,-24.059998999999998,-18.25,2d
2019-07-15_182228:520,-0.365021,-0.005065999999999999,-0.339111,-0.004152,0.002757,7.000000000000001e-06,-28.75,-24.059998999999998,-18.25,2d
2019-07-15_182228:540,-0.36554000000000003,-0.004547,-0.339111,-0.004091,0.002696,6.8e-05,-28.75,-24.059998999999998,-18.25,2d
2019-07-15_182228:560,-0.365021,-0.004059,-0.3396,-0.004152,0.002361,0.00016,-28.0,-23.370001000000002,-18.68,2d
2019-07-15_182228:580,-0.365021,-0.0025329999999999997,-0.338074,-0.004275,0.0023,0.00028199999999999997,-28.0,-23.370001000000002,-18.68,2d
2019-07-15_182228:600,-0.364014,-0.000488,-0.338593,-0.00461,0.0023,0.00028199999999999997,-28.370001000000002,-23.0,-19.0,2d
2019-07-15_182228:620,-0.363007,0.000488,-0.33605999999999997,-0.005007,0.001842,0.000709,-28.370001000000002,-23.0,-19.0,2d
2019-07-15_182228:640,-0.365021,0.0,-0.338593,-0.005739,0.0016589999999999999,0.001167,-28.370001000000002,-23.0,-19.0,2d
2019-07-15_182228:660,-0.364014,0.0,-0.34063699999999997,-0.006136,0.001598,0.000496,-28.370001000000002,-23.68,-18.68,2d
2019-07-15_182228:680,-0.36248800000000003,0.000488,-0.340118,-0.006745999999999999,0.0012619999999999999,0.000984,-28.370001000000002,-23.68,-18.68,2d
2019-07-15_182228:700,-0.360962,0.0,-0.341644,-0.006991,0.0008960000000000001,0.001716,-28.0,-23.68,-19.5,2d
2019-07-15_182228:720,-0.363007,0.000488,-0.340118,-0.007540000000000001,0.000621,0.001838,-28.0,-23.68,-19.5,2d
2019-07-15_182228:740,-0.36706500000000003,0.000488,-0.341644,-0.007784,0.000499,0.002388,-28.0,-23.68,-19.5,2d
2019-07-15_182228:760,-0.369598,0.0,-0.34265100000000004,-0.007998,0.001415,0.0022960000000000003,-28.75,-23.370001000000002,-17.75,2d
2019-07-15_182228:780,-0.37112399999999995,0.001007,-0.34063699999999997,-0.008272,0.002055,0.0021739999999999997,-28.75,-23.370001000000002,-17.75,2d
2019-07-15_182228:800,-0.37112399999999995,-0.001007,-0.340118,-0.008211,0.002757,0.002235,-29.18,-24.059998999999998,-18.68,2d
2019-07-15_182228:820,-0.369598,-0.0030210000000000002,-0.336548,-0.008272,0.0031850000000000003,0.002113,-29.18,-24.059998999999998,-18.68,2d
2019-07-15_182228:840,-0.369598,-0.002014,-0.338593,-0.007784,0.003246,0.001991,-29.18,-24.059998999999998,-18.68,2d
2019-07-15_182228:860,-0.37265,-0.005065999999999999,-0.33758499999999997,-0.0069299999999999995,0.0035810000000000004,0.001564,-27.68,-23.370001000000002,-18.25,2d
2019-07-15_182228:880,-0.373688,-0.004059,-0.335541,-0.005953,0.004039,0.001228,-27.68,-23.370001000000002,-18.25,2d
2019-07-15_182228:900,-0.37011700000000003,-0.002014,-0.335541,-0.005007,0.004375,0.00132,-29.18,-24.059998999999998,-19.5,2d
2019-07-15_182228:920,-0.37011700000000003,-0.001007,-0.33300799999999997,-0.004152,0.0042829999999999995,0.001503,-29.18,-24.059998999999998,-19.5,2d
2019-07-15_182228:940,-0.37112399999999995,-0.001007,-0.331482,-0.003512,0.004222,0.001228,-29.18,-24.059998999999998,-19.5,2d
2019-07-15_182228:960,-0.367584,0.0,-0.33300799999999997,-0.003054,0.003917,0.001503,-29.18,-23.68,-17.75,2d
2019-07-15_182228:980,-0.371643,0.0,-0.339111,-0.002993,0.003886,0.00196,-29.18,-23.68,-17.75,2d
2019-07-15_182229:000,-0.36349499999999996,0.001495,-0.326904,-0.00339,0.004497,0.00132,-27.68,-23.68,-17.5,2d
2019-07-15_182229:020,-0.364532,0.0030210000000000002,-0.323334,-0.003664,0.003764,0.001167,-27.68,-23.68,-17.5,2d
2019-07-15_182229:040,-0.366058,0.0035399999999999997,-0.326904,-0.0036340000000000005,0.0035810000000000004,0.001167,-27.68,-23.68,-17.5,2d
2019-07-15_182229:060,-0.374176,0.0030210000000000002,-0.338074,-0.004152,0.002635,0.0008619999999999999,-29.5,-24.059998999999998,-17.5,2d
2019-07-15_182229:080,-0.371643,0.001007,-0.33197,-0.004488000000000001,0.003032,0.000923,-29.5,-24.059998999999998,-17.5,2d
2019-07-15_182229:100,-0.37265,0.001007,-0.334015,-0.004671,0.003246,0.001106,-28.75,-23.0,-17.5,2d
2019-07-15_182229:120,-0.368591,0.0,-0.32995599999999997,-0.004824,0.0034289999999999998,0.001106,-28.75,-23.0,-17.5,2d
2019-07-15_182229:140,-0.36706500000000003,0.0,-0.332489,-0.004793,0.002849,0.001106,-28.75,-23.0,-17.5,2d
2019-07-15_182229:160,-0.369598,-0.000488,-0.330963,-0.004671,0.002391,0.000831,-28.75,-24.059998999999998,-17.059998999999998,2d
2019-07-15_182229:180,-0.374176,-0.000488,-0.329437,-0.004488000000000001,0.002055,0.0007700000000000001,-28.75,-24.059998999999998,-17.059998999999998,2d
2019-07-15_182229:200,-0.37265,0.000488,-0.330475,-0.004336,0.0023,0.000831,-28.75,-23.68,-17.75,2d
2019-07-15_182229:220,-0.37011700000000003,0.0,-0.32995599999999997,-0.004397,0.002361,0.000526,-28.75,-23.68,-17.75,2d
2019-07-15_182229:240,-0.36654699999999996,-0.000488,-0.330963,-0.004336,0.0019030000000000002,0.000404,-28.75,-23.68,-17.75,2d
2019-07-15_182229:260,-0.368073,-0.000488,-0.331482,-0.00403,0.00114,-0.000267,-28.75,-23.68,-17.75,2d
2019-07-15_182229:280,-0.37011700000000003,-0.000488,-0.332489,-0.003573,0.000682,-0.000634,-28.75,-23.68,-17.75,2d
2019-07-15_182229:300,-0.369598,0.0,-0.33300799999999997,-0.0032979999999999997,0.000499,-0.000725,-28.75,-23.68,-19.0,2d
2019-07-15_182229:320,-0.369598,0.001007,-0.333496,-0.0028399999999999996,0.000682,-0.000328,-28.75,-23.68,-19.0,2d
2019-07-15_182229:340,-0.368073,0.0025329999999999997,-0.332489,-0.0028399999999999996,0.000285,-0.000634,-28.75,-23.68,-19.0,2d
2019-07-15_182229:360,-0.36911,0.0030210000000000002,-0.334015,-0.002932,0.00022400000000000002,-5.4000000000000005e-05,-27.68,-23.370001000000002,-18.68,2d
2019-07-15_182229:380,-0.373688,0.001495,-0.332489,-0.0028399999999999996,0.000407,0.000587,-27.68,-23.370001000000002,-18.68,2d
2019-07-15_182229:400,-0.370636,0.0035399999999999997,-0.334534,-0.0033280000000000002,0.000468,-0.000389,-28.370001000000002,-23.370001000000002,-17.5,2d
2019-07-15_182229:420,-0.371643,0.002014,-0.334534,-0.0034509999999999996,0.000285,0.000129,-28.370001000000002,-23.370001000000002,-17.5,2d
2019-07-15_182229:440,-0.37265,0.0,-0.334534,-0.003664,0.000346,-0.000725,-28.370001000000002,-23.370001000000002,-17.5,2d
2019-07-15_182229:460,-0.37316900000000003,0.0,-0.333496,-0.003939,0.000499,-0.000908,-28.370001000000002,-23.370001000000002,-17.0,2d
2019-07-15_182229:480,-0.371643,-0.0025329999999999997,-0.334534,-0.0034509999999999996,0.000865,-0.00011499999999999999,-28.370001000000002,-23.370001000000002,-17.0,2d
2019-07-15_182229:500,-0.37011700000000003,-0.002014,-0.334015,-0.0029010000000000004,0.0009570000000000001,-0.000328,-29.5,-23.68,-17.5,2d
2019-07-15_182229:520,-0.368591,0.0,-0.333496,-0.002382,0.0009570000000000001,-0.00045099999999999996,-29.5,-23.68,-17.5,2d
2019-07-15_182229:540,-0.368073,0.0,-0.337067,-0.001864,0.001018,-0.00045099999999999996,-29.5,-23.68,-17.5,2d
2019-07-15_182229:560,-0.369598,0.0,-0.334015,-0.0017109999999999998,0.0010789999999999999,-0.00023700000000000001,-28.370001000000002,-23.370001000000002,-17.75,2d
2019-07-15_182229:580,-0.370636,0.0025329999999999997,-0.334015,-0.0018030000000000001,0.001201,-0.000267,-28.370001000000002,-23.370001000000002,-17.75,2d
2019-07-15_182229:600,-0.369598,0.0030210000000000002,-0.335022,-0.001986,0.001353,-0.00045099999999999996,-29.18,-23.68,-17.75,2d
2019-07-15_182229:620,-0.37112399999999995,0.004059,-0.334015,-0.0022600000000000003,0.001628,-0.000512,-29.18,-23.68,-17.75,2d
2019-07-15_182229:640,-0.37011700000000003,0.0035399999999999997,-0.335022,-0.002535,0.001842,-0.000512,-29.18,-23.68,-17.75,2d
2019-07-15_182229:660,-0.368591,0.004547,-0.33605999999999997,-0.0029010000000000004,0.0017809999999999998,-0.000267,-28.75,-23.68,-17.5,2d
2019-07-15_182229:680,-0.37011700000000003,0.004547,-0.334534,-0.003237,0.0016589999999999999,-5.4000000000000005e-05,-28.75,-23.68,-17.5,2d
