timestamp,AccX,AccY,AccZ,GyroX,GyroY,GyroZ,MagX,MagY,MagZ,Activity
2019-07-15_143206:420,-0.506378,-0.049805,-0.096069,-0.0018030000000000001,0.0035810000000000004,0.000404,-41.68,7.37,7.68,2a
2019-07-15_143206:440,-0.5119630000000001,-0.049316000000000006,-0.09301799999999999,-0.0029010000000000004,0.004497,0.0022960000000000003,-41.68,7.37,7.68,2a
2019-07-15_143206:460,-0.500793,-0.05996699999999999,-0.09454299999999999,-0.00339,0.006693999999999999,0.0038829999999999997,-40.869999,7.37,8.06,2a
2019-07-15_143206:480,-0.481476,-0.060486,-0.097107,-0.004397,0.008739,0.0021739999999999997,-40.869999,7.37,8.06,2a
2019-07-15_143206:500,-0.46417200000000003,-0.066071,-0.102692,-0.004488000000000001,0.008006000000000001,0.003181,-41.68,7.0,9.25,2a
2019-07-15_143206:520,-0.48095699999999997,-0.072174,-0.100159,-0.004275,0.005504,0.004219,-41.68,7.0,9.25,2a
2019-07-15_143206:540,-0.498749,-0.076752,-0.101685,-0.00339,0.005351,0.002388,-41.68,7.0,9.25,2a
2019-07-15_143206:560,-0.489594,-0.076752,-0.105743,-0.002169,0.007304000000000001,0.001381,-41.68,7.75,8.06,2a
2019-07-15_143206:580,-0.482483,-0.076263,-0.106232,-0.000643,0.008403,0.000404,-41.68,7.75,8.06,2a
2019-07-15_143206:600,-0.469757,-0.075226,-0.11080899999999999,0.000944,0.00822,-0.001366,-41.25,7.37,8.75,2a
2019-07-15_143206:620,-0.460114,-0.074738,-0.107269,0.0022559999999999998,0.006023,-0.0021899999999999997,-41.25,7.37,8.75,2a
2019-07-15_143206:640,-0.45654300000000003,-0.0737,-0.10318,0.00366,0.003032,-0.0037770000000000004,-41.25,7.37,8.75,2a
2019-07-15_143206:660,-0.47995,-0.067596,-0.09149199999999999,0.00424,0.000468,-0.004692,-40.560001,7.0,8.5,2a
2019-07-15_143206:680,-0.490112,-0.06405599999999999,-0.08996599999999999,0.003996,0.000865,-0.003624,-40.560001,7.0,8.5,2a
2019-07-15_143206:700,-0.490112,-0.06253099999999999,-0.088959,0.003111,0.003703,-0.00277,-40.869999,7.37,9.56,2a
2019-07-15_143206:720,-0.48706099999999997,-0.05996699999999999,-0.087952,0.002134,0.005961999999999999,-0.00457,-40.869999,7.37,9.56,2a
2019-07-15_143206:740,-0.46670500000000004,-0.057953,-0.083374,0.0012490000000000001,0.006816,-0.005639,-40.869999,7.37,9.56,2a
2019-07-15_143206:760,-0.47079499999999996,-0.057953,-0.08843999999999999,0.000791,0.004619,-0.0054859999999999996,-40.560001,6.68,9.56,2a
2019-07-15_143206:780,-0.490112,-0.055908000000000006,-0.08843999999999999,0.000547,0.002055,-0.005089,-40.560001,6.68,9.56,2a
2019-07-15_143206:800,-0.500275,-0.056427,-0.08743300000000001,0.00045599999999999997,0.002574,-0.0037770000000000004,-42.75,6.25,9.56,2a
2019-07-15_143206:820,-0.503326,-0.05285599999999999,-0.083374,0.000334,0.005229,-0.0028309999999999997,-42.75,6.25,9.56,2a
2019-07-15_143206:840,-0.496704,-0.049805,-0.081329,0.000212,0.008403,-0.002373,-42.75,6.25,9.56,2a
2019-07-15_143206:860,-0.47689799999999993,-0.048798,-0.08081100000000001,0.000212,0.010417000000000001,-0.0019760000000000003,-40.869999,6.0,9.25,2a
2019-07-15_143206:880,-0.46875,-0.047272,-0.0849,5.9e-05,0.009623999999999999,-0.003319,-40.869999,6.0,9.25,2a
2019-07-15_143206:900,-0.469757,-0.045745999999999995,-0.088959,5.9e-05,0.006145,-0.004296,-40.560001,6.68,10.0,2a
2019-07-15_143206:920,-0.477905,-0.046752999999999996,-0.086914,-6.3e-05,0.002391,-0.004631000000000001,-40.560001,6.68,10.0,2a
2019-07-15_143206:940,-0.486023,-0.045226999999999996,-0.083862,-0.000338,0.00016299999999999998,-0.004815,-40.560001,6.68,10.0,2a
2019-07-15_143206:960,-0.49468999999999996,-0.044219999999999995,-0.083862,-0.0006730000000000001,-0.00044699999999999997,-0.004174000000000001,-40.869999,6.25,10.0,2a
2019-07-15_143206:980,-0.49468999999999996,-0.048279,-0.083374,-0.000643,-0.00011100000000000001,-0.004692,-40.869999,6.25,10.0,2a
2019-07-15_143207:000,-0.494171,-0.045226999999999996,-0.085388,0.000791,0.000133,-0.006829000000000001,-41.25,5.18,10.75,2a
2019-07-15_143207:020,-0.492126,-0.040161,-0.086914,0.00186,7.2e-05,-0.006218,-41.25,5.18,10.75,2a
2019-07-15_143207:040,-0.49316400000000005,-0.040161,-0.08590700000000001,0.001982,0.000499,-0.0037159999999999997,-41.25,5.18,10.75,2a
2019-07-15_143207:060,-0.49722299999999997,-0.038635,-0.081848,0.0019210000000000002,0.001537,0.0007700000000000001,-40.869999,5.18,10.0,2a
2019-07-15_143207:080,-0.49316400000000005,-0.041687,-0.080322,0.001463,0.00349,0.003181,-40.869999,5.18,10.0,2a
2019-07-15_143207:100,-0.49365200000000004,-0.042175,-0.07421900000000001,0.000669,0.005443,0.00309,-42.060001,5.56,10.0,2a
2019-07-15_143207:120,-0.49365200000000004,-0.042175,-0.071167,-0.000734,0.006633,0.00309,-42.060001,5.56,10.0,2a
2019-07-15_143207:140,-0.48196400000000006,-0.042694,-0.070648,-0.002199,0.00648,0.001442,-42.060001,5.56,10.0,2a
2019-07-15_143207:160,-0.48095699999999997,-0.044219999999999995,-0.070648,-0.003939,0.004894,-0.000176,-41.68,5.18,10.75,2a
2019-07-15_143207:180,-0.484009,-0.047272,-0.070648,-0.005556,0.0029100000000000003,0.000831,-41.68,5.18,10.75,2a
2019-07-15_143207:200,-0.49316400000000005,-0.050842,-0.069122,-0.007204,0.001598,0.001228,-40.869999,4.75,8.75,2a
2019-07-15_143207:220,-0.501801,-0.051849,-0.071167,-0.007876000000000001,0.001201,-0.00023700000000000001,-40.869999,4.75,8.75,2a
2019-07-15_143207:240,-0.49926800000000005,-0.053863999999999995,-0.073212,-0.007937,0.001628,-0.001702,-40.869999,4.75,8.75,2a
2019-07-15_143207:260,-0.498749,-0.052338,-0.071686,-0.008181,0.002788,-0.0008470000000000001,-40.869999,6.0,10.75,2a
2019-07-15_143207:280,-0.49517799999999995,-0.049316000000000006,-0.070648,-0.007937,0.0034289999999999998,0.001625,-40.869999,6.0,10.75,2a
2019-07-15_143207:300,-0.491638,-0.049316000000000006,-0.070648,-0.008059,0.003825,0.004493,-40.560001,5.56,10.37,2a
2019-07-15_143207:320,-0.48349,-0.046265,-0.069122,-0.007815,0.003886,0.00782,-40.560001,5.56,10.37,2a
2019-07-15_143207:340,-0.481476,-0.044739,-0.070648,-0.007448000000000001,0.0034289999999999998,0.010139,-40.560001,5.56,10.37,2a
2019-07-15_143207:360,-0.486023,-0.047272,-0.07016,-0.007081999999999999,0.003978,0.012001000000000001,-40.869999,6.0,10.37,2a
2019-07-15_143207:380,-0.48300200000000004,-0.050842,-0.069122,-0.0066549999999999995,0.004161,0.014441999999999998,-40.869999,6.0,10.37,2a
2019-07-15_143207:400,-0.48095699999999997,-0.053375,-0.069122,-0.006197,0.004039,0.015785,-41.68,5.56,10.37,2a
2019-07-15_143207:420,-0.477386,-0.061005,-0.069641,-0.005953,0.002757,0.014717,-41.68,5.56,10.37,2a
2019-07-15_143207:440,-0.47995,-0.063019,-0.0737,-0.005739,0.0012619999999999999,0.013588,-41.68,5.56,10.37,2a
2019-07-15_143207:460,-0.47943100000000005,-0.065063,-0.076263,-0.005404,-0.0009660000000000001,0.012062,-41.25,6.25,10.0,2a
2019-07-15_143207:480,-0.473846,-0.065063,-0.082336,-0.004488000000000001,-0.003834,0.007759,-41.25,6.25,10.0,2a
2019-07-15_143207:500,-0.48196400000000006,-0.060486,-0.08996599999999999,-0.0037560000000000002,-0.006337,0.001838,-40.560001,7.37,9.56,2a
2019-07-15_143207:520,-0.485016,-0.057953,-0.09454299999999999,-0.0032979999999999997,-0.007893,-0.001854,-40.560001,7.37,9.56,2a
2019-07-15_143207:540,-0.486023,-0.05285599999999999,-0.10318,-0.003512,-0.009419,-0.00457,-40.560001,7.37,9.56,2a
2019-07-15_143207:560,-0.48553500000000005,-0.051330999999999995,-0.106232,-0.003939,-0.009724,-0.006157,-39.75,6.68,10.0,2a
2019-07-15_143207:580,-0.496216,-0.047272,-0.104706,-0.004152,-0.008687,-0.007164,-39.75,6.68,10.0,2a
2019-07-15_143207:600,-0.500793,-0.048279,-0.10318,-0.004488000000000001,-0.005971,-0.008416,-42.060001,6.68,10.0,2a
2019-07-15_143207:620,-0.5119630000000001,-0.046752999999999996,-0.099121,-0.004275,-0.001973,-0.008416,-42.060001,6.68,10.0,2a
2019-07-15_143207:640,-0.509918,-0.046265,-0.099121,-0.0036950000000000004,0.002239,-0.008019,-42.060001,6.68,10.0,2a
2019-07-15_143207:660,-0.496216,-0.044739,-0.096069,-0.0031149999999999997,0.005016,-0.008232,-40.869999,6.0,8.75,2a
2019-07-15_143207:680,-0.492126,-0.043701,-0.09454299999999999,-0.002535,0.006358,-0.008232,-40.869999,6.0,8.75,2a
2019-07-15_143207:700,-0.48706099999999997,-0.042694,-0.092529,-0.002443,0.006633,-0.007897,-41.25,6.0,8.75,2a
2019-07-15_143207:720,-0.48706099999999997,-0.043213,-0.09301799999999999,-0.002779,0.006236,-0.007683,-41.25,6.0,8.75,2a
2019-07-15_143207:740,-0.481476,-0.043701,-0.083374,-0.002993,0.005565,-0.007958,-41.25,6.0,8.75,2a
2019-07-15_143207:760,-0.47995,-0.043701,-0.085388,-0.0029010000000000004,0.004161,-0.008812,-40.869999,6.25,10.37,2a
2019-07-15_143207:780,-0.486023,-0.043213,-0.08743300000000001,-0.0028399999999999996,0.00349,-0.008202,-40.869999,6.25,10.37,2a
2019-07-15_143207:800,-0.489594,-0.043213,-0.088959,-0.003054,0.0035810000000000004,-0.007012000000000001,-40.869999,5.56,9.56,2a
2019-07-15_143207:820,-0.490112,-0.043213,-0.091003,-0.002932,0.004039,-0.006554000000000001,-40.869999,5.56,9.56,2a
2019-07-15_143207:840,-0.492126,-0.043213,-0.08996599999999999,-0.003054,0.004314,-0.004967,-40.869999,5.56,9.56,2a
2019-07-15_143207:860,-0.486023,-0.044739,-0.088959,-0.003054,0.0042829999999999995,-0.0029219999999999997,-41.25,6.0,10.75,2a
2019-07-15_143207:880,-0.48654200000000003,-0.046265,-0.086914,-0.002718,0.003917,-0.001366,-41.25,6.0,10.75,2a
2019-07-15_143207:900,-0.489594,-0.047272,-0.084381,-0.002443,0.00349,-0.000664,-41.25,4.75,9.56,2a
2019-07-15_143207:920,-0.49316400000000005,-0.047791,-0.082855,-0.002382,0.004161,-0.000512,-41.25,4.75,9.56,2a
2019-07-15_143207:940,-0.49722299999999997,-0.046752999999999996,-0.08081100000000001,-0.002535,0.005504,-0.000664,-41.25,4.75,9.56,2a
2019-07-15_143207:960,-0.495697,-0.047272,-0.079803,-0.0028399999999999996,0.006358,-0.0009689999999999999,-41.68,3.68,9.25,2a
2019-07-15_143207:980,-0.484009,-0.044739,-0.07775900000000001,-0.0029010000000000004,0.006418999999999999,-0.001,-41.68,3.68,9.25,2a
2019-07-15_143208:000,-0.484009,-0.043213,-0.081329,-0.002932,0.0052899999999999996,-0.001,-40.869999,4.75,10.0,2a
2019-07-15_143208:020,-0.486023,-0.041168,-0.07775900000000001,-0.002657,0.004314,-0.000908,-40.869999,4.75,10.0,2a
2019-07-15_143208:040,-0.497742,-0.040161,-0.08081100000000001,-0.0025050000000000003,0.003764,-0.00011499999999999999,-40.869999,4.75,10.0,2a
2019-07-15_143208:060,-0.506897,-0.040161,-0.078278,-0.0028399999999999996,0.0034289999999999998,0.000221,-40.869999,4.06,10.75,2a
2019-07-15_143208:080,-0.503845,-0.041168,-0.0737,-0.002779,0.005504,0.00251,-40.869999,4.06,10.75,2a
2019-07-15_143208:100,-0.492645,-0.041687,-0.069641,-0.0029010000000000004,0.006358,0.002967,-40.869999,4.75,9.56,2a
2019-07-15_143208:120,-0.484497,-0.039642000000000004,-0.068115,-0.0025960000000000002,0.007670999999999999,0.003151,-40.869999,4.75,9.56,2a
2019-07-15_143208:140,-0.47689799999999993,-0.040161,-0.067596,-0.002443,0.006693999999999999,0.002784,-40.869999,4.75,9.56,2a
2019-07-15_143208:160,-0.475372,-0.042694,-0.07016,-0.002718,0.005229,0.00132,-40.869999,4.5,11.18,2a
2019-07-15_143208:180,-0.477386,-0.040161,-0.069641,-0.002932,0.00349,0.0007700000000000001,-40.869999,4.5,11.18,2a
2019-07-15_143208:200,-0.478912,-0.039642000000000004,-0.071167,-0.002779,0.0019030000000000002,0.001442,-41.25,5.18,9.25,2a
2019-07-15_143208:220,-0.489594,-0.041687,-0.069122,-0.002657,0.0014759999999999999,0.000709,-41.25,5.18,9.25,2a
2019-07-15_143208:240,-0.496704,-0.038116000000000004,-0.0737,-0.002321,0.0016589999999999999,6.8e-05,-41.25,5.18,9.25,2a
2019-07-15_143208:260,-0.49517799999999995,-0.037598,-0.074738,-0.002321,0.001964,0.000129,-41.68,4.5,10.37,2a
2019-07-15_143208:280,-0.492126,-0.037598,-0.075745,-0.002535,0.002971,0.001503,-41.68,4.5,10.37,2a
2019-07-15_143208:300,-0.49111899999999997,-0.036591000000000005,-0.073212,-0.002657,0.003246,0.002235,-41.25,5.18,10.75,2a
2019-07-15_143208:320,-0.48754899999999995,-0.038635,-0.071167,-0.0033280000000000002,0.0031850000000000003,0.004371,-41.25,5.18,10.75,2a
2019-07-15_143208:340,-0.48553500000000005,-0.040161,-0.071167,-0.003573,0.002239,0.004829,-41.25,5.18,10.75,2a
2019-07-15_143208:360,-0.48196400000000006,-0.041687,-0.067596,-0.004091,0.0012619999999999999,0.004768,-41.25,4.75,9.56,2a
2019-07-15_143208:380,-0.481476,-0.042175,-0.068115,-0.004427,-0.000661,0.004829,-41.25,4.75,9.56,2a
2019-07-15_143208:400,-0.48196400000000006,-0.045226999999999996,-0.068634,-0.004824,-0.002644,0.004432,-41.68,5.18,10.37,2a
2019-07-15_143208:420,-0.484497,-0.044739,-0.068634,-0.005068,-0.004018,0.003761,-41.68,5.18,10.37,2a
2019-07-15_143208:440,-0.492126,-0.047272,-0.069641,-0.005343,-0.004567,0.002449,-41.68,5.18,10.37,2a
2019-07-15_143208:460,-0.49517799999999995,-0.048798,-0.069122,-0.005953,-0.00417,0.00196,-40.560001,6.0,10.37,2a
2019-07-15_143208:480,-0.49722299999999997,-0.050842,-0.073212,-0.0064719999999999995,-0.0024920000000000003,0.001167,-40.560001,6.0,10.37,2a
2019-07-15_143208:500,-0.494171,-0.053863999999999995,-0.076263,-0.0064719999999999995,-0.001973,0.000526,-40.869999,5.18,11.18,2a
2019-07-15_143208:520,-0.48553500000000005,-0.053375,-0.078796,-0.006014,-0.001576,-0.001397,-40.869999,5.18,11.18,2a
2019-07-15_143208:540,-0.486023,-0.049805,-0.078796,-0.005404,-0.001698,-0.0019760000000000003,-40.869999,5.18,11.18,2a
2019-07-15_143208:560,-0.48706099999999997,-0.048798,-0.083374,-0.005221,-0.001759,-0.002434,-40.560001,6.25,10.75,2a
2019-07-15_143208:580,-0.489075,-0.045226999999999996,-0.082855,-0.004549,-0.00237,-0.002983,-40.560001,6.25,10.75,2a
2019-07-15_143208:600,-0.49468999999999996,-0.041687,-0.085388,-0.004397,-0.002522,-0.002526,-40.560001,6.25,10.75,2a
2019-07-15_143208:620,-0.497742,-0.042175,-0.0849,-0.004824,-0.001637,-0.001702,-41.68,5.18,10.37,2a
2019-07-15_143208:640,-0.5048520000000001,-0.042694,-0.085388,-0.005068,0.00056,-0.000664,-41.68,5.18,10.37,2a
2019-07-15_143208:660,-0.503845,-0.043701,-0.086914,-0.005343,0.001598,-0.000328,-41.25,4.75,10.0,2a
2019-07-15_143208:680,-0.49517799999999995,-0.043213,-0.086426,-0.005343,0.00471,0.00028199999999999997,-41.25,4.75,10.0,2a
2019-07-15_143208:700,-0.489594,-0.045226999999999996,-0.086914,-0.0051600000000000005,0.005046,0.00028199999999999997,-41.25,4.5,9.25,2a
2019-07-15_143208:720,-0.48349,-0.044739,-0.082855,-0.004946,0.005046,-0.00011499999999999999,-41.25,4.5,9.25,2a
2019-07-15_143208:740,-0.48553500000000005,-0.043701,-0.082336,-0.004,0.004161,0.000129,-41.25,4.5,9.25,2a
2019-07-15_143208:760,-0.489075,-0.043701,-0.076263,-0.003939,0.004039,0.000404,-41.25,4.75,10.37,2a
2019-07-15_143208:780,-0.49111899999999997,-0.043213,-0.073212,-0.003512,0.004039,0.001442,-41.25,4.75,10.37,2a
2019-07-15_143208:800,-0.48706099999999997,-0.041687,-0.073212,-0.0034509999999999996,0.0036420000000000003,0.001838,-41.25,4.75,10.37,2a
2019-07-15_143208:820,-0.484497,-0.041687,-0.07421900000000001,-0.0036340000000000005,0.002513,0.001991,-41.25,5.56,10.0,2a
2019-07-15_143208:840,-0.48858599999999996,-0.043701,-0.072693,-0.003512,0.002177,0.00196,-41.25,5.56,10.0,2a
2019-07-15_143208:860,-0.49111899999999997,-0.044739,-0.072174,-0.0037560000000000002,0.00172,0.002235,-42.060001,5.56,10.0,2a
2019-07-15_143208:880,-0.492126,-0.044739,-0.0737,-0.004,0.001628,0.0021739999999999997,-42.060001,5.56,10.0,2a
2019-07-15_143208:900,-0.488068,-0.044739,-0.075745,-0.003817,0.001353,0.002113,-41.25,5.18,10.37,2a
2019-07-15_143208:920,-0.48553500000000005,-0.042694,-0.074738,-0.0036950000000000004,0.0012619999999999999,0.001442,-41.25,5.18,10.37,2a
2019-07-15_143208:940,-0.486023,-0.042175,-0.076263,-0.004091,0.000468,0.001838,-41.25,5.18,10.37,2a
2019-07-15_143208:960,-0.489594,-0.041168,-0.078796,-0.004488000000000001,0.000468,0.002449,-40.869999,5.18,10.37,2a
2019-07-15_143208:980,-0.490601,-0.041687,-0.078796,-0.005678,0.000621,0.001258,-40.869999,5.18,10.37,2a
2019-07-15_143209:000,-0.48706099999999997,-0.041168,-0.082336,-0.005861,0.00056,0.000648,-40.869999,5.18,10.37,2a
2019-07-15_143209:020,-0.485016,-0.040649,-0.083862,-0.00635,0.000499,0.000831,-41.68,4.75,10.0,2a
2019-07-15_143209:040,-0.484497,-0.042694,-0.083374,-0.0066549999999999995,-0.000264,0.000526,-41.68,4.75,10.0,2a
2019-07-15_143209:060,-0.485016,-0.042175,-0.081329,-0.006684999999999999,-0.000661,7.000000000000001e-06,-40.869999,5.18,10.37,2a
2019-07-15_143209:080,-0.48858599999999996,-0.046265,-0.077271,-0.00635,-0.0007830000000000001,-0.000176,-40.869999,5.18,10.37,2a
2019-07-15_143209:100,-0.492126,-0.046752999999999996,-0.07928500000000001,-0.005282,-0.001057,-0.00023700000000000001,-40.869999,5.18,10.37,2a
2019-07-15_143209:120,-0.491638,-0.047272,-0.078278,-0.004213000000000001,-0.0009660000000000001,0.000343,-41.68,5.56,10.75,2a
2019-07-15_143209:140,-0.495697,-0.045745999999999995,-0.078278,-0.002932,-0.00063,0.0008619999999999999,-41.68,5.56,10.75,2a
2019-07-15_143209:160,-0.498749,-0.045226999999999996,-0.0737,-0.002382,0.000743,0.001045,-41.68,5.18,9.56,2a
2019-07-15_143209:180,-0.498749,-0.043701,-0.075745,-0.0021079999999999996,0.001994,0.000709,-41.68,5.18,9.56,2a
2019-07-15_143209:200,-0.48706099999999997,-0.043213,-0.07775900000000001,-0.002199,0.002849,0.000404,-41.25,5.56,9.56,2a
2019-07-15_143209:220,-0.48654200000000003,-0.045226999999999996,-0.07928500000000001,-0.002779,0.0019030000000000002,0.000831,-41.25,5.56,9.56,2a
2019-07-15_143209:240,-0.494171,-0.049805,-0.080322,-0.002779,0.0016589999999999999,0.000923,-41.25,5.56,9.56,2a
2019-07-15_143209:260,-0.49722299999999997,-0.051849,-0.081329,-0.002657,0.002696,0.000129,-40.18,6.0,10.0,2a
2019-07-15_143209:280,-0.489075,-0.051849,-0.07928500000000001,-0.001864,0.003917,-0.000664,-40.18,6.0,10.0,2a
2019-07-15_143209:300,-0.48349,-0.050323,-0.081329,-0.0009789999999999998,0.004375,-0.000664,-40.18,6.0,10.0,2a
2019-07-15_143209:320,-0.48043800000000003,-0.049316000000000006,-0.08590700000000001,-0.000521,0.0031850000000000003,-0.00023700000000000001,-40.869999,5.56,9.56,2a
2019-07-15_143209:340,-0.48196400000000006,-0.048279,-0.08743300000000001,-0.000185,0.001353,0.000343,-40.869999,5.56,9.56,2a
2019-07-15_143209:360,-0.48754899999999995,-0.046752999999999996,-0.086426,0.00011999999999999999,7.2e-05,0.000496,-41.68,4.75,10.37,2a
2019-07-15_143209:380,-0.489594,-0.043701,-0.08590700000000001,0.000212,-0.00044699999999999997,0.000404,-41.68,4.75,10.37,2a
2019-07-15_143209:400,-0.492126,-0.043701,-0.087952,0.00011999999999999999,0.000468,-0.000176,-41.68,4.75,10.37,2a
2019-07-15_143209:420,-0.49316400000000005,-0.043701,-0.089478,-0.00045999999999999996,0.001415,-0.000634,-41.25,5.18,10.75,2a
2019-07-15_143209:440,-0.49365200000000004,-0.043701,-0.092529,-0.000796,0.001842,-0.000176,-41.25,5.18,10.75,2a
2019-07-15_143209:460,-0.49468999999999996,-0.043701,-0.09201000000000001,-0.001314,0.002361,6.8e-05,-41.68,5.56,11.56,2a
2019-07-15_143209:480,-0.496216,-0.041687,-0.088959,-0.0014060000000000001,0.00352,6.8e-05,-41.68,5.56,11.56,2a
2019-07-15_143209:500,-0.495697,-0.041687,-0.087952,-0.001467,0.004649,0.000465,-41.68,5.56,11.56,2a
2019-07-15_143209:520,-0.49365200000000004,-0.037598,-0.083374,-0.0021079999999999996,0.006084,0.0008619999999999999,-41.25,4.06,9.56,2a
2019-07-15_143209:540,-0.490601,-0.038635,-0.08081100000000001,-0.0029010000000000004,0.006693999999999999,0.000984,-41.25,4.06,9.56,2a
2019-07-15_143209:560,-0.48754899999999995,-0.041168,-0.077271,-0.0037560000000000002,0.0069689999999999995,0.001442,-41.25,5.18,9.56,2a
2019-07-15_143209:580,-0.48349,-0.042175,-0.0737,-0.004397,0.006816,0.001503,-41.25,5.18,9.56,2a
2019-07-15_143209:600,-0.48300200000000004,-0.044739,-0.068634,-0.005343,0.006084,0.001991,-41.25,5.18,9.56,2a
2019-07-15_143209:620,-0.484497,-0.045745999999999995,-0.07016,-0.005953,0.005107,0.002784,-41.25,5.56,10.37,2a
2019-07-15_143209:640,-0.48553500000000005,-0.049316000000000006,-0.067596,-0.006014,0.0041,0.002388,-41.25,5.56,10.37,2a
2019-07-15_143209:660,-0.488068,-0.048279,-0.065582,-0.005861,0.002788,0.001625,-41.25,6.0,10.75,2a
2019-07-15_143209:680,-0.494171,-0.048798,-0.065582,-0.005465,0.0019030000000000002,0.001381,-41.25,6.0,10.75,2a
2019-07-15_143209:700,-0.49722299999999997,-0.047791,-0.068634,-0.005007,0.002391,0.000526,-41.25,6.0,10.75,2a
2019-07-15_143209:720,-0.491638,-0.048798,-0.067596,-0.004824,0.003124,0.00016,-40.869999,5.18,10.37,2a
2019-07-15_143209:740,-0.489075,-0.049316000000000006,-0.07016,-0.004488000000000001,0.0034289999999999998,-0.000176,-40.869999,5.18,10.37,2a
2019-07-15_143209:760,-0.48706099999999997,-0.046752999999999996,-0.069641,-0.004397,0.00349,0.000709,-40.18,5.56,9.25,2a
2019-07-15_143209:780,-0.492645,-0.051849,-0.067596,-0.004427,0.002757,0.002754,-40.18,5.56,9.25,2a
2019-07-15_143209:800,-0.491638,-0.051330999999999995,-0.070648,-0.004152,0.002361,0.002693,-40.18,5.56,9.25,2a
2019-07-15_143209:820,-0.48706099999999997,-0.047791,-0.07016,-0.004152,0.002361,0.001564,-41.25,4.75,11.56,2a
2019-07-15_143209:840,-0.486023,-0.046752999999999996,-0.07016,-0.004946,0.002361,0.0026320000000000002,-41.25,4.75,11.56,2a
2019-07-15_143209:860,-0.486023,-0.048279,-0.071686,-0.005861,0.002055,0.001564,-40.560001,6.0,10.0,2a
2019-07-15_143209:880,-0.489594,-0.048798,-0.072174,-0.006258,0.001628,0.00028199999999999997,-40.560001,6.0,10.0,2a
2019-07-15_143209:900,-0.492645,-0.053863999999999995,-0.07016,-0.006258,0.001842,-0.000512,-40.560001,6.0,10.0,2a
2019-07-15_143209:920,-0.49365200000000004,-0.05438200000000001,-0.070648,-0.005556,0.00172,-0.000573,-40.869999,5.18,11.56,2a
2019-07-15_143209:940,-0.492645,-0.054901,-0.068115,-0.004091,0.0023,-0.0009689999999999999,-40.869999,5.18,11.56,2a
2019-07-15_143209:960,-0.49722299999999997,-0.053375,-0.07016,-0.002993,0.002788,-0.0019149999999999998,-41.25,5.56,10.75,2a
2019-07-15_143209:980,-0.49722299999999997,-0.049805,-0.071167,-0.001925,0.0035810000000000004,-0.0021899999999999997,-41.25,5.56,10.75,2a
2019-07-15_143210:000,-0.49517799999999995,-0.048279,-0.071686,-0.001253,0.004436,-0.0023120000000000003,-41.25,5.56,10.75,2a
2019-07-15_143210:020,-0.489594,-0.043213,-0.07016,-0.0009789999999999998,0.004497,-0.001702,-41.25,4.75,12.75,2a
2019-07-15_143210:040,-0.48858599999999996,-0.040649,-0.071167,-0.00107,0.004436,-0.00045099999999999996,-41.25,4.75,12.75,2a
2019-07-15_143210:060,-0.48553500000000005,-0.038116000000000004,-0.069122,-0.0018030000000000001,0.003764,0.000221,-40.869999,5.56,10.75,2a
2019-07-15_143210:080,-0.482483,-0.038635,-0.07016,-0.001986,0.002788,0.00016,-40.869999,5.56,10.75,2a
2019-07-15_143210:100,-0.482483,-0.039642000000000004,-0.073212,-0.0029010000000000004,0.00114,0.001106,-40.869999,5.56,10.75,2a
2019-07-15_143210:120,-0.485016,-0.039642000000000004,-0.0737,-0.0037560000000000002,-0.000264,0.003151,-40.869999,5.56,11.18,2a
2019-07-15_143210:140,-0.49722299999999997,-0.043701,-0.072693,-0.005068,-0.0009660000000000001,0.004707,-40.869999,5.56,11.18,2a
2019-07-15_143210:160,-0.49823,-0.046752999999999996,-0.07421900000000001,-0.006136,0.000133,0.004432,-40.560001,5.56,10.75,2a
2019-07-15_143210:180,-0.49468999999999996,-0.049316000000000006,-0.07421900000000001,-0.006807,0.001353,0.003425,-40.560001,5.56,10.75,2a
2019-07-15_143210:200,-0.49111899999999997,-0.050323,-0.0737,-0.006807,0.0024519999999999998,0.00196,-40.560001,5.56,10.75,2a
2019-07-15_143210:220,-0.492645,-0.052338,-0.071686,-0.006258,0.002971,-0.000267,-40.869999,5.56,10.5,2a
2019-07-15_143210:240,-0.494171,-0.053375,-0.068115,-0.005282,0.003703,-0.001366,-40.869999,5.56,10.5,2a
2019-07-15_143210:260,-0.496704,-0.052338,-0.064545,-0.004,0.004619,-0.001397,-40.560001,5.18,10.75,2a
2019-07-15_143210:280,-0.496216,-0.049805,-0.06253099999999999,-0.002993,0.005443,-0.0012439999999999999,-40.560001,5.18,10.75,2a
2019-07-15_143210:300,-0.49365200000000004,-0.047272,-0.061005,-0.001986,0.005626,-0.000389,-40.560001,5.18,10.75,2a
2019-07-15_143210:320,-0.492126,-0.043701,-0.062012,-0.001772,0.005351,0.000221,-41.25,5.18,12.37,2a
2019-07-15_143210:340,-0.490112,-0.041687,-0.061005,-0.001864,0.004649,0.00016,-41.25,5.18,12.37,2a
2019-07-15_143210:360,-0.488068,-0.040649,-0.05996699999999999,-0.0025050000000000003,0.0036420000000000003,-0.00011499999999999999,-40.869999,6.0,11.18,2a
2019-07-15_143210:380,-0.490601,-0.041687,-0.061005,-0.0034509999999999996,0.002971,0.00016,-40.869999,6.0,11.18,2a
2019-07-15_143210:400,-0.492645,-0.042694,-0.05996699999999999,-0.004488000000000001,0.002971,0.000465,-40.869999,6.0,11.18,2a
2019-07-15_143210:420,-0.492645,-0.046265,-0.06149299999999999,-0.005129,0.0031850000000000003,0.00016,-39.75,4.5,11.56,2a
2019-07-15_143210:440,-0.491638,-0.047272,-0.063019,-0.005221,0.003368,-0.000267,-39.75,4.5,11.56,2a
2019-07-15_143210:460,-0.496216,-0.048798,-0.063019,-0.004824,0.003764,-0.000512,-40.560001,5.18,11.18,2a
2019-07-15_143210:480,-0.497742,-0.049316000000000006,-0.063538,-0.004336,0.004497,-0.001,-40.560001,5.18,11.18,2a
2019-07-15_143210:500,-0.49926800000000005,-0.047272,-0.063538,-0.003939,0.005779,-0.0012439999999999999,-40.560001,5.18,11.18,2a
2019-07-15_143210:520,-0.498749,-0.045226999999999996,-0.06253099999999999,-0.003512,0.0071519999999999995,-0.000725,-41.25,6.0,12.0,2a
2019-07-15_143210:540,-0.49823,-0.044219999999999995,-0.061005,-0.0032979999999999997,0.008281,-0.001,-41.25,6.0,12.0,2a
2019-07-15_143210:560,-0.49926800000000005,-0.045226999999999996,-0.061005,-0.003512,0.00941,0.000221,-40.869999,6.0,10.37,2a
2019-07-15_143210:580,-0.504333,-0.045745999999999995,-0.057434000000000006,-0.003573,0.010753,0.001991,-40.869999,6.0,10.37,2a
2019-07-15_143210:600,-0.49517799999999995,-0.048279,-0.059479,-0.0036950000000000004,0.011852,0.0007700000000000001,-40.869999,6.0,10.37,2a
2019-07-15_143210:620,-0.49111899999999997,-0.047791,-0.059479,-0.003176,0.012126000000000001,-0.000176,-41.25,4.75,11.18,2a
2019-07-15_143210:640,-0.49365200000000004,-0.049316000000000006,-0.05438200000000001,-0.0025960000000000002,0.012248,0.00016,-41.25,4.75,11.18,2a
2019-07-15_143210:660,-0.495697,-0.049805,-0.053375,-0.002169,0.012798,0.00028199999999999997,-40.18,5.56,13.06,2a
2019-07-15_143210:680,-0.492645,-0.049316000000000006,-0.051849,-0.001375,0.01353,0.00016,-40.18,5.56,13.06,2a
2019-07-15_143210:700,-0.490112,-0.045745999999999995,-0.047791,-0.000918,0.013469,0.000129,-40.18,5.56,13.06,2a
2019-07-15_143210:720,-0.488068,-0.044739,-0.045745999999999995,-0.001131,0.013133,6.8e-05,-40.869999,5.18,12.0,2a
2019-07-15_143210:740,-0.48706099999999997,-0.042175,-0.042175,-0.0014060000000000001,0.012065000000000001,0.000496,-40.869999,5.18,12.0,2a
2019-07-15_143210:760,-0.48553500000000005,-0.042175,-0.037598,-0.0020469999999999998,0.010753,0.000404,-39.75,5.18,13.06,2a
2019-07-15_143210:780,-0.488068,-0.043213,-0.032532,-0.0025960000000000002,0.009288,6.8e-05,-39.75,5.18,13.06,2a
2019-07-15_143210:800,-0.484497,-0.044219999999999995,-0.032532,-0.002718,0.007701,0.00016,-39.75,5.18,13.06,2a
2019-07-15_143210:820,-0.48754899999999995,-0.044739,-0.029480000000000003,-0.002718,0.006236,0.000221,-39.369999,4.5,13.56,2a
2019-07-15_143210:840,-0.489075,-0.043701,-0.028442000000000002,-0.0025960000000000002,0.00471,0.0007700000000000001,-39.369999,4.5,13.56,2a
2019-07-15_143210:860,-0.489075,-0.043213,-0.028961,-0.0029010000000000004,0.0034289999999999998,0.001777,-39.75,5.56,14.25,2a
2019-07-15_143210:880,-0.489594,-0.043701,-0.027954000000000003,-0.003176,0.0024519999999999998,0.001106,-39.75,5.56,14.25,2a
2019-07-15_143210:900,-0.492645,-0.042694,-0.030487,-0.0036340000000000005,0.001537,0.000709,-39.75,5.56,14.25,2a
2019-07-15_143210:920,-0.49722299999999997,-0.044739,-0.031494,-0.0036340000000000005,0.000743,0.001167,-40.18,4.75,13.56,2a
2019-07-15_143210:940,-0.501282,-0.045745999999999995,-0.031494,-0.003664,0.001201,0.001381,-40.18,4.75,13.56,2a
2019-07-15_143210:960,-0.500793,-0.048798,-0.031494,-0.0034509999999999996,0.0023,0.001258,-39.369999,4.75,13.18,2a
2019-07-15_143210:980,-0.498749,-0.047791,-0.031494,-0.003176,0.003246,0.001167,-39.369999,4.75,13.18,2a
2019-07-15_143211:000,-0.49316400000000005,-0.047791,-0.035065,-0.003054,0.0036420000000000003,0.0007700000000000001,-39.369999,4.75,13.18,2a
2019-07-15_143211:020,-0.492126,-0.048279,-0.035065,-0.0028399999999999996,0.003246,0.000587,-40.18,5.56,13.06,2a
2019-07-15_143211:040,-0.495697,-0.047272,-0.036591000000000005,-0.002382,0.002696,0.000648,-40.18,5.56,13.06,2a
2019-07-15_143211:060,-0.496216,-0.047272,-0.03302,-0.0025960000000000002,0.0029100000000000003,0.000984,-40.560001,4.5,14.75,2a
2019-07-15_143211:080,-0.49722299999999997,-0.045745999999999995,-0.032532,-0.0025050000000000003,0.0031850000000000003,0.000831,-40.560001,4.5,14.75,2a
2019-07-15_143211:100,-0.49517799999999995,-0.046265,-0.03302,-0.002779,0.00349,0.0007700000000000001,-40.560001,4.5,14.75,2a
2019-07-15_143211:120,-0.49365200000000004,-0.045745999999999995,-0.031494,-0.002932,0.00352,0.000343,-40.18,4.75,14.0,2a
2019-07-15_143211:140,-0.49365200000000004,-0.045226999999999996,-0.032013,-0.00339,0.0036420000000000003,-0.00011499999999999999,-40.18,4.75,14.0,2a
2019-07-15_143211:160,-0.49316400000000005,-0.044739,-0.03302,-0.0036950000000000004,0.0036420000000000003,-0.000176,-40.18,5.18,14.75,2a
2019-07-15_143211:180,-0.491638,-0.045745999999999995,-0.031006,-0.004275,0.003093,-0.00011499999999999999,-40.18,5.18,14.75,2a
2019-07-15_143211:200,-0.49316400000000005,-0.046752999999999996,-0.030487,-0.004275,0.0023,7.000000000000001e-06,-40.18,5.18,14.75,2a
2019-07-15_143211:220,-0.494171,-0.049316000000000006,-0.031494,-0.004213000000000001,0.001628,-5.4000000000000005e-05,-40.18,5.18,14.75,2a
2019-07-15_143211:240,-0.49517799999999995,-0.048798,-0.029480000000000003,-0.004091,0.001537,0.000465,-40.18,5.18,14.75,2a
2019-07-15_143211:260,-0.494171,-0.046752999999999996,-0.028442000000000002,-0.003817,0.00114,0.000709,-39.369999,4.75,13.56,2a
2019-07-15_143211:280,-0.49365200000000004,-0.045745999999999995,-0.030487,-0.0036950000000000004,0.0008960000000000001,0.000526,-39.369999,4.75,13.56,2a
2019-07-15_143211:300,-0.49316400000000005,-0.044219999999999995,-0.029480000000000003,-0.0036340000000000005,0.000743,0.000526,-39.369999,4.75,13.56,2a
2019-07-15_143211:320,-0.496704,-0.045226999999999996,-0.029480000000000003,-0.0036340000000000005,0.000468,0.000526,-39.75,5.18,14.25,2a
2019-07-15_143211:340,-0.496216,-0.044219999999999995,-0.028961,-0.003939,0.000621,0.000709,-39.75,5.18,14.25,2a
2019-07-15_143211:360,-0.49517799999999995,-0.043701,-0.031006,-0.004152,0.0009570000000000001,0.000984,-39.369999,5.18,14.0,2a
2019-07-15_143211:380,-0.497742,-0.044739,-0.027435,-0.004793,0.001353,0.000831,-39.369999,5.18,14.0,2a
2019-07-15_143211:400,-0.49468999999999996,-0.044219999999999995,-0.027954000000000003,-0.005221,0.001292,0.001655,-39.369999,5.18,14.0,2a
2019-07-15_143211:420,-0.494171,-0.046752999999999996,-0.029968,-0.005556,0.001292,0.001991,-39.75,5.56,14.0,2a
2019-07-15_143211:440,-0.495697,-0.047272,-0.030487,-0.005861,0.0010789999999999999,6.8e-05,-39.75,5.56,14.0,2a
2019-07-15_143211:460,-0.491638,-0.047272,-0.029480000000000003,-0.005739,0.0009570000000000001,-0.000176,-40.18,6.0,14.25,2a
2019-07-15_143211:480,-0.491638,-0.049316000000000006,-0.031494,-0.005678,0.000621,0.000648,-40.18,6.0,14.25,2a
2019-07-15_143211:500,-0.492645,-0.048279,-0.031494,-0.005282,0.000285,0.000129,-40.18,6.0,14.25,2a
2019-07-15_143211:520,-0.496704,-0.048798,-0.033539,-0.004732,0.00016299999999999998,-0.000328,-40.560001,5.18,14.75,2a
2019-07-15_143211:540,-0.496216,-0.048798,-0.03302,-0.004275,0.000499,-0.000786,-40.560001,5.18,14.75,2a
2019-07-15_143211:560,-0.496704,-0.046265,-0.03302,-0.004,0.0010789999999999999,-0.00023700000000000001,-40.560001,5.56,13.56,2a
2019-07-15_143211:580,-0.49722299999999997,-0.046752999999999996,-0.032013,-0.003664,0.001292,6.8e-05,-40.560001,5.56,13.56,2a
2019-07-15_143211:600,-0.494171,-0.044219999999999995,-0.032013,-0.0036950000000000004,0.0014759999999999999,6.8e-05,-40.560001,5.56,13.56,2a
2019-07-15_143211:620,-0.49316400000000005,-0.045226999999999996,-0.032013,-0.0036950000000000004,0.001598,0.000465,-39.369999,6.25,14.75,2a
2019-07-15_143211:640,-0.490601,-0.044219999999999995,-0.032532,-0.003817,0.001018,0.000648,-39.369999,6.25,14.75,2a
2019-07-15_143211:660,-0.494171,-0.044739,-0.03302,-0.0036950000000000004,0.00022400000000000002,0.000923,-39.369999,5.18,14.0,2a
2019-07-15_143211:680,-0.49975600000000003,-0.045226999999999996,-0.032013,-0.004,0.00022400000000000002,0.00132,-39.369999,5.18,14.0,2a
2019-07-15_143211:700,-0.49926800000000005,-0.044219999999999995,-0.033539,-0.004275,0.000743,0.001503,-39.369999,5.18,14.0,2a
2019-07-15_143211:720,-0.500275,-0.046265,-0.033539,-0.004549,0.001598,0.00132,-40.18,5.56,13.18,2a
2019-07-15_143211:740,-0.502319,-0.047272,-0.034058,-0.004549,0.002361,0.001167,-40.18,5.56,13.18,2a
2019-07-15_143211:760,-0.500793,-0.048798,-0.036591000000000005,-0.004213000000000001,0.003764,0.001503,-40.560001,6.0,13.56,2a
2019-07-15_143211:780,-0.49722299999999997,-0.049805,-0.035583,-0.0036950000000000004,0.00471,0.001777,-40.560001,6.0,13.56,2a
2019-07-15_143211:800,-0.492645,-0.051330999999999995,-0.036072,-0.0033280000000000002,0.004833,0.001564,-40.560001,6.0,13.56,2a
2019-07-15_143211:820,-0.491638,-0.047791,-0.035583,-0.002535,0.00471,0.001564,-40.560001,5.18,15.06,2a
2019-07-15_143211:840,-0.490601,-0.047791,-0.03302,-0.002321,0.0042829999999999995,0.001442,-40.560001,5.18,15.06,2a
2019-07-15_143211:860,-0.489594,-0.047791,-0.03302,-0.0021079999999999996,0.0036420000000000003,0.000831,-40.18,5.56,14.0,2a
2019-07-15_143211:880,-0.49111899999999997,-0.046265,-0.031006,-0.001925,0.002849,0.00028199999999999997,-40.18,5.56,14.0,2a
2019-07-15_143211:900,-0.490601,-0.045745999999999995,-0.031494,-0.002321,0.002239,-0.00011499999999999999,-40.18,5.56,14.0,2a
2019-07-15_143211:920,-0.49468999999999996,-0.044219999999999995,-0.031494,-0.002718,0.0014759999999999999,-0.000512,-40.18,5.18,14.0,2a
2019-07-15_143211:940,-0.49517799999999995,-0.044219999999999995,-0.027954000000000003,-0.00339,0.0012619999999999999,7.000000000000001e-06,-40.18,5.18,14.0,2a
2019-07-15_143211:960,-0.501282,-0.046752999999999996,-0.028961,-0.0036950000000000004,0.001415,6.8e-05,-40.869999,5.56,14.0,2a
2019-07-15_143211:980,-0.500275,-0.047272,-0.028442000000000002,-0.004,0.002696,0.00028199999999999997,-40.869999,5.56,14.0,2a
2019-07-15_143212:000,-0.497742,-0.047791,-0.029968,-0.003817,0.003368,0.000404,-40.869999,5.56,14.0,2a
2019-07-15_143212:020,-0.496216,-0.048279,-0.028442000000000002,-0.0037560000000000002,0.003825,0.0008619999999999999,-39.75,6.0,14.25,2a
2019-07-15_143212:040,-0.49365200000000004,-0.048798,-0.025421,-0.003817,0.003764,0.001228,-39.75,6.0,14.25,2a
2019-07-15_143212:060,-0.494171,-0.046752999999999996,-0.026427999999999997,-0.003573,0.003764,0.001228,-39.060001,6.25,14.75,2a
2019-07-15_143212:080,-0.492645,-0.047272,-0.025421,-0.003939,0.003368,0.001045,-39.060001,6.25,14.75,2a
2019-07-15_143212:100,-0.491638,-0.048279,-0.025908999999999998,-0.00403,0.002971,0.000831,-39.060001,6.25,14.75,2a
2019-07-15_143212:120,-0.492126,-0.049316000000000006,-0.024902,-0.004275,0.002177,0.000587,-39.369999,5.56,15.06,2a
2019-07-15_143212:140,-0.490601,-0.050842,-0.024902,-0.004213000000000001,0.0017809999999999998,0.000221,-39.369999,5.56,15.06,2a
2019-07-15_143212:160,-0.490112,-0.050323,-0.025421,-0.003878,0.001292,-5.4000000000000005e-05,-39.75,5.56,14.0,2a
2019-07-15_143212:180,-0.492126,-0.050323,-0.025908999999999998,-0.0034509999999999996,0.00056,-0.000328,-39.75,5.56,14.0,2a
2019-07-15_143212:200,-0.49517799999999995,-0.048798,-0.025421,-0.0029010000000000004,1.1e-05,-0.000786,-39.75,5.56,14.0,2a
2019-07-15_143212:220,-0.49517799999999995,-0.048798,-0.027954000000000003,-0.002535,-0.000386,-0.000664,-38.0,5.18,14.75,2a
2019-07-15_143212:240,-0.496216,-0.046752999999999996,-0.027435,-0.001925,-0.000172,-0.000389,-38.0,5.18,14.75,2a
2019-07-15_143212:260,-0.49722299999999997,-0.045226999999999996,-0.027954000000000003,-0.0020469999999999998,0.00022400000000000002,7.000000000000001e-06,-40.18,4.75,13.56,2a
2019-07-15_143212:280,-0.492645,-0.044219999999999995,-0.027954000000000003,-0.002382,0.000468,0.001503,-40.18,4.75,13.56,2a
2019-07-15_143212:300,-0.49517799999999995,-0.046752999999999996,-0.029480000000000003,-0.002718,7.2e-05,0.001503,-40.18,4.75,13.56,2a
2019-07-15_143212:320,-0.49468999999999996,-0.044739,-0.029968,-0.0033280000000000002,0.000133,-0.00045099999999999996,-40.18,4.75,14.0,2a
2019-07-15_143212:340,-0.49365200000000004,-0.045226999999999996,-0.031494,-0.00339,-0.000386,7.000000000000001e-06,-40.18,4.75,14.0,2a
2019-07-15_143212:360,-0.49365200000000004,-0.047272,-0.031494,-0.0037560000000000002,-0.0005690000000000001,0.000984,-38.68,5.18,13.56,2a
2019-07-15_143212:380,-0.491638,-0.047791,-0.031494,-0.0036340000000000005,-0.00063,0.000343,-38.68,5.18,13.56,2a
2019-07-15_143212:400,-0.494171,-0.046265,-0.03302,-0.0034509999999999996,-0.000722,-0.000389,-38.68,5.18,13.56,2a
2019-07-15_143212:420,-0.49722299999999997,-0.045226999999999996,-0.034546,-0.003176,-0.000508,-0.00011499999999999999,-40.18,5.56,14.0,2a
2019-07-15_143212:440,-0.500275,-0.045745999999999995,-0.033539,-0.0032979999999999997,-0.00011100000000000001,0.000465,-40.18,5.56,14.0,2a
2019-07-15_143212:460,-0.501801,-0.045226999999999996,-0.033539,-0.0033280000000000002,0.00056,0.000709,-39.75,5.56,13.56,2a
2019-07-15_143212:480,-0.497742,-0.045226999999999996,-0.030487,-0.00339,0.001537,0.000465,-39.75,5.56,13.56,2a
2019-07-15_143212:500,-0.494171,-0.045226999999999996,-0.032532,-0.0036340000000000005,0.002177,0.0007700000000000001,-39.75,5.56,13.56,2a
2019-07-15_143212:520,-0.49111899999999997,-0.043701,-0.031494,-0.003664,0.00172,0.001106,-39.060001,4.75,14.0,2a
2019-07-15_143212:540,-0.492645,-0.043701,-0.031494,-0.004,0.001292,0.001106,-39.060001,4.75,14.0,2a
2019-07-15_143212:560,-0.49316400000000005,-0.043701,-0.031006,-0.004397,0.000499,0.001381,-40.18,4.75,14.0,2a
2019-07-15_143212:580,-0.495697,-0.045226999999999996,-0.028961,-0.004732,0.000285,0.001716,-40.18,4.75,14.0,2a
2019-07-15_143212:600,-0.492126,-0.046752999999999996,-0.032532,-0.0051600000000000005,0.000499,0.001167,-40.18,4.75,14.0,2a
2019-07-15_143212:620,-0.492126,-0.047791,-0.031494,-0.005129,0.000133,0.000709,-39.75,5.56,13.06,2a
2019-07-15_143212:640,-0.49316400000000005,-0.048279,-0.034058,-0.005007,-5e-05,0.001228,-39.75,5.56,13.06,2a
2019-07-15_143212:660,-0.496704,-0.048798,-0.032532,-0.004732,-0.000508,0.001167,-39.75,4.75,13.56,2a
2019-07-15_143212:680,-0.498749,-0.049805,-0.03302,-0.004275,-0.00044699999999999997,0.001258,-39.75,4.75,13.56,2a
2019-07-15_143212:700,-0.49823,-0.049316000000000006,-0.034546,-0.003939,1.1e-05,0.000923,-39.75,4.75,13.56,2a
2019-07-15_143212:720,-0.49722299999999997,-0.049316000000000006,-0.035065,-0.0036340000000000005,0.0008039999999999999,0.000831,-39.369999,5.56,15.06,2a
2019-07-15_143212:740,-0.494171,-0.049805,-0.035583,-0.00339,0.0010789999999999999,0.000831,-39.369999,5.56,15.06,2a
2019-07-15_143212:760,-0.49468999999999996,-0.048798,-0.035583,-0.002932,0.0012619999999999999,0.000984,-39.75,4.5,14.25,2a
2019-07-15_143212:780,-0.49468999999999996,-0.049316000000000006,-0.033539,-0.002993,0.001018,0.0007700000000000001,-39.75,4.5,14.25,2a
2019-07-15_143212:800,-0.495697,-0.049316000000000006,-0.035583,-0.002535,0.001415,0.000526,-39.75,4.5,14.25,2a
2019-07-15_143212:820,-0.494171,-0.048279,-0.035065,-0.002657,0.001415,0.000648,-39.060001,5.18,14.75,2a
2019-07-15_143212:840,-0.49365200000000004,-0.046752999999999996,-0.035065,-0.0028399999999999996,0.0012619999999999999,0.0007700000000000001,-39.060001,5.18,14.75,2a
2019-07-15_143212:860,-0.49316400000000005,-0.045745999999999995,-0.036072,-0.0033280000000000002,0.0008960000000000001,0.001045,-40.18,5.56,14.75,2a
2019-07-15_143212:880,-0.494171,-0.045226999999999996,-0.033539,-0.003939,0.001018,0.001564,-40.18,5.56,14.75,2a
2019-07-15_143212:900,-0.495697,-0.046752999999999996,-0.035583,-0.00461,0.0010789999999999999,0.001716,-40.18,5.56,14.75,2a
2019-07-15_143212:920,-0.495697,-0.047791,-0.037598,-0.005129,0.001018,0.001625,-39.369999,5.56,13.06,2a
2019-07-15_143212:940,-0.49517799999999995,-0.047791,-0.036072,-0.005221,0.0010789999999999999,0.00132,-39.369999,5.56,13.06,2a
2019-07-15_143212:960,-0.495697,-0.049805,-0.037598,-0.005526,0.0014759999999999999,0.001228,-40.18,5.18,14.75,2a
2019-07-15_143212:980,-0.496216,-0.050842,-0.034546,-0.005465,0.001628,0.001106,-40.18,5.18,14.75,2a
2019-07-15_143213:000,-0.496216,-0.051849,-0.035583,-0.005465,0.002055,0.00132,-40.18,5.18,14.75,2a
2019-07-15_143213:020,-0.49468999999999996,-0.051330999999999995,-0.035583,-0.005007,0.002177,0.0008619999999999999,-39.75,5.18,14.25,2a
2019-07-15_143213:040,-0.49365200000000004,-0.051849,-0.035583,-0.004793,0.002757,0.000648,-39.75,5.18,14.25,2a
2019-07-15_143213:060,-0.49468999999999996,-0.049316000000000006,-0.037598,-0.004549,0.002849,0.0008619999999999999,-40.560001,6.68,14.25,2a
2019-07-15_143213:080,-0.497742,-0.050323,-0.036591000000000005,-0.004336,0.003032,0.000496,-40.560001,6.68,14.25,2a
2019-07-15_143213:100,-0.500275,-0.050323,-0.036072,-0.004,0.003703,7.000000000000001e-06,-40.560001,6.68,14.25,2a
2019-07-15_143213:120,-0.500793,-0.049316000000000006,-0.036591000000000005,-0.003878,0.00471,-0.000573,-39.060001,6.0,14.75,2a
2019-07-15_143213:140,-0.501282,-0.048798,-0.033539,-0.003512,0.006297,-0.001183,-39.060001,6.0,14.75,2a
2019-07-15_143213:160,-0.504333,-0.049805,-0.033539,-0.003878,0.007762000000000001,-0.0011220000000000002,-39.75,5.18,12.37,2a
2019-07-15_143213:180,-0.501282,-0.046752999999999996,-0.029480000000000003,-0.004427,0.008739,0.001106,-39.75,5.18,12.37,2a
2019-07-15_143213:200,-0.500793,-0.051849,-0.031006,-0.004824,0.009623999999999999,0.001777,-39.75,5.18,12.37,2a
2019-07-15_143213:220,-0.49365200000000004,-0.049316000000000006,-0.026917,-0.005221,0.009807,0.000221,-39.369999,5.56,14.0,2a
2019-07-15_143213:240,-0.490112,-0.049805,-0.025908999999999998,-0.005343,0.009593,0.001716,-39.369999,5.56,14.0,2a
2019-07-15_143213:260,-0.488068,-0.050323,-0.026917,-0.0056170000000000005,0.008281,0.002845,-39.75,5.56,14.25,2a
2019-07-15_143213:280,-0.48196400000000006,-0.053863999999999995,-0.020844,-0.006014,0.007488,0.00196,-39.75,5.56,14.25,2a
2019-07-15_143213:300,-0.489075,-0.051849,-0.021332,-0.005556,0.006023,0.001564,-39.75,5.56,14.25,2a
2019-07-15_143213:320,-0.492645,-0.053375,-0.019806,-0.005739,0.005504,0.001442,-39.369999,4.75,15.5,2a
2019-07-15_143213:340,-0.498749,-0.054901,-0.018799,-0.005922,0.005168,0.0018989999999999999,-39.369999,4.75,15.5,2a
2019-07-15_143213:360,-0.49975600000000003,-0.055908000000000006,-0.017273,-0.006258,0.005565,0.00251,-39.75,6.25,15.06,2a
2019-07-15_143213:380,-0.500275,-0.056915,-0.015747,-0.006411,0.006023,0.001991,-39.75,6.25,15.06,2a
2019-07-15_143213:400,-0.495697,-0.05996699999999999,-0.016266,-0.00635,0.006572,0.0008619999999999999,-39.75,6.25,15.06,2a
2019-07-15_143213:420,-0.49316400000000005,-0.060486,-0.016753999999999998,-0.005678,0.006572,-0.000267,-39.75,6.25,15.87,2a
2019-07-15_143213:440,-0.49517799999999995,-0.05996699999999999,-0.015228,-0.005068,0.005901,-0.001397,-39.75,6.25,15.87,2a
2019-07-15_143213:460,-0.491638,-0.058441,-0.014740000000000001,-0.00403,0.005504,-0.0019760000000000003,-39.369999,6.25,15.5,2a
2019-07-15_143213:480,-0.490112,-0.058441,-0.013702,-0.003237,0.004619,-0.003167,-39.369999,6.25,15.5,2a
2019-07-15_143213:500,-0.48858599999999996,-0.05285599999999999,-0.014221000000000001,-0.001925,0.003764,-0.004052,-39.369999,6.25,15.5,2a
2019-07-15_143213:520,-0.48858599999999996,-0.051849,-0.013213999999999998,-0.000857,0.002391,-0.0034409999999999996,-39.060001,6.0,15.5,2a
2019-07-15_143213:540,-0.490112,-0.048279,-0.014221000000000001,-0.00045999999999999996,0.0012619999999999999,-0.002587,-39.060001,6.0,15.5,2a
2019-07-15_143213:560,-0.492645,-0.045226999999999996,-0.013213999999999998,-0.00045999999999999996,0.00056,-0.00216,-39.060001,6.25,14.25,2a
2019-07-15_143213:580,-0.49468999999999996,-0.041687,-0.013213999999999998,-0.00107,0.000621,-0.002434,-39.060001,6.25,14.25,2a
2019-07-15_143213:600,-0.496216,-0.040649,-0.015747,-0.0021079999999999996,0.000499,-0.003045,-39.060001,6.25,14.25,2a
2019-07-15_143213:620,-0.49365200000000004,-0.039124,-0.015228,-0.003176,0.000743,-0.0035020000000000003,-39.060001,5.56,15.87,2a
2019-07-15_143213:640,-0.49468999999999996,-0.040161,-0.013702,-0.004091,0.000499,-0.003655,-39.060001,5.56,15.87,2a
2019-07-15_143213:660,-0.495697,-0.042694,-0.016753999999999998,-0.004488000000000001,0.000285,-0.003655,-39.75,6.25,15.87,2a
2019-07-15_143213:680,-0.49722299999999997,-0.042175,-0.017792,-0.00403,7.2e-05,-0.003319,-39.75,6.25,15.87,2a
2019-07-15_143213:700,-0.496216,-0.042175,-0.019318000000000002,-0.0034509999999999996,-0.00011100000000000001,-0.003228,-39.75,6.25,15.87,2a
2019-07-15_143213:720,-0.496704,-0.042175,-0.019806,-0.0025050000000000003,-0.000233,-0.0028309999999999997,-39.369999,5.18,15.87,2a
2019-07-15_143213:740,-0.49517799999999995,-0.039124,-0.019318000000000002,-0.001467,-0.00011100000000000001,-0.002037,-39.369999,5.18,15.87,2a
2019-07-15_143213:760,-0.496216,-0.039642000000000004,-0.019806,-0.000643,0.00016299999999999998,-0.001366,-39.75,5.18,15.87,2a
2019-07-15_143213:780,-0.497742,-0.038116000000000004,-0.019806,-0.000185,0.000499,-0.000664,-39.75,5.18,15.87,2a
2019-07-15_143213:800,-0.49722299999999997,-0.035583,-0.019806,-0.000246,0.001018,0.00016,-39.75,5.18,15.87,2a
2019-07-15_143213:820,-0.49975600000000003,-0.036072,-0.017792,-0.000582,0.001598,0.000709,-39.060001,5.18,15.06,2a
2019-07-15_143213:840,-0.498749,-0.037598,-0.014740000000000001,-0.001253,0.002055,0.000465,-39.060001,5.18,15.06,2a
2019-07-15_143213:860,-0.495697,-0.039124,-0.016266,-0.0015279999999999998,0.0023,-0.000389,-39.369999,5.56,14.25,2a
2019-07-15_143213:880,-0.492126,-0.042694,-0.01828,-0.0018030000000000001,0.002116,-0.0019760000000000003,-39.369999,5.56,14.25,2a
2019-07-15_143213:900,-0.489075,-0.043701,-0.01828,-0.0017109999999999998,0.001415,-0.003563,-39.369999,5.56,14.25,2a
2019-07-15_143213:920,-0.491638,-0.042694,-0.016753999999999998,-0.0014060000000000001,0.00056,-0.004418,-40.18,4.75,15.5,2a
2019-07-15_143213:940,-0.497742,-0.039124,-0.016266,-0.001009,-5e-05,-0.004845,-40.18,4.75,15.5,2a
2019-07-15_143213:960,-0.496216,-0.039124,-0.01828,-0.000918,-0.000172,-0.0037159999999999997,-39.75,4.75,14.75,2a
2019-07-15_143213:980,-0.502808,-0.036591000000000005,-0.014221000000000001,-0.000796,0.000285,-0.002892,-39.75,4.75,14.75,2a
2019-07-15_143214:000,-0.503326,-0.035583,-0.014740000000000001,-0.001375,0.0009570000000000001,-0.001702,-39.75,4.75,14.75,2a
2019-07-15_143214:020,-0.498749,-0.035583,-0.016753999999999998,-0.001864,0.001353,-0.000267,-39.369999,4.5,15.5,2a
2019-07-15_143214:040,-0.496704,-0.037598,-0.015747,-0.002382,0.001994,0.001442,-39.369999,4.5,15.5,2a
2019-07-15_143214:060,-0.49365200000000004,-0.037108999999999996,-0.017792,-0.0025960000000000002,0.001537,0.000831,-39.369999,5.18,15.5,2a
2019-07-15_143214:080,-0.490112,-0.036072,-0.018799,-0.002535,0.000743,0.00132,-39.369999,5.18,15.5,2a
2019-07-15_143214:100,-0.491638,-0.036591000000000005,-0.019318000000000002,-0.0028399999999999996,-0.00011100000000000001,0.001777,-39.369999,5.18,15.5,2a
2019-07-15_143214:120,-0.491638,-0.036072,-0.020325,-0.0032979999999999997,-0.0009050000000000001,0.001381,-39.369999,4.06,15.06,2a
2019-07-15_143214:140,-0.49468999999999996,-0.033539,-0.017792,-0.003664,-0.001057,0.000923,-39.369999,4.06,15.06,2a
2019-07-15_143214:160,-0.49722299999999997,-0.034546,-0.019806,-0.004427,-0.000722,0.001167,-39.060001,4.5,15.5,2a
2019-07-15_143214:180,-0.49823,-0.034058,-0.019318000000000002,-0.005465,-0.000508,0.001777,-39.060001,4.5,15.5,2a
2019-07-15_143214:200,-0.496704,-0.036072,-0.020844,-0.006014,-0.000264,0.001991,-39.060001,4.5,15.5,2a
2019-07-15_143214:220,-0.49975600000000003,-0.038116000000000004,-0.021851,-0.006136,-0.000172,0.001503,-39.369999,4.5,15.06,2a
2019-07-15_143214:240,-0.498749,-0.037598,-0.021332,-0.005922,0.00016299999999999998,0.001167,-39.369999,4.5,15.06,2a
2019-07-15_143214:260,-0.497742,-0.037598,-0.022369,-0.0058,0.000407,0.000648,-40.560001,4.75,14.75,2a
2019-07-15_143214:280,-0.49517799999999995,-0.037598,-0.021332,-0.0058,0.000621,0.000648,-40.560001,4.75,14.75,2a
2019-07-15_143214:300,-0.494171,-0.037108999999999996,-0.023375999999999997,-0.006014,0.000499,0.001503,-40.560001,4.75,14.75,2a
2019-07-15_143214:320,-0.49365200000000004,-0.037108999999999996,-0.022369,-0.005953,0.00022400000000000002,0.002052,-39.75,4.06,14.75,2a
2019-07-15_143214:340,-0.494171,-0.038635,-0.021332,-0.005922,7.2e-05,0.001503,-39.75,4.06,14.75,2a
2019-07-15_143214:360,-0.492645,-0.039124,-0.021332,-0.005526,-0.00011100000000000001,0.000496,-40.18,4.5,15.5,2a
2019-07-15_143214:380,-0.495697,-0.039124,-0.024902,-0.005221,-0.00011100000000000001,6.8e-05,-40.18,4.5,15.5,2a
2019-07-15_143214:400,-0.498749,-0.040161,-0.021851,-0.004732,7.2e-05,0.00016,-40.18,4.5,15.5,2a
2019-07-15_143214:420,-0.498749,-0.039124,-0.023895,-0.004549,0.000285,0.000465,-40.18,4.06,14.0,2a
2019-07-15_143214:440,-0.49722299999999997,-0.040649,-0.022858,-0.003939,0.000499,0.00016,-40.18,4.06,14.0,2a
2019-07-15_143214:460,-0.496704,-0.040649,-0.023375999999999997,-0.003512,0.000346,-5.4000000000000005e-05,-40.869999,4.75,15.06,2a
2019-07-15_143214:480,-0.494171,-0.039642000000000004,-0.024902,-0.002932,0.000468,-5.4000000000000005e-05,-40.869999,4.75,15.06,2a
2019-07-15_143214:500,-0.494171,-0.038116000000000004,-0.024384,-0.0025050000000000003,0.00016299999999999998,6.8e-05,-40.869999,4.75,15.06,2a
2019-07-15_143214:520,-0.49468999999999996,-0.037598,-0.024902,-0.0022600000000000003,0.00022400000000000002,-0.000176,-40.18,4.5,14.25,2a
2019-07-15_143214:540,-0.496216,-0.034058,-0.023375999999999997,-0.0021079999999999996,0.000621,-0.000267,-40.18,4.5,14.25,2a
2019-07-15_143214:560,-0.497742,-0.034546,-0.025421,-0.002199,0.000499,-0.00023700000000000001,-39.75,4.75,17.059998999999998,2a
2019-07-15_143214:580,-0.496216,-0.033539,-0.026427999999999997,-0.0029010000000000004,0.000621,0.000709,-39.75,4.75,17.059998999999998,2a
2019-07-15_143214:600,-0.49517799999999995,-0.034058,-0.025421,-0.003664,0.000621,0.001228,-39.75,4.75,17.059998999999998,2a
2019-07-15_143214:620,-0.495697,-0.034546,-0.024902,-0.003939,0.000468,0.00132,-40.18,4.5,14.75,2a
2019-07-15_143214:640,-0.49517799999999995,-0.035065,-0.025421,-0.004824,0.000621,0.001655,-40.18,4.5,14.75,2a
2019-07-15_143214:660,-0.495697,-0.037598,-0.026427999999999997,-0.004824,0.000621,0.001838,-39.369999,4.5,15.06,2a
2019-07-15_143214:680,-0.49517799999999995,-0.038635,-0.027435,-0.0051600000000000005,0.000407,0.001655,-39.369999,4.5,15.06,2a
2019-07-15_143214:700,-0.496216,-0.039642000000000004,-0.026917,-0.005129,0.000407,0.001777,-39.369999,4.5,15.06,2a
2019-07-15_143214:720,-0.49722299999999997,-0.041687,-0.026917,-0.005129,0.000285,0.001838,-39.060001,4.5,14.25,2a
2019-07-15_143214:740,-0.49823,-0.041168,-0.024384,-0.00461,0.001018,0.001625,-39.060001,4.5,14.25,2a
2019-07-15_143214:760,-0.49365200000000004,-0.042175,-0.025908999999999998,-0.004275,0.001201,0.000831,-39.75,4.5,15.06,2a
2019-07-15_143214:780,-0.492645,-0.043213,-0.027435,-0.003939,0.0008960000000000001,0.000129,-39.75,4.5,15.06,2a
2019-07-15_143214:800,-0.494171,-0.043701,-0.028961,-0.003237,0.000407,-0.000664,-39.75,4.5,15.06,2a
2019-07-15_143214:820,-0.494171,-0.041687,-0.028961,-0.002718,0.000346,-0.000908,-39.369999,4.5,14.25,2a
2019-07-15_143214:840,-0.49468999999999996,-0.042175,-0.028442000000000002,-0.001467,7.2e-05,-0.000664,-39.369999,4.5,14.25,2a
2019-07-15_143214:860,-0.501282,-0.039124,-0.028442000000000002,-0.0014060000000000001,0.000468,-0.000634,-40.18,4.5,14.25,2a
2019-07-15_143214:880,-0.500275,-0.036072,-0.031494,-0.0018030000000000001,0.002055,0.001716,-40.18,4.5,14.25,2a
2019-07-15_143214:900,-0.49517799999999995,-0.036072,-0.023375999999999997,-0.0025960000000000002,0.002116,0.002235,-40.18,4.5,14.25,2a
2019-07-15_143214:920,-0.496216,-0.036072,-0.029968,-0.003573,0.001964,0.000648,-39.369999,4.5,14.75,2a
2019-07-15_143214:940,-0.491638,-0.034546,-0.028442000000000002,-0.004732,0.001353,0.001258,-39.369999,4.5,14.75,2a
2019-07-15_143214:960,-0.494171,-0.037598,-0.027954000000000003,-0.005465,0.001292,0.001838,-39.369999,4.5,14.75,2a
2019-07-15_143214:980,-0.49517799999999995,-0.039124,-0.028961,-0.006533,0.001292,0.0007700000000000001,-40.18,4.5,14.0,2a
2019-07-15_143215:000,-0.49365200000000004,-0.040649,-0.030487,-0.006807,0.001598,-0.000512,-40.18,4.5,14.0,2a
2019-07-15_143215:020,-0.49468999999999996,-0.043213,-0.029480000000000003,-0.006684999999999999,0.001537,-0.0008470000000000001,-39.75,5.56,14.75,2a
2019-07-15_143215:040,-0.497742,-0.043213,-0.028442000000000002,-0.005922,0.001842,-0.0009689999999999999,-39.75,5.56,14.75,2a
2019-07-15_143215:060,-0.49926800000000005,-0.043701,-0.027435,-0.005129,0.002116,-0.000389,-39.060001,4.75,14.75,2a
2019-07-15_143215:080,-0.49926800000000005,-0.043701,-0.025421,-0.0032979999999999997,0.002788,-0.000328,-39.060001,4.75,14.75,2a
2019-07-15_143215:100,-0.496704,-0.042694,-0.026427999999999997,-0.0029010000000000004,0.0029100000000000003,-0.000328,-39.060001,4.75,14.75,2a
2019-07-15_143215:120,-0.49365200000000004,-0.040161,-0.026917,-0.0015890000000000001,0.003032,-0.000267,-39.369999,4.75,14.75,2a
2019-07-15_143215:140,-0.49316400000000005,-0.038635,-0.025421,-0.000857,0.002696,-5.4000000000000005e-05,-39.369999,4.75,14.75,2a
2019-07-15_143215:160,-0.49365200000000004,-0.037598,-0.027954000000000003,-0.000643,0.002177,0.000465,-39.369999,4.75,14.75,2a
2019-07-15_143215:180,-0.49365200000000004,-0.036072,-0.025421,-0.000796,0.0017809999999999998,0.001381,-39.369999,5.18,14.25,2a
2019-07-15_143215:200,-0.492126,-0.034546,-0.026427999999999997,-0.0018030000000000001,0.001598,0.000984,-39.369999,5.18,14.25,2a
2019-07-15_143215:220,-0.492645,-0.034058,-0.026917,-0.0021079999999999996,0.001292,0.000526,-39.75,4.75,15.06,2a
2019-07-15_143215:240,-0.49365200000000004,-0.034546,-0.025421,-0.003237,0.0009570000000000001,0.000984,-39.75,4.75,15.06,2a
2019-07-15_143215:260,-0.49517799999999995,-0.037598,-0.027954000000000003,-0.0034509999999999996,0.000682,0.001167,-39.75,4.5,15.06,2a
2019-07-15_143215:280,-0.49517799999999995,-0.036072,-0.025421,-0.004213000000000001,0.00056,0.0007700000000000001,-39.75,4.5,15.06,2a
2019-07-15_143215:300,-0.495697,-0.037108999999999996,-0.026427999999999997,-0.004549,0.00056,0.000526,-39.75,4.5,15.06,2a
2019-07-15_143215:320,-0.495697,-0.039642000000000004,-0.027954000000000003,-0.004671,0.000682,0.000221,-39.369999,4.75,14.25,2a
2019-07-15_143215:340,-0.496704,-0.039124,-0.027954000000000003,-0.00461,0.0008960000000000001,0.00028199999999999997,-39.369999,4.75,14.25,2a
2019-07-15_143215:360,-0.49722299999999997,-0.040649,-0.028961,-0.0037560000000000002,0.001018,0.000496,-39.75,4.75,14.25,2a
2019-07-15_143215:380,-0.497742,-0.042175,-0.028961,-0.00339,0.001201,0.000648,-39.75,4.75,14.25,2a
2019-07-15_143215:400,-0.49517799999999995,-0.041687,-0.028442000000000002,-0.0021079999999999996,0.001415,0.000984,-39.75,4.75,14.25,2a
2019-07-15_143215:420,-0.49517799999999995,-0.041168,-0.029480000000000003,-0.0017109999999999998,0.001537,0.00132,-39.75,4.5,14.25,2a
2019-07-15_143215:440,-0.496704,-0.039642000000000004,-0.027954000000000003,-0.001314,0.001537,0.001442,-39.75,4.5,14.25,2a
2019-07-15_143215:460,-0.497742,-0.037598,-0.027954000000000003,-0.001253,0.001628,0.001716,-39.75,4.5,14.25,2a
2019-07-15_143215:480,-0.49926800000000005,-0.037598,-0.027435,-0.001192,0.001964,0.002113,-40.560001,4.75,14.0,2a
2019-07-15_143215:500,-0.49823,-0.037598,-0.026917,-0.0015890000000000001,0.002391,0.002235,-40.560001,4.75,14.0,2a
2019-07-15_143215:520,-0.495697,-0.037108999999999996,-0.026917,-0.0021079999999999996,0.002574,0.002113,-40.18,5.18,14.0,2a
2019-07-15_143215:540,-0.49468999999999996,-0.037598,-0.026427999999999997,-0.002779,0.002635,0.0021739999999999997,-40.18,5.18,14.0,2a
2019-07-15_143215:560,-0.496216,-0.039642000000000004,-0.026917,-0.00339,0.002635,0.002235,-40.18,5.18,14.0,2a
2019-07-15_143215:580,-0.49517799999999995,-0.040161,-0.027435,-0.003817,0.002696,0.002449,-40.18,5.18,15.87,2a
2019-07-15_143215:600,-0.49517799999999995,-0.043213,-0.026427999999999997,-0.004091,0.002788,0.002449,-40.18,5.18,15.87,2a
2019-07-15_143215:620,-0.494171,-0.043213,-0.027954000000000003,-0.004671,0.002788,0.002388,-40.18,5.18,14.25,2a
2019-07-15_143215:640,-0.492645,-0.045226999999999996,-0.027435,-0.004488000000000001,0.0029100000000000003,0.002388,-40.18,5.18,14.25,2a
2019-07-15_143215:660,-0.49365200000000004,-0.045226999999999996,-0.028961,-0.004397,0.002635,0.002357,-40.18,5.18,14.25,2a
2019-07-15_143215:680,-0.495697,-0.045745999999999995,-0.027954000000000003,-0.004213000000000001,0.002391,0.002052,-39.75,4.5,14.0,2a
2019-07-15_143215:700,-0.496216,-0.045226999999999996,-0.026427999999999997,-0.003878,0.0023,0.002113,-39.75,4.5,14.0,2a
2019-07-15_143215:720,-0.496704,-0.045745999999999995,-0.022369,-0.0036340000000000005,0.002513,0.00196,-39.75,5.56,15.06,2a
2019-07-15_143215:740,-0.49823,-0.044739,-0.024384,-0.003878,0.0031850000000000003,0.001991,-39.75,5.56,15.06,2a
2019-07-15_143215:760,-0.495697,-0.044739,-0.024384,-0.004336,0.00352,0.003486,-39.75,5.56,15.06,2a
2019-07-15_143215:780,-0.49517799999999995,-0.045745999999999995,-0.026427999999999997,-0.004671,0.0031850000000000003,0.003486,-39.75,5.18,14.75,2a
2019-07-15_143215:800,-0.49316400000000005,-0.046265,-0.024902,-0.005129,0.002788,0.001228,-39.75,5.18,14.75,2a
2019-07-15_143215:820,-0.49316400000000005,-0.046265,-0.024384,-0.005343,0.002239,0.0021739999999999997,-39.369999,5.18,14.0,2a
2019-07-15_143215:840,-0.494171,-0.050323,-0.024384,-0.005526,0.002239,0.001838,-39.369999,5.18,14.0,2a
2019-07-15_143215:860,-0.49468999999999996,-0.048798,-0.025421,-0.005068,0.0023,0.0008619999999999999,-39.369999,5.56,15.87,2a
2019-07-15_143215:880,-0.49517799999999995,-0.050842,-0.024902,-0.004336,0.002391,0.000496,-39.369999,5.56,15.87,2a
2019-07-15_143215:900,-0.496704,-0.050323,-0.021851,-0.003664,0.002635,0.000221,-39.369999,5.56,15.87,2a
2019-07-15_143215:920,-0.49823,-0.047272,-0.024384,-0.002993,0.002788,0.000526,-40.18,6.0,14.0,2a
2019-07-15_143215:940,-0.500793,-0.047272,-0.022858,-0.002535,0.0031850000000000003,0.000831,-40.18,6.0,14.0,2a
2019-07-15_143215:960,-0.498749,-0.045226999999999996,-0.021851,-0.0025050000000000003,0.003886,0.000831,-40.18,6.0,14.0,2a
2019-07-15_143215:980,-0.496216,-0.044219999999999995,-0.022858,-0.002443,0.0042829999999999995,0.000831,-39.369999,5.18,14.75,2a
2019-07-15_143216:000,-0.49517799999999995,-0.044219999999999995,-0.020325,-0.002932,0.0041,0.000984,-39.369999,5.18,14.75,2a
2019-07-15_143216:020,-0.495697,-0.043701,-0.019806,-0.0033280000000000002,0.003886,0.001106,-39.060001,5.56,15.06,2a
2019-07-15_143216:040,-0.49316400000000005,-0.045226999999999996,-0.018799,-0.004,0.003886,0.001716,-39.060001,5.56,15.06,2a
2019-07-15_143216:060,-0.49365200000000004,-0.046752999999999996,-0.019318000000000002,-0.004336,0.003703,0.000923,-39.060001,5.56,15.06,2a
2019-07-15_143216:080,-0.49365200000000004,-0.047791,-0.01828,-0.004549,0.003307,0.000831,-39.060001,5.18,15.5,2a
2019-07-15_143216:100,-0.49468999999999996,-0.047272,-0.016266,-0.00461,0.003093,0.00196,-39.060001,5.18,15.5,2a
2019-07-15_143216:120,-0.49365200000000004,-0.049316000000000006,-0.017792,-0.004824,0.002635,0.0018989999999999999,-39.060001,5.56,15.06,2a
2019-07-15_143216:140,-0.49365200000000004,-0.048279,-0.017273,-0.004946,0.002391,0.001258,-39.060001,5.56,15.06,2a
2019-07-15_143216:160,-0.49517799999999995,-0.048279,-0.019806,-0.0048850000000000005,0.002055,0.000984,-39.060001,5.56,15.06,2a
2019-07-15_143216:180,-0.496704,-0.049316000000000006,-0.022369,-0.005129,0.0019030000000000002,0.000343,-40.869999,6.0,15.5,2a
2019-07-15_143216:200,-0.492645,-0.049805,-0.012177,-0.0048850000000000005,0.0019030000000000002,0.000404,-40.869999,6.0,15.5,2a
2019-07-15_143216:220,-0.49926800000000005,-0.049805,-0.019318000000000002,-0.004549,0.0016589999999999999,0.00028199999999999997,-39.75,5.56,15.06,2a
2019-07-15_143216:240,-0.495697,-0.050842,-0.015228,-0.003878,0.0019030000000000002,0.00016,-39.75,5.56,15.06,2a
2019-07-15_143216:260,-0.496216,-0.049805,-0.016753999999999998,-0.00339,0.002116,0.000129,-39.75,5.56,15.06,2a
2019-07-15_143216:280,-0.49517799999999995,-0.047791,-0.017792,-0.0029010000000000004,0.002177,0.000404,-39.75,6.0,15.5,2a
2019-07-15_143216:300,-0.49365200000000004,-0.045745999999999995,-0.01828,-0.0029010000000000004,0.001964,0.0008619999999999999,-39.75,6.0,15.5,2a
2019-07-15_143216:320,-0.49316400000000005,-0.045226999999999996,-0.01828,-0.0029010000000000004,0.0017809999999999998,0.001045,-39.75,6.0,15.87,2a
2019-07-15_143216:340,-0.494171,-0.044739,-0.017273,-0.003237,0.001537,0.00132,-39.75,6.0,15.87,2a
2019-07-15_143216:360,-0.49517799999999995,-0.045226999999999996,-0.01828,-0.003878,0.0014759999999999999,0.001564,-39.75,6.0,15.87,2a
2019-07-15_143216:380,-0.49517799999999995,-0.046265,-0.017792,-0.00461,0.001201,0.001381,-39.060001,4.5,15.87,2a
2019-07-15_143216:400,-0.49365200000000004,-0.046752999999999996,-0.017792,-0.005221,0.0010789999999999999,0.001228,-39.060001,4.5,15.87,2a
2019-07-15_143216:420,-0.492645,-0.047791,-0.018799,-0.0056170000000000005,0.0010789999999999999,0.001045,-39.75,6.0,15.5,2a
2019-07-15_143216:440,-0.492645,-0.049805,-0.019806,-0.005861,0.000621,0.000648,-39.75,6.0,15.5,2a
2019-07-15_143216:460,-0.492645,-0.051330999999999995,-0.019806,-0.005556,7.2e-05,0.00016,-39.75,6.0,15.5,2a
2019-07-15_143216:480,-0.49722299999999997,-0.051849,-0.020844,-0.005068,-0.000233,6.8e-05,-39.369999,6.0,16.68,2a
2019-07-15_143216:500,-0.497742,-0.050323,-0.019806,-0.004336,-0.000233,0.000526,-39.369999,6.0,16.68,2a
2019-07-15_143216:520,-0.498749,-0.049316000000000006,-0.019806,-0.0037560000000000002,0.000346,0.0007700000000000001,-39.75,6.0,15.06,2a
2019-07-15_143216:540,-0.49926800000000005,-0.048798,-0.019806,-0.003664,0.000743,0.00196,-39.75,6.0,15.06,2a
2019-07-15_143216:560,-0.49517799999999995,-0.047791,-0.020325,-0.0037560000000000002,0.001598,0.00309,-39.75,6.0,15.06,2a
2019-07-15_143216:580,-0.49316400000000005,-0.048798,-0.019318000000000002,-0.004091,0.001201,0.001838,-39.369999,6.0,15.06,2a
2019-07-15_143216:600,-0.492126,-0.046752999999999996,-0.020844,-0.00461,0.000682,0.001258,-39.369999,6.0,15.06,2a
2019-07-15_143216:620,-0.49111899999999997,-0.048279,-0.020844,-0.005007,0.000285,0.001991,-39.369999,5.56,14.75,2a
2019-07-15_143216:640,-0.491638,-0.048798,-0.022369,-0.0056170000000000005,-0.000264,0.0021739999999999997,-39.369999,5.56,14.75,2a
2019-07-15_143216:660,-0.49316400000000005,-0.051330999999999995,-0.023895,-0.006075,-0.0007830000000000001,0.001564,-39.369999,5.56,14.75,2a
2019-07-15_143216:680,-0.494171,-0.051330999999999995,-0.024384,-0.006075,-0.000722,0.00132,-39.75,5.56,14.25,2a
2019-07-15_143216:700,-0.496216,-0.05285599999999999,-0.022858,-0.006136,-0.0007830000000000001,0.001258,-39.75,5.56,14.25,2a
2019-07-15_143216:720,-0.496704,-0.053375,-0.024384,-0.006075,-0.000508,0.001625,-40.18,6.0,14.75,2a
2019-07-15_143216:740,-0.49926800000000005,-0.05285599999999999,-0.022369,-0.0058,-5e-05,0.001442,-40.18,6.0,14.75,2a
2019-07-15_143216:760,-0.49926800000000005,-0.053375,-0.021332,-0.005678,0.000346,0.001106,-40.18,6.0,14.75,2a
2019-07-15_143216:780,-0.496216,-0.055389,-0.021851,-0.005282,0.0010789999999999999,0.0007700000000000001,-39.75,6.0,14.0,2a
2019-07-15_143216:800,-0.49468999999999996,-0.054901,-0.023375999999999997,-0.0048850000000000005,0.001415,0.000465,-39.75,6.0,14.0,2a
2019-07-15_143216:820,-0.49517799999999995,-0.054901,-0.023375999999999997,-0.004336,0.00114,0.000221,-39.369999,6.0,14.75,2a
2019-07-15_143216:840,-0.492645,-0.053375,-0.021851,-0.003939,0.0008960000000000001,0.000465,-39.369999,6.0,14.75,2a
2019-07-15_143216:860,-0.49365200000000004,-0.053375,-0.024384,-0.003664,0.0008960000000000001,0.000709,-39.369999,6.0,14.75,2a
2019-07-15_143216:880,-0.492645,-0.05285599999999999,-0.023895,-0.003664,0.000865,-0.000176,-39.75,5.56,14.0,2a
2019-07-15_143216:900,-0.492645,-0.051849,-0.024384,-0.0034509999999999996,0.000285,-5.4000000000000005e-05,-39.75,5.56,14.0,2a
2019-07-15_143216:920,-0.491638,-0.05285599999999999,-0.025421,-0.0033280000000000002,-0.000264,0.000129,-39.369999,6.68,14.25,2a
2019-07-15_143216:940,-0.49468999999999996,-0.053375,-0.024902,-0.003512,-0.0009050000000000001,-0.00011499999999999999,-39.369999,6.68,14.25,2a
2019-07-15_143216:960,-0.497742,-0.053375,-0.025421,-0.003237,-0.0007830000000000001,-0.000389,-39.369999,6.68,14.25,2a
2019-07-15_143216:980,-0.49975600000000003,-0.052338,-0.025421,-0.0032979999999999997,-0.000172,-0.000908,-39.75,5.56,15.5,2a
2019-07-15_143217:000,-0.49823,-0.051330999999999995,-0.025908999999999998,-0.0031149999999999997,0.000682,-0.001397,-39.75,5.56,15.5,2a
2019-07-15_143217:020,-0.496704,-0.051330999999999995,-0.027435,-0.0031149999999999997,0.00114,-0.001458,-39.75,5.56,14.0,2a
2019-07-15_143217:040,-0.49468999999999996,-0.049805,-0.025908999999999998,-0.0029010000000000004,0.0012619999999999999,-0.00158,-39.75,5.56,14.0,2a
2019-07-15_143217:060,-0.49468999999999996,-0.048798,-0.027435,-0.002657,0.001415,-0.001702,-39.75,5.56,14.0,2a
2019-07-15_143217:080,-0.49517799999999995,-0.048798,-0.028442000000000002,-0.002535,0.001598,-0.0013050000000000002,-39.060001,5.56,15.87,2a
2019-07-15_143217:100,-0.49517799999999995,-0.047791,-0.027954000000000003,-0.0025050000000000003,0.001415,-0.001183,-39.060001,5.56,15.87,2a
2019-07-15_143217:120,-0.494171,-0.046752999999999996,-0.027435,-0.002718,0.001353,-0.0011220000000000002,-39.369999,6.25,14.25,2a
2019-07-15_143217:140,-0.494171,-0.046265,-0.026427999999999997,-0.002993,0.001353,-0.0010609999999999999,-39.369999,6.25,14.25,2a
2019-07-15_143217:160,-0.49517799999999995,-0.045745999999999995,-0.026917,-0.0033280000000000002,0.001201,-0.0011220000000000002,-39.369999,6.25,14.25,2a
2019-07-15_143217:180,-0.497742,-0.045226999999999996,-0.026917,-0.0036950000000000004,0.001415,-0.001,-39.060001,5.56,14.25,2a
2019-07-15_143217:200,-0.496704,-0.046265,-0.025908999999999998,-0.003878,0.001628,-0.000786,-39.060001,5.56,14.25,2a
2019-07-15_143217:220,-0.495697,-0.045226999999999996,-0.025908999999999998,-0.004091,0.001842,-0.0008470000000000001,-39.369999,6.0,14.0,2a
2019-07-15_143217:240,-0.49365200000000004,-0.045226999999999996,-0.026427999999999997,-0.004213000000000001,0.001628,-0.001,-39.369999,6.0,14.0,2a
2019-07-15_143217:260,-0.492645,-0.045745999999999995,-0.026427999999999997,-0.004275,0.001537,-0.001,-39.369999,6.0,14.0,2a
2019-07-15_143217:280,-0.492645,-0.046265,-0.028961,-0.004152,0.001292,-0.001366,-40.18,5.56,15.5,2a
2019-07-15_143217:300,-0.496216,-0.046752999999999996,-0.026917,-0.0036950000000000004,0.000865,-0.0019149999999999998,-40.18,5.56,15.5,2a
2019-07-15_143217:320,-0.497742,-0.045745999999999995,-0.027435,-0.002993,0.0009570000000000001,-0.001854,-39.369999,5.18,14.0,2a
2019-07-15_143217:340,-0.498749,-0.045745999999999995,-0.027435,-0.002382,0.001353,-0.001366,-39.369999,5.18,14.0,2a
2019-07-15_143217:360,-0.498749,-0.043701,-0.024902,-0.0021079999999999996,0.001964,-0.001,-39.369999,5.18,14.0,2a
2019-07-15_143217:380,-0.494171,-0.041687,-0.026427999999999997,-0.0022600000000000003,0.002391,0.000496,-40.18,6.0,14.75,2a
2019-07-15_143217:400,-0.49722299999999997,-0.042694,-0.026427999999999997,-0.002718,0.002391,0.001258,-40.18,6.0,14.75,2a
2019-07-15_143217:420,-0.494171,-0.041168,-0.026427999999999997,-0.003176,0.0024519999999999998,-0.00011499999999999999,-39.369999,4.75,13.56,2a
2019-07-15_143217:440,-0.49365200000000004,-0.041168,-0.026427999999999997,-0.003878,0.0019030000000000002,-0.000512,-39.369999,4.75,13.56,2a
2019-07-15_143217:460,-0.492645,-0.042175,-0.025421,-0.004336,0.0016589999999999999,0.000526,-39.369999,4.75,13.56,2a
2019-07-15_143217:480,-0.49316400000000005,-0.043701,-0.028442000000000002,-0.004824,0.0014759999999999999,0.000343,-39.75,6.0,15.06,2a
2019-07-15_143217:500,-0.494171,-0.044219999999999995,-0.026917,-0.004946,0.000865,-0.000176,-39.75,6.0,15.06,2a
2019-07-15_143217:520,-0.49468999999999996,-0.044219999999999995,-0.026917,-0.004732,0.0008960000000000001,-0.000176,-39.369999,5.56,14.75,2a
2019-07-15_143217:540,-0.498749,-0.046265,-0.024384,-0.004397,0.00114,0.000465,-39.369999,5.56,14.75,2a
2019-07-15_143217:560,-0.498749,-0.046752999999999996,-0.025421,-0.003817,0.001628,0.000984,-39.369999,5.56,14.75,2a
2019-07-15_143217:580,-0.49823,-0.045745999999999995,-0.024384,-0.003237,0.002116,0.000984,-40.18,6.0,14.75,2a
2019-07-15_143217:600,-0.49722299999999997,-0.045226999999999996,-0.024384,-0.003054,0.002391,0.000831,-40.18,6.0,14.75,2a
2019-07-15_143217:620,-0.49468999999999996,-0.043701,-0.024902,-0.0029010000000000004,0.002757,0.000923,-40.560001,5.56,14.0,2a
2019-07-15_143217:640,-0.492126,-0.043213,-0.024384,-0.0033280000000000002,0.002391,0.0007700000000000001,-40.560001,5.56,14.0,2a
2019-07-15_143217:660,-0.49517799999999995,-0.043213,-0.024384,-0.003664,0.0017809999999999998,0.0008619999999999999,-40.560001,5.56,14.0,2a
2019-07-15_143217:680,-0.492645,-0.043701,-0.024384,-0.004091,0.0017809999999999998,0.000984,-40.18,5.18,14.25,2a
2019-07-15_143217:700,-0.494171,-0.044219999999999995,-0.023895,-0.004397,0.001598,0.000587,-40.18,5.18,14.25,2a
2019-07-15_143217:720,-0.49365200000000004,-0.044739,-0.025908999999999998,-0.004488000000000001,0.001201,0.00028199999999999997,-40.560001,6.25,14.0,2a
2019-07-15_143217:740,-0.49365200000000004,-0.045745999999999995,-0.026427999999999997,-0.004336,0.0009570000000000001,0.000526,-40.560001,6.25,14.0,2a
2019-07-15_143217:760,-0.49468999999999996,-0.046265,-0.025421,-0.004275,0.000621,0.000709,-40.560001,6.25,14.0,2a
2019-07-15_143217:780,-0.495697,-0.047791,-0.026917,-0.003878,0.000468,0.000648,-40.18,5.56,14.75,2a
2019-07-15_143217:800,-0.49823,-0.046752999999999996,-0.027954000000000003,-0.00339,0.000468,0.000648,-40.18,5.56,14.75,2a
2019-07-15_143217:820,-0.497742,-0.045745999999999995,-0.026917,-0.003054,0.001018,0.000709,-40.869999,5.18,12.75,2a
2019-07-15_143217:840,-0.495697,-0.045745999999999995,-0.026427999999999997,-0.0029010000000000004,0.001353,0.000526,-40.869999,5.18,12.75,2a
2019-07-15_143217:860,-0.49468999999999996,-0.043701,-0.028442000000000002,-0.002718,0.001537,0.000496,-40.869999,5.18,12.75,2a
2019-07-15_143217:880,-0.495697,-0.043701,-0.026427999999999997,-0.002718,0.0014759999999999999,0.000526,-40.18,6.0,14.25,2a
2019-07-15_143217:900,-0.494171,-0.043701,-0.026427999999999997,-0.002718,0.0014759999999999999,-5.4000000000000005e-05,-40.18,6.0,14.25,2a
2019-07-15_143217:920,-0.495697,-0.043213,-0.026917,-0.002779,0.001353,0.000465,-39.369999,6.0,15.06,2a
2019-07-15_143217:940,-0.49365200000000004,-0.043213,-0.026917,-0.002993,0.001598,0.0008619999999999999,-39.369999,6.0,15.06,2a
2019-07-15_143217:960,-0.495697,-0.042694,-0.028442000000000002,-0.0032979999999999997,0.001598,0.000923,-39.369999,6.0,15.06,2a
2019-07-15_143217:980,-0.49517799999999995,-0.043213,-0.026917,-0.0034509999999999996,0.001598,0.001106,-39.369999,5.56,14.25,2a
2019-07-15_143218:000,-0.495697,-0.043213,-0.027435,-0.0037560000000000002,0.001628,0.001106,-39.369999,5.56,14.25,2a
2019-07-15_143218:020,-0.495697,-0.044739,-0.027435,-0.00403,0.0016589999999999999,0.00132,-39.75,4.75,14.25,2a
2019-07-15_143218:040,-0.496704,-0.044739,-0.026427999999999997,-0.004397,0.001842,0.001381,-39.75,4.75,14.25,2a
2019-07-15_143218:060,-0.495697,-0.046265,-0.026427999999999997,-0.00461,0.001994,0.000923,-39.75,4.75,14.25,2a
2019-07-15_143218:080,-0.495697,-0.046265,-0.025908999999999998,-0.004488000000000001,0.002239,0.000831,-40.18,5.18,14.25,2a
2019-07-15_143218:100,-0.495697,-0.045745999999999995,-0.025908999999999998,-0.004397,0.002239,0.0008619999999999999,-40.18,5.18,14.25,2a
2019-07-15_143218:120,-0.494171,-0.046265,-0.026427999999999997,-0.004336,0.002239,0.000923,-39.060001,6.0,14.0,2a
2019-07-15_143218:140,-0.492645,-0.046265,-0.025908999999999998,-0.00403,0.001964,0.000984,-39.060001,6.0,14.0,2a
2019-07-15_143218:160,-0.494171,-0.045226999999999996,-0.027435,-0.003939,0.0016589999999999999,0.000831,-39.060001,6.0,14.0,2a
2019-07-15_143218:180,-0.49468999999999996,-0.045226999999999996,-0.026427999999999997,-0.0037560000000000002,0.0016589999999999999,0.000923,-39.369999,5.56,14.75,2a
2019-07-15_143218:200,-0.496704,-0.046752999999999996,-0.025421,-0.0036950000000000004,0.001353,0.000709,-39.369999,5.56,14.75,2a
2019-07-15_143218:220,-0.49517799999999995,-0.047272,-0.026427999999999997,-0.0034509999999999996,0.001292,0.000984,-39.75,5.18,14.75,2a
2019-07-15_143218:240,-0.496704,-0.045745999999999995,-0.024902,-0.002932,0.0017809999999999998,0.001228,-39.75,5.18,14.75,2a
2019-07-15_143218:260,-0.497742,-0.045226999999999996,-0.023375999999999997,-0.003054,0.002177,0.001228,-39.75,5.18,14.75,2a
2019-07-15_143218:280,-0.49468999999999996,-0.045226999999999996,-0.024384,-0.0032979999999999997,0.002361,0.0029059999999999997,-39.060001,6.0,14.75,2a
2019-07-15_143218:300,-0.495697,-0.047791,-0.025908999999999998,-0.003878,0.001994,0.00309,-39.060001,6.0,14.75,2a
2019-07-15_143218:320,-0.492645,-0.046752999999999996,-0.026917,-0.004275,0.0016589999999999999,0.000984,-39.75,6.0,14.75,2a
2019-07-15_143218:340,-0.491638,-0.046265,-0.026427999999999997,-0.004488000000000001,0.00114,0.000984,-39.75,6.0,14.75,2a
2019-07-15_143218:360,-0.492645,-0.048798,-0.027954000000000003,-0.004824,0.000743,0.001625,-39.75,6.0,14.75,2a
2019-07-15_143218:380,-0.492126,-0.049316000000000006,-0.027435,-0.004946,0.000468,0.000831,-40.18,6.0,14.25,2a
2019-07-15_143218:400,-0.49517799999999995,-0.049316000000000006,-0.026917,-0.004549,0.000468,0.000587,-40.18,6.0,14.25,2a
2019-07-15_143218:420,-0.497742,-0.049805,-0.027435,-0.004336,0.0008960000000000001,0.000343,-39.369999,6.68,15.06,2a
2019-07-15_143218:440,-0.49722299999999997,-0.050323,-0.025908999999999998,-0.004091,0.0009570000000000001,0.000526,-39.369999,6.68,15.06,2a
2019-07-15_143218:460,-0.498749,-0.049805,-0.027954000000000003,-0.00339,0.001415,0.00132,-39.369999,6.68,15.06,2a
2019-07-15_143218:480,-0.498749,-0.049805,-0.026427999999999997,-0.003176,0.0019030000000000002,0.001381,-39.060001,6.0,13.56,2a
2019-07-15_143218:500,-0.496216,-0.049316000000000006,-0.026427999999999997,-0.002657,0.002361,0.001167,-39.060001,6.0,13.56,2a
2019-07-15_143218:520,-0.492126,-0.048798,-0.026917,-0.002779,0.002574,0.001106,-39.369999,5.18,14.75,2a
2019-07-15_143218:540,-0.49365200000000004,-0.047791,-0.024384,-0.0028399999999999996,0.002055,0.000984,-39.369999,5.18,14.75,2a
2019-07-15_143218:560,-0.49365200000000004,-0.047272,-0.025421,-0.003054,0.001842,0.001228,-39.369999,5.18,14.75,2a
2019-07-15_143218:580,-0.496216,-0.047791,-0.024902,-0.0032979999999999997,0.0016589999999999999,0.001625,-39.369999,5.56,13.56,2a
2019-07-15_143218:600,-0.49316400000000005,-0.049316000000000006,-0.024902,-0.0036340000000000005,0.001994,0.000648,-39.369999,5.56,13.56,2a
2019-07-15_143218:620,-0.494171,-0.050323,-0.025908999999999998,-0.003512,0.001964,0.000343,-40.18,6.0,14.25,2a
2019-07-15_143218:640,-0.49517799999999995,-0.048798,-0.024384,-0.003664,0.001842,0.001503,-40.18,6.0,14.25,2a
2019-07-15_143218:660,-0.49468999999999996,-0.049316000000000006,-0.027954000000000003,-0.003817,0.00172,0.001258,-40.18,6.0,14.25,2a
2019-07-15_143218:680,-0.496704,-0.049316000000000006,-0.026427999999999997,-0.0037560000000000002,0.001628,0.000984,-39.060001,6.25,14.0,2a
2019-07-15_143218:700,-0.49468999999999996,-0.049316000000000006,-0.025908999999999998,-0.0037560000000000002,0.0019030000000000002,0.0008619999999999999,-39.060001,6.25,14.0,2a
2019-07-15_143218:720,-0.49468999999999996,-0.050323,-0.027954000000000003,-0.003939,0.002116,0.0007700000000000001,-39.75,6.68,14.25,2a
2019-07-15_143218:740,-0.495697,-0.049805,-0.025421,-0.0036950000000000004,0.001994,0.000526,-39.75,6.68,14.25,2a
2019-07-15_143218:760,-0.495697,-0.050323,-0.025908999999999998,-0.003512,0.002177,0.000496,-39.75,6.68,14.25,2a
2019-07-15_143218:780,-0.495697,-0.049316000000000006,-0.024902,-0.00339,0.0023,0.000526,-39.369999,5.56,14.0,2a
2019-07-15_143218:800,-0.495697,-0.049805,-0.025421,-0.0028399999999999996,0.002361,0.000923,-39.369999,5.56,14.0,2a
2019-07-15_143218:820,-0.495697,-0.048279,-0.025421,-0.002779,0.002635,0.001381,-39.75,6.0,13.06,2a
2019-07-15_143218:840,-0.495697,-0.049316000000000006,-0.022369,-0.0025960000000000002,0.002391,0.001716,-39.75,6.0,13.06,2a
2019-07-15_143218:860,-0.496216,-0.048798,-0.023895,-0.0028399999999999996,0.002757,0.001991,-39.75,6.0,13.06,2a
2019-07-15_143218:880,-0.49468999999999996,-0.048279,-0.023375999999999997,-0.003237,0.002757,0.0018989999999999999,-39.369999,5.18,14.0,2a
2019-07-15_143218:900,-0.49468999999999996,-0.047791,-0.022858,-0.003512,0.002574,0.002052,-39.369999,5.18,14.0,2a
2019-07-15_143218:920,-0.49517799999999995,-0.049805,-0.022369,-0.004091,0.002574,0.00196,-38.369999,6.25,15.06,2a
2019-07-15_143218:940,-0.496704,-0.050842,-0.021851,-0.004397,0.002574,0.001625,-38.369999,6.25,15.06,2a
2019-07-15_143218:960,-0.495697,-0.050842,-0.022858,-0.00461,0.002696,0.001503,-38.369999,6.25,15.06,2a
2019-07-15_143218:980,-0.496216,-0.051849,-0.022858,-0.004671,0.002849,0.001258,-39.75,5.56,15.5,2a
2019-07-15_143219:000,-0.49468999999999996,-0.052338,-0.023895,-0.00461,0.003246,0.00132,-39.75,5.56,15.5,2a
2019-07-15_143219:020,-0.490601,-0.053863999999999995,-0.019806,-0.00461,0.002696,0.001258,-39.75,6.0,14.25,2a
2019-07-15_143219:040,-0.49365200000000004,-0.053863999999999995,-0.020844,-0.004152,0.002361,0.0008619999999999999,-39.75,6.0,14.25,2a
2019-07-15_143219:060,-0.49365200000000004,-0.053375,-0.021332,-0.003878,0.001994,0.0008619999999999999,-39.75,6.0,14.25,2a
2019-07-15_143219:080,-0.49365200000000004,-0.053863999999999995,-0.022369,-0.003573,0.001994,0.0008619999999999999,-39.369999,6.0,15.5,2a
2019-07-15_143219:100,-0.49468999999999996,-0.05285599999999999,-0.020325,-0.0033280000000000002,0.002391,0.000496,-39.369999,6.0,15.5,2a
2019-07-15_143219:120,-0.49722299999999997,-0.050323,-0.020325,-0.0036340000000000005,0.002757,0.001991,-40.18,6.0,14.0,2a
2019-07-15_143219:140,-0.49722299999999997,-0.050842,-0.020844,-0.00403,0.003032,0.002571,-40.18,6.0,14.0,2a
2019-07-15_143219:160,-0.49468999999999996,-0.053375,-0.021332,-0.004549,0.002971,0.000984,-40.18,6.0,14.0,2a
2019-07-15_143219:180,-0.49365200000000004,-0.052338,-0.020844,-0.0048850000000000005,0.002635,0.000343,-39.75,6.0,15.5,2a
2019-07-15_143219:200,-0.491638,-0.05285599999999999,-0.021332,-0.005068,0.002116,0.001167,-39.75,6.0,15.5,2a
2019-07-15_143219:220,-0.492126,-0.053863999999999995,-0.021851,-0.005465,0.0019030000000000002,0.0007700000000000001,-39.369999,6.0,14.25,2a
2019-07-15_143219:240,-0.492645,-0.053375,-0.020325,-0.005221,0.0016589999999999999,0.000496,-39.369999,6.0,14.25,2a
2019-07-15_143219:260,-0.49468999999999996,-0.05438200000000001,-0.021851,-0.0048850000000000005,0.0014759999999999999,0.000404,-39.369999,6.0,14.25,2a
2019-07-15_143219:280,-0.496216,-0.05438200000000001,-0.020325,-0.004793,0.001628,0.000221,-39.369999,6.0,15.06,2a
2019-07-15_143219:300,-0.49926800000000005,-0.054901,-0.018799,-0.004336,0.001842,0.000526,-39.369999,6.0,15.06,2a
2019-07-15_143219:320,-0.498749,-0.054901,-0.021332,-0.0037560000000000002,0.002239,0.0007700000000000001,-40.18,6.68,13.56,2a
2019-07-15_143219:340,-0.497742,-0.053863999999999995,-0.019806,-0.003573,0.002849,0.000709,-40.18,6.68,13.56,2a
2019-07-15_143219:360,-0.49517799999999995,-0.053863999999999995,-0.019806,-0.003176,0.003124,0.000923,-40.18,6.68,13.56,2a
2019-07-15_143219:380,-0.491638,-0.052338,-0.019318000000000002,-0.003176,0.0029100000000000003,0.000923,-39.75,6.25,15.06,2a
2019-07-15_143219:400,-0.49316400000000005,-0.052338,-0.018799,-0.003237,0.002574,0.000648,-39.75,6.25,15.06,2a
2019-07-15_143219:420,-0.492645,-0.051330999999999995,-0.01828,-0.003512,0.0024519999999999998,0.00132,-39.369999,7.0,15.06,2a
2019-07-15_143219:440,-0.495697,-0.052338,-0.01828,-0.0037560000000000002,0.002239,0.001106,-39.369999,7.0,15.06,2a
2019-07-15_143219:460,-0.494171,-0.050323,-0.019318000000000002,-0.0037560000000000002,0.002239,-0.000176,-39.369999,7.0,15.06,2a
2019-07-15_143219:480,-0.49468999999999996,-0.051849,-0.019318000000000002,-0.0036950000000000004,0.002239,0.000709,-40.18,6.25,14.25,2a
2019-07-15_143219:500,-0.49365200000000004,-0.05285599999999999,-0.019318000000000002,-0.0037560000000000002,0.00172,0.001564,-40.18,6.25,14.25,2a
2019-07-15_143219:520,-0.49365200000000004,-0.051849,-0.019318000000000002,-0.003878,0.001598,0.001655,-40.18,7.0,14.75,2a
2019-07-15_143219:540,-0.495697,-0.05285599999999999,-0.019318000000000002,-0.00403,0.001628,0.001991,-40.18,7.0,14.75,2a
2019-07-15_143219:560,-0.496216,-0.051849,-0.019806,-0.003939,0.001842,0.001838,-40.18,7.0,14.75,2a
2019-07-15_143219:580,-0.496216,-0.053375,-0.019318000000000002,-0.004397,0.0019030000000000002,0.001503,-39.369999,6.25,14.75,2a
2019-07-15_143219:600,-0.496216,-0.054901,-0.020325,-0.00461,0.001994,0.00132,-39.369999,6.25,14.75,2a
2019-07-15_143219:620,-0.49517799999999995,-0.055389,-0.021332,-0.004732,0.002055,0.001045,-40.560001,6.68,15.5,2a
2019-07-15_143219:640,-0.49517799999999995,-0.055389,-0.018799,-0.004793,0.002361,0.000831,-40.560001,6.68,15.5,2a
2019-07-15_143219:660,-0.497742,-0.055389,-0.017792,-0.004732,0.002696,0.000648,-40.560001,6.68,15.5,2a
2019-07-15_143219:680,-0.500275,-0.055389,-0.01828,-0.004793,0.0031850000000000003,0.000526,-39.060001,7.0,15.06,2a
2019-07-15_143219:700,-0.502319,-0.05285599999999999,-0.016266,-0.005678,0.004314,0.000831,-39.060001,7.0,15.06,2a
2019-07-15_143219:720,-0.501801,-0.053375,-0.016753999999999998,-0.0069299999999999995,0.005504,0.000526,-39.369999,7.0,14.75,2a
2019-07-15_143219:740,-0.49926800000000005,-0.055389,-0.017792,-0.007784,0.006541,0.00028199999999999997,-39.369999,7.0,14.75,2a
2019-07-15_143219:760,-0.49823,-0.055908000000000006,-0.01828,-0.00812,0.007365000000000001,0.000404,-39.369999,7.0,14.75,2a
2019-07-15_143219:780,-0.497742,-0.058441,-0.01828,-0.007662,0.007548999999999999,6.8e-05,-39.75,6.25,15.5,2a
2019-07-15_143219:800,-0.495697,-0.059479,-0.015747,-0.007143000000000001,0.008159,0.00028199999999999997,-39.75,6.25,15.5,2a
2019-07-15_143219:820,-0.496216,-0.058960000000000005,-0.015228,-0.0066549999999999995,0.008159,0.0007700000000000001,-39.060001,7.37,15.87,2a
2019-07-15_143219:840,-0.492645,-0.058441,-0.014221000000000001,-0.006411,0.007823,0.001258,-39.060001,7.37,15.87,2a
2019-07-15_143219:860,-0.48858599999999996,-0.057434000000000006,-0.013213999999999998,-0.006197,0.007304000000000001,0.001564,-39.060001,7.37,15.87,2a
2019-07-15_143219:880,-0.489594,-0.057953,-0.012695,-0.006075,0.006633,0.001381,-38.68,6.68,16.25,2a
2019-07-15_143219:900,-0.490112,-0.057953,-0.009644,-0.005922,0.005565,0.000465,-38.68,6.68,16.25,2a
2019-07-15_143219:920,-0.490112,-0.056915,-0.010162000000000001,-0.005556,0.004894,-0.000267,-39.369999,6.18,16.68,2a
2019-07-15_143219:940,-0.49316400000000005,-0.056915,-0.007599,-0.005404,0.004375,-0.000573,-39.369999,6.18,16.68,2a
2019-07-15_143219:960,-0.494171,-0.056915,-0.008118,-0.004946,0.004161,-0.0008470000000000001,-39.369999,6.18,16.68,2a
2019-07-15_143219:980,-0.49722299999999997,-0.05438200000000001,-0.006072999999999999,-0.004824,0.0041,-0.000176,-38.75,6.56,16.68,2a
2019-07-15_143220:000,-0.49517799999999995,-0.05438200000000001,-0.004059,-0.005007,0.004039,0.001258,-38.75,6.56,16.68,2a
2019-07-15_143220:020,-0.49722299999999997,-0.056915,-0.004547,-0.005129,0.004161,0.001228,-39.18,6.56,16.25,2a
2019-07-15_143220:040,-0.49468999999999996,-0.056915,-0.004547,-0.005007,0.003825,-0.000512,-39.18,6.56,16.25,2a
2019-07-15_143220:060,-0.490112,-0.054901,-0.004059,-0.004671,0.003246,-0.000573,-39.18,6.56,16.25,2a
2019-07-15_143220:080,-0.490112,-0.055389,-0.004547,-0.004793,0.002757,-0.000573,-39.18,6.56,16.25,2a
2019-07-15_143220:100,-0.492126,-0.054901,-0.0035399999999999997,-0.004732,0.002177,-0.001,-39.18,6.56,16.25,2a
2019-07-15_143220:120,-0.492126,-0.056427,-0.004547,-0.004336,0.00172,-0.0013050000000000002,-39.18,6.56,15.87,2a
2019-07-15_143220:140,-0.494171,-0.05438200000000001,-0.0030210000000000002,-0.004091,0.001628,-0.001519,-39.18,6.56,15.87,2a
2019-07-15_143220:160,-0.49468999999999996,-0.05438200000000001,-0.0035399999999999997,-0.003878,0.001292,-0.001458,-39.18,6.56,15.87,2a
2019-07-15_143220:180,-0.497742,-0.053863999999999995,-0.0025329999999999997,-0.0037560000000000002,0.001628,-0.0012439999999999999,-39.18,7.37,16.68,2a
2019-07-15_143220:200,-0.49823,-0.053863999999999995,-0.002014,-0.003512,0.001842,-0.001183,-39.18,7.37,16.68,2a
2019-07-15_143220:220,-0.498749,-0.05285599999999999,-0.000488,-0.003237,0.0024519999999999998,-0.0011220000000000002,-38.5,6.18,15.87,2a
2019-07-15_143220:240,-0.496704,-0.051849,-0.001495,-0.0031149999999999997,0.002574,-0.0010609999999999999,-38.5,6.18,15.87,2a
2019-07-15_143220:260,-0.49365200000000004,-0.050842,-0.0025329999999999997,-0.002993,0.002513,-0.000786,-38.5,6.18,15.87,2a
2019-07-15_143220:280,-0.49468999999999996,-0.050842,-0.0035399999999999997,-0.003054,0.002361,-0.00045099999999999996,-38.75,6.68,15.87,2a
2019-07-15_143220:300,-0.49365200000000004,-0.050323,-0.000488,-0.0031149999999999997,0.002391,-0.000328,-38.75,6.68,15.87,2a
2019-07-15_143220:320,-0.49517799999999995,-0.051330999999999995,-0.002014,-0.0031149999999999997,0.002177,-0.00023700000000000001,-38.68,6.25,17.870001000000002,2a
2019-07-15_143220:340,-0.494171,-0.049805,-0.0025329999999999997,-0.0033280000000000002,0.001964,-0.000725,-38.68,6.25,17.870001000000002,2a
2019-07-15_143220:360,-0.492645,-0.049805,-0.0025329999999999997,-0.003512,0.001415,-0.000512,-38.68,6.25,17.870001000000002,2a
2019-07-15_143220:380,-0.492645,-0.051330999999999995,-0.004059,-0.0037560000000000002,0.0008039999999999999,-0.000573,-38.68,6.25,16.25,2a
2019-07-15_143220:400,-0.494171,-0.051330999999999995,-0.002014,-0.003817,0.000621,-0.0008470000000000001,-38.68,6.25,16.25,2a
2019-07-15_143220:420,-0.496216,-0.051849,-0.004059,-0.0036950000000000004,0.000682,-0.000908,-38.369999,5.56,16.68,2a
2019-07-15_143220:440,-0.49722299999999997,-0.051849,-0.004547,-0.00339,0.000468,-0.0013050000000000002,-38.369999,5.56,16.68,2a
2019-07-15_143220:460,-0.496704,-0.050842,-0.004547,-0.003237,0.0009570000000000001,-0.001,-38.369999,5.56,16.68,2a
2019-07-15_143220:480,-0.496704,-0.051849,-0.005065999999999999,-0.0025960000000000002,0.0008960000000000001,-0.001,-38.75,6.25,15.87,2a
2019-07-15_143220:500,-0.495697,-0.050323,-0.0030210000000000002,-0.002382,0.0010789999999999999,-0.001,-38.75,6.25,15.87,2a
2019-07-15_143220:520,-0.496216,-0.049805,-0.004547,-0.002382,0.001292,-0.000908,-39.18,6.25,16.25,2a
2019-07-15_143220:540,-0.496216,-0.047791,-0.005065999999999999,-0.002169,0.001628,-0.000664,-39.18,6.25,16.25,2a
2019-07-15_143220:560,-0.495697,-0.046752999999999996,-0.005065999999999999,-0.002443,0.001598,-0.000389,-39.18,6.25,16.25,2a
2019-07-15_143220:580,-0.496704,-0.045226999999999996,-0.0055850000000000006,-0.002779,0.0016589999999999999,-0.00023700000000000001,-39.5,7.0,16.68,2a
2019-07-15_143220:600,-0.498749,-0.045745999999999995,-0.0030210000000000002,-0.0032979999999999997,0.001842,-0.000389,-39.5,7.0,16.68,2a
2019-07-15_143220:620,-0.49722299999999997,-0.045226999999999996,-0.0035399999999999997,-0.0036340000000000005,0.002239,-0.00045099999999999996,-39.5,6.25,16.25,2a
2019-07-15_143220:640,-0.495697,-0.045226999999999996,-0.0035399999999999997,-0.0036950000000000004,0.002361,-0.000573,-39.5,6.25,16.25,2a
2019-07-15_143220:660,-0.494171,-0.046752999999999996,-0.0035399999999999997,-0.0036950000000000004,0.002177,-0.000664,-39.5,6.25,16.25,2a
2019-07-15_143220:680,-0.49517799999999995,-0.046265,-0.004547,-0.0037560000000000002,0.001994,-0.000664,-38.75,6.68,15.87,2a
2019-07-15_143220:700,-0.49468999999999996,-0.046752999999999996,-0.0025329999999999997,-0.003817,0.001994,-0.000573,-38.75,6.68,15.87,2a
2019-07-15_143220:720,-0.495697,-0.047272,-0.0035399999999999997,-0.003664,0.002055,-0.00023700000000000001,-38.75,5.56,15.5,2a
2019-07-15_143220:740,-0.496216,-0.046752999999999996,-0.001495,-0.003664,0.001964,6.8e-05,-38.75,5.56,15.5,2a
2019-07-15_143220:760,-0.495697,-0.046752999999999996,-0.002014,-0.00339,0.001964,0.000343,-38.75,5.56,15.5,2a
2019-07-15_143220:780,-0.49517799999999995,-0.046265,-0.0025329999999999997,-0.0033280000000000002,0.001994,0.00028199999999999997,-38.5,6.25,16.25,2a
2019-07-15_143220:800,-0.49517799999999995,-0.046265,-0.001495,-0.00339,0.0017809999999999998,0.00016,-38.5,6.25,16.25,2a
2019-07-15_143220:820,-0.49365200000000004,-0.045226999999999996,-0.0025329999999999997,-0.0032979999999999997,0.001537,-0.00011499999999999999,-38.5,6.0,15.06,2a
2019-07-15_143220:840,-0.49365200000000004,-0.044739,-0.0030210000000000002,-0.0034509999999999996,0.001353,-0.000634,-38.5,6.0,15.06,2a
2019-07-15_143220:860,-0.495697,-0.044739,-0.001495,-0.0033280000000000002,0.001018,-0.000634,-38.5,6.0,15.06,2a
2019-07-15_143220:880,-0.495697,-0.045745999999999995,-0.004059,-0.0032979999999999997,0.001018,-0.000267,-38.75,5.18,16.68,2a
2019-07-15_143220:900,-0.49823,-0.044219999999999995,-0.0025329999999999997,-0.002932,0.00114,-0.00045099999999999996,-38.75,5.18,16.68,2a
2019-07-15_143220:920,-0.498749,-0.044219999999999995,-0.001495,-0.002993,0.001537,0.000221,-39.869999,5.56,16.68,2a
2019-07-15_143220:940,-0.49468999999999996,-0.043213,-0.0025329999999999997,-0.003176,0.0017809999999999998,0.001655,-39.869999,5.56,16.68,2a
2019-07-15_143220:960,-0.496216,-0.043701,-0.001007,-0.0034509999999999996,0.001415,0.00132,-39.869999,5.56,16.68,2a
2019-07-15_143220:980,-0.49365200000000004,-0.045226999999999996,-0.0030210000000000002,-0.0037560000000000002,0.0010789999999999999,7.000000000000001e-06,-39.18,6.0,15.5,2a
2019-07-15_143221:000,-0.492645,-0.044739,-0.004547,-0.0036950000000000004,0.000407,0.000496,-39.18,6.0,15.5,2a
2019-07-15_143221:020,-0.492645,-0.046752999999999996,-0.006072999999999999,-0.004,0.000407,0.001045,-39.18,6.0,16.25,2a
2019-07-15_143221:040,-0.490601,-0.047272,-0.0025329999999999997,-0.004091,0.000285,0.000648,-39.18,6.0,16.25,2a
2019-07-15_143221:060,-0.49316400000000005,-0.048798,-0.004547,-0.003878,1.1e-05,0.000648,-39.18,6.0,16.25,2a
2019-07-15_143221:080,-0.497742,-0.049805,-0.0055850000000000006,-0.0037560000000000002,-0.000172,0.000496,-39.5,6.25,17.059998999999998,2a
2019-07-15_143221:100,-0.49926800000000005,-0.050323,-0.0035399999999999997,-0.003054,0.000133,0.000221,-39.5,6.25,17.059998999999998,2a
2019-07-15_143221:120,-0.501282,-0.048798,-0.005065999999999999,-0.0025960000000000002,0.000499,0.000465,-39.5,6.25,17.059998999999998,2a
2019-07-15_143221:140,-0.500793,-0.049316000000000006,-0.004547,-0.001986,0.001537,0.000221,-39.18,6.25,15.06,2a
2019-07-15_143221:160,-0.497742,-0.047272,-0.0030210000000000002,-0.001772,0.002391,7.000000000000001e-06,-39.18,6.25,15.06,2a
2019-07-15_143221:180,-0.49365200000000004,-0.047272,-0.0055850000000000006,-0.0015890000000000001,0.002757,-0.000267,-39.060001,6.0,15.5,2a
2019-07-15_143221:200,-0.49365200000000004,-0.045745999999999995,-0.004059,-0.00165,0.002635,-0.000328,-39.060001,6.0,15.5,2a
2019-07-15_143221:220,-0.494171,-0.045745999999999995,-0.004547,-0.001375,0.0019030000000000002,-0.00023700000000000001,-39.060001,6.0,15.5,2a
2019-07-15_143221:240,-0.494171,-0.044739,-0.0035399999999999997,-0.0017109999999999998,0.001964,6.8e-05,-39.060001,6.0,16.68,2a
2019-07-15_143221:260,-0.49468999999999996,-0.043701,-0.004059,-0.0018030000000000001,0.001628,0.000129,-39.060001,6.0,16.68,2a
2019-07-15_143221:280,-0.495697,-0.043701,-0.004547,-0.0022600000000000003,0.00172,-0.000786,-39.060001,5.56,15.5,2a
2019-07-15_143221:300,-0.49468999999999996,-0.043213,-0.004059,-0.002718,0.001598,-0.000389,-39.060001,5.56,15.5,2a
2019-07-15_143221:320,-0.495697,-0.044219999999999995,-0.005065999999999999,-0.0031149999999999997,0.0009570000000000001,0.000343,-38.68,6.0,16.68,2a
2019-07-15_143221:340,-0.495697,-0.044739,-0.006592,-0.0034509999999999996,0.000865,-0.00011499999999999999,-38.68,6.0,16.68,2a
2019-07-15_143221:360,-0.497742,-0.044219999999999995,-0.004547,-0.0036950000000000004,0.0008960000000000001,-0.000634,-38.68,6.0,16.68,2a
2019-07-15_143221:380,-0.496704,-0.043701,-0.006072999999999999,-0.004,0.00114,-0.001,-38.68,5.56,15.87,2a
2019-07-15_143221:400,-0.495697,-0.044219999999999995,-0.004059,-0.004213000000000001,0.001018,-0.0010609999999999999,-38.68,5.56,15.87,2a
2019-07-15_143221:420,-0.496216,-0.045745999999999995,-0.006592,-0.004152,0.001018,-0.000786,-38.68,5.56,15.87,2a
2019-07-15_143221:440,-0.496216,-0.045226999999999996,-0.004059,-0.00403,0.0010789999999999999,-0.000725,-39.060001,5.18,15.06,2a
2019-07-15_143221:460,-0.497742,-0.045745999999999995,-0.006072999999999999,-0.003664,0.001353,-0.000573,-39.060001,5.18,15.06,2a
2019-07-15_143221:480,-0.495697,-0.044219999999999995,-0.005065999999999999,-0.0031149999999999997,0.001353,-0.000267,-39.18,6.0,15.87,2a
2019-07-15_143221:500,-0.49517799999999995,-0.043701,-0.0035399999999999997,-0.0029010000000000004,0.0012619999999999999,7.000000000000001e-06,-39.18,6.0,15.87,2a
2019-07-15_143221:520,-0.49517799999999995,-0.041168,-0.004547,-0.002443,0.001201,0.000343,-39.18,6.0,15.87,2a
2019-07-15_143221:540,-0.495697,-0.040649,-0.005065999999999999,-0.0025050000000000003,0.0010789999999999999,0.000709,-39.5,5.18,15.5,2a
2019-07-15_143221:560,-0.49722299999999997,-0.041168,-0.007111,-0.002932,0.000621,0.000923,-39.5,5.18,15.5,2a
2019-07-15_143221:580,-0.496704,-0.040649,-0.0055850000000000006,-0.0033280000000000002,0.000865,0.0008619999999999999,-39.18,5.56,16.68,2a
2019-07-15_143221:600,-0.496704,-0.041687,-0.004547,-0.003817,0.0009570000000000001,0.0008619999999999999,-39.18,5.56,16.68,2a
2019-07-15_143221:620,-0.49722299999999997,-0.042694,-0.005065999999999999,-0.004091,0.0012619999999999999,0.000831,-39.18,5.56,16.68,2a
2019-07-15_143221:640,-0.496704,-0.044219999999999995,-0.0055850000000000006,-0.004275,0.001201,0.0007700000000000001,-39.18,5.18,15.06,2a
2019-07-15_143221:660,-0.49517799999999995,-0.044219999999999995,-0.006072999999999999,-0.004,0.0012619999999999999,0.000709,-39.18,5.18,15.06,2a
2019-07-15_143221:680,-0.495697,-0.044739,-0.0055850000000000006,-0.003664,0.001353,0.000831,-38.75,5.18,15.06,2a
2019-07-15_143221:700,-0.496216,-0.045226999999999996,-0.005065999999999999,-0.003664,0.001292,0.000526,-38.75,5.18,15.06,2a
2019-07-15_143221:720,-0.495697,-0.043213,-0.0055850000000000006,-0.0033280000000000002,0.0014759999999999999,0.000343,-38.75,5.18,15.06,2a
2019-07-15_143221:740,-0.49468999999999996,-0.043701,-0.007599,-0.0033280000000000002,0.001292,0.000221,-39.869999,5.56,15.5,2a
2019-07-15_143221:760,-0.49468999999999996,-0.043701,-0.006072999999999999,-0.0033280000000000002,0.001292,0.000404,-39.869999,5.56,15.5,2a
2019-07-15_143221:780,-0.49517799999999995,-0.041687,-0.006072999999999999,-0.003512,0.0008960000000000001,0.000343,-39.18,6.0,15.87,2a
2019-07-15_143221:800,-0.496704,-0.043701,-0.006072999999999999,-0.00339,0.000682,0.000404,-39.18,6.0,15.87,2a
2019-07-15_143221:820,-0.496704,-0.044219999999999995,-0.007599,-0.0034509999999999996,0.000865,0.0007700000000000001,-39.18,6.0,15.87,2a
2019-07-15_143221:840,-0.496216,-0.043213,-0.005065999999999999,-0.003237,0.001353,0.000465,-39.18,5.56,16.25,2a
2019-07-15_143221:860,-0.498749,-0.043213,-0.0055850000000000006,-0.0032979999999999997,0.001842,0.001716,-39.18,5.56,16.25,2a
2019-07-15_143221:880,-0.496704,-0.043213,-0.0055850000000000006,-0.00339,0.002055,0.003242,-39.5,5.56,15.5,2a
2019-07-15_143221:900,-0.49722299999999997,-0.045226999999999996,-0.006072999999999999,-0.0036340000000000005,0.0017809999999999998,0.002388,-39.5,5.56,15.5,2a
2019-07-15_143221:920,-0.49316400000000005,-0.044739,-0.006072999999999999,-0.003878,0.001628,0.000923,-39.5,5.56,15.5,2a
2019-07-15_143221:940,-0.492645,-0.043213,-0.007111,-0.003878,0.0009570000000000001,0.001716,-38.75,5.56,17.059998999999998,2a
2019-07-15_143221:960,-0.49316400000000005,-0.044739,-0.007599,-0.004275,0.000468,0.001655,-38.75,5.56,17.059998999999998,2a
2019-07-15_143221:980,-0.49468999999999996,-0.044739,-0.008118,-0.00461,0.00056,0.0008619999999999999,-38.75,5.18,15.87,2a
2019-07-15_143222:000,-0.496216,-0.046265,-0.006072999999999999,-0.004732,0.00056,0.000648,-38.75,5.18,15.87,2a
2019-07-15_143222:020,-0.497742,-0.046265,-0.008636,-0.00461,0.0008960000000000001,0.000526,-38.75,5.18,15.87,2a
2019-07-15_143222:040,-0.498749,-0.048279,-0.008118,-0.004152,0.0008039999999999999,0.000923,-39.18,5.56,15.87,2a
2019-07-15_143222:060,-0.49975600000000003,-0.047791,-0.007599,-0.003817,0.0012619999999999999,0.001045,-39.18,5.56,15.87,2a
2019-07-15_143222:080,-0.498749,-0.048279,-0.005065999999999999,-0.003512,0.0016589999999999999,0.001045,-39.18,6.0,16.68,2a
2019-07-15_143222:100,-0.497742,-0.046752999999999996,-0.006592,-0.0029010000000000004,0.002239,0.001045,-39.18,6.0,16.68,2a
2019-07-15_143222:120,-0.494171,-0.046752999999999996,-0.007111,-0.002657,0.0024519999999999998,0.000984,-39.18,6.0,16.68,2a
2019-07-15_143222:140,-0.49517799999999995,-0.045226999999999996,-0.006072999999999999,-0.002443,0.002391,0.001258,-38.5,5.56,15.5,2a
2019-07-15_143222:160,-0.49468999999999996,-0.043701,-0.006072999999999999,-0.002443,0.001994,0.001991,-38.5,5.56,15.5,2a
2019-07-15_143222:180,-0.496216,-0.044739,-0.006072999999999999,-0.002932,0.002055,0.001838,-39.18,5.56,16.68,2a
2019-07-15_143222:200,-0.49468999999999996,-0.045745999999999995,-0.006072999999999999,-0.0032979999999999997,0.001964,0.000831,-39.18,5.56,16.68,2a
2019-07-15_143222:220,-0.49517799999999995,-0.043701,-0.006072999999999999,-0.0036340000000000005,0.0019030000000000002,0.001625,-39.18,5.56,16.68,2a
2019-07-15_143222:240,-0.496704,-0.046265,-0.006592,-0.004091,0.001537,0.002449,-39.18,6.25,15.5,2a
2019-07-15_143222:260,-0.496216,-0.046752999999999996,-0.006072999999999999,-0.00461,0.001415,0.00196,-39.18,6.25,15.5,2a
2019-07-15_143222:280,-0.49823,-0.048279,-0.007111,-0.004488000000000001,0.0016589999999999999,0.001655,-39.5,7.0,16.25,2a
2019-07-15_143222:300,-0.496704,-0.048798,-0.006592,-0.004793,0.001964,0.001381,-39.5,7.0,16.25,2a
2019-07-15_143222:320,-0.49722299999999997,-0.049805,-0.0055850000000000006,-0.00461,0.002116,0.001258,-39.5,7.0,16.25,2a
2019-07-15_143222:340,-0.49722299999999997,-0.050323,-0.005065999999999999,-0.004275,0.002635,0.001381,-39.5,6.56,16.68,2a
2019-07-15_143222:360,-0.497742,-0.051330999999999995,-0.0035399999999999997,-0.004336,0.002849,0.001106,-39.5,6.56,16.68,2a
2019-07-15_143222:380,-0.49722299999999997,-0.049805,-0.005065999999999999,-0.003939,0.002849,0.000923,-38.75,5.5,16.25,2a
2019-07-15_143222:400,-0.49365200000000004,-0.049805,-0.004059,-0.0037560000000000002,0.002635,0.001045,-38.75,5.5,16.25,2a
2019-07-15_143222:420,-0.492645,-0.049316000000000006,-0.0035399999999999997,-0.003512,0.002391,0.000831,-38.75,5.5,16.25,2a
2019-07-15_143222:440,-0.49468999999999996,-0.049316000000000006,-0.005065999999999999,-0.003573,0.002239,0.000923,-39.5,5.56,17.059998999999998,2a
2019-07-15_143222:460,-0.49517799999999995,-0.048798,-0.0030210000000000002,-0.0036950000000000004,0.002055,0.001045,-39.5,5.56,17.059998999999998,2a
2019-07-15_143222:480,-0.497742,-0.048798,-0.0055850000000000006,-0.003817,0.0017809999999999998,0.000923,-38.5,5.56,16.25,2a
2019-07-15_143222:500,-0.49722299999999997,-0.049316000000000006,-0.004059,-0.004091,0.001842,0.001045,-38.5,5.56,16.25,2a
2019-07-15_143222:520,-0.496704,-0.048798,-0.004059,-0.003939,0.002574,0.0008619999999999999,-38.5,5.56,16.25,2a
2019-07-15_143222:540,-0.49517799999999995,-0.048798,-0.004059,-0.004213000000000001,0.002391,0.000831,-38.75,6.25,16.0,2a
2019-07-15_143222:560,-0.49517799999999995,-0.050323,-0.004059,-0.00403,0.002696,0.000709,-38.75,6.25,16.0,2a
2019-07-15_143222:580,-0.49316400000000005,-0.048798,-0.004059,-0.004152,0.002696,0.000526,-39.18,6.0,16.68,2a
2019-07-15_143222:600,-0.49365200000000004,-0.048279,-0.0030210000000000002,-0.003939,0.002635,0.000587,-39.18,6.0,16.68,2a
2019-07-15_143222:620,-0.494171,-0.048279,-0.0035399999999999997,-0.003817,0.0023,0.000496,-39.18,6.0,16.68,2a
2019-07-15_143222:640,-0.496704,-0.048279,-0.004547,-0.0037560000000000002,0.002055,0.000709,-38.75,6.25,16.25,2a
2019-07-15_143222:660,-0.496704,-0.048279,-0.0025329999999999997,-0.0034509999999999996,0.00172,0.001106,-38.75,6.25,16.25,2a
2019-07-15_143222:680,-0.497742,-0.048279,-0.0035399999999999997,-0.0032979999999999997,0.002055,0.0008619999999999999,-39.5,6.0,16.68,2a
2019-07-15_143222:700,-0.496704,-0.046752999999999996,-0.000488,-0.003237,0.0024519999999999998,0.001442,-39.5,6.0,16.68,2a
2019-07-15_143222:720,-0.49722299999999997,-0.047272,-0.002014,-0.0034509999999999996,0.002849,0.002754,-39.5,6.0,16.68,2a
2019-07-15_143222:740,-0.49517799999999995,-0.048279,-0.0025329999999999997,-0.003939,0.003032,0.0029059999999999997,-39.18,6.68,16.25,2a
2019-07-15_143222:760,-0.492645,-0.049316000000000006,-0.0030210000000000002,-0.004336,0.002788,0.001045,-39.18,6.68,16.25,2a
2019-07-15_143222:780,-0.491638,-0.048279,-0.0030210000000000002,-0.004793,0.002177,0.000709,-39.18,6.18,16.0,2a
2019-07-15_143222:800,-0.492126,-0.050323,-0.0025329999999999997,-0.005282,0.001598,0.001564,-39.18,6.18,16.0,2a
2019-07-15_143222:820,-0.492645,-0.051849,-0.0035399999999999997,-0.005739,0.00114,0.001045,-39.18,6.18,16.0,2a
2019-07-15_143222:840,-0.49468999999999996,-0.053375,-0.0035399999999999997,-0.005678,0.000682,0.000648,-39.18,6.18,15.87,2a
2019-07-15_143222:860,-0.498749,-0.05438200000000001,-0.004059,-0.005282,0.0008960000000000001,0.0008619999999999999,-39.18,6.18,15.87,2a
2019-07-15_143222:880,-0.49975600000000003,-0.05438200000000001,-0.0035399999999999997,-0.005129,0.001292,0.000923,-39.18,6.56,17.059998999999998,2a
2019-07-15_143222:900,-0.49823,-0.054901,-0.0025329999999999997,-0.004549,0.00172,0.001045,-39.18,6.56,17.059998999999998,2a
2019-07-15_143222:920,-0.498749,-0.055389,-0.0035399999999999997,-0.003939,0.002239,0.001106,-39.18,6.56,17.059998999999998,2a
2019-07-15_143222:940,-0.495697,-0.052338,-0.0025329999999999997,-0.0034509999999999996,0.002574,0.001045,-38.5,6.18,15.5,2a
2019-07-15_143222:960,-0.49468999999999996,-0.052338,-0.0035399999999999997,-0.00339,0.002574,0.001442,-38.5,6.18,15.5,2a
2019-07-15_143222:980,-0.49517799999999995,-0.051330999999999995,-0.001495,-0.00339,0.002513,0.00132,-38.75,6.56,16.25,2a
2019-07-15_143223:000,-0.49468999999999996,-0.051330999999999995,-0.001007,-0.0036950000000000004,0.002239,0.001503,-38.75,6.56,16.25,2a
2019-07-15_143223:020,-0.496216,-0.051849,-0.001007,-0.004275,0.002055,0.001716,-38.75,6.56,16.25,2a
2019-07-15_143223:040,-0.49517799999999995,-0.05285599999999999,-0.001495,-0.004671,0.0019030000000000002,0.0008619999999999999,-38.5,6.87,16.25,2a
2019-07-15_143223:060,-0.49365200000000004,-0.051849,-0.002014,-0.0051600000000000005,0.002116,6.8e-05,-38.5,6.87,16.25,2a
2019-07-15_143223:080,-0.492126,-0.05285599999999999,-0.0025329999999999997,-0.005404,0.001292,0.000831,-38.75,6.18,15.06,2a
2019-07-15_143223:100,-0.495697,-0.05438200000000001,-0.0025329999999999997,-0.005556,0.001201,0.001258,-38.75,6.18,15.06,2a
2019-07-15_143223:120,-0.495697,-0.053863999999999995,-0.0025329999999999997,-0.005343,0.001018,0.001381,-38.75,6.18,15.06,2a
2019-07-15_143223:140,-0.49722299999999997,-0.055389,-0.001007,-0.005007,0.001415,0.001381,-39.869999,6.25,15.5,2a
2019-07-15_143223:160,-0.49823,-0.054901,-0.002014,-0.004732,0.0016589999999999999,0.000831,-39.869999,6.25,15.5,2a
2019-07-15_143223:180,-0.496216,-0.054901,-0.001495,-0.004152,0.002116,0.000923,-38.68,7.0,16.68,2a
2019-07-15_143223:200,-0.49517799999999995,-0.055389,-0.001495,-0.00403,0.001964,0.0007700000000000001,-38.68,7.0,16.68,2a
2019-07-15_143223:220,-0.49468999999999996,-0.054901,-0.001495,-0.0036950000000000004,0.0023,0.000404,-38.68,7.0,16.68,2a
2019-07-15_143223:240,-0.49517799999999995,-0.053863999999999995,0.0,-0.003176,0.001994,0.000587,-39.369999,7.0,16.0,2a
2019-07-15_143223:260,-0.494171,-0.053375,0.0,-0.002932,0.001964,0.000587,-39.369999,7.0,16.0,2a
2019-07-15_143223:280,-0.49517799999999995,-0.052338,-0.002014,-0.002718,0.0019030000000000002,0.0008619999999999999,-38.68,6.68,15.5,2a
2019-07-15_143223:300,-0.494171,-0.051330999999999995,0.0,-0.003054,0.0017809999999999998,0.000831,-38.68,6.68,15.5,2a
2019-07-15_143223:320,-0.494171,-0.049805,-0.0025329999999999997,-0.0033280000000000002,0.0014759999999999999,0.000526,-38.68,6.68,15.5,2a
2019-07-15_143223:340,-0.49517799999999995,-0.052338,-0.002014,-0.003878,0.001415,0.000343,-38.369999,6.68,15.5,2a
2019-07-15_143223:360,-0.49517799999999995,-0.053375,-0.001495,-0.004275,0.001537,0.000343,-38.369999,6.68,15.5,2a
2019-07-15_143223:380,-0.49823,-0.054901,-0.002014,-0.004336,0.001353,0.00028199999999999997,-39.060001,7.0,17.059998999999998,2a
2019-07-15_143223:400,-0.497742,-0.055389,-0.001495,-0.004427,0.001537,0.000343,-39.060001,7.0,17.059998999999998,2a
2019-07-15_143223:420,-0.49517799999999995,-0.055389,-0.001007,-0.004275,0.0016589999999999999,0.000465,-39.060001,7.0,17.059998999999998,2a
2019-07-15_143223:440,-0.49365200000000004,-0.055389,-0.0025329999999999997,-0.003878,0.002116,0.000465,-38.68,6.68,17.5,2a
2019-07-15_143223:460,-0.492645,-0.056427,-0.0025329999999999997,-0.0036340000000000005,0.0017809999999999998,0.000465,-38.68,6.68,17.5,2a
2019-07-15_143223:480,-0.49316400000000005,-0.055389,-0.001495,-0.003512,0.001537,6.8e-05,-38.0,6.25,16.68,2a
2019-07-15_143223:500,-0.49722299999999997,-0.053863999999999995,-0.000488,-0.002993,0.0012619999999999999,-0.00011499999999999999,-38.0,6.25,16.68,2a
2019-07-15_143223:520,-0.496216,-0.053863999999999995,-0.001495,-0.0029010000000000004,0.0012619999999999999,0.00028199999999999997,-38.0,6.25,16.68,2a
2019-07-15_143223:540,-0.497742,-0.05285599999999999,-0.001495,-0.002718,0.001537,7.000000000000001e-06,-38.68,7.37,15.87,2a
2019-07-15_143223:560,-0.496704,-0.051849,0.0,-0.003054,0.0017809999999999998,0.000526,-38.68,7.37,15.87,2a
2019-07-15_143223:580,-0.49365200000000004,-0.051849,-0.001007,-0.003664,0.0019030000000000002,0.001838,-38.68,6.0,15.87,2a
2019-07-15_143223:600,-0.49517799999999995,-0.052338,-0.001007,-0.004213000000000001,0.0016589999999999999,0.001258,-38.68,6.0,15.87,2a
2019-07-15_143223:620,-0.494171,-0.051330999999999995,-0.0025329999999999997,-0.004793,0.001537,-0.000512,-38.68,6.0,15.87,2a
2019-07-15_143223:640,-0.492645,-0.052338,-0.001495,-0.005007,0.0012619999999999999,-0.000389,-39.060001,6.25,15.87,2a
2019-07-15_143223:660,-0.494171,-0.054901,-0.0025329999999999997,-0.005343,0.001018,0.000221,-39.060001,6.25,15.87,2a
2019-07-15_143223:680,-0.492645,-0.054901,-0.0030210000000000002,-0.005007,0.000743,-0.00045099999999999996,-39.369999,6.68,16.25,2a
2019-07-15_143223:700,-0.496704,-0.055389,-0.000488,-0.004275,0.000499,-0.001,-39.369999,6.68,16.25,2a
2019-07-15_143223:720,-0.49722299999999997,-0.054901,-0.0025329999999999997,-0.003664,0.001018,-0.000908,-39.369999,6.68,16.25,2a
2019-07-15_143223:740,-0.497742,-0.053863999999999995,-0.002014,-0.002779,0.001292,-0.00045099999999999996,-38.0,6.25,16.68,2a
2019-07-15_143223:760,-0.497742,-0.05285599999999999,0.0,-0.002382,0.001628,-0.00023700000000000001,-38.0,6.25,16.68,2a
2019-07-15_143223:780,-0.49722299999999997,-0.051330999999999995,-0.000488,-0.0021079999999999996,0.001994,-0.000328,-39.060001,6.68,16.25,2a
2019-07-15_143223:800,-0.496216,-0.049805,0.0,-0.001986,0.0023,-0.000328,-39.060001,6.68,16.25,2a
2019-07-15_143223:820,-0.49365200000000004,-0.049316000000000006,-0.002014,-0.0022600000000000003,0.0019030000000000002,-0.00011499999999999999,-39.060001,6.68,16.25,2a
2019-07-15_143223:840,-0.492645,-0.048279,-0.001007,-0.002718,0.0016589999999999999,0.00016,-38.369999,6.25,17.059998999999998,2a
2019-07-15_143223:860,-0.496704,-0.048798,0.0,-0.003237,0.001292,0.000404,-38.369999,6.25,17.059998999999998,2a
2019-07-15_143223:880,-0.497742,-0.048798,-0.001495,-0.003939,0.001628,0.000526,-38.369999,6.0,16.25,2a
2019-07-15_143223:900,-0.49517799999999995,-0.050842,0.0,-0.004152,0.001598,0.000129,-38.369999,6.0,16.25,2a
2019-07-15_143223:920,-0.494171,-0.050842,-0.0030210000000000002,-0.004671,0.0014759999999999999,-5.4000000000000005e-05,-38.369999,6.0,16.25,2a
2019-07-15_143223:940,-0.49468999999999996,-0.05285599999999999,-0.004547,-0.004671,0.0012619999999999999,0.000648,-39.369999,6.68,16.25,2a
2019-07-15_143223:960,-0.49517799999999995,-0.053375,-0.0030210000000000002,-0.004427,0.0008960000000000001,0.000526,-39.369999,6.68,16.25,2a
2019-07-15_143223:980,-0.497742,-0.05285599999999999,-0.004059,-0.003878,0.0009570000000000001,0.00016,-38.369999,7.0,14.75,2a
2019-07-15_143224:000,-0.497742,-0.05285599999999999,-0.001495,-0.0034509999999999996,0.0012619999999999999,-0.000267,-38.369999,7.0,14.75,2a
2019-07-15_143224:020,-0.496216,-0.051330999999999995,-0.004059,-0.0031149999999999997,0.0019030000000000002,-0.00045099999999999996,-38.369999,7.0,14.75,2a
2019-07-15_143224:040,-0.496216,-0.051849,-0.0030210000000000002,-0.002657,0.001994,-0.00023700000000000001,-38.0,6.25,15.5,2a
2019-07-15_143224:060,-0.495697,-0.050323,-0.001007,-0.002657,0.001994,-0.000267,-38.0,6.25,15.5,2a
2019-07-15_143224:080,-0.49517799999999995,-0.049316000000000006,-0.0030210000000000002,-0.0025050000000000003,0.001964,-0.000267,-39.060001,7.37,14.75,2a
2019-07-15_143224:100,-0.495697,-0.048279,0.0,-0.0028399999999999996,0.001842,-0.000328,-39.060001,7.37,14.75,2a
2019-07-15_143224:120,-0.49468999999999996,-0.048279,-0.0025329999999999997,-0.003054,0.001964,7.000000000000001e-06,-39.060001,7.37,14.75,2a
2019-07-15_143224:140,-0.49468999999999996,-0.047791,-0.001007,-0.0032979999999999997,0.0016589999999999999,7.000000000000001e-06,-38.68,6.18,16.25,2a
2019-07-15_143224:160,-0.49517799999999995,-0.048279,-0.001007,-0.0036340000000000005,0.001628,0.000129,-38.68,6.18,16.25,2a
2019-07-15_143224:180,-0.49517799999999995,-0.048279,-0.001007,-0.0037560000000000002,0.001628,0.000221,-38.68,6.56,16.25,2a
2019-07-15_143224:200,-0.496704,-0.048279,-0.000488,-0.004,0.0016589999999999999,0.000129,-38.68,6.56,16.25,2a
2019-07-15_143224:220,-0.49722299999999997,-0.049316000000000006,-0.002014,-0.004091,0.001628,7.000000000000001e-06,-38.68,6.56,16.25,2a
2019-07-15_143224:240,-0.496216,-0.050323,-0.001007,-0.00403,0.0017809999999999998,0.000465,-39.060001,6.56,16.25,2a
2019-07-15_143224:260,-0.496216,-0.051849,-0.002014,-0.003817,0.002177,0.0008619999999999999,-39.060001,6.56,16.25,2a
2019-07-15_143224:280,-0.495697,-0.051849,-0.002014,-0.0036950000000000004,0.001964,0.000831,-38.68,6.18,16.25,2a
2019-07-15_143224:300,-0.494171,-0.052338,-0.000488,-0.00339,0.001964,0.000648,-38.68,6.18,16.25,2a
2019-07-15_143224:320,-0.492645,-0.051849,-0.002014,-0.0028399999999999996,0.00172,0.00016,-38.68,6.18,16.25,2a
2019-07-15_143224:340,-0.49365200000000004,-0.052338,-0.0025329999999999997,-0.002718,0.001292,-0.00011499999999999999,-38.369999,6.18,15.5,2a
2019-07-15_143224:360,-0.495697,-0.051849,-0.001495,-0.002169,0.00114,-0.0008470000000000001,-38.369999,6.18,15.5,2a
2019-07-15_143224:380,-0.49722299999999997,-0.050842,-0.002014,-0.001925,0.001201,-0.000328,-38.369999,6.18,15.87,2a
2019-07-15_143224:400,-0.498749,-0.049805,-0.001495,-0.00165,0.001292,-0.000512,-38.369999,6.18,15.87,2a
2019-07-15_143224:420,-0.497742,-0.047272,-0.001495,-0.0018030000000000001,0.001994,-0.000634,-38.369999,6.18,15.87,2a
2019-07-15_143224:440,-0.496216,-0.046265,0.0,-0.0020469999999999998,0.0023,0.00132,-38.68,6.18,16.25,2a
2019-07-15_143224:460,-0.49722299999999997,-0.046265,0.0,-0.002718,0.002177,0.001838,-38.68,6.18,16.25,2a
2019-07-15_143224:480,-0.49365200000000004,-0.047791,-0.000488,-0.0034509999999999996,0.001842,-0.000176,-38.68,6.18,16.68,2a
2019-07-15_143224:500,-0.492126,-0.046265,-0.001495,-0.003939,0.0014759999999999999,-0.000512,-38.68,6.18,16.68,2a
2019-07-15_143224:520,-0.49316400000000005,-0.046752999999999996,-0.002014,-0.004549,0.000865,0.0008619999999999999,-38.68,6.18,16.68,2a
2019-07-15_143224:540,-0.49316400000000005,-0.047791,-0.002014,-0.004732,0.000682,0.000831,-38.68,6.56,15.87,2a
2019-07-15_143224:560,-0.496216,-0.049316000000000006,-0.0035399999999999997,-0.004488000000000001,0.000682,0.00028199999999999997,-38.68,6.56,15.87,2a
2019-07-15_143224:580,-0.49823,-0.050842,-0.0030210000000000002,-0.004275,0.0010789999999999999,0.000648,-38.68,6.18,16.68,2a
2019-07-15_143224:600,-0.49926800000000005,-0.050323,-0.001495,-0.003817,0.001353,0.000923,-38.68,6.18,16.68,2a
2019-07-15_143224:620,-0.500793,-0.050842,-0.001495,-0.00339,0.002177,0.001258,-38.68,6.18,16.68,2a
2019-07-15_143224:640,-0.49926800000000005,-0.049805,-0.001007,-0.0031149999999999997,0.002513,0.001564,-38.68,6.56,16.0,2a
2019-07-15_143224:660,-0.497742,-0.050323,-0.000488,-0.002993,0.003032,0.00132,-38.68,6.56,16.0,2a
2019-07-15_143224:680,-0.494171,-0.049316000000000006,-0.001007,-0.002932,0.0031850000000000003,0.00132,-39.369999,6.18,17.5,2a
2019-07-15_143224:700,-0.49316400000000005,-0.048798,-0.000488,-0.002932,0.002788,0.00132,-39.369999,6.18,17.5,2a
2019-07-15_143224:720,-0.494171,-0.048798,-0.001007,-0.0033280000000000002,0.0023,0.001381,-39.369999,6.18,17.5,2a
2019-07-15_143224:740,-0.49468999999999996,-0.048798,-0.001007,-0.0036950000000000004,0.002116,0.001716,-39.060001,6.18,17.059998999999998,2a
2019-07-15_143224:760,-0.49517799999999995,-0.050842,0.0,-0.004152,0.002239,0.001106,-39.060001,6.18,17.059998999999998,2a
2019-07-15_143224:780,-0.49468999999999996,-0.049805,-0.001007,-0.004275,0.0023,0.00028199999999999997,-39.060001,6.87,16.25,2a
2019-07-15_143224:800,-0.496216,-0.050842,0.0,-0.004488000000000001,0.002055,0.001381,-39.060001,6.87,16.25,2a
2019-07-15_143224:820,-0.495697,-0.050842,-0.001495,-0.00461,0.002177,0.001503,-39.060001,6.87,16.25,2a
2019-07-15_143224:840,-0.496704,-0.051849,0.0,-0.004732,0.002177,0.001228,-39.060001,6.87,16.25,2a
2019-07-15_143224:860,-0.49517799999999995,-0.052338,0.0,-0.004397,0.002177,0.001228,-39.060001,6.87,16.25,2a
2019-07-15_143224:880,-0.49517799999999995,-0.053863999999999995,0.0,-0.004275,0.002513,0.001045,-38.68,6.18,15.87,2a
2019-07-15_143224:900,-0.496704,-0.05438200000000001,-0.000488,-0.003939,0.002513,0.001106,-38.68,6.18,15.87,2a
2019-07-15_143224:920,-0.49517799999999995,-0.054901,0.0,-0.003664,0.002361,0.000648,-38.68,6.18,15.87,2a
2019-07-15_143224:940,-0.495697,-0.054901,0.0,-0.003176,0.0024519999999999998,0.000343,-39.369999,6.18,16.25,2a
2019-07-15_143224:960,-0.49722299999999997,-0.054901,0.001495,-0.0025960000000000002,0.002635,7.000000000000001e-06,-39.369999,6.18,16.25,2a
2019-07-15_143224:980,-0.496216,-0.05285599999999999,0.000488,-0.002199,0.002757,0.000221,-39.060001,6.56,17.059998999999998,2a
2019-07-15_143225:000,-0.496704,-0.052338,0.002014,-0.002199,0.0031850000000000003,0.000526,-39.060001,6.56,17.059998999999998,2a
2019-07-15_143225:020,-0.496216,-0.050323,0.002014,-0.002169,0.003124,0.000526,-39.060001,6.56,17.059998999999998,2a
2019-07-15_143225:040,-0.494171,-0.049805,0.0025329999999999997,-0.002657,0.003368,0.000587,-39.060001,6.87,16.68,2a
2019-07-15_143225:060,-0.49517799999999995,-0.049805,0.0035399999999999997,-0.0031149999999999997,0.003093,0.000496,-39.060001,6.87,16.68,2a
2019-07-15_143225:080,-0.49468999999999996,-0.050323,0.004059,-0.003512,0.0031850000000000003,0.000587,-38.369999,6.18,17.059998999999998,2a
2019-07-15_143225:100,-0.495697,-0.050323,0.0030210000000000002,-0.003878,0.002971,0.000465,-38.369999,6.18,17.059998999999998,2a
2019-07-15_143225:120,-0.494171,-0.051330999999999995,0.004547,-0.003878,0.003032,0.000526,-38.369999,6.18,17.059998999999998,2a
2019-07-15_143225:140,-0.495697,-0.051330999999999995,0.002014,-0.004,0.002971,0.000648,-38.5,6.56,16.68,2a
2019-07-15_143225:160,-0.49517799999999995,-0.053375,0.004547,-0.003664,0.0031850000000000003,0.000648,-38.5,6.56,16.68,2a
2019-07-15_143225:180,-0.49517799999999995,-0.05285599999999999,0.004059,-0.0036950000000000004,0.002635,0.000496,-38.75,6.87,17.059998999999998,2a
2019-07-15_143225:200,-0.495697,-0.052338,0.005065999999999999,-0.0033280000000000002,0.002788,0.000984,-38.75,6.87,17.059998999999998,2a
2019-07-15_143225:220,-0.496216,-0.051849,0.005065999999999999,-0.003054,0.002757,0.001167,-38.75,6.87,17.059998999999998,2a
2019-07-15_143225:240,-0.496704,-0.052338,0.006072999999999999,-0.0029010000000000004,0.002971,0.000709,-39.18,6.56,15.87,2a
2019-07-15_143225:260,-0.498749,-0.051330999999999995,0.008636,-0.002932,0.0034289999999999998,0.001381,-39.18,6.56,15.87,2a
2019-07-15_143225:280,-0.497742,-0.051330999999999995,0.006072999999999999,-0.0033280000000000002,0.003886,0.0026320000000000002,-38.68,6.56,17.059998999999998,2a
2019-07-15_143225:300,-0.494171,-0.053375,0.007599,-0.0036340000000000005,0.0034289999999999998,0.001442,-38.68,6.56,17.059998999999998,2a
2019-07-15_143225:320,-0.49111899999999997,-0.051849,0.008118,-0.00403,0.002696,-0.00023700000000000001,-38.68,6.56,17.059998999999998,2a
2019-07-15_143225:340,-0.49111899999999997,-0.051849,0.007111,-0.004275,0.002177,0.000465,-38.68,6.56,16.25,2a
2019-07-15_143225:360,-0.492645,-0.053863999999999995,0.006592,-0.004427,0.00172,0.0008619999999999999,-38.68,6.56,16.25,2a
2019-07-15_143225:380,-0.49517799999999995,-0.05438200000000001,0.0055850000000000006,-0.004152,0.00172,7.000000000000001e-06,-38.68,6.18,16.0,2a
2019-07-15_143225:400,-0.496216,-0.053863999999999995,0.007111,-0.003939,0.00172,-0.000176,-38.68,6.18,16.0,2a
2019-07-15_143225:420,-0.49722299999999997,-0.05438200000000001,0.006592,-0.0036950000000000004,0.0019030000000000002,7.000000000000001e-06,-38.68,6.18,16.0,2a
2019-07-15_143225:440,-0.497742,-0.05285599999999999,0.006592,-0.00339,0.0023,0.000526,-37.560001,6.56,17.059998999999998,2a
2019-07-15_143225:460,-0.498749,-0.05285599999999999,0.009125,-0.0033280000000000002,0.002757,0.000923,-37.560001,6.56,17.059998999999998,2a
2019-07-15_143225:480,-0.49975600000000003,-0.053863999999999995,0.008118,-0.003176,0.003246,0.0007700000000000001,-38.369999,6.56,17.870001000000002,2a
2019-07-15_143225:500,-0.49468999999999996,-0.05285599999999999,0.009125,-0.0032979999999999997,0.003093,0.000496,-38.369999,6.56,17.870001000000002,2a
2019-07-15_143225:520,-0.49468999999999996,-0.050842,0.009125,-0.0032979999999999997,0.0029100000000000003,0.000343,-38.369999,6.56,17.870001000000002,2a
2019-07-15_143225:540,-0.492645,-0.052338,0.009644,-0.0036340000000000005,0.002574,0.000129,-38.5,6.18,16.68,2a
2019-07-15_143225:560,-0.49316400000000005,-0.052338,0.009644,-0.0036950000000000004,0.002239,0.000709,-38.5,6.18,16.68,2a
2019-07-15_143225:580,-0.49468999999999996,-0.051849,0.008636,-0.003664,0.001842,0.000343,-38.5,6.18,18.25,2a
2019-07-15_143225:600,-0.49365200000000004,-0.053375,0.008636,-0.003664,0.0017809999999999998,-0.001,-38.5,6.18,18.25,2a
2019-07-15_143225:620,-0.495697,-0.050323,0.006592,-0.0032979999999999997,0.001353,-0.000267,-38.5,6.18,18.25,2a
2019-07-15_143225:640,-0.496216,-0.05285599999999999,0.008118,-0.003237,0.00114,0.000648,-38.75,6.18,16.68,2a
2019-07-15_143225:660,-0.496704,-0.049316000000000006,0.008118,-0.003512,0.001201,0.000709,-38.75,6.18,16.68,2a
2019-07-15_143225:680,-0.496216,-0.049316000000000006,0.007599,-0.003664,0.0010789999999999999,0.000831,-38.060001,6.56,18.25,2a
2019-07-15_143225:700,-0.496704,-0.050842,0.008118,-0.004275,0.001353,0.000587,-38.060001,6.56,18.25,2a
2019-07-15_143225:720,-0.496216,-0.050842,0.007599,-0.004427,0.001537,0.000496,-38.060001,6.56,18.25,2a
2019-07-15_143225:740,-0.496216,-0.050842,0.006592,-0.00461,0.001842,0.000526,-37.68,6.18,17.059998999999998,2a
2019-07-15_143225:760,-0.497742,-0.05285599999999999,0.009644,-0.004427,0.002116,0.000343,-37.68,6.18,17.059998999999998,2a
2019-07-15_143225:780,-0.496216,-0.05285599999999999,0.008118,-0.004275,0.002361,0.000221,-38.5,6.18,17.059998999999998,2a
2019-07-15_143225:800,-0.495697,-0.053863999999999995,0.006072999999999999,-0.0037560000000000002,0.002513,0.000648,-38.5,6.18,17.059998999999998,2a
