timestamp,AccX,AccY,AccZ,GyroX,GyroY,GyroZ,MagX,MagY,MagZ,Activity
2019-07-15_180853:260,-0.43927,-0.018799,-0.198273,-0.004671,-0.003163,0.010322,-36.560001,-22.25,-14.68,3a
2019-07-15_180853:280,-0.449432,-0.032013,-0.196747,-0.006319,-0.005543,0.010749,-37.0,-23.0,-14.68,3a
2019-07-15_180853:300,-0.46469099999999997,-0.044219999999999995,-0.20080599999999998,-0.0066549999999999995,-0.005971,0.009590000000000001,-37.0,-23.0,-14.68,3a
2019-07-15_180853:320,-0.47079499999999996,-0.044219999999999995,-0.20843499999999998,-0.005678,-0.002431,0.0084,-37.0,-23.0,-14.68,3a
2019-07-15_180853:340,-0.46417200000000003,-0.039642000000000004,-0.20385699999999998,-0.005556,0.0019030000000000002,0.010597,-37.0,-22.25,-13.5,3a
2019-07-15_180853:360,-0.45401,-0.034546,-0.19574,-0.005282,0.005961999999999999,0.012397,-37.0,-22.25,-13.5,3a
2019-07-15_180853:380,-0.43823199999999995,-0.036072,-0.196747,-0.004427,0.00761,0.011268,-36.560001,-22.25,-14.68,3a
2019-07-15_180853:400,-0.445862,-0.040649,-0.203369,-0.002382,0.006755,0.009009999999999999,-36.560001,-22.25,-14.68,3a
2019-07-15_180853:420,-0.45605500000000004,-0.041168,-0.208954,0.00011999999999999999,0.006175,0.0043100000000000005,-36.560001,-22.25,-14.68,3a
2019-07-15_180853:440,-0.467224,-0.034058,-0.20233199999999998,0.001341,0.007823,0.000221,-37.0,-21.5,-13.06,3a
2019-07-15_180853:460,-0.470276,-0.030487,-0.197266,0.002989,0.010814,-0.000634,-37.0,-21.5,-13.06,3a
2019-07-15_180853:480,-0.469757,-0.027954000000000003,-0.18454,0.004454,0.014597999999999998,-0.002037,-37.68,-21.18,-14.68,3a
2019-07-15_180853:500,-0.45907600000000004,-0.023895,-0.177429,0.006193,0.016031999999999998,-0.005303,-37.68,-21.18,-14.68,3a
2019-07-15_180853:520,-0.460114,-0.013213999999999998,-0.170807,0.007840999999999999,0.015513999999999998,-0.005364,-37.68,-21.18,-14.68,3a
2019-07-15_180853:540,-0.45553599999999994,-0.007111,-0.161652,0.00897,0.014719999999999999,-0.0037770000000000004,-37.25,-20.059998999999998,-14.25,3a
2019-07-15_180853:560,-0.44891400000000004,-0.0025329999999999997,-0.154541,0.009092,0.013316,-0.002495,-37.25,-20.059998999999998,-14.25,3a
2019-07-15_180853:580,-0.448425,-0.002014,-0.153015,0.008237999999999999,0.01115,-0.000573,-37.25,-21.870001000000002,-13.5,3a
2019-07-15_180853:600,-0.447388,-0.009644,-0.153534,0.0076879999999999995,0.009349,0.001106,-37.25,-21.870001000000002,-13.5,3a
2019-07-15_180853:620,-0.43621800000000005,-0.010651,-0.160645,0.0072310000000000004,0.007304000000000001,0.00309,-37.25,-21.870001000000002,-13.5,3a
2019-07-15_180853:640,-0.433655,-0.007111,-0.171844,0.005369,0.004833,0.009071,-37.68,-21.18,-13.06,3a
2019-07-15_180853:660,-0.440796,-0.016266,-0.176422,0.0032020000000000004,0.002361,0.012916,-37.68,-21.18,-13.06,3a
2019-07-15_180853:680,-0.46316499999999994,-0.01828,-0.174896,0.001402,0.0019030000000000002,0.010749,-37.68,-20.5,-13.5,3a
2019-07-15_180853:700,-0.462646,-0.017273,-0.171326,0.000151,0.003124,0.009529000000000001,-37.68,-20.5,-13.5,3a
2019-07-15_180853:720,-0.44232200000000005,-0.023375999999999997,-0.172333,-0.000857,0.002574,0.006934999999999999,-37.68,-20.5,-13.5,3a
2019-07-15_180853:740,-0.43670699999999996,-0.027435,-0.168274,-0.001314,-0.001576,0.001106,-37.25,-21.18,-12.68,3a
2019-07-15_180853:760,-0.459595,-0.027435,-0.159119,-0.001375,-0.00417,0.00016,-37.25,-21.18,-12.68,3a
2019-07-15_180853:780,-0.469757,-0.030487,-0.1586,-0.00107,-0.004109000000000001,0.002967,-38.5,-21.18,-13.87,3a
2019-07-15_180853:800,-0.472321,-0.029480000000000003,-0.168793,-0.000918,-0.002522,0.001838,-38.5,-21.18,-13.87,3a
2019-07-15_180853:820,-0.46926899999999994,-0.026427999999999997,-0.17538499999999999,-0.000857,-0.001698,-0.0009689999999999999,-38.5,-21.18,-13.87,3a
2019-07-15_180853:840,-0.467743,-0.024384,-0.17690999999999998,-0.000796,-0.001057,-0.002251,-38.5,-19.68,-13.5,3a
2019-07-15_180853:860,-0.481476,-0.023895,-0.18096900000000002,-0.001131,0.000468,-0.002526,-38.5,-19.68,-13.5,3a
2019-07-15_180853:880,-0.49365200000000004,-0.020325,-0.18096900000000002,-0.001986,0.004039,-0.002251,-39.18,-20.75,-14.68,3a
2019-07-15_180853:900,-0.484497,-0.014740000000000001,-0.181488,-0.003664,0.008098000000000001,-0.0010609999999999999,-39.18,-20.75,-14.68,3a
2019-07-15_180853:920,-0.47079499999999996,-0.012177,-0.17996199999999998,-0.006319,0.010478,-0.000512,-39.18,-20.75,-14.68,3a
2019-07-15_180853:940,-0.46469099999999997,-0.014221000000000001,-0.177429,-0.009188,0.011394,0.000465,-38.060001,-20.059998999999998,-13.5,3a
2019-07-15_180853:960,-0.46469099999999997,-0.019806,-0.172333,-0.011568,0.011484999999999999,0.0021739999999999997,-38.060001,-20.059998999999998,-13.5,3a
2019-07-15_180853:980,-0.460114,-0.025421,-0.168274,-0.012911,0.011881999999999998,0.003181,-38.5,-20.75,-13.5,3a
2019-07-15_180854:000,-0.45196499999999995,-0.030487,-0.165222,-0.013033000000000001,0.011271999999999999,0.003639,-38.5,-20.75,-13.5,3a
2019-07-15_180854:020,-0.44433599999999995,-0.032013,-0.166748,-0.012575,0.009013,0.003425,-38.5,-20.75,-13.5,3a
2019-07-15_180854:040,-0.44638100000000003,-0.031494,-0.167755,-0.012972,0.006633,0.00251,-38.060001,-20.059998999999998,-13.06,3a
2019-07-15_180854:060,-0.43774399999999997,-0.028961,-0.152008,-0.013186000000000002,0.0031850000000000003,0.002113,-38.060001,-20.059998999999998,-13.06,3a
2019-07-15_180854:080,-0.453491,-0.027954000000000003,-0.158112,-0.012972,0.000346,-0.000267,-38.060001,-20.059998999999998,-13.5,3a
2019-07-15_180854:100,-0.466217,-0.026917,-0.15506,-0.012789,0.000346,-0.004113,-38.060001,-20.059998999999998,-13.5,3a
2019-07-15_180854:120,-0.484009,-0.028961,-0.155548,-0.01166,0.002574,-0.007836,-38.060001,-20.059998999999998,-13.5,3a
2019-07-15_180854:140,-0.48349,-0.028442000000000002,-0.15506,-0.009798000000000001,0.00648,-0.00927,-38.5,-21.18,-12.25,3a
2019-07-15_180854:160,-0.477905,-0.023375999999999997,-0.15506,-0.007540000000000001,0.009073999999999999,-0.00747,-38.5,-21.18,-12.25,3a
2019-07-15_180854:180,-0.47332799999999997,-0.015747,-0.145386,-0.005861,0.0106,-0.003228,-37.68,-20.75,-11.87,3a
2019-07-15_180854:200,-0.472321,-0.014221000000000001,-0.138794,-0.005007,0.010875,-0.000328,-37.68,-20.75,-11.87,3a
2019-07-15_180854:220,-0.470276,-0.010162000000000001,-0.13623,-0.005129,0.011211,0.0008619999999999999,-37.68,-20.75,-11.87,3a
2019-07-15_180854:240,-0.466217,-0.011169,-0.133179,-0.005556,0.010722,0.000526,-38.5,-21.5,-11.87,3a
2019-07-15_180854:260,-0.46469099999999997,-0.011169,-0.12912,-0.005739,0.010539,-0.001,-38.5,-21.5,-11.87,3a
2019-07-15_180854:280,-0.466217,-0.015228,-0.127594,-0.005739,0.009746,-0.002587,-38.75,-21.5,-11.87,3a
2019-07-15_180854:300,-0.471283,-0.015747,-0.127594,-0.004946,0.008952,-0.004296,-38.75,-21.5,-11.87,3a
2019-07-15_180854:320,-0.473846,-0.013702,-0.124054,-0.004336,0.008495,-0.0054859999999999996,-38.75,-21.5,-11.87,3a
2019-07-15_180854:340,-0.475861,-0.010651,-0.12149000000000001,-0.004,0.008006000000000001,-0.005181,-38.75,-21.5,-12.25,3a
2019-07-15_180854:360,-0.47842399999999996,-0.009644,-0.12200899999999999,-0.00461,0.007701,-0.004357,-38.75,-21.5,-12.25,3a
2019-07-15_180854:380,-0.475861,-0.008636,-0.12454200000000001,-0.005343,0.007273999999999999,-0.003319,-39.18,-21.5,-11.5,3a
2019-07-15_180854:400,-0.471283,-0.008636,-0.126068,-0.005861,0.006816,-0.00158,-39.18,-21.5,-11.5,3a
2019-07-15_180854:420,-0.47079499999999996,-0.009644,-0.118958,-0.006258,0.006145,0.000129,-39.18,-21.5,-11.5,3a
2019-07-15_180854:440,-0.467224,-0.011169,-0.11538699999999999,-0.0066549999999999995,0.004771,0.001564,-39.18,-21.870001000000002,-10.25,3a
2019-07-15_180854:460,-0.461121,-0.010162000000000001,-0.117432,-0.006991,0.002971,0.003425,-39.18,-21.870001000000002,-10.25,3a
2019-07-15_180854:480,-0.45654300000000003,-0.010651,-0.118958,-0.007326000000000001,0.0008960000000000001,0.005439,-38.75,-21.5,-10.75,3a
2019-07-15_180854:500,-0.45654300000000003,-0.013213999999999998,-0.12353499999999999,-0.007815,-0.001759,0.007484,-38.75,-21.5,-10.75,3a
2019-07-15_180854:520,-0.461639,-0.013702,-0.12658699999999998,-0.007998,-0.003896,0.009346,-38.75,-21.5,-10.75,3a
2019-07-15_180854:540,-0.467743,-0.015228,-0.127106,-0.007815,-0.0052380000000000005,0.010475,-38.5,-22.25,-9.87,3a
2019-07-15_180854:560,-0.47180200000000005,-0.017792,-0.130127,-0.00812,-0.005574,0.010261,-38.5,-22.25,-9.87,3a
2019-07-15_180854:580,-0.46875,-0.022369,-0.133698,-0.008333,-0.005299,0.009285,-39.18,-21.18,-11.5,3a
2019-07-15_180854:600,-0.46569799999999995,-0.023375999999999997,-0.14032,-0.008454999999999999,-0.005879,0.008735,-39.18,-21.18,-11.5,3a
2019-07-15_180854:620,-0.466217,-0.025908999999999998,-0.144897,-0.008181,-0.005818,0.008003,-39.18,-21.18,-11.5,3a
2019-07-15_180854:640,-0.46569799999999995,-0.027435,-0.14743,-0.007540000000000001,-0.0052380000000000005,0.0060799999999999995,-38.75,-20.5,-11.06,3a
2019-07-15_180854:660,-0.46469099999999997,-0.027954000000000003,-0.153534,-0.007081999999999999,-0.004445,0.004768,-38.75,-20.5,-11.06,3a
2019-07-15_180854:680,-0.46417200000000003,-0.028961,-0.154022,-0.006594,-0.0035600000000000002,0.004646,-38.5,-20.75,-10.75,3a
2019-07-15_180854:700,-0.467224,-0.028961,-0.156586,-0.006014,-0.002919,0.005012,-38.5,-20.75,-10.75,3a
2019-07-15_180854:720,-0.471283,-0.026917,-0.158112,-0.005953,-0.001912,0.005104,-38.5,-20.75,-10.75,3a
2019-07-15_180854:740,-0.46926899999999994,-0.026427999999999997,-0.160126,-0.0064719999999999995,-0.0009050000000000001,0.004615,-38.5,-20.75,-10.75,3a
2019-07-15_180854:760,-0.47079499999999996,-0.027435,-0.159637,-0.007662,-0.00011100000000000001,0.003761,-38.5,-20.75,-10.75,3a
2019-07-15_180854:780,-0.46926899999999994,-0.026917,-0.161163,-0.008669,-0.00011100000000000001,0.002052,-38.75,-20.75,-11.06,3a
2019-07-15_180854:800,-0.467224,-0.027435,-0.159637,-0.009706999999999999,-0.000233,0.000221,-38.75,-20.75,-11.06,3a
2019-07-15_180854:820,-0.46823100000000006,-0.028961,-0.160126,-0.010439,-0.000661,-0.001183,-38.75,-20.75,-11.06,3a
2019-07-15_180854:840,-0.47079499999999996,-0.028442000000000002,-0.160645,-0.010317,-0.0009050000000000001,-0.001702,-39.18,-21.18,-11.5,3a
2019-07-15_180854:860,-0.473846,-0.028961,-0.157074,-0.010103000000000001,-5e-05,-0.0017629999999999998,-39.18,-21.18,-11.5,3a
2019-07-15_180854:880,-0.47079499999999996,-0.028442000000000002,-0.1586,-0.009706999999999999,0.00022400000000000002,-0.001458,-38.75,-20.75,-11.5,3a
2019-07-15_180854:900,-0.473846,-0.028961,-0.159637,-0.008211,0.000743,-0.001458,-38.75,-20.75,-11.5,3a
2019-07-15_180854:920,-0.47079499999999996,-0.026917,-0.158112,-0.007265000000000001,0.001018,-0.002587,-38.75,-20.75,-11.5,3a
2019-07-15_180854:940,-0.46926899999999994,-0.025908999999999998,-0.157074,-0.006258,0.00114,-0.002526,-38.75,-21.18,-11.06,3a
2019-07-15_180854:960,-0.467224,-0.024384,-0.152008,-0.005526,0.001018,-0.001702,-38.75,-21.18,-11.06,3a
2019-07-15_180854:980,-0.46926899999999994,-0.023895,-0.153015,-0.005221,0.0012619999999999999,-0.00158,-38.75,-21.18,-10.75,3a
2019-07-15_180855:000,-0.471283,-0.022858,-0.148956,-0.004549,0.00172,-0.0019760000000000003,-38.75,-21.18,-10.75,3a
2019-07-15_180855:020,-0.474854,-0.022858,-0.149475,-0.004275,0.002696,-0.002587,-38.75,-21.18,-10.75,3a
2019-07-15_180855:040,-0.472321,-0.021332,-0.150482,-0.004152,0.003093,-0.003167,-38.75,-21.18,-11.87,3a
2019-07-15_180855:060,-0.469757,-0.020325,-0.14743,-0.003817,0.003978,-0.004021,-38.75,-21.18,-11.87,3a
2019-07-15_180855:080,-0.467224,-0.018799,-0.148956,-0.003817,0.004039,-0.004052,-39.18,-21.18,-10.75,3a
2019-07-15_180855:100,-0.46670500000000004,-0.019806,-0.149963,-0.003817,0.0031850000000000003,-0.004021,-39.18,-21.18,-10.75,3a
2019-07-15_180855:120,-0.46823100000000006,-0.01828,-0.14843800000000001,-0.0036950000000000004,0.002971,-0.003563,-39.18,-21.18,-10.75,3a
2019-07-15_180855:140,-0.465179,-0.018799,-0.146423,-0.0036340000000000005,0.002849,-0.0033799999999999998,-38.75,-21.870001000000002,-10.25,3a
2019-07-15_180855:160,-0.46417200000000003,-0.016753999999999998,-0.144897,-0.003512,0.002849,-0.00277,-38.75,-21.870001000000002,-10.25,3a
2019-07-15_180855:180,-0.459595,-0.016266,-0.149475,-0.0034509999999999996,0.0024519999999999998,-0.0023120000000000003,-38.5,-21.870001000000002,-11.5,3a
2019-07-15_180855:200,-0.461121,-0.014740000000000001,-0.149475,-0.003573,0.0009570000000000001,-0.000634,-38.5,-21.870001000000002,-11.5,3a
2019-07-15_180855:220,-0.461639,-0.015747,-0.150482,-0.003817,0.00022400000000000002,0.000587,-38.5,-21.870001000000002,-11.5,3a
2019-07-15_180855:240,-0.462646,-0.017273,-0.152008,-0.003878,-0.000233,0.001045,-38.5,-21.870001000000002,-10.25,3a
2019-07-15_180855:260,-0.47079499999999996,-0.017792,-0.156067,-0.004213000000000001,-0.000386,0.002113,-38.5,-21.870001000000002,-10.25,3a
2019-07-15_180855:280,-0.46670500000000004,-0.018799,-0.14743,-0.004397,0.000346,0.0022960000000000003,-38.5,-21.18,-11.06,3a
2019-07-15_180855:300,-0.466217,-0.022858,-0.14743,-0.004152,0.000468,0.0022960000000000003,-38.5,-21.18,-11.06,3a
2019-07-15_180855:320,-0.46316499999999994,-0.024384,-0.14743,-0.0036340000000000005,1.1e-05,0.0022960000000000003,-38.5,-21.18,-11.06,3a
2019-07-15_180855:340,-0.46316499999999994,-0.025908999999999998,-0.152527,-0.003176,-0.000264,0.0022960000000000003,-38.5,-21.870001000000002,-11.06,3a
2019-07-15_180855:360,-0.46469099999999997,-0.025908999999999998,-0.152527,-0.0022600000000000003,-0.001179,0.002388,-38.5,-21.870001000000002,-11.06,3a
2019-07-15_180855:380,-0.46316499999999994,-0.023375999999999997,-0.153015,-0.0021079999999999996,-0.001576,0.0026320000000000002,-38.5,-21.870001000000002,-11.06,3a
2019-07-15_180855:400,-0.462128,-0.021851,-0.153015,-0.001864,-0.002187,0.0021739999999999997,-38.5,-21.18,-11.5,3a
2019-07-15_180855:420,-0.46417200000000003,-0.020844,-0.152008,-0.0021079999999999996,-0.0024920000000000003,0.0018989999999999999,-38.5,-21.18,-11.5,3a
2019-07-15_180855:440,-0.46823100000000006,-0.020844,-0.156067,-0.0025960000000000002,-0.0024920000000000003,0.0026320000000000002,-38.75,-21.870001000000002,-12.25,3a
2019-07-15_180855:460,-0.46316499999999994,-0.021851,-0.156586,-0.003573,-0.002705,0.0030280000000000003,-38.75,-21.870001000000002,-12.25,3a
2019-07-15_180855:480,-0.46417200000000003,-0.021851,-0.159119,-0.0036950000000000004,-0.002888,0.002235,-38.75,-21.870001000000002,-12.25,3a
2019-07-15_180855:500,-0.462128,-0.021851,-0.160645,-0.004,-0.003285,0.001503,-38.75,-21.18,-11.06,3a
2019-07-15_180855:520,-0.459595,-0.020844,-0.161652,-0.004213000000000001,-0.0034990000000000004,0.001442,-38.75,-21.18,-11.06,3a
2019-07-15_180855:540,-0.462646,-0.021332,-0.166748,-0.004213000000000001,-0.003438,0.001564,-38.060001,-21.18,-11.5,3a
2019-07-15_180855:560,-0.461121,-0.021332,-0.166229,-0.003817,-0.002827,0.001045,-38.060001,-21.18,-11.5,3a
2019-07-15_180855:580,-0.461121,-0.020325,-0.167755,-0.0036340000000000005,-0.002888,0.000587,-38.060001,-21.18,-11.5,3a
2019-07-15_180855:600,-0.461639,-0.021332,-0.167267,-0.0033280000000000002,-0.002248,-0.000389,-39.560001,-21.5,-11.06,3a
2019-07-15_180855:620,-0.463654,-0.019806,-0.169281,-0.0032979999999999997,-0.002095,-0.00045099999999999996,-39.560001,-21.5,-11.06,3a
2019-07-15_180855:640,-0.462128,-0.020325,-0.170807,-0.0032979999999999997,-0.001759,-0.000328,-38.5,-21.5,-11.87,3a
2019-07-15_180855:660,-0.459595,-0.018799,-0.172333,-0.0033280000000000002,-0.001637,-0.000573,-38.5,-21.5,-11.87,3a
2019-07-15_180855:680,-0.461121,-0.017273,-0.172852,-0.00339,-0.001637,-0.000634,-38.5,-21.5,-11.87,3a
2019-07-15_180855:700,-0.46417200000000003,-0.019318000000000002,-0.17337,-0.003573,-0.001912,-0.000328,-38.75,-21.5,-12.25,3a
2019-07-15_180855:720,-0.46670500000000004,-0.016266,-0.172333,-0.004152,-0.00124,0.000587,-38.75,-21.5,-12.25,3a
2019-07-15_180855:740,-0.467743,-0.017792,-0.172333,-0.004397,-0.000172,0.001045,-38.5,-21.5,-12.68,3a
2019-07-15_180855:760,-0.465179,-0.017792,-0.170807,-0.004946,0.000865,0.001045,-38.5,-21.5,-12.68,3a
2019-07-15_180855:780,-0.46469099999999997,-0.018799,-0.169281,-0.005282,0.001415,0.001655,-38.5,-21.5,-12.68,3a
2019-07-15_180855:800,-0.46469099999999997,-0.019806,-0.169281,-0.005556,0.0017809999999999998,0.002052,-37.68,-21.870001000000002,-11.87,3a
2019-07-15_180855:820,-0.46316499999999994,-0.021851,-0.166748,-0.005678,0.002177,0.002052,-37.68,-21.870001000000002,-11.87,3a
2019-07-15_180855:840,-0.46569799999999995,-0.022369,-0.168793,-0.005526,0.002239,0.00196,-37.68,-21.5,-12.68,3a
2019-07-15_180855:860,-0.467224,-0.023375999999999997,-0.163696,-0.005465,0.002757,0.001716,-37.68,-21.5,-12.68,3a
2019-07-15_180855:880,-0.465179,-0.024384,-0.162689,-0.005343,0.00352,0.001381,-37.68,-21.5,-12.68,3a
2019-07-15_180855:900,-0.462646,-0.022858,-0.159637,-0.0051600000000000005,0.0041,0.001106,-37.68,-20.75,-12.25,3a
2019-07-15_180855:920,-0.461121,-0.023375999999999997,-0.160126,-0.005068,0.004039,0.000587,-37.68,-20.75,-12.25,3a
2019-07-15_180855:940,-0.45907600000000004,-0.021851,-0.161163,-0.005068,0.003764,0.000221,-38.060001,-21.5,-11.06,3a
2019-07-15_180855:960,-0.459595,-0.021332,-0.160126,-0.004824,0.0031850000000000003,0.000526,-38.060001,-21.5,-11.06,3a
2019-07-15_180855:980,-0.463654,-0.021851,-0.161652,-0.0048850000000000005,0.002574,0.000648,-38.060001,-21.5,-11.06,3a
2019-07-15_180856:000,-0.463654,-0.022369,-0.162689,-0.004946,0.0024519999999999998,0.0007700000000000001,-37.25,-20.75,-11.87,3a
2019-07-15_180856:020,-0.465179,-0.023375999999999997,-0.16217,-0.004946,0.002361,0.000984,-37.25,-20.75,-11.87,3a
2019-07-15_180856:040,-0.46469099999999997,-0.023895,-0.166748,-0.004488000000000001,0.002177,0.001167,-38.060001,-21.870001000000002,-11.5,3a
2019-07-15_180856:060,-0.470276,-0.028961,-0.161163,-0.004397,0.002391,0.001228,-38.060001,-21.870001000000002,-11.5,3a
2019-07-15_180856:080,-0.459595,-0.026427999999999997,-0.163696,-0.003817,0.002971,0.000923,-38.060001,-21.870001000000002,-11.5,3a
2019-07-15_180856:100,-0.462128,-0.028442000000000002,-0.16217,-0.002779,0.0029100000000000003,0.000984,-39.18,-21.18,-11.5,3a
2019-07-15_180856:120,-0.462128,-0.025908999999999998,-0.161652,-0.001864,0.002635,0.000465,-39.18,-21.18,-11.5,3a
2019-07-15_180856:140,-0.461121,-0.025908999999999998,-0.1586,-0.001375,0.002788,0.00016,-38.060001,-21.5,-11.06,3a
2019-07-15_180856:160,-0.461639,-0.025908999999999998,-0.159119,-0.00107,0.002788,-0.000573,-38.060001,-21.5,-11.06,3a
2019-07-15_180856:180,-0.460114,-0.021332,-0.161163,-0.000857,0.0024519999999999998,-0.0012439999999999999,-38.060001,-21.5,-11.06,3a
2019-07-15_180856:200,-0.461121,-0.022858,-0.164215,-0.000734,0.002513,-0.001366,-38.5,-20.75,-11.06,3a
2019-07-15_180856:220,-0.462128,-0.023375999999999997,-0.163696,-0.000857,0.002361,-0.001458,-38.5,-20.75,-11.06,3a
2019-07-15_180856:240,-0.462128,-0.022369,-0.163696,-0.000857,0.002177,-0.001458,-38.5,-21.5,-11.87,3a
2019-07-15_180856:260,-0.463654,-0.023375999999999997,-0.16217,-0.0006730000000000001,0.002116,-0.002098,-38.5,-21.5,-11.87,3a
2019-07-15_180856:280,-0.462646,-0.019318000000000002,-0.159119,-0.000796,0.0024519999999999998,-0.002526,-38.5,-21.5,-11.87,3a
2019-07-15_180856:300,-0.46469099999999997,-0.022369,-0.160645,-0.001009,0.002635,-0.0013050000000000002,-37.68,-21.18,-11.5,3a
2019-07-15_180856:320,-0.462646,-0.020844,-0.157593,-0.001192,0.002971,-0.001183,-37.68,-21.18,-11.5,3a
2019-07-15_180856:340,-0.45806899999999995,-0.022369,-0.159637,-0.000734,0.003093,-0.002983,-38.75,-21.18,-11.06,3a
2019-07-15_180856:360,-0.459595,-0.019318000000000002,-0.159637,-0.000643,0.002788,-0.004052,-38.75,-21.18,-11.06,3a
2019-07-15_180856:380,-0.461639,-0.020325,-0.161163,-0.000246,0.001994,-0.003045,-38.75,-21.18,-11.06,3a
2019-07-15_180856:400,-0.461121,-0.018799,-0.16217,5.9e-05,0.00172,-0.0028309999999999997,-38.5,-20.75,-12.68,3a
2019-07-15_180856:420,-0.461121,-0.017273,-0.161652,0.000273,0.0016589999999999999,-0.002709,-38.5,-20.75,-12.68,3a
2019-07-15_180856:440,-0.462128,-0.013702,-0.16217,0.000212,0.001628,-0.0023120000000000003,-37.68,-21.5,-12.68,3a
2019-07-15_180856:460,-0.461121,-0.014221000000000001,-0.161652,5.9e-05,0.001537,-0.0017929999999999999,-37.68,-21.5,-12.68,3a
2019-07-15_180856:480,-0.46060200000000007,-0.015228,-0.163177,-0.00045999999999999996,0.00114,-0.00045099999999999996,-37.68,-21.5,-12.68,3a
2019-07-15_180856:500,-0.461639,-0.015228,-0.163696,-0.001009,0.000865,-5.4000000000000005e-05,-37.68,-21.5,-11.87,3a
2019-07-15_180856:520,-0.462646,-0.015747,-0.164215,-0.0015279999999999998,0.000468,-0.000176,-37.68,-21.5,-11.87,3a
2019-07-15_180856:540,-0.463654,-0.015747,-0.16217,-0.0017109999999999998,0.000499,-0.000512,-38.060001,-21.5,-11.5,3a
2019-07-15_180856:560,-0.46316499999999994,-0.015747,-0.161652,-0.0017109999999999998,0.000865,-0.00011499999999999999,-38.060001,-21.5,-11.5,3a
2019-07-15_180856:580,-0.46469099999999997,-0.017273,-0.162689,-0.001864,0.000743,0.000343,-38.060001,-21.5,-11.5,3a
2019-07-15_180856:600,-0.465179,-0.017792,-0.16217,-0.0021079999999999996,0.000499,0.000587,-38.75,-21.18,-11.87,3a
2019-07-15_180856:620,-0.46569799999999995,-0.019806,-0.162689,-0.002169,0.000346,0.001381,-38.75,-21.18,-11.87,3a
2019-07-15_180856:640,-0.46926899999999994,-0.019318000000000002,-0.165222,-0.0022600000000000003,0.000743,0.001655,-37.68,-21.870001000000002,-12.25,3a
2019-07-15_180856:660,-0.470276,-0.018799,-0.165222,-0.0025050000000000003,0.001353,0.001258,-37.68,-21.870001000000002,-12.25,3a
2019-07-15_180856:680,-0.46875,-0.019806,-0.164215,-0.002779,0.002177,0.0008619999999999999,-37.68,-21.870001000000002,-12.25,3a
2019-07-15_180856:700,-0.46823100000000006,-0.019806,-0.163177,-0.002779,0.003093,0.0007700000000000001,-37.68,-22.25,-12.25,3a
2019-07-15_180856:720,-0.467224,-0.018799,-0.161163,-0.002718,0.0034289999999999998,0.000587,-37.68,-22.25,-12.25,3a
2019-07-15_180856:740,-0.46316499999999994,-0.019806,-0.159637,-0.002535,0.003886,0.000404,-38.5,-21.18,-12.25,3a
2019-07-15_180856:760,-0.46569799999999995,-0.019318000000000002,-0.159119,-0.0025050000000000003,0.0035810000000000004,0.00028199999999999997,-38.5,-21.18,-12.25,3a
2019-07-15_180856:780,-0.46670500000000004,-0.018799,-0.159119,-0.002657,0.003703,0.000496,-38.5,-21.18,-12.25,3a
2019-07-15_180856:800,-0.46569799999999995,-0.017273,-0.157593,-0.0028399999999999996,0.003978,0.000404,-38.5,-21.5,-12.68,3a
2019-07-15_180856:820,-0.46316499999999994,-0.017792,-0.157074,-0.003237,0.004222,0.000404,-38.5,-21.5,-12.68,3a
2019-07-15_180856:840,-0.462128,-0.01828,-0.156067,-0.0036950000000000004,0.004039,0.000221,-38.75,-21.5,-11.87,3a
2019-07-15_180856:860,-0.462128,-0.019318000000000002,-0.155548,-0.004091,0.00352,0.00016,-38.75,-21.5,-11.87,3a
2019-07-15_180856:880,-0.462646,-0.019318000000000002,-0.157593,-0.004549,0.0029100000000000003,0.000129,-38.75,-21.5,-11.87,3a
2019-07-15_180856:900,-0.462646,-0.020844,-0.157593,-0.00461,0.002574,0.00016,-38.060001,-21.18,-11.5,3a
2019-07-15_180856:920,-0.465179,-0.019806,-0.157593,-0.00461,0.0023,0.00016,-38.060001,-21.18,-11.5,3a
2019-07-15_180856:940,-0.46417200000000003,-0.021332,-0.157593,-0.004488000000000001,0.001964,0.000129,-38.060001,-21.18,-13.5,3a
2019-07-15_180856:960,-0.46569799999999995,-0.020325,-0.157593,-0.004488000000000001,0.001994,-0.00023700000000000001,-38.060001,-21.18,-13.5,3a
2019-07-15_180856:980,-0.463654,-0.020325,-0.155548,-0.004336,0.002177,-0.000725,-38.060001,-21.18,-13.5,3a
2019-07-15_180857:000,-0.463654,-0.01828,-0.155548,-0.004091,0.002055,-0.0009689999999999999,-37.68,-21.870001000000002,-13.5,3a
2019-07-15_180857:020,-0.462646,-0.016753999999999998,-0.154022,-0.004152,0.0019030000000000002,-0.00158,-37.68,-21.870001000000002,-13.5,3a
2019-07-15_180857:040,-0.462646,-0.014221000000000001,-0.156067,-0.004488000000000001,0.0014759999999999999,-0.001366,-37.68,-21.18,-12.25,3a
2019-07-15_180857:060,-0.463654,-0.014221000000000001,-0.154541,-0.0048850000000000005,0.001537,-0.000908,-37.68,-21.18,-12.25,3a
2019-07-15_180857:080,-0.46316499999999994,-0.011687999999999999,-0.154541,-0.005556,0.001353,-0.000634,-37.68,-21.18,-12.25,3a
2019-07-15_180857:100,-0.461639,-0.012695,-0.15506,-0.006197,0.000743,-0.000267,-38.060001,-20.5,-11.06,3a
2019-07-15_180857:120,-0.460114,-0.011687999999999999,-0.156067,-0.006684999999999999,0.00016299999999999998,-0.000389,-38.060001,-20.5,-11.06,3a
2019-07-15_180857:140,-0.461121,-0.010162000000000001,-0.153534,-0.007601,-0.000233,0.000343,-38.060001,-21.5,-13.06,3a
2019-07-15_180857:160,-0.463654,-0.012695,-0.156586,-0.008181,-0.000661,0.001106,-38.060001,-21.5,-13.06,3a
2019-07-15_180857:180,-0.462646,-0.013702,-0.1586,-0.008912999999999999,-0.00063,0.000648,-38.060001,-21.5,-13.06,3a
2019-07-15_180857:200,-0.46060200000000007,-0.013213999999999998,-0.162689,-0.009066,-0.001179,-0.00045099999999999996,-38.060001,-21.870001000000002,-10.75,3a
2019-07-15_180857:220,-0.46060200000000007,-0.011687999999999999,-0.161652,-0.009188,-0.001576,-0.000389,-38.060001,-21.870001000000002,-10.75,3a
2019-07-15_180857:240,-0.466217,-0.015228,-0.164215,-0.009585,-0.00179,0.000343,-38.5,-22.68,-11.87,3a
2019-07-15_180857:260,-0.467224,-0.015228,-0.163696,-0.009309999999999999,-0.001363,0.000221,-38.5,-22.68,-11.87,3a
2019-07-15_180857:280,-0.46417200000000003,-0.013702,-0.165222,-0.00873,-0.000508,0.000465,-38.5,-22.68,-11.87,3a
2019-07-15_180857:300,-0.461639,-0.012177,-0.166748,-0.008211,-0.000172,0.001167,-37.68,-22.25,-11.5,3a
2019-07-15_180857:320,-0.458588,-0.010162000000000001,-0.163177,-0.007937,-0.00044699999999999997,0.001777,-37.68,-22.25,-11.5,3a
2019-07-15_180857:340,-0.46060200000000007,-0.011687999999999999,-0.163696,-0.007998,-0.0009660000000000001,0.002693,-37.68,-21.870001000000002,-11.87,3a
2019-07-15_180857:360,-0.46569799999999995,-0.012177,-0.165741,-0.008059,-0.0008439999999999999,0.003151,-37.68,-21.870001000000002,-11.87,3a
2019-07-15_180857:380,-0.465179,-0.011687999999999999,-0.166748,-0.008181,-0.00044699999999999997,0.003151,-37.68,-21.870001000000002,-11.87,3a
2019-07-15_180857:400,-0.46469099999999997,-0.012177,-0.167755,-0.008516,-0.00011100000000000001,0.003303,-38.75,-22.25,-11.87,3a
2019-07-15_180857:420,-0.461639,-0.013213999999999998,-0.164703,-0.008578,7.2e-05,0.003578,-38.75,-22.25,-11.87,3a
2019-07-15_180857:440,-0.461639,-0.014740000000000001,-0.164703,-0.008791,0.00022400000000000002,0.003517,-38.5,-21.18,-11.06,3a
2019-07-15_180857:460,-0.461121,-0.016266,-0.164215,-0.008669,7.2e-05,0.00251,-38.5,-21.18,-11.06,3a
2019-07-15_180857:480,-0.46417200000000003,-0.017273,-0.167755,-0.008608,0.000407,0.001716,-38.5,-21.18,-11.06,3a
2019-07-15_180857:500,-0.46417200000000003,-0.01828,-0.168793,-0.008272,0.00056,0.001838,-38.060001,-21.5,-11.87,3a
2019-07-15_180857:520,-0.463654,-0.016266,-0.167755,-0.008333,0.0008039999999999999,0.001503,-38.060001,-21.5,-11.87,3a
2019-07-15_180857:540,-0.46316499999999994,-0.015747,-0.1698,-0.007723000000000001,0.0008960000000000001,0.001258,-38.75,-21.5,-11.87,3a
2019-07-15_180857:560,-0.46469099999999997,-0.014740000000000001,-0.167267,-0.007601,0.0010789999999999999,0.001258,-38.75,-21.5,-11.87,3a
2019-07-15_180857:580,-0.463654,-0.014221000000000001,-0.167267,-0.007540000000000001,0.001415,0.001106,-38.75,-21.5,-11.87,3a
2019-07-15_180857:600,-0.46316499999999994,-0.013702,-0.166748,-0.007540000000000001,0.001628,0.001228,-37.68,-21.870001000000002,-11.87,3a
2019-07-15_180857:620,-0.461639,-0.014740000000000001,-0.166748,-0.007540000000000001,0.001537,0.001228,-37.68,-21.870001000000002,-11.87,3a
2019-07-15_180857:640,-0.459595,-0.013213999999999998,-0.165741,-0.007876000000000001,0.0012619999999999999,0.001228,-37.68,-21.18,-12.25,3a
2019-07-15_180857:660,-0.461121,-0.013213999999999998,-0.164703,-0.008059,0.001018,0.001228,-37.68,-21.18,-12.25,3a
2019-07-15_180857:680,-0.46417200000000003,-0.012177,-0.166229,-0.008181,0.00114,0.001258,-37.68,-21.18,-12.25,3a
2019-07-15_180857:700,-0.462646,-0.013702,-0.166229,-0.00873,0.001415,0.001228,-38.5,-21.870001000000002,-10.75,3a
2019-07-15_180857:720,-0.462646,-0.015228,-0.163177,-0.008791,0.001018,0.001381,-38.5,-21.870001000000002,-10.75,3a
2019-07-15_180857:740,-0.46469099999999997,-0.015747,-0.167755,-0.008791,0.001537,0.001381,-38.060001,-21.870001000000002,-11.06,3a
2019-07-15_180857:760,-0.461639,-0.014740000000000001,-0.162689,-0.008578,0.0017809999999999998,0.001258,-38.060001,-21.870001000000002,-11.06,3a
2019-07-15_180857:780,-0.46060200000000007,-0.017273,-0.166748,-0.008211,0.001537,0.001228,-38.060001,-21.870001000000002,-11.06,3a
2019-07-15_180857:800,-0.460114,-0.015228,-0.167755,-0.007784,0.001353,0.001106,-39.18,-21.5,-10.75,3a
2019-07-15_180857:820,-0.462646,-0.016266,-0.164215,-0.007204,0.001018,0.000648,-39.18,-21.5,-10.75,3a
2019-07-15_180857:840,-0.462646,-0.014221000000000001,-0.166229,-0.0069299999999999995,0.0010789999999999999,-0.000176,-38.060001,-21.5,-11.5,3a
2019-07-15_180857:860,-0.462646,-0.012695,-0.166748,-0.0066549999999999995,0.0010789999999999999,0.000404,-38.060001,-21.5,-11.5,3a
2019-07-15_180857:880,-0.462646,-0.014740000000000001,-0.168274,-0.006594,0.0012619999999999999,0.0008619999999999999,-38.060001,-21.5,-11.5,3a
2019-07-15_180857:900,-0.463654,-0.012695,-0.165741,-0.006258,0.0012619999999999999,0.000526,-38.060001,-21.870001000000002,-11.06,3a
2019-07-15_180857:920,-0.462128,-0.015228,-0.166748,-0.005556,0.001415,0.000709,-38.060001,-21.870001000000002,-11.06,3a
2019-07-15_180857:940,-0.46060200000000007,-0.014221000000000001,-0.169281,-0.004824,0.001598,0.000526,-39.18,-22.25,-10.75,3a
2019-07-15_180857:960,-0.463654,-0.013213999999999998,-0.167267,-0.004091,0.0016589999999999999,0.000587,-39.18,-22.25,-10.75,3a
2019-07-15_180857:980,-0.463654,-0.013702,-0.169281,-0.003573,0.001537,0.000831,-39.18,-22.25,-10.75,3a
2019-07-15_180858:000,-0.462646,-0.012177,-0.167755,-0.0031149999999999997,0.00172,7.000000000000001e-06,-38.75,-21.870001000000002,-9.87,3a
2019-07-15_180858:020,-0.46316499999999994,-0.012695,-0.165741,-0.0028399999999999996,0.001994,0.000526,-38.75,-21.870001000000002,-9.87,3a
2019-07-15_180858:040,-0.462128,-0.012177,-0.166748,-0.002657,0.001842,0.00132,-37.68,-23.0,-11.5,3a
2019-07-15_180858:060,-0.46417200000000003,-0.010651,-0.167267,-0.002657,0.001842,0.000587,-37.68,-23.0,-11.5,3a
2019-07-15_180858:080,-0.461639,-0.011687999999999999,-0.167755,-0.0025050000000000003,0.001994,-0.000176,-37.68,-23.0,-11.5,3a
2019-07-15_180858:100,-0.460114,-0.010162000000000001,-0.166748,-0.002657,0.001994,-0.000328,-37.68,-21.5,-11.5,3a
2019-07-15_180858:120,-0.46316499999999994,-0.010651,-0.167755,-0.002779,0.0019030000000000002,0.000343,-37.68,-21.5,-11.5,3a
2019-07-15_180858:140,-0.46569799999999995,-0.012177,-0.171844,-0.002718,0.002177,0.000465,-38.5,-22.68,-12.25,3a
2019-07-15_180858:160,-0.465179,-0.012177,-0.167755,-0.0025050000000000003,0.002513,0.000343,-38.5,-22.68,-12.25,3a
2019-07-15_180858:180,-0.463654,-0.011169,-0.167267,-0.002321,0.003124,0.000496,-38.5,-22.68,-12.25,3a
2019-07-15_180858:200,-0.462646,-0.010162000000000001,-0.166748,-0.002657,0.003246,0.0008619999999999999,-37.68,-21.870001000000002,-10.75,3a
2019-07-15_180858:220,-0.46417200000000003,-0.011169,-0.167755,-0.003054,0.003124,0.001228,-37.68,-21.870001000000002,-10.75,3a
2019-07-15_180858:240,-0.462646,-0.013213999999999998,-0.166748,-0.0032979999999999997,0.002757,0.001167,-37.68,-21.5,-11.5,3a
2019-07-15_180858:260,-0.465179,-0.012695,-0.166229,-0.0034509999999999996,0.0031850000000000003,0.000648,-37.68,-21.5,-11.5,3a
2019-07-15_180858:280,-0.465179,-0.014221000000000001,-0.163696,-0.00339,0.00349,0.000343,-37.68,-21.5,-11.5,3a
2019-07-15_180858:300,-0.46316499999999994,-0.015747,-0.16217,-0.00339,0.003886,0.000465,-38.060001,-21.870001000000002,-12.25,3a
2019-07-15_180858:320,-0.46417200000000003,-0.015747,-0.161652,-0.0029010000000000004,0.003886,0.000496,-38.060001,-21.870001000000002,-12.25,3a
2019-07-15_180858:340,-0.462646,-0.013213999999999998,-0.16217,-0.002443,0.003764,-0.00011499999999999999,-39.560001,-22.25,-11.5,3a
2019-07-15_180858:360,-0.46316499999999994,-0.014221000000000001,-0.161163,-0.0022600000000000003,0.003307,-0.00045099999999999996,-39.560001,-22.25,-11.5,3a
2019-07-15_180858:380,-0.465179,-0.013702,-0.161163,-0.001925,0.003368,7.000000000000001e-06,-39.560001,-22.25,-11.5,3a
2019-07-15_180858:400,-0.463654,-0.014740000000000001,-0.161652,-0.0018030000000000001,0.0036420000000000003,-0.000176,-38.060001,-21.870001000000002,-11.06,3a
2019-07-15_180858:420,-0.462646,-0.014740000000000001,-0.161163,-0.00165,0.00352,-0.00011499999999999999,-38.060001,-21.870001000000002,-11.06,3a
2019-07-15_180858:440,-0.46316499999999994,-0.013702,-0.161163,-0.0015279999999999998,0.00349,-0.00011499999999999999,-38.5,-21.5,-9.87,3a
2019-07-15_180858:460,-0.46316499999999994,-0.014221000000000001,-0.1586,-0.0015279999999999998,0.00349,-0.00023700000000000001,-38.5,-21.5,-9.87,3a
2019-07-15_180858:480,-0.462646,-0.013702,-0.159637,-0.001467,0.003246,-0.000389,-38.5,-21.5,-9.87,3a
2019-07-15_180858:500,-0.462646,-0.013702,-0.159637,-0.001467,0.003124,-0.000389,-38.060001,-21.5,-9.56,3a
2019-07-15_180858:520,-0.462128,-0.013213999999999998,-0.159637,-0.001467,0.0029100000000000003,-0.000664,-38.060001,-21.5,-9.56,3a
2019-07-15_180858:540,-0.46316499999999994,-0.012695,-0.161163,-0.0015279999999999998,0.0024519999999999998,-0.000512,-38.5,-21.870001000000002,-10.25,3a
2019-07-15_180858:560,-0.46060200000000007,-0.012695,-0.157593,-0.0015279999999999998,0.002116,-0.000389,-38.5,-21.870001000000002,-10.25,3a
2019-07-15_180858:580,-0.460114,-0.011687999999999999,-0.159637,-0.0017109999999999998,0.001628,0.000129,-38.5,-21.870001000000002,-10.25,3a
2019-07-15_180858:600,-0.46417200000000003,-0.011687999999999999,-0.1586,-0.0018030000000000001,0.001292,0.000587,-38.5,-21.5,-10.75,3a
2019-07-15_180858:620,-0.46875,-0.011687999999999999,-0.159119,-0.0021079999999999996,0.0014759999999999999,0.0007700000000000001,-38.5,-21.5,-10.75,3a
2019-07-15_180858:640,-0.46926899999999994,-0.012695,-0.161652,-0.002321,0.002055,0.000923,-38.5,-22.25,-10.75,3a
2019-07-15_180858:660,-0.467743,-0.013702,-0.159637,-0.002718,0.002391,0.000831,-38.5,-22.25,-10.75,3a
2019-07-15_180858:680,-0.467743,-0.015747,-0.160645,-0.0029010000000000004,0.0029100000000000003,0.000648,-38.5,-22.25,-10.75,3a
2019-07-15_180858:700,-0.469757,-0.016753999999999998,-0.16217,-0.0029010000000000004,0.00349,0.000129,-38.5,-21.870001000000002,-11.06,3a
2019-07-15_180858:720,-0.46823100000000006,-0.017792,-0.162689,-0.002443,0.004375,7.000000000000001e-06,-38.5,-21.870001000000002,-11.06,3a
2019-07-15_180858:740,-0.466217,-0.017273,-0.160126,-0.0015279999999999998,0.005046,-0.000267,-38.5,-21.870001000000002,-11.5,3a
2019-07-15_180858:760,-0.46316499999999994,-0.016266,-0.156586,-0.000796,0.005412,-0.000328,-38.5,-21.870001000000002,-11.5,3a
2019-07-15_180858:780,-0.46316499999999994,-0.014740000000000001,-0.154541,-2e-06,0.004894,-0.000176,-38.5,-21.870001000000002,-11.5,3a
2019-07-15_180858:800,-0.46316499999999994,-0.013213999999999998,-0.154022,0.000608,0.0045579999999999996,-0.00011499999999999999,-38.75,-21.870001000000002,-10.75,3a
2019-07-15_180858:820,-0.46417200000000003,-0.013213999999999998,-0.154541,0.001066,0.004436,-0.000176,-38.75,-21.870001000000002,-10.75,3a
2019-07-15_180858:840,-0.462128,-0.012695,-0.154022,0.0012490000000000001,0.003825,-0.000267,-38.5,-21.870001000000002,-9.87,3a
2019-07-15_180858:860,-0.461121,-0.011687999999999999,-0.152008,0.000944,0.0034289999999999998,-0.000573,-38.5,-21.870001000000002,-9.87,3a
2019-07-15_180858:880,-0.461639,-0.010162000000000001,-0.153015,0.000608,0.002788,-0.000512,-38.5,-21.870001000000002,-9.87,3a
2019-07-15_180858:900,-0.461639,-0.009644,-0.154022,-6.3e-05,0.002116,-0.000267,-38.5,-21.5,-9.56,3a
2019-07-15_180858:920,-0.462646,-0.010162000000000001,-0.152008,-0.000582,0.001537,-0.0008470000000000001,-38.5,-21.5,-9.56,3a
2019-07-15_180858:940,-0.46469099999999997,-0.007599,-0.150482,-0.001314,0.001292,-0.000908,-38.75,-21.18,-10.25,3a
2019-07-15_180858:960,-0.46569799999999995,-0.010162000000000001,-0.152527,-0.002169,0.0010789999999999999,0.00028199999999999997,-38.75,-21.18,-10.25,3a
2019-07-15_180858:980,-0.46469099999999997,-0.010162000000000001,-0.15506,-0.002932,0.000621,0.00028199999999999997,-38.75,-21.18,-10.25,3a
2019-07-15_180859:000,-0.46316499999999994,-0.011687999999999999,-0.156067,-0.0033280000000000002,0.00016299999999999998,-0.000573,-38.75,-21.870001000000002,-11.06,3a
2019-07-15_180859:020,-0.462646,-0.011687999999999999,-0.154022,-0.003664,-0.000508,-0.001,-38.75,-21.870001000000002,-11.06,3a
2019-07-15_180859:040,-0.46316499999999994,-0.012695,-0.157074,-0.003573,-0.001027,0.00028199999999999997,-38.5,-21.5,-10.75,3a
2019-07-15_180859:060,-0.46569799999999995,-0.013213999999999998,-0.157074,-0.0033280000000000002,-0.001302,0.000984,-38.5,-21.5,-10.75,3a
2019-07-15_180859:080,-0.46670500000000004,-0.012695,-0.158112,-0.003176,-0.001027,0.001228,-38.5,-21.5,-10.75,3a
2019-07-15_180859:100,-0.46670500000000004,-0.011169,-0.157074,-0.003054,-0.000325,0.001838,-38.060001,-22.68,-12.25,3a
2019-07-15_180859:120,-0.466217,-0.011687999999999999,-0.158112,-0.003512,-0.00011100000000000001,0.0021739999999999997,-38.060001,-22.68,-12.25,3a
2019-07-15_180859:140,-0.46670500000000004,-0.012695,-0.157074,-0.004,0.00022400000000000002,0.002693,-38.5,-21.870001000000002,-10.75,3a
2019-07-15_180859:160,-0.46569799999999995,-0.013213999999999998,-0.157074,-0.004549,0.000285,0.0026320000000000002,-38.5,-21.870001000000002,-10.75,3a
2019-07-15_180859:180,-0.46417200000000003,-0.016753999999999998,-0.161652,-0.005007,0.000133,0.0021739999999999997,-38.5,-21.870001000000002,-10.75,3a
2019-07-15_180859:200,-0.46670500000000004,-0.017792,-0.158112,-0.005129,-5e-05,0.001655,-38.060001,-21.5,-11.87,3a
2019-07-15_180859:220,-0.466217,-0.017792,-0.158112,-0.005068,0.00022400000000000002,0.001655,-38.060001,-21.5,-11.87,3a
2019-07-15_180859:240,-0.463654,-0.019318000000000002,-0.1586,-0.004671,0.00056,0.00196,-39.18,-22.25,-11.5,3a
2019-07-15_180859:260,-0.462646,-0.019806,-0.1586,-0.004213000000000001,0.000621,0.001045,-39.18,-22.25,-11.5,3a
2019-07-15_180859:280,-0.46316499999999994,-0.017792,-0.160126,-0.003878,0.000346,0.000709,-39.18,-22.25,-11.5,3a
2019-07-15_180859:300,-0.463654,-0.019318000000000002,-0.160645,-0.003664,0.000133,0.000831,-38.75,-21.5,-10.75,3a
2019-07-15_180859:320,-0.465179,-0.014740000000000001,-0.160645,-0.0034509999999999996,7.2e-05,0.000465,-38.75,-21.5,-10.75,3a
2019-07-15_180859:340,-0.461121,-0.015228,-0.161652,-0.003512,0.00022400000000000002,0.000221,-39.18,-21.5,-11.5,3a
2019-07-15_180859:360,-0.461121,-0.014221000000000001,-0.160645,-0.003573,0.000133,0.00028199999999999997,-39.18,-21.5,-11.5,3a
2019-07-15_180859:380,-0.46469099999999997,-0.014740000000000001,-0.163177,-0.003817,1.1e-05,0.00028199999999999997,-39.18,-21.5,-11.5,3a
2019-07-15_180859:400,-0.463654,-0.014221000000000001,-0.164215,-0.003939,0.00016299999999999998,0.000404,-39.560001,-21.18,-11.87,3a
2019-07-15_180859:420,-0.462646,-0.013702,-0.164703,-0.003939,0.000407,0.000496,-39.560001,-21.18,-11.87,3a
2019-07-15_180859:440,-0.460114,-0.014740000000000001,-0.164703,-0.004152,0.000468,0.000587,-39.18,-22.25,-9.87,3a
2019-07-15_180859:460,-0.46060200000000007,-0.014740000000000001,-0.163696,-0.00403,0.000346,0.000923,-39.18,-22.25,-9.87,3a
2019-07-15_180859:480,-0.462646,-0.015228,-0.163696,-0.004091,0.00022400000000000002,0.000709,-39.18,-22.25,-9.87,3a
2019-07-15_180859:500,-0.463654,-0.015228,-0.165222,-0.004213000000000001,0.000407,0.001167,-38.5,-21.870001000000002,-11.06,3a
2019-07-15_180859:520,-0.463654,-0.017273,-0.165222,-0.004091,0.000285,0.000923,-38.5,-21.870001000000002,-11.06,3a
2019-07-15_180859:540,-0.462646,-0.017273,-0.165741,-0.004,0.000285,0.0008619999999999999,-38.5,-21.5,-11.5,3a
2019-07-15_180859:560,-0.461639,-0.01828,-0.164703,-0.003817,0.000133,0.000648,-38.5,-21.5,-11.5,3a
2019-07-15_180859:580,-0.46417200000000003,-0.017273,-0.165222,-0.0036950000000000004,0.00022400000000000002,0.000404,-38.5,-21.5,-11.5,3a
2019-07-15_180859:600,-0.463654,-0.017273,-0.166229,-0.00339,0.000285,0.000221,-38.060001,-21.5,-10.25,3a
2019-07-15_180859:620,-0.467224,-0.016266,-0.166229,-0.0033280000000000002,0.000865,0.00028199999999999997,-38.060001,-21.5,-10.25,3a
2019-07-15_180859:640,-0.46569799999999995,-0.015747,-0.165741,-0.0032979999999999997,0.001353,0.000221,-38.5,-21.870001000000002,-11.5,3a
2019-07-15_180859:660,-0.46417200000000003,-0.016266,-0.164703,-0.002993,0.001628,7.000000000000001e-06,-38.5,-21.870001000000002,-11.5,3a
2019-07-15_180859:680,-0.461639,-0.013702,-0.164215,-0.003176,0.00172,-5.4000000000000005e-05,-38.5,-21.870001000000002,-11.5,3a
2019-07-15_180859:700,-0.461121,-0.015747,-0.164215,-0.0031149999999999997,0.0014759999999999999,7.000000000000001e-06,-38.75,-20.75,-12.25,3a
2019-07-15_180859:720,-0.46316499999999994,-0.014740000000000001,-0.163177,-0.0031149999999999997,0.001628,7.000000000000001e-06,-38.75,-20.75,-12.25,3a
2019-07-15_180859:740,-0.46316499999999994,-0.014221000000000001,-0.164703,-0.0031149999999999997,0.001598,7.000000000000001e-06,-38.5,-21.5,-11.87,3a
2019-07-15_180859:760,-0.46060200000000007,-0.014740000000000001,-0.163696,-0.003054,0.001415,-0.00011499999999999999,-38.5,-21.5,-11.87,3a
2019-07-15_180859:780,-0.462128,-0.016266,-0.163177,-0.003054,0.001353,-5.4000000000000005e-05,-38.5,-21.5,-11.87,3a
2019-07-15_180859:800,-0.463654,-0.013702,-0.162689,-0.002993,0.001292,7.000000000000001e-06,-38.060001,-21.870001000000002,-11.87,3a
2019-07-15_180859:820,-0.46469099999999997,-0.015228,-0.16217,-0.0029010000000000004,0.001292,0.000129,-38.060001,-21.870001000000002,-11.87,3a
2019-07-15_180859:840,-0.46417200000000003,-0.016266,-0.163696,-0.0028399999999999996,0.0016589999999999999,-0.000908,-38.5,-21.5,-11.5,3a
2019-07-15_180859:860,-0.46417200000000003,-0.013213999999999998,-0.16217,-0.002932,0.001842,-0.00045099999999999996,-38.5,-21.5,-11.5,3a
2019-07-15_180859:880,-0.465179,-0.014221000000000001,-0.163696,-0.002657,0.0017809999999999998,0.0007700000000000001,-38.5,-21.5,-11.5,3a
2019-07-15_180859:900,-0.461639,-0.014740000000000001,-0.162689,-0.003054,0.0017809999999999998,0.000343,-38.060001,-21.870001000000002,-10.75,3a
2019-07-15_180859:920,-0.459595,-0.015228,-0.163177,-0.002718,0.0017809999999999998,-0.000573,-38.060001,-21.870001000000002,-10.75,3a
2019-07-15_180859:940,-0.45907600000000004,-0.013702,-0.162689,-0.002718,0.0010789999999999999,-0.0010609999999999999,-38.75,-22.25,-12.25,3a
2019-07-15_180859:960,-0.460114,-0.014221000000000001,-0.162689,-0.002718,0.000743,-0.000176,-38.75,-22.25,-12.25,3a
2019-07-15_180859:980,-0.46316499999999994,-0.013702,-0.164703,-0.0028399999999999996,0.00056,0.000404,-38.75,-22.25,-12.25,3a
2019-07-15_180900:000,-0.46469099999999997,-0.014740000000000001,-0.164703,-0.002779,0.0008960000000000001,6.8e-05,-37.25,-21.18,-10.75,3a
2019-07-15_180900:020,-0.463654,-0.014221000000000001,-0.162689,-0.0028399999999999996,0.001201,0.000221,-37.25,-21.18,-10.75,3a
2019-07-15_180900:040,-0.46316499999999994,-0.014221000000000001,-0.165222,-0.003054,0.0012619999999999999,0.000465,-38.060001,-21.870001000000002,-11.87,3a
2019-07-15_180900:060,-0.46316499999999994,-0.014221000000000001,-0.163177,-0.00339,0.0012619999999999999,0.000648,-38.060001,-21.870001000000002,-11.87,3a
2019-07-15_180900:080,-0.463654,-0.014221000000000001,-0.164703,-0.003573,0.00114,0.0007700000000000001,-38.060001,-21.870001000000002,-11.87,3a
2019-07-15_180900:100,-0.46417200000000003,-0.015228,-0.165741,-0.003817,0.001201,0.000404,-37.68,-21.18,-12.68,3a
2019-07-15_180900:120,-0.46569799999999995,-0.016266,-0.164215,-0.0036950000000000004,0.001628,0.00016,-37.68,-21.18,-12.68,3a
2019-07-15_180900:140,-0.467224,-0.017273,-0.165222,-0.004,0.001994,0.000404,-38.060001,-21.5,-12.25,3a
2019-07-15_180900:160,-0.46316499999999994,-0.01828,-0.163696,-0.0036340000000000005,0.002574,0.00016,-38.060001,-21.5,-12.25,3a
2019-07-15_180900:180,-0.462646,-0.018799,-0.164703,-0.0032979999999999997,0.002513,-0.000908,-38.060001,-21.5,-12.25,3a
2019-07-15_180900:200,-0.46060200000000007,-0.017273,-0.164215,-0.0025960000000000002,0.002513,-0.0008470000000000001,-37.68,-21.5,-11.87,3a
2019-07-15_180900:220,-0.45907600000000004,-0.016753999999999998,-0.164703,-0.002169,0.002055,-0.000786,-37.68,-21.5,-11.87,3a
2019-07-15_180900:240,-0.45907600000000004,-0.014740000000000001,-0.166748,-0.001986,0.001598,-0.0013050000000000002,-38.75,-22.25,-11.06,3a
2019-07-15_180900:260,-0.461121,-0.014740000000000001,-0.165741,-0.001772,0.001415,-0.0013050000000000002,-38.75,-22.25,-11.06,3a
2019-07-15_180900:280,-0.461121,-0.012695,-0.167267,-0.0018030000000000001,0.001415,-0.0010609999999999999,-38.75,-22.25,-11.06,3a
2019-07-15_180900:300,-0.460114,-0.011687999999999999,-0.169281,-0.001772,0.0012619999999999999,-0.000725,-37.68,-21.5,-12.25,3a
2019-07-15_180900:320,-0.45706199999999997,-0.011687999999999999,-0.168274,-0.001772,0.000743,-0.000573,-37.68,-21.5,-12.25,3a
2019-07-15_180900:340,-0.458588,-0.010651,-0.167755,-0.0018030000000000001,0.000499,-0.000573,-38.5,-21.870001000000002,-11.06,3a
2019-07-15_180900:360,-0.463654,-0.011169,-0.167755,-0.002169,0.00022400000000000002,-0.000725,-38.5,-21.870001000000002,-11.06,3a
2019-07-15_180900:380,-0.462128,-0.011687999999999999,-0.169281,-0.002382,0.0008039999999999999,-0.00011499999999999999,-38.5,-21.870001000000002,-11.06,3a
2019-07-15_180900:400,-0.467743,-0.011687999999999999,-0.1698,-0.002718,0.001292,6.8e-05,-38.060001,-22.25,-10.75,3a
2019-07-15_180900:420,-0.465179,-0.012177,-0.167755,-0.002779,0.001628,7.000000000000001e-06,-38.060001,-22.25,-10.75,3a
2019-07-15_180900:440,-0.46417200000000003,-0.014221000000000001,-0.169281,-0.002321,0.0019030000000000002,0.000221,-38.060001,-21.870001000000002,-11.5,3a
2019-07-15_180900:460,-0.461639,-0.013702,-0.166748,-0.002199,0.002177,0.000496,-38.060001,-21.870001000000002,-11.5,3a
2019-07-15_180900:480,-0.461639,-0.012177,-0.167267,-0.001986,0.002177,0.000831,-38.060001,-21.870001000000002,-11.5,3a
2019-07-15_180900:500,-0.46060200000000007,-0.012177,-0.167755,-0.0021079999999999996,0.002177,0.000923,-37.68,-21.870001000000002,-11.5,3a
2019-07-15_180900:520,-0.461121,-0.010651,-0.165741,-0.002443,0.002116,0.000709,-37.68,-21.870001000000002,-11.5,3a
2019-07-15_180900:540,-0.463654,-0.011687999999999999,-0.165741,-0.002779,0.0019030000000000002,0.0007700000000000001,-38.5,-21.5,-11.87,3a
2019-07-15_180900:560,-0.46417200000000003,-0.013702,-0.163177,-0.002993,0.001994,0.000526,-38.5,-21.5,-11.87,3a
2019-07-15_180900:580,-0.46316499999999994,-0.015747,-0.170319,-0.003176,0.002513,0.000404,-38.5,-21.5,-11.87,3a
2019-07-15_180900:600,-0.46670500000000004,-0.015747,-0.171326,-0.003237,0.002574,0.000587,-38.5,-21.870001000000002,-11.87,3a
2019-07-15_180900:620,-0.462646,-0.016266,-0.161652,-0.002535,0.0029100000000000003,0.000923,-38.5,-21.870001000000002,-11.87,3a
2019-07-15_180900:640,-0.467743,-0.015228,-0.166748,-0.002443,0.002788,0.000709,-38.5,-22.25,-10.75,3a
2019-07-15_180900:660,-0.46417200000000003,-0.016266,-0.163177,-0.001925,0.00352,0.000831,-38.5,-22.25,-10.75,3a
2019-07-15_180900:680,-0.462646,-0.015228,-0.163177,-0.001925,0.003764,0.000831,-38.5,-22.25,-10.75,3a
2019-07-15_180900:700,-0.460114,-0.016266,-0.162689,-0.001772,0.0036420000000000003,0.0008619999999999999,-37.68,-22.25,-12.25,3a
2019-07-15_180900:720,-0.462646,-0.015228,-0.163696,-0.0017109999999999998,0.00349,0.000587,-37.68,-22.25,-12.25,3a
2019-07-15_180900:740,-0.463654,-0.015228,-0.163177,-0.001772,0.003246,-0.000176,-38.060001,-21.870001000000002,-13.06,3a
2019-07-15_180900:760,-0.462128,-0.013702,-0.162689,-0.0021079999999999996,0.003093,0.000587,-38.060001,-21.870001000000002,-13.06,3a
2019-07-15_180900:780,-0.46875,-0.013213999999999998,-0.159119,-0.002382,0.002849,0.001442,-38.060001,-21.870001000000002,-13.06,3a
2019-07-15_180900:800,-0.462646,-0.017273,-0.160645,-0.0028399999999999996,0.003124,0.001045,-38.5,-21.870001000000002,-11.5,3a
2019-07-15_180900:820,-0.462646,-0.017273,-0.159119,-0.0025050000000000003,0.003124,7.000000000000001e-06,-38.5,-21.870001000000002,-11.5,3a
2019-07-15_180900:840,-0.459595,-0.017792,-0.161163,-0.002169,0.002971,-0.00023700000000000001,-38.75,-21.870001000000002,-11.87,3a
2019-07-15_180900:860,-0.459595,-0.019318000000000002,-0.161163,-0.001314,0.0016589999999999999,6.8e-05,-38.75,-21.870001000000002,-11.87,3a
2019-07-15_180900:880,-0.463654,-0.021332,-0.159637,-0.000246,0.00114,0.000587,-38.75,-21.870001000000002,-11.87,3a
2019-07-15_180900:900,-0.46469099999999997,-0.019806,-0.159637,0.000547,0.001353,0.000129,-39.18,-21.870001000000002,-10.25,3a
2019-07-15_180900:920,-0.46823100000000006,-0.017792,-0.157593,0.001005,0.0023,7.000000000000001e-06,-39.18,-21.870001000000002,-10.25,3a
2019-07-15_180900:940,-0.470276,-0.014740000000000001,-0.159119,0.000669,0.003368,0.000343,-38.75,-21.870001000000002,-11.87,3a
2019-07-15_180900:960,-0.465179,-0.010651,-0.161652,-0.000124,0.003124,0.000831,-38.75,-21.870001000000002,-11.87,3a
2019-07-15_180900:980,-0.462128,-0.010651,-0.161163,-0.001192,0.002849,0.000648,-38.75,-21.870001000000002,-11.87,3a
2019-07-15_180901:000,-0.46469099999999997,-0.013702,-0.159637,-0.0017109999999999998,0.0029100000000000003,0.000648,-38.5,-22.25,-12.25,3a
2019-07-15_180901:020,-0.46316499999999994,-0.013213999999999998,-0.157074,-0.002993,0.0029100000000000003,0.000496,-38.5,-22.25,-12.25,3a
2019-07-15_180901:040,-0.46316499999999994,-0.013702,-0.1586,-0.0034509999999999996,0.002849,0.000496,-38.060001,-21.5,-12.68,3a
2019-07-15_180901:060,-0.46469099999999997,-0.014740000000000001,-0.158112,-0.004488000000000001,0.002696,0.001045,-38.060001,-21.5,-12.68,3a
2019-07-15_180901:080,-0.461121,-0.017792,-0.159119,-0.004793,0.0024519999999999998,-5.4000000000000005e-05,-38.060001,-21.5,-12.68,3a
2019-07-15_180901:100,-0.465179,-0.01828,-0.160126,-0.0048850000000000005,0.002177,-0.00011499999999999999,-39.18,-21.5,-11.5,3a
2019-07-15_180901:120,-0.467224,-0.018799,-0.158112,-0.004488000000000001,0.0023,0.00016,-39.18,-21.5,-11.5,3a
2019-07-15_180901:140,-0.467743,-0.021851,-0.158112,-0.003817,0.002574,-0.000176,-39.560001,-21.5,-11.06,3a
2019-07-15_180901:160,-0.467743,-0.020325,-0.1586,-0.003237,0.002971,7.000000000000001e-06,-39.560001,-21.5,-11.06,3a
2019-07-15_180901:180,-0.466217,-0.019318000000000002,-0.157593,-0.0025050000000000003,0.0034289999999999998,0.000129,-39.560001,-21.5,-11.06,3a
2019-07-15_180901:200,-0.466217,-0.017273,-0.158112,-0.002199,0.00349,7.000000000000001e-06,-38.060001,-21.5,-11.87,3a
2019-07-15_180901:220,-0.462646,-0.015747,-0.156586,-0.001864,0.003368,0.00016,-38.060001,-21.5,-11.87,3a
2019-07-15_180901:240,-0.461121,-0.016753999999999998,-0.157074,-0.001864,0.0031850000000000003,6.8e-05,-38.75,-21.5,-11.5,3a
2019-07-15_180901:260,-0.461639,-0.014221000000000001,-0.156067,-0.0018030000000000001,0.002391,-5.4000000000000005e-05,-38.75,-21.5,-11.5,3a
2019-07-15_180901:280,-0.463654,-0.015228,-0.156067,-0.001925,0.0023,6.8e-05,-38.75,-21.5,-11.5,3a
2019-07-15_180901:300,-0.46417200000000003,-0.012695,-0.156586,-0.0021079999999999996,0.002177,7.000000000000001e-06,-37.25,-21.870001000000002,-10.75,3a
2019-07-15_180901:320,-0.465179,-0.014740000000000001,-0.156067,-0.002199,0.0019030000000000002,0.000343,-37.25,-21.870001000000002,-10.75,3a
2019-07-15_180901:340,-0.463654,-0.013702,-0.157074,-0.002443,0.0017809999999999998,0.000343,-38.5,-21.870001000000002,-11.06,3a
2019-07-15_180901:360,-0.463654,-0.013702,-0.157074,-0.002718,0.001537,0.000496,-38.5,-21.870001000000002,-11.06,3a
2019-07-15_180901:380,-0.463654,-0.013213999999999998,-0.158112,-0.002993,0.0010789999999999999,0.000709,-38.5,-21.870001000000002,-11.06,3a
2019-07-15_180901:400,-0.46316499999999994,-0.014221000000000001,-0.157593,-0.003176,0.000743,0.0007700000000000001,-38.5,-21.5,-12.68,3a
2019-07-15_180901:420,-0.465179,-0.014221000000000001,-0.157593,-0.003573,0.0009570000000000001,0.0007700000000000001,-38.5,-21.5,-12.68,3a
2019-07-15_180901:440,-0.46875,-0.015747,-0.158112,-0.003817,0.001415,0.000923,-38.5,-21.870001000000002,-12.25,3a
2019-07-15_180901:460,-0.46926899999999994,-0.015747,-0.1586,-0.003939,0.001598,0.000923,-38.5,-21.870001000000002,-12.25,3a
2019-07-15_180901:480,-0.46926899999999994,-0.016266,-0.157593,-0.004,0.0023,0.000984,-38.5,-21.870001000000002,-12.25,3a
2019-07-15_180901:500,-0.467224,-0.016753999999999998,-0.157074,-0.003878,0.002757,0.001045,-38.75,-21.5,-12.25,3a
2019-07-15_180901:520,-0.46469099999999997,-0.015747,-0.154541,-0.0037560000000000002,0.002849,0.001045,-38.75,-21.5,-12.25,3a
2019-07-15_180901:540,-0.46316499999999994,-0.015747,-0.156067,-0.003664,0.002513,0.000984,-38.75,-21.870001000000002,-12.25,3a
2019-07-15_180901:560,-0.462128,-0.015747,-0.155548,-0.003817,0.002239,0.001106,-38.75,-21.870001000000002,-12.25,3a
2019-07-15_180901:580,-0.46417200000000003,-0.016266,-0.15506,-0.003817,0.001842,0.001167,-38.75,-21.870001000000002,-12.25,3a
2019-07-15_180901:600,-0.46316499999999994,-0.017273,-0.155548,-0.003878,0.0014759999999999999,0.000648,-38.5,-21.5,-12.25,3a
2019-07-15_180901:620,-0.467224,-0.015747,-0.153534,-0.003878,0.001537,0.0008619999999999999,-38.5,-21.5,-12.25,3a
2019-07-15_180901:640,-0.467743,-0.017273,-0.15506,-0.004091,0.001628,0.001655,-38.75,-21.5,-11.87,3a
2019-07-15_180901:660,-0.462646,-0.017273,-0.154022,-0.004275,0.0014759999999999999,0.001625,-38.75,-21.5,-11.87,3a
2019-07-15_180901:680,-0.46417200000000003,-0.017273,-0.15506,-0.004427,0.001018,0.001106,-38.75,-21.5,-11.87,3a
2019-07-15_180901:700,-0.462646,-0.018799,-0.154022,-0.004793,0.000621,0.000709,-38.75,-21.5,-12.25,3a
2019-07-15_180901:720,-0.461639,-0.01828,-0.156586,-0.004946,0.000346,0.000831,-38.75,-21.5,-12.25,3a
2019-07-15_180901:740,-0.462646,-0.021332,-0.158112,-0.0048850000000000005,7.2e-05,0.001655,-37.68,-21.870001000000002,-11.87,3a
2019-07-15_180901:760,-0.46469099999999997,-0.021332,-0.159119,-0.00461,-0.000233,0.001838,-37.68,-21.870001000000002,-11.87,3a
2019-07-15_180901:780,-0.467743,-0.022369,-0.160645,-0.00403,-0.000264,0.002052,-37.68,-21.870001000000002,-11.87,3a
2019-07-15_180901:800,-0.46670500000000004,-0.021332,-0.161652,-0.004,-0.000172,0.0021739999999999997,-38.060001,-21.870001000000002,-11.87,3a
2019-07-15_180901:820,-0.46670500000000004,-0.021332,-0.159119,-0.004397,0.000468,0.0018989999999999999,-38.060001,-21.870001000000002,-11.87,3a
2019-07-15_180901:840,-0.466217,-0.021332,-0.161652,-0.004671,0.00056,0.001777,-38.060001,-21.870001000000002,-11.87,3a
2019-07-15_180901:860,-0.46417200000000003,-0.023375999999999997,-0.161652,-0.005129,0.0008039999999999999,0.000831,-38.5,-20.75,-12.25,3a
2019-07-15_180901:880,-0.466217,-0.023895,-0.160645,-0.005068,0.00114,0.000465,-38.5,-20.75,-12.25,3a
2019-07-15_180901:900,-0.46417200000000003,-0.024384,-0.161163,-0.004946,0.001292,0.00016,-37.68,-21.18,-12.25,3a
2019-07-15_180901:920,-0.46417200000000003,-0.025421,-0.159637,-0.004152,0.0017809999999999998,0.000129,-37.68,-21.18,-12.25,3a
2019-07-15_180901:940,-0.459595,-0.023895,-0.160645,-0.0034509999999999996,0.0017809999999999998,-0.000176,-37.68,-21.18,-12.25,3a
2019-07-15_180901:960,-0.462128,-0.022858,-0.161163,-0.0029010000000000004,0.001201,-0.0011220000000000002,-37.68,-21.5,-12.25,3a
2019-07-15_180901:980,-0.465179,-0.022369,-0.160645,-0.002199,0.001018,-0.000664,-37.68,-21.5,-12.25,3a
2019-07-15_180902:000,-0.46670500000000004,-0.021851,-0.161163,-0.001925,0.0010789999999999999,-0.000725,-39.18,-21.870001000000002,-11.87,3a
2019-07-15_180902:020,-0.466217,-0.020325,-0.161163,-0.0009789999999999998,0.0017809999999999998,-5.4000000000000005e-05,-39.18,-21.870001000000002,-11.87,3a
2019-07-15_180902:040,-0.46469099999999997,-0.021332,-0.163177,-0.000582,0.0017809999999999998,0.000465,-39.18,-21.870001000000002,-11.87,3a
2019-07-15_180902:060,-0.463654,-0.018799,-0.16217,0.000669,0.002055,0.000923,-38.75,-21.5,-12.25,3a
2019-07-15_180902:080,-0.46569799999999995,-0.01828,-0.160126,0.000852,0.002055,0.001045,-38.75,-21.5,-12.25,3a
2019-07-15_180902:100,-0.46316499999999994,-0.017273,-0.160126,0.000852,0.0023,0.001167,-38.060001,-21.18,-11.5,3a
2019-07-15_180902:120,-0.46417200000000003,-0.014740000000000001,-0.159119,0.00045599999999999997,0.002177,0.000984,-38.060001,-21.18,-11.5,3a
2019-07-15_180902:140,-0.46417200000000003,-0.015228,-0.1586,-0.00045999999999999996,0.0023,0.000923,-38.060001,-21.5,-11.87,3a
2019-07-15_180902:160,-0.46417200000000003,-0.013702,-0.157074,-0.001375,0.002239,0.000587,-38.060001,-21.5,-11.87,3a
2019-07-15_180902:180,-0.463654,-0.015747,-0.158112,-0.003054,0.002116,0.00016,-38.060001,-21.5,-11.87,3a
2019-07-15_180902:200,-0.46316499999999994,-0.015747,-0.1586,-0.0036340000000000005,0.001964,0.000129,-38.060001,-20.75,-11.5,3a
2019-07-15_180902:220,-0.46469099999999997,-0.017792,-0.158112,-0.004336,0.001964,0.00016,-38.060001,-20.75,-11.5,3a
2019-07-15_180902:240,-0.465179,-0.019806,-0.158112,-0.004488000000000001,0.001842,0.000465,-38.75,-21.18,-12.25,3a
2019-07-15_180902:260,-0.46417200000000003,-0.020844,-0.159637,-0.004549,0.0016589999999999999,0.000496,-38.75,-21.18,-12.25,3a
2019-07-15_180902:280,-0.46417200000000003,-0.021851,-0.1586,-0.004152,0.0017809999999999998,0.000709,-38.75,-21.18,-12.25,3a
2019-07-15_180902:300,-0.46569799999999995,-0.020844,-0.159637,-0.003878,0.0017809999999999998,0.0007700000000000001,-38.5,-21.5,-13.06,3a
2019-07-15_180902:320,-0.466217,-0.020844,-0.157593,-0.003664,0.001842,0.000709,-38.5,-21.5,-13.06,3a
2019-07-15_180902:340,-0.465179,-0.019318000000000002,-0.157593,-0.0036950000000000004,0.0019030000000000002,0.000587,-38.5,-21.18,-12.68,3a
2019-07-15_180902:360,-0.465179,-0.020844,-0.1586,-0.003939,0.002055,0.000587,-38.5,-21.18,-12.68,3a
2019-07-15_180902:380,-0.46417200000000003,-0.019318000000000002,-0.156586,-0.004,0.002177,0.000587,-38.5,-21.18,-12.68,3a
2019-07-15_180902:400,-0.463654,-0.019806,-0.156586,-0.004213000000000001,0.0019030000000000002,0.000465,-38.5,-21.18,-12.68,3a
2019-07-15_180902:420,-0.462646,-0.019806,-0.157593,-0.004091,0.0019030000000000002,0.000526,-38.5,-21.18,-12.68,3a
2019-07-15_180902:440,-0.462646,-0.019806,-0.157074,-0.004152,0.001537,0.000648,-38.060001,-21.5,-11.87,3a
2019-07-15_180902:460,-0.46316499999999994,-0.020844,-0.158112,-0.004275,0.001537,0.000709,-38.060001,-21.5,-11.87,3a
2019-07-15_180902:480,-0.463654,-0.021851,-0.156067,-0.00403,0.001537,0.000221,-38.060001,-21.5,-11.87,3a
2019-07-15_180902:500,-0.46569799999999995,-0.020325,-0.157593,-0.003878,0.0016589999999999999,0.000343,-38.060001,-22.25,-11.5,3a
2019-07-15_180902:520,-0.467743,-0.019318000000000002,-0.157074,-0.003817,0.001537,0.001777,-38.060001,-22.25,-11.5,3a
2019-07-15_180902:540,-0.46417200000000003,-0.020844,-0.157593,-0.004,0.00172,0.001045,-38.060001,-22.25,-11.5,3a
2019-07-15_180902:560,-0.46569799999999995,-0.020325,-0.159119,-0.003939,0.0016589999999999999,0.00028199999999999997,-38.060001,-21.18,-11.87,3a
2019-07-15_180902:580,-0.462128,-0.022369,-0.159637,-0.00403,0.001628,-0.000267,-38.060001,-21.18,-11.87,3a
2019-07-15_180902:600,-0.461639,-0.020844,-0.158112,-0.004091,0.0014759999999999999,0.000129,-38.5,-20.5,-12.25,3a
2019-07-15_180902:620,-0.46469099999999997,-0.021332,-0.1586,-0.00403,0.001353,0.000526,-38.5,-20.5,-12.25,3a
2019-07-15_180902:640,-0.46569799999999995,-0.019806,-0.160645,-0.003939,0.001292,0.00016,-37.68,-21.870001000000002,-11.87,3a
2019-07-15_180902:660,-0.465179,-0.020325,-0.159119,-0.0037560000000000002,0.001598,0.00028199999999999997,-37.68,-21.870001000000002,-11.87,3a
2019-07-15_180902:680,-0.466217,-0.020325,-0.159119,-0.004,0.0017809999999999998,0.0007700000000000001,-37.68,-21.870001000000002,-11.87,3a
2019-07-15_180902:700,-0.46469099999999997,-0.019318000000000002,-0.161163,-0.004275,0.0019030000000000002,0.0007700000000000001,-38.5,-21.18,-12.68,3a
2019-07-15_180902:720,-0.462128,-0.019806,-0.159637,-0.004488000000000001,0.00172,0.0007700000000000001,-38.5,-21.18,-12.68,3a
2019-07-15_180902:740,-0.461639,-0.019806,-0.161652,-0.004671,0.0016589999999999999,7.000000000000001e-06,-38.5,-21.18,-12.68,3a
2019-07-15_180902:760,-0.45907600000000004,-0.022858,-0.161652,-0.00461,0.0012619999999999999,-0.000786,-38.060001,-21.870001000000002,-12.68,3a
2019-07-15_180902:780,-0.45907600000000004,-0.020844,-0.160126,-0.004488000000000001,0.000743,0.001106,-38.060001,-21.870001000000002,-12.68,3a
2019-07-15_180902:800,-0.465179,-0.025421,-0.162689,-0.004,0.000499,0.001655,-38.060001,-21.870001000000002,-11.5,3a
2019-07-15_180902:820,-0.46823100000000006,-0.023895,-0.1586,-0.004091,0.00056,-0.001641,-38.060001,-21.870001000000002,-11.5,3a
2019-07-15_180902:840,-0.47180200000000005,-0.021332,-0.160126,-0.003512,0.0008039999999999999,-0.001397,-38.060001,-21.870001000000002,-11.5,3a
2019-07-15_180902:860,-0.47280900000000003,-0.021851,-0.159119,-0.003237,0.0014759999999999999,-0.0010609999999999999,-38.060001,-21.5,-12.25,3a
2019-07-15_180902:880,-0.471283,-0.019318000000000002,-0.155548,-0.003176,0.002788,-0.001397,-38.060001,-21.5,-12.25,3a
2019-07-15_180902:900,-0.46823100000000006,-0.017273,-0.156067,-0.003054,0.003368,-0.001366,-38.5,-21.5,-12.25,3a
2019-07-15_180902:920,-0.463654,-0.015228,-0.151489,-0.0032979999999999997,0.0036420000000000003,-0.001458,-38.5,-21.5,-12.25,3a
2019-07-15_180902:940,-0.46060200000000007,-0.016753999999999998,-0.151001,-0.003817,0.00349,-0.0009689999999999999,-38.5,-21.5,-12.25,3a
2019-07-15_180902:960,-0.462128,-0.016266,-0.151001,-0.003939,0.002696,-0.000389,-37.68,-21.5,-11.87,3a
2019-07-15_180902:980,-0.46316499999999994,-0.017273,-0.152527,-0.003817,0.001994,0.000129,-37.68,-21.5,-11.87,3a
2019-07-15_180903:000,-0.465179,-0.017273,-0.156586,-0.0036340000000000005,0.001201,0.000465,-38.75,-21.870001000000002,-13.06,3a
2019-07-15_180903:020,-0.461639,-0.015747,-0.156067,-0.0032979999999999997,0.001018,0.000831,-38.75,-21.870001000000002,-13.06,3a
2019-07-15_180903:040,-0.46417200000000003,-0.015228,-0.159119,-0.0034509999999999996,0.0008960000000000001,0.001503,-38.75,-21.870001000000002,-13.06,3a
2019-07-15_180903:060,-0.465179,-0.015228,-0.159119,-0.003573,0.0008960000000000001,0.001655,-37.25,-21.18,-13.06,3a
2019-07-15_180903:080,-0.46670500000000004,-0.016266,-0.160645,-0.003939,0.0012619999999999999,0.001777,-37.25,-21.18,-13.06,3a
2019-07-15_180903:100,-0.466217,-0.01828,-0.161652,-0.004397,0.0017809999999999998,0.001625,-38.5,-21.5,-11.87,3a
2019-07-15_180903:120,-0.46569799999999995,-0.019806,-0.159637,-0.004732,0.002239,0.001106,-38.5,-21.5,-11.87,3a
2019-07-15_180903:140,-0.465179,-0.021851,-0.160126,-0.004732,0.0023,0.000587,-38.5,-21.5,-11.87,3a
2019-07-15_180903:160,-0.46417200000000003,-0.020844,-0.159119,-0.004397,0.0023,0.000343,-38.5,-21.870001000000002,-11.06,3a
2019-07-15_180903:180,-0.46469099999999997,-0.022858,-0.157593,-0.0037560000000000002,0.001994,6.8e-05,-38.5,-21.870001000000002,-11.06,3a
2019-07-15_180903:200,-0.46569799999999995,-0.021851,-0.156586,-0.0033280000000000002,0.002116,6.8e-05,-37.68,-21.5,-12.68,3a
2019-07-15_180903:220,-0.465179,-0.019318000000000002,-0.157074,-0.0029010000000000004,0.0023,6.8e-05,-37.68,-21.5,-12.68,3a
2019-07-15_180903:240,-0.462646,-0.019318000000000002,-0.156586,-0.003054,0.002239,-0.000267,-37.68,-21.5,-12.68,3a
2019-07-15_180903:260,-0.462128,-0.017273,-0.154541,-0.002932,0.002055,7.000000000000001e-06,-38.060001,-21.5,-11.5,3a
2019-07-15_180903:280,-0.46469099999999997,-0.017792,-0.155548,-0.0031149999999999997,0.00172,6.8e-05,-38.060001,-21.5,-11.5,3a
2019-07-15_180903:300,-0.46569799999999995,-0.017792,-0.157074,-0.003237,0.0019030000000000002,-5.4000000000000005e-05,-38.5,-21.870001000000002,-11.5,3a
2019-07-15_180903:320,-0.467743,-0.017792,-0.156067,-0.0034509999999999996,0.001964,-0.000267,-38.5,-21.870001000000002,-11.5,3a
2019-07-15_180903:340,-0.466217,-0.017792,-0.156067,-0.003573,0.002055,-0.000328,-38.5,-21.870001000000002,-11.5,3a
2019-07-15_180903:360,-0.465179,-0.01828,-0.156067,-0.003512,0.0023,-0.000176,-38.060001,-21.870001000000002,-12.68,3a
2019-07-15_180903:380,-0.46569799999999995,-0.018799,-0.154022,-0.0032979999999999997,0.002116,-0.000512,-38.060001,-21.870001000000002,-12.68,3a
2019-07-15_180903:400,-0.466217,-0.015747,-0.152008,-0.003237,0.002177,0.00016,-38.75,-21.18,-12.25,3a
2019-07-15_180903:420,-0.46823100000000006,-0.017273,-0.153015,-0.003054,0.0019030000000000002,0.001655,-38.75,-21.18,-12.25,3a
2019-07-15_180903:440,-0.46316499999999994,-0.014740000000000001,-0.15506,-0.0036340000000000005,0.0019030000000000002,0.000648,-38.75,-21.18,-12.25,3a
2019-07-15_180903:460,-0.46417200000000003,-0.014221000000000001,-0.154541,-0.003664,0.00172,0.00028199999999999997,-37.25,-21.5,-11.5,3a
2019-07-15_180903:480,-0.46316499999999994,-0.015228,-0.15506,-0.004152,0.001292,-0.000267,-37.25,-21.5,-11.5,3a
2019-07-15_180903:500,-0.465179,-0.017273,-0.156586,-0.004275,0.001018,0.000496,-38.5,-21.870001000000002,-12.25,3a
2019-07-15_180903:520,-0.465179,-0.017792,-0.156067,-0.004152,0.0010789999999999999,0.0008619999999999999,-38.5,-21.870001000000002,-12.25,3a
2019-07-15_180903:540,-0.46569799999999995,-0.016266,-0.156067,-0.004091,0.0014759999999999999,0.000831,-38.5,-21.870001000000002,-12.25,3a
2019-07-15_180903:560,-0.46569799999999995,-0.016753999999999998,-0.156067,-0.0036950000000000004,0.001415,0.001167,-38.75,-20.75,-11.06,3a
2019-07-15_180903:580,-0.465179,-0.015228,-0.156586,-0.004091,0.001292,0.001258,-38.75,-20.75,-11.06,3a
2019-07-15_180903:600,-0.46469099999999997,-0.014740000000000001,-0.157593,-0.00461,0.001353,0.00132,-38.75,-20.75,-12.25,3a
2019-07-15_180903:620,-0.465179,-0.016266,-0.156067,-0.005007,0.0014759999999999999,0.001381,-38.75,-20.75,-12.25,3a
2019-07-15_180903:640,-0.465179,-0.01828,-0.157593,-0.0051600000000000005,0.0014759999999999999,0.0007700000000000001,-38.75,-20.75,-12.25,3a
2019-07-15_180903:660,-0.467224,-0.019806,-0.158112,-0.005068,0.001415,0.0007700000000000001,-37.0,-21.5,-12.68,3a
2019-07-15_180903:680,-0.46417200000000003,-0.01828,-0.156067,-0.004549,0.0016589999999999999,0.001258,-37.0,-21.5,-12.68,3a
2019-07-15_180903:700,-0.46670500000000004,-0.019806,-0.157074,-0.004336,0.00172,0.001564,-38.75,-22.25,-11.06,3a
2019-07-15_180903:720,-0.465179,-0.01828,-0.154541,-0.00403,0.0017809999999999998,0.000496,-38.75,-22.25,-11.06,3a
2019-07-15_180903:740,-0.46417200000000003,-0.016753999999999998,-0.157593,-0.003939,0.0016589999999999999,0.0008619999999999999,-38.75,-22.25,-11.06,3a
2019-07-15_180903:760,-0.465179,-0.015747,-0.156586,-0.004213000000000001,0.001628,0.001167,-38.5,-21.870001000000002,-12.25,3a
2019-07-15_180903:780,-0.465179,-0.016753999999999998,-0.156067,-0.004549,0.001537,0.000587,-38.5,-21.870001000000002,-12.25,3a
2019-07-15_180903:800,-0.466217,-0.01828,-0.156586,-0.004488000000000001,0.001537,0.000709,-38.5,-21.18,-12.25,3a
2019-07-15_180903:820,-0.466217,-0.01828,-0.156586,-0.004732,0.00172,0.000648,-38.5,-21.18,-12.25,3a
2019-07-15_180903:840,-0.465179,-0.017792,-0.157074,-0.004793,0.001964,0.000709,-38.5,-21.18,-12.25,3a
2019-07-15_180903:860,-0.46469099999999997,-0.017273,-0.157593,-0.004549,0.001964,0.001167,-38.060001,-21.18,-12.68,3a
2019-07-15_180903:880,-0.46469099999999997,-0.018799,-0.156586,-0.00461,0.001842,0.000831,-38.060001,-21.18,-12.68,3a
2019-07-15_180903:900,-0.46469099999999997,-0.019318000000000002,-0.158112,-0.004336,0.001628,0.0008619999999999999,-38.060001,-21.5,-11.06,3a
2019-07-15_180903:920,-0.46469099999999997,-0.01828,-0.156067,-0.004336,0.0017809999999999998,0.000923,-38.060001,-21.5,-11.06,3a
2019-07-15_180903:940,-0.465179,-0.018799,-0.157074,-0.004091,0.001628,0.001106,-38.060001,-21.5,-11.06,3a
2019-07-15_180903:960,-0.465179,-0.019318000000000002,-0.156067,-0.004091,0.002116,0.001258,-38.75,-21.18,-11.87,3a
2019-07-15_180903:980,-0.46469099999999997,-0.019318000000000002,-0.157074,-0.004091,0.002055,0.000923,-38.75,-21.18,-11.87,3a
2019-07-15_180904:000,-0.46417200000000003,-0.020325,-0.158112,-0.004275,0.001994,0.000923,-39.18,-21.18,-11.87,3a
2019-07-15_180904:020,-0.46469099999999997,-0.020325,-0.157593,-0.004397,0.0017809999999999998,0.000831,-39.18,-21.18,-11.87,3a
2019-07-15_180904:040,-0.46316499999999994,-0.021851,-0.156067,-0.004152,0.0017809999999999998,0.0007700000000000001,-39.18,-21.18,-11.87,3a
2019-07-15_180904:060,-0.465179,-0.021332,-0.156586,-0.004152,0.001598,0.000404,-38.5,-21.5,-12.25,3a
2019-07-15_180904:080,-0.46417200000000003,-0.021332,-0.156586,-0.0036950000000000004,0.0017809999999999998,0.000404,-38.5,-21.5,-12.25,3a
2019-07-15_180904:100,-0.46417200000000003,-0.021851,-0.157074,-0.0036340000000000005,0.001537,0.00028199999999999997,-38.060001,-21.18,-11.5,3a
2019-07-15_180904:120,-0.46569799999999995,-0.018799,-0.156067,-0.00339,0.001598,0.00028199999999999997,-38.060001,-21.18,-11.5,3a
2019-07-15_180904:140,-0.466217,-0.01828,-0.159119,-0.003237,0.00172,0.00028199999999999997,-38.060001,-21.18,-11.5,3a
2019-07-15_180904:160,-0.46569799999999995,-0.01828,-0.157593,-0.0034509999999999996,0.001598,6.8e-05,-38.75,-21.5,-11.87,3a
2019-07-15_180904:180,-0.46670500000000004,-0.017273,-0.155548,-0.0036340000000000005,0.001842,6.8e-05,-38.75,-21.5,-11.87,3a
2019-07-15_180904:200,-0.466217,-0.01828,-0.156586,-0.003878,0.002177,0.000221,-38.5,-20.5,-11.5,3a
2019-07-15_180904:220,-0.463654,-0.01828,-0.154022,-0.004,0.002391,0.00016,-38.5,-20.5,-11.5,3a
2019-07-15_180904:240,-0.46569799999999995,-0.018799,-0.157593,-0.003939,0.001994,0.000465,-38.5,-20.5,-11.5,3a
2019-07-15_180904:260,-0.46417200000000003,-0.019806,-0.156067,-0.003664,0.0019030000000000002,7.000000000000001e-06,-38.060001,-21.870001000000002,-11.87,3a
2019-07-15_180904:280,-0.466217,-0.017792,-0.154541,-0.0036340000000000005,0.001598,-0.000328,-38.060001,-21.870001000000002,-11.87,3a
2019-07-15_180904:300,-0.467743,-0.019806,-0.155548,-0.003176,0.001842,0.001258,-38.060001,-22.25,-11.06,3a
2019-07-15_180904:320,-0.462646,-0.019806,-0.154022,-0.0031149999999999997,0.0016589999999999999,0.000923,-38.060001,-22.25,-11.06,3a
2019-07-15_180904:340,-0.46417200000000003,-0.019318000000000002,-0.156586,-0.0031149999999999997,0.001415,-5.4000000000000005e-05,-38.060001,-22.25,-11.06,3a
2019-07-15_180904:360,-0.46316499999999994,-0.018799,-0.155548,-0.002932,0.0010789999999999999,-0.0009689999999999999,-38.5,-21.870001000000002,-12.68,3a
2019-07-15_180904:380,-0.46316499999999994,-0.017792,-0.156067,-0.002993,0.000621,-0.000512,-38.5,-21.870001000000002,-12.68,3a
2019-07-15_180904:400,-0.46569799999999995,-0.01828,-0.156586,-0.002657,0.000743,0.000129,-38.5,-21.870001000000002,-11.5,3a
2019-07-15_180904:420,-0.46823100000000006,-0.017273,-0.156586,-0.0028399999999999996,0.0008960000000000001,-0.00011499999999999999,-38.5,-21.870001000000002,-11.5,3a
2019-07-15_180904:440,-0.467743,-0.015747,-0.156586,-0.002718,0.0012619999999999999,0.000129,-38.5,-21.870001000000002,-11.5,3a
2019-07-15_180904:460,-0.465179,-0.015747,-0.156067,-0.002932,0.001292,0.000496,-38.5,-21.5,-11.5,3a
2019-07-15_180904:480,-0.46469099999999997,-0.015228,-0.156067,-0.003512,0.001537,0.000709,-38.5,-21.5,-11.5,3a
2019-07-15_180904:500,-0.463654,-0.016753999999999998,-0.156586,-0.003939,0.0010789999999999999,0.000923,-38.060001,-21.18,-12.68,3a
2019-07-15_180904:520,-0.46417200000000003,-0.015747,-0.156067,-0.004427,0.0008960000000000001,0.000709,-38.060001,-21.18,-12.68,3a
2019-07-15_180904:540,-0.467224,-0.018799,-0.157593,-0.004732,0.000682,0.000709,-38.060001,-21.18,-12.68,3a
2019-07-15_180904:560,-0.467743,-0.020844,-0.159637,-0.004488000000000001,0.000743,0.000831,-38.75,-21.870001000000002,-11.87,3a
2019-07-15_180904:580,-0.46926899999999994,-0.020325,-0.159637,-0.004336,0.001292,0.001258,-38.75,-21.870001000000002,-11.87,3a
2019-07-15_180904:600,-0.46417200000000003,-0.021332,-0.159637,-0.0036950000000000004,0.001628,0.0007700000000000001,-39.18,-21.5,-11.5,3a
2019-07-15_180904:620,-0.46569799999999995,-0.019318000000000002,-0.160126,-0.003512,0.001842,0.00016,-39.18,-21.5,-11.5,3a
2019-07-15_180904:640,-0.466217,-0.020325,-0.159637,-0.003176,0.0019030000000000002,0.000587,-39.18,-21.5,-11.5,3a
2019-07-15_180904:660,-0.465179,-0.01828,-0.159637,-0.003237,0.002239,0.000129,-38.060001,-21.5,-11.87,3a
2019-07-15_180904:680,-0.465179,-0.017792,-0.1586,-0.003237,0.0024519999999999998,-5.4000000000000005e-05,-38.060001,-21.5,-11.87,3a
2019-07-15_180904:700,-0.463654,-0.017792,-0.159637,-0.003237,0.002574,6.8e-05,-38.5,-21.5,-11.87,3a
2019-07-15_180904:720,-0.46469099999999997,-0.017273,-0.159119,-0.0033280000000000002,0.002391,6.8e-05,-38.5,-21.5,-11.87,3a
2019-07-15_180904:740,-0.46417200000000003,-0.017273,-0.158112,-0.003512,0.002635,0.000343,-38.5,-21.5,-11.87,3a
2019-07-15_180904:760,-0.46417200000000003,-0.016753999999999998,-0.158112,-0.0036340000000000005,0.002635,0.000343,-38.75,-21.5,-12.68,3a
2019-07-15_180904:780,-0.46469099999999997,-0.016753999999999998,-0.1586,-0.003664,0.002513,0.000343,-38.75,-21.5,-12.68,3a
2019-07-15_180904:800,-0.46569799999999995,-0.019318000000000002,-0.157593,-0.0036340000000000005,0.002635,0.000465,-38.5,-21.5,-13.06,3a
2019-07-15_180904:820,-0.466217,-0.017792,-0.156586,-0.003512,0.002849,0.000526,-38.5,-21.5,-13.06,3a
2019-07-15_180904:840,-0.46569799999999995,-0.019318000000000002,-0.158112,-0.0034509999999999996,0.0029100000000000003,0.000526,-38.5,-21.5,-13.06,3a
2019-07-15_180904:860,-0.46670500000000004,-0.018799,-0.157593,-0.003176,0.003246,0.000526,-38.5,-21.18,-11.87,3a
2019-07-15_180904:880,-0.467743,-0.018799,-0.156586,-0.002779,0.00349,0.000496,-38.5,-21.18,-11.87,3a
2019-07-15_180904:900,-0.46569799999999995,-0.019318000000000002,-0.155548,-0.002657,0.003703,0.000404,-38.5,-21.5,-11.06,3a
2019-07-15_180904:920,-0.46670500000000004,-0.01828,-0.156067,-0.0025960000000000002,0.003917,0.000343,-38.5,-21.5,-11.06,3a
2019-07-15_180904:940,-0.46569799999999995,-0.01828,-0.154022,-0.0025960000000000002,0.003886,0.000343,-38.5,-21.5,-11.06,3a
2019-07-15_180904:960,-0.46569799999999995,-0.019318000000000002,-0.154541,-0.0025960000000000002,0.003917,0.000404,-38.5,-21.870001000000002,-11.5,3a
2019-07-15_180904:980,-0.46670500000000004,-0.018799,-0.153534,-0.002657,0.003917,0.00028199999999999997,-38.5,-21.870001000000002,-11.5,3a
2019-07-15_180905:000,-0.46569799999999995,-0.018799,-0.151489,-0.002718,0.003703,0.000129,-38.75,-21.5,-12.68,3a
2019-07-15_180905:020,-0.46569799999999995,-0.01828,-0.151001,-0.0028399999999999996,0.003764,0.00016,-38.75,-21.5,-12.68,3a
2019-07-15_180905:040,-0.466217,-0.019318000000000002,-0.151001,-0.0028399999999999996,0.003703,0.000129,-38.75,-21.5,-12.68,3a
2019-07-15_180905:060,-0.467743,-0.020325,-0.151489,-0.0029010000000000004,0.0036420000000000003,-0.000176,-38.75,-21.5,-11.87,3a
2019-07-15_180905:080,-0.46875,-0.019806,-0.151001,-0.0025960000000000002,0.0036420000000000003,-0.000267,-38.75,-21.5,-11.87,3a
2019-07-15_180905:100,-0.467743,-0.019318000000000002,-0.151001,-0.002535,0.0036420000000000003,-0.000328,-37.25,-20.75,-11.5,3a
2019-07-15_180905:120,-0.46926899999999994,-0.018799,-0.151001,-0.002382,0.0041,-0.000389,-37.25,-20.75,-11.5,3a
2019-07-15_180905:140,-0.469757,-0.018799,-0.148956,-0.002321,0.004375,-0.00045099999999999996,-37.25,-20.75,-11.5,3a
2019-07-15_180905:160,-0.469757,-0.01828,-0.150482,-0.002199,0.004314,-0.000634,-38.5,-21.18,-11.06,3a
2019-07-15_180905:180,-0.46875,-0.01828,-0.14743,-0.001986,0.004436,-0.0011220000000000002,-38.5,-21.18,-11.06,3a
2019-07-15_180905:200,-0.46875,-0.017273,-0.145905,-0.001986,0.004436,-0.0009689999999999999,-38.75,-21.5,-11.06,3a
2019-07-15_180905:220,-0.467224,-0.017273,-0.145905,-0.00165,0.0045579999999999996,0.000129,-38.75,-21.5,-11.06,3a
2019-07-15_180905:240,-0.46569799999999995,-0.017273,-0.145386,-0.0021079999999999996,0.0042829999999999995,6.8e-05,-38.75,-21.5,-11.06,3a
2019-07-15_180905:260,-0.465179,-0.015747,-0.144379,-0.0020469999999999998,0.003978,-0.000634,-38.75,-21.5,-11.06,3a
2019-07-15_180905:280,-0.465179,-0.016753999999999998,-0.144379,-0.002657,0.0036420000000000003,-0.001183,-38.75,-21.5,-11.06,3a
2019-07-15_180905:300,-0.46469099999999997,-0.016266,-0.145905,-0.002779,0.003307,-0.000267,-38.75,-21.870001000000002,-11.87,3a
2019-07-15_180905:320,-0.46469099999999997,-0.017273,-0.142334,-0.0029010000000000004,0.002513,0.000465,-38.75,-21.870001000000002,-11.87,3a
2019-07-15_180905:340,-0.465179,-0.016753999999999998,-0.144379,-0.002932,0.001994,0.000587,-38.75,-21.870001000000002,-11.87,3a
2019-07-15_180905:360,-0.465179,-0.017273,-0.14386,-0.003054,0.00172,0.001167,-38.75,-21.18,-10.75,3a
2019-07-15_180905:380,-0.46670500000000004,-0.016753999999999998,-0.143372,-0.0033280000000000002,0.001537,0.001503,-38.75,-21.18,-10.75,3a
2019-07-15_180905:400,-0.467743,-0.016753999999999998,-0.146423,-0.004,0.000621,0.0018989999999999999,-38.75,-21.870001000000002,-10.75,3a
2019-07-15_180905:420,-0.466217,-0.017792,-0.145905,-0.004152,0.000499,0.001838,-38.75,-21.870001000000002,-10.75,3a
2019-07-15_180905:440,-0.46926899999999994,-0.018799,-0.146423,-0.004549,0.00022400000000000002,0.001625,-38.75,-21.870001000000002,-10.75,3a
2019-07-15_180905:460,-0.47180200000000005,-0.020844,-0.148956,-0.004671,0.00016299999999999998,0.001442,-38.75,-21.5,-11.06,3a
2019-07-15_180905:480,-0.47180200000000005,-0.021851,-0.14843800000000001,-0.004336,0.000865,0.001716,-38.75,-21.5,-11.06,3a
2019-07-15_180905:500,-0.47180200000000005,-0.022369,-0.149475,-0.003878,0.001292,0.001503,-38.75,-21.18,-11.5,3a
2019-07-15_180905:520,-0.472321,-0.019318000000000002,-0.14743,-0.0037560000000000002,0.0017809999999999998,0.000984,-38.75,-21.18,-11.5,3a
2019-07-15_180905:540,-0.47079499999999996,-0.020844,-0.147949,-0.0036340000000000005,0.002239,0.001381,-38.75,-21.18,-11.5,3a
2019-07-15_180905:560,-0.467743,-0.019806,-0.146423,-0.003817,0.002635,0.000984,-39.18,-21.5,-12.25,3a
2019-07-15_180905:580,-0.46823100000000006,-0.020844,-0.14743,-0.004152,0.002574,0.0007700000000000001,-39.18,-21.5,-12.25,3a
2019-07-15_180905:600,-0.46670500000000004,-0.021332,-0.146423,-0.004213000000000001,0.002361,0.0007700000000000001,-38.75,-21.18,-11.5,3a
2019-07-15_180905:620,-0.467743,-0.021851,-0.144897,-0.004336,0.002239,0.000648,-38.75,-21.18,-11.5,3a
2019-07-15_180905:640,-0.46823100000000006,-0.020844,-0.145386,-0.004275,0.001994,0.000496,-38.75,-21.18,-11.5,3a
2019-07-15_180905:660,-0.46670500000000004,-0.021332,-0.146423,-0.004213000000000001,0.002055,0.000496,-38.75,-21.18,-10.75,3a
2019-07-15_180905:680,-0.46670500000000004,-0.020844,-0.144379,-0.004275,0.002055,0.000465,-38.75,-21.18,-10.75,3a
2019-07-15_180905:700,-0.46823100000000006,-0.020844,-0.145386,-0.004275,0.001994,0.000465,-38.060001,-21.5,-11.06,3a
2019-07-15_180905:720,-0.46823100000000006,-0.019806,-0.144897,-0.004275,0.00172,0.000526,-38.060001,-21.5,-11.06,3a
2019-07-15_180905:740,-0.46926899999999994,-0.019806,-0.146423,-0.004427,0.001842,0.000648,-38.060001,-21.5,-11.06,3a
2019-07-15_180905:760,-0.46670500000000004,-0.019318000000000002,-0.146423,-0.004732,0.001964,0.000526,-38.060001,-21.5,-11.06,3a
2019-07-15_180905:780,-0.467224,-0.017792,-0.144379,-0.005282,0.0014759999999999999,0.000831,-38.060001,-21.5,-11.06,3a
2019-07-15_180905:800,-0.46875,-0.015747,-0.145905,-0.0058,0.001353,0.001106,-38.75,-21.18,-11.06,3a
2019-07-15_180905:820,-0.46875,-0.015228,-0.144379,-0.0066549999999999995,0.001537,0.001716,-38.75,-21.18,-11.06,3a
2019-07-15_180905:840,-0.469757,-0.016266,-0.145386,-0.007081999999999999,0.001598,0.0021739999999999997,-38.75,-21.18,-11.06,3a
2019-07-15_180905:860,-0.469757,-0.017273,-0.144379,-0.007601,0.0016589999999999999,0.002754,-38.5,-21.18,-10.75,3a
2019-07-15_180905:880,-0.46926899999999994,-0.019806,-0.143372,-0.007876000000000001,0.001628,0.002845,-38.5,-21.18,-10.75,3a
2019-07-15_180905:900,-0.46823100000000006,-0.021851,-0.145386,-0.007601,0.001598,0.002754,-39.560001,-21.18,-10.25,3a
2019-07-15_180905:920,-0.46926899999999994,-0.024902,-0.144379,-0.007265000000000001,0.001353,0.002113,-39.560001,-21.18,-10.25,3a
2019-07-15_180905:940,-0.471283,-0.025908999999999998,-0.144379,-0.0064719999999999995,0.001598,0.001625,-39.560001,-21.18,-10.25,3a
2019-07-15_180905:960,-0.471283,-0.026427999999999997,-0.145386,-0.0056170000000000005,0.0019030000000000002,0.0008619999999999999,-38.75,-21.18,-10.75,3a
2019-07-15_180905:980,-0.469757,-0.024902,-0.144379,-0.004671,0.00172,0.000465,-38.75,-21.18,-10.75,3a
2019-07-15_180906:000,-0.46926899999999994,-0.022369,-0.145905,-0.004091,0.00172,6.8e-05,-38.5,-21.870001000000002,-11.87,3a
2019-07-15_180906:020,-0.46823100000000006,-0.020844,-0.14386,-0.003512,0.001964,-0.00011499999999999999,-38.5,-21.870001000000002,-11.87,3a
2019-07-15_180906:040,-0.46875,-0.01828,-0.145386,-0.0036950000000000004,0.0019030000000000002,-0.00011499999999999999,-38.5,-21.870001000000002,-11.87,3a
2019-07-15_180906:060,-0.467224,-0.017273,-0.14386,-0.0036340000000000005,0.001842,-0.00011499999999999999,-38.75,-21.870001000000002,-11.06,3a
2019-07-15_180906:080,-0.466217,-0.01828,-0.144379,-0.0036340000000000005,0.0019030000000000002,-0.000267,-38.75,-21.870001000000002,-11.06,3a
2019-07-15_180906:100,-0.467743,-0.017792,-0.145386,-0.0036340000000000005,0.0014759999999999999,-0.0009689999999999999,-40.0,-21.870001000000002,-11.5,3a
2019-07-15_180906:120,-0.467743,-0.017273,-0.14032,-0.0036340000000000005,0.001201,-5.4000000000000005e-05,-40.0,-21.870001000000002,-11.5,3a
2019-07-15_180906:140,-0.46926899999999994,-0.01828,-0.145386,-0.0034509999999999996,0.001201,0.000984,-40.0,-21.870001000000002,-11.5,3a
2019-07-15_180906:160,-0.467224,-0.017273,-0.144897,-0.0034509999999999996,0.000682,0.000587,-38.5,-21.870001000000002,-10.75,3a
2019-07-15_180906:180,-0.46926899999999994,-0.017792,-0.145386,-0.00339,0.000743,0.00016,-38.5,-21.870001000000002,-10.75,3a
2019-07-15_180906:200,-0.470276,-0.017273,-0.14843800000000001,-0.0033280000000000002,0.000865,-0.000328,-39.560001,-21.5,-10.75,3a
2019-07-15_180906:220,-0.469757,-0.01828,-0.146912,-0.00339,0.0012619999999999999,0.000587,-39.560001,-21.5,-10.75,3a
2019-07-15_180906:240,-0.470276,-0.021332,-0.148956,-0.002993,0.001598,0.000923,-39.560001,-21.5,-10.75,3a
2019-07-15_180906:260,-0.46823100000000006,-0.020325,-0.149475,-0.002718,0.0016589999999999999,0.000343,-38.75,-21.870001000000002,-10.25,3a
2019-07-15_180906:280,-0.467224,-0.019806,-0.14743,-0.002535,0.00172,0.000526,-38.75,-21.870001000000002,-10.25,3a
2019-07-15_180906:300,-0.467224,-0.019806,-0.14743,-0.002321,0.001628,0.000709,-39.18,-21.5,-10.25,3a
2019-07-15_180906:320,-0.46823100000000006,-0.019806,-0.14843800000000001,-0.002657,0.001537,0.000709,-39.18,-21.5,-10.25,3a
2019-07-15_180906:340,-0.46875,-0.020325,-0.14843800000000001,-0.002932,0.001537,0.000496,-39.18,-21.5,-10.25,3a
2019-07-15_180906:360,-0.46926899999999994,-0.022369,-0.14843800000000001,-0.003176,0.001537,-0.000267,-38.75,-21.18,-10.75,3a
2019-07-15_180906:380,-0.46926899999999994,-0.021851,-0.149475,-0.003054,0.0014759999999999999,-0.000512,-38.75,-21.18,-10.75,3a
2019-07-15_180906:400,-0.46926899999999994,-0.021332,-0.147949,-0.002779,0.0017809999999999998,0.000221,-39.18,-22.25,-12.68,3a
2019-07-15_180906:420,-0.466217,-0.021851,-0.147949,-0.002321,0.0017809999999999998,-0.000176,-39.18,-22.25,-12.68,3a
2019-07-15_180906:440,-0.46670500000000004,-0.019806,-0.149963,-0.002199,0.001415,-0.000389,-39.18,-22.25,-12.68,3a
2019-07-15_180906:460,-0.467224,-0.01828,-0.146912,-0.002321,0.001353,0.000496,-39.560001,-21.5,-11.06,3a
2019-07-15_180906:480,-0.46926899999999994,-0.016753999999999998,-0.146912,-0.0025050000000000003,0.001353,0.000465,-39.560001,-21.5,-11.06,3a
2019-07-15_180906:500,-0.469757,-0.016753999999999998,-0.14843800000000001,-0.003176,0.0017809999999999998,0.000526,-39.18,-21.18,-10.75,3a
2019-07-15_180906:520,-0.471283,-0.01828,-0.146912,-0.0036950000000000004,0.001994,0.000587,-39.18,-21.18,-10.75,3a
2019-07-15_180906:540,-0.470276,-0.018799,-0.146912,-0.004152,0.0023,0.000648,-39.18,-21.18,-10.75,3a
2019-07-15_180906:560,-0.46670500000000004,-0.020325,-0.147949,-0.004488000000000001,0.0024519999999999998,0.000709,-38.75,-21.5,-11.87,3a
2019-07-15_180906:580,-0.465179,-0.022369,-0.146423,-0.004336,0.0023,0.000587,-38.75,-21.5,-11.87,3a
2019-07-15_180906:600,-0.467743,-0.021851,-0.145386,-0.004152,0.002177,0.0007700000000000001,-39.18,-21.18,-11.87,3a
2019-07-15_180906:620,-0.467743,-0.023895,-0.146423,-0.0037560000000000002,0.002177,0.000465,-39.18,-21.18,-11.87,3a
2019-07-15_180906:640,-0.46926899999999994,-0.021851,-0.145905,-0.003573,0.001842,0.000129,-39.18,-21.18,-11.87,3a
2019-07-15_180906:660,-0.467743,-0.020325,-0.144897,-0.003237,0.0019030000000000002,7.000000000000001e-06,-39.18,-21.18,-11.06,3a
2019-07-15_180906:680,-0.46823100000000006,-0.019806,-0.144379,-0.003176,0.002055,0.00016,-39.18,-21.18,-11.06,3a
2019-07-15_180906:700,-0.46926899999999994,-0.019318000000000002,-0.144897,-0.003054,0.001842,7.000000000000001e-06,-38.5,-21.18,-11.87,3a
2019-07-15_180906:720,-0.46875,-0.019806,-0.144379,-0.003237,0.0019030000000000002,6.8e-05,-38.5,-21.18,-11.87,3a
2019-07-15_180906:740,-0.46926899999999994,-0.019806,-0.145386,-0.0034509999999999996,0.001964,0.00016,-38.5,-21.18,-11.87,3a
2019-07-15_180906:760,-0.46926899999999994,-0.017792,-0.146423,-0.0036340000000000005,0.0017809999999999998,6.8e-05,-39.18,-21.5,-10.75,3a
2019-07-15_180906:780,-0.46926899999999994,-0.020325,-0.145386,-0.003817,0.0019030000000000002,0.000221,-39.18,-21.5,-10.75,3a
2019-07-15_180906:800,-0.469757,-0.019318000000000002,-0.144379,-0.003664,0.001964,0.00028199999999999997,-38.5,-21.18,-11.06,3a
2019-07-15_180906:820,-0.46875,-0.019806,-0.143372,-0.0037560000000000002,0.002116,0.000404,-38.5,-21.18,-11.06,3a
2019-07-15_180906:840,-0.46875,-0.019318000000000002,-0.14386,-0.0037560000000000002,0.002116,0.000648,-38.5,-21.18,-11.06,3a
2019-07-15_180906:860,-0.470276,-0.019318000000000002,-0.143372,-0.0036950000000000004,0.002177,0.000648,-38.060001,-21.5,-11.87,3a
2019-07-15_180906:880,-0.469757,-0.019318000000000002,-0.141846,-0.0036950000000000004,0.001964,0.000648,-38.060001,-21.5,-11.87,3a
2019-07-15_180906:900,-0.470276,-0.019806,-0.14386,-0.003878,0.001964,0.000496,-38.060001,-21.5,-11.5,3a
2019-07-15_180906:920,-0.470276,-0.018799,-0.14386,-0.004,0.002116,0.000221,-38.060001,-21.5,-11.5,3a
2019-07-15_180906:940,-0.46875,-0.019806,-0.143372,-0.003878,0.002239,-5.4000000000000005e-05,-38.060001,-21.5,-11.5,3a
2019-07-15_180906:960,-0.47079499999999996,-0.019806,-0.14386,-0.0036950000000000004,0.002391,-5.4000000000000005e-05,-37.68,-21.18,-10.75,3a
2019-07-15_180906:980,-0.46926899999999994,-0.020325,-0.143372,-0.0034509999999999996,0.002177,-0.000328,-37.68,-21.18,-10.75,3a
2019-07-15_180907:000,-0.467743,-0.019806,-0.14386,-0.003176,0.001842,-0.000328,-39.18,-21.18,-11.5,3a
2019-07-15_180907:020,-0.467743,-0.019318000000000002,-0.144379,-0.0025960000000000002,0.0017809999999999998,-0.000908,-39.18,-21.18,-11.5,3a
2019-07-15_180907:040,-0.467224,-0.01828,-0.144379,-0.0022600000000000003,0.001415,-0.000328,-39.18,-21.18,-11.5,3a
2019-07-15_180907:060,-0.471283,-0.016266,-0.143372,-0.0022600000000000003,0.001537,0.001381,-38.5,-21.870001000000002,-11.06,3a
2019-07-15_180907:080,-0.46875,-0.017792,-0.141846,-0.002718,0.001537,0.000648,-38.5,-21.870001000000002,-11.06,3a
2019-07-15_180907:100,-0.467224,-0.016266,-0.144897,-0.0028399999999999996,0.001292,0.000221,-38.5,-22.25,-11.06,3a
2019-07-15_180907:120,-0.46417200000000003,-0.015747,-0.144897,-0.003512,0.0008960000000000001,-0.000634,-38.5,-22.25,-11.06,3a
2019-07-15_180907:140,-0.466217,-0.017273,-0.144897,-0.003939,0.000499,6.8e-05,-38.5,-22.25,-11.06,3a
2019-07-15_180907:160,-0.46823100000000006,-0.01828,-0.145386,-0.004,0.000621,0.001106,-39.560001,-21.870001000000002,-11.5,3a
2019-07-15_180907:180,-0.46823100000000006,-0.017273,-0.145905,-0.004152,0.000865,0.000496,-39.560001,-21.870001000000002,-11.5,3a
2019-07-15_180907:200,-0.46926899999999994,-0.017792,-0.146912,-0.003878,0.0010789999999999999,0.000648,-39.560001,-21.5,-11.06,3a
2019-07-15_180907:220,-0.467224,-0.019318000000000002,-0.146912,-0.003939,0.001201,0.0007700000000000001,-39.560001,-21.5,-11.06,3a
2019-07-15_180907:240,-0.46823100000000006,-0.020325,-0.147949,-0.004213000000000001,0.0012619999999999999,0.000709,-39.560001,-21.5,-11.06,3a
2019-07-15_180907:260,-0.46823100000000006,-0.021332,-0.148956,-0.004091,0.0012619999999999999,0.000526,-38.5,-21.18,-11.06,3a
2019-07-15_180907:280,-0.469757,-0.020844,-0.147949,-0.003939,0.0014759999999999999,0.00016,-38.5,-21.18,-11.06,3a
2019-07-15_180907:300,-0.471283,-0.021332,-0.147949,-0.0032979999999999997,0.0014759999999999999,0.000221,-38.75,-21.870001000000002,-11.06,3a
2019-07-15_180907:320,-0.46875,-0.020325,-0.145386,-0.002932,0.001842,0.000709,-38.75,-21.870001000000002,-11.06,3a
2019-07-15_180907:340,-0.469757,-0.020325,-0.146423,-0.002779,0.0019030000000000002,0.000465,-38.75,-21.870001000000002,-11.06,3a
2019-07-15_180907:360,-0.46875,-0.019318000000000002,-0.146423,-0.0029010000000000004,0.001842,-0.00011499999999999999,-38.5,-21.5,-11.5,3a
2019-07-15_180907:380,-0.46823100000000006,-0.01828,-0.144379,-0.002993,0.001994,0.000526,-38.5,-21.5,-11.5,3a
2019-07-15_180907:400,-0.46926899999999994,-0.01828,-0.144897,-0.003512,0.001964,0.000496,-38.75,-21.5,-12.68,3a
2019-07-15_180907:420,-0.46823100000000006,-0.019318000000000002,-0.144379,-0.0033280000000000002,0.002239,0.000221,-38.75,-21.5,-12.68,3a
2019-07-15_180907:440,-0.467743,-0.017273,-0.145386,-0.003237,0.002116,0.000404,-38.75,-21.5,-12.68,3a
2019-07-15_180907:460,-0.46875,-0.01828,-0.144379,-0.0031149999999999997,0.002055,0.000221,-38.75,-21.5,-11.87,3a
2019-07-15_180907:480,-0.470276,-0.017273,-0.144379,-0.0032979999999999997,0.0023,0.000465,-38.75,-21.5,-11.87,3a
2019-07-15_180907:500,-0.467743,-0.017792,-0.14386,-0.0034509999999999996,0.002055,0.00028199999999999997,-38.75,-20.75,-11.06,3a
2019-07-15_180907:520,-0.467743,-0.017273,-0.144379,-0.003512,0.002116,0.000343,-38.75,-20.75,-11.06,3a
2019-07-15_180907:540,-0.46823100000000006,-0.017792,-0.144379,-0.003573,0.001994,0.000526,-38.75,-20.75,-11.06,3a
2019-07-15_180907:560,-0.46926899999999994,-0.017273,-0.144379,-0.003573,0.001994,0.000526,-38.5,-22.25,-11.5,3a
2019-07-15_180907:580,-0.469757,-0.016753999999999998,-0.144379,-0.0036340000000000005,0.002116,0.000648,-38.5,-22.25,-11.5,3a
2019-07-15_180907:600,-0.471283,-0.017273,-0.145905,-0.0037560000000000002,0.0024519999999999998,0.000648,-38.75,-22.25,-9.87,3a
2019-07-15_180907:620,-0.472321,-0.01828,-0.146423,-0.0036950000000000004,0.0029100000000000003,0.000587,-38.75,-22.25,-9.87,3a
2019-07-15_180907:640,-0.47180200000000005,-0.017792,-0.146423,-0.003664,0.003124,0.000587,-38.75,-22.25,-9.87,3a
2019-07-15_180907:660,-0.47180200000000005,-0.018799,-0.145386,-0.003573,0.003307,0.000587,-38.060001,-21.18,-11.06,3a
2019-07-15_180907:680,-0.47079499999999996,-0.018799,-0.145386,-0.0033280000000000002,0.003917,0.000831,-38.060001,-21.18,-11.06,3a
2019-07-15_180907:700,-0.469757,-0.019318000000000002,-0.144897,-0.0032979999999999997,0.003886,0.0008619999999999999,-38.5,-21.5,-10.25,3a
2019-07-15_180907:720,-0.467224,-0.019806,-0.144379,-0.003237,0.003917,0.000984,-38.5,-21.5,-10.25,3a
2019-07-15_180907:740,-0.46569799999999995,-0.018799,-0.139801,-0.0032979999999999997,0.00349,0.001167,-38.5,-21.5,-10.25,3a
2019-07-15_180907:760,-0.467743,-0.017792,-0.14032,-0.0032979999999999997,0.003307,0.001167,-39.560001,-21.870001000000002,-9.87,3a
2019-07-15_180907:780,-0.46823100000000006,-0.019318000000000002,-0.139801,-0.0036340000000000005,0.002635,0.001106,-39.560001,-21.870001000000002,-9.87,3a
2019-07-15_180907:800,-0.46926899999999994,-0.01828,-0.140808,-0.003939,0.002574,0.000984,-38.75,-21.18,-9.06,3a
2019-07-15_180907:820,-0.467224,-0.019318000000000002,-0.140808,-0.004213000000000001,0.002361,0.000709,-38.75,-21.18,-9.06,3a
2019-07-15_180907:840,-0.46670500000000004,-0.019318000000000002,-0.139801,-0.004336,0.00172,0.000648,-38.75,-21.18,-9.06,3a
2019-07-15_180907:860,-0.46875,-0.019806,-0.14032,-0.004397,0.001628,0.000496,-39.18,-21.5,-11.06,3a
2019-07-15_180907:880,-0.46926899999999994,-0.019806,-0.14032,-0.004152,0.001353,0.000648,-39.18,-21.5,-11.06,3a
2019-07-15_180907:900,-0.47079499999999996,-0.019318000000000002,-0.141846,-0.003878,0.001292,0.000496,-38.75,-21.870001000000002,-10.25,3a
2019-07-15_180907:920,-0.46926899999999994,-0.020844,-0.142334,-0.003817,0.001292,6.8e-05,-38.75,-21.870001000000002,-10.25,3a
2019-07-15_180907:940,-0.471283,-0.018799,-0.139282,-0.003664,0.001598,0.001381,-38.75,-21.870001000000002,-10.25,3a
2019-07-15_180907:960,-0.47280900000000003,-0.019806,-0.142334,-0.0034509999999999996,0.001598,0.00196,-39.18,-21.5,-10.25,3a
2019-07-15_180907:980,-0.467743,-0.017792,-0.14032,-0.00403,0.001628,0.000923,-39.18,-21.5,-10.25,3a
2019-07-15_180908:000,-0.470276,-0.018799,-0.14386,-0.003939,0.0014759999999999999,0.000496,-38.5,-21.870001000000002,-10.75,3a
2019-07-15_180908:020,-0.46823100000000006,-0.01828,-0.142853,-0.004488000000000001,0.001353,0.00028199999999999997,-38.5,-21.870001000000002,-10.75,3a
2019-07-15_180908:040,-0.471283,-0.017792,-0.142334,-0.004488000000000001,0.001537,0.001167,-38.5,-21.870001000000002,-10.75,3a
2019-07-15_180908:060,-0.471283,-0.021332,-0.142334,-0.004488000000000001,0.0017809999999999998,0.001503,-38.5,-20.5,-11.06,3a
2019-07-15_180908:080,-0.46926899999999994,-0.021332,-0.140808,-0.004275,0.002177,0.001045,-38.5,-20.5,-11.06,3a
2019-07-15_180908:100,-0.46926899999999994,-0.020844,-0.141327,-0.004336,0.001994,0.001228,-38.060001,-21.5,-10.75,3a
2019-07-15_180908:120,-0.467224,-0.019806,-0.141327,-0.004427,0.001842,0.001228,-38.060001,-21.5,-10.75,3a
2019-07-15_180908:140,-0.467743,-0.020844,-0.141327,-0.004549,0.001353,0.001228,-38.060001,-21.5,-10.75,3a
2019-07-15_180908:160,-0.469757,-0.021332,-0.14386,-0.004793,0.0010789999999999999,0.0008619999999999999,-38.060001,-21.870001000000002,-10.75,3a
2019-07-15_180908:180,-0.471283,-0.022858,-0.140808,-0.004793,0.0012619999999999999,0.000404,-38.060001,-21.870001000000002,-10.75,3a
2019-07-15_180908:200,-0.47280900000000003,-0.022369,-0.142853,-0.004427,0.001353,0.000465,-39.18,-21.5,-11.5,3a
2019-07-15_180908:220,-0.471283,-0.022858,-0.142334,-0.004152,0.00172,0.0007700000000000001,-39.18,-21.5,-11.5,3a
2019-07-15_180908:240,-0.46875,-0.022858,-0.141846,-0.0034509999999999996,0.002177,0.000831,-39.18,-21.5,-11.5,3a
2019-07-15_180908:260,-0.469757,-0.019806,-0.142853,-0.0034509999999999996,0.001842,0.000343,-38.5,-21.5,-10.25,3a
2019-07-15_180908:280,-0.47079499999999996,-0.018799,-0.141327,-0.003512,0.001964,0.001167,-38.5,-21.5,-10.25,3a
2019-07-15_180908:300,-0.47079499999999996,-0.018799,-0.142334,-0.003512,0.001842,0.00132,-38.75,-21.18,-10.75,3a
2019-07-15_180908:320,-0.469757,-0.018799,-0.141327,-0.00403,0.002055,0.0008619999999999999,-38.75,-21.18,-10.75,3a
2019-07-15_180908:340,-0.46823100000000006,-0.019806,-0.141327,-0.004091,0.002177,0.000923,-38.75,-21.18,-10.75,3a
2019-07-15_180908:360,-0.467743,-0.022369,-0.142334,-0.004336,0.0019030000000000002,0.000648,-38.75,-21.18,-11.5,3a
2019-07-15_180908:380,-0.46926899999999994,-0.023895,-0.140808,-0.004427,0.0019030000000000002,0.000648,-38.75,-21.18,-11.5,3a
2019-07-15_180908:400,-0.469757,-0.024384,-0.140808,-0.00403,0.001964,0.000526,-38.75,-21.870001000000002,-10.75,3a
2019-07-15_180908:420,-0.46875,-0.023375999999999997,-0.142853,-0.003573,0.001842,0.000465,-38.75,-21.870001000000002,-10.75,3a
2019-07-15_180908:440,-0.47079499999999996,-0.022858,-0.142853,-0.003512,0.0017809999999999998,0.000465,-38.75,-21.870001000000002,-10.75,3a
2019-07-15_180908:460,-0.469757,-0.022369,-0.142853,-0.003237,0.002239,0.000465,-39.560001,-20.75,-10.75,3a
2019-07-15_180908:480,-0.469757,-0.019806,-0.140808,-0.00339,0.001994,0.000343,-39.560001,-20.75,-10.75,3a
2019-07-15_180908:500,-0.46926899999999994,-0.019806,-0.141327,-0.003664,0.001994,0.000221,-39.560001,-21.5,-12.25,3a
2019-07-15_180908:520,-0.470276,-0.020844,-0.139801,-0.003939,0.001964,-0.00011499999999999999,-39.560001,-21.5,-12.25,3a
2019-07-15_180908:540,-0.46926899999999994,-0.021851,-0.139801,-0.003817,0.002055,7.000000000000001e-06,-39.560001,-21.5,-12.25,3a
2019-07-15_180908:560,-0.467743,-0.021851,-0.140808,-0.0037560000000000002,0.001842,7.000000000000001e-06,-38.5,-20.75,-10.25,3a
2019-07-15_180908:580,-0.46926899999999994,-0.022858,-0.138794,-0.003573,0.001537,6.8e-05,-38.5,-20.75,-10.25,3a
2019-07-15_180908:600,-0.46926899999999994,-0.021332,-0.139801,-0.0032979999999999997,0.00172,0.00016,-38.75,-21.18,-11.5,3a
2019-07-15_180908:620,-0.46926899999999994,-0.022369,-0.140808,-0.002993,0.001353,7.000000000000001e-06,-38.75,-21.18,-11.5,3a
2019-07-15_180908:640,-0.469757,-0.020844,-0.139801,-0.0029010000000000004,0.001415,0.00016,-38.75,-21.18,-11.5,3a
2019-07-15_180908:660,-0.47180200000000005,-0.021332,-0.141846,-0.0028399999999999996,0.0014759999999999999,0.000221,-38.5,-21.5,-10.75,3a
2019-07-15_180908:680,-0.470276,-0.020844,-0.140808,-0.002993,0.001628,7.000000000000001e-06,-38.5,-21.5,-10.75,3a
2019-07-15_180908:700,-0.469757,-0.020844,-0.141846,-0.0031149999999999997,0.0016589999999999999,6.8e-05,-38.5,-21.870001000000002,-9.87,3a
2019-07-15_180908:720,-0.469757,-0.021332,-0.14032,-0.0032979999999999997,0.001842,-0.000176,-38.5,-21.870001000000002,-9.87,3a
2019-07-15_180908:740,-0.46823100000000006,-0.022369,-0.139282,-0.003237,0.00172,-0.000389,-38.5,-21.870001000000002,-9.87,3a
2019-07-15_180908:760,-0.470276,-0.021332,-0.140808,-0.003176,0.001537,-0.00045099999999999996,-38.5,-21.18,-11.5,3a
2019-07-15_180908:780,-0.47079499999999996,-0.020844,-0.141327,-0.0029010000000000004,0.001598,-0.000389,-38.5,-21.18,-11.5,3a
2019-07-15_180908:800,-0.472321,-0.019806,-0.14032,-0.002779,0.001628,-0.000389,-38.5,-21.18,-11.5,3a
2019-07-15_180908:820,-0.47079499999999996,-0.019318000000000002,-0.14032,-0.002779,0.00172,-0.000908,-38.75,-21.5,-11.5,3a
2019-07-15_180908:840,-0.47079499999999996,-0.017792,-0.138794,-0.0029010000000000004,0.001994,7.000000000000001e-06,-38.75,-21.5,-11.5,3a
2019-07-15_180908:860,-0.47180200000000005,-0.017273,-0.139801,-0.0032979999999999997,0.001842,0.0008619999999999999,-38.5,-21.5,-10.75,3a
2019-07-15_180908:880,-0.46823100000000006,-0.01828,-0.138794,-0.0036340000000000005,0.001598,0.00028199999999999997,-38.5,-21.5,-10.75,3a
2019-07-15_180908:900,-0.470276,-0.019318000000000002,-0.141327,-0.003664,0.001415,-0.000634,-38.5,-21.5,-10.75,3a
2019-07-15_180908:920,-0.469757,-0.020325,-0.141846,-0.004091,0.0014759999999999999,-0.000908,-38.75,-21.5,-11.5,3a
2019-07-15_180908:940,-0.47079499999999996,-0.019318000000000002,-0.141846,-0.004091,0.0014759999999999999,-5.4000000000000005e-05,-38.75,-21.5,-11.5,3a
2019-07-15_180908:960,-0.471283,-0.020844,-0.143372,-0.003817,0.00172,0.00028199999999999997,-38.060001,-21.5,-11.87,3a
2019-07-15_180908:980,-0.471283,-0.018799,-0.141327,-0.0036340000000000005,0.0019030000000000002,7.000000000000001e-06,-38.060001,-21.5,-11.87,3a
2019-07-15_180909:000,-0.47180200000000005,-0.01828,-0.141846,-0.003664,0.002055,0.000404,-38.060001,-21.5,-11.87,3a
2019-07-15_180909:020,-0.47079499999999996,-0.01828,-0.142334,-0.003817,0.002239,0.000465,-39.18,-21.18,-11.06,3a
2019-07-15_180909:040,-0.47079499999999996,-0.017273,-0.140808,-0.003939,0.0023,0.000526,-39.18,-21.18,-11.06,3a
2019-07-15_180909:060,-0.46926899999999994,-0.01828,-0.141846,-0.004336,0.002239,0.000343,-38.75,-21.18,-11.5,3a
2019-07-15_180909:080,-0.469757,-0.019806,-0.139801,-0.004427,0.002239,-0.00023700000000000001,-38.75,-21.18,-11.5,3a
2019-07-15_180909:100,-0.472321,-0.020844,-0.140808,-0.004091,0.002239,-0.00023700000000000001,-38.75,-21.18,-11.5,3a
2019-07-15_180909:120,-0.471283,-0.019806,-0.139282,-0.003817,0.002513,0.00016,-39.18,-21.18,-9.87,3a
2019-07-15_180909:140,-0.469757,-0.020325,-0.138794,-0.0033280000000000002,0.002635,6.8e-05,-39.18,-21.18,-9.87,3a
2019-07-15_180909:160,-0.470276,-0.018799,-0.14032,-0.003237,0.002574,-0.000512,-37.68,-22.25,-11.5,3a
2019-07-15_180909:180,-0.470276,-0.017792,-0.138794,-0.003176,0.002513,-5.4000000000000005e-05,-37.68,-22.25,-11.5,3a
2019-07-15_180909:200,-0.470276,-0.017273,-0.138794,-0.0033280000000000002,0.002574,7.000000000000001e-06,-37.68,-22.25,-11.5,3a
2019-07-15_180909:220,-0.471283,-0.017273,-0.139282,-0.003664,0.002361,-0.000328,-38.5,-21.870001000000002,-11.06,3a
2019-07-15_180909:240,-0.471283,-0.017792,-0.139801,-0.0037560000000000002,0.002574,-0.00023700000000000001,-38.5,-21.870001000000002,-11.06,3a
2019-07-15_180909:260,-0.471283,-0.017792,-0.138794,-0.004091,0.002574,-0.000634,-38.5,-21.5,-9.87,3a
2019-07-15_180909:280,-0.47079499999999996,-0.01828,-0.137756,-0.004,0.002635,-0.00045099999999999996,-38.5,-21.5,-9.87,3a
2019-07-15_180909:300,-0.472321,-0.017792,-0.138275,-0.0036950000000000004,0.002849,-0.000573,-38.5,-21.5,-9.87,3a
2019-07-15_180909:320,-0.471283,-0.017792,-0.138794,-0.0037560000000000002,0.002971,-0.000725,-39.18,-21.870001000000002,-11.06,3a
2019-07-15_180909:340,-0.471283,-0.016266,-0.13623,-0.0033280000000000002,0.003124,-0.000634,-39.18,-21.870001000000002,-11.06,3a
2019-07-15_180909:360,-0.470276,-0.017273,-0.135742,-0.003237,0.003032,-0.00045099999999999996,-38.5,-21.5,-11.06,3a
2019-07-15_180909:380,-0.469757,-0.016266,-0.134705,-0.0031149999999999997,0.003032,-0.00045099999999999996,-38.5,-21.5,-11.06,3a
2019-07-15_180909:400,-0.471283,-0.014221000000000001,-0.135223,-0.003176,0.0029100000000000003,-0.00023700000000000001,-38.5,-21.5,-11.06,3a
2019-07-15_180909:420,-0.47079499999999996,-0.014740000000000001,-0.133698,-0.003237,0.002788,-0.000176,-39.560001,-21.5,-10.25,3a
2019-07-15_180909:440,-0.47433500000000006,-0.017792,-0.133698,-0.0033280000000000002,0.002971,-5.4000000000000005e-05,-39.560001,-21.5,-10.25,3a
2019-07-15_180909:460,-0.472321,-0.01828,-0.134216,-0.0031149999999999997,0.002757,0.00028199999999999997,-38.5,-21.18,-9.87,3a
2019-07-15_180909:480,-0.471283,-0.017792,-0.13269,-0.002657,0.002239,0.000496,-38.5,-21.18,-9.87,3a
2019-07-15_180909:500,-0.47433500000000006,-0.017273,-0.13269,-0.0025960000000000002,0.001994,0.000496,-38.5,-21.18,-9.87,3a
2019-07-15_180909:520,-0.474854,-0.018799,-0.134705,-0.0025960000000000002,0.0023,0.000496,-38.75,-22.68,-10.25,3a
2019-07-15_180909:540,-0.47433500000000006,-0.018799,-0.133698,-0.002443,0.001994,0.00028199999999999997,-38.75,-22.68,-10.25,3a
2019-07-15_180909:560,-0.47332799999999997,-0.019806,-0.134705,-0.002169,0.002055,0.00016,-39.560001,-22.25,-10.25,3a
2019-07-15_180909:580,-0.47842399999999996,-0.01828,-0.137268,-0.001925,0.002055,0.000129,-39.560001,-22.25,-10.25,3a
2019-07-15_180909:600,-0.47079499999999996,-0.018799,-0.131165,-0.001864,0.002757,6.8e-05,-39.560001,-22.25,-10.25,3a
2019-07-15_180909:620,-0.475372,-0.01828,-0.134216,-0.0015890000000000001,0.002177,7.000000000000001e-06,-39.18,-22.25,-10.75,3a
2019-07-15_180909:640,-0.474854,-0.017273,-0.131653,-0.0015890000000000001,0.002574,0.000129,-39.18,-22.25,-10.75,3a
2019-07-15_180909:660,-0.474854,-0.016753999999999998,-0.13269,-0.001864,0.0024519999999999998,0.000221,-39.18,-21.5,-9.87,3a
2019-07-15_180909:680,-0.474854,-0.015747,-0.132172,-0.002199,0.0024519999999999998,0.000221,-39.18,-21.5,-9.87,3a
2019-07-15_180909:700,-0.474854,-0.015747,-0.133698,-0.002535,0.0023,0.000404,-39.18,-21.5,-9.87,3a
2019-07-15_180909:720,-0.476379,-0.017792,-0.133698,-0.002718,0.002391,-0.000328,-38.5,-21.5,-9.87,3a
2019-07-15_180909:740,-0.474854,-0.015228,-0.130646,-0.003237,0.002513,7.000000000000001e-06,-38.5,-21.5,-9.87,3a
2019-07-15_180909:760,-0.475372,-0.01828,-0.132172,-0.0032979999999999997,0.0023,0.001503,-38.75,-21.5,-10.75,3a
2019-07-15_180909:780,-0.47180200000000005,-0.017792,-0.12912,-0.0034509999999999996,0.001994,0.0007700000000000001,-38.75,-21.5,-10.75,3a
2019-07-15_180909:800,-0.47280900000000003,-0.017792,-0.131165,-0.0032979999999999997,0.00172,0.000526,-38.75,-21.5,-10.75,3a
2019-07-15_180909:820,-0.472321,-0.019318000000000002,-0.131165,-0.0033280000000000002,0.001598,0.00028199999999999997,-39.18,-20.75,-9.87,3a
2019-07-15_180909:840,-0.472321,-0.01828,-0.131165,-0.00339,0.0012619999999999999,0.0007700000000000001,-39.18,-20.75,-9.87,3a
2019-07-15_180909:860,-0.47332799999999997,-0.019806,-0.133698,-0.003237,0.0009570000000000001,0.001503,-39.18,-21.870001000000002,-11.06,3a
2019-07-15_180909:880,-0.473846,-0.018799,-0.131653,-0.0031149999999999997,0.000865,0.001045,-39.18,-21.870001000000002,-11.06,3a
2019-07-15_180909:900,-0.47433500000000006,-0.019318000000000002,-0.133698,-0.003176,0.000743,0.001167,-39.18,-21.870001000000002,-11.06,3a
2019-07-15_180909:920,-0.475861,-0.01828,-0.133179,-0.003664,0.001018,0.001381,-39.18,-22.25,-10.75,3a
2019-07-15_180909:940,-0.47332799999999997,-0.020325,-0.133698,-0.003939,0.0012619999999999999,0.001381,-39.18,-22.25,-10.75,3a
2019-07-15_180909:960,-0.474854,-0.020325,-0.135742,-0.004152,0.0012619999999999999,0.001381,-38.060001,-21.5,-11.5,3a
2019-07-15_180909:980,-0.477386,-0.022369,-0.133179,-0.004336,0.001292,0.000923,-38.060001,-21.5,-11.5,3a
2019-07-15_180910:000,-0.478912,-0.021851,-0.135742,-0.004397,0.0016589999999999999,0.0007700000000000001,-38.060001,-21.5,-11.5,3a
2019-07-15_180910:020,-0.475861,-0.022858,-0.133698,-0.004213000000000001,0.0023,0.000984,-39.18,-21.870001000000002,-9.87,3a
2019-07-15_180910:040,-0.47280900000000003,-0.023895,-0.13269,-0.004091,0.002574,0.000831,-39.18,-21.870001000000002,-9.87,3a
2019-07-15_180910:060,-0.47280900000000003,-0.021851,-0.131653,-0.003878,0.0023,-0.00011499999999999999,-38.5,-21.5,-11.06,3a
2019-07-15_180910:080,-0.47332799999999997,-0.021851,-0.132172,-0.003664,0.002177,0.000404,-38.5,-21.5,-11.06,3a
2019-07-15_180910:100,-0.47433500000000006,-0.022369,-0.131165,-0.0033280000000000002,0.002391,0.000404,-38.5,-21.5,-11.06,3a
2019-07-15_180910:120,-0.47433500000000006,-0.020844,-0.132172,-0.003176,0.002055,7.000000000000001e-06,-38.5,-21.5,-11.06,3a
2019-07-15_180910:140,-0.47433500000000006,-0.019806,-0.133179,-0.0031149999999999997,0.002116,0.000129,-38.5,-21.5,-11.06,3a
2019-07-15_180910:160,-0.47280900000000003,-0.019806,-0.13269,-0.003176,0.001994,-5.4000000000000005e-05,-38.060001,-21.18,-10.75,3a
2019-07-15_180910:180,-0.474854,-0.019318000000000002,-0.130646,-0.003176,0.002116,0.000129,-38.060001,-21.18,-10.75,3a
2019-07-15_180910:200,-0.474854,-0.019318000000000002,-0.13269,-0.003237,0.001994,7.000000000000001e-06,-38.060001,-21.18,-10.75,3a
2019-07-15_180910:220,-0.473846,-0.01828,-0.13269,-0.0033280000000000002,0.002177,0.000129,-39.18,-21.18,-10.25,3a
2019-07-15_180910:240,-0.473846,-0.019806,-0.131653,-0.00339,0.0017809999999999998,0.000221,-39.18,-21.18,-10.25,3a
2019-07-15_180910:260,-0.47433500000000006,-0.020325,-0.131653,-0.0034509999999999996,0.001994,0.000465,-38.5,-21.870001000000002,-11.06,3a
2019-07-15_180910:280,-0.47433500000000006,-0.019318000000000002,-0.131653,-0.00339,0.001994,0.000465,-38.5,-21.870001000000002,-11.06,3a
2019-07-15_180910:300,-0.47433500000000006,-0.019806,-0.13269,-0.003237,0.001994,0.000404,-38.5,-21.870001000000002,-11.06,3a
2019-07-15_180910:320,-0.473846,-0.019318000000000002,-0.131165,-0.002993,0.001964,0.000404,-39.560001,-21.18,-9.56,3a
2019-07-15_180910:340,-0.474854,-0.019318000000000002,-0.131165,-0.0029010000000000004,0.001964,0.000496,-39.560001,-21.18,-9.56,3a
2019-07-15_180910:360,-0.474854,-0.01828,-0.131165,-0.003054,0.0019030000000000002,0.000526,-38.75,-20.75,-10.25,3a
2019-07-15_180910:380,-0.47433500000000006,-0.018799,-0.131653,-0.002993,0.001964,0.000465,-38.75,-20.75,-10.25,3a
2019-07-15_180910:400,-0.473846,-0.017792,-0.131653,-0.0032979999999999997,0.002239,0.000526,-38.75,-20.75,-10.25,3a
2019-07-15_180910:420,-0.473846,-0.020325,-0.131653,-0.0034509999999999996,0.001842,0.000496,-39.18,-21.5,-10.25,3a
2019-07-15_180910:440,-0.47433500000000006,-0.018799,-0.130127,-0.0033280000000000002,0.001598,0.000587,-39.18,-21.5,-10.25,3a
2019-07-15_180910:460,-0.475372,-0.01828,-0.13269,-0.0034509999999999996,0.001598,0.000831,-39.560001,-21.18,-10.25,3a
2019-07-15_180910:480,-0.475861,-0.01828,-0.130127,-0.003512,0.00172,0.000587,-39.560001,-21.18,-10.25,3a
2019-07-15_180910:500,-0.475861,-0.01828,-0.130646,-0.003573,0.0017809999999999998,0.000648,-39.560001,-21.18,-10.25,3a
2019-07-15_180910:520,-0.47433500000000006,-0.017273,-0.132172,-0.0036950000000000004,0.0017809999999999998,0.000496,-38.75,-21.870001000000002,-11.06,3a
2019-07-15_180910:540,-0.473846,-0.018799,-0.130646,-0.003573,0.001842,0.000526,-38.75,-21.870001000000002,-11.06,3a
2019-07-15_180910:560,-0.47433500000000006,-0.019318000000000002,-0.130127,-0.0037560000000000002,0.001598,0.000465,-38.5,-21.5,-10.25,3a
2019-07-15_180910:580,-0.475372,-0.018799,-0.128601,-0.003817,0.0016589999999999999,0.000587,-38.5,-21.5,-10.25,3a
2019-07-15_180910:600,-0.475861,-0.020325,-0.130646,-0.0034509999999999996,0.0017809999999999998,0.000496,-38.5,-21.5,-10.25,3a
2019-07-15_180910:620,-0.474854,-0.019318000000000002,-0.130646,-0.003512,0.002055,-0.000176,-39.18,-21.18,-10.75,3a
2019-07-15_180910:640,-0.476379,-0.019806,-0.12658699999999998,-0.0033280000000000002,0.001964,0.000984,-39.18,-21.18,-10.75,3a
2019-07-15_180910:660,-0.47433500000000006,-0.019806,-0.128601,-0.0032979999999999997,0.001994,0.001777,-38.75,-21.870001000000002,-9.87,3a
2019-07-15_180910:680,-0.472321,-0.017792,-0.128601,-0.0037560000000000002,0.002055,0.000984,-38.75,-21.870001000000002,-9.87,3a
2019-07-15_180910:700,-0.471283,-0.019318000000000002,-0.130127,-0.0036950000000000004,0.001598,0.0007700000000000001,-38.75,-21.870001000000002,-9.87,3a
2019-07-15_180910:720,-0.47280900000000003,-0.020325,-0.130646,-0.004091,0.00114,0.000129,-38.060001,-21.5,-9.87,3a
2019-07-15_180910:740,-0.476379,-0.020844,-0.13269,-0.004213000000000001,0.0009570000000000001,0.000984,-38.060001,-21.5,-9.87,3a
2019-07-15_180910:760,-0.47433500000000006,-0.022369,-0.131653,-0.004275,0.001201,0.001442,-39.18,-21.5,-9.87,3a
2019-07-15_180910:780,-0.476379,-0.020844,-0.131165,-0.004275,0.001598,0.0008619999999999999,-39.18,-21.5,-9.87,3a
2019-07-15_180910:800,-0.474854,-0.021332,-0.130646,-0.004152,0.0016589999999999999,0.001228,-39.18,-21.5,-9.87,3a
2019-07-15_180910:820,-0.47433500000000006,-0.020844,-0.13269,-0.004213000000000001,0.001628,0.000984,-38.75,-21.5,-9.18,3a
2019-07-15_180910:840,-0.475372,-0.021851,-0.132172,-0.004397,0.001598,0.001106,-38.75,-21.5,-9.18,3a
2019-07-15_180910:860,-0.473846,-0.021332,-0.13269,-0.004275,0.0014759999999999999,0.000587,-39.18,-21.5,-11.06,3a
2019-07-15_180910:880,-0.475861,-0.022858,-0.131165,-0.004213000000000001,0.0014759999999999999,6.8e-05,-39.18,-21.5,-11.06,3a
2019-07-15_180910:900,-0.473846,-0.021851,-0.131165,-0.003939,0.001598,0.000343,-39.18,-21.5,-11.06,3a
2019-07-15_180910:920,-0.476379,-0.022369,-0.131165,-0.0036340000000000005,0.001842,0.000923,-38.5,-21.870001000000002,-11.06,3a
2019-07-15_180910:940,-0.47433500000000006,-0.021332,-0.130127,-0.003512,0.001994,0.00028199999999999997,-38.5,-21.870001000000002,-11.06,3a
2019-07-15_180910:960,-0.475372,-0.019806,-0.132172,-0.003237,0.00172,6.8e-05,-38.5,-21.5,-9.18,3a
2019-07-15_180910:980,-0.47433500000000006,-0.018799,-0.128601,-0.0033280000000000002,0.0017809999999999998,0.000923,-38.5,-21.5,-9.18,3a
2019-07-15_180911:000,-0.47433500000000006,-0.018799,-0.12912,-0.003817,0.00172,0.000496,-38.5,-21.5,-9.18,3a
2019-07-15_180911:020,-0.475372,-0.019806,-0.130646,-0.003817,0.001628,0.000465,-38.75,-21.5,-9.87,3a
2019-07-15_180911:040,-0.475861,-0.019318000000000002,-0.128601,-0.004091,0.0016589999999999999,0.000404,-38.75,-21.5,-9.87,3a
2019-07-15_180911:060,-0.475861,-0.019806,-0.130646,-0.004152,0.001842,0.000343,-38.5,-21.870001000000002,-9.87,3a
2019-07-15_180911:080,-0.475372,-0.021851,-0.128601,-0.003878,0.0017809999999999998,0.000496,-38.5,-21.870001000000002,-9.87,3a
2019-07-15_180911:100,-0.475861,-0.021851,-0.12912,-0.003664,0.001964,0.000404,-38.5,-21.870001000000002,-9.87,3a
2019-07-15_180911:120,-0.475861,-0.021332,-0.129639,-0.0034509999999999996,0.001964,0.000343,-38.75,-21.5,-10.37,3a
2019-07-15_180911:140,-0.475372,-0.020844,-0.128601,-0.003237,0.002116,0.00016,-38.75,-21.5,-10.37,3a
2019-07-15_180911:160,-0.475372,-0.020325,-0.128113,-0.0031149999999999997,0.0019030000000000002,0.000221,-39.18,-21.18,-10.75,3a
2019-07-15_180911:180,-0.47433500000000006,-0.019806,-0.127594,-0.002932,0.002116,0.000129,-39.18,-21.18,-10.75,3a
2019-07-15_180911:200,-0.472321,-0.018799,-0.128601,-0.003054,0.0017809999999999998,0.00028199999999999997,-39.18,-21.18,-10.75,3a
2019-07-15_180911:220,-0.47280900000000003,-0.01828,-0.130127,-0.0031149999999999997,0.001415,0.000587,-38.5,-21.5,-9.56,3a
2019-07-15_180911:240,-0.47280900000000003,-0.018799,-0.129639,-0.0032979999999999997,0.0014759999999999999,0.000496,-38.5,-21.5,-9.56,3a
2019-07-15_180911:260,-0.473846,-0.019318000000000002,-0.131653,-0.0036950000000000004,0.001018,0.0007700000000000001,-38.75,-21.5,-10.75,3a
2019-07-15_180911:280,-0.475861,-0.019806,-0.130646,-0.004213000000000001,0.0008039999999999999,0.000648,-38.75,-21.5,-10.75,3a
2019-07-15_180911:300,-0.475861,-0.019318000000000002,-0.12912,-0.004275,0.0008039999999999999,0.000648,-38.75,-21.5,-10.75,3a
2019-07-15_180911:320,-0.477386,-0.020325,-0.130127,-0.004275,0.0008960000000000001,0.0007700000000000001,-39.560001,-21.18,-9.18,3a
2019-07-15_180911:340,-0.477386,-0.021332,-0.131165,-0.004152,0.00114,0.000831,-39.560001,-21.18,-9.18,3a
2019-07-15_180911:360,-0.476379,-0.020325,-0.131165,-0.004213000000000001,0.001598,0.000984,-39.560001,-22.25,-10.75,3a
2019-07-15_180911:380,-0.475372,-0.019806,-0.130646,-0.00403,0.001842,0.001106,-39.560001,-22.25,-10.75,3a
2019-07-15_180911:400,-0.473846,-0.019806,-0.130127,-0.004091,0.0019030000000000002,0.000984,-39.560001,-22.25,-10.75,3a
2019-07-15_180911:420,-0.47280900000000003,-0.019806,-0.131165,-0.004336,0.0019030000000000002,0.000709,-38.5,-21.870001000000002,-9.87,3a
2019-07-15_180911:440,-0.474854,-0.021332,-0.129639,-0.004427,0.001628,0.000526,-38.5,-21.870001000000002,-9.87,3a
2019-07-15_180911:460,-0.474854,-0.021332,-0.130127,-0.004336,0.0014759999999999999,0.000404,-39.18,-21.870001000000002,-9.87,3a
2019-07-15_180911:480,-0.47332799999999997,-0.021851,-0.128113,-0.004,0.001292,0.000129,-39.18,-21.870001000000002,-9.87,3a
2019-07-15_180911:500,-0.474854,-0.020325,-0.130127,-0.0037560000000000002,0.0012619999999999999,0.000129,-39.18,-21.870001000000002,-9.87,3a
2019-07-15_180911:520,-0.47943100000000005,-0.020325,-0.129639,-0.003512,0.001292,0.001503,-38.5,-21.870001000000002,-11.5,3a
2019-07-15_180911:540,-0.476379,-0.020325,-0.130127,-0.0036340000000000005,0.001201,0.0007700000000000001,-38.5,-21.870001000000002,-11.5,3a
2019-07-15_180911:560,-0.47433500000000006,-0.019318000000000002,-0.13269,-0.0036950000000000004,0.0012619999999999999,0.000587,-40.0,-22.25,-9.87,3a
2019-07-15_180911:580,-0.47180200000000005,-0.020844,-0.132172,-0.003817,0.00114,-5.4000000000000005e-05,-40.0,-22.25,-9.87,3a
2019-07-15_180911:600,-0.47280900000000003,-0.020325,-0.131165,-0.004,0.000621,0.00028199999999999997,-40.0,-22.25,-9.87,3a
2019-07-15_180911:620,-0.475861,-0.021332,-0.133179,-0.004,0.000621,0.001381,-39.560001,-20.75,-9.56,3a
2019-07-15_180911:640,-0.474854,-0.020844,-0.132172,-0.0036950000000000004,0.000865,0.000831,-39.560001,-20.75,-9.56,3a
2019-07-15_180911:660,-0.473846,-0.021851,-0.13269,-0.003573,0.00114,0.001106,-39.18,-21.5,-10.75,3a
2019-07-15_180911:680,-0.47433500000000006,-0.022369,-0.133179,-0.0037560000000000002,0.0012619999999999999,0.000923,-39.18,-21.5,-10.75,3a
2019-07-15_180911:700,-0.47280900000000003,-0.023895,-0.133179,-0.0036950000000000004,0.001018,0.000648,-39.18,-21.5,-10.75,3a
2019-07-15_180911:720,-0.473846,-0.022858,-0.133698,-0.003664,0.0010789999999999999,0.0007700000000000001,-38.75,-21.5,-10.25,3a
2019-07-15_180911:740,-0.47433500000000006,-0.023375999999999997,-0.133698,-0.003573,0.001292,0.000465,-38.75,-21.5,-10.25,3a
2019-07-15_180911:760,-0.47689799999999993,-0.023375999999999997,-0.134216,-0.0032979999999999997,0.0012619999999999999,0.000129,-39.18,-21.18,-11.06,3a
2019-07-15_180911:780,-0.47332799999999997,-0.023895,-0.133179,-0.002932,0.0016589999999999999,0.000587,-39.18,-21.18,-11.06,3a
2019-07-15_180911:800,-0.476379,-0.022369,-0.133698,-0.002718,0.0016589999999999999,0.0008619999999999999,-39.18,-21.18,-11.06,3a
2019-07-15_180911:820,-0.47433500000000006,-0.022369,-0.131165,-0.0025960000000000002,0.0019030000000000002,-0.00023700000000000001,-39.18,-21.18,-10.37,3a
2019-07-15_180911:840,-0.47332799999999997,-0.020844,-0.131165,-0.0028399999999999996,0.0016589999999999999,-0.00011499999999999999,-39.18,-21.18,-10.37,3a
2019-07-15_180911:860,-0.47332799999999997,-0.020325,-0.131653,-0.002932,0.001842,0.000496,-39.18,-21.5,-11.06,3a
2019-07-15_180911:880,-0.473846,-0.019318000000000002,-0.131653,-0.0032979999999999997,0.00172,7.000000000000001e-06,-39.18,-21.5,-11.06,3a
2019-07-15_180911:900,-0.47332799999999997,-0.021332,-0.13269,-0.003573,0.0014759999999999999,0.00016,-39.18,-21.5,-11.06,3a
2019-07-15_180911:920,-0.474854,-0.021851,-0.132172,-0.003664,0.001292,0.00016,-38.5,-21.5,-11.5,3a
2019-07-15_180911:940,-0.474854,-0.020325,-0.134216,-0.0036950000000000004,0.001598,0.000221,-38.5,-21.5,-11.5,3a
2019-07-15_180911:960,-0.475861,-0.020844,-0.134216,-0.003573,0.0019030000000000002,0.00028199999999999997,-38.5,-21.5,-11.06,3a
2019-07-15_180911:980,-0.47433500000000006,-0.021851,-0.133698,-0.003512,0.0019030000000000002,7.000000000000001e-06,-38.5,-21.5,-11.06,3a
2019-07-15_180912:000,-0.474854,-0.021851,-0.133698,-0.0032979999999999997,0.002116,0.000129,-38.5,-21.5,-11.06,3a
2019-07-15_180912:020,-0.47332799999999997,-0.021332,-0.133179,-0.0033280000000000002,0.002177,0.000129,-39.560001,-21.5,-10.75,3a
2019-07-15_180912:040,-0.47280900000000003,-0.021851,-0.133179,-0.003054,0.002177,0.00016,-39.560001,-21.5,-10.75,3a
2019-07-15_180912:060,-0.47280900000000003,-0.020325,-0.132172,-0.003237,0.001842,7.000000000000001e-06,-38.5,-21.5,-10.75,3a
2019-07-15_180912:080,-0.47332799999999997,-0.020844,-0.131653,-0.003176,0.001994,-0.000176,-38.5,-21.5,-10.75,3a
2019-07-15_180912:100,-0.47433500000000006,-0.020325,-0.133698,-0.00339,0.001964,-5.4000000000000005e-05,-38.5,-21.5,-10.75,3a
2019-07-15_180912:120,-0.475372,-0.019806,-0.13269,-0.003573,0.001994,-0.00011499999999999999,-39.560001,-22.68,-9.56,3a
2019-07-15_180912:140,-0.475372,-0.019318000000000002,-0.13269,-0.003664,0.001994,7.000000000000001e-06,-39.560001,-22.68,-9.56,3a
2019-07-15_180912:160,-0.475372,-0.020844,-0.133179,-0.003878,0.0023,-0.00011499999999999999,-38.75,-21.18,-10.75,3a
2019-07-15_180912:180,-0.473846,-0.019806,-0.130646,-0.003939,0.002055,-0.00011499999999999999,-38.75,-21.18,-10.75,3a
2019-07-15_180912:200,-0.47433500000000006,-0.020844,-0.130646,-0.004,0.002361,7.000000000000001e-06,-38.75,-21.18,-10.75,3a
2019-07-15_180912:220,-0.473846,-0.020325,-0.131165,-0.003939,0.002239,-5.4000000000000005e-05,-38.75,-21.18,-11.06,3a
2019-07-15_180912:240,-0.473846,-0.019318000000000002,-0.130127,-0.003817,0.0019030000000000002,-5.4000000000000005e-05,-38.75,-21.18,-11.06,3a
2019-07-15_180912:260,-0.473846,-0.019806,-0.131165,-0.003939,0.0017809999999999998,-0.00011499999999999999,-38.75,-22.25,-9.87,3a
2019-07-15_180912:280,-0.474854,-0.017792,-0.131165,-0.003878,0.001628,-5.4000000000000005e-05,-38.75,-22.25,-9.87,3a
2019-07-15_180912:300,-0.475372,-0.018799,-0.130646,-0.003939,0.0016589999999999999,-0.00023700000000000001,-38.75,-22.25,-9.87,3a
2019-07-15_180912:320,-0.475372,-0.01828,-0.131165,-0.0036950000000000004,0.00172,-0.00023700000000000001,-39.560001,-21.870001000000002,-10.25,3a
2019-07-15_180912:340,-0.475861,-0.01828,-0.131165,-0.004,0.002055,-0.00023700000000000001,-39.560001,-21.870001000000002,-10.25,3a
2019-07-15_180912:360,-0.47433500000000006,-0.01828,-0.130646,-0.003817,0.00172,-0.00011499999999999999,-38.5,-21.5,-9.87,3a
2019-07-15_180912:380,-0.474854,-0.018799,-0.130127,-0.003573,0.001842,-0.000634,-38.5,-21.5,-9.87,3a
