timestamp,AccX,AccY,AccZ,GyroX,GyroY,GyroZ,MagX,MagY,MagZ,Activity
2019-07-15_174958:760,-0.538391,0.024902,-0.44384799999999996,-0.007051999999999999,0.003093,-0.014672,-45.0,0.75,-8.56,3a
2019-07-15_174958:780,-0.56839,0.033539,-0.46823100000000006,5.9e-05,0.010020000000000001,-0.007225,-46.060001,1.5,-7.75,3a
2019-07-15_174958:800,-0.535339,0.048798,-0.462646,-0.000521,0.013866,-0.0023120000000000003,-46.060001,1.5,-7.75,3a
2019-07-15_174958:820,-0.48349,0.045226999999999996,-0.43011499999999997,-0.005007,0.020946,0.008735,-46.060001,0.37,-7.75,3a
2019-07-15_174958:840,-0.411804,0.022858,-0.37316900000000003,-0.009066,0.022228,0.014778,-46.060001,0.37,-7.75,3a
2019-07-15_174958:860,-0.411804,0.020844,-0.349274,-0.013094,0.021769999999999998,0.012275,-46.869999,0.37,-5.75,3a
2019-07-15_174958:880,-0.37112399999999995,0.008636,-0.318756,-0.015780000000000002,0.022105,0.014594999999999999,-46.869999,0.37,-5.75,3a
2019-07-15_174958:900,-0.344177,-0.007599,-0.284698,-0.015444,0.019237,0.01432,-46.869999,0.37,-5.75,3a
2019-07-15_174958:920,-0.285217,-0.010651,-0.25827,-0.01462,0.016521,0.011543000000000001,-46.5,1.87,-6.25,3a
2019-07-15_174958:940,-0.277588,-0.0055850000000000006,-0.242493,-0.010592,0.003093,0.007698,-46.5,1.87,-6.25,3a
2019-07-15_174958:960,-0.33300799999999997,-0.009644,-0.238434,-0.009737,0.001292,0.008796,-46.5,1.87,-6.25,3a
2019-07-15_174958:980,-0.338074,-0.012177,-0.21402,-0.008578,0.000346,0.016304,-47.18,1.06,-5.37,3a
2019-07-15_174959:000,-0.36349499999999996,-0.021851,-0.190125,-0.008272,0.0012619999999999999,0.018287,-47.18,1.06,-5.37,3a
2019-07-15_174959:020,-0.37674,-0.025421,-0.17385899999999999,-0.007601,0.004039,0.017768,-46.869999,1.5,-5.5,3a
2019-07-15_174959:040,-0.380798,-0.028442000000000002,-0.157593,-0.0066549999999999995,0.007304000000000001,0.012672,-46.869999,1.5,-5.5,3a
2019-07-15_174959:060,-0.37265,-0.028442000000000002,-0.141846,-0.006197,0.010265,0.0055,-46.869999,1.5,-5.5,3a
2019-07-15_174959:080,-0.375702,-0.032013,-0.119965,-0.006869,0.012614,0.001442,-46.060001,2.56,-5.18,3a
2019-07-15_174959:100,-0.391968,-0.038116000000000004,-0.11386099999999999,-0.006684999999999999,0.017558,0.002235,-46.060001,2.56,-5.18,3a
2019-07-15_174959:120,-0.433167,-0.035583,-0.11843900000000002,-0.005526,0.022472,0.004158,-47.560001,2.18,-6.37,3a
2019-07-15_174959:140,-0.42758199999999996,-0.035583,-0.119476,-0.0034509999999999996,0.03297,0.009925,-47.560001,2.18,-6.37,3a
2019-07-15_174959:160,-0.42453,-0.038116000000000004,-0.127594,-0.002993,0.034496,0.009132,-47.560001,2.18,-6.37,3a
2019-07-15_174959:180,-0.417908,-0.035065,-0.129639,-0.002321,0.033855,0.003242,-45.68,3.0,-4.37,3a
2019-07-15_174959:200,-0.423004,-0.033539,-0.130646,-0.002382,0.028513999999999998,-0.00011499999999999999,-45.68,3.0,-4.37,3a
2019-07-15_174959:220,-0.451477,-0.037598,-0.137268,-0.0028399999999999996,0.021892,-0.000634,-47.560001,3.0,-3.5,3a
2019-07-15_174959:240,-0.477386,-0.044219999999999995,-0.145905,-0.002382,0.01823,-0.001458,-47.560001,3.0,-3.5,3a
2019-07-15_174959:260,-0.46823100000000006,-0.040161,-0.166229,-0.000796,0.015392,-0.004052,-47.560001,3.0,-3.5,3a
2019-07-15_174959:280,-0.48196400000000006,-0.037598,-0.174377,0.00128,0.011943,-0.006554000000000001,-46.5,3.37,-3.18,3a
2019-07-15_174959:300,-0.510437,-0.032532,-0.189117,0.004057,0.010814,-0.008934000000000001,-46.5,3.37,-3.18,3a
2019-07-15_174959:320,-0.496704,-0.031006,-0.197266,0.005796,0.013255000000000001,-0.007286,-46.869999,2.56,-2.68,3a
2019-07-15_174959:340,-0.45654300000000003,-0.033539,-0.19622799999999999,0.006712,0.014385,-0.003899,-46.869999,2.56,-2.68,3a
2019-07-15_174959:360,-0.394531,-0.035583,-0.193695,0.0076879999999999995,0.011211,-0.004174000000000001,-46.869999,2.56,-2.68,3a
2019-07-15_174959:380,-0.393494,-0.031006,-0.17996199999999998,0.00717,0.000682,-0.004692,-46.0,2.18,-1.06,3a
2019-07-15_174959:400,-0.391968,-0.037598,-0.174377,0.00659,-0.009541,-0.0012439999999999999,-46.0,2.18,-1.06,3a
2019-07-15_174959:420,-0.40570100000000003,-0.032532,-0.182007,0.005125,-0.017171000000000002,-0.00045099999999999996,-47.060001,2.18,-1.5,3a
2019-07-15_174959:440,-0.462128,-0.033539,-0.181488,0.003507,-0.022144999999999998,-0.002037,-47.060001,2.18,-1.5,3a
2019-07-15_174959:460,-0.476379,-0.041687,-0.21249400000000002,0.002531,-0.01772,-0.004357,-47.060001,2.18,-1.5,3a
2019-07-15_174959:480,-0.461121,-0.040649,-0.220123,0.001737,-0.01006,-0.006951000000000001,-46.0,2.56,-2.25,3a
2019-07-15_174959:500,-0.440796,-0.039124,-0.224701,0.001188,-0.005696,-0.006279,-46.0,2.56,-2.25,3a
2019-07-15_174959:520,-0.44384799999999996,-0.047272,-0.226227,0.000669,-0.004903,-0.003655,-46.0,1.87,-3.87,3a
2019-07-15_174959:540,-0.425018,-0.038635,-0.23791500000000002,0.000334,-0.005177,-0.003563,-46.0,1.87,-3.87,3a
2019-07-15_174959:560,-0.440796,-0.039124,-0.245544,0.000273,-0.006612000000000001,-0.003106,-46.0,1.87,-3.87,3a
2019-07-15_174959:580,-0.45605500000000004,-0.034058,-0.254211,0.00048600000000000005,-0.00594,-0.003563,-47.060001,1.87,-2.68,3a
2019-07-15_174959:600,-0.45095799999999997,-0.031494,-0.258759,0.000212,-0.0034990000000000004,-0.0032890000000000003,-47.060001,1.87,-2.68,3a
2019-07-15_174959:620,-0.47943100000000005,-0.038635,-0.261322,0.000334,-0.000386,0.000343,-47.060001,1.5,-2.68,3a
2019-07-15_174959:640,-0.492126,-0.040161,-0.258759,0.000791,0.005351,0.001655,-47.060001,1.5,-2.68,3a
2019-07-15_174959:660,-0.503326,-0.041168,-0.24658200000000002,0.0019210000000000002,0.013805000000000001,-0.00023700000000000001,-47.060001,1.5,-2.68,3a
2019-07-15_174959:680,-0.478912,-0.040649,-0.237427,0.0032020000000000004,0.023691999999999998,-0.0021899999999999997,-46.75,1.87,-2.68,3a
2019-07-15_174959:700,-0.45605500000000004,-0.037108999999999996,-0.22421300000000002,0.004637,0.029643,-0.0037159999999999997,-46.75,1.87,-2.68,3a
2019-07-15_174959:720,-0.44995100000000005,-0.038635,-0.21759,0.005186,0.032298,-0.00396,-46.75,1.18,-1.5,3a
2019-07-15_174959:740,-0.467743,-0.035583,-0.213531,0.006437000000000001,0.03358,-0.004174000000000001,-46.75,1.18,-1.5,3a
2019-07-15_174959:760,-0.47332799999999997,-0.038116000000000004,-0.20944200000000002,0.0073219999999999995,0.035227999999999995,-0.004448,-46.75,1.18,-1.5,3a
2019-07-15_174959:780,-0.462128,-0.034546,-0.198273,0.008085,0.039165,-0.005181,-46.75,1.87,-2.68,3a
2019-07-15_174959:800,-0.441284,-0.029480000000000003,-0.18454,0.007963,0.041393,-0.006706999999999999,-46.75,1.87,-2.68,3a
2019-07-15_174959:820,-0.425537,-0.022369,-0.170807,0.008085,0.038738,-0.008140999999999999,-46.369999,1.87,-0.25,3a
2019-07-15_174959:840,-0.417389,-0.01828,-0.161652,0.00778,0.033305,-0.008416,-46.369999,1.87,-0.25,3a
2019-07-15_174959:860,-0.43621800000000005,-0.021332,-0.154022,0.006712,0.027141000000000002,-0.0064930000000000005,-46.369999,1.87,-0.25,3a
2019-07-15_174959:880,-0.441284,-0.019318000000000002,-0.158112,0.005033,0.023143,-0.003319,-46.369999,1.06,1.56,3a
2019-07-15_174959:900,-0.447388,-0.019806,-0.151489,0.002806,0.01945,0.00016,-46.369999,1.06,1.56,3a
2019-07-15_174959:920,-0.467224,-0.01828,-0.151001,0.001066,0.016704,0.001167,-46.75,0.37,1.56,3a
2019-07-15_174959:940,-0.481476,-0.020844,-0.159119,-0.001314,0.017192,0.001228,-46.75,0.37,1.56,3a
2019-07-15_174959:960,-0.47433500000000006,-0.025421,-0.159119,-0.002932,0.019816999999999998,0.004036,-46.75,0.37,1.56,3a
2019-07-15_174959:980,-0.466217,-0.034546,-0.152527,-0.003939,0.020824000000000002,0.005409000000000001,-47.5,0.0,3.18,3a
2019-07-15_175000:000,-0.46875,-0.035583,-0.14743,-0.004397,0.021343,0.005439,-47.5,0.0,3.18,3a
2019-07-15_175000:020,-0.47332799999999997,-0.042175,-0.145905,-0.004488000000000001,0.022289,0.007209,-46.75,1.37,4.0,3a
2019-07-15_175000:040,-0.46060200000000007,-0.039642000000000004,-0.140808,-0.004824,0.02235,0.008491,-46.75,1.37,4.0,3a
2019-07-15_175000:060,-0.462128,-0.047272,-0.132172,-0.005007,0.021037,0.010017,-46.75,1.37,4.0,3a
2019-07-15_175000:080,-0.46417200000000003,-0.049805,-0.12558,-0.005282,0.018504,0.010475,-46.369999,0.68,5.56,3a
2019-07-15_175000:100,-0.46569799999999995,-0.046752999999999996,-0.119476,-0.005465,0.016031999999999998,0.00962,-46.369999,0.68,5.56,3a
2019-07-15_175000:120,-0.467743,-0.046265,-0.117432,-0.005404,0.013072,0.00727,-46.75,0.75,7.06,3a
2019-07-15_175000:140,-0.477905,-0.045745999999999995,-0.119965,-0.004732,0.012126000000000001,0.003242,-46.75,0.75,7.06,3a
2019-07-15_175000:160,-0.47079499999999996,-0.040649,-0.12558,-0.004336,0.011881999999999998,0.001045,-46.75,0.75,7.06,3a
2019-07-15_175000:180,-0.45553599999999994,-0.040161,-0.12658699999999998,-0.0036340000000000005,0.010356,0.000587,-46.369999,1.87,6.37,3a
2019-07-15_175000:200,-0.44995100000000005,-0.040161,-0.128113,-0.0025960000000000002,0.006297,-0.001366,-46.369999,1.87,6.37,3a
2019-07-15_175000:220,-0.453491,-0.041168,-0.134216,-0.001192,0.001292,-0.004296,-46.0,1.87,6.68,3a
2019-07-15_175000:240,-0.44891400000000004,-0.040161,-0.146912,0.000273,-0.0046890000000000005,-0.007897,-46.0,1.87,6.68,3a
2019-07-15_175000:260,-0.441803,-0.036072,-0.163177,0.0016760000000000002,-0.010487,-0.013054,-46.0,1.87,6.68,3a
2019-07-15_175000:280,-0.460114,-0.033539,-0.168274,0.002531,-0.015767,-0.018029,-46.369999,1.18,7.87,3a
2019-07-15_175000:300,-0.503326,-0.034546,-0.17690999999999998,0.003507,-0.015767,-0.021874,-46.369999,1.18,7.87,3a
2019-07-15_175000:320,-0.498749,-0.034058,-0.171844,0.003996,-0.011525,-0.0234,-46.75,1.18,6.68,3a
2019-07-15_175000:340,-0.509918,-0.027954000000000003,-0.152527,0.004911,-0.0054210000000000005,-0.026085,-46.75,1.18,6.68,3a
2019-07-15_175000:360,-0.48858599999999996,-0.01828,-0.144897,0.005765999999999999,-5e-05,-0.026543,-46.75,1.18,6.68,3a
2019-07-15_175000:380,-0.471283,-0.004547,-0.14032,0.006956,0.001628,-0.02462,-45.560001,0.06,6.68,3a
2019-07-15_175000:400,-0.460114,0.004547,-0.141327,0.006986,0.001018,-0.02108,-45.560001,0.06,6.68,3a
2019-07-15_175000:420,-0.45095799999999997,0.006592,-0.147949,0.006834000000000001,-0.000233,-0.013725999999999999,-46.0,-0.68,5.18,3a
2019-07-15_175000:440,-0.45654300000000003,0.005065999999999999,-0.149475,0.006895,-0.0009050000000000001,-0.00927,-46.0,-0.68,5.18,3a
2019-07-15_175000:460,-0.467224,0.006072999999999999,-0.147949,0.006314999999999999,0.00016299999999999998,-0.007347,-46.0,-0.68,5.18,3a
2019-07-15_175000:480,-0.46875,0.006072999999999999,-0.141846,0.00543,0.002116,-0.004357,-46.0,-1.5,6.37,3a
2019-07-15_175000:500,-0.46875,0.001007,-0.139801,0.00366,0.0034289999999999998,-0.00216,-46.0,-1.5,6.37,3a
2019-07-15_175000:520,-0.460114,0.001495,-0.140808,0.001188,0.003825,0.000587,-45.560001,-1.5,5.18,3a
2019-07-15_175000:540,-0.460114,-0.001495,-0.141327,-0.00165,0.002513,0.004829,-45.560001,-1.5,5.18,3a
2019-07-15_175000:560,-0.47079499999999996,-0.0055850000000000006,-0.141327,-0.00461,0.00114,0.008154999999999999,-45.560001,-1.5,5.18,3a
2019-07-15_175000:580,-0.481476,-0.009125,-0.139801,-0.007540000000000001,-0.0008439999999999999,0.010475,-46.0,-1.5,6.37,3a
2019-07-15_175000:600,-0.48754899999999995,-0.011169,-0.139801,-0.009798000000000001,-0.0027660000000000002,0.011482,-46.0,-1.5,6.37,3a
2019-07-15_175000:620,-0.48706099999999997,-0.016266,-0.138275,-0.012118,-0.004414,0.012458,-46.0,-1.87,6.37,3a
2019-07-15_175000:640,-0.492126,-0.020844,-0.132172,-0.013094,-0.005177,0.0149,-46.0,-1.87,6.37,3a
2019-07-15_175000:660,-0.491638,-0.023375999999999997,-0.133179,-0.013581999999999999,-0.00475,0.016365,-46.0,-1.87,6.37,3a
2019-07-15_175000:680,-0.49722299999999997,-0.023895,-0.130127,-0.013247,-0.003163,0.015907,-46.0,-1.5,6.37,3a
2019-07-15_175000:700,-0.504333,-0.024902,-0.12912,-0.012453,0.000682,0.015785,-46.0,-1.5,6.37,3a
2019-07-15_175000:720,-0.49365200000000004,-0.026917,-0.130646,-0.011904000000000001,0.004619,0.017158,-46.369999,-0.75,5.18,3a
2019-07-15_175000:740,-0.481476,-0.032013,-0.128601,-0.011323999999999999,0.006755,0.016761,-46.369999,-0.75,5.18,3a
2019-07-15_175000:760,-0.470276,-0.031006,-0.130127,-0.010653,0.007091,0.015266,-46.369999,-0.75,5.18,3a
2019-07-15_175000:780,-0.459595,-0.031494,-0.129639,-0.010195000000000001,0.005779,0.014381,-47.060001,-0.37,5.56,3a
2019-07-15_175000:800,-0.467743,-0.031494,-0.128113,-0.009706999999999999,0.004954999999999999,0.012794,-47.060001,-0.37,5.56,3a
2019-07-15_175000:820,-0.47180200000000005,-0.031494,-0.130127,-0.009798000000000001,0.004771,0.010933,-45.560001,0.68,5.56,3a
2019-07-15_175000:840,-0.46926899999999994,-0.031494,-0.131165,-0.009706999999999999,0.005107,0.009742,-45.560001,0.68,5.56,3a
2019-07-15_175000:860,-0.474854,-0.036072,-0.136749,-0.009309999999999999,0.005412,0.008735,-45.560001,0.68,5.56,3a
2019-07-15_175000:880,-0.46823100000000006,-0.039124,-0.142334,-0.008181,0.006236,0.007148000000000001,-46.369999,1.06,5.56,3a
2019-07-15_175000:900,-0.46875,-0.040649,-0.144379,-0.006991,0.006297,0.004432,-46.369999,1.06,5.56,3a
2019-07-15_175000:920,-0.466217,-0.039642000000000004,-0.145386,-0.005343,0.0052899999999999996,0.002388,-47.869999,1.75,5.87,3a
2019-07-15_175000:940,-0.469757,-0.040649,-0.144897,-0.004275,0.004039,0.000831,-47.869999,1.75,5.87,3a
2019-07-15_175000:960,-0.47995,-0.041168,-0.142334,-0.003176,0.003307,-0.001702,-47.869999,1.75,5.87,3a
2019-07-15_175000:980,-0.48300200000000004,-0.039642000000000004,-0.145905,-0.002169,0.003978,-0.004235,-46.0,1.37,5.56,3a
2019-07-15_175001:000,-0.474854,-0.038635,-0.146423,-0.0015890000000000001,0.005107,-0.005944,-46.0,1.37,5.56,3a
2019-07-15_175001:020,-0.46823100000000006,-0.035583,-0.146912,-0.000857,0.004833,-0.007286,-45.560001,1.37,6.37,3a
2019-07-15_175001:040,-0.462646,-0.03302,-0.142853,-0.000399,0.0041,-0.007836,-45.560001,1.37,6.37,3a
2019-07-15_175001:060,-0.46469099999999997,-0.032532,-0.140808,0.000212,0.0024519999999999998,-0.008477,-45.560001,1.37,6.37,3a
2019-07-15_175001:080,-0.46926899999999994,-0.032532,-0.139282,0.000883,0.00172,-0.008965,-46.75,0.68,7.06,3a
2019-07-15_175001:100,-0.470276,-0.028961,-0.138794,0.0016760000000000002,0.001598,-0.009667,-46.75,0.68,7.06,3a
2019-07-15_175001:120,-0.471283,-0.028961,-0.14032,0.002928,0.001415,-0.010338,-47.060001,0.68,5.18,3a
2019-07-15_175001:140,-0.47280900000000003,-0.027435,-0.138794,0.003904,0.001353,-0.010491,-47.060001,0.68,5.18,3a
2019-07-15_175001:160,-0.47433500000000006,-0.026917,-0.142334,0.004789,0.002055,-0.010551999999999999,-47.060001,0.68,5.18,3a
2019-07-15_175001:180,-0.472321,-0.023895,-0.143372,0.005461,0.002696,-0.010338,-46.369999,0.0,6.37,3a
2019-07-15_175001:200,-0.475372,-0.019806,-0.144897,0.005522,0.0035810000000000004,-0.00988,-46.369999,0.0,6.37,3a
2019-07-15_175001:220,-0.48095699999999997,-0.016753999999999998,-0.146912,0.005308,0.003886,-0.008537999999999999,-46.75,-0.75,6.37,3a
2019-07-15_175001:240,-0.49365200000000004,-0.014740000000000001,-0.149475,0.004515,0.005351,-0.006768000000000001,-46.75,-0.75,6.37,3a
2019-07-15_175001:260,-0.49517799999999995,-0.010651,-0.148956,0.00305,0.007426,-0.004448,-46.75,-0.75,6.37,3a
2019-07-15_175001:280,-0.496216,-0.011169,-0.146423,0.000883,0.009531999999999999,-0.001458,-46.75,-1.18,6.37,3a
2019-07-15_175001:300,-0.500793,-0.008636,-0.142334,-0.001467,0.010936,0.001228,-46.75,-1.18,6.37,3a
2019-07-15_175001:320,-0.514008,-0.011169,-0.14032,-0.004152,0.013805000000000001,0.003242,-46.369999,-0.75,7.5,3a
2019-07-15_175001:340,-0.51297,-0.012177,-0.135223,-0.0069299999999999995,0.018504,0.00428,-46.369999,-0.75,7.5,3a
2019-07-15_175001:360,-0.484009,-0.016753999999999998,-0.12912,-0.009706999999999999,0.022502,0.0051649999999999995,-46.369999,-0.75,7.5,3a
2019-07-15_175001:380,-0.472321,-0.020325,-0.12048299999999999,-0.011385,0.024425,0.0055,-46.369999,-1.5,7.5,3a
2019-07-15_175001:400,-0.462646,-0.024902,-0.11080899999999999,-0.012911,0.023631,0.004707,-46.369999,-1.5,7.5,3a
2019-07-15_175001:420,-0.47433500000000006,-0.025908999999999998,-0.104706,-0.013521,0.02235,0.0038829999999999997,-45.560001,-0.37,7.5,3a
2019-07-15_175001:440,-0.47995,-0.028961,-0.09963999999999999,-0.013521,0.022624000000000002,0.003639,-45.560001,-0.37,7.5,3a
2019-07-15_175001:460,-0.47943100000000005,-0.031006,-0.097595,-0.013125,0.023235,0.004097,-45.560001,-0.37,7.5,3a
2019-07-15_175001:480,-0.46926899999999994,-0.031494,-0.09149199999999999,-0.012118,0.022411,0.005043,-44.869999,-0.75,9.06,3a
2019-07-15_175001:500,-0.461121,-0.03302,-0.090485,-0.010775,0.019847,0.0053479999999999995,-44.869999,-0.75,9.06,3a
2019-07-15_175001:520,-0.46469099999999997,-0.031006,-0.090485,-0.009524,0.015727,0.0055,-45.560001,0.0,9.75,3a
2019-07-15_175001:540,-0.47332799999999997,-0.032013,-0.085388,-0.008181,0.011881999999999998,0.006874,-45.560001,0.0,9.75,3a
2019-07-15_175001:560,-0.49468999999999996,-0.03302,-0.081329,-0.006745999999999999,0.010020000000000001,0.006691,-45.560001,0.0,9.75,3a
2019-07-15_175001:580,-0.49517799999999995,-0.031006,-0.078796,-0.005282,0.009746,0.004097,-45.560001,-0.37,11.0,3a
2019-07-15_175001:600,-0.48300200000000004,-0.031494,-0.074738,-0.004,0.010204000000000001,0.001655,-45.560001,-0.37,11.0,3a
2019-07-15_175001:620,-0.471283,-0.031494,-0.07421900000000001,-0.002993,0.009593,0.000709,-44.5,0.0,10.56,3a
2019-07-15_175001:640,-0.47689799999999993,-0.029480000000000003,-0.072693,-0.0020469999999999998,0.007823,-0.000176,-44.5,0.0,10.56,3a
2019-07-15_175001:660,-0.472321,-0.027435,-0.07421900000000001,-0.001467,0.006358,-0.000786,-44.5,0.0,10.56,3a
2019-07-15_175001:680,-0.46670500000000004,-0.027435,-0.073212,-0.00107,0.00352,-0.0012439999999999999,-45.25,0.0,11.37,3a
2019-07-15_175001:700,-0.46569799999999995,-0.028961,-0.075745,-0.000643,0.000285,-0.002098,-45.25,0.0,11.37,3a
2019-07-15_175001:720,-0.46926899999999994,-0.025421,-0.078278,0.000395,-0.003438,-0.003045,-44.18,-0.37,10.56,3a
2019-07-15_175001:740,-0.478912,-0.024902,-0.08081100000000001,0.000944,-0.0062759999999999995,-0.004021,-44.18,-0.37,10.56,3a
2019-07-15_175001:760,-0.486023,-0.020325,-0.085388,0.001463,-0.0071,-0.003899,-44.18,-0.37,10.56,3a
2019-07-15_175001:780,-0.492126,-0.020325,-0.08996599999999999,0.0016460000000000001,-0.006673,-0.002526,-44.75,0.25,11.37,3a
2019-07-15_175001:800,-0.495697,-0.018799,-0.090485,0.001341,-0.005543,-0.0009689999999999999,-44.75,0.25,11.37,3a
2019-07-15_175001:820,-0.496216,-0.017792,-0.091003,0.001005,-0.0033770000000000002,0.001228,-44.75,-0.37,10.56,3a
2019-07-15_175001:840,-0.491638,-0.020325,-0.091003,0.000395,-0.002034,0.002754,-44.75,-0.37,10.56,3a
2019-07-15_175001:860,-0.486023,-0.023895,-0.096588,0.00045599999999999997,-0.00124,0.0033640000000000002,-44.75,-0.37,10.56,3a
2019-07-15_175001:880,-0.48196400000000006,-0.023375999999999997,-0.095581,0.000944,-0.001363,0.003242,-45.18,-0.75,10.56,3a
2019-07-15_175001:900,-0.48349,-0.023895,-0.094055,0.001188,-0.002034,0.003822,-45.18,-0.75,10.56,3a
2019-07-15_175001:920,-0.489075,-0.022858,-0.091003,0.000852,-0.002431,0.005684000000000001,-44.75,-0.37,11.37,3a
2019-07-15_175001:940,-0.492126,-0.025421,-0.08996599999999999,-0.000399,-0.001973,0.008278,-44.75,-0.37,11.37,3a
2019-07-15_175001:960,-0.485016,-0.027954000000000003,-0.08996599999999999,-0.0020469999999999998,-0.001393,0.010261,-44.75,-0.37,11.37,3a
2019-07-15_175001:980,-0.484009,-0.032532,-0.090485,-0.003512,-0.001698,0.010078,-46.0,-0.37,10.25,3a
2019-07-15_175002:000,-0.482483,-0.035065,-0.09149199999999999,-0.004732,-0.001759,0.008674,-46.0,-0.37,10.25,3a
2019-07-15_175002:020,-0.47180200000000005,-0.038116000000000004,-0.09201000000000001,-0.005556,-0.002034,0.006965000000000001,-45.18,0.25,9.75,3a
2019-07-15_175002:040,-0.482483,-0.039124,-0.094055,-0.0064719999999999995,-0.0033159999999999995,0.0055,-45.18,0.25,9.75,3a
2019-07-15_175002:060,-0.48654200000000003,-0.040649,-0.096588,-0.007204,-0.003834,0.004158,-45.18,0.25,9.75,3a
2019-07-15_175002:080,-0.492645,-0.039642000000000004,-0.098633,-0.007784,-0.0034990000000000004,0.003578,-45.18,0.0,11.0,3a
2019-07-15_175002:100,-0.49316400000000005,-0.040649,-0.100159,-0.008272,-0.002095,0.00309,-45.18,0.0,11.0,3a
2019-07-15_175002:120,-0.49365200000000004,-0.040161,-0.10116599999999999,-0.008272,-0.000508,0.0018989999999999999,-45.5,1.06,9.06,3a
2019-07-15_175002:140,-0.490601,-0.037108999999999996,-0.10116599999999999,-0.008059,0.001201,0.0008619999999999999,-45.5,1.06,9.06,3a
2019-07-15_175002:160,-0.48706099999999997,-0.038116000000000004,-0.098633,-0.007784,0.002361,0.000404,-45.5,1.06,9.06,3a
2019-07-15_175002:180,-0.48196400000000006,-0.036591000000000005,-0.09963999999999999,-0.007081999999999999,0.002788,-0.000267,-44.869999,0.25,9.06,3a
2019-07-15_175002:200,-0.475372,-0.034058,-0.096588,-0.006258,0.002391,-0.0009689999999999999,-44.869999,0.25,9.06,3a
2019-07-15_175002:220,-0.475372,-0.034546,-0.096588,-0.005404,0.001353,-0.00158,-45.560001,1.06,9.06,3a
2019-07-15_175002:240,-0.478912,-0.033539,-0.096069,-0.004488000000000001,0.000743,-0.0023120000000000003,-45.560001,1.06,9.06,3a
2019-07-15_175002:260,-0.47995,-0.032013,-0.097595,-0.0036950000000000004,1.1e-05,-0.003045,-45.560001,1.06,9.06,3a
2019-07-15_175002:280,-0.47995,-0.028961,-0.099121,-0.003054,-0.00063,-0.003624,-45.25,0.68,10.25,3a
2019-07-15_175002:300,-0.48043800000000003,-0.025908999999999998,-0.098633,-0.0028399999999999996,-0.001637,-0.003655,-45.25,0.68,10.25,3a
2019-07-15_175002:320,-0.48553500000000005,-0.025421,-0.102692,-0.0033280000000000002,-0.0024920000000000003,-0.0029219999999999997,-45.25,1.06,9.37,3a
2019-07-15_175002:340,-0.491638,-0.025421,-0.103699,-0.003939,-0.002888,-0.0013050000000000002,-45.25,1.06,9.37,3a
2019-07-15_175002:360,-0.49316400000000005,-0.026917,-0.10675,-0.004732,-0.00237,-0.0013050000000000002,-45.25,1.06,9.37,3a
2019-07-15_175002:380,-0.492645,-0.026427999999999997,-0.10775799999999999,-0.0056170000000000005,-0.001179,-0.002098,-46.369999,0.0,10.56,3a
2019-07-15_175002:400,-0.490601,-0.028961,-0.104706,-0.006594,-5e-05,-0.001702,-46.369999,0.0,10.56,3a
2019-07-15_175002:420,-0.490601,-0.030487,-0.102692,-0.007143000000000001,0.001201,-0.00158,-46.68,0.68,8.56,3a
2019-07-15_175002:440,-0.48754899999999995,-0.029480000000000003,-0.10116599999999999,-0.007265000000000001,0.002574,-0.0017929999999999999,-46.68,0.68,8.56,3a
2019-07-15_175002:460,-0.48349,-0.031006,-0.102173,-0.006869,0.0036420000000000003,-0.001519,-46.68,0.68,8.56,3a
2019-07-15_175002:480,-0.482483,-0.029480000000000003,-0.100647,-0.00635,0.003886,-0.0008470000000000001,-45.5,0.0,8.25,3a
2019-07-15_175002:500,-0.47995,-0.028961,-0.10116599999999999,-0.005739,0.00352,-0.000389,-45.5,0.0,8.25,3a
2019-07-15_175002:520,-0.47995,-0.028961,-0.09963999999999999,-0.0051600000000000005,0.0029100000000000003,-0.000512,-46.0,0.25,9.37,3a
2019-07-15_175002:540,-0.47995,-0.027435,-0.100647,-0.004336,0.002574,-0.0008470000000000001,-46.0,0.25,9.37,3a
2019-07-15_175002:560,-0.48349,-0.027435,-0.098633,-0.004,0.002513,-0.0009689999999999999,-46.0,0.25,9.37,3a
2019-07-15_175002:580,-0.48043800000000003,-0.024902,-0.09963999999999999,-0.0036340000000000005,0.002574,-0.000634,-45.560001,0.25,9.37,3a
2019-07-15_175002:600,-0.482483,-0.024384,-0.097595,-0.003237,0.002757,-0.000389,-45.560001,0.25,9.37,3a
2019-07-15_175002:620,-0.475861,-0.024384,-0.098633,-0.0029010000000000004,0.002391,-0.000634,-46.0,0.68,9.75,3a
2019-07-15_175002:640,-0.476379,-0.023375999999999997,-0.100159,-0.0028399999999999996,0.00114,-0.0009689999999999999,-46.0,0.68,9.75,3a
2019-07-15_175002:660,-0.47842399999999996,-0.023375999999999997,-0.101685,-0.0029010000000000004,0.000133,-0.000389,-46.0,0.68,9.75,3a
2019-07-15_175002:680,-0.481476,-0.022858,-0.10116599999999999,-0.0028399999999999996,-0.000661,0.00016,-45.25,0.68,9.75,3a
2019-07-15_175002:700,-0.484009,-0.021851,-0.10318,-0.0033280000000000002,-0.0007830000000000001,0.000526,-45.25,0.68,9.75,3a
2019-07-15_175002:720,-0.485016,-0.022369,-0.102692,-0.003878,-0.0005690000000000001,0.000923,-45.5,0.0,9.75,3a
2019-07-15_175002:740,-0.48654200000000003,-0.023375999999999997,-0.101685,-0.004427,-0.00044699999999999997,0.001258,-45.5,0.0,9.75,3a
2019-07-15_175002:760,-0.490601,-0.025908999999999998,-0.102173,-0.005282,0.000285,0.0018989999999999999,-45.5,0.0,9.75,3a
2019-07-15_175002:780,-0.490112,-0.027954000000000003,-0.10318,-0.005465,0.001537,0.00196,-44.369999,0.25,9.37,3a
2019-07-15_175002:800,-0.48858599999999996,-0.028961,-0.102692,-0.005556,0.002239,0.002357,-44.369999,0.25,9.37,3a
2019-07-15_175002:820,-0.484009,-0.028961,-0.102173,-0.005678,0.002574,0.002845,-45.560001,0.0,9.06,3a
2019-07-15_175002:840,-0.484009,-0.032013,-0.100159,-0.005678,0.002574,0.002967,-45.560001,0.0,9.06,3a
2019-07-15_175002:860,-0.486023,-0.032013,-0.101685,-0.005343,0.002391,0.003242,-45.560001,0.0,9.06,3a
2019-07-15_175002:880,-0.486023,-0.032532,-0.102173,-0.005282,0.002513,0.0037,-45.560001,0.25,9.37,3a
2019-07-15_175002:900,-0.48553500000000005,-0.035065,-0.101685,-0.005068,0.002849,0.003486,-45.560001,0.25,9.37,3a
2019-07-15_175002:920,-0.490112,-0.033539,-0.103699,-0.004732,0.00349,0.0030280000000000003,-44.869999,0.25,9.37,3a
2019-07-15_175002:940,-0.48858599999999996,-0.032532,-0.095581,-0.004732,0.003978,0.002967,-44.869999,0.25,9.37,3a
2019-07-15_175002:960,-0.492645,-0.034546,-0.101685,-0.004793,0.003978,0.002693,-44.869999,0.25,9.37,3a
2019-07-15_175002:980,-0.48553500000000005,-0.033539,-0.097107,-0.00461,0.0052899999999999996,0.002052,-44.5,0.68,10.56,3a
2019-07-15_175003:000,-0.484009,-0.033539,-0.096588,-0.004,0.00584,0.0007700000000000001,-44.5,0.68,10.56,3a
2019-07-15_175003:020,-0.48300200000000004,-0.034058,-0.09811399999999999,-0.0036950000000000004,0.006023,0.000587,-45.560001,0.68,9.37,3a
2019-07-15_175003:040,-0.47943100000000005,-0.032532,-0.095581,-0.0033280000000000002,0.005686999999999999,0.00028199999999999997,-45.560001,0.68,9.37,3a
2019-07-15_175003:060,-0.47842399999999996,-0.032532,-0.095581,-0.003054,0.004954999999999999,6.8e-05,-45.560001,0.68,9.37,3a
2019-07-15_175003:080,-0.47995,-0.032013,-0.09201000000000001,-0.0031149999999999997,0.004619,0.000496,-44.5,1.06,9.37,3a
2019-07-15_175003:100,-0.47943100000000005,-0.030487,-0.09454299999999999,-0.002932,0.003764,0.001655,-44.5,1.06,9.37,3a
2019-07-15_175003:120,-0.48095699999999997,-0.032532,-0.09301799999999999,-0.003176,0.002849,0.001228,-45.25,0.25,9.06,3a
2019-07-15_175003:140,-0.47995,-0.031006,-0.095581,-0.0031149999999999997,0.0023,0.00016,-45.25,0.25,9.06,3a
2019-07-15_175003:160,-0.477386,-0.032013,-0.096069,-0.0032979999999999997,0.001353,0.000709,-45.25,0.25,9.06,3a
2019-07-15_175003:180,-0.48196400000000006,-0.033539,-0.097595,-0.003237,0.0008960000000000001,0.001106,-45.560001,0.68,9.75,3a
2019-07-15_175003:200,-0.486023,-0.033539,-0.096588,-0.003054,0.001201,0.000404,-45.560001,0.68,9.75,3a
2019-07-15_175003:220,-0.48553500000000005,-0.031494,-0.096588,-0.002932,0.001537,0.000496,-44.869999,0.25,10.56,3a
2019-07-15_175003:240,-0.48300200000000004,-0.032532,-0.096069,-0.002779,0.001628,0.000496,-44.869999,0.25,10.56,3a
2019-07-15_175003:260,-0.48043800000000003,-0.032013,-0.097107,-0.002718,0.0012619999999999999,0.0007700000000000001,-44.869999,0.25,10.56,3a
2019-07-15_175003:280,-0.482483,-0.03302,-0.097107,-0.002657,0.00056,0.001167,-45.560001,1.06,9.37,3a
2019-07-15_175003:300,-0.484497,-0.03302,-0.096588,-0.002718,7.2e-05,0.001228,-45.560001,1.06,9.37,3a
2019-07-15_175003:320,-0.48300200000000004,-0.03302,-0.097595,-0.002535,-0.00011100000000000001,0.001106,-46.369999,0.25,9.37,3a
2019-07-15_175003:340,-0.489594,-0.034058,-0.096588,-0.002657,7.2e-05,0.001258,-46.369999,0.25,9.37,3a
2019-07-15_175003:360,-0.48754899999999995,-0.032532,-0.096069,-0.002657,0.000682,0.001838,-46.369999,0.25,9.37,3a
2019-07-15_175003:380,-0.485016,-0.035065,-0.096069,-0.002535,0.001292,0.001503,-44.75,0.25,10.25,3a
2019-07-15_175003:400,-0.48095699999999997,-0.035065,-0.095581,-0.002779,0.001201,0.0008619999999999999,-44.75,0.25,10.25,3a
2019-07-15_175003:420,-0.482483,-0.035583,-0.097107,-0.002535,0.000743,0.001045,-45.18,0.68,9.06,3a
2019-07-15_175003:440,-0.48553500000000005,-0.036072,-0.096588,-0.0025050000000000003,0.0008039999999999999,0.001045,-45.18,0.68,9.06,3a
2019-07-15_175003:460,-0.485016,-0.035065,-0.097595,-0.002321,0.0008960000000000001,0.00016,-45.18,0.68,9.06,3a
2019-07-15_175003:480,-0.484009,-0.035583,-0.098633,-0.002443,0.0008960000000000001,-0.000267,-45.5,1.06,9.06,3a
2019-07-15_175003:500,-0.481476,-0.036591000000000005,-0.097595,-0.001925,0.000682,-0.000634,-45.5,1.06,9.06,3a
2019-07-15_175003:520,-0.484009,-0.035065,-0.099121,-0.001864,0.000499,-0.000786,-44.75,1.06,9.75,3a
2019-07-15_175003:540,-0.486023,-0.034058,-0.097595,-0.0014060000000000001,0.0008039999999999999,-0.000725,-44.75,1.06,9.75,3a
2019-07-15_175003:560,-0.484497,-0.033539,-0.100159,-0.0014060000000000001,0.0008039999999999999,-0.000664,-44.75,1.06,9.75,3a
2019-07-15_175003:580,-0.48553500000000005,-0.032532,-0.09963999999999999,-0.001314,0.0008960000000000001,-0.000512,-44.869999,1.06,9.37,3a
2019-07-15_175003:600,-0.48654200000000003,-0.030487,-0.098633,-0.001314,0.0012619999999999999,-0.00045099999999999996,-44.869999,1.06,9.37,3a
2019-07-15_175003:620,-0.48553500000000005,-0.030487,-0.100647,-0.00165,0.001628,-0.000573,-46.0,0.0,8.56,3a
2019-07-15_175003:640,-0.48553500000000005,-0.030487,-0.100159,-0.0020469999999999998,0.002239,-0.000328,-46.0,0.0,8.56,3a
2019-07-15_175003:660,-0.482483,-0.029968,-0.100647,-0.002321,0.002177,0.000129,-46.0,0.0,8.56,3a
2019-07-15_175003:680,-0.47995,-0.029968,-0.101685,-0.0025960000000000002,0.001964,0.000343,-45.25,0.25,9.75,3a
2019-07-15_175003:700,-0.47995,-0.032013,-0.100159,-0.0028399999999999996,0.0012619999999999999,0.000496,-45.25,0.25,9.75,3a
2019-07-15_175003:720,-0.478912,-0.031494,-0.100647,-0.003176,0.000499,0.000587,-46.0,0.68,9.06,3a
2019-07-15_175003:740,-0.48349,-0.031494,-0.10116599999999999,-0.003237,0.000346,0.000496,-46.0,0.68,9.06,3a
2019-07-15_175003:760,-0.48300200000000004,-0.031006,-0.102692,-0.0033280000000000002,0.000133,0.000496,-46.0,0.68,9.06,3a
2019-07-15_175003:780,-0.481476,-0.032532,-0.10318,-0.003573,0.00016299999999999998,0.00028199999999999997,-44.5,0.68,8.56,3a
2019-07-15_175003:800,-0.484009,-0.032532,-0.10116599999999999,-0.0036340000000000005,0.00016299999999999998,7.000000000000001e-06,-44.5,0.68,8.56,3a
2019-07-15_175003:820,-0.485016,-0.032532,-0.102692,-0.00339,0.00022400000000000002,7.000000000000001e-06,-45.25,0.68,10.25,3a
2019-07-15_175003:840,-0.485016,-0.032013,-0.104218,-0.003237,0.000133,0.00016,-45.25,0.68,10.25,3a
2019-07-15_175003:860,-0.48553500000000005,-0.031006,-0.103699,-0.0031149999999999997,0.00016299999999999998,-0.000389,-45.25,0.68,10.25,3a
2019-07-15_175003:880,-0.48553500000000005,-0.031006,-0.10318,-0.0031149999999999997,0.001201,0.000587,-46.0,0.68,9.75,3a
2019-07-15_175003:900,-0.48300200000000004,-0.031006,-0.10318,-0.003176,0.001537,0.001655,-46.0,0.68,9.75,3a
2019-07-15_175003:920,-0.484009,-0.032013,-0.101685,-0.0033280000000000002,0.0017809999999999998,0.000709,-45.25,0.0,9.06,3a
2019-07-15_175003:940,-0.478912,-0.029968,-0.10116599999999999,-0.003512,0.0014759999999999999,-0.000176,-45.25,0.0,9.06,3a
2019-07-15_175003:960,-0.47943100000000005,-0.028961,-0.10318,-0.003512,0.000621,0.0007700000000000001,-45.25,0.0,9.06,3a
2019-07-15_175003:980,-0.48553500000000005,-0.032532,-0.103699,-0.0036340000000000005,0.000743,0.001106,-45.25,0.25,9.06,3a
2019-07-15_175004:000,-0.48654200000000003,-0.032013,-0.102692,-0.003664,0.0010789999999999999,0.000496,-45.25,0.25,9.06,3a
2019-07-15_175004:020,-0.48300200000000004,-0.032013,-0.106232,-0.00339,0.001628,0.000465,-45.560001,0.25,8.25,3a
2019-07-15_175004:040,-0.48196400000000006,-0.032013,-0.104218,-0.0032979999999999997,0.0014759999999999999,0.000648,-45.560001,0.25,8.25,3a
2019-07-15_175004:060,-0.482483,-0.031006,-0.104218,-0.0033280000000000002,0.0009570000000000001,0.000496,-45.560001,0.25,8.25,3a
2019-07-15_175004:080,-0.48196400000000006,-0.031006,-0.103699,-0.0032979999999999997,0.000865,0.000709,-45.560001,-0.37,7.87,3a
2019-07-15_175004:100,-0.486023,-0.030487,-0.103699,-0.003237,0.0008960000000000001,0.000465,-45.560001,-0.37,7.87,3a
2019-07-15_175004:120,-0.486023,-0.031494,-0.105743,-0.00339,0.001292,-5.4000000000000005e-05,-45.560001,1.0,10.18,3a
2019-07-15_175004:140,-0.490112,-0.032532,-0.102173,-0.00339,0.002055,0.000221,-45.560001,1.0,10.18,3a
2019-07-15_175004:160,-0.48754899999999995,-0.032532,-0.102173,-0.0032979999999999997,0.002971,0.001167,-45.560001,1.0,10.18,3a
2019-07-15_175004:180,-0.48754899999999995,-0.032532,-0.100159,-0.0032979999999999997,0.0036420000000000003,0.00028199999999999997,-44.869999,0.68,10.25,3a
2019-07-15_175004:200,-0.482483,-0.03302,-0.099121,-0.003176,0.0036420000000000003,-0.000573,-44.869999,0.68,10.25,3a
2019-07-15_175004:220,-0.48349,-0.031494,-0.09963999999999999,-0.0031149999999999997,0.00349,-5.4000000000000005e-05,-45.560001,0.25,9.06,3a
2019-07-15_175004:240,-0.48300200000000004,-0.030487,-0.098633,-0.003054,0.003307,0.0007700000000000001,-45.560001,0.25,9.06,3a
2019-07-15_175004:260,-0.482483,-0.030487,-0.097595,-0.002993,0.002971,0.00028199999999999997,-45.560001,0.25,9.06,3a
2019-07-15_175004:280,-0.48095699999999997,-0.029968,-0.097595,-0.002993,0.002513,0.000343,-45.869999,0.25,9.06,3a
2019-07-15_175004:300,-0.48349,-0.032013,-0.096069,-0.0029010000000000004,0.002391,0.000221,-45.869999,0.25,9.06,3a
2019-07-15_175004:320,-0.484497,-0.031494,-0.097595,-0.0031149999999999997,0.002361,0.000129,-45.18,0.25,9.75,3a
2019-07-15_175004:340,-0.484009,-0.031494,-0.096588,-0.0028399999999999996,0.0024519999999999998,0.000343,-45.18,0.25,9.75,3a
2019-07-15_175004:360,-0.48196400000000006,-0.030487,-0.098633,-0.0025960000000000002,0.0017809999999999998,0.00028199999999999997,-45.18,0.25,9.75,3a
2019-07-15_175004:380,-0.482483,-0.030487,-0.09811399999999999,-0.002443,0.0014759999999999999,0.000221,-46.25,0.25,9.75,3a
2019-07-15_175004:400,-0.484009,-0.031494,-0.09811399999999999,-0.002535,0.001415,0.00028199999999999997,-46.25,0.25,9.75,3a
2019-07-15_175004:420,-0.484009,-0.031006,-0.09963999999999999,-0.002779,0.0012619999999999999,0.000343,-45.869999,0.0,8.25,3a
2019-07-15_175004:440,-0.481476,-0.031494,-0.098633,-0.002993,0.001201,0.000465,-45.869999,0.0,8.25,3a
2019-07-15_175004:460,-0.48095699999999997,-0.031494,-0.100647,-0.003237,0.000682,0.00028199999999999997,-45.869999,0.0,8.25,3a
2019-07-15_175004:480,-0.484009,-0.032013,-0.100647,-0.0034509999999999996,0.000468,0.000343,-45.5,0.25,9.06,3a
2019-07-15_175004:500,-0.485016,-0.031006,-0.100647,-0.003664,0.0008039999999999999,7.000000000000001e-06,-45.5,0.25,9.06,3a
2019-07-15_175004:520,-0.48553500000000005,-0.031006,-0.100647,-0.003939,0.001201,6.8e-05,-45.18,0.25,9.37,3a
2019-07-15_175004:540,-0.48654200000000003,-0.032013,-0.10116599999999999,-0.003939,0.001628,7.000000000000001e-06,-45.18,0.25,9.37,3a
2019-07-15_175004:560,-0.48654200000000003,-0.031494,-0.101685,-0.00403,0.001842,-0.000267,-45.18,0.25,9.37,3a
2019-07-15_175004:580,-0.48553500000000005,-0.032013,-0.102692,-0.003878,0.0024519999999999998,-0.00023700000000000001,-45.18,0.0,9.06,3a
2019-07-15_175004:600,-0.482483,-0.032013,-0.09963999999999999,-0.003664,0.002391,-0.000389,-45.18,0.0,9.06,3a
2019-07-15_175004:620,-0.48043800000000003,-0.031494,-0.10116599999999999,-0.003512,0.002116,-0.000573,-44.75,0.0,9.06,3a
2019-07-15_175004:640,-0.48553500000000005,-0.031494,-0.098633,-0.0033280000000000002,0.001842,-0.000512,-44.75,0.0,9.06,3a
2019-07-15_175004:660,-0.48349,-0.031006,-0.097107,-0.002932,0.00172,-0.001,-44.75,0.0,9.06,3a
2019-07-15_175004:680,-0.48300200000000004,-0.030487,-0.097107,-0.002932,0.002177,-0.000908,-45.18,0.25,9.06,3a
2019-07-15_175004:700,-0.488068,-0.028961,-0.096588,-0.0028399999999999996,0.002239,0.000404,-45.18,0.25,9.06,3a
2019-07-15_175004:720,-0.47943100000000005,-0.029968,-0.096588,-0.002932,0.001842,-0.000328,-45.5,0.68,9.37,3a
2019-07-15_175004:740,-0.47943100000000005,-0.029480000000000003,-0.097595,-0.002993,0.001018,-0.002098,-45.5,0.68,9.37,3a
2019-07-15_175004:760,-0.478912,-0.029480000000000003,-0.096588,-0.002993,-0.000386,-0.002526,-45.5,0.68,9.37,3a
2019-07-15_175004:780,-0.48300200000000004,-0.030487,-0.098633,-0.0029010000000000004,-0.0007830000000000001,-0.002373,-45.18,0.0,8.56,3a
2019-07-15_175004:800,-0.491638,-0.029968,-0.097595,-0.002382,-0.000172,-0.0028309999999999997,-45.18,0.0,8.56,3a
2019-07-15_175004:820,-0.489594,-0.028961,-0.100159,-0.002199,0.000346,-0.002709,-45.18,0.0,8.56,3a
2019-07-15_175004:840,-0.475861,-0.027954000000000003,-0.10116599999999999,-0.0018030000000000001,0.000285,-0.0017929999999999999,-45.18,-0.37,9.37,3a
2019-07-15_175004:860,-0.476379,-0.027435,-0.100159,-0.001986,-0.0005690000000000001,-0.00158,-45.18,-0.37,9.37,3a
2019-07-15_175004:880,-0.489594,-0.025908999999999998,-0.10116599999999999,-0.001986,-0.00044699999999999997,-0.0012439999999999999,-44.75,-0.75,9.06,3a
2019-07-15_175004:900,-0.489075,-0.025908999999999998,-0.100647,-0.0020469999999999998,0.0009570000000000001,-0.000634,-44.75,-0.75,9.06,3a
2019-07-15_175004:920,-0.48553500000000005,-0.023895,-0.104218,-0.002169,0.001292,-0.0008470000000000001,-44.869999,0.25,9.75,3a
2019-07-15_175004:940,-0.47995,-0.023375999999999997,-0.10318,-0.002779,0.001537,-0.000389,-44.869999,0.25,9.75,3a
2019-07-15_175004:960,-0.484497,-0.024902,-0.104706,-0.0032979999999999997,0.001842,0.000587,-44.869999,0.25,9.75,3a
2019-07-15_175004:980,-0.484009,-0.023375999999999997,-0.102173,-0.003817,0.002116,0.0008619999999999999,-45.25,-0.37,9.37,3a
2019-07-15_175005:000,-0.48043800000000003,-0.024902,-0.100647,-0.00403,0.002757,-0.00045099999999999996,-45.25,-0.37,9.37,3a
2019-07-15_175005:020,-0.47995,-0.024384,-0.102173,-0.004488000000000001,0.002574,-0.0009689999999999999,-46.0,-0.37,9.37,3a
2019-07-15_175005:040,-0.47995,-0.026917,-0.100159,-0.004397,0.001628,0.000221,-46.0,-0.37,9.37,3a
2019-07-15_175005:060,-0.48553500000000005,-0.027954000000000003,-0.101685,-0.004549,0.0012619999999999999,0.000496,-46.0,-0.37,9.37,3a
2019-07-15_175005:080,-0.488068,-0.025908999999999998,-0.10116599999999999,-0.004213000000000001,0.001415,0.0007700000000000001,-45.18,-0.37,9.37,3a
2019-07-15_175005:100,-0.489594,-0.026427999999999997,-0.10116599999999999,-0.004152,0.002055,0.000648,-45.18,-0.37,9.37,3a
2019-07-15_175005:120,-0.488068,-0.025421,-0.102173,-0.004,0.002574,0.000465,-45.18,-0.37,9.37,3a
2019-07-15_175005:140,-0.48654200000000003,-0.025421,-0.10116599999999999,-0.003664,0.0036420000000000003,0.000709,-45.5,-0.37,9.75,3a
2019-07-15_175005:160,-0.485016,-0.025908999999999998,-0.10318,-0.0036950000000000004,0.003978,0.000984,-45.5,-0.37,9.75,3a
2019-07-15_175005:180,-0.48043800000000003,-0.025908999999999998,-0.102692,-0.0036340000000000005,0.003703,0.001106,-45.869999,-0.75,8.25,3a
2019-07-15_175005:200,-0.477905,-0.025421,-0.101685,-0.0031149999999999997,0.002788,0.001381,-45.869999,-0.75,8.25,3a
2019-07-15_175005:220,-0.478912,-0.026427999999999997,-0.09963999999999999,-0.002932,0.002177,0.001442,-45.5,0.25,9.37,3a
2019-07-15_175005:240,-0.485016,-0.026917,-0.10116599999999999,-0.0028399999999999996,0.0012619999999999999,0.001167,-45.5,0.25,9.37,3a
2019-07-15_175005:260,-0.49111899999999997,-0.026427999999999997,-0.100159,-0.0025960000000000002,0.001537,0.001167,-45.5,0.25,9.37,3a
2019-07-15_175005:280,-0.48858599999999996,-0.025421,-0.102173,-0.002657,0.002513,0.001106,-45.869999,0.0,8.56,3a
2019-07-15_175005:300,-0.484497,-0.026427999999999997,-0.100647,-0.002993,0.0034289999999999998,0.0007700000000000001,-45.869999,0.0,8.56,3a
2019-07-15_175005:320,-0.48553500000000005,-0.026427999999999997,-0.102173,-0.002993,0.00352,0.000709,-45.869999,0.0,8.56,3a
2019-07-15_175005:340,-0.492645,-0.025908999999999998,-0.099121,-0.003176,0.004161,0.00016,-45.869999,-0.37,9.06,3a
2019-07-15_175005:360,-0.496216,-0.027435,-0.09963999999999999,-0.0033280000000000002,0.006084,-0.000267,-45.869999,-0.37,9.06,3a
2019-07-15_175005:380,-0.490601,-0.026427999999999997,-0.100159,-0.00339,0.007945,-0.000664,-45.18,-0.37,10.18,3a
2019-07-15_175005:400,-0.48095699999999997,-0.025908999999999998,-0.095581,-0.0037560000000000002,0.008617,-0.0011220000000000002,-45.18,-0.37,10.18,3a
2019-07-15_175005:420,-0.47995,-0.026427999999999997,-0.09454299999999999,-0.004,0.007762000000000001,-0.001,-45.18,-0.37,10.18,3a
2019-07-15_175005:440,-0.47995,-0.026917,-0.089478,-0.004091,0.006633,-0.0009689999999999999,-45.5,0.0,9.37,3a
2019-07-15_175005:460,-0.482483,-0.028961,-0.090485,-0.003878,0.005686999999999999,-0.0017929999999999999,-45.5,0.0,9.37,3a
2019-07-15_175005:480,-0.48349,-0.028442000000000002,-0.087952,-0.003817,0.005412,-0.002709,-44.369999,-0.37,9.75,3a
2019-07-15_175005:500,-0.481476,-0.027954000000000003,-0.087952,-0.0032979999999999997,0.005016,-0.002709,-44.369999,-0.37,9.75,3a
2019-07-15_175005:520,-0.482483,-0.027435,-0.089478,-0.0028399999999999996,0.0042829999999999995,-0.0029219999999999997,-44.369999,-0.37,9.75,3a
2019-07-15_175005:540,-0.486023,-0.026427999999999997,-0.085388,-0.002321,0.003764,-0.002983,-45.5,-0.75,11.75,3a
2019-07-15_175005:560,-0.484009,-0.024902,-0.086426,-0.001772,0.003368,-0.002373,-45.5,-0.75,11.75,3a
2019-07-15_175005:580,-0.48349,-0.023375999999999997,-0.085388,-0.00107,0.003124,-0.002495,-44.869999,-1.18,9.37,3a
2019-07-15_175005:600,-0.482483,-0.022858,-0.08743300000000001,-0.000796,0.002757,-0.0037770000000000004,-44.869999,-1.18,9.37,3a
2019-07-15_175005:620,-0.484009,-0.020325,-0.08843999999999999,-0.00045999999999999996,0.002177,-0.004174000000000001,-44.869999,-1.18,9.37,3a
2019-07-15_175005:640,-0.489075,-0.019806,-0.08743300000000001,-0.00045999999999999996,0.001842,-0.004418,-44.869999,-0.75,11.37,3a
2019-07-15_175005:660,-0.489594,-0.017792,-0.08843999999999999,-0.000338,0.002239,-0.004631000000000001,-44.869999,-0.75,11.37,3a
2019-07-15_175005:680,-0.48754899999999995,-0.015747,-0.088959,-0.000399,0.002757,-0.004418,-45.560001,-1.87,10.56,3a
2019-07-15_175005:700,-0.48553500000000005,-0.013213999999999998,-0.08843999999999999,-0.000277,0.002971,-0.004113,-45.560001,-1.87,10.56,3a
2019-07-15_175005:720,-0.48654200000000003,-0.010651,-0.088959,-0.000796,0.002849,-0.003655,-45.560001,-1.87,10.56,3a
2019-07-15_175005:740,-0.48654200000000003,-0.011687999999999999,-0.087952,-0.001131,0.002971,-0.002587,-45.25,-1.06,10.56,3a
2019-07-15_175005:760,-0.489075,-0.009125,-0.08743300000000001,-0.0017109999999999998,0.002757,-0.001702,-45.25,-1.06,10.56,3a
2019-07-15_175005:780,-0.488068,-0.009125,-0.088959,-0.0022600000000000003,0.002971,-0.0011220000000000002,-45.25,-1.37,9.75,3a
2019-07-15_175005:800,-0.489075,-0.009644,-0.085388,-0.002993,0.003246,-0.000328,-45.25,-1.37,9.75,3a
2019-07-15_175005:820,-0.48754899999999995,-0.010162000000000001,-0.0849,-0.0036950000000000004,0.003307,0.000343,-45.25,-1.37,9.75,3a
2019-07-15_175005:840,-0.48754899999999995,-0.011687999999999999,-0.083374,-0.004091,0.003368,0.001106,-45.560001,-1.18,11.37,3a
2019-07-15_175005:860,-0.485016,-0.014221000000000001,-0.083374,-0.004671,0.0035810000000000004,0.0008619999999999999,-45.560001,-1.18,11.37,3a
2019-07-15_175005:880,-0.48196400000000006,-0.014221000000000001,-0.0849,-0.004824,0.00349,0.000404,-45.560001,-1.5,11.0,3a
2019-07-15_175005:900,-0.48095699999999997,-0.013213999999999998,-0.0849,-0.005068,0.0029100000000000003,0.00028199999999999997,-45.560001,-1.5,11.0,3a
2019-07-15_175005:920,-0.482483,-0.017792,-0.083862,-0.004793,0.001994,7.000000000000001e-06,-45.560001,-1.5,11.0,3a
2019-07-15_175005:940,-0.489594,-0.016266,-0.084381,-0.004213000000000001,0.001415,-0.000664,-45.25,-1.37,10.56,3a
2019-07-15_175005:960,-0.48754899999999995,-0.014740000000000001,-0.0849,-0.003573,0.001628,-0.000267,-45.25,-1.37,10.56,3a
2019-07-15_175005:980,-0.485016,-0.014221000000000001,-0.084381,-0.0032979999999999997,0.0012619999999999999,0.000465,-44.18,-1.37,11.0,3a
2019-07-15_175006:000,-0.48706099999999997,-0.013702,-0.083862,-0.002932,0.0009570000000000001,0.0008619999999999999,-44.18,-1.37,11.0,3a
2019-07-15_175006:020,-0.492126,-0.013213999999999998,-0.082855,-0.0029010000000000004,0.001537,0.000526,-44.18,-1.37,11.0,3a
2019-07-15_175006:040,-0.48706099999999997,-0.013702,-0.0849,-0.003054,0.001842,0.000526,-44.869999,-1.37,10.56,3a
2019-07-15_175006:060,-0.48706099999999997,-0.013213999999999998,-0.084381,-0.0029010000000000004,0.0016589999999999999,0.001106,-44.869999,-1.37,10.56,3a
2019-07-15_175006:080,-0.48858599999999996,-0.012695,-0.08590700000000001,-0.0031149999999999997,0.001537,0.00132,-45.25,-1.06,10.56,3a
2019-07-15_175006:100,-0.490601,-0.013213999999999998,-0.081329,-0.0032979999999999997,0.0017809999999999998,0.001442,-45.25,-1.06,10.56,3a
2019-07-15_175006:120,-0.48858599999999996,-0.012695,-0.083374,-0.003664,0.002361,0.001777,-45.25,-1.06,10.56,3a
2019-07-15_175006:140,-0.48553500000000005,-0.015228,-0.08590700000000001,-0.003817,0.0024519999999999998,0.00196,-44.869999,-1.37,10.25,3a
2019-07-15_175006:160,-0.48553500000000005,-0.014740000000000001,-0.0849,-0.004,0.002239,0.00196,-44.869999,-1.37,10.25,3a
2019-07-15_175006:180,-0.48654200000000003,-0.016266,-0.086426,-0.004,0.001964,0.00196,-43.68,-1.18,11.0,3a
2019-07-15_175006:200,-0.48706099999999997,-0.015228,-0.0849,-0.00403,0.0017809999999999998,0.001503,-43.68,-1.18,11.0,3a
2019-07-15_175006:220,-0.48553500000000005,-0.016753999999999998,-0.08743300000000001,-0.004,0.001292,0.001564,-43.68,-1.18,11.0,3a
2019-07-15_175006:240,-0.48706099999999997,-0.015747,-0.084381,-0.004,0.001292,0.001503,-44.869999,-1.5,10.56,3a
2019-07-15_175006:260,-0.490601,-0.016266,-0.086914,-0.0037560000000000002,0.0014759999999999999,0.001106,-44.869999,-1.5,10.56,3a
2019-07-15_175006:280,-0.49111899999999997,-0.017273,-0.086426,-0.003817,0.002177,0.001045,-45.560001,-0.75,11.37,3a
2019-07-15_175006:300,-0.48858599999999996,-0.016266,-0.08743300000000001,-0.003664,0.002239,0.000984,-45.560001,-0.75,11.37,3a
2019-07-15_175006:320,-0.484009,-0.016266,-0.087952,-0.003512,0.0023,0.001167,-45.560001,-0.75,11.37,3a
2019-07-15_175006:340,-0.48754899999999995,-0.015228,-0.08743300000000001,-0.0033280000000000002,0.001964,0.001381,-45.25,-1.18,10.56,3a
2019-07-15_175006:360,-0.48706099999999997,-0.014740000000000001,-0.086914,-0.0032979999999999997,0.002239,0.001442,-45.25,-1.18,10.56,3a
2019-07-15_175006:380,-0.489075,-0.014221000000000001,-0.08996599999999999,-0.0033280000000000002,0.002574,0.001442,-45.25,-1.87,11.0,3a
2019-07-15_175006:400,-0.48754899999999995,-0.011687999999999999,-0.087952,-0.0036340000000000005,0.002757,0.0022960000000000003,-45.25,-1.87,11.0,3a
2019-07-15_175006:420,-0.49111899999999997,-0.013702,-0.086426,-0.003573,0.002635,0.002784,-45.25,-1.87,11.0,3a
2019-07-15_175006:440,-0.485016,-0.013702,-0.084381,-0.00403,0.0031850000000000003,0.002754,-44.560001,-0.37,10.25,3a
2019-07-15_175006:460,-0.492645,-0.014740000000000001,-0.083374,-0.004213000000000001,0.00352,0.004036,-44.560001,-0.37,10.25,3a
2019-07-15_175006:480,-0.484009,-0.016753999999999998,-0.0849,-0.004549,0.00352,0.004615,-44.75,-1.5,11.37,3a
2019-07-15_175006:500,-0.484009,-0.020325,-0.084381,-0.00461,0.002849,0.003242,-44.75,-1.5,11.37,3a
2019-07-15_175006:520,-0.48654200000000003,-0.023375999999999997,-0.0849,-0.004397,0.002239,0.001991,-44.75,-1.5,11.37,3a
2019-07-15_175006:540,-0.488068,-0.023895,-0.08081100000000001,-0.004213000000000001,0.0019030000000000002,0.0021739999999999997,-45.25,-0.75,11.0,3a
2019-07-15_175006:560,-0.489594,-0.025908999999999998,-0.07775900000000001,-0.003939,0.0023,0.002693,-45.25,-0.75,11.0,3a
2019-07-15_175006:580,-0.490601,-0.025908999999999998,-0.077271,-0.0037560000000000002,0.003124,0.0018989999999999999,-45.5,-0.75,11.75,3a
2019-07-15_175006:600,-0.48654200000000003,-0.023375999999999997,-0.075745,-0.002993,0.003703,0.00132,-45.5,-0.75,11.75,3a
2019-07-15_175006:620,-0.48553500000000005,-0.022858,-0.077271,-0.0028399999999999996,0.003764,0.000923,-45.5,-0.75,11.75,3a
2019-07-15_175006:640,-0.484497,-0.020844,-0.075745,-0.0028399999999999996,0.002849,0.001381,-44.869999,-0.37,11.37,3a
2019-07-15_175006:660,-0.48300200000000004,-0.021851,-0.076263,-0.00339,0.0017809999999999998,0.001777,-44.869999,-0.37,11.37,3a
2019-07-15_175006:680,-0.489075,-0.022858,-0.078278,-0.003878,0.001598,0.001106,-44.5,-1.18,10.56,3a
2019-07-15_175006:700,-0.49111899999999997,-0.023895,-0.077271,-0.004427,0.001628,0.0008619999999999999,-44.5,-1.18,10.56,3a
2019-07-15_175006:720,-0.494171,-0.024384,-0.077271,-0.005007,0.0024519999999999998,0.001045,-44.5,-1.18,10.56,3a
2019-07-15_175006:740,-0.489594,-0.026917,-0.074738,-0.005739,0.002971,0.001564,-44.5,-1.18,10.56,3a
2019-07-15_175006:760,-0.489594,-0.028961,-0.075745,-0.006014,0.00349,0.001442,-44.5,-1.18,10.56,3a
2019-07-15_175006:780,-0.484497,-0.028961,-0.076752,-0.006197,0.003886,-0.000328,-44.369999,-0.75,11.0,3a
2019-07-15_175006:800,-0.478912,-0.026427999999999997,-0.078278,-0.005465,0.0035810000000000004,-0.001366,-44.369999,-0.75,11.0,3a
2019-07-15_175006:820,-0.47943100000000005,-0.025421,-0.083374,-0.00461,0.002635,-0.0034409999999999996,-44.369999,-0.75,11.0,3a
2019-07-15_175006:840,-0.48858599999999996,-0.022369,-0.082336,-0.0037560000000000002,0.0014759999999999999,-0.005089,-44.369999,0.0,10.56,3a
2019-07-15_175006:860,-0.492645,-0.023895,-0.081329,-0.0025050000000000003,0.0008039999999999999,-0.00457,-44.369999,0.0,10.56,3a
2019-07-15_175006:880,-0.492645,-0.022369,-0.076752,-0.001467,0.001292,-0.0037770000000000004,-44.369999,-1.5,11.37,3a
2019-07-15_175006:900,-0.496216,-0.023375999999999997,-0.080322,-0.000399,0.001842,-0.0023120000000000003,-44.369999,-1.5,11.37,3a
2019-07-15_175006:920,-0.492645,-0.022858,-0.080322,0.001005,0.003093,-0.0012439999999999999,-44.369999,-1.5,11.37,3a
2019-07-15_175006:940,-0.49365200000000004,-0.033539,-0.079803,0.002806,0.0041,-0.001641,-44.060001,-0.75,11.0,3a
2019-07-15_175006:960,-0.49316400000000005,-0.040649,-0.079803,0.00717,0.005443,-0.003228,-44.060001,-0.75,11.0,3a
2019-07-15_175006:980,-0.48754899999999995,-0.036591000000000005,-0.083862,0.011807999999999999,0.006236,-0.006371,-44.75,-1.87,11.0,3a
2019-07-15_175007:000,-0.485016,-0.024902,-0.081329,0.01547,0.006236,-0.008477,-44.75,-1.87,11.0,3a
2019-07-15_175007:020,-0.49111899999999997,-0.0025329999999999997,-0.081329,0.016599000000000003,0.006572,-0.008232,-44.75,-1.87,11.0,3a
2019-07-15_175007:040,-0.48858599999999996,0.012177,-0.081848,0.013548,0.006633,-0.009728,-44.75,-2.25,10.56,3a
2019-07-15_175007:060,-0.48706099999999997,0.023375999999999997,-0.07775900000000001,0.00717,0.006084,-0.010459999999999999,-44.75,-2.25,10.56,3a
2019-07-15_175007:080,-0.490601,0.021332,-0.075226,0.000883,0.005626,-0.008812,-44.5,-1.87,12.18,3a
2019-07-15_175007:100,-0.492126,0.009644,-0.069122,-0.0037560000000000002,0.005107,-0.0057,-44.5,-1.87,12.18,3a
2019-07-15_175007:120,-0.488068,0.0,-0.067596,-0.005953,0.004833,-0.00216,-44.5,-1.87,12.18,3a
2019-07-15_175007:140,-0.48553500000000005,-0.007599,-0.065582,-0.006319,0.004954999999999999,-0.00045099999999999996,-45.560001,-2.87,12.56,3a
2019-07-15_175007:160,-0.48349,-0.010162000000000001,-0.064545,-0.005556,0.004649,0.000831,-45.560001,-2.87,12.56,3a
2019-07-15_175007:180,-0.485016,-0.013702,-0.06405599999999999,-0.004152,0.003886,0.002052,-44.869999,-2.18,12.18,3a
2019-07-15_175007:200,-0.489075,-0.014740000000000001,-0.064545,-0.002657,0.002971,0.003242,-44.869999,-2.18,12.18,3a
2019-07-15_175007:220,-0.492645,-0.015228,-0.065063,-0.001314,0.002788,0.003639,-44.869999,-2.18,12.18,3a
2019-07-15_175007:240,-0.491638,-0.013702,-0.065063,-0.000796,0.0029100000000000003,0.003151,-44.18,-2.56,12.56,3a
2019-07-15_175007:260,-0.494171,-0.015228,-0.063538,-0.00045999999999999996,0.003093,0.0026320000000000002,-44.18,-2.56,12.56,3a
2019-07-15_175007:280,-0.495697,-0.013702,-0.064545,-0.000521,0.003703,0.0021739999999999997,-44.5,-2.87,11.37,3a
2019-07-15_175007:300,-0.48706099999999997,-0.016753999999999998,-0.063538,-0.000643,0.004161,0.001716,-44.5,-2.87,11.37,3a
2019-07-15_175007:320,-0.482483,-0.015747,-0.06405599999999999,-0.000338,0.0035810000000000004,0.001167,-44.5,-2.87,11.37,3a
2019-07-15_175007:340,-0.48300200000000004,-0.013213999999999998,-0.066071,-2e-06,0.0031850000000000003,0.000129,-44.560001,-2.18,12.56,3a
2019-07-15_175007:360,-0.485016,-0.010651,-0.063019,0.000212,0.0024519999999999998,-0.0011220000000000002,-44.560001,-2.18,12.56,3a
2019-07-15_175007:380,-0.482483,-0.006072999999999999,-0.066589,0.000212,0.001415,-0.0009689999999999999,-44.5,-1.75,13.0,3a
2019-07-15_175007:400,-0.477386,-0.0055850000000000006,-0.068115,-0.000643,-0.00011100000000000001,-0.000908,-44.5,-1.75,13.0,3a
2019-07-15_175007:420,-0.49111899999999997,-0.0030210000000000002,-0.068634,-0.0014060000000000001,-0.001973,-0.002098,-44.5,-1.75,13.0,3a
2019-07-15_175007:440,-0.484009,-0.004059,-0.069122,-0.002382,-0.003163,-0.002373,-43.75,-2.18,11.75,3a
2019-07-15_175007:460,-0.492126,-0.0035399999999999997,-0.069641,-0.003512,-0.0032240000000000003,-0.0019149999999999998,-43.75,-2.18,11.75,3a
2019-07-15_175007:480,-0.48706099999999997,-0.006592,-0.072174,-0.004397,-0.0027660000000000002,-0.0013050000000000002,-44.18,-3.25,12.18,3a
2019-07-15_175007:500,-0.490601,-0.007111,-0.072693,-0.004488000000000001,-0.002431,-0.000725,-44.18,-3.25,12.18,3a
2019-07-15_175007:520,-0.5048520000000001,-0.006592,-0.069641,-0.004213000000000001,-0.001454,0.000129,-44.18,-3.25,12.18,3a
2019-07-15_175007:540,-0.495697,-0.007599,-0.072693,-0.00403,7.2e-05,0.000526,-44.869999,-3.25,11.37,3a
2019-07-15_175007:560,-0.48349,-0.006072999999999999,-0.07421900000000001,-0.004,0.0008039999999999999,0.0008619999999999999,-44.869999,-3.25,11.37,3a
2019-07-15_175007:580,-0.48706099999999997,-0.0055850000000000006,-0.076263,-0.004488000000000001,-0.000264,0.001258,-44.869999,-2.18,11.37,3a
2019-07-15_175007:600,-0.49316400000000005,-0.005065999999999999,-0.074738,-0.005007,-0.001057,0.001381,-44.869999,-2.18,11.37,3a
2019-07-15_175007:620,-0.49365200000000004,-0.006072999999999999,-0.072174,-0.0056170000000000005,-0.000661,0.001381,-44.869999,-2.18,11.37,3a
2019-07-15_175007:640,-0.491638,-0.006592,-0.076263,-0.006014,0.000133,0.001167,-45.25,-3.25,12.56,3a
2019-07-15_175007:660,-0.486023,-0.008636,-0.07421900000000001,-0.006014,0.001353,0.000648,-45.25,-3.25,12.56,3a
2019-07-15_175007:680,-0.48754899999999995,-0.009125,-0.076263,-0.005678,0.00172,-0.000328,-44.18,-2.87,11.0,3a
2019-07-15_175007:700,-0.48553500000000005,-0.007111,-0.072693,-0.005465,0.001201,7.000000000000001e-06,-44.18,-2.87,11.0,3a
2019-07-15_175007:720,-0.48553500000000005,-0.007111,-0.0737,-0.0048850000000000005,0.000468,0.001381,-44.18,-2.87,11.0,3a
2019-07-15_175007:740,-0.48706099999999997,-0.0055850000000000006,-0.073212,-0.005007,-0.00011100000000000001,0.001381,-44.5,-2.18,11.0,3a
2019-07-15_175007:760,-0.48858599999999996,-0.002014,-0.07421900000000001,-0.005404,-0.000508,0.001655,-44.5,-2.18,11.0,3a
2019-07-15_175007:780,-0.48754899999999995,-0.0030210000000000002,-0.0737,-0.005953,-0.0005690000000000001,0.0022960000000000003,-45.25,-2.56,11.75,3a
2019-07-15_175007:800,-0.488068,-0.004059,-0.07421900000000001,-0.006869,-0.00044699999999999997,0.00196,-45.25,-2.56,11.75,3a
2019-07-15_175007:820,-0.48858599999999996,-0.006072999999999999,-0.075745,-0.007448000000000001,-0.000661,0.001777,-45.25,-2.56,11.75,3a
2019-07-15_175007:840,-0.490601,-0.009125,-0.075226,-0.007784,-0.000722,0.001655,-44.869999,-2.56,10.56,3a
2019-07-15_175007:860,-0.489594,-0.009644,-0.076263,-0.007387,-0.001027,0.001258,-44.869999,-2.56,10.56,3a
2019-07-15_175007:880,-0.49316400000000005,-0.010162000000000001,-0.076263,-0.006807,-0.0009050000000000001,0.001564,-44.869999,-2.18,11.0,3a
2019-07-15_175007:900,-0.492645,-0.011169,-0.075226,-0.00635,-0.0005690000000000001,0.001838,-44.869999,-2.18,11.0,3a
2019-07-15_175007:920,-0.49517799999999995,-0.008636,-0.076752,-0.006197,0.000407,0.0018989999999999999,-44.869999,-2.18,11.0,3a
2019-07-15_175007:940,-0.492645,-0.0055850000000000006,-0.077271,-0.0064719999999999995,0.001537,0.002235,-44.5,-2.87,11.37,3a
2019-07-15_175007:960,-0.48754899999999995,-0.007599,-0.077271,-0.007204,0.001598,0.002235,-44.5,-2.87,11.37,3a
2019-07-15_175007:980,-0.46875,-0.007599,-0.081848,-0.007876000000000001,0.0010789999999999999,0.002113,-44.869999,-2.18,11.0,3a
2019-07-15_175008:000,-0.47433500000000006,-0.004547,-0.083862,-0.008608,-0.001179,0.002357,-44.869999,-2.18,11.0,3a
2019-07-15_175008:020,-0.481476,-0.004059,-0.085388,-0.009188,-0.0033159999999999995,0.001716,-44.869999,-2.18,11.0,3a
2019-07-15_175008:040,-0.484497,-0.006592,-0.08996599999999999,-0.009859,-0.0034990000000000004,0.001258,-44.18,-2.18,12.18,3a
2019-07-15_175008:060,-0.5048520000000001,-0.010651,-0.08843999999999999,-0.009981,-0.002919,0.001228,-44.18,-2.18,12.18,3a
2019-07-15_175008:080,-0.502808,-0.017792,-0.086914,-0.00873,-0.0008439999999999999,0.002754,-44.5,-1.75,11.75,3a
2019-07-15_175008:100,-0.501282,-0.024384,-0.081848,-0.007143000000000001,0.00114,0.0053479999999999995,-44.5,-1.75,11.75,3a
2019-07-15_175008:120,-0.49722299999999997,-0.022858,-0.076263,-0.005465,0.003032,0.006569,-44.5,-1.75,11.75,3a
2019-07-15_175008:140,-0.491638,-0.021332,-0.074738,-0.004671,0.004619,0.006934999999999999,-46.369999,-1.75,11.37,3a
2019-07-15_175008:160,-0.48553500000000005,-0.01828,-0.071686,-0.004427,0.0052899999999999996,0.0058969999999999995,-46.369999,-1.75,11.37,3a
2019-07-15_175008:180,-0.481476,-0.019318000000000002,-0.071686,-0.004946,0.005626,0.0038829999999999997,-44.5,-1.18,12.18,3a
2019-07-15_175008:200,-0.47280900000000003,-0.020325,-0.0737,-0.0051600000000000005,0.0045579999999999996,0.001838,-44.5,-1.18,12.18,3a
2019-07-15_175008:220,-0.482483,-0.022858,-0.07421900000000001,-0.0048850000000000005,0.002574,0.000648,-44.5,-1.18,12.18,3a
2019-07-15_175008:240,-0.48706099999999997,-0.022858,-0.076263,-0.004213000000000001,0.0012619999999999999,-0.0009689999999999999,-44.5,-1.87,11.37,3a
2019-07-15_175008:260,-0.488068,-0.019806,-0.078796,-0.0032979999999999997,0.001018,-0.0010609999999999999,-44.5,-1.87,11.37,3a
2019-07-15_175008:280,-0.492645,-0.017792,-0.077271,-0.002535,0.0008960000000000001,-0.001,-45.18,-2.25,10.56,3a
2019-07-15_175008:300,-0.497742,-0.016266,-0.074738,-0.0022600000000000003,0.00172,0.000221,-45.18,-2.25,10.56,3a
2019-07-15_175008:320,-0.486023,-0.014221000000000001,-0.076752,-0.0025050000000000003,0.0024519999999999998,0.0007700000000000001,-45.18,-2.25,10.56,3a
2019-07-15_175008:340,-0.48553500000000005,-0.014740000000000001,-0.078278,-0.0029010000000000004,0.002513,-0.00011499999999999999,-45.869999,-1.37,11.37,3a
2019-07-15_175008:360,-0.47995,-0.012177,-0.079803,-0.002993,0.001964,-0.0017929999999999999,-45.869999,-1.37,11.37,3a
2019-07-15_175008:380,-0.47995,-0.012177,-0.081329,-0.002993,0.0010789999999999999,-0.001458,-44.5,-1.37,11.37,3a
2019-07-15_175008:400,-0.484009,-0.010651,-0.079803,-0.003237,0.000285,-0.001397,-44.5,-1.37,11.37,3a
2019-07-15_175008:420,-0.48553500000000005,-0.008636,-0.081848,-0.00339,-0.00011100000000000001,-0.001702,-44.5,-1.37,11.37,3a
2019-07-15_175008:440,-0.48706099999999997,-0.009125,-0.0849,-0.0034509999999999996,-0.000264,-0.0017929999999999999,-44.75,-1.75,11.0,3a
2019-07-15_175008:460,-0.488068,-0.007111,-0.083862,-0.003664,-0.0005690000000000001,-0.001641,-44.75,-1.75,11.0,3a
2019-07-15_175008:480,-0.489075,-0.006592,-0.085388,-0.003939,-0.0009050000000000001,-0.0008470000000000001,-44.5,-1.37,11.37,3a
2019-07-15_175008:500,-0.48858599999999996,-0.007599,-0.082855,-0.004336,-0.0008439999999999999,0.00028199999999999997,-44.5,-1.37,11.37,3a
2019-07-15_175008:520,-0.48754899999999995,-0.008118,-0.086426,-0.004793,-0.000722,0.000648,-44.5,-1.37,11.37,3a
2019-07-15_175008:540,-0.490601,-0.007599,-0.08843999999999999,-0.0048850000000000005,-0.00063,0.000587,-44.060001,-2.18,11.0,3a
2019-07-15_175008:560,-0.494171,-0.010162000000000001,-0.085388,-0.005404,-5e-05,0.0007700000000000001,-44.060001,-2.18,11.0,3a
2019-07-15_175008:580,-0.49111899999999997,-0.010651,-0.085388,-0.005739,0.00056,0.000923,-44.75,-1.75,11.75,3a
2019-07-15_175008:600,-0.49468999999999996,-0.012695,-0.08590700000000001,-0.005465,0.001628,0.001716,-44.75,-1.75,11.75,3a
2019-07-15_175008:620,-0.48553500000000005,-0.010651,-0.08743300000000001,-0.005465,0.002239,0.001442,-44.75,-1.75,11.75,3a
2019-07-15_175008:640,-0.48553500000000005,-0.011169,-0.086914,-0.005282,0.002361,0.000984,-45.5,-1.75,11.0,3a
2019-07-15_175008:660,-0.484497,-0.011687999999999999,-0.08590700000000001,-0.005221,0.0019030000000000002,0.000923,-45.5,-1.75,11.0,3a
2019-07-15_175008:680,-0.48095699999999997,-0.011687999999999999,-0.087952,-0.005129,0.00172,0.00132,-44.75,-1.37,10.56,3a
2019-07-15_175008:700,-0.489075,-0.011169,-0.085388,-0.005129,0.00114,0.0018989999999999999,-44.75,-1.37,10.56,3a
2019-07-15_175008:720,-0.489075,-0.011687999999999999,-0.083374,-0.005129,0.000865,0.002449,-44.75,-1.37,10.56,3a
2019-07-15_175008:740,-0.49365200000000004,-0.012695,-0.085388,-0.005129,0.0012619999999999999,0.002235,-44.75,-1.75,11.0,3a
2019-07-15_175008:760,-0.48754899999999995,-0.014740000000000001,-0.083862,-0.005068,0.002239,0.0018989999999999999,-44.75,-1.75,11.0,3a
2019-07-15_175008:780,-0.489075,-0.013702,-0.0849,-0.005343,0.002574,0.001381,-44.75,-1.06,11.37,3a
2019-07-15_175008:800,-0.489075,-0.016266,-0.082336,-0.004946,0.002696,0.001106,-44.75,-1.06,11.37,3a
2019-07-15_175008:820,-0.48654200000000003,-0.017273,-0.082336,-0.004427,0.002361,0.0007700000000000001,-44.75,-1.06,11.37,3a
2019-07-15_175008:840,-0.48706099999999997,-0.014740000000000001,-0.083374,-0.003817,0.002361,0.000984,-44.75,-1.06,11.0,3a
2019-07-15_175008:860,-0.48706099999999997,-0.014221000000000001,-0.082855,-0.0033280000000000002,0.001994,0.00132,-44.75,-1.06,11.0,3a
2019-07-15_175008:880,-0.48706099999999997,-0.013213999999999998,-0.082855,-0.0031149999999999997,0.0019030000000000002,0.001442,-44.75,-1.75,11.37,3a
2019-07-15_175008:900,-0.48858599999999996,-0.013702,-0.082336,-0.002993,0.0017809999999999998,0.001625,-44.75,-1.75,11.37,3a
2019-07-15_175008:920,-0.491638,-0.013213999999999998,-0.082336,-0.003237,0.002361,0.001564,-44.75,-1.75,11.37,3a
2019-07-15_175008:940,-0.489075,-0.014221000000000001,-0.081848,-0.003573,0.002757,0.001503,-44.5,-1.06,10.56,3a
2019-07-15_175008:960,-0.486023,-0.013213999999999998,-0.081848,-0.003573,0.003124,0.001625,-44.5,-1.06,10.56,3a
2019-07-15_175008:980,-0.48654200000000003,-0.016266,-0.081329,-0.003664,0.0024519999999999998,0.001564,-43.68,-1.06,11.37,3a
2019-07-15_175009:000,-0.48706099999999997,-0.016266,-0.081329,-0.003512,0.002239,0.00132,-43.68,-1.06,11.37,3a
2019-07-15_175009:020,-0.48754899999999995,-0.015747,-0.080322,-0.002932,0.0024519999999999998,0.00132,-43.68,-1.06,11.37,3a
2019-07-15_175009:040,-0.488068,-0.016753999999999998,-0.082336,-0.002657,0.002391,0.001045,-45.18,-1.37,10.56,3a
2019-07-15_175009:060,-0.48754899999999995,-0.016753999999999998,-0.08081100000000001,-0.002382,0.002574,0.001167,-45.18,-1.37,10.56,3a
2019-07-15_175009:080,-0.48706099999999997,-0.016266,-0.081329,-0.0022600000000000003,0.002696,0.0008619999999999999,-44.369999,-1.37,10.56,3a
2019-07-15_175009:100,-0.486023,-0.013702,-0.080322,-0.0022600000000000003,0.002361,0.000343,-44.369999,-1.37,10.56,3a
2019-07-15_175009:120,-0.48858599999999996,-0.013213999999999998,-0.07928500000000001,-0.002382,0.002177,0.000404,-44.369999,-1.37,10.56,3a
2019-07-15_175009:140,-0.48706099999999997,-0.012695,-0.07928500000000001,-0.0028399999999999996,0.002177,0.000221,-43.369999,-1.75,11.0,3a
2019-07-15_175009:160,-0.48858599999999996,-0.013702,-0.078278,-0.002932,0.002239,-5.4000000000000005e-05,-43.369999,-1.75,11.0,3a
2019-07-15_175009:180,-0.48858599999999996,-0.013702,-0.078278,-0.003054,0.002361,7.000000000000001e-06,-44.75,-1.06,10.25,3a
2019-07-15_175009:200,-0.489075,-0.013702,-0.076263,-0.003054,0.002391,7.000000000000001e-06,-44.75,-1.06,10.25,3a
2019-07-15_175009:220,-0.490112,-0.014221000000000001,-0.077271,-0.003054,0.0024519999999999998,-5.4000000000000005e-05,-44.75,-1.06,10.25,3a
2019-07-15_175009:240,-0.48654200000000003,-0.013213999999999998,-0.076752,-0.003176,0.002757,0.000129,-44.75,-1.75,10.56,3a
2019-07-15_175009:260,-0.490112,-0.014740000000000001,-0.076263,-0.003512,0.002635,0.000984,-44.75,-1.75,10.56,3a
2019-07-15_175009:280,-0.48349,-0.013702,-0.076263,-0.004,0.0024519999999999998,0.000923,-44.060001,-1.37,11.37,3a
2019-07-15_175009:300,-0.48553500000000005,-0.015228,-0.076263,-0.004091,0.0016589999999999999,0.00028199999999999997,-44.060001,-1.37,11.37,3a
2019-07-15_175009:320,-0.48754899999999995,-0.016266,-0.076752,-0.004152,0.001415,7.000000000000001e-06,-44.060001,-1.37,11.37,3a
2019-07-15_175009:340,-0.48858599999999996,-0.014221000000000001,-0.078278,-0.004152,0.0014759999999999999,0.001106,-44.75,-1.06,11.75,3a
2019-07-15_175009:360,-0.491638,-0.017273,-0.076752,-0.004152,0.0016589999999999999,0.001167,-44.75,-1.06,11.75,3a
2019-07-15_175009:380,-0.492126,-0.017273,-0.078796,-0.003878,0.002757,0.001106,-44.75,-1.37,12.18,3a
2019-07-15_175009:400,-0.489594,-0.017792,-0.07775900000000001,-0.0037560000000000002,0.003368,0.000923,-44.75,-1.37,12.18,3a
2019-07-15_175009:420,-0.48858599999999996,-0.017273,-0.078796,-0.003817,0.00352,0.0008619999999999999,-44.75,-1.37,12.18,3a
2019-07-15_175009:440,-0.49111899999999997,-0.016753999999999998,-0.07775900000000001,-0.00403,0.003246,0.001045,-44.75,-1.37,11.37,3a
2019-07-15_175009:460,-0.48754899999999995,-0.017273,-0.07775900000000001,-0.004275,0.002696,0.001258,-44.75,-1.37,11.37,3a
2019-07-15_175009:480,-0.494171,-0.017792,-0.07928500000000001,-0.004549,0.001598,0.000496,-45.869999,-1.06,11.37,3a
2019-07-15_175009:500,-0.49111899999999997,-0.019318000000000002,-0.075745,-0.00461,0.001598,0.00016,-45.869999,-1.06,11.37,3a
2019-07-15_175009:520,-0.492645,-0.016753999999999998,-0.076263,-0.005007,0.0023,0.00016,-45.869999,-1.06,11.37,3a
2019-07-15_175009:540,-0.47943100000000005,-0.017273,-0.077271,-0.00461,0.003825,-0.001,-44.5,-1.75,11.75,3a
2019-07-15_175009:560,-0.462646,-0.023895,-0.076752,-0.004091,0.002849,-0.003655,-44.5,-1.75,11.75,3a
2019-07-15_175009:580,-0.45806899999999995,-0.010162000000000001,-0.085388,-0.002932,0.000682,-0.003624,-44.369999,-1.37,12.18,3a
2019-07-15_175009:600,-0.496704,-0.014740000000000001,-0.0737,-0.002321,-0.002583,-0.001519,-44.369999,-1.37,12.18,3a
2019-07-15_175009:620,-0.516541,-0.010162000000000001,-0.075745,-0.002443,-0.0005690000000000001,-0.0011220000000000002,-44.369999,-1.37,12.18,3a
2019-07-15_175009:640,-0.496216,-0.009644,-0.077271,-0.0025050000000000003,0.003703,0.000343,-45.18,-1.75,12.18,3a
2019-07-15_175009:660,-0.48349,-0.010651,-0.079803,-0.002657,0.004954999999999999,0.00028199999999999997,-45.18,-1.75,12.18,3a
2019-07-15_175009:680,-0.496216,-0.011687999999999999,-0.07421900000000001,-0.002718,0.00471,-5.4000000000000005e-05,-45.5,-1.75,11.0,3a
2019-07-15_175009:700,-0.489075,-0.012177,-0.072174,-0.0025050000000000003,0.004833,-0.000176,-45.5,-1.75,11.0,3a
2019-07-15_175009:720,-0.492126,-0.011687999999999999,-0.075226,-0.0021079999999999996,0.0052899999999999996,-0.000664,-45.5,-1.75,11.0,3a
2019-07-15_175009:740,-0.48754899999999995,-0.009644,-0.073212,-0.0018030000000000001,0.005504,-0.00011499999999999999,-44.060001,-1.75,11.37,3a
2019-07-15_175009:760,-0.491638,-0.008636,-0.0737,-0.0015890000000000001,0.005443,6.8e-05,-44.060001,-1.75,11.37,3a
2019-07-15_175009:780,-0.47842399999999996,-0.007111,-0.0737,-0.001467,0.00471,0.0008619999999999999,-45.18,-1.75,12.18,3a
2019-07-15_175009:800,-0.47943100000000005,-0.006592,-0.072693,-0.001864,0.002849,0.00132,-45.18,-1.75,12.18,3a
2019-07-15_175009:820,-0.489594,-0.008118,-0.067596,-0.002535,0.001201,0.001991,-45.18,-1.75,12.18,3a
2019-07-15_175009:840,-0.496704,-0.008118,-0.067108,-0.0032979999999999997,0.0016589999999999999,0.00196,-44.060001,-2.18,11.37,3a
2019-07-15_175009:860,-0.484497,-0.009125,-0.069122,-0.004,0.002055,0.0021739999999999997,-44.060001,-2.18,11.37,3a
2019-07-15_175009:880,-0.49365200000000004,-0.010162000000000001,-0.069641,-0.004336,0.0014759999999999999,0.0021739999999999997,-44.5,-1.37,11.0,3a
2019-07-15_175009:900,-0.48654200000000003,-0.015228,-0.069641,-0.005068,0.001964,0.002235,-44.5,-1.37,11.0,3a
2019-07-15_175009:920,-0.49111899999999997,-0.015228,-0.073212,-0.005129,0.001964,0.002113,-44.5,-1.37,11.0,3a
2019-07-15_175009:940,-0.482483,-0.01828,-0.0737,-0.0048850000000000005,0.00172,0.0018989999999999999,-44.75,-1.75,13.0,3a
2019-07-15_175009:960,-0.48754899999999995,-0.020325,-0.068115,-0.004488000000000001,0.000468,0.001503,-44.75,-1.75,13.0,3a
2019-07-15_175009:980,-0.48754899999999995,-0.017792,-0.077271,-0.004336,0.000346,0.00132,-44.5,-1.37,11.37,3a
2019-07-15_175010:000,-0.497742,-0.018799,-0.072693,-0.004152,0.001201,0.001381,-44.5,-1.37,11.37,3a
2019-07-15_175010:020,-0.496704,-0.01828,-0.072174,-0.004152,0.002574,0.000984,-44.5,-1.37,11.37,3a
2019-07-15_175010:040,-0.48706099999999997,-0.017273,-0.075745,-0.004427,0.004039,0.001106,-44.060001,-1.06,12.18,3a
2019-07-15_175010:060,-0.490112,-0.016753999999999998,-0.076263,-0.004427,0.003368,0.000465,-44.060001,-1.06,12.18,3a
2019-07-15_175010:080,-0.481476,-0.017273,-0.073212,-0.00461,0.002635,0.000343,-44.75,-1.06,12.56,3a
2019-07-15_175010:100,-0.485016,-0.017792,-0.072174,-0.004732,0.001598,0.000465,-44.75,-1.06,12.56,3a
2019-07-15_175010:120,-0.48349,-0.015747,-0.07016,-0.004793,0.0008039999999999999,-5.4000000000000005e-05,-44.75,-1.06,12.56,3a
2019-07-15_175010:140,-0.490112,-0.016266,-0.07016,-0.005068,0.000285,-0.000328,-44.369999,-1.75,11.75,3a
2019-07-15_175010:160,-0.491638,-0.015747,-0.070648,-0.005282,0.000743,-0.0008470000000000001,-44.369999,-1.75,11.75,3a
2019-07-15_175010:180,-0.490601,-0.017792,-0.069641,-0.0056170000000000005,0.001598,-0.001397,-44.369999,-0.68,13.0,3a
2019-07-15_175010:200,-0.49722299999999997,-0.018799,-0.07016,-0.005343,0.002788,-0.000512,-44.369999,-0.68,13.0,3a
2019-07-15_175010:220,-0.48349,-0.020325,-0.073212,-0.004793,0.002574,-0.000725,-44.369999,-0.68,13.0,3a
2019-07-15_175010:240,-0.490601,-0.019318000000000002,-0.075226,-0.003573,0.002574,-0.002434,-44.75,-1.37,12.18,3a
2019-07-15_175010:260,-0.489594,-0.019318000000000002,-0.07016,-0.002657,0.002635,-0.0038380000000000003,-44.75,-1.37,12.18,3a
2019-07-15_175010:280,-0.489594,-0.016753999999999998,-0.07421900000000001,-0.001009,0.002574,-0.0029219999999999997,-44.5,-1.37,11.37,3a
2019-07-15_175010:300,-0.489075,-0.016266,-0.072174,-2e-06,0.0029100000000000003,-0.0032890000000000003,-44.5,-1.37,11.37,3a
2019-07-15_175010:320,-0.48754899999999995,-0.008118,-0.071167,0.000852,0.002971,-0.0034409999999999996,-44.5,-1.37,11.37,3a
2019-07-15_175010:340,-0.48553500000000005,-0.007111,-0.070648,0.001402,0.003032,-0.0029219999999999997,-45.869999,-1.06,12.18,3a
2019-07-15_175010:360,-0.48349,-0.0035399999999999997,-0.07016,0.001066,0.002513,-0.002709,-45.869999,-1.06,12.18,3a
2019-07-15_175010:380,-0.48553500000000005,-0.002014,-0.071167,0.000547,0.0016589999999999999,-0.001641,-45.18,-1.75,11.0,3a
2019-07-15_175010:400,-0.488068,-0.0030210000000000002,-0.068115,-0.000246,0.00114,-0.000786,-45.18,-1.75,11.0,3a
2019-07-15_175010:420,-0.48706099999999997,-0.0025329999999999997,-0.071167,-0.001192,0.00056,-0.000512,-45.18,-1.75,11.0,3a
2019-07-15_175010:440,-0.489075,-0.0030210000000000002,-0.071686,-0.0020469999999999998,0.000346,-0.00023700000000000001,-44.75,-1.75,11.75,3a
2019-07-15_175010:460,-0.49365200000000004,-0.005065999999999999,-0.069641,-0.0028399999999999996,0.000499,-5.4000000000000005e-05,-44.75,-1.75,11.75,3a
2019-07-15_175010:480,-0.492645,-0.008118,-0.071167,-0.00339,0.001201,0.000496,-45.18,-2.18,11.37,3a
2019-07-15_175010:500,-0.49365200000000004,-0.009125,-0.070648,-0.0036340000000000005,0.0017809999999999998,0.000129,-45.18,-2.18,11.37,3a
2019-07-15_175010:520,-0.48858599999999996,-0.010651,-0.071167,-0.003573,0.002055,-0.000664,-45.18,-2.18,11.37,3a
2019-07-15_175010:540,-0.489594,-0.011169,-0.071686,-0.002993,0.0016589999999999999,-0.00011499999999999999,-45.18,-3.25,11.75,3a
2019-07-15_175010:560,-0.48858599999999996,-0.012177,-0.071167,-0.002535,0.001598,-0.000328,-45.18,-3.25,11.75,3a
2019-07-15_175010:580,-0.490112,-0.011169,-0.071167,-0.0020469999999999998,0.001598,-0.000328,-45.18,-1.75,12.18,3a
2019-07-15_175010:600,-0.491638,-0.011169,-0.070648,-0.001467,0.001628,-0.000573,-45.18,-1.75,12.18,3a
2019-07-15_175010:620,-0.49316400000000005,-0.007111,-0.069122,-0.0014060000000000001,0.0023,-0.000634,-45.18,-1.75,12.18,3a
2019-07-15_175010:640,-0.49365200000000004,-0.006592,-0.07016,-0.00165,0.002971,-0.000573,-44.369999,-2.56,12.56,3a
2019-07-15_175010:660,-0.49365200000000004,-0.005065999999999999,-0.069122,-0.0021079999999999996,0.003093,-0.001,-44.369999,-2.56,12.56,3a
2019-07-15_175010:680,-0.494171,-0.004059,-0.069641,-0.002535,0.00349,-0.0011220000000000002,-44.75,-2.87,13.37,3a
2019-07-15_175010:700,-0.490112,-0.0030210000000000002,-0.068115,-0.0031149999999999997,0.003703,-0.001,-44.75,-2.87,13.37,3a
2019-07-15_175010:720,-0.489594,-0.0035399999999999997,-0.066071,-0.0037560000000000002,0.00349,-0.001,-44.75,-2.87,13.37,3a
2019-07-15_175010:740,-0.484497,-0.002014,-0.065582,-0.00403,0.002971,-0.000786,-44.75,-2.56,11.37,3a
2019-07-15_175010:760,-0.485016,-0.0030210000000000002,-0.065582,-0.004152,0.0023,-0.000573,-44.75,-2.56,11.37,3a
2019-07-15_175010:780,-0.48349,-0.0030210000000000002,-0.067596,-0.004336,0.001201,-0.000267,-44.75,-2.56,11.75,3a
2019-07-15_175010:800,-0.48706099999999997,-0.0035399999999999997,-0.068634,-0.004397,0.000865,0.00016,-44.75,-2.56,11.75,3a
2019-07-15_175010:820,-0.49111899999999997,-0.0035399999999999997,-0.069122,-0.004427,0.0008039999999999999,0.000709,-44.75,-2.56,11.75,3a
2019-07-15_175010:840,-0.492645,-0.004059,-0.069641,-0.004427,0.0008039999999999999,0.001167,-44.060001,-2.56,11.75,3a
2019-07-15_175010:860,-0.492126,-0.004547,-0.068634,-0.004549,0.0012619999999999999,0.001625,-44.060001,-2.56,11.75,3a
2019-07-15_175010:880,-0.492126,-0.005065999999999999,-0.07016,-0.004549,0.001292,0.001655,-44.75,-2.18,11.37,3a
2019-07-15_175010:900,-0.489594,-0.0055850000000000006,-0.069122,-0.004671,0.002055,0.0021739999999999997,-44.75,-2.18,11.37,3a
2019-07-15_175010:920,-0.49365200000000004,-0.006072999999999999,-0.071167,-0.004671,0.002635,0.002357,-44.75,-2.18,11.37,3a
2019-07-15_175010:940,-0.48858599999999996,-0.007111,-0.068115,-0.004488000000000001,0.002971,0.002357,-44.75,-2.56,11.37,3a
2019-07-15_175010:960,-0.49468999999999996,-0.006072999999999999,-0.071167,-0.004488000000000001,0.0035810000000000004,0.002693,-44.75,-2.56,11.37,3a
2019-07-15_175010:980,-0.490112,-0.009644,-0.068634,-0.004213000000000001,0.0041,0.002784,-45.18,-2.18,11.75,3a
2019-07-15_175011:000,-0.491638,-0.011169,-0.07016,-0.0036950000000000004,0.004222,0.0029059999999999997,-45.18,-2.18,11.75,3a
2019-07-15_175011:020,-0.491638,-0.011687999999999999,-0.069122,-0.0033280000000000002,0.004497,0.0029059999999999997,-45.18,-2.18,11.75,3a
2019-07-15_175011:040,-0.490112,-0.011687999999999999,-0.069641,-0.0031149999999999997,0.004497,0.002754,-45.18,-2.18,11.75,3a
2019-07-15_175011:060,-0.48754899999999995,-0.010162000000000001,-0.067596,-0.0028399999999999996,0.004314,0.002449,-45.18,-2.18,11.75,3a
2019-07-15_175011:080,-0.48553500000000005,-0.010651,-0.067596,-0.002779,0.003978,0.002113,-45.18,-1.75,12.18,3a
2019-07-15_175011:100,-0.48654200000000003,-0.011169,-0.066071,-0.003237,0.0029100000000000003,0.001564,-45.18,-1.75,12.18,3a
2019-07-15_175011:120,-0.48754899999999995,-0.009644,-0.066589,-0.0037560000000000002,0.002391,0.000709,-45.18,-1.75,12.18,3a
2019-07-15_175011:140,-0.48654200000000003,-0.008118,-0.064545,-0.004336,0.0023,0.000465,-44.369999,-2.18,12.56,3a
2019-07-15_175011:160,-0.49316400000000005,-0.007111,-0.066589,-0.005007,0.001964,0.001625,-44.369999,-2.18,12.56,3a
2019-07-15_175011:180,-0.48754899999999995,-0.008118,-0.067108,-0.005221,0.0017809999999999998,0.0018989999999999999,-44.060001,-2.18,11.37,3a
2019-07-15_175011:200,-0.490112,-0.010651,-0.065582,-0.005861,0.001628,0.000709,-44.060001,-2.18,11.37,3a
2019-07-15_175011:220,-0.489594,-0.010162000000000001,-0.066589,-0.006075,0.0016589999999999999,0.00028199999999999997,-44.060001,-2.18,11.37,3a
2019-07-15_175011:240,-0.489075,-0.011687999999999999,-0.068634,-0.005922,0.0016589999999999999,0.000648,-44.369999,-2.87,13.37,3a
2019-07-15_175011:260,-0.491638,-0.014221000000000001,-0.067596,-0.005404,0.001842,0.001564,-44.369999,-2.87,13.37,3a
2019-07-15_175011:280,-0.490112,-0.013213999999999998,-0.068115,-0.005068,0.0019030000000000002,0.001625,-45.18,-2.18,13.37,3a
2019-07-15_175011:300,-0.49111899999999997,-0.013213999999999998,-0.067596,-0.004275,0.0023,0.001258,-45.18,-2.18,13.37,3a
2019-07-15_175011:320,-0.491638,-0.012177,-0.068115,-0.003878,0.002177,0.001258,-45.18,-2.18,13.37,3a
2019-07-15_175011:340,-0.492126,-0.011169,-0.067596,-0.0037560000000000002,0.002513,0.001258,-44.369999,-2.18,13.75,3a
2019-07-15_175011:360,-0.491638,-0.011169,-0.067596,-0.003939,0.002696,0.001167,-44.369999,-2.18,13.75,3a
2019-07-15_175011:380,-0.489594,-0.011687999999999999,-0.068115,-0.003939,0.002635,0.000587,-44.5,-1.06,11.75,3a
2019-07-15_175011:400,-0.49316400000000005,-0.011169,-0.065063,-0.004213000000000001,0.002574,0.000221,-44.5,-1.06,11.75,3a
2019-07-15_175011:420,-0.489594,-0.010651,-0.065582,-0.004336,0.002513,0.00016,-44.5,-1.06,11.75,3a
2019-07-15_175011:440,-0.491638,-0.011169,-0.065063,-0.004091,0.002971,0.000465,-44.369999,-1.75,11.75,3a
2019-07-15_175011:460,-0.490601,-0.012695,-0.062012,-0.004213000000000001,0.003368,-0.00023700000000000001,-44.369999,-1.75,11.75,3a
2019-07-15_175011:480,-0.491638,-0.010651,-0.06405599999999999,-0.004152,0.0034289999999999998,-0.00023700000000000001,-44.060001,-1.75,11.75,3a
2019-07-15_175011:500,-0.491638,-0.012177,-0.06405599999999999,-0.00403,0.0034289999999999998,-0.00011499999999999999,-44.060001,-1.75,11.75,3a
2019-07-15_175011:520,-0.490112,-0.011169,-0.062012,-0.0036950000000000004,0.003368,-0.000267,-44.060001,-1.75,11.75,3a
2019-07-15_175011:540,-0.48754899999999995,-0.011687999999999999,-0.06253099999999999,-0.003512,0.003093,-0.000328,-44.369999,-2.87,12.18,3a
2019-07-15_175011:560,-0.49111899999999997,-0.011169,-0.06149299999999999,-0.003237,0.002696,-0.00045099999999999996,-44.369999,-2.87,12.18,3a
2019-07-15_175011:580,-0.49365200000000004,-0.010651,-0.062012,-0.0033280000000000002,0.002788,-0.0008470000000000001,-44.369999,-2.87,12.18,3a
2019-07-15_175011:600,-0.494171,-0.010651,-0.062012,-0.003054,0.00349,-0.001183,-44.369999,-1.75,12.56,3a
2019-07-15_175011:620,-0.49316400000000005,-0.010162000000000001,-0.063538,-0.0029010000000000004,0.003886,-0.001366,-44.369999,-1.75,12.56,3a
2019-07-15_175011:640,-0.49111899999999997,-0.009644,-0.06253099999999999,-0.0028399999999999996,0.0042829999999999995,-0.001397,-44.369999,-1.37,12.18,3a
2019-07-15_175011:660,-0.490601,-0.009125,-0.059479,-0.002443,0.004161,-0.001458,-44.369999,-1.37,12.18,3a
2019-07-15_175011:680,-0.492126,-0.008636,-0.05996699999999999,-0.002199,0.004497,-0.0013050000000000002,-44.060001,-1.75,13.75,3a
2019-07-15_175011:700,-0.489075,-0.008636,-0.05996699999999999,-0.0018030000000000001,0.004497,-0.0011220000000000002,-44.060001,-1.75,13.75,3a
2019-07-15_175011:720,-0.488068,-0.005065999999999999,-0.057953,-0.00165,0.004222,-0.0010609999999999999,-44.060001,-1.75,13.75,3a
2019-07-15_175011:740,-0.48754899999999995,-0.006072999999999999,-0.057434000000000006,-0.001864,0.0041,-0.000664,-45.5,-2.56,13.37,3a
2019-07-15_175011:760,-0.48654200000000003,-0.004059,-0.055389,-0.0022600000000000003,0.0031850000000000003,-0.000328,-45.5,-2.56,13.37,3a
2019-07-15_175011:780,-0.48858599999999996,-0.004547,-0.058441,-0.002657,0.002361,-0.00011499999999999999,-44.060001,-1.75,12.18,3a
2019-07-15_175011:800,-0.490112,-0.004059,-0.059479,-0.002932,0.0016589999999999999,6.8e-05,-44.060001,-1.75,12.18,3a
2019-07-15_175011:820,-0.48754899999999995,-0.0055850000000000006,-0.058441,-0.0033280000000000002,0.001598,6.8e-05,-44.060001,-1.75,12.18,3a
2019-07-15_175011:840,-0.489594,-0.0055850000000000006,-0.05996699999999999,-0.003664,0.0012619999999999999,0.000404,-43.369999,-2.18,13.0,3a
2019-07-15_175011:860,-0.490112,-0.006072999999999999,-0.057953,-0.003878,0.001353,0.000465,-43.369999,-2.18,13.0,3a
2019-07-15_175011:880,-0.490112,-0.008118,-0.05996699999999999,-0.003817,0.000865,0.000496,-44.369999,-2.18,13.0,3a
2019-07-15_175011:900,-0.490601,-0.009125,-0.061005,-0.0034509999999999996,0.001018,0.000343,-44.369999,-2.18,13.0,3a
2019-07-15_175011:920,-0.490601,-0.009644,-0.062012,-0.0031149999999999997,0.001201,0.000496,-44.369999,-2.18,13.0,3a
2019-07-15_175011:940,-0.491638,-0.009125,-0.062012,-0.0028399999999999996,0.0010789999999999999,0.000129,-44.75,-3.25,12.18,3a
2019-07-15_175011:960,-0.49468999999999996,-0.008636,-0.061005,-0.0028399999999999996,0.001292,0.00028199999999999997,-44.75,-3.25,12.18,3a
2019-07-15_175011:980,-0.49316400000000005,-0.011169,-0.06253099999999999,-0.0025960000000000002,0.00172,0.000129,-44.75,-3.25,12.18,3a
2019-07-15_175012:000,-0.492645,-0.010651,-0.06253099999999999,-0.002199,0.002116,-0.000725,-44.369999,-2.56,11.75,3a
2019-07-15_175012:020,-0.49316400000000005,-0.009644,-0.061005,-0.001772,0.002391,-0.001183,-44.369999,-2.56,11.75,3a
2019-07-15_175012:040,-0.492126,-0.008118,-0.060486,-0.000734,0.003093,-0.00216,-44.060001,-2.18,13.75,3a
2019-07-15_175012:060,-0.491638,-0.008636,-0.057434000000000006,-0.000338,0.002971,-0.002587,-44.060001,-2.18,13.75,3a
2019-07-15_175012:080,-0.489075,-0.006592,-0.057953,0.000791,0.003124,-0.003228,-44.060001,-2.18,13.75,3a
2019-07-15_175012:100,-0.48858599999999996,-0.0030210000000000002,-0.054901,0.001005,0.003246,-0.0028309999999999997,-43.68,-2.87,12.56,3a
2019-07-15_175012:120,-0.49517799999999995,-0.0025329999999999997,-0.05438200000000001,0.000669,0.0034289999999999998,-0.0013050000000000002,-43.68,-2.87,12.56,3a
2019-07-15_175012:140,-0.490601,0.0,-0.055389,0.000273,0.00349,-0.000328,-43.369999,-2.18,13.0,3a
2019-07-15_175012:160,-0.491638,0.000488,-0.05438200000000001,-0.000521,0.003703,-0.001702,-43.369999,-2.18,13.0,3a
2019-07-15_175012:180,-0.488068,0.002014,-0.055389,-0.001314,0.00352,-0.002037,-43.369999,-2.18,13.0,3a
2019-07-15_175012:200,-0.48858599999999996,0.002014,-0.056427,-0.0021079999999999996,0.002849,-0.001,-45.18,-2.87,13.0,3a
2019-07-15_175012:220,-0.48553500000000005,0.001007,-0.054901,-0.002718,0.0023,-0.00045099999999999996,-45.18,-2.87,13.0,3a
2019-07-15_175012:240,-0.47995,0.0,-0.056915,-0.0032979999999999997,0.0010789999999999999,0.000709,-44.060001,-3.25,13.37,3a
2019-07-15_175012:260,-0.47180200000000005,-0.0025329999999999997,-0.057953,-0.0036340000000000005,-0.001698,0.000831,-44.060001,-3.25,13.37,3a
2019-07-15_175012:280,-0.484497,-0.0055850000000000006,-0.055389,-0.003512,-0.004445,-0.000725,-44.060001,-3.25,13.37,3a
2019-07-15_175012:300,-0.5119630000000001,-0.0055850000000000006,-0.050323,-0.003512,-0.004414,0.000129,-44.75,-4.37,13.0,3a
2019-07-15_175012:320,-0.531799,-0.0055850000000000006,-0.054901,-0.0036340000000000005,0.001964,0.00132,-44.75,-4.37,13.0,3a
2019-07-15_175012:340,-0.526215,-0.006072999999999999,-0.06149299999999999,-0.003817,0.009470999999999999,0.0008619999999999999,-44.060001,-3.68,13.0,3a
2019-07-15_175012:360,-0.504333,-0.001495,-0.065582,-0.00403,0.013255000000000001,0.00132,-44.060001,-3.68,13.0,3a
2019-07-15_175012:380,-0.48754899999999995,-0.004059,-0.064545,-0.004336,0.01353,0.0021739999999999997,-44.060001,-3.68,13.0,3a
2019-07-15_175012:400,-0.48043800000000003,-0.006592,-0.057953,-0.004397,0.012004,0.000984,-44.060001,-2.87,13.75,3a
2019-07-15_175012:420,-0.48095699999999997,-0.0055850000000000006,-0.053863999999999995,-0.004213000000000001,0.009868,0.000129,-44.060001,-2.87,13.75,3a
2019-07-15_175012:440,-0.47995,-0.005065999999999999,-0.047791,-0.003939,0.007304000000000001,0.000587,-44.5,-3.25,14.06,3a
2019-07-15_175012:460,-0.48043800000000003,-0.0035399999999999997,-0.043701,-0.003878,0.005443,0.000404,-44.5,-3.25,14.06,3a
2019-07-15_175012:480,-0.48349,-0.0030210000000000002,-0.044739,-0.004091,0.003917,7.000000000000001e-06,-44.5,-3.25,14.06,3a
2019-07-15_175012:500,-0.48553500000000005,-0.005065999999999999,-0.043213,-0.0036950000000000004,0.002696,-5.4000000000000005e-05,-43.68,-2.56,14.56,3a
2019-07-15_175012:520,-0.490601,-0.0035399999999999997,-0.041687,-0.003573,0.002116,-0.00045099999999999996,-43.68,-2.56,14.56,3a
2019-07-15_175012:540,-0.494171,-0.004547,-0.045226999999999996,-0.0034509999999999996,0.001964,-0.000512,-44.5,-3.25,14.87,3a
2019-07-15_175012:560,-0.49111899999999997,-0.0035399999999999997,-0.045226999999999996,-0.003176,0.002116,-0.000634,-44.5,-3.25,14.87,3a
2019-07-15_175012:580,-0.490601,-0.001495,-0.046752999999999996,-0.002932,0.0016589999999999999,-0.000664,-44.5,-3.25,14.87,3a
2019-07-15_175012:600,-0.490112,0.0,-0.046752999999999996,-0.002932,0.001201,-0.000664,-44.5,-3.25,13.75,3a
2019-07-15_175012:620,-0.492645,0.0,-0.047791,-0.002993,0.0009570000000000001,-0.000389,-44.5,-3.25,13.75,3a
2019-07-15_175012:640,-0.49468999999999996,0.0,-0.047791,-0.0031149999999999997,0.00114,-0.000267,-43.68,-3.68,13.75,3a
2019-07-15_175012:660,-0.49517799999999995,-0.000488,-0.046265,-0.0034509999999999996,0.0014759999999999999,6.8e-05,-43.68,-3.68,13.75,3a
2019-07-15_175012:680,-0.495697,-0.000488,-0.046752999999999996,-0.00339,0.0016589999999999999,0.00028199999999999997,-43.68,-3.68,13.75,3a
2019-07-15_175012:700,-0.49517799999999995,-0.000488,-0.045226999999999996,-0.003237,0.002116,0.000343,-43.369999,-2.87,14.06,3a
2019-07-15_175012:720,-0.49316400000000005,-0.000488,-0.045226999999999996,-0.003176,0.002635,0.000465,-43.369999,-2.87,14.06,3a
2019-07-15_175012:740,-0.49316400000000005,-0.000488,-0.044739,-0.003054,0.002635,0.000496,-43.68,-3.25,14.56,3a
2019-07-15_175012:760,-0.491638,-0.000488,-0.043213,-0.003054,0.002971,0.000465,-43.68,-3.25,14.56,3a
2019-07-15_175012:780,-0.49111899999999997,0.0,-0.043213,-0.003237,0.0024519999999999998,0.00028199999999999997,-43.68,-3.25,14.56,3a
2019-07-15_175012:800,-0.489075,-0.000488,-0.044739,-0.0032979999999999997,0.0023,6.8e-05,-44.5,-3.68,14.06,3a
2019-07-15_175012:820,-0.489075,-0.000488,-0.045226999999999996,-0.0033280000000000002,0.00172,-0.000267,-44.5,-3.68,14.06,3a
2019-07-15_175012:840,-0.490601,-0.002014,-0.045226999999999996,-0.00339,0.001353,-0.000176,-43.369999,-3.25,14.06,3a
2019-07-15_175012:860,-0.490601,-0.001007,-0.043701,-0.003237,0.000682,-0.000389,-43.369999,-3.25,14.06,3a
2019-07-15_175012:880,-0.49517799999999995,-0.000488,-0.045226999999999996,-0.003054,0.000682,-0.000267,-43.369999,-3.25,14.06,3a
2019-07-15_175012:900,-0.495697,0.0,-0.045745999999999995,-0.003054,0.0010789999999999999,-5.4000000000000005e-05,-44.060001,-3.68,13.75,3a
2019-07-15_175012:920,-0.49468999999999996,0.000488,-0.044739,-0.002993,0.0016589999999999999,6.8e-05,-44.060001,-3.68,13.75,3a
2019-07-15_175012:940,-0.492645,0.001495,-0.044219999999999995,-0.003176,0.001964,0.000221,-43.68,-3.68,14.06,3a
2019-07-15_175012:960,-0.48858599999999996,0.000488,-0.043213,-0.003176,0.001842,0.000587,-43.68,-3.68,14.06,3a
2019-07-15_175012:980,-0.490112,0.000488,-0.044739,-0.0033280000000000002,0.0014759999999999999,0.001045,-43.68,-3.68,14.06,3a
2019-07-15_175013:000,-0.489594,0.000488,-0.043701,-0.003573,0.0009570000000000001,0.000984,-44.060001,-2.56,13.37,3a
2019-07-15_175013:020,-0.49365200000000004,0.0025329999999999997,-0.042175,-0.003939,0.000621,0.001655,-44.060001,-2.56,13.37,3a
2019-07-15_175013:040,-0.495697,-0.000488,-0.044739,-0.004213000000000001,0.000682,0.00309,-43.0,-2.87,13.75,3a
2019-07-15_175013:060,-0.49111899999999997,-0.0025329999999999997,-0.045226999999999996,-0.00461,0.0009570000000000001,0.002571,-43.0,-2.87,13.75,3a
2019-07-15_175013:080,-0.49316400000000005,-0.0030210000000000002,-0.045745999999999995,-0.004824,0.0010789999999999999,0.001381,-43.0,-2.87,13.75,3a
2019-07-15_175013:100,-0.495697,-0.0030210000000000002,-0.047272,-0.004793,0.001018,0.001258,-43.68,-3.68,15.25,3a
2019-07-15_175013:120,-0.496704,-0.005065999999999999,-0.047272,-0.004671,0.0012619999999999999,0.002052,-43.68,-3.68,15.25,3a
2019-07-15_175013:140,-0.494171,-0.005065999999999999,-0.047272,-0.004336,0.001994,0.001716,-43.68,-2.87,13.75,3a
2019-07-15_175013:160,-0.490112,-0.004059,-0.045745999999999995,-0.004091,0.002574,0.001503,-43.68,-2.87,13.75,3a
2019-07-15_175013:180,-0.489075,-0.004547,-0.047272,-0.004,0.002239,0.001625,-43.68,-2.87,13.75,3a
2019-07-15_175013:200,-0.489075,-0.001495,-0.049316000000000006,-0.004091,0.0014759999999999999,0.001777,-43.369999,-2.87,14.56,3a
2019-07-15_175013:220,-0.49316400000000005,-0.000488,-0.048279,-0.004397,0.001201,0.0021739999999999997,-43.369999,-2.87,14.56,3a
2019-07-15_175013:240,-0.49365200000000004,0.000488,-0.049316000000000006,-0.004793,0.000865,0.002571,-43.369999,-2.87,13.75,3a
2019-07-15_175013:260,-0.49517799999999995,-0.000488,-0.047272,-0.005221,0.001018,0.002784,-43.369999,-2.87,13.75,3a
2019-07-15_175013:280,-0.49468999999999996,-0.0025329999999999997,-0.050323,-0.005526,0.001292,0.00309,-43.369999,-2.87,13.75,3a
2019-07-15_175013:300,-0.49365200000000004,-0.0025329999999999997,-0.049316000000000006,-0.005861,0.001537,0.004158,-44.5,-3.25,14.56,3a
2019-07-15_175013:320,-0.494171,-0.004059,-0.047791,-0.006014,0.001628,0.0043100000000000005,-44.5,-3.25,14.56,3a
2019-07-15_175013:340,-0.49365200000000004,-0.004547,-0.046752999999999996,-0.006136,0.0016589999999999999,0.004615,-43.369999,-1.75,14.56,3a
2019-07-15_175013:360,-0.49365200000000004,-0.0035399999999999997,-0.046752999999999996,-0.006136,0.002177,0.005287,-43.369999,-1.75,14.56,3a
2019-07-15_175013:380,-0.49722299999999997,-0.0025329999999999997,-0.048279,-0.006411,0.0024519999999999998,0.006141,-43.369999,-1.75,14.56,3a
2019-07-15_175013:400,-0.496704,-0.004059,-0.048798,-0.006745999999999999,0.002971,0.007606,-43.68,-2.56,13.75,3a
2019-07-15_175013:420,-0.49468999999999996,-0.007599,-0.045745999999999995,-0.007143000000000001,0.003368,0.0084,-43.68,-2.56,13.75,3a
2019-07-15_175013:440,-0.49316400000000005,-0.010651,-0.047272,-0.007479,0.003703,0.008674,-43.68,-2.56,14.06,3a
2019-07-15_175013:460,-0.495697,-0.013702,-0.043701,-0.007387,0.004222,0.009009999999999999,-43.68,-2.56,14.06,3a
2019-07-15_175013:480,-0.495697,-0.015228,-0.042175,-0.007265000000000001,0.004771,0.008491,-43.68,-2.56,14.06,3a
2019-07-15_175013:500,-0.49316400000000005,-0.017792,-0.041687,-0.007051999999999999,0.005443,0.007484,-44.060001,-1.37,14.56,3a
2019-07-15_175013:520,-0.492645,-0.020844,-0.040649,-0.006594,0.005779,0.0058969999999999995,-44.060001,-1.37,14.56,3a
2019-07-15_175013:540,-0.490601,-0.023895,-0.039124,-0.006319,0.006023,0.004615,-44.060001,-1.37,13.75,3a
2019-07-15_175013:560,-0.490112,-0.024384,-0.040161,-0.005953,0.005961999999999999,0.003151,-44.060001,-1.37,13.75,3a
2019-07-15_175013:580,-0.488068,-0.024902,-0.039124,-0.0051600000000000005,0.005748,0.001777,-44.060001,-1.37,13.75,3a
2019-07-15_175013:600,-0.489594,-0.024384,-0.039642000000000004,-0.00461,0.004833,0.001106,-43.68,-1.37,15.25,3a
2019-07-15_175013:620,-0.485016,-0.024384,-0.036072,-0.003939,0.0042829999999999995,0.000465,-43.68,-1.37,15.25,3a
2019-07-15_175013:640,-0.489075,-0.023375999999999997,-0.039642000000000004,-0.0032979999999999997,0.0029100000000000003,0.000221,-43.68,-1.37,14.87,3a
2019-07-15_175013:660,-0.489075,-0.022369,-0.036591000000000005,-0.0028399999999999996,0.002177,0.000129,-43.68,-1.37,14.87,3a
2019-07-15_175013:680,-0.491638,-0.020844,-0.036591000000000005,-0.0025960000000000002,0.0014759999999999999,0.00016,-43.68,-1.37,14.87,3a
2019-07-15_175013:700,-0.494171,-0.020325,-0.038635,-0.002657,0.001598,-0.00023700000000000001,-44.060001,-1.75,15.25,3a
2019-07-15_175013:720,-0.494171,-0.020844,-0.038116000000000004,-0.002779,0.0019030000000000002,-0.0008470000000000001,-44.060001,-1.75,15.25,3a
2019-07-15_175013:740,-0.49365200000000004,-0.019318000000000002,-0.039642000000000004,-0.002657,0.0023,-0.001183,-43.0,-1.37,14.06,3a
2019-07-15_175013:760,-0.49316400000000005,-0.021851,-0.039642000000000004,-0.002779,0.002513,-0.001641,-43.0,-1.37,14.06,3a
2019-07-15_175013:780,-0.494171,-0.020844,-0.039642000000000004,-0.002535,0.002361,-0.002098,-43.0,-1.37,14.06,3a
2019-07-15_175013:800,-0.492126,-0.020844,-0.038116000000000004,-0.0020469999999999998,0.002513,-0.002434,-43.68,-1.75,15.75,3a
2019-07-15_175013:820,-0.49468999999999996,-0.01828,-0.038116000000000004,-0.001925,0.002696,-0.0028309999999999997,-43.68,-1.75,15.75,3a
2019-07-15_175013:840,-0.492645,-0.018799,-0.036591000000000005,-0.001314,0.003124,-0.003106,-43.68,-2.18,14.06,3a
2019-07-15_175013:860,-0.489075,-0.016266,-0.035065,-0.001131,0.0029100000000000003,-0.0033799999999999998,-43.68,-2.18,14.06,3a
2019-07-15_175013:880,-0.48858599999999996,-0.015228,-0.036072,-0.000857,0.002391,-0.003319,-43.68,-2.18,14.06,3a
2019-07-15_175013:900,-0.488068,-0.012177,-0.035065,-0.000734,0.0017809999999999998,-0.003167,-43.369999,-1.75,14.06,3a
2019-07-15_175013:920,-0.48754899999999995,-0.010651,-0.034058,-0.000857,0.0012619999999999999,-0.002983,-43.369999,-1.75,14.06,3a
2019-07-15_175013:940,-0.494171,-0.009125,-0.034546,-0.001253,0.000621,-0.001702,-43.369999,-1.75,14.87,3a
2019-07-15_175013:960,-0.489594,-0.008636,-0.034058,-0.00165,0.000346,-0.000634,-43.369999,-1.75,14.87,3a
2019-07-15_175013:980,-0.492126,-0.010162000000000001,-0.038116000000000004,-0.0021079999999999996,0.000133,-0.0009689999999999999,-43.369999,-1.75,14.87,3a
2019-07-15_175014:000,-0.492126,-0.007111,-0.038635,-0.0025050000000000003,-0.000325,-0.001397,-44.060001,-1.75,15.25,3a
2019-07-15_175014:020,-0.49316400000000005,-0.009125,-0.038635,-0.002932,-0.000508,-0.000786,-44.060001,-1.75,15.25,3a
2019-07-15_175014:040,-0.49365200000000004,-0.010162000000000001,-0.040649,-0.00339,-0.000386,-0.000389,-43.369999,-2.18,15.25,3a
2019-07-15_175014:060,-0.49316400000000005,-0.010162000000000001,-0.040161,-0.003573,-0.000172,-0.000573,-43.369999,-2.18,15.25,3a
2019-07-15_175014:080,-0.49316400000000005,-0.009644,-0.042175,-0.003664,-0.000172,-0.000573,-43.369999,-2.18,15.25,3a
2019-07-15_175014:100,-0.492126,-0.010162000000000001,-0.041687,-0.003817,-0.000172,-0.000634,-43.68,-2.56,14.56,3a
2019-07-15_175014:120,-0.49365200000000004,-0.010651,-0.042694,-0.004152,-5e-05,-0.000267,-43.68,-2.56,14.56,3a
2019-07-15_175014:140,-0.49316400000000005,-0.010162000000000001,-0.043213,-0.004213000000000001,-0.000172,-0.000176,-43.369999,-1.37,15.25,3a
2019-07-15_175014:160,-0.491638,-0.010651,-0.041687,-0.004336,-0.000233,-0.00045099999999999996,-43.369999,-1.37,15.25,3a
2019-07-15_175014:180,-0.494171,-0.010651,-0.044219999999999995,-0.004336,-0.000264,-0.0008470000000000001,-43.369999,-1.37,15.25,3a
2019-07-15_175014:200,-0.492645,-0.009644,-0.043213,-0.004152,-0.00011100000000000001,-0.000573,-44.060001,-1.75,14.56,3a
2019-07-15_175014:220,-0.49365200000000004,-0.010162000000000001,-0.044219999999999995,-0.004,0.000499,-0.00023700000000000001,-44.060001,-1.75,14.56,3a
2019-07-15_175014:240,-0.49517799999999995,-0.008636,-0.044739,-0.004213000000000001,0.000468,-0.000725,-44.5,-2.18,14.06,3a
2019-07-15_175014:260,-0.49365200000000004,-0.008636,-0.044219999999999995,-0.003878,0.0008039999999999999,-0.0008470000000000001,-44.5,-2.18,14.06,3a
2019-07-15_175014:280,-0.49316400000000005,-0.008118,-0.043213,-0.00403,0.001018,-0.000725,-44.5,-2.18,14.06,3a
2019-07-15_175014:300,-0.49468999999999996,-0.007111,-0.043701,-0.00403,0.0012619999999999999,-0.000908,-44.060001,-2.18,14.56,3a
2019-07-15_175014:320,-0.492645,-0.007111,-0.044739,-0.003878,0.001415,-0.000908,-44.060001,-2.18,14.56,3a
2019-07-15_175014:340,-0.492126,-0.007111,-0.045226999999999996,-0.003878,0.0012619999999999999,-0.000725,-44.5,-2.87,15.25,3a
2019-07-15_175014:360,-0.49365200000000004,-0.007599,-0.044739,-0.004,0.001201,-0.000512,-44.5,-2.87,15.25,3a
2019-07-15_175014:380,-0.49468999999999996,-0.006592,-0.043701,-0.003878,0.001353,-0.000389,-44.5,-2.87,15.25,3a
2019-07-15_175014:400,-0.49365200000000004,-0.007599,-0.043701,-0.003573,0.001964,-0.000267,-44.060001,-2.56,14.87,3a
2019-07-15_175014:420,-0.49316400000000005,-0.007111,-0.043213,-0.0032979999999999997,0.001994,-0.00011499999999999999,-44.060001,-2.56,14.87,3a
2019-07-15_175014:440,-0.491638,-0.006592,-0.043213,-0.002932,0.001628,6.8e-05,-43.68,-1.75,13.75,3a
2019-07-15_175014:460,-0.491638,-0.006072999999999999,-0.040649,-0.002932,0.001353,0.000343,-43.68,-1.75,13.75,3a
2019-07-15_175014:480,-0.491638,-0.0055850000000000006,-0.042694,-0.002993,0.001353,0.000587,-43.68,-1.75,13.75,3a
2019-07-15_175014:500,-0.49365200000000004,-0.006072999999999999,-0.041687,-0.0029010000000000004,0.0012619999999999999,0.000831,-43.68,-1.75,13.75,3a
2019-07-15_175014:520,-0.49468999999999996,-0.0055850000000000006,-0.044739,-0.002932,0.001415,0.000923,-43.68,-1.75,13.75,3a
2019-07-15_175014:540,-0.49468999999999996,-0.006592,-0.043701,-0.002932,0.001353,0.000984,-44.060001,-2.87,14.06,3a
2019-07-15_175014:560,-0.49468999999999996,-0.007111,-0.044219999999999995,-0.003054,0.0016589999999999999,0.001228,-44.060001,-2.87,14.06,3a
2019-07-15_175014:580,-0.496704,-0.007111,-0.044219999999999995,-0.003054,0.002116,0.001442,-44.060001,-2.87,14.06,3a
2019-07-15_175014:600,-0.49468999999999996,-0.007111,-0.043213,-0.0031149999999999997,0.002513,0.001503,-43.68,-2.87,14.87,3a
2019-07-15_175014:620,-0.496216,-0.007111,-0.042694,-0.002932,0.0029100000000000003,0.001655,-43.68,-2.87,14.87,3a
2019-07-15_175014:640,-0.49316400000000005,-0.007599,-0.043701,-0.002993,0.003246,0.0018989999999999999,-44.5,-2.87,14.06,3a
2019-07-15_175014:660,-0.49365200000000004,-0.009644,-0.042694,-0.002993,0.00349,0.0022960000000000003,-44.5,-2.87,14.06,3a
2019-07-15_175014:680,-0.49365200000000004,-0.009644,-0.043701,-0.0031149999999999997,0.003703,0.002113,-44.5,-2.87,14.06,3a
2019-07-15_175014:700,-0.492126,-0.010651,-0.042175,-0.0033280000000000002,0.003917,0.001838,-43.0,-2.56,14.87,3a
2019-07-15_175014:720,-0.49111899999999997,-0.008636,-0.042694,-0.0034509999999999996,0.003978,0.001777,-43.0,-2.56,14.87,3a
2019-07-15_175014:740,-0.490112,-0.010651,-0.041687,-0.003573,0.003886,0.001625,-43.68,-3.25,14.56,3a
2019-07-15_175014:760,-0.489075,-0.010162000000000001,-0.041687,-0.0036950000000000004,0.003764,0.00132,-43.68,-3.25,14.56,3a
2019-07-15_175014:780,-0.485016,-0.011169,-0.041687,-0.003939,0.002849,0.001258,-43.68,-3.25,14.56,3a
2019-07-15_175014:800,-0.48706099999999997,-0.010651,-0.040649,-0.004091,0.001628,0.001258,-43.0,-1.37,14.87,3a
2019-07-15_175014:820,-0.490112,-0.010651,-0.040161,-0.004091,0.000682,0.001106,-43.0,-1.37,14.87,3a
2019-07-15_175014:840,-0.49316400000000005,-0.010162000000000001,-0.040161,-0.004336,-0.000233,0.0007700000000000001,-43.369999,-2.56,14.56,3a
2019-07-15_175014:860,-0.502319,-0.010162000000000001,-0.039124,-0.004488000000000001,0.000499,0.00132,-43.369999,-2.56,14.56,3a
2019-07-15_175014:880,-0.49468999999999996,-0.011687999999999999,-0.040649,-0.005007,0.001018,0.00196,-43.369999,-2.56,14.56,3a
2019-07-15_175014:900,-0.494171,-0.013702,-0.044739,-0.005129,0.001628,0.001228,-44.5,-2.18,14.06,3a
2019-07-15_175014:920,-0.489075,-0.012177,-0.042175,-0.005068,0.002055,-0.00045099999999999996,-44.5,-2.18,14.06,3a
2019-07-15_175014:940,-0.490601,-0.011169,-0.042175,-0.004671,0.001018,0.000526,-44.060001,-1.75,14.06,3a
2019-07-15_175014:960,-0.49111899999999997,-0.013213999999999998,-0.042694,-0.004427,0.000621,0.000709,-44.060001,-1.75,14.06,3a
2019-07-15_175014:980,-0.495697,-0.011687999999999999,-0.042694,-0.004,0.000468,0.000496,-44.060001,-1.75,14.06,3a
2019-07-15_175015:000,-0.49517799999999995,-0.011687999999999999,-0.042175,-0.0037560000000000002,0.0010789999999999999,0.00028199999999999997,-44.75,-2.18,13.75,3a
2019-07-15_175015:020,-0.49468999999999996,-0.011687999999999999,-0.041168,-0.003817,0.0014759999999999999,0.000496,-44.75,-2.18,13.75,3a
2019-07-15_175015:040,-0.496704,-0.010162000000000001,-0.042694,-0.004152,0.001842,0.000709,-42.560001,-2.87,13.75,3a
2019-07-15_175015:060,-0.494171,-0.011169,-0.039642000000000004,-0.004213000000000001,0.002116,0.0007700000000000001,-42.560001,-2.87,13.75,3a
2019-07-15_175015:080,-0.492126,-0.011169,-0.042175,-0.004336,0.001964,0.000404,-42.560001,-2.87,13.75,3a
2019-07-15_175015:100,-0.492126,-0.009644,-0.040161,-0.00461,0.00172,6.8e-05,-43.369999,-2.18,14.06,3a
2019-07-15_175015:120,-0.49111899999999997,-0.010651,-0.041687,-0.0048850000000000005,0.001537,0.000648,-43.369999,-2.18,14.06,3a
2019-07-15_175015:140,-0.49316400000000005,-0.012177,-0.039642000000000004,-0.004946,0.0017809999999999998,0.000587,-44.75,-2.18,14.87,3a
2019-07-15_175015:160,-0.491638,-0.012177,-0.039642000000000004,-0.004793,0.002116,-0.000328,-44.75,-2.18,14.87,3a
2019-07-15_175015:180,-0.49365200000000004,-0.011687999999999999,-0.042175,-0.004549,0.0016589999999999999,0.00028199999999999997,-44.75,-2.18,14.87,3a
2019-07-15_175015:200,-0.49365200000000004,-0.013702,-0.042694,-0.004336,0.0017809999999999998,0.000709,-43.0,-2.56,14.56,3a
2019-07-15_175015:220,-0.491638,-0.011169,-0.041168,-0.004091,0.0016589999999999999,0.000404,-43.0,-2.56,14.56,3a
2019-07-15_175015:240,-0.492645,-0.010162000000000001,-0.041168,-0.003817,0.001628,0.00016,-43.369999,-1.75,14.56,3a
2019-07-15_175015:260,-0.49365200000000004,-0.010651,-0.040649,-0.0037560000000000002,0.001353,0.000129,-43.369999,-1.75,14.56,3a
2019-07-15_175015:280,-0.49365200000000004,-0.009644,-0.041168,-0.003817,0.001628,-5.4000000000000005e-05,-43.369999,-1.75,14.56,3a
2019-07-15_175015:300,-0.49468999999999996,-0.010162000000000001,-0.042175,-0.003573,0.0019030000000000002,-5.4000000000000005e-05,-43.0,-1.75,15.25,3a
2019-07-15_175015:320,-0.492645,-0.009644,-0.043213,-0.003512,0.0019030000000000002,-0.000267,-43.0,-1.75,15.25,3a
2019-07-15_175015:340,-0.49316400000000005,-0.009125,-0.042175,-0.003512,0.001842,-0.00023700000000000001,-43.0,-2.56,15.25,3a
2019-07-15_175015:360,-0.49316400000000005,-0.009125,-0.040161,-0.003237,0.0019030000000000002,-0.00011499999999999999,-43.0,-2.56,15.25,3a
2019-07-15_175015:380,-0.49365200000000004,-0.009125,-0.040161,-0.003054,0.002116,-5.4000000000000005e-05,-43.0,-2.56,15.25,3a
2019-07-15_175015:400,-0.492126,-0.008118,-0.041168,-0.0029010000000000004,0.001964,0.00016,-43.68,-2.56,14.06,3a
2019-07-15_175015:420,-0.49316400000000005,-0.008118,-0.040649,-0.002932,0.0017809999999999998,0.000343,-43.68,-2.56,14.06,3a
2019-07-15_175015:440,-0.491638,-0.008636,-0.041168,-0.0028399999999999996,0.0017809999999999998,0.00028199999999999997,-44.75,-1.75,14.06,3a
2019-07-15_175015:460,-0.49365200000000004,-0.008118,-0.041687,-0.002779,0.00172,0.000129,-44.75,-1.75,14.06,3a
2019-07-15_175015:480,-0.494171,-0.008636,-0.040161,-0.002779,0.0017809999999999998,0.000221,-44.75,-1.75,14.06,3a
2019-07-15_175015:500,-0.49365200000000004,-0.007111,-0.040161,-0.0028399999999999996,0.002116,0.000343,-42.560001,-2.18,15.75,3a
2019-07-15_175015:520,-0.49468999999999996,-0.008636,-0.039642000000000004,-0.002993,0.002116,0.000465,-42.560001,-2.18,15.75,3a
2019-07-15_175015:540,-0.494171,-0.007599,-0.040161,-0.002993,0.002574,0.000404,-43.369999,-1.37,14.56,3a
2019-07-15_175015:560,-0.49468999999999996,-0.007111,-0.038116000000000004,-0.003237,0.002788,0.000343,-43.369999,-1.37,14.56,3a
2019-07-15_175015:580,-0.49365200000000004,-0.008118,-0.038635,-0.0032979999999999997,0.002849,0.00028199999999999997,-43.369999,-1.37,14.56,3a
2019-07-15_175015:600,-0.49111899999999997,-0.007599,-0.038116000000000004,-0.003237,0.002849,0.000496,-44.060001,-2.56,14.87,3a
2019-07-15_175015:620,-0.492126,-0.006072999999999999,-0.038116000000000004,-0.003237,0.002574,0.000648,-44.060001,-2.56,14.87,3a
2019-07-15_175015:640,-0.49316400000000005,-0.008118,-0.038116000000000004,-0.0034509999999999996,0.002361,0.0008619999999999999,-44.060001,-2.87,14.56,3a
2019-07-15_175015:660,-0.49468999999999996,-0.007599,-0.036072,-0.0034509999999999996,0.002635,0.0008619999999999999,-44.060001,-2.87,14.56,3a
2019-07-15_175015:680,-0.49365200000000004,-0.007111,-0.036591000000000005,-0.003512,0.002788,0.000984,-44.060001,-2.87,14.56,3a
2019-07-15_175015:700,-0.492645,-0.007599,-0.036072,-0.003817,0.003032,0.00132,-44.060001,-2.87,14.06,3a
2019-07-15_175015:720,-0.49111899999999997,-0.008636,-0.036591000000000005,-0.0037560000000000002,0.003093,0.00132,-44.060001,-2.87,14.06,3a
2019-07-15_175015:740,-0.492126,-0.009125,-0.036591000000000005,-0.003878,0.002849,0.00132,-42.560001,-2.56,14.87,3a
2019-07-15_175015:760,-0.496216,-0.010162000000000001,-0.03302,-0.00403,0.0029100000000000003,0.00251,-42.560001,-2.56,14.87,3a
2019-07-15_175015:780,-0.49316400000000005,-0.011687999999999999,-0.035065,-0.004152,0.003093,0.002784,-42.560001,-2.56,14.87,3a
2019-07-15_175015:800,-0.490601,-0.010651,-0.037108999999999996,-0.004336,0.003246,0.001716,-43.369999,-1.37,13.75,3a
2019-07-15_175015:820,-0.492126,-0.011687999999999999,-0.037108999999999996,-0.004549,0.0029100000000000003,0.000526,-43.369999,-1.37,13.75,3a
2019-07-15_175015:840,-0.492126,-0.010162000000000001,-0.036072,-0.004275,0.0024519999999999998,0.000923,-44.060001,-2.56,13.75,3a
2019-07-15_175015:860,-0.492126,-0.012695,-0.035065,-0.004397,0.002513,0.001442,-44.060001,-2.56,13.75,3a
2019-07-15_175015:880,-0.492126,-0.013213999999999998,-0.036072,-0.004152,0.002513,0.000984,-44.060001,-2.56,13.75,3a
2019-07-15_175015:900,-0.490112,-0.013213999999999998,-0.036072,-0.0037560000000000002,0.002635,0.001167,-43.68,-1.37,15.75,3a
2019-07-15_175015:920,-0.491638,-0.014221000000000001,-0.035065,-0.00339,0.002177,0.000984,-43.68,-1.37,15.75,3a
2019-07-15_175015:940,-0.490601,-0.011169,-0.036072,-0.0034509999999999996,0.0016589999999999999,0.000648,-43.68,-1.75,14.87,3a
2019-07-15_175015:960,-0.491638,-0.013213999999999998,-0.036072,-0.003176,0.001201,0.000923,-43.68,-1.75,14.87,3a
2019-07-15_175015:980,-0.490112,-0.011169,-0.037108999999999996,-0.003237,0.000865,0.000587,-43.68,-1.75,14.87,3a
2019-07-15_175016:000,-0.492126,-0.011687999999999999,-0.035065,-0.0032979999999999997,0.000621,0.00016,-43.369999,-2.18,14.87,3a
2019-07-15_175016:020,-0.49316400000000005,-0.009644,-0.037598,-0.003237,0.000346,0.000404,-43.369999,-2.18,14.87,3a
2019-07-15_175016:040,-0.49365200000000004,-0.011687999999999999,-0.038635,-0.003512,0.000621,0.000831,-43.369999,-2.56,14.06,3a
2019-07-15_175016:060,-0.492126,-0.011687999999999999,-0.037108999999999996,-0.0036950000000000004,0.000682,0.000221,-43.369999,-2.56,14.06,3a
2019-07-15_175016:080,-0.492645,-0.011687999999999999,-0.037598,-0.003817,0.000865,-0.00023700000000000001,-43.369999,-2.56,14.06,3a
2019-07-15_175016:100,-0.492645,-0.010651,-0.039124,-0.003878,0.000346,-0.000328,-43.369999,-2.18,15.25,3a
2019-07-15_175016:120,-0.492645,-0.010162000000000001,-0.038635,-0.004,0.00016299999999999998,-0.00045099999999999996,-43.369999,-2.18,15.25,3a
2019-07-15_175016:140,-0.49468999999999996,-0.010651,-0.038635,-0.004091,0.000346,-0.000786,-44.060001,-2.56,14.56,3a
2019-07-15_175016:160,-0.496704,-0.010162000000000001,-0.037108999999999996,-0.004,0.000743,-0.0010609999999999999,-44.060001,-2.56,14.56,3a
2019-07-15_175016:180,-0.496216,-0.009125,-0.039124,-0.004091,0.001201,-0.001183,-44.060001,-2.56,14.56,3a
2019-07-15_175016:200,-0.495697,-0.008118,-0.039124,-0.004091,0.0016589999999999999,-0.0013050000000000002,-43.68,-3.68,15.25,3a
2019-07-15_175016:220,-0.49468999999999996,-0.008636,-0.037598,-0.003878,0.001842,-0.001366,-43.68,-3.68,15.25,3a
2019-07-15_175016:240,-0.492126,-0.009644,-0.037598,-0.003878,0.001964,-0.001,-43.68,-2.18,15.75,3a
2019-07-15_175016:260,-0.491638,-0.010162000000000001,-0.037108999999999996,-0.0036950000000000004,0.00172,-0.000786,-43.68,-2.18,15.75,3a
2019-07-15_175016:280,-0.49111899999999997,-0.007599,-0.038116000000000004,-0.003664,0.0016589999999999999,-0.000512,-43.68,-2.18,15.75,3a
2019-07-15_175016:300,-0.49111899999999997,-0.007599,-0.038116000000000004,-0.003512,0.0012619999999999999,-0.000176,-43.68,-2.18,14.56,3a
2019-07-15_175016:320,-0.492126,-0.007599,-0.037108999999999996,-0.003512,0.001018,7.000000000000001e-06,-43.68,-2.18,14.56,3a
2019-07-15_175016:340,-0.49111899999999997,-0.007111,-0.038116000000000004,-0.003573,0.000682,0.000343,-43.369999,-2.87,14.06,3a
2019-07-15_175016:360,-0.49316400000000005,-0.008118,-0.037598,-0.003878,0.000743,0.000465,-43.369999,-2.87,14.06,3a
2019-07-15_175016:380,-0.49365200000000004,-0.007599,-0.039642000000000004,-0.00403,0.0008039999999999999,0.0007700000000000001,-43.369999,-2.87,14.06,3a
2019-07-15_175016:400,-0.49316400000000005,-0.009125,-0.036591000000000005,-0.004091,0.001018,0.000984,-43.68,-3.25,14.87,3a
2019-07-15_175016:420,-0.496216,-0.008118,-0.038635,-0.004091,0.001353,0.001167,-43.68,-3.25,14.87,3a
2019-07-15_175016:440,-0.491638,-0.010162000000000001,-0.038116000000000004,-0.004152,0.0019030000000000002,0.001045,-44.060001,-2.18,14.87,3a
2019-07-15_175016:460,-0.49316400000000005,-0.008636,-0.039642000000000004,-0.004152,0.001994,0.001106,-44.060001,-2.18,14.87,3a
2019-07-15_175016:480,-0.490601,-0.009644,-0.039642000000000004,-0.004,0.002239,0.000923,-44.060001,-2.18,14.87,3a
2019-07-15_175016:500,-0.49365200000000004,-0.010162000000000001,-0.040161,-0.0037560000000000002,0.0023,0.001167,-43.369999,-1.75,14.06,3a
2019-07-15_175016:520,-0.496216,-0.009125,-0.039642000000000004,-0.0032979999999999997,0.0023,0.001167,-43.369999,-1.75,14.06,3a
2019-07-15_175016:540,-0.492645,-0.008118,-0.041168,-0.0034509999999999996,0.0024519999999999998,0.000496,-43.68,-1.75,15.75,3a
2019-07-15_175016:560,-0.49722299999999997,-0.007111,-0.040161,-0.003573,0.002788,0.000526,-43.68,-1.75,15.75,3a
2019-07-15_175016:580,-0.49468999999999996,-0.008636,-0.037598,-0.003573,0.002116,0.001258,-43.68,-1.75,15.75,3a
2019-07-15_175016:600,-0.491638,-0.010162000000000001,-0.037598,-0.0036340000000000005,0.0017809999999999998,0.001167,-43.68,-1.75,15.25,3a
2019-07-15_175016:620,-0.496704,-0.009125,-0.037598,-0.0034509999999999996,0.0017809999999999998,0.000984,-43.68,-1.75,15.25,3a
2019-07-15_175016:640,-0.497742,-0.010651,-0.038635,-0.0033280000000000002,0.002361,0.000496,-43.68,-2.18,14.06,3a
2019-07-15_175016:660,-0.49468999999999996,-0.010162000000000001,-0.035065,-0.003237,0.003093,0.000984,-43.68,-2.18,14.06,3a
2019-07-15_175016:680,-0.495697,-0.009644,-0.036591000000000005,-0.0032979999999999997,0.00349,0.001655,-43.68,-2.18,14.06,3a
2019-07-15_175016:700,-0.490112,-0.009644,-0.033539,-0.003512,0.00352,0.000984,-43.68,-2.56,16.059998999999998,3a
2019-07-15_175016:720,-0.49111899999999997,-0.011169,-0.035065,-0.003237,0.002788,-0.00045099999999999996,-43.68,-2.56,16.059998999999998,3a
2019-07-15_175016:740,-0.49111899999999997,-0.010162000000000001,-0.035583,-0.0033280000000000002,0.002361,-0.000908,-44.060001,-2.56,16.059998999999998,3a
2019-07-15_175016:760,-0.491638,-0.008636,-0.034546,-0.002779,0.0017809999999999998,7.000000000000001e-06,-44.060001,-2.56,16.059998999999998,3a
2019-07-15_175016:780,-0.492645,-0.009125,-0.033539,-0.002718,0.002177,0.000343,-44.060001,-2.56,16.059998999999998,3a
2019-07-15_175016:800,-0.49316400000000005,-0.008636,-0.034546,-0.002443,0.002361,0.000343,-43.369999,-1.75,15.75,3a
2019-07-15_175016:820,-0.491638,-0.007111,-0.034058,-0.002382,0.002391,0.000831,-43.369999,-1.75,15.75,3a
2019-07-15_175016:840,-0.49111899999999997,-0.006072999999999999,-0.035065,-0.002993,0.002177,0.001228,-43.369999,-2.18,15.25,3a
2019-07-15_175016:860,-0.492126,-0.0055850000000000006,-0.034058,-0.0036340000000000005,0.001994,0.001564,-43.369999,-2.18,15.25,3a
2019-07-15_175016:880,-0.492126,-0.006072999999999999,-0.034058,-0.004091,0.00172,0.001503,-43.369999,-2.18,15.25,3a
2019-07-15_175016:900,-0.49468999999999996,-0.008118,-0.036072,-0.004824,0.001628,0.0008619999999999999,-43.68,-2.56,15.25,3a
2019-07-15_175016:920,-0.49365200000000004,-0.008118,-0.035065,-0.005068,0.0016589999999999999,0.0007700000000000001,-43.68,-2.56,15.25,3a
2019-07-15_175016:940,-0.49468999999999996,-0.010651,-0.036072,-0.005129,0.001964,0.000831,-43.68,-2.87,15.75,3a
2019-07-15_175016:960,-0.494171,-0.011687999999999999,-0.034058,-0.004946,0.002177,0.0008619999999999999,-43.68,-2.87,15.75,3a
2019-07-15_175016:980,-0.49111899999999997,-0.012695,-0.034058,-0.004671,0.002391,7.000000000000001e-06,-43.68,-2.87,15.75,3a
2019-07-15_175017:000,-0.490112,-0.011687999999999999,-0.036591000000000005,-0.004152,0.001964,0.000221,-43.68,-2.18,15.25,3a
2019-07-15_175017:020,-0.49316400000000005,-0.011687999999999999,-0.035065,-0.003817,0.001628,0.000587,-43.68,-2.18,15.25,3a
2019-07-15_175017:040,-0.49365200000000004,-0.011169,-0.034058,-0.003573,0.001628,0.000221,-43.68,-2.18,15.25,3a
2019-07-15_175017:060,-0.494171,-0.009644,-0.034546,-0.0031149999999999997,0.0017809999999999998,0.00028199999999999997,-43.68,-2.18,15.25,3a
2019-07-15_175017:080,-0.495697,-0.009125,-0.034546,-0.002993,0.002055,0.000404,-43.68,-2.18,15.25,3a
2019-07-15_175017:100,-0.49365200000000004,-0.008636,-0.034058,-0.002932,0.0023,0.000404,-43.369999,-2.56,14.06,3a
2019-07-15_175017:120,-0.494171,-0.006592,-0.030487,-0.003054,0.002391,0.00028199999999999997,-43.369999,-2.56,14.06,3a
2019-07-15_175017:140,-0.492126,-0.008118,-0.03302,-0.003176,0.002635,0.000343,-43.369999,-1.75,14.87,3a
2019-07-15_175017:160,-0.491638,-0.007599,-0.034058,-0.0034509999999999996,0.002361,0.000404,-43.369999,-1.75,14.87,3a
2019-07-15_175017:180,-0.49111899999999997,-0.007599,-0.032013,-0.0032979999999999997,0.001994,0.000496,-43.369999,-1.75,14.87,3a
2019-07-15_175017:200,-0.49365200000000004,-0.008636,-0.032532,-0.00339,0.00172,0.000526,-43.68,-2.56,14.56,3a
2019-07-15_175017:220,-0.49316400000000005,-0.008118,-0.031006,-0.0032979999999999997,0.0017809999999999998,0.0007700000000000001,-43.68,-2.56,14.56,3a
2019-07-15_175017:240,-0.494171,-0.008636,-0.03302,-0.003573,0.001628,0.0007700000000000001,-44.5,-1.75,14.56,3a
2019-07-15_175017:260,-0.494171,-0.008636,-0.03302,-0.0036950000000000004,0.001842,0.0007700000000000001,-44.5,-1.75,14.56,3a
2019-07-15_175017:280,-0.49365200000000004,-0.009644,-0.03302,-0.0036340000000000005,0.001994,0.000923,-44.5,-1.75,14.56,3a
2019-07-15_175017:300,-0.491638,-0.010162000000000001,-0.033539,-0.003573,0.001842,0.000923,-43.369999,-2.87,15.25,3a
2019-07-15_175017:320,-0.49111899999999997,-0.009125,-0.032532,-0.003664,0.001598,0.000984,-43.369999,-2.87,15.25,3a
2019-07-15_175017:340,-0.491638,-0.010162000000000001,-0.034546,-0.0036340000000000005,0.001292,0.000984,-43.0,-2.87,14.87,3a
2019-07-15_175017:360,-0.490601,-0.009125,-0.033539,-0.003939,0.00114,0.0008619999999999999,-43.0,-2.87,14.87,3a
2019-07-15_175017:380,-0.49365200000000004,-0.009125,-0.03302,-0.0037560000000000002,0.001018,0.000923,-43.0,-2.87,14.87,3a
2019-07-15_175017:400,-0.494171,-0.011169,-0.034058,-0.00403,0.0010789999999999999,0.000984,-44.060001,-2.18,15.25,3a
2019-07-15_175017:420,-0.492126,-0.010162000000000001,-0.035065,-0.004,0.00114,0.001106,-44.060001,-2.18,15.25,3a
2019-07-15_175017:440,-0.49365200000000004,-0.009644,-0.035583,-0.004091,0.0010789999999999999,0.001045,-43.68,-2.87,14.87,3a
2019-07-15_175017:460,-0.492645,-0.010651,-0.036591000000000005,-0.004275,0.00114,0.000984,-43.68,-2.87,14.87,3a
2019-07-15_175017:480,-0.491638,-0.009644,-0.034546,-0.004275,0.001018,0.000831,-43.68,-2.87,14.87,3a
2019-07-15_175017:500,-0.49316400000000005,-0.009644,-0.037108999999999996,-0.004549,0.000865,0.000831,-43.0,-2.18,15.25,3a
2019-07-15_175017:520,-0.49316400000000005,-0.011169,-0.035583,-0.004732,0.0009570000000000001,0.000587,-43.0,-2.18,15.25,3a
2019-07-15_175017:540,-0.495697,-0.011169,-0.035583,-0.004397,0.001292,0.000526,-44.060001,-2.87,16.059998999999998,3a
2019-07-15_175017:560,-0.49316400000000005,-0.013213999999999998,-0.036072,-0.004397,0.001415,0.000404,-44.060001,-2.87,16.059998999999998,3a
2019-07-15_175017:580,-0.492126,-0.010651,-0.036591000000000005,-0.004152,0.0014759999999999999,0.000129,-44.060001,-2.87,16.059998999999998,3a
2019-07-15_175017:600,-0.49468999999999996,-0.011169,-0.036072,-0.004,0.001598,0.001167,-42.560001,-2.18,14.56,3a
2019-07-15_175017:620,-0.492645,-0.011687999999999999,-0.035583,-0.003878,0.001353,0.001045,-42.560001,-2.18,14.56,3a
2019-07-15_175017:640,-0.495697,-0.012177,-0.036591000000000005,-0.003664,0.001598,0.00016,-44.060001,-2.56,14.06,3a
2019-07-15_175017:660,-0.49111899999999997,-0.011169,-0.037108999999999996,-0.0036340000000000005,0.001598,-0.000908,-44.060001,-2.56,14.06,3a
2019-07-15_175017:680,-0.490601,-0.009644,-0.037108999999999996,-0.003512,0.0010789999999999999,-0.000512,-44.060001,-2.56,14.06,3a
2019-07-15_175017:700,-0.49111899999999997,-0.009644,-0.037108999999999996,-0.0032979999999999997,0.0012619999999999999,-5.4000000000000005e-05,-42.560001,-2.18,14.06,3a
2019-07-15_175017:720,-0.49517799999999995,-0.009125,-0.036591000000000005,-0.0032979999999999997,0.001201,-0.000176,-42.560001,-2.18,14.06,3a
2019-07-15_175017:740,-0.49365200000000004,-0.007111,-0.037108999999999996,-0.0031149999999999997,0.0019030000000000002,0.00028199999999999997,-44.060001,-2.56,14.87,3a
2019-07-15_175017:760,-0.49111899999999997,-0.007111,-0.038116000000000004,-0.0029010000000000004,0.002055,0.000526,-44.060001,-2.56,14.87,3a
2019-07-15_175017:780,-0.49111899999999997,-0.007111,-0.038635,-0.00339,0.001415,0.001228,-44.060001,-2.56,14.87,3a
2019-07-15_175017:800,-0.491638,-0.008118,-0.037598,-0.0034509999999999996,0.0012619999999999999,0.001503,-43.68,-2.56,15.25,3a
2019-07-15_175017:820,-0.491638,-0.008636,-0.038116000000000004,-0.004091,0.000621,0.001564,-43.68,-2.56,15.25,3a
2019-07-15_175017:840,-0.49365200000000004,-0.010162000000000001,-0.037598,-0.004091,0.0008039999999999999,0.00132,-43.369999,-1.75,15.75,3a
2019-07-15_175017:860,-0.49926800000000005,-0.011687999999999999,-0.038116000000000004,-0.004091,0.0014759999999999999,0.000984,-43.369999,-1.75,15.75,3a
2019-07-15_175017:880,-0.496704,-0.013213999999999998,-0.037108999999999996,-0.004152,0.0017809999999999998,0.001106,-43.369999,-1.75,15.75,3a
2019-07-15_175017:900,-0.49722299999999997,-0.013702,-0.037108999999999996,-0.003817,0.002696,0.000526,-43.369999,-2.87,14.87,3a
2019-07-15_175017:920,-0.492645,-0.012177,-0.036591000000000005,-0.003817,0.002788,6.8e-05,-43.369999,-2.87,14.87,3a
2019-07-15_175017:940,-0.49365200000000004,-0.012695,-0.034058,-0.00339,0.002788,0.000343,-43.369999,-2.87,14.87,3a
2019-07-15_175017:960,-0.490601,-0.011687999999999999,-0.033539,-0.0032979999999999997,0.002788,0.00016,-43.68,-2.18,15.75,3a
2019-07-15_175017:980,-0.49517799999999995,-0.011169,-0.034058,-0.002932,0.002696,-0.000389,-43.68,-2.18,15.75,3a
2019-07-15_175018:000,-0.49365200000000004,-0.010162000000000001,-0.034546,-0.003054,0.002513,-0.000512,-43.0,-2.18,14.06,3a
2019-07-15_175018:020,-0.491638,-0.008118,-0.033539,-0.002993,0.002361,-0.000512,-43.0,-2.18,14.06,3a
2019-07-15_175018:040,-0.49722299999999997,-0.008636,-0.034546,-0.002932,0.002239,-0.000267,-43.68,-1.37,14.56,3a
2019-07-15_175018:060,-0.49111899999999997,-0.009125,-0.036072,-0.0029010000000000004,0.002361,-0.000176,-43.68,-1.37,14.56,3a
2019-07-15_175018:080,-0.49468999999999996,-0.007599,-0.035065,-0.002932,0.002177,-0.000176,-43.68,-1.37,14.56,3a
2019-07-15_175018:100,-0.49517799999999995,-0.008118,-0.033539,-0.003237,0.002391,0.000465,-43.0,-2.87,14.87,3a
2019-07-15_175018:120,-0.496704,-0.007111,-0.032532,-0.00339,0.002757,0.000587,-43.0,-2.87,14.87,3a
2019-07-15_175018:140,-0.495697,-0.007599,-0.032532,-0.003512,0.003124,0.000831,-43.0,-2.87,14.87,3a
2019-07-15_175018:160,-0.497742,-0.008636,-0.03302,-0.003664,0.0029100000000000003,0.000831,-44.5,-2.18,16.5,3a
2019-07-15_175018:180,-0.49722299999999997,-0.008636,-0.031494,-0.003817,0.0029100000000000003,0.000587,-44.5,-2.18,16.5,3a
2019-07-15_175018:200,-0.496216,-0.008118,-0.028961,-0.004,0.0029100000000000003,0.000831,-43.68,-4.06,14.56,3a
2019-07-15_175018:220,-0.490601,-0.008636,-0.027954000000000003,-0.004275,0.002788,0.000709,-43.68,-4.06,14.56,3a
2019-07-15_175018:240,-0.489594,-0.010162000000000001,-0.028961,-0.004213000000000001,0.002391,0.000496,-43.369999,-2.56,15.25,3a
