timestamp,AccX,AccY,AccZ,GyroX,GyroY,GyroZ,MagX,MagY,MagZ,Activity
2019-07-15_172617:020,-0.452484,-0.037108999999999996,-0.18096900000000002,-0.006136,0.004039,0.000343,-34.869999,-22.370001000000002,-17.25,2d
2019-07-15_172617:040,-0.453003,-0.040649,-0.183533,-0.005922,0.003246,0.000984,-34.869999,-22.370001000000002,-17.25,2d
2019-07-15_172617:060,-0.46316499999999994,-0.036591000000000005,-0.17996199999999998,-0.004732,0.002177,-0.002892,-35.25,-22.75,-17.25,2d
2019-07-15_172617:080,-0.476379,-0.025421,-0.166748,-0.002932,0.002116,-0.004753,-35.25,-22.75,-17.25,2d
2019-07-15_172617:100,-0.47332799999999997,-0.021332,-0.164703,-0.002993,0.0036420000000000003,-0.00515,-35.25,-23.5,-16.870001000000002,2d
2019-07-15_172617:120,-0.45706199999999997,-0.020325,-0.164703,-0.004213000000000001,0.004771,-0.002648,-35.25,-23.5,-16.870001000000002,2d
2019-07-15_172617:140,-0.45043900000000003,-0.023375999999999997,-0.1698,-0.005861,0.0041,0.001258,-35.25,-23.5,-16.870001000000002,2d
2019-07-15_172617:160,-0.447906,-0.029968,-0.17538499999999999,-0.007601,0.002696,0.004371,-34.869999,-23.870001000000002,-17.25,2d
2019-07-15_172617:180,-0.45043900000000003,-0.035065,-0.177429,-0.008211,0.000743,0.005745,-34.869999,-23.870001000000002,-17.25,2d
2019-07-15_172617:200,-0.45605500000000004,-0.033539,-0.181488,-0.008578,-0.000264,0.003761,-36.369999,-23.870001000000002,-17.25,2d
2019-07-15_172617:220,-0.45553599999999994,-0.032013,-0.183014,-0.008791,-0.000386,0.001655,-36.369999,-23.870001000000002,-17.25,2d
2019-07-15_172617:240,-0.462128,-0.023895,-0.187073,-0.009463,-0.000264,-0.000328,-36.369999,-23.870001000000002,-17.25,2d
2019-07-15_172617:260,-0.461121,-0.017792,-0.187073,-0.010775,0.000621,-0.000512,-35.68,-24.559998999999998,-17.25,2d
2019-07-15_172617:280,-0.45654300000000003,-0.016266,-0.187073,-0.012758,0.001415,0.000709,-35.68,-24.559998999999998,-17.25,2d
2019-07-15_172617:300,-0.455017,-0.017792,-0.18811,-0.015047,0.001964,0.001045,-34.560001,-23.5,-16.870001000000002,2d
2019-07-15_172617:320,-0.44995100000000005,-0.016266,-0.183533,-0.016634,0.002177,7.000000000000001e-06,-34.560001,-23.5,-16.870001000000002,2d
2019-07-15_172617:340,-0.454529,-0.016266,-0.185547,-0.018435,0.002391,-0.000512,-34.560001,-23.5,-16.870001000000002,2d
2019-07-15_172617:360,-0.44995100000000005,-0.009125,-0.189636,-0.020418000000000002,0.002574,0.000831,-34.869999,-23.5,-16.059998999999998,2d
2019-07-15_172617:380,-0.448425,-0.007599,-0.189636,-0.022799,0.002788,0.002113,-34.869999,-23.5,-16.059998999999998,2d
2019-07-15_172617:400,-0.454529,0.004059,-0.194702,-0.026247000000000003,0.002849,0.00132,-34.869999,-23.870001000000002,-14.87,2d
2019-07-15_172617:420,-0.461121,0.001495,-0.188599,-0.030031,0.003368,0.000129,-34.869999,-23.870001000000002,-14.87,2d
2019-07-15_172617:440,-0.45806899999999995,0.001495,-0.187073,-0.033816000000000006,0.004894,-0.000267,-34.869999,-23.870001000000002,-14.87,2d
2019-07-15_172617:460,-0.448425,-0.001495,-0.191162,-0.037935,0.006084,0.001991,-35.25,-24.18,-15.25,2d
2019-07-15_172617:480,-0.44232200000000005,-0.012177,-0.194702,-0.040774,0.005443,0.005958,-35.25,-24.18,-15.25,2d
2019-07-15_172617:500,-0.449432,-0.018799,-0.198273,-0.042452,0.004314,0.007881,-35.25,-24.559998999999998,-15.68,2d
2019-07-15_172617:520,-0.457581,-0.025908999999999998,-0.19574,-0.041384,0.003246,0.007301,-35.25,-24.559998999999998,-15.68,2d
2019-07-15_172617:540,-0.460114,-0.026427999999999997,-0.19622799999999999,-0.039339,0.002788,0.0058969999999999995,-35.25,-24.559998999999998,-15.68,2d
2019-07-15_172617:560,-0.45907600000000004,-0.026427999999999997,-0.194702,-0.036593,0.003246,0.005439,-35.25,-24.559998999999998,-13.68,2d
2019-07-15_172617:580,-0.45401,-0.027435,-0.19574,-0.033541,0.003886,0.0053479999999999995,-35.25,-24.559998999999998,-13.68,2d
2019-07-15_172617:600,-0.453491,-0.023375999999999997,-0.194214,-0.030581,0.003825,0.0053479999999999995,-34.869999,-24.559998999999998,-13.0,2d
2019-07-15_172617:620,-0.451477,-0.023375999999999997,-0.190125,-0.02698,0.00352,0.005043,-34.869999,-24.559998999999998,-13.0,2d
2019-07-15_172617:640,-0.465179,-0.013702,-0.185059,-0.024111,0.003124,0.003517,-34.869999,-24.559998999999998,-13.0,2d
2019-07-15_172617:660,-0.461121,-0.007599,-0.183014,-0.021792,0.005046,0.0029059999999999997,-35.25,-25.370001000000002,-13.25,2d
2019-07-15_172617:680,-0.45706199999999997,-0.002014,-0.17944300000000002,-0.021456,0.006084,0.002388,-35.25,-25.370001000000002,-13.25,2d
2019-07-15_172617:700,-0.453491,-0.0035399999999999997,-0.177948,-0.021731,0.005351,0.001228,-34.560001,-25.68,-11.37,2d
2019-07-15_172617:720,-0.453003,-0.006592,-0.174377,-0.021547,0.004771,0.001442,-34.560001,-25.68,-11.37,2d
2019-07-15_172617:740,-0.45907600000000004,-0.009125,-0.1698,-0.020083,0.003307,0.001381,-34.560001,-25.68,-11.37,2d
2019-07-15_172617:760,-0.462646,-0.010651,-0.171844,-0.018404,0.002757,0.002784,-34.869999,-25.68,-12.5,2d
2019-07-15_172617:780,-0.466217,-0.012695,-0.168274,-0.016572999999999997,0.0029100000000000003,0.004432,-34.869999,-25.68,-12.5,2d
2019-07-15_172617:800,-0.461639,-0.013213999999999998,-0.167755,-0.01462,0.003093,0.0058969999999999995,-35.68,-26.059998999999998,-12.06,2d
2019-07-15_172617:820,-0.45553599999999994,-0.011169,-0.168793,-0.012758,0.002513,0.007209,-35.68,-26.059998999999998,-12.06,2d
2019-07-15_172617:840,-0.45401,-0.009125,-0.172852,-0.011568,0.0012619999999999999,0.007759,-35.68,-26.059998999999998,-12.06,2d
2019-07-15_172617:860,-0.457581,-0.009125,-0.171844,-0.011233,-0.00044699999999999997,0.007759,-36.060001,-25.68,-11.0,2d
2019-07-15_172617:880,-0.458588,-0.009644,-0.171326,-0.011385,-0.0007830000000000001,0.008154999999999999,-36.060001,-25.68,-11.0,2d
2019-07-15_172617:900,-0.45605500000000004,-0.012695,-0.171844,-0.011781999999999999,-0.0009660000000000001,0.0084,-36.060001,-25.68,-10.56,2d
2019-07-15_172617:920,-0.446899,-0.011687999999999999,-0.170319,-0.011995,-0.001973,0.007942,-36.060001,-25.68,-10.56,2d
2019-07-15_172617:940,-0.45654300000000003,-0.016266,-0.174377,-0.01166,-0.002827,0.00727,-36.060001,-25.68,-10.56,2d
2019-07-15_172617:960,-0.45401,-0.021332,-0.177429,-0.010714,-0.00298,0.006233,-35.68,-25.68,-11.37,2d
2019-07-15_172617:980,-0.453003,-0.020325,-0.181488,-0.009401000000000001,-0.002705,0.005622,-35.68,-25.68,-11.37,2d
2019-07-15_172618:000,-0.44638100000000003,-0.022858,-0.185547,-0.007998,-0.002919,0.005287,-36.060001,-25.370001000000002,-10.56,2d
2019-07-15_172618:020,-0.44891400000000004,-0.018799,-0.186584,-0.006807,-0.00237,0.004646,-36.060001,-25.370001000000002,-10.56,2d
2019-07-15_172618:040,-0.445374,-0.015228,-0.192169,-0.005922,-0.0035600000000000002,0.003639,-36.060001,-25.370001000000002,-10.56,2d
2019-07-15_172618:060,-0.44232200000000005,-0.010651,-0.194214,-0.0056170000000000005,-0.004964,0.00251,-36.369999,-25.0,-10.56,2d
2019-07-15_172618:080,-0.45401,-0.008118,-0.201324,-0.005861,-0.005818,0.0029059999999999997,-36.369999,-25.0,-10.56,2d
2019-07-15_172618:100,-0.46417200000000003,-0.009644,-0.203369,-0.006684999999999999,-0.005818,0.003242,-36.369999,-25.370001000000002,-10.18,2d
2019-07-15_172618:120,-0.46670500000000004,-0.009125,-0.198273,-0.007051999999999999,-0.004353,0.003761,-36.369999,-25.370001000000002,-10.18,2d
2019-07-15_172618:140,-0.462128,-0.009125,-0.194702,-0.007876000000000001,-0.002431,0.004615,-36.369999,-25.370001000000002,-10.18,2d
2019-07-15_172618:160,-0.45706199999999997,-0.011687999999999999,-0.194702,-0.00812,-0.001576,0.005561,-36.369999,-24.559998999999998,-11.0,2d
2019-07-15_172618:180,-0.45605500000000004,-0.012695,-0.191162,-0.008211,-0.001515,0.005226,-36.369999,-24.559998999999998,-11.0,2d
2019-07-15_172618:200,-0.459595,-0.014740000000000001,-0.189117,-0.008059,-0.001363,0.0043100000000000005,-36.369999,-24.559998999999998,-10.56,2d
2019-07-15_172618:220,-0.462128,-0.015228,-0.190125,-0.007662,-0.00063,0.003486,-36.369999,-24.559998999999998,-10.56,2d
2019-07-15_172618:240,-0.462128,-0.013702,-0.189117,-0.007265000000000001,7.2e-05,0.003181,-36.369999,-24.559998999999998,-10.56,2d
2019-07-15_172618:260,-0.457581,-0.014740000000000001,-0.187073,-0.007051999999999999,0.0009570000000000001,0.003761,-36.060001,-25.0,-10.18,2d
2019-07-15_172618:280,-0.460114,-0.014740000000000001,-0.185059,-0.0069299999999999995,0.0008960000000000001,0.003761,-36.060001,-25.0,-10.18,2d
2019-07-15_172618:300,-0.462646,-0.013213999999999998,-0.182007,-0.006869,0.001018,0.005226,-36.369999,-24.18,-11.37,2d
2019-07-15_172618:320,-0.45907600000000004,-0.013213999999999998,-0.184021,-0.007265000000000001,0.001201,0.006141,-36.369999,-24.18,-11.37,2d
2019-07-15_172618:340,-0.45654300000000003,-0.012695,-0.181488,-0.007143000000000001,0.00114,0.004829,-36.369999,-24.18,-11.37,2d
2019-07-15_172618:360,-0.452484,-0.012177,-0.180481,-0.006745999999999999,0.00056,0.0022960000000000003,-37.18,-24.559998999999998,-10.56,2d
2019-07-15_172618:380,-0.446899,-0.012177,-0.17996199999999998,-0.006684999999999999,-0.0009050000000000001,0.001228,-37.18,-24.559998999999998,-10.56,2d
2019-07-15_172618:400,-0.44891400000000004,-0.012695,-0.182007,-0.0069299999999999995,-0.003163,0.0029059999999999997,-36.060001,-25.0,-11.0,2d
2019-07-15_172618:420,-0.448425,-0.015747,-0.189117,-0.006991,-0.00594,0.003822,-36.060001,-25.0,-11.0,2d
2019-07-15_172618:440,-0.44281000000000004,-0.013213999999999998,-0.192169,-0.006991,-0.008076,0.003822,-36.060001,-25.0,-11.0,2d
2019-07-15_172618:460,-0.438751,-0.009644,-0.194702,-0.006807,-0.009937999999999999,0.0026320000000000002,-36.369999,-25.0,-11.75,2d
2019-07-15_172618:480,-0.432648,-0.006592,-0.19927999999999998,-0.007448000000000001,-0.012471,0.001106,-36.369999,-25.0,-11.75,2d
2019-07-15_172618:500,-0.417389,-0.002014,-0.21148699999999998,-0.008394,-0.016377000000000003,0.001106,-36.369999,-24.18,-10.18,2d
2019-07-15_172618:520,-0.411285,0.0,-0.212006,-0.009309999999999999,-0.022542,0.002052,-36.369999,-24.18,-10.18,2d
2019-07-15_172618:540,-0.40368699999999996,0.002014,-0.22216799999999998,-0.010439,-0.029317000000000003,0.002052,-36.369999,-24.18,-10.18,2d
2019-07-15_172618:560,-0.410278,0.0030210000000000002,-0.22164899999999998,-0.011781999999999999,-0.035481,0.001716,-37.18,-23.870001000000002,-12.5,2d
2019-07-15_172618:580,-0.441284,-0.001495,-0.233337,-0.013186000000000002,-0.038625,0.002449,-37.18,-23.870001000000002,-12.5,2d
2019-07-15_172618:600,-0.45806899999999995,-0.007111,-0.239441,-0.014773,-0.035481,0.003761,-35.68,-23.870001000000002,-14.06,2d
2019-07-15_172618:620,-0.44384799999999996,-0.010651,-0.241486,-0.015688,-0.029713,0.004432,-35.68,-23.870001000000002,-14.06,2d
2019-07-15_172618:640,-0.45907600000000004,-0.014740000000000001,-0.24706999999999998,-0.015780000000000002,-0.023793,0.005043,-35.68,-23.870001000000002,-14.06,2d
2019-07-15_172618:660,-0.45907600000000004,-0.019806,-0.2659,-0.015352000000000001,-0.015767,0.004768,-35.68,-24.18,-13.68,2d
2019-07-15_172618:680,-0.44638100000000003,-0.019318000000000002,-0.263855,-0.014559,-0.008199,0.0037,-35.68,-24.18,-13.68,2d
2019-07-15_172618:700,-0.425537,-0.019806,-0.259796,-0.013430000000000001,-0.0033770000000000002,0.005226,-35.68,-24.559998999999998,-13.25,2d
2019-07-15_172618:720,-0.41485600000000006,-0.020844,-0.253693,-0.011965,-0.001973,0.006019,-35.68,-24.559998999999998,-13.25,2d
2019-07-15_172618:740,-0.416382,-0.019806,-0.254211,-0.01111,-0.002095,0.005806,-35.68,-24.559998999999998,-13.25,2d
2019-07-15_172618:760,-0.418915,-0.019318000000000002,-0.256226,-0.010042,-0.002156,0.006019,-34.869999,-24.18,-13.68,2d
2019-07-15_172618:780,-0.420959,-0.020325,-0.25012199999999996,-0.009309999999999999,-0.002156,0.005836,-34.869999,-24.18,-13.68,2d
2019-07-15_172618:800,-0.41842700000000005,-0.020844,-0.246063,-0.009004999999999999,-0.001576,0.005561,-34.869999,-23.5,-12.5,2d
2019-07-15_172618:820,-0.417389,-0.019318000000000002,-0.24706999999999998,-0.008791,-0.0008439999999999999,0.005836,-34.869999,-23.5,-12.5,2d
2019-07-15_172618:840,-0.410797,-0.018799,-0.252686,-0.00873,-0.00044699999999999997,0.004646,-34.869999,-23.5,-12.5,2d
2019-07-15_172618:860,-0.40774499999999997,-0.017792,-0.254211,-0.008578,-0.001637,0.002784,-35.25,-24.559998999999998,-13.68,2d
2019-07-15_172618:880,-0.412811,-0.016266,-0.253693,-0.008516,-0.002919,0.000587,-35.25,-24.559998999999998,-13.68,2d
2019-07-15_172618:900,-0.41995200000000005,-0.013702,-0.253693,-0.008578,-0.0033770000000000002,-0.0011220000000000002,-35.25,-23.870001000000002,-13.0,2d
2019-07-15_172618:920,-0.420441,-0.012177,-0.256226,-0.008669,-0.003438,-0.0010609999999999999,-35.25,-23.870001000000002,-13.0,2d
2019-07-15_172618:940,-0.417908,-0.011687999999999999,-0.259796,-0.008454999999999999,-0.003621,-0.000573,-35.25,-23.870001000000002,-13.0,2d
2019-07-15_172618:960,-0.414337,-0.011687999999999999,-0.259277,-0.00812,-0.0045060000000000005,0.000465,-35.25,-24.559998999999998,-13.0,2d
2019-07-15_172618:980,-0.40823400000000004,-0.012695,-0.26181,-0.007448000000000001,-0.005879,0.001564,-35.25,-24.559998999999998,-13.0,2d
2019-07-15_172619:000,-0.410797,-0.010651,-0.26181,-0.0066549999999999995,-0.007405,0.00251,-34.869999,-23.870001000000002,-14.87,2d
2019-07-15_172619:020,-0.41842700000000005,-0.010162000000000001,-0.264374,-0.006411,-0.007802,0.003578,-34.869999,-23.870001000000002,-14.87,2d
2019-07-15_172619:040,-0.41943400000000003,-0.012177,-0.266907,-0.006197,-0.007497,0.004036,-34.869999,-23.870001000000002,-14.87,2d
2019-07-15_172619:060,-0.426544,-0.011687999999999999,-0.2659,-0.006258,-0.0062759999999999995,0.003975,-34.869999,-23.870001000000002,-14.06,2d
2019-07-15_172619:080,-0.423004,-0.013213999999999998,-0.268951,-0.005739,-0.004353,0.004158,-34.869999,-23.870001000000002,-14.06,2d
2019-07-15_172619:100,-0.41586300000000004,-0.013702,-0.274536,-0.0056170000000000005,-0.003163,0.004493,-34.869999,-24.559998999999998,-14.87,2d
2019-07-15_172619:120,-0.416382,-0.014740000000000001,-0.272491,-0.0056170000000000005,-0.002583,0.004829,-34.869999,-24.559998999999998,-14.87,2d
2019-07-15_172619:140,-0.417389,-0.014221000000000001,-0.27301,-0.005404,-0.002187,0.005287,-34.869999,-24.559998999999998,-14.87,2d
2019-07-15_172619:160,-0.416901,-0.016753999999999998,-0.26944,-0.005221,-0.001637,0.004554,-36.060001,-24.18,-14.5,2d
2019-07-15_172619:180,-0.41232299999999994,-0.016266,-0.265381,-0.0051600000000000005,-0.001393,0.003517,-36.060001,-24.18,-14.5,2d
2019-07-15_172619:200,-0.410797,-0.017273,-0.2659,-0.004824,-0.001637,0.00251,-34.869999,-24.559998999999998,-14.06,2d
2019-07-15_172619:220,-0.41586300000000004,-0.017792,-0.26944,-0.004671,-0.0024920000000000003,0.0018989999999999999,-34.869999,-24.559998999999998,-14.06,2d
2019-07-15_172619:240,-0.417908,-0.018799,-0.27301,-0.004397,-0.002583,0.001716,-34.869999,-24.559998999999998,-14.06,2d
2019-07-15_172619:260,-0.416382,-0.018799,-0.270966,-0.004152,-0.002095,0.001503,-35.25,-24.18,-13.68,2d
2019-07-15_172619:280,-0.41333000000000003,-0.019318000000000002,-0.269958,-0.003512,-0.001118,0.000404,-35.25,-24.18,-13.68,2d
2019-07-15_172619:300,-0.41384899999999997,-0.017792,-0.268951,-0.0031149999999999997,-0.0007830000000000001,0.000587,-34.869999,-23.870001000000002,-14.87,2d
2019-07-15_172619:320,-0.41384899999999997,-0.016753999999999998,-0.27301,-0.0032979999999999997,-0.000508,0.001777,-34.869999,-23.870001000000002,-14.87,2d
2019-07-15_172619:340,-0.416382,-0.016753999999999998,-0.276581,-0.003512,-0.00044699999999999997,0.00132,-34.869999,-23.870001000000002,-14.87,2d
2019-07-15_172619:360,-0.41485600000000006,-0.01828,-0.277588,-0.0036950000000000004,-0.000233,-0.00023700000000000001,-34.869999,-23.870001000000002,-13.25,2d
2019-07-15_172619:380,-0.414337,-0.017792,-0.27301,-0.0036340000000000005,0.000743,-0.001183,-34.869999,-23.870001000000002,-13.25,2d
2019-07-15_172619:400,-0.417389,-0.019806,-0.272003,-0.003512,0.001598,-0.0013050000000000002,-34.869999,-23.870001000000002,-15.25,2d
2019-07-15_172619:420,-0.415375,-0.015228,-0.271484,-0.003176,0.002635,-0.002495,-34.869999,-23.870001000000002,-15.25,2d
2019-07-15_172619:440,-0.41485600000000006,-0.015228,-0.272491,-0.0028399999999999996,0.003886,-0.002648,-34.869999,-23.870001000000002,-15.25,2d
2019-07-15_172619:460,-0.407227,-0.013702,-0.275543,-0.002718,0.0041,-0.002648,-34.869999,-24.18,-15.68,2d
2019-07-15_172619:480,-0.40316799999999997,-0.012695,-0.272003,-0.002657,0.00352,-0.0017929999999999999,-34.869999,-24.18,-15.68,2d
2019-07-15_172619:500,-0.405212,-0.011169,-0.270477,-0.002779,0.002361,-0.001458,-34.869999,-25.0,-13.68,2d
2019-07-15_172619:520,-0.404694,-0.010651,-0.26944,-0.002779,0.001964,-0.0017929999999999999,-34.869999,-25.0,-13.68,2d
2019-07-15_172619:540,-0.406738,-0.012695,-0.271484,-0.003054,0.001628,-0.002526,-34.869999,-25.0,-13.68,2d
2019-07-15_172619:560,-0.40011599999999997,-0.014740000000000001,-0.276062,-0.0031149999999999997,0.0009570000000000001,-0.002373,-34.18,-24.18,-14.06,2d
2019-07-15_172619:580,-0.397583,-0.016266,-0.277069,-0.0034509999999999996,-0.000172,-0.00216,-34.18,-24.18,-14.06,2d
2019-07-15_172619:600,-0.401123,-0.020325,-0.279114,-0.0034509999999999996,-0.001302,-0.000512,-34.560001,-23.870001000000002,-14.5,2d
2019-07-15_172619:620,-0.40774499999999997,-0.019806,-0.280121,-0.0034509999999999996,-0.002156,-0.000176,-34.560001,-23.870001000000002,-14.5,2d
2019-07-15_172619:640,-0.411285,-0.016753999999999998,-0.284698,-0.0032979999999999997,-0.001179,-0.001641,-34.560001,-23.870001000000002,-14.5,2d
2019-07-15_172619:660,-0.411285,-0.014740000000000001,-0.284698,-0.0025960000000000002,-0.000233,-0.00277,-35.25,-25.0,-14.87,2d
2019-07-15_172619:680,-0.406738,-0.011687999999999999,-0.282654,-0.002382,0.000407,-0.0034409999999999996,-35.25,-25.0,-14.87,2d
2019-07-15_172619:700,-0.406219,-0.010162000000000001,-0.279114,-0.001864,0.000285,-0.002892,-34.869999,-24.18,-14.5,2d
2019-07-15_172619:720,-0.402161,-0.008118,-0.277588,-0.0015279999999999998,-0.000508,-0.002648,-34.869999,-24.18,-14.5,2d
2019-07-15_172619:740,-0.414337,-0.006592,-0.280121,-0.001192,-0.001118,-0.002098,-34.869999,-24.18,-14.5,2d
2019-07-15_172619:760,-0.420441,-0.0055850000000000006,-0.279633,-0.000796,-0.000722,-0.0009689999999999999,-34.560001,-24.18,-14.5,2d
2019-07-15_172619:780,-0.420959,-0.004547,-0.279114,-0.000521,0.001201,7.000000000000001e-06,-34.560001,-24.18,-14.5,2d
2019-07-15_172619:800,-0.423004,-0.005065999999999999,-0.275055,-0.000521,0.003032,0.001106,-33.75,-24.18,-14.5,2d
2019-07-15_172619:820,-0.423004,-0.004547,-0.274536,-0.0006730000000000001,0.005351,0.001503,-33.75,-24.18,-14.5,2d
2019-07-15_172619:840,-0.41384899999999997,-0.0035399999999999997,-0.274017,-0.001467,0.0069689999999999995,0.001838,-33.75,-24.18,-14.5,2d
2019-07-15_172619:860,-0.40976,-0.006072999999999999,-0.273529,-0.002382,0.007213,0.002784,-33.369999,-24.559998999999998,-14.06,2d
2019-07-15_172619:880,-0.40774499999999997,-0.008636,-0.267914,-0.0028399999999999996,0.006541,0.0030280000000000003,-33.369999,-24.559998999999998,-14.06,2d
2019-07-15_172619:900,-0.405212,-0.008118,-0.266907,-0.003237,0.005961999999999999,0.002967,-34.869999,-23.870001000000002,-14.5,2d
2019-07-15_172619:920,-0.396545,-0.008636,-0.2659,-0.003817,0.0042829999999999995,0.0029059999999999997,-34.869999,-23.870001000000002,-14.5,2d
2019-07-15_172619:940,-0.393494,-0.009644,-0.264374,-0.004152,0.002055,0.0029059999999999997,-34.869999,-23.870001000000002,-14.5,2d
2019-07-15_172619:960,-0.39859,-0.011687999999999999,-0.267426,-0.004427,-0.000722,0.002754,-33.75,-24.18,-14.06,2d
2019-07-15_172619:980,-0.39859,-0.011687999999999999,-0.267914,-0.004336,-0.002888,0.002845,-33.75,-24.18,-14.06,2d
2019-07-15_172620:000,-0.398071,-0.011687999999999999,-0.273529,-0.004091,-0.003773,0.003303,-35.68,-23.870001000000002,-15.68,2d
2019-07-15_172620:020,-0.401123,-0.013213999999999998,-0.277588,-0.003939,-0.005086,0.0033640000000000002,-35.68,-23.870001000000002,-15.68,2d
2019-07-15_172620:040,-0.396057,-0.014221000000000001,-0.28369099999999997,-0.003664,-0.005879,0.003913000000000001,-35.68,-23.870001000000002,-15.68,2d
2019-07-15_172620:060,-0.39502,-0.013213999999999998,-0.287231,-0.003512,-0.007344,0.004432,-35.68,-24.18,-14.06,2d
2019-07-15_172620:080,-0.393005,-0.014740000000000001,-0.29232800000000003,-0.003237,-0.008931,0.004768,-35.68,-24.18,-14.06,2d
2019-07-15_172620:100,-0.40570100000000003,-0.014221000000000001,-0.288269,-0.0029010000000000004,-0.009724,0.004829,-34.560001,-24.18,-15.68,2d
2019-07-15_172620:120,-0.41485600000000006,-0.014740000000000001,-0.29232800000000003,-0.0025960000000000002,-0.008931,0.004097,-34.560001,-24.18,-15.68,2d
2019-07-15_172620:140,-0.414337,-0.014221000000000001,-0.293335,-0.0031149999999999997,-0.006093,0.0029059999999999997,-34.560001,-24.18,-15.68,2d
2019-07-15_172620:160,-0.40823400000000004,-0.016753999999999998,-0.28927600000000003,-0.003054,-0.003896,0.0026320000000000002,-34.869999,-23.870001000000002,-14.87,2d
2019-07-15_172620:180,-0.40316799999999997,-0.017273,-0.28112800000000004,-0.003054,-0.002583,0.001991,-34.869999,-23.870001000000002,-14.87,2d
2019-07-15_172620:200,-0.415375,-0.017273,-0.280121,-0.003664,-0.001637,0.0021739999999999997,-34.869999,-23.870001000000002,-15.25,2d
2019-07-15_172620:220,-0.41384899999999997,-0.020325,-0.281647,-0.003817,0.000499,0.0037,-34.869999,-23.870001000000002,-15.25,2d
2019-07-15_172620:240,-0.40976,-0.020325,-0.28064,-0.004152,0.00172,0.002784,-34.869999,-23.870001000000002,-15.25,2d
2019-07-15_172620:260,-0.402161,-0.018799,-0.278595,-0.00461,0.0023,0.001564,-34.560001,-23.5,-14.87,2d
2019-07-15_172620:280,-0.393005,-0.018799,-0.273529,-0.004824,0.001537,0.001106,-34.560001,-23.5,-14.87,2d
2019-07-15_172620:300,-0.390442,-0.018799,-0.274017,-0.005404,-5e-05,0.000831,-34.75,-23.870001000000002,-15.25,2d
2019-07-15_172620:320,-0.390961,-0.017273,-0.274017,-0.005282,-0.00179,0.001564,-34.75,-23.870001000000002,-15.25,2d
2019-07-15_172620:340,-0.393494,-0.016266,-0.27301,-0.005678,-0.0033770000000000002,0.001777,-34.75,-23.870001000000002,-15.25,2d
2019-07-15_172620:360,-0.399597,-0.015228,-0.274017,-0.006075,-0.004414,0.001716,-34.75,-23.870001000000002,-14.5,2d
2019-07-15_172620:380,-0.401642,-0.014740000000000001,-0.280121,-0.006807,-0.004445,0.001258,-34.75,-23.870001000000002,-14.5,2d
2019-07-15_172620:400,-0.39859,-0.014221000000000001,-0.279114,-0.007601,-0.0045060000000000005,0.000587,-34.5,-23.870001000000002,-14.87,2d
2019-07-15_172620:420,-0.398071,-0.016753999999999998,-0.279114,-0.007998,-0.005635,0.000648,-34.5,-23.870001000000002,-14.87,2d
2019-07-15_172620:440,-0.410797,-0.019318000000000002,-0.287231,-0.007937,-0.006428,0.00028199999999999997,-34.5,-23.870001000000002,-14.87,2d
2019-07-15_172620:460,-0.41384899999999997,-0.019806,-0.291321,-0.007448000000000001,-0.005574,-0.000176,-34.75,-23.059998999999998,-14.87,2d
2019-07-15_172620:480,-0.40774499999999997,-0.022369,-0.290283,-0.006533,-0.004292,-0.00011499999999999999,-34.75,-23.059998999999998,-14.87,2d
2019-07-15_172620:500,-0.39859,-0.023375999999999997,-0.28775,-0.0048850000000000005,-0.0039570000000000004,-0.00045099999999999996,-34.75,-23.5,-15.25,2d
2019-07-15_172620:520,-0.36911,-0.026427999999999997,-0.284698,-0.002779,-0.006428,-0.001397,-34.75,-23.5,-15.25,2d
2019-07-15_172620:540,-0.346222,-0.033539,-0.28674299999999997,0.000212,-0.012013,-0.004753,-34.75,-23.5,-15.25,2d
2019-07-15_172620:560,-0.332489,-0.032013,-0.28875700000000004,0.003507,-0.020345,-0.010216,-34.5,-24.18,-16.5,2d
2019-07-15_172620:580,-0.318756,-0.016266,-0.28674299999999997,0.00604,-0.03011,-0.013054,-34.5,-24.18,-16.5,2d
2019-07-15_172620:600,-0.327423,-0.007111,-0.28674299999999997,0.00604,-0.041066000000000005,-0.00869,-34.060001,-24.18,-16.5,2d
2019-07-15_172620:620,-0.394012,-0.009125,-0.298431,0.005918,-0.048573000000000005,-0.003106,-34.060001,-24.18,-16.5,2d
2019-07-15_172620:640,-0.42858900000000005,-0.008636,-0.325897,0.004331000000000001,-0.045399,-0.003167,-34.060001,-24.18,-16.5,2d
2019-07-15_172620:660,-0.431641,-0.007111,-0.338593,0.004118,-0.036213999999999996,-0.00158,-31.5,-24.18,-18.5,2d
2019-07-15_172620:680,-0.406738,-0.008636,-0.352325,0.002806,-0.023732,0.001167,-31.5,-24.18,-18.5,2d
2019-07-15_172620:700,-0.385376,-0.010162000000000001,-0.35180700000000004,0.001402,-0.019948,0.004036,-31.870001000000002,-24.18,-18.5,2d
2019-07-15_172620:720,-0.37011700000000003,-0.013702,-0.347748,0.000395,-0.018025,0.005439,-31.870001000000002,-24.18,-18.5,2d
2019-07-15_172620:740,-0.382812,-0.017273,-0.349792,-0.001192,-0.014058000000000001,0.005806,-31.870001000000002,-24.18,-18.5,2d
2019-07-15_172620:760,-0.383331,-0.018799,-0.3508,-0.001864,-0.009541,0.00663,-31.5,-23.870001000000002,-19.559998999999998,2d
2019-07-15_172620:780,-0.371643,-0.019318000000000002,-0.353333,-0.002932,-0.006551,0.00782,-31.5,-23.870001000000002,-19.559998999999998,2d
2019-07-15_172620:800,-0.35739099999999996,-0.025421,-0.35638400000000003,-0.003176,-0.00536,0.007759,-31.75,-24.559998999999998,-19.559998999999998,2d
2019-07-15_172620:820,-0.371643,-0.025908999999999998,-0.35943600000000003,-0.0031149999999999997,-0.002156,0.007667,-31.75,-24.559998999999998,-19.559998999999998,2d
2019-07-15_172620:840,-0.368591,-0.023895,-0.359955,-0.003817,0.0010789999999999999,0.008064,-31.75,-24.559998999999998,-19.559998999999998,2d
2019-07-15_172620:860,-0.361481,-0.021851,-0.359955,-0.004427,0.0024519999999999998,0.008491,-31.059998999999998,-24.18,-20.75,2d
2019-07-15_172620:880,-0.349274,-0.021332,-0.352844,-0.005861,0.003124,0.008491,-31.059998999999998,-24.18,-20.75,2d
2019-07-15_172620:900,-0.35131799999999996,-0.025908999999999998,-0.34674099999999997,-0.00635,0.003368,0.00782,-31.75,-23.059998999999998,-20.75,2d
2019-07-15_172620:920,-0.350281,-0.028961,-0.338074,-0.007265000000000001,0.003032,0.006874,-31.75,-23.059998999999998,-20.75,2d
2019-07-15_172620:940,-0.35131799999999996,-0.030487,-0.33605999999999997,-0.007784,0.003246,0.006874,-31.75,-23.059998999999998,-20.75,2d
2019-07-15_172620:960,-0.35739099999999996,-0.028442000000000002,-0.3396,-0.007784,0.003886,0.007942,-32.18,-23.5,-20.0,2d
2019-07-15_172620:980,-0.34875500000000004,-0.032013,-0.34265100000000004,-0.007265000000000001,0.0034289999999999998,0.007759,-32.18,-23.5,-20.0,2d
2019-07-15_172621:000,-0.348267,-0.038116000000000004,-0.340118,-0.006411,0.002849,0.005287,-32.560001,-23.5,-19.559998999999998,2d
2019-07-15_172621:020,-0.349274,-0.036591000000000005,-0.3396,-0.005129,0.002361,0.00428,-32.560001,-23.5,-19.559998999999998,2d
2019-07-15_172621:040,-0.35131799999999996,-0.032532,-0.33758499999999997,-0.00403,0.002635,0.003151,-32.560001,-23.5,-19.559998999999998,2d
2019-07-15_172621:060,-0.34674099999999997,-0.031494,-0.34265100000000004,-0.0037560000000000002,0.002361,0.002113,-31.75,-23.5,-20.75,2d
2019-07-15_172621:080,-0.34570300000000004,-0.028442000000000002,-0.344696,-0.002993,0.000621,0.000831,-31.75,-23.5,-20.75,2d
2019-07-15_172621:100,-0.350281,-0.025421,-0.34674099999999997,-0.003054,0.00022400000000000002,0.000923,-31.5,-23.5,-20.370001000000002,2d
2019-07-15_172621:120,-0.35638400000000003,-0.025908999999999998,-0.348267,-0.003664,0.00056,-0.00045099999999999996,-31.5,-23.5,-20.370001000000002,2d
2019-07-15_172621:140,-0.355896,-0.027954000000000003,-0.349792,-0.003939,0.001018,-0.0019149999999999998,-31.5,-23.5,-20.370001000000002,2d
2019-07-15_172621:160,-0.35739099999999996,-0.029480000000000003,-0.35131799999999996,-0.003817,0.0016589999999999999,-0.002587,-31.75,-23.059998999999998,-19.559998999999998,2d
2019-07-15_172621:180,-0.364014,-0.031006,-0.35180700000000004,-0.003054,0.003703,-0.0028309999999999997,-31.75,-23.059998999999998,-19.559998999999998,2d
2019-07-15_172621:200,-0.37265,-0.028961,-0.352844,-0.002718,0.006633,-0.002587,-31.75,-23.870001000000002,-20.370001000000002,2d
2019-07-15_172621:220,-0.368073,-0.027954000000000003,-0.348267,-0.002718,0.008739,-0.001397,-31.75,-23.870001000000002,-20.370001000000002,2d
2019-07-15_172621:240,-0.35943600000000003,-0.027954000000000003,-0.34674099999999997,-0.002993,0.009531999999999999,-0.0019149999999999998,-31.75,-23.870001000000002,-20.370001000000002,2d
2019-07-15_172621:260,-0.35436999999999996,-0.026917,-0.34368899999999997,-0.0032979999999999997,0.009807,-0.00277,-32.18,-23.870001000000002,-19.18,2d
2019-07-15_172621:280,-0.35180700000000004,-0.021851,-0.335541,-0.004397,0.008891,-0.002983,-32.18,-23.870001000000002,-19.18,2d
2019-07-15_172621:300,-0.35638400000000003,-0.019318000000000002,-0.330963,-0.005129,0.008739,-0.002373,-31.75,-23.059998999999998,-20.370001000000002,2d
2019-07-15_172621:320,-0.361481,-0.016753999999999998,-0.33300799999999997,-0.007723000000000001,0.010143000000000001,-0.002098,-31.75,-23.059998999999998,-20.370001000000002,2d
2019-07-15_172621:340,-0.353851,-0.013702,-0.334534,-0.009401000000000001,0.009807,-0.002037,-31.75,-23.059998999999998,-20.370001000000002,2d
2019-07-15_172621:360,-0.34317,-0.014740000000000001,-0.335022,-0.010103000000000001,0.009197,-0.002037,-31.75,-23.059998999999998,-20.370001000000002,2d
2019-07-15_172621:380,-0.34570300000000004,-0.015747,-0.333496,-0.011904000000000001,0.006418999999999999,-0.001519,-31.75,-23.059998999999998,-20.370001000000002,2d
2019-07-15_172621:400,-0.352325,-0.013213999999999998,-0.336548,-0.012453,0.00584,-0.0012439999999999999,-31.75,-23.5,-19.18,2d
2019-07-15_172621:420,-0.35739099999999996,-0.013702,-0.336548,-0.014284,0.004222,-0.002251,-31.75,-23.5,-19.18,2d
2019-07-15_172621:440,-0.359955,-0.013213999999999998,-0.338074,-0.015505000000000001,0.003368,-0.003319,-31.75,-23.5,-19.18,2d
2019-07-15_172621:460,-0.35791,-0.016266,-0.338593,-0.015688,0.003093,-0.0032890000000000003,-33.0,-23.870001000000002,-20.0,2d
2019-07-15_172621:480,-0.35943600000000003,-0.017792,-0.337067,-0.014712000000000001,0.0029100000000000003,-0.002434,-33.0,-23.870001000000002,-20.0,2d
2019-07-15_172621:500,-0.364014,-0.017792,-0.341644,-0.014100999999999999,0.002696,-0.002373,-31.75,-23.870001000000002,-18.059998999999998,2d
2019-07-15_172621:520,-0.364014,-0.014740000000000001,-0.341644,-0.012758,0.00352,-0.001641,-31.75,-23.870001000000002,-18.059998999999998,2d
2019-07-15_172621:540,-0.360962,-0.011687999999999999,-0.339111,-0.011965,0.003703,-0.000328,-31.75,-23.870001000000002,-18.059998999999998,2d
2019-07-15_172621:560,-0.35739099999999996,-0.010651,-0.337067,-0.01166,0.00349,0.000129,-32.18,-24.559998999999998,-17.559998999999998,2d
2019-07-15_172621:580,-0.358429,-0.012695,-0.334534,-0.010103000000000001,0.002574,0.000923,-32.18,-24.559998999999998,-17.559998999999998,2d
2019-07-15_172621:600,-0.364532,-0.015228,-0.336548,-0.009401000000000001,0.002239,0.001167,-32.18,-24.559998999999998,-17.559998999999998,2d
2019-07-15_172621:620,-0.36706500000000003,-0.015228,-0.337067,-0.007204,0.002971,0.002388,-32.18,-24.559998999999998,-18.5,2d
2019-07-15_172621:640,-0.366058,-0.017273,-0.3396,-0.005282,0.0031850000000000003,0.00309,-32.18,-24.559998999999998,-18.5,2d
2019-07-15_172621:660,-0.37112399999999995,-0.014221000000000001,-0.336548,-0.004397,0.00349,0.003425,-31.75,-24.18,-18.5,2d
2019-07-15_172621:680,-0.37316900000000003,-0.012695,-0.334534,-0.0025960000000000002,0.005046,0.004554,-31.75,-24.18,-18.5,2d
2019-07-15_172621:700,-0.37316900000000003,-0.011169,-0.338074,-0.002535,0.005748,0.005012,-32.560001,-24.559998999999998,-18.059998999999998,2d
2019-07-15_172621:720,-0.36911,-0.007599,-0.33300799999999997,-0.0021079999999999996,0.007273999999999999,0.0060799999999999995,-32.560001,-24.559998999999998,-18.059998999999998,2d
2019-07-15_172621:740,-0.370636,-0.008118,-0.330963,-0.0020469999999999998,0.007365000000000001,0.006691,-32.560001,-24.559998999999998,-18.059998999999998,2d
2019-07-15_172621:760,-0.368591,-0.008636,-0.330475,-0.0022600000000000003,0.007548999999999999,0.006965000000000001,-32.560001,-23.870001000000002,-17.559998999999998,2d
2019-07-15_172621:780,-0.367584,-0.009125,-0.328949,-0.002718,0.007548999999999999,0.007423000000000001,-32.560001,-23.870001000000002,-17.559998999999998,2d
2019-07-15_172621:800,-0.36349499999999996,-0.009644,-0.327911,-0.002993,0.007273999999999999,0.009193000000000002,-32.560001,-23.870001000000002,-17.559998999999998,2d
2019-07-15_172621:820,-0.36654699999999996,-0.007111,-0.329437,-0.0037560000000000002,0.006633,0.009803000000000001,-32.560001,-23.870001000000002,-18.059998999999998,2d
2019-07-15_172621:840,-0.37265,-0.006592,-0.330963,-0.004671,0.006358,0.010597,-32.560001,-23.870001000000002,-18.059998999999998,2d
2019-07-15_172621:860,-0.37011700000000003,-0.007599,-0.330475,-0.0058,0.006938,0.011879,-33.0,-25.0,-17.25,2d
2019-07-15_172621:880,-0.365021,-0.008118,-0.32995599999999997,-0.007051999999999999,0.007213,0.011482,-33.0,-25.0,-17.25,2d
2019-07-15_172621:900,-0.360962,-0.005065999999999999,-0.32995599999999997,-0.008454999999999999,0.006755,0.011146,-33.0,-25.0,-17.25,2d
2019-07-15_172621:920,-0.364532,-0.005065999999999999,-0.330963,-0.009737,0.006236,0.012458,-33.0,-23.870001000000002,-16.5,2d
2019-07-15_172621:940,-0.36349499999999996,-0.009125,-0.330963,-0.011507,0.005626,0.012397,-33.0,-23.870001000000002,-16.5,2d
2019-07-15_172621:960,-0.36044299999999996,-0.010162000000000001,-0.332489,-0.013430000000000001,0.004436,0.012001000000000001,-33.68,-23.059998999999998,-18.75,2d
2019-07-15_172621:980,-0.359955,-0.017792,-0.326904,-0.014773,0.003093,0.013374,-33.68,-23.059998999999998,-18.75,2d
2019-07-15_172622:000,-0.358917,-0.024902,-0.326904,-0.015688,0.0014759999999999999,0.014137,-33.68,-23.059998999999998,-18.75,2d
2019-07-15_172622:020,-0.36349499999999996,-0.029480000000000003,-0.321808,-0.015688,-0.000264,0.013374,-33.68,-23.5,-17.559998999999998,2d
2019-07-15_172622:040,-0.368073,-0.03302,-0.322327,-0.015413,-0.001179,0.011451000000000001,-33.68,-23.5,-17.559998999999998,2d
2019-07-15_172622:060,-0.373688,-0.038116000000000004,-0.325378,-0.014497999999999999,-0.001118,0.009468,-34.5,-23.059998999999998,-16.5,2d
2019-07-15_172622:080,-0.37265,-0.040161,-0.324371,-0.013125,-0.00011100000000000001,0.008674,-34.5,-23.059998999999998,-16.5,2d
2019-07-15_172622:100,-0.372162,-0.039642000000000004,-0.32486,-0.011233,1.1e-05,0.00663,-34.5,-23.059998999999998,-16.5,2d
2019-07-15_172622:120,-0.374695,-0.037598,-0.323334,-0.009309999999999999,0.000468,0.004219,-34.75,-23.059998999999998,-16.5,2d
2019-07-15_172622:140,-0.38028,-0.036591000000000005,-0.322327,-0.007540000000000001,0.0016589999999999999,0.001777,-34.75,-23.059998999999998,-16.5,2d
2019-07-15_172622:160,-0.379272,-0.033539,-0.32486,-0.0058,0.003368,-0.0011220000000000002,-34.060001,-23.059998999999998,-16.5,2d
2019-07-15_172622:180,-0.375702,-0.028961,-0.326385,-0.00403,0.004771,-0.003319,-34.060001,-23.059998999999998,-16.5,2d
2019-07-15_172622:200,-0.36911,-0.026427999999999997,-0.32995599999999997,-0.0022600000000000003,0.006145,-0.004967,-34.060001,-23.059998999999998,-16.5,2d
2019-07-15_172622:220,-0.369598,-0.018799,-0.323334,-0.001314,0.005626,-0.005944,-34.060001,-22.75,-16.5,2d
2019-07-15_172622:240,-0.36911,-0.016266,-0.320282,-0.000796,0.005412,-0.005089,-34.060001,-22.75,-16.5,2d
2019-07-15_172622:260,-0.37112399999999995,-0.014740000000000001,-0.320282,-0.0006730000000000001,0.004649,-0.004448,-34.75,-23.059998999999998,-16.059998999999998,2d
2019-07-15_172622:280,-0.36911,-0.013702,-0.316742,-0.001314,0.004375,-0.00396,-34.75,-23.059998999999998,-16.059998999999998,2d
2019-07-15_172622:300,-0.367584,-0.014740000000000001,-0.317749,-0.001986,0.00349,-0.001641,-34.75,-23.059998999999998,-16.059998999999998,2d
2019-07-15_172622:320,-0.36706500000000003,-0.016266,-0.316742,-0.002382,0.002696,0.000343,-34.060001,-23.059998999999998,-15.68,2d
2019-07-15_172622:340,-0.375214,-0.020325,-0.319794,-0.002657,0.0014759999999999999,7.000000000000001e-06,-34.060001,-23.059998999999998,-15.68,2d
2019-07-15_172622:360,-0.377228,-0.021851,-0.320801,-0.0028399999999999996,0.001018,-0.001397,-34.5,-23.059998999999998,-16.870001000000002,2d
2019-07-15_172622:380,-0.386383,-0.025908999999999998,-0.32132,-0.002535,0.001598,-0.0017629999999999998,-34.5,-23.059998999999998,-16.870001000000002,2d
2019-07-15_172622:400,-0.38385,-0.025908999999999998,-0.322845,-0.0020469999999999998,0.003032,-0.002892,-34.5,-23.059998999999998,-16.870001000000002,2d
2019-07-15_172622:420,-0.378265,-0.023375999999999997,-0.322845,-0.0015279999999999998,0.004314,-0.004235,-34.5,-23.059998999999998,-16.059998999999998,2d
2019-07-15_172622:440,-0.374176,-0.023895,-0.323334,-0.000857,0.004649,-0.005303,-34.5,-23.059998999999998,-16.059998999999998,2d
2019-07-15_172622:460,-0.377747,-0.020325,-0.323334,-0.00045999999999999996,0.004375,-0.006157,-33.68,-23.870001000000002,-15.25,2d
2019-07-15_172622:480,-0.37674,-0.021851,-0.319275,0.00045599999999999997,0.00471,-0.006218,-33.68,-23.870001000000002,-15.25,2d
2019-07-15_172622:500,-0.373688,-0.017792,-0.316223,0.000669,0.004833,-0.007164,-33.68,-23.870001000000002,-15.25,2d
2019-07-15_172622:520,-0.368591,-0.014740000000000001,-0.314697,0.001066,0.0042829999999999995,-0.007836,-34.060001,-23.5,-15.25,2d
2019-07-15_172622:540,-0.367584,-0.012177,-0.313171,0.000791,0.002696,-0.00808,-34.060001,-23.5,-15.25,2d
2019-07-15_172622:560,-0.370636,-0.011169,-0.312653,0.000669,0.0014759999999999999,-0.007744,-33.25,-23.059998999999998,-16.059998999999998,2d
2019-07-15_172622:580,-0.37265,-0.010162000000000001,-0.30654899999999996,0.000334,0.000407,-0.006096,-33.25,-23.059998999999998,-16.059998999999998,2d
2019-07-15_172622:600,-0.373688,-0.010162000000000001,-0.309601,-0.000185,-5e-05,-0.004815,-33.25,-23.059998999999998,-16.059998999999998,2d
2019-07-15_172622:620,-0.371643,-0.009125,-0.307587,-0.000185,-0.0007830000000000001,-0.003106,-34.060001,-23.059998999999998,-16.5,2d
2019-07-15_172622:640,-0.371643,-0.010651,-0.31012,-2e-06,-0.001637,-0.002648,-34.060001,-23.059998999999998,-16.5,2d
2019-07-15_172622:660,-0.374695,-0.010651,-0.313171,-0.000185,-0.00237,-0.002587,-34.060001,-23.870001000000002,-16.870001000000002,2d
2019-07-15_172622:680,-0.374176,-0.010651,-0.316223,0.000273,-0.002827,-0.001366,-34.060001,-23.870001000000002,-16.870001000000002,2d
2019-07-15_172622:700,-0.375214,-0.009125,-0.319794,5.9e-05,-0.003041,-0.001183,-34.060001,-23.870001000000002,-16.870001000000002,2d
2019-07-15_172622:720,-0.374695,-0.010162000000000001,-0.323334,0.00011999999999999999,-0.0033770000000000002,-0.000786,-34.5,-23.870001000000002,-16.5,2d
2019-07-15_172622:740,-0.371643,-0.010162000000000001,-0.325378,-0.000338,-0.0034990000000000004,-0.000389,-34.5,-23.870001000000002,-16.5,2d
2019-07-15_172622:760,-0.374695,-0.011687999999999999,-0.326385,-0.00045999999999999996,-0.004018,-0.00023700000000000001,-33.25,-23.870001000000002,-17.25,2d
2019-07-15_172622:780,-0.37674,-0.014740000000000001,-0.327423,-0.000643,-0.0035600000000000002,0.00016,-33.25,-23.870001000000002,-17.25,2d
2019-07-15_172622:800,-0.378754,-0.019318000000000002,-0.32843,-0.0006730000000000001,-0.0024920000000000003,6.8e-05,-33.25,-23.870001000000002,-17.25,2d
2019-07-15_172622:820,-0.37316900000000003,-0.021332,-0.333496,0.000273,-0.001454,0.00016,-33.25,-23.5,-16.5,2d
2019-07-15_172622:840,-0.371643,-0.022369,-0.33197,0.001524,-0.0009050000000000001,7.000000000000001e-06,-33.25,-23.5,-16.5,2d
2019-07-15_172622:860,-0.37265,-0.020325,-0.330963,0.002653,-0.000508,0.000221,-33.0,-23.870001000000002,-17.25,2d
2019-07-15_172622:880,-0.37316900000000003,-0.018799,-0.330963,0.003385,-5e-05,0.000496,-33.0,-23.870001000000002,-17.25,2d
2019-07-15_172622:900,-0.37112399999999995,-0.017792,-0.330963,0.003111,0.001201,0.000221,-33.0,-23.870001000000002,-17.25,2d
2019-07-15_172622:920,-0.37011700000000003,-0.017273,-0.32995599999999997,0.002409,0.001537,-0.000725,-33.0,-22.75,-16.5,2d
2019-07-15_172622:940,-0.37011700000000003,-0.018799,-0.32843,0.001585,0.001628,-0.001702,-33.0,-22.75,-16.5,2d
2019-07-15_172622:960,-0.37112399999999995,-0.018799,-0.327911,0.000883,0.001842,-0.002434,-33.0,-23.059998999999998,-17.559998999999998,2d
2019-07-15_172622:980,-0.37265,-0.020325,-0.32843,0.000547,0.002055,-0.00277,-33.0,-23.059998999999998,-17.559998999999998,2d
2019-07-15_172623:000,-0.372162,-0.020325,-0.32995599999999997,0.000151,0.002239,-0.002892,-33.0,-23.059998999999998,-17.559998999999998,2d
2019-07-15_172623:020,-0.371643,-0.018799,-0.328949,5.9e-05,0.0029100000000000003,-0.002892,-34.060001,-23.870001000000002,-17.25,2d
2019-07-15_172623:040,-0.371643,-0.016753999999999998,-0.327911,-0.000124,0.003368,-0.003228,-34.060001,-23.870001000000002,-17.25,2d
2019-07-15_172623:060,-0.37011700000000003,-0.015228,-0.326904,-0.000399,0.003703,-0.0029219999999999997,-31.75,-24.18,-17.559998999999998,2d
2019-07-15_172623:080,-0.37011700000000003,-0.014221000000000001,-0.325378,-0.000734,0.003917,-0.002373,-31.75,-24.18,-17.559998999999998,2d
2019-07-15_172623:100,-0.37112399999999995,-0.013213999999999998,-0.32486,-0.0014060000000000001,0.003917,-0.002098,-31.75,-24.18,-17.559998999999998,2d
2019-07-15_172623:120,-0.368073,-0.015228,-0.322845,-0.0021079999999999996,0.003886,-0.0013050000000000002,-32.560001,-24.18,-17.559998999999998,2d
2019-07-15_172623:140,-0.369598,-0.015747,-0.323334,-0.002443,0.003886,-0.0008470000000000001,-32.560001,-24.18,-17.559998999999998,2d
2019-07-15_172623:160,-0.37316900000000003,-0.01828,-0.322845,-0.002657,0.0035810000000000004,-0.000786,-33.25,-24.18,-18.059998999999998,2d
2019-07-15_172623:180,-0.36911,-0.018799,-0.323334,-0.002993,0.003703,-0.001183,-33.25,-24.18,-18.059998999999998,2d
2019-07-15_172623:200,-0.368591,-0.019318000000000002,-0.323853,-0.002932,0.0036420000000000003,-0.001702,-33.25,-24.18,-18.059998999999998,2d
2019-07-15_172623:220,-0.36654699999999996,-0.016753999999999998,-0.322845,-0.0031149999999999997,0.003032,-0.001702,-33.0,-23.5,-16.870001000000002,2d
2019-07-15_172623:240,-0.369598,-0.015747,-0.322845,-0.002932,0.002391,-0.001854,-33.0,-23.5,-16.870001000000002,2d
2019-07-15_172623:260,-0.36911,-0.013702,-0.323334,-0.0031149999999999997,0.001964,-0.002098,-33.25,-23.870001000000002,-17.25,2d
2019-07-15_172623:280,-0.36911,-0.011687999999999999,-0.32486,-0.003512,0.001628,-0.000908,-33.25,-23.870001000000002,-17.25,2d
2019-07-15_172623:300,-0.36706500000000003,-0.010651,-0.325378,-0.004397,0.001201,-0.000634,-33.25,-23.870001000000002,-17.25,2d
2019-07-15_172623:320,-0.368591,-0.011169,-0.325378,-0.0048850000000000005,0.000407,-0.000786,-33.25,-23.870001000000002,-17.559998999999998,2d
2019-07-15_172623:340,-0.37265,-0.012695,-0.325378,-0.005465,-5e-05,-0.001366,-33.25,-23.870001000000002,-17.559998999999998,2d
2019-07-15_172623:360,-0.37316900000000003,-0.014221000000000001,-0.328949,-0.005953,-0.00011100000000000001,-0.000328,-32.560001,-23.870001000000002,-18.059998999999998,2d
2019-07-15_172623:380,-0.372162,-0.014740000000000001,-0.325378,-0.006014,-0.00011100000000000001,0.00016,-32.560001,-23.870001000000002,-18.059998999999998,2d
2019-07-15_172623:400,-0.37112399999999995,-0.011687999999999999,-0.326904,-0.006075,0.00016299999999999998,6.8e-05,-32.560001,-23.870001000000002,-18.059998999999998,2d
2019-07-15_172623:420,-0.37011700000000003,-0.012695,-0.323853,-0.0058,0.000468,0.000496,-32.560001,-23.870001000000002,-18.059998999999998,2d
2019-07-15_172623:440,-0.368591,-0.011169,-0.323334,-0.005922,0.0008960000000000001,0.0008619999999999999,-32.560001,-23.870001000000002,-18.059998999999998,2d
2019-07-15_172623:460,-0.36911,-0.011169,-0.325378,-0.006075,0.000743,0.001381,-31.75,-23.870001000000002,-17.25,2d
2019-07-15_172623:480,-0.369598,-0.011169,-0.321808,-0.006136,0.000468,0.002113,-31.75,-23.870001000000002,-17.25,2d
2019-07-15_172623:500,-0.37011700000000003,-0.013213999999999998,-0.325378,-0.006319,0.000133,0.002449,-31.75,-23.870001000000002,-17.25,2d
2019-07-15_172623:520,-0.36911,-0.013702,-0.32486,-0.006197,7.2e-05,0.003151,-32.560001,-24.18,-17.559998999999998,2d
2019-07-15_172623:540,-0.370636,-0.014221000000000001,-0.32486,-0.006075,-0.000233,0.003242,-32.560001,-24.18,-17.559998999999998,2d
2019-07-15_172623:560,-0.373688,-0.016266,-0.327423,-0.005739,-5e-05,0.002449,-33.0,-23.870001000000002,-18.5,2d
2019-07-15_172623:580,-0.37112399999999995,-0.017273,-0.326904,-0.005678,7.2e-05,0.002052,-33.0,-23.870001000000002,-18.5,2d
2019-07-15_172623:600,-0.372162,-0.015228,-0.329437,-0.005282,0.000346,0.001777,-33.0,-23.870001000000002,-18.5,2d
2019-07-15_172623:620,-0.372162,-0.014740000000000001,-0.331482,-0.0051600000000000005,0.0009570000000000001,0.0021739999999999997,-33.25,-23.5,-17.559998999999998,2d
2019-07-15_172623:640,-0.370636,-0.011687999999999999,-0.32995599999999997,-0.005282,0.0017809999999999998,0.00196,-33.25,-23.5,-17.559998999999998,2d
2019-07-15_172623:660,-0.368073,-0.010651,-0.330963,-0.005343,0.00172,0.00251,-33.0,-23.870001000000002,-17.559998999999998,2d
2019-07-15_172623:680,-0.363007,-0.009644,-0.330963,-0.006014,0.00114,0.002845,-33.0,-23.870001000000002,-17.559998999999998,2d
2019-07-15_172623:700,-0.36044299999999996,-0.006072999999999999,-0.330963,-0.006869,0.000285,0.0037,-33.0,-23.870001000000002,-17.559998999999998,2d
2019-07-15_172623:720,-0.365021,-0.008636,-0.330475,-0.007998,-0.000233,0.004615,-32.560001,-23.870001000000002,-17.559998999999998,2d
2019-07-15_172623:740,-0.368591,-0.010162000000000001,-0.331482,-0.009004999999999999,-0.000264,0.004768,-32.560001,-23.870001000000002,-17.559998999999998,2d
2019-07-15_172623:760,-0.368073,-0.012695,-0.332489,-0.009859,-0.000172,0.005226,-33.0,-23.5,-18.059998999999998,2d
2019-07-15_172623:780,-0.368073,-0.016753999999999998,-0.32995599999999997,-0.010378,1.1e-05,0.005226,-33.0,-23.5,-18.059998999999998,2d
2019-07-15_172623:800,-0.378265,-0.019318000000000002,-0.327911,-0.010317,0.000499,0.005226,-33.0,-23.5,-18.059998999999998,2d
2019-07-15_172623:820,-0.381317,-0.022369,-0.326385,-0.009585,0.001964,0.005104,-33.0,-24.18,-18.059998999999998,2d
2019-07-15_172623:840,-0.380798,-0.022858,-0.325897,-0.008791,0.0031850000000000003,0.004036,-33.0,-24.18,-18.059998999999998,2d
2019-07-15_172623:860,-0.37674,-0.022369,-0.32486,-0.007479,0.004161,0.002693,-33.68,-23.870001000000002,-16.5,2d
2019-07-15_172623:880,-0.37674,-0.022858,-0.322845,-0.00635,0.004314,0.001167,-33.68,-23.870001000000002,-16.5,2d
2019-07-15_172623:900,-0.373688,-0.021851,-0.322327,-0.005007,0.004771,7.000000000000001e-06,-33.68,-23.870001000000002,-16.5,2d
2019-07-15_172623:920,-0.368591,-0.018799,-0.320282,-0.0037560000000000002,0.004954999999999999,-0.0009689999999999999,-33.25,-24.559998999999998,-16.870001000000002,2d
2019-07-15_172623:940,-0.36349499999999996,-0.014740000000000001,-0.320801,-0.0029010000000000004,0.004161,-0.00216,-33.25,-24.559998999999998,-16.870001000000002,2d
2019-07-15_172623:960,-0.36349499999999996,-0.009644,-0.322845,-0.0025050000000000003,0.003246,-0.002648,-33.68,-23.870001000000002,-17.25,2d
2019-07-15_172623:980,-0.366058,-0.006592,-0.320801,-0.002321,0.002513,-0.002373,-33.68,-23.870001000000002,-17.25,2d
2019-07-15_172624:000,-0.365021,-0.0030210000000000002,-0.32486,-0.0028399999999999996,0.002177,-0.0021899999999999997,-33.68,-23.870001000000002,-17.25,2d
2019-07-15_172624:020,-0.365021,-0.001007,-0.324371,-0.0033280000000000002,0.001628,-0.001366,-33.25,-23.870001000000002,-15.68,2d
2019-07-15_172624:040,-0.366058,-0.001495,-0.32486,-0.004488000000000001,0.000865,-0.000908,-33.25,-23.870001000000002,-15.68,2d
2019-07-15_172624:060,-0.368073,-0.001495,-0.32486,-0.005465,0.000468,0.000465,-33.0,-24.18,-17.559998999999998,2d
2019-07-15_172624:080,-0.36911,-0.004547,-0.324371,-0.006319,-0.000264,0.0022960000000000003,-33.0,-24.18,-17.559998999999998,2d
2019-07-15_172624:100,-0.372162,-0.008636,-0.32486,-0.006869,-0.00044699999999999997,0.002967,-33.0,-24.18,-17.559998999999998,2d
2019-07-15_172624:120,-0.374695,-0.013213999999999998,-0.327423,-0.006745999999999999,0.000285,0.00309,-32.560001,-25.0,-16.870001000000002,2d
2019-07-15_172624:140,-0.374695,-0.015747,-0.327911,-0.00635,0.00056,0.002845,-32.560001,-25.0,-16.870001000000002,2d
2019-07-15_172624:160,-0.37265,-0.018799,-0.327423,-0.005922,0.000865,0.0022960000000000003,-33.25,-23.870001000000002,-16.870001000000002,2d
2019-07-15_172624:180,-0.374176,-0.019318000000000002,-0.325897,-0.004793,0.0012619999999999999,0.001503,-33.25,-23.870001000000002,-16.870001000000002,2d
2019-07-15_172624:200,-0.374176,-0.017792,-0.325897,-0.00403,0.0016589999999999999,0.000496,-33.25,-23.870001000000002,-16.870001000000002,2d
2019-07-15_172624:220,-0.376221,-0.015747,-0.327423,-0.0031149999999999997,0.002177,6.8e-05,-33.0,-23.870001000000002,-17.25,2d
2019-07-15_172624:240,-0.372162,-0.015747,-0.326385,-0.002169,0.002788,-0.0008470000000000001,-33.0,-23.870001000000002,-17.25,2d
2019-07-15_172624:260,-0.36911,-0.012177,-0.325378,-0.0015279999999999998,0.0029100000000000003,-0.001366,-33.25,-23.5,-17.559998999999998,2d
2019-07-15_172624:280,-0.37011700000000003,-0.009644,-0.322327,-0.001192,0.002757,-0.001458,-33.25,-23.5,-17.559998999999998,2d
2019-07-15_172624:300,-0.37011700000000003,-0.006072999999999999,-0.324371,-0.0014060000000000001,0.002574,-0.001702,-33.25,-23.5,-17.559998999999998,2d
2019-07-15_172624:320,-0.376221,-0.007111,-0.323334,-0.0015279999999999998,0.0024519999999999998,-0.001366,-33.25,-23.870001000000002,-16.870001000000002,2d
2019-07-15_172624:340,-0.377747,-0.007111,-0.319794,-0.0021079999999999996,0.002971,-0.000908,-33.25,-23.870001000000002,-16.870001000000002,2d
2019-07-15_172624:360,-0.36911,-0.006072999999999999,-0.320282,-0.0025050000000000003,0.0034289999999999998,0.000129,-31.75,-23.870001000000002,-17.25,2d
2019-07-15_172624:380,-0.363007,-0.006592,-0.321808,-0.003054,0.002788,0.001106,-31.75,-23.870001000000002,-17.25,2d
2019-07-15_172624:400,-0.365021,-0.006072999999999999,-0.325378,-0.003573,0.0014759999999999999,0.000587,-31.75,-23.870001000000002,-17.25,2d
2019-07-15_172624:420,-0.369598,-0.0055850000000000006,-0.326385,-0.003939,0.000346,-0.00023700000000000001,-33.68,-24.18,-16.870001000000002,2d
2019-07-15_172624:440,-0.37011700000000003,-0.005065999999999999,-0.327423,-0.004549,0.000285,0.000221,-33.68,-24.18,-16.870001000000002,2d
2019-07-15_172624:460,-0.373688,-0.005065999999999999,-0.327423,-0.005129,0.000468,0.000984,-32.18,-23.870001000000002,-18.059998999999998,2d
2019-07-15_172624:480,-0.373688,-0.004547,-0.326904,-0.005526,0.001353,0.001655,-32.18,-23.870001000000002,-18.059998999999998,2d
2019-07-15_172624:500,-0.370636,-0.006072999999999999,-0.325378,-0.005861,0.002116,0.00196,-32.18,-23.870001000000002,-18.059998999999998,2d
2019-07-15_172624:520,-0.36911,-0.007111,-0.327423,-0.006136,0.002391,0.002357,-33.25,-25.0,-16.059998999999998,2d
2019-07-15_172624:540,-0.368073,-0.009125,-0.327423,-0.00635,0.002055,0.003242,-33.25,-25.0,-16.059998999999998,2d
2019-07-15_172624:560,-0.37112399999999995,-0.009644,-0.327423,-0.0064719999999999995,0.0019030000000000002,0.003303,-34.060001,-24.559998999999998,-17.559998999999998,2d
2019-07-15_172624:580,-0.37265,-0.008636,-0.325378,-0.006533,0.002177,0.00309,-34.060001,-24.559998999999998,-17.559998999999998,2d
2019-07-15_172624:600,-0.37265,-0.009644,-0.326904,-0.006594,0.002391,0.003151,-34.060001,-24.559998999999998,-17.559998999999998,2d
2019-07-15_172624:620,-0.36911,-0.011169,-0.326385,-0.0069299999999999995,0.002391,0.0033640000000000002,-32.560001,-23.5,-16.059998999999998,2d
2019-07-15_172624:640,-0.368073,-0.010651,-0.326385,-0.007143000000000001,0.002116,0.002967,-32.560001,-23.5,-16.059998999999998,2d
2019-07-15_172624:660,-0.37011700000000003,-0.011169,-0.325378,-0.007051999999999999,0.001415,0.002784,-32.560001,-24.18,-17.25,2d
2019-07-15_172624:680,-0.37265,-0.013702,-0.324371,-0.006991,0.00172,0.002357,-32.560001,-24.18,-17.25,2d
2019-07-15_172624:700,-0.37265,-0.011687999999999999,-0.326385,-0.006594,0.001964,0.0022960000000000003,-32.560001,-24.18,-17.25,2d
2019-07-15_172624:720,-0.37011700000000003,-0.012695,-0.326904,-0.006319,0.0023,0.001991,-33.25,-24.559998999999998,-16.870001000000002,2d
2019-07-15_172624:740,-0.369598,-0.010162000000000001,-0.326385,-0.006136,0.002055,0.001625,-33.25,-24.559998999999998,-16.870001000000002,2d
2019-07-15_172624:760,-0.368073,-0.009644,-0.324371,-0.005465,0.001842,0.0021739999999999997,-33.0,-24.18,-17.25,2d
2019-07-15_172624:780,-0.369598,-0.009125,-0.325378,-0.005526,0.001353,0.0018989999999999999,-33.0,-24.18,-17.25,2d
2019-07-15_172624:800,-0.37112399999999995,-0.009125,-0.326385,-0.0051600000000000005,0.0010789999999999999,0.001991,-33.0,-24.18,-17.25,2d
2019-07-15_172624:820,-0.37265,-0.010162000000000001,-0.327911,-0.0048850000000000005,0.001415,0.00196,-33.0,-24.559998999999998,-17.25,2d
2019-07-15_172624:840,-0.374176,-0.007599,-0.325897,-0.005007,0.0016589999999999999,0.002052,-33.0,-24.559998999999998,-17.25,2d
2019-07-15_172624:860,-0.371643,-0.0055850000000000006,-0.324371,-0.005007,0.001994,0.0029059999999999997,-34.5,-23.870001000000002,-16.870001000000002,2d
2019-07-15_172624:880,-0.374695,-0.006072999999999999,-0.324371,-0.005404,0.002361,0.002845,-34.5,-23.870001000000002,-16.870001000000002,2d
2019-07-15_172624:900,-0.371643,-0.007599,-0.325378,-0.005922,0.002696,0.0030280000000000003,-34.5,-23.870001000000002,-16.870001000000002,2d
2019-07-15_172624:920,-0.37265,-0.008118,-0.325378,-0.006075,0.002788,0.003151,-33.25,-23.870001000000002,-17.25,2d
2019-07-15_172624:940,-0.372162,-0.010162000000000001,-0.324371,-0.006258,0.002696,0.002693,-33.25,-23.870001000000002,-17.25,2d
2019-07-15_172624:960,-0.37316900000000003,-0.010651,-0.325378,-0.006014,0.002849,0.00309,-33.68,-23.870001000000002,-16.5,2d
2019-07-15_172624:980,-0.374176,-0.013213999999999998,-0.324371,-0.0058,0.003093,0.003151,-33.68,-23.870001000000002,-16.5,2d
2019-07-15_172625:000,-0.374695,-0.013702,-0.32486,-0.0056170000000000005,0.003307,0.002845,-33.68,-23.870001000000002,-16.5,2d
2019-07-15_172625:020,-0.374176,-0.013213999999999998,-0.323853,-0.005343,0.00349,0.00251,-33.68,-24.18,-15.68,2d
2019-07-15_172625:040,-0.374176,-0.012695,-0.322327,-0.005465,0.003825,0.002052,-33.68,-24.18,-15.68,2d
2019-07-15_172625:060,-0.374176,-0.014221000000000001,-0.322845,-0.005221,0.003917,0.001838,-34.5,-23.870001000000002,-16.059998999999998,2d
2019-07-15_172625:080,-0.373688,-0.015747,-0.322845,-0.0048850000000000005,0.003917,0.001381,-34.5,-23.870001000000002,-16.059998999999998,2d
2019-07-15_172625:100,-0.374695,-0.014740000000000001,-0.32132,-0.004488000000000001,0.003886,0.000221,-34.5,-23.870001000000002,-16.059998999999998,2d
2019-07-15_172625:120,-0.376221,-0.014740000000000001,-0.322845,-0.004091,0.004161,-5.4000000000000005e-05,-34.060001,-23.870001000000002,-15.25,2d
2019-07-15_172625:140,-0.374695,-0.013702,-0.322327,-0.0037560000000000002,0.004375,-0.000634,-34.060001,-23.870001000000002,-15.25,2d
2019-07-15_172625:160,-0.376221,-0.013213999999999998,-0.322327,-0.003573,0.004436,-0.001,-33.68,-24.18,-15.68,2d
2019-07-15_172625:180,-0.377228,-0.011169,-0.319275,-0.0031149999999999997,0.004619,-0.000908,-33.68,-24.18,-15.68,2d
2019-07-15_172625:200,-0.375702,-0.011169,-0.319275,-0.0028399999999999996,0.004954999999999999,-0.0009689999999999999,-33.68,-24.18,-15.68,2d
2019-07-15_172625:220,-0.375702,-0.009125,-0.319275,-0.002535,0.005046,-0.001,-34.060001,-23.870001000000002,-16.059998999999998,2d
2019-07-15_172625:240,-0.37674,-0.008636,-0.318756,-0.002535,0.005107,-0.000664,-34.060001,-23.870001000000002,-16.059998999999998,2d
2019-07-15_172625:260,-0.375214,-0.008636,-0.320282,-0.0028399999999999996,0.005168,-0.000267,-34.5,-23.870001000000002,-15.68,2d
2019-07-15_172625:280,-0.376221,-0.007111,-0.315704,-0.003237,0.004894,-0.00045099999999999996,-34.5,-23.870001000000002,-15.68,2d
2019-07-15_172625:300,-0.37674,-0.008118,-0.314697,-0.003573,0.004436,-0.000634,-34.5,-23.870001000000002,-15.68,2d
2019-07-15_172625:320,-0.378265,-0.008636,-0.315216,-0.003573,0.0042829999999999995,-0.000634,-33.68,-23.870001000000002,-15.68,2d
2019-07-15_172625:340,-0.379272,-0.009644,-0.314178,-0.0037560000000000002,0.003978,-0.0008470000000000001,-33.68,-23.870001000000002,-15.68,2d
2019-07-15_172625:360,-0.37674,-0.009125,-0.31369,-0.0036950000000000004,0.0041,-0.000725,-34.5,-24.559998999999998,-15.25,2d
2019-07-15_172625:380,-0.378265,-0.010651,-0.315704,-0.003573,0.0036420000000000003,-0.000512,-34.5,-24.559998999999998,-15.25,2d
2019-07-15_172625:400,-0.38028,-0.010162000000000001,-0.317749,-0.002932,0.00349,-0.000664,-34.5,-24.559998999999998,-15.25,2d
2019-07-15_172625:420,-0.386383,-0.009644,-0.315704,-0.0022600000000000003,0.00352,-0.0013050000000000002,-34.060001,-23.870001000000002,-15.68,2d
2019-07-15_172625:440,-0.387909,-0.008636,-0.315216,-0.0021079999999999996,0.004497,-0.000267,-34.060001,-23.870001000000002,-15.68,2d
2019-07-15_172625:460,-0.382324,-0.008636,-0.316223,-0.0017109999999999998,0.00584,0.000496,-34.5,-23.870001000000002,-16.059998999999998,2d
2019-07-15_172625:480,-0.384338,-0.007599,-0.315704,-0.001925,0.006175,0.00016,-34.5,-23.870001000000002,-16.059998999999998,2d
2019-07-15_172625:500,-0.387909,-0.008118,-0.315704,-0.001986,0.006145,-0.0011220000000000002,-34.5,-23.870001000000002,-16.059998999999998,2d
2019-07-15_172625:520,-0.385376,-0.006592,-0.314178,-0.0021079999999999996,0.006633,-0.000573,-34.060001,-23.870001000000002,-15.25,2d
2019-07-15_172625:540,-0.385376,-0.008636,-0.310638,-0.0022600000000000003,0.007091,0.000496,-34.060001,-23.870001000000002,-15.25,2d
2019-07-15_172625:560,-0.38028,-0.007599,-0.308594,-0.002932,0.007488,-0.000267,-34.060001,-23.870001000000002,-13.68,2d
2019-07-15_172625:580,-0.375214,-0.006072999999999999,-0.303528,-0.0034509999999999996,0.0069689999999999995,-0.00023700000000000001,-34.060001,-23.870001000000002,-13.68,2d
2019-07-15_172625:600,-0.374695,-0.005065999999999999,-0.304535,-0.003878,0.00584,0.00016,-34.060001,-23.870001000000002,-13.68,2d
2019-07-15_172625:620,-0.375214,-0.006072999999999999,-0.304535,-0.004213000000000001,0.004619,0.000404,-34.5,-24.18,-16.059998999999998,2d
2019-07-15_172625:640,-0.377228,-0.0055850000000000006,-0.30300900000000003,-0.004793,0.003093,0.000709,-34.5,-24.18,-16.059998999999998,2d
2019-07-15_172625:660,-0.379791,-0.008636,-0.304016,-0.0048850000000000005,0.001964,0.000526,-34.5,-24.559998999999998,-15.25,2d
2019-07-15_172625:680,-0.383331,-0.007599,-0.304535,-0.004824,0.001353,0.00028199999999999997,-34.5,-24.559998999999998,-15.25,2d
2019-07-15_172625:700,-0.382812,-0.007599,-0.307587,-0.004397,0.000682,0.000648,-34.5,-24.559998999999998,-15.25,2d
2019-07-15_172625:720,-0.387909,-0.008636,-0.308075,-0.00403,0.000468,0.0008619999999999999,-34.75,-23.870001000000002,-15.25,2d
2019-07-15_172625:740,-0.385376,-0.009644,-0.308075,-0.003664,0.001018,0.0008619999999999999,-34.75,-23.870001000000002,-15.25,2d
2019-07-15_172625:760,-0.384338,-0.007111,-0.31012,-0.0034509999999999996,0.0010789999999999999,0.001381,-33.68,-23.870001000000002,-15.25,2d
2019-07-15_172625:780,-0.380798,-0.006592,-0.308075,-0.003176,0.001292,0.002113,-33.68,-23.870001000000002,-15.25,2d
2019-07-15_172625:800,-0.38385,-0.006072999999999999,-0.31012,-0.003237,0.000743,0.000465,-33.68,-23.870001000000002,-15.25,2d
2019-07-15_172625:820,-0.38385,-0.008118,-0.310638,-0.002932,0.000133,0.000831,-34.5,-24.18,-14.06,2d
2019-07-15_172625:840,-0.382812,-0.009125,-0.31012,-0.002993,1.1e-05,0.001716,-34.5,-24.18,-14.06,2d
2019-07-15_172625:860,-0.38385,-0.012177,-0.31012,-0.0034509999999999996,-0.000233,0.001564,-34.5,-23.870001000000002,-15.68,2d
2019-07-15_172625:880,-0.386383,-0.013702,-0.310638,-0.003237,-0.00011100000000000001,0.00132,-34.5,-23.870001000000002,-15.68,2d
2019-07-15_172625:900,-0.385376,-0.013702,-0.31012,-0.002932,0.00016299999999999998,6.8e-05,-34.5,-23.870001000000002,-15.68,2d
2019-07-15_172625:920,-0.388916,-0.014221000000000001,-0.311127,-0.0025050000000000003,0.0008039999999999999,-0.000664,-34.5,-23.870001000000002,-15.25,2d
2019-07-15_172625:940,-0.388428,-0.013213999999999998,-0.31012,-0.001925,0.001353,-0.001366,-34.5,-23.870001000000002,-15.25,2d
2019-07-15_172625:960,-0.384857,-0.012695,-0.31012,-0.001192,0.002116,-0.0019760000000000003,-34.060001,-24.18,-15.68,2d
2019-07-15_172625:980,-0.381805,-0.013213999999999998,-0.308594,-0.0006730000000000001,0.0024519999999999998,-0.002434,-34.060001,-24.18,-15.68,2d
2019-07-15_172626:000,-0.38028,-0.013213999999999998,-0.31012,0.000212,0.002391,-0.003045,-34.060001,-24.18,-15.68,2d
2019-07-15_172626:020,-0.380798,-0.012695,-0.309113,0.00073,0.002361,-0.0033799999999999998,-34.060001,-25.0,-14.5,2d
2019-07-15_172626:040,-0.383331,-0.012177,-0.307587,0.00128,0.001994,-0.0032890000000000003,-34.060001,-25.0,-14.5,2d
2019-07-15_172626:060,-0.384338,-0.012177,-0.309113,0.001982,0.001994,-0.0035020000000000003,-33.25,-24.559998999999998,-15.25,2d
2019-07-15_172626:080,-0.381805,-0.011687999999999999,-0.307068,0.002195,0.002055,-0.004052,-33.25,-24.559998999999998,-15.25,2d
2019-07-15_172626:100,-0.380798,-0.009644,-0.307068,0.002653,0.002361,-0.005089,-33.25,-24.559998999999998,-15.25,2d
2019-07-15_172626:120,-0.378754,-0.008118,-0.309601,0.002531,0.0019030000000000002,-0.006431999999999999,-34.060001,-23.870001000000002,-15.25,2d
2019-07-15_172626:140,-0.378265,-0.006072999999999999,-0.308075,0.002317,0.0012619999999999999,-0.007164,-34.060001,-23.870001000000002,-15.25,2d
2019-07-15_172626:160,-0.377747,-0.006072999999999999,-0.308075,0.002378,0.000621,-0.00747,-33.25,-24.18,-14.87,2d
2019-07-15_172626:180,-0.38028,-0.005065999999999999,-0.30654899999999996,0.00247,0.000407,-0.007225,-33.25,-24.18,-14.87,2d
2019-07-15_172626:200,-0.379791,-0.0025329999999999997,-0.309113,0.0027140000000000003,0.000133,-0.00689,-33.25,-24.18,-14.87,2d
2019-07-15_172626:220,-0.379791,-0.0030210000000000002,-0.31012,0.002867,-0.000386,-0.006706999999999999,-34.060001,-24.18,-15.25,2d
2019-07-15_172626:240,-0.380798,-0.002014,-0.311646,0.0032020000000000004,-0.00063,-0.006035,-34.060001,-24.18,-15.25,2d
2019-07-15_172626:260,-0.381805,-0.001007,-0.311127,0.0034460000000000003,-0.0009660000000000001,-0.00457,-33.68,-24.559998999999998,-15.68,2d
2019-07-15_172626:280,-0.384857,0.000488,-0.312164,0.0032630000000000003,-0.0005690000000000001,-0.0028309999999999997,-33.68,-24.559998999999998,-15.68,2d
2019-07-15_172626:300,-0.380798,0.002014,-0.31369,0.002073,-0.0005690000000000001,-0.001366,-33.68,-24.559998999999998,-15.68,2d
2019-07-15_172626:320,-0.38028,0.001007,-0.313171,0.001127,-0.0007830000000000001,-0.000389,-33.0,-24.18,-16.870001000000002,2d
2019-07-15_172626:340,-0.38028,-0.0030210000000000002,-0.316223,-0.000246,-0.001454,6.8e-05,-33.0,-24.18,-16.870001000000002,2d
2019-07-15_172626:360,-0.380798,-0.005065999999999999,-0.316742,-0.001467,-0.001698,0.00028199999999999997,-33.68,-25.0,-15.68,2d
2019-07-15_172626:380,-0.386383,-0.012695,-0.316223,-0.002199,-0.001576,0.000831,-33.68,-25.0,-15.68,2d
2019-07-15_172626:400,-0.386383,-0.012177,-0.316223,-0.002535,-0.0005690000000000001,0.000923,-33.68,-25.0,-15.68,2d
2019-07-15_172626:420,-0.386902,-0.014221000000000001,-0.317749,-0.002169,0.00022400000000000002,0.0007700000000000001,-33.25,-23.5,-16.870001000000002,2d
2019-07-15_172626:440,-0.38385,-0.016266,-0.314697,-0.0017109999999999998,0.0008960000000000001,0.0007700000000000001,-33.25,-23.5,-16.870001000000002,2d
2019-07-15_172626:460,-0.384338,-0.016266,-0.314178,-0.000918,0.001292,0.001045,-33.25,-24.559998999999998,-16.870001000000002,2d
2019-07-15_172626:480,-0.38028,-0.016266,-0.312653,-0.000399,0.001018,0.001228,-33.25,-24.559998999999998,-16.870001000000002,2d
2019-07-15_172626:500,-0.379791,-0.015228,-0.307587,-2e-06,0.000621,0.0008619999999999999,-33.25,-24.559998999999998,-16.870001000000002,2d
2019-07-15_172626:520,-0.378265,-0.012695,-0.307587,0.00011999999999999999,0.000499,0.001167,-33.0,-24.18,-16.5,2d
2019-07-15_172626:540,-0.378265,-0.011687999999999999,-0.30654899999999996,-0.000338,-0.000386,0.001625,-33.0,-24.18,-16.5,2d
2019-07-15_172626:560,-0.378265,-0.009644,-0.312164,-0.000734,-0.0009050000000000001,0.000831,-33.68,-24.18,-16.5,2d
2019-07-15_172626:580,-0.378754,-0.008636,-0.312653,-0.0015279999999999998,-0.001393,-0.00011499999999999999,-33.68,-24.18,-16.5,2d
2019-07-15_172626:600,-0.378265,-0.007599,-0.31369,-0.002779,-0.001302,-0.000328,-33.68,-24.18,-16.5,2d
2019-07-15_172626:620,-0.376221,-0.0055850000000000006,-0.315216,-0.004,-0.001393,7.000000000000001e-06,-33.68,-23.870001000000002,-17.25,2d
2019-07-15_172626:640,-0.377747,-0.008118,-0.314697,-0.004824,-0.00124,-0.000573,-33.68,-23.870001000000002,-17.25,2d
2019-07-15_172626:660,-0.375702,-0.010162000000000001,-0.318756,-0.005526,-0.001057,-0.000725,-33.0,-24.559998999999998,-16.870001000000002,2d
2019-07-15_172626:680,-0.375214,-0.010651,-0.319794,-0.005465,-0.001363,-0.000725,-33.0,-24.559998999999998,-16.870001000000002,2d
2019-07-15_172626:700,-0.374176,-0.010651,-0.319794,-0.005068,-0.001454,-0.000573,-33.0,-24.559998999999998,-16.870001000000002,2d
2019-07-15_172626:720,-0.372162,-0.010651,-0.320282,-0.004488000000000001,-0.001759,-0.00011499999999999999,-32.560001,-24.559998999999998,-17.559998999999998,2d
2019-07-15_172626:740,-0.374695,-0.009125,-0.317749,-0.004152,-0.001576,0.000221,-32.560001,-24.559998999999998,-17.559998999999998,2d
2019-07-15_172626:760,-0.376221,-0.007111,-0.320801,-0.004336,-0.00124,0.000587,-32.560001,-24.18,-17.25,2d
2019-07-15_172626:780,-0.374176,-0.007111,-0.322327,-0.004397,-0.001118,0.000831,-32.560001,-24.18,-17.25,2d
2019-07-15_172626:800,-0.36911,-0.0055850000000000006,-0.322845,-0.00461,-0.001576,0.0008619999999999999,-32.560001,-24.18,-17.25,2d
2019-07-15_172626:820,-0.371643,-0.005065999999999999,-0.323334,-0.004793,-0.001698,0.0007700000000000001,-31.75,-23.870001000000002,-16.059998999999998,2d
2019-07-15_172626:840,-0.378754,-0.006592,-0.32132,-0.005221,-0.000722,0.000831,-31.75,-23.870001000000002,-16.059998999999998,2d
2019-07-15_172626:860,-0.377228,-0.005065999999999999,-0.32486,-0.005556,-0.000325,0.001045,-33.25,-24.18,-16.870001000000002,2d
2019-07-15_172626:880,-0.374695,-0.006592,-0.325897,-0.005953,0.000621,0.0008619999999999999,-33.25,-24.18,-16.870001000000002,2d
2019-07-15_172626:900,-0.374695,-0.007599,-0.325378,-0.006197,0.00056,0.000496,-33.25,-24.18,-16.870001000000002,2d
2019-07-15_172626:920,-0.374695,-0.008636,-0.324371,-0.006136,0.00114,0.000831,-32.18,-25.0,-16.870001000000002,2d
2019-07-15_172626:940,-0.374176,-0.009644,-0.32132,-0.006075,0.00114,0.0008619999999999999,-32.18,-25.0,-16.870001000000002,2d
2019-07-15_172626:960,-0.37316900000000003,-0.007599,-0.321808,-0.005861,0.001201,0.001228,-32.560001,-24.18,-17.559998999999998,2d
2019-07-15_172626:980,-0.374695,-0.008636,-0.320282,-0.0058,0.001353,0.001258,-32.560001,-24.18,-17.559998999999998,2d
2019-07-15_172627:000,-0.374176,-0.007111,-0.32132,-0.006258,0.001353,0.001228,-32.560001,-24.18,-17.559998999999998,2d
2019-07-15_172627:020,-0.37265,-0.006592,-0.32486,-0.006319,0.001537,0.001228,-33.25,-23.870001000000002,-17.25,2d
2019-07-15_172627:040,-0.37265,-0.008636,-0.322845,-0.006258,0.0009570000000000001,0.001228,-33.25,-23.870001000000002,-17.25,2d
2019-07-15_172627:060,-0.373688,-0.009125,-0.323334,-0.006075,0.001018,0.001381,-33.0,-24.559998999999998,-16.5,2d
2019-07-15_172627:080,-0.374176,-0.011687999999999999,-0.323334,-0.005343,0.0009570000000000001,0.001564,-33.0,-24.559998999999998,-16.5,2d
2019-07-15_172627:100,-0.371643,-0.010162000000000001,-0.32132,-0.004549,0.0008039999999999999,0.00196,-33.0,-24.559998999999998,-16.5,2d
2019-07-15_172627:120,-0.373688,-0.008118,-0.324371,-0.004152,0.000682,0.0026320000000000002,-31.5,-24.559998999999998,-17.559998999999998,2d
2019-07-15_172627:140,-0.372162,-0.008118,-0.323334,-0.004152,0.0008960000000000001,0.00309,-31.5,-24.559998999999998,-17.559998999999998,2d
2019-07-15_172627:160,-0.377228,-0.007111,-0.324371,-0.004213000000000001,0.00114,0.003425,-33.25,-24.559998999999998,-17.25,2d
2019-07-15_172627:180,-0.378265,-0.008118,-0.326385,-0.0048850000000000005,0.001964,0.003517,-33.25,-24.559998999999998,-17.25,2d
2019-07-15_172627:200,-0.374695,-0.009125,-0.325897,-0.005343,0.002361,0.003639,-33.25,-24.559998999999998,-17.25,2d
2019-07-15_172627:220,-0.375702,-0.010162000000000001,-0.325378,-0.005343,0.002361,0.003639,-33.25,-24.559998999999998,-17.25,2d
2019-07-15_172627:240,-0.375214,-0.013213999999999998,-0.322845,-0.0058,0.002391,0.00309,-33.25,-24.559998999999998,-17.25,2d
2019-07-15_172627:260,-0.37316900000000003,-0.014221000000000001,-0.32132,-0.0056170000000000005,0.002391,0.0030280000000000003,-31.75,-23.870001000000002,-17.25,2d
2019-07-15_172627:280,-0.369598,-0.014740000000000001,-0.319794,-0.005221,0.0019030000000000002,0.0029059999999999997,-31.75,-23.870001000000002,-17.25,2d
2019-07-15_172627:300,-0.372162,-0.014740000000000001,-0.321808,-0.0048850000000000005,0.0019030000000000002,0.002845,-31.75,-23.870001000000002,-17.25,2d
2019-07-15_172627:320,-0.371643,-0.016753999999999998,-0.323853,-0.004793,0.001842,0.0026320000000000002,-32.560001,-24.559998999999998,-16.870001000000002,2d
2019-07-15_172627:340,-0.374176,-0.013213999999999998,-0.323853,-0.004549,0.0016589999999999999,0.002052,-32.560001,-24.559998999999998,-16.870001000000002,2d
2019-07-15_172627:360,-0.371643,-0.011169,-0.323853,-0.004671,0.001964,0.002235,-33.0,-23.870001000000002,-16.870001000000002,2d
2019-07-15_172627:380,-0.370636,-0.010651,-0.325378,-0.0048850000000000005,0.001842,0.0022960000000000003,-33.0,-23.870001000000002,-16.870001000000002,2d
2019-07-15_172627:400,-0.37265,-0.009644,-0.324371,-0.005221,0.001537,0.0022960000000000003,-33.0,-23.870001000000002,-16.870001000000002,2d
2019-07-15_172627:420,-0.375702,-0.010651,-0.325378,-0.005282,0.0016589999999999999,0.002449,-32.18,-24.18,-16.870001000000002,2d
2019-07-15_172627:440,-0.378265,-0.012177,-0.325378,-0.005343,0.002391,0.002784,-32.18,-24.18,-16.870001000000002,2d
2019-07-15_172627:460,-0.37674,-0.012695,-0.325378,-0.005221,0.002757,0.0026320000000000002,-33.25,-24.18,-16.870001000000002,2d
2019-07-15_172627:480,-0.37011700000000003,-0.011687999999999999,-0.32486,-0.005129,0.0029100000000000003,0.002845,-33.25,-24.18,-16.870001000000002,2d
2019-07-15_172627:500,-0.36911,-0.012177,-0.322327,-0.005068,0.002055,0.002845,-33.25,-24.18,-16.870001000000002,2d
2019-07-15_172627:520,-0.36706500000000003,-0.011687999999999999,-0.326385,-0.005007,0.001598,0.0029059999999999997,-33.25,-24.18,-17.25,2d
2019-07-15_172627:540,-0.37265,-0.010162000000000001,-0.325378,-0.005007,0.000743,0.003517,-33.25,-24.18,-17.25,2d
2019-07-15_172627:560,-0.377747,-0.010162000000000001,-0.329437,-0.005068,0.001018,0.003761,-33.25,-24.18,-17.25,2d
2019-07-15_172627:580,-0.374176,-0.011169,-0.32843,-0.0048850000000000005,0.001353,0.004615,-33.25,-23.870001000000002,-15.68,2d
2019-07-15_172627:600,-0.368591,-0.009125,-0.329437,-0.004793,0.000621,0.00489,-33.25,-23.870001000000002,-15.68,2d
2019-07-15_172627:620,-0.368591,-0.011687999999999999,-0.327423,-0.004671,0.000133,0.005287,-33.68,-24.18,-16.870001000000002,2d
2019-07-15_172627:640,-0.37316900000000003,-0.011687999999999999,-0.325897,-0.004671,-0.0009050000000000001,0.0053479999999999995,-33.68,-24.18,-16.870001000000002,2d
2019-07-15_172627:660,-0.37112399999999995,-0.011687999999999999,-0.323334,-0.004732,-0.0007830000000000001,0.005561,-34.060001,-23.870001000000002,-15.68,2d
2019-07-15_172627:680,-0.36911,-0.012177,-0.322845,-0.004732,-0.001027,0.0058969999999999995,-34.060001,-23.870001000000002,-15.68,2d
2019-07-15_172627:700,-0.368591,-0.014740000000000001,-0.322327,-0.0048850000000000005,-0.0018510000000000002,0.005745,-34.060001,-23.870001000000002,-15.68,2d
2019-07-15_172627:720,-0.366058,-0.015228,-0.32843,-0.0048850000000000005,-0.0018510000000000002,0.005287,-33.25,-23.870001000000002,-17.25,2d
2019-07-15_172627:740,-0.36706500000000003,-0.016753999999999998,-0.326904,-0.004671,-0.0027660000000000002,0.002784,-33.25,-23.870001000000002,-17.25,2d
2019-07-15_172627:760,-0.36911,-0.016266,-0.327911,-0.004397,-0.003438,0.001442,-33.25,-23.870001000000002,-17.25,2d
2019-07-15_172627:780,-0.37265,-0.01828,-0.327911,-0.003878,-0.0035600000000000002,0.0007700000000000001,-34.060001,-22.75,-18.059998999999998,2d
2019-07-15_172627:800,-0.373688,-0.022369,-0.332489,-0.0032979999999999997,-0.00237,-0.00216,-34.060001,-22.75,-18.059998999999998,2d
2019-07-15_172627:820,-0.36911,-0.020325,-0.33300799999999997,-0.002443,-0.001118,-0.004906000000000001,-33.25,-22.75,-16.5,2d
2019-07-15_172627:840,-0.360962,-0.017792,-0.332489,-0.0015279999999999998,-0.000661,-0.007073,-33.25,-22.75,-16.5,2d
2019-07-15_172627:860,-0.360962,-0.010162000000000001,-0.331482,-0.0009789999999999998,-0.001759,-0.009209,-33.25,-22.75,-16.5,2d
2019-07-15_172627:880,-0.37316900000000003,-0.007599,-0.331482,-0.000857,-0.002248,-0.010277,-32.18,-23.5,-16.5,2d
2019-07-15_172627:900,-0.381805,-0.0030210000000000002,-0.33197,-0.001192,-0.000386,-0.011009999999999999,-32.18,-23.5,-16.5,2d
2019-07-15_172627:920,-0.378754,-0.002014,-0.33197,-0.002169,0.0017809999999999998,-0.010735,-33.0,-23.870001000000002,-17.25,2d
2019-07-15_172627:940,-0.37316900000000003,-0.001495,-0.328949,-0.002657,0.003307,-0.008934000000000001,-33.0,-23.870001000000002,-17.25,2d
2019-07-15_172627:960,-0.37316900000000003,-0.001495,-0.327423,-0.0031149999999999997,0.003886,-0.00747,-33.0,-23.870001000000002,-17.25,2d
2019-07-15_172627:980,-0.372162,-0.001007,-0.325378,-0.002993,0.004497,-0.005883,-32.560001,-24.18,-16.870001000000002,2d
2019-07-15_172628:000,-0.367584,-0.001495,-0.326385,-0.0025050000000000003,0.005107,-0.003899,-32.560001,-24.18,-16.870001000000002,2d
2019-07-15_172628:020,-0.35791,-0.0035399999999999997,-0.326385,-0.001925,0.004497,-0.00216,-32.560001,-24.559998999999998,-17.25,2d
2019-07-15_172628:040,-0.355377,-0.0035399999999999997,-0.325897,-0.001375,0.003093,-0.001397,-32.560001,-24.559998999999998,-17.25,2d
2019-07-15_172628:060,-0.36911,-0.000488,-0.32843,-0.001131,0.001537,-0.00045099999999999996,-32.560001,-24.559998999999998,-17.25,2d
2019-07-15_172628:080,-0.373688,-0.001495,-0.328949,-0.0014060000000000001,0.001292,0.000648,-32.560001,-25.370001000000002,-17.559998999999998,2d
2019-07-15_172628:100,-0.37316900000000003,0.0,-0.32843,-0.002169,0.001994,0.000587,-32.560001,-25.370001000000002,-17.559998999999998,2d
2019-07-15_172628:120,-0.37112399999999995,-0.001007,-0.327911,-0.002779,0.002788,0.000526,-32.18,-24.559998999999998,-16.870001000000002,2d
2019-07-15_172628:140,-0.372162,-0.002014,-0.32843,-0.0037560000000000002,0.0029100000000000003,-0.000389,-32.18,-24.559998999999998,-16.870001000000002,2d
2019-07-15_172628:160,-0.373688,-0.0035399999999999997,-0.32995599999999997,-0.004275,0.003032,-0.0011220000000000002,-32.18,-24.559998999999998,-16.870001000000002,2d
2019-07-15_172628:180,-0.371643,-0.004059,-0.327911,-0.004488000000000001,0.003124,-0.0011220000000000002,-32.560001,-24.559998999999998,-16.870001000000002,2d
2019-07-15_172628:200,-0.377747,-0.0030210000000000002,-0.329437,-0.00403,0.003093,-0.0008470000000000001,-32.560001,-24.559998999999998,-16.870001000000002,2d
2019-07-15_172628:220,-0.376221,-0.002014,-0.32486,-0.003573,0.003368,7.000000000000001e-06,-33.0,-24.559998999999998,-17.559998999999998,2d
2019-07-15_172628:240,-0.378754,-0.001495,-0.323334,-0.003237,0.00352,0.000404,-33.0,-24.559998999999998,-17.559998999999998,2d
2019-07-15_172628:260,-0.375702,-0.001495,-0.324371,-0.003054,0.0045579999999999996,0.000709,-33.0,-24.559998999999998,-17.559998999999998,2d
2019-07-15_172628:280,-0.374695,-0.0025329999999999997,-0.32486,-0.003237,0.00471,0.001228,-32.560001,-24.18,-16.870001000000002,2d
2019-07-15_172628:300,-0.371643,-0.002014,-0.322845,-0.003573,0.004497,0.00132,-32.560001,-24.18,-16.870001000000002,2d
2019-07-15_172628:320,-0.37112399999999995,-0.0035399999999999997,-0.321808,-0.0037560000000000002,0.003978,0.001381,-31.5,-25.0,-18.5,2d
2019-07-15_172628:340,-0.371643,-0.0035399999999999997,-0.320801,-0.003817,0.0034289999999999998,0.001716,-31.5,-25.0,-18.5,2d
2019-07-15_172628:360,-0.372162,-0.0030210000000000002,-0.322845,-0.004,0.002849,0.001716,-31.5,-25.0,-18.5,2d
2019-07-15_172628:380,-0.371643,-0.004059,-0.321808,-0.004397,0.002574,0.00196,-33.25,-24.18,-16.5,2d
2019-07-15_172628:400,-0.373688,-0.005065999999999999,-0.321808,-0.004213000000000001,0.0017809999999999998,0.002113,-33.25,-24.18,-16.5,2d
2019-07-15_172628:420,-0.375214,-0.005065999999999999,-0.323853,-0.004397,0.001964,0.001991,-33.0,-24.559998999999998,-17.25,2d
2019-07-15_172628:440,-0.378754,-0.005065999999999999,-0.322845,-0.004488000000000001,0.002177,0.001716,-33.0,-24.559998999999998,-17.25,2d
2019-07-15_172628:460,-0.381317,-0.0055850000000000006,-0.326385,-0.004488000000000001,0.003124,0.001655,-33.0,-24.559998999999998,-17.25,2d
2019-07-15_172628:480,-0.378754,-0.007111,-0.326385,-0.004427,0.003917,0.001777,-33.0,-25.0,-17.25,2d
2019-07-15_172628:500,-0.373688,-0.007599,-0.322845,-0.004427,0.004436,0.001503,-33.0,-25.0,-17.25,2d
2019-07-15_172628:520,-0.372162,-0.006072999999999999,-0.322845,-0.004397,0.004222,0.000984,-33.25,-24.559998999999998,-18.059998999999998,2d
2019-07-15_172628:540,-0.373688,-0.0055850000000000006,-0.319275,-0.00403,0.0035810000000000004,0.000709,-33.25,-24.559998999999998,-18.059998999999998,2d
2019-07-15_172628:560,-0.374695,-0.006072999999999999,-0.319794,-0.003878,0.0036420000000000003,0.00028199999999999997,-33.25,-24.559998999999998,-18.059998999999998,2d
2019-07-15_172628:580,-0.37316900000000003,-0.005065999999999999,-0.320282,-0.003878,0.003307,0.000648,-33.25,-24.559998999999998,-16.870001000000002,2d
2019-07-15_172628:600,-0.373688,-0.006072999999999999,-0.319794,-0.0036950000000000004,0.002788,0.000831,-33.25,-24.559998999999998,-16.870001000000002,2d
2019-07-15_172628:620,-0.37316900000000003,-0.004547,-0.32132,-0.003817,0.002696,0.000526,-33.68,-24.559998999999998,-17.559998999999998,2d
2019-07-15_172628:640,-0.375702,-0.004547,-0.320801,-0.0037560000000000002,0.002239,0.000496,-33.68,-24.559998999999998,-17.559998999999998,2d
2019-07-15_172628:660,-0.378265,-0.005065999999999999,-0.323334,-0.003573,0.0023,0.000343,-33.68,-24.559998999999998,-17.559998999999998,2d
2019-07-15_172628:680,-0.379272,-0.004547,-0.322327,-0.0036950000000000004,0.002788,6.8e-05,-33.0,-25.0,-17.559998999999998,2d
2019-07-15_172628:700,-0.374176,-0.004547,-0.320801,-0.0037560000000000002,0.003093,-0.000176,-33.0,-25.0,-17.559998999999998,2d
2019-07-15_172628:720,-0.371643,-0.0025329999999999997,-0.320801,-0.0036950000000000004,0.002757,6.8e-05,-33.25,-24.559998999999998,-17.25,2d
2019-07-15_172628:740,-0.378265,-0.0030210000000000002,-0.320801,-0.003573,0.002391,0.000984,-33.25,-24.559998999999998,-17.25,2d
2019-07-15_172628:760,-0.375214,-0.002014,-0.320282,-0.0034509999999999996,0.002116,0.00132,-33.25,-24.559998999999998,-17.25,2d
2019-07-15_172628:780,-0.377747,-0.002014,-0.321808,-0.0036340000000000005,0.002116,0.001655,-33.68,-24.559998999999998,-17.559998999999998,2d
2019-07-15_172628:800,-0.378265,-0.0030210000000000002,-0.320801,-0.004,0.0024519999999999998,0.001106,-33.68,-24.559998999999998,-17.559998999999998,2d
2019-07-15_172628:820,-0.378754,-0.0030210000000000002,-0.322327,-0.004336,0.002788,0.0018989999999999999,-33.0,-24.559998999999998,-17.559998999999998,2d
2019-07-15_172628:840,-0.37674,-0.0025329999999999997,-0.321808,-0.004488000000000001,0.002849,0.002357,-33.0,-24.559998999999998,-17.559998999999998,2d
2019-07-15_172628:860,-0.373688,-0.004059,-0.32132,-0.004793,0.0029100000000000003,0.001991,-33.0,-24.559998999999998,-17.559998999999998,2d
2019-07-15_172628:880,-0.36911,-0.004547,-0.32132,-0.00461,0.002574,0.0022960000000000003,-33.25,-25.0,-16.5,2d
2019-07-15_172628:900,-0.369598,-0.004547,-0.319794,-0.004488000000000001,0.0014759999999999999,0.002449,-33.25,-25.0,-16.5,2d
2019-07-15_172628:920,-0.367584,-0.0055850000000000006,-0.321808,-0.004397,0.000499,0.002571,-33.25,-24.559998999999998,-15.68,2d
2019-07-15_172628:940,-0.370636,-0.004059,-0.318756,-0.004275,-0.000264,0.00251,-33.25,-24.559998999999998,-15.68,2d
2019-07-15_172628:960,-0.372162,-0.0055850000000000006,-0.319275,-0.004213000000000001,-0.001057,0.0030280000000000003,-33.25,-24.559998999999998,-15.68,2d
2019-07-15_172628:980,-0.37674,-0.005065999999999999,-0.319794,-0.004397,-0.001515,0.003242,-33.68,-24.18,-16.5,2d
2019-07-15_172629:000,-0.379791,-0.006072999999999999,-0.323853,-0.004793,-0.00124,0.002784,-33.68,-24.18,-16.5,2d
2019-07-15_172629:020,-0.379272,-0.006072999999999999,-0.325897,-0.004824,-0.000508,0.002357,-32.560001,-23.870001000000002,-17.559998999999998,2d
2019-07-15_172629:040,-0.378265,-0.006592,-0.324371,-0.005221,0.00022400000000000002,0.0021739999999999997,-32.560001,-23.870001000000002,-17.559998999999998,2d
2019-07-15_172629:060,-0.374695,-0.006072999999999999,-0.325378,-0.005221,0.00056,0.002449,-32.560001,-23.870001000000002,-17.559998999999998,2d
2019-07-15_172629:080,-0.374695,-0.008118,-0.325378,-0.005007,0.0008039999999999999,0.003151,-33.25,-24.559998999999998,-16.870001000000002,2d
2019-07-15_172629:100,-0.373688,-0.008118,-0.324371,-0.005129,0.001018,0.0022960000000000003,-33.25,-24.559998999999998,-16.870001000000002,2d
2019-07-15_172629:120,-0.374176,-0.007599,-0.322845,-0.004824,0.0008039999999999999,0.002449,-34.060001,-24.18,-17.559998999999998,2d
2019-07-15_172629:140,-0.37316900000000003,-0.009125,-0.323853,-0.004336,0.0008960000000000001,0.00309,-34.060001,-24.18,-17.559998999999998,2d
2019-07-15_172629:160,-0.37316900000000003,-0.008118,-0.326385,-0.004549,0.0009570000000000001,0.002449,-34.060001,-24.18,-17.559998999999998,2d
2019-07-15_172629:180,-0.376221,-0.010651,-0.326385,-0.004397,0.000682,0.002235,-33.0,-23.870001000000002,-15.25,2d
2019-07-15_172629:200,-0.375214,-0.011169,-0.325897,-0.004,0.0009570000000000001,0.001442,-33.0,-23.870001000000002,-15.25,2d
2019-07-15_172629:220,-0.375214,-0.012177,-0.32486,-0.003878,0.001353,0.000831,-33.25,-23.5,-16.5,2d
2019-07-15_172629:240,-0.375214,-0.010651,-0.325378,-0.0033280000000000002,0.0014759999999999999,0.000526,-33.25,-23.5,-16.5,2d
2019-07-15_172629:260,-0.375214,-0.009125,-0.326385,-0.002657,0.0019030000000000002,0.000526,-33.25,-23.5,-16.5,2d
2019-07-15_172629:280,-0.373688,-0.009644,-0.326904,-0.002199,0.002239,0.00028199999999999997,-33.0,-24.559998999999998,-17.559998999999998,2d
2019-07-15_172629:300,-0.37112399999999995,-0.008118,-0.324371,-0.0014060000000000001,0.0024519999999999998,0.000465,-33.0,-24.559998999999998,-17.559998999999998,2d
2019-07-15_172629:320,-0.375702,-0.006072999999999999,-0.325378,-0.001192,0.002177,0.000404,-33.25,-24.559998999999998,-16.870001000000002,2d
2019-07-15_172629:340,-0.375214,-0.004547,-0.322845,-0.001131,0.002177,0.000465,-33.25,-24.559998999999998,-16.870001000000002,2d
2019-07-15_172629:360,-0.376221,-0.005065999999999999,-0.323853,-0.00165,0.002361,0.000587,-33.25,-24.559998999999998,-16.870001000000002,2d
2019-07-15_172629:380,-0.374695,-0.006072999999999999,-0.324371,-0.0021079999999999996,0.002513,0.000526,-34.060001,-23.870001000000002,-15.68,2d
2019-07-15_172629:400,-0.374176,-0.008118,-0.324371,-0.002718,0.002239,0.000465,-34.060001,-23.870001000000002,-15.68,2d
2019-07-15_172629:420,-0.375214,-0.010162000000000001,-0.323334,-0.0028399999999999996,0.002116,0.00016,-32.560001,-24.18,-17.559998999999998,2d
2019-07-15_172629:440,-0.375214,-0.013213999999999998,-0.323853,-0.002932,0.002116,7.000000000000001e-06,-32.560001,-24.18,-17.559998999999998,2d
2019-07-15_172629:460,-0.375214,-0.013702,-0.323334,-0.002535,0.002361,-0.000267,-32.560001,-24.18,-17.559998999999998,2d
2019-07-15_172629:480,-0.374695,-0.013213999999999998,-0.320801,-0.002169,0.002361,-0.000267,-33.0,-24.559998999999998,-16.870001000000002,2d
2019-07-15_172629:500,-0.375702,-0.010651,-0.321808,-0.00165,0.002177,-0.000389,-33.0,-24.559998999999998,-16.870001000000002,2d
2019-07-15_172629:520,-0.376221,-0.010162000000000001,-0.322327,-0.001467,0.0024519999999999998,-0.000389,-34.060001,-23.870001000000002,-16.5,2d
2019-07-15_172629:540,-0.375214,-0.009644,-0.323853,-0.0015890000000000001,0.0024519999999999998,-0.000176,-34.060001,-23.870001000000002,-16.5,2d
2019-07-15_172629:560,-0.37674,-0.008636,-0.323853,-0.0018030000000000001,0.002361,-0.000267,-34.060001,-23.870001000000002,-16.5,2d
2019-07-15_172629:580,-0.375702,-0.007599,-0.323853,-0.002169,0.002635,-0.00011499999999999999,-34.060001,-24.18,-15.68,2d
2019-07-15_172629:600,-0.377747,-0.008636,-0.322845,-0.002443,0.002696,-5.4000000000000005e-05,-34.060001,-24.18,-15.68,2d
2019-07-15_172629:620,-0.375702,-0.008118,-0.321808,-0.002932,0.003032,7.000000000000001e-06,-33.25,-23.5,-16.870001000000002,2d
2019-07-15_172629:640,-0.375214,-0.010162000000000001,-0.319794,-0.003054,0.003093,0.00016,-33.25,-23.5,-16.870001000000002,2d
2019-07-15_172629:660,-0.377228,-0.010162000000000001,-0.319794,-0.003237,0.0029100000000000003,0.000221,-33.25,-23.5,-16.870001000000002,2d
2019-07-15_172629:680,-0.379791,-0.009125,-0.32132,-0.003573,0.0031850000000000003,-5.4000000000000005e-05,-33.0,-24.18,-17.559998999999998,2d
2019-07-15_172629:700,-0.377228,-0.009125,-0.320801,-0.0037560000000000002,0.003703,0.00028199999999999997,-33.0,-24.18,-17.559998999999998,2d
2019-07-15_172629:720,-0.374695,-0.009644,-0.32132,-0.003939,0.003703,0.000465,-33.25,-23.870001000000002,-18.5,2d
2019-07-15_172629:740,-0.372162,-0.009644,-0.318756,-0.004091,0.003368,0.000587,-33.25,-23.870001000000002,-18.5,2d
2019-07-15_172629:760,-0.376221,-0.010162000000000001,-0.318268,-0.004091,0.002757,0.0007700000000000001,-33.25,-23.870001000000002,-18.5,2d
2019-07-15_172629:780,-0.377228,-0.008636,-0.319794,-0.00403,0.002635,0.0007700000000000001,-33.25,-23.870001000000002,-16.870001000000002,2d
2019-07-15_172629:800,-0.377228,-0.008636,-0.318756,-0.004152,0.002391,0.000709,-33.25,-23.870001000000002,-16.870001000000002,2d
2019-07-15_172629:820,-0.37674,-0.008636,-0.318268,-0.00403,0.0023,0.000984,-33.68,-25.0,-16.870001000000002,2d
2019-07-15_172629:840,-0.376221,-0.009125,-0.317749,-0.0036950000000000004,0.002177,0.000923,-33.68,-25.0,-16.870001000000002,2d
2019-07-15_172629:860,-0.378265,-0.008118,-0.31723,-0.003664,0.002239,0.001045,-33.68,-25.0,-16.870001000000002,2d
2019-07-15_172629:880,-0.379791,-0.010651,-0.320282,-0.0034509999999999996,0.002055,0.002113,-33.68,-23.870001000000002,-18.059998999999998,2d
2019-07-15_172629:900,-0.375702,-0.008636,-0.318268,-0.003664,0.002361,0.0022960000000000003,-33.68,-23.870001000000002,-18.059998999999998,2d
2019-07-15_172629:920,-0.377228,-0.008118,-0.319794,-0.003939,0.001842,0.001503,-34.5,-25.0,-16.870001000000002,2d
2019-07-15_172629:940,-0.375702,-0.008636,-0.319275,-0.004397,0.001598,0.000984,-34.5,-25.0,-16.870001000000002,2d
2019-07-15_172629:960,-0.374695,-0.013213999999999998,-0.320282,-0.004488000000000001,0.001292,0.001503,-34.5,-25.0,-16.870001000000002,2d
2019-07-15_172629:980,-0.375702,-0.012695,-0.320282,-0.004397,0.0008960000000000001,0.0008619999999999999,-33.25,-23.870001000000002,-18.059998999999998,2d
2019-07-15_172630:000,-0.377747,-0.014221000000000001,-0.320801,-0.003878,0.0010789999999999999,0.00016,-33.25,-23.870001000000002,-18.059998999999998,2d
2019-07-15_172630:020,-0.378265,-0.013213999999999998,-0.32132,-0.003176,0.001415,-5.4000000000000005e-05,-34.060001,-23.870001000000002,-16.5,2d
2019-07-15_172630:040,-0.379272,-0.012177,-0.32132,-0.002993,0.0017809999999999998,-0.00011499999999999999,-34.060001,-23.870001000000002,-16.5,2d
2019-07-15_172630:060,-0.38028,-0.011169,-0.321808,-0.002718,0.0023,0.000648,-34.060001,-23.870001000000002,-16.5,2d
2019-07-15_172630:080,-0.379272,-0.009125,-0.32132,-0.002932,0.0024519999999999998,0.000465,-34.060001,-23.870001000000002,-17.559998999999998,2d
2019-07-15_172630:100,-0.379272,-0.008636,-0.319794,-0.0032979999999999997,0.002788,0.00016,-34.060001,-23.870001000000002,-17.559998999999998,2d
2019-07-15_172630:120,-0.379272,-0.009644,-0.320282,-0.0033280000000000002,0.002757,0.000496,-33.25,-23.870001000000002,-17.25,2d
2019-07-15_172630:140,-0.378265,-0.009644,-0.318756,-0.0036340000000000005,0.003093,0.000465,-33.25,-23.870001000000002,-17.25,2d
2019-07-15_172630:160,-0.380798,-0.008118,-0.322845,-0.003512,0.0031850000000000003,0.000831,-33.25,-23.870001000000002,-17.25,2d
2019-07-15_172630:180,-0.379272,-0.008636,-0.319275,-0.003939,0.003703,0.001228,-33.25,-24.559998999999998,-16.870001000000002,2d
2019-07-15_172630:200,-0.378754,-0.007599,-0.320282,-0.004213000000000001,0.004039,0.001625,-33.25,-24.559998999999998,-16.870001000000002,2d
2019-07-15_172630:220,-0.378265,-0.009125,-0.316742,-0.00461,0.004039,0.002693,-33.68,-23.870001000000002,-16.059998999999998,2d
2019-07-15_172630:240,-0.378754,-0.011169,-0.318268,-0.005221,0.003917,0.001991,-33.68,-23.870001000000002,-16.059998999999998,2d
2019-07-15_172630:260,-0.377228,-0.010162000000000001,-0.318756,-0.005678,0.00352,0.001258,-33.68,-23.870001000000002,-16.059998999999998,2d
2019-07-15_172630:280,-0.380798,-0.012695,-0.319794,-0.005739,0.00349,0.000984,-33.25,-23.5,-16.5,2d
2019-07-15_172630:300,-0.376221,-0.013213999999999998,-0.320801,-0.0056170000000000005,0.003368,0.001106,-33.25,-23.5,-16.5,2d
2019-07-15_172630:320,-0.375214,-0.013702,-0.318268,-0.005221,0.003124,0.001655,-33.68,-24.18,-16.059998999999998,2d
2019-07-15_172630:340,-0.379272,-0.013213999999999998,-0.315216,-0.004427,0.002849,0.001228,-33.68,-24.18,-16.059998999999998,2d
2019-07-15_172630:360,-0.379791,-0.013213999999999998,-0.314697,-0.003939,0.0031850000000000003,0.000496,-33.68,-24.18,-16.059998999999998,2d
2019-07-15_172630:380,-0.379272,-0.012177,-0.316742,-0.00339,0.003307,6.8e-05,-33.25,-24.18,-16.5,2d
2019-07-15_172630:400,-0.37674,-0.009125,-0.31723,-0.0031149999999999997,0.003093,-5.4000000000000005e-05,-33.25,-24.18,-16.5,2d
2019-07-15_172630:420,-0.37674,-0.009644,-0.317749,-0.0029010000000000004,0.002391,6.8e-05,-33.68,-24.18,-16.5,2d
2019-07-15_172630:440,-0.383331,-0.008118,-0.314697,-0.0028399999999999996,0.002055,0.000343,-33.68,-24.18,-16.5,2d
2019-07-15_172630:460,-0.386902,-0.006592,-0.318268,-0.0032979999999999997,0.002788,0.000526,-33.68,-24.18,-16.5,2d
2019-07-15_172630:480,-0.387909,-0.007599,-0.319794,-0.0036340000000000005,0.004039,0.001991,-33.68,-23.059998999999998,-16.870001000000002,2d
2019-07-15_172630:500,-0.388428,-0.009125,-0.320282,-0.004213000000000001,0.005168,0.002693,-33.68,-23.059998999999998,-16.870001000000002,2d
2019-07-15_172630:520,-0.385864,-0.010651,-0.316742,-0.004671,0.005901,0.003151,-33.25,-23.5,-16.059998999999998,2d
2019-07-15_172630:540,-0.38385,-0.012177,-0.312653,-0.004671,0.006358,0.003181,-33.25,-23.5,-16.059998999999998,2d
2019-07-15_172630:560,-0.381317,-0.015228,-0.311646,-0.004946,0.006358,0.002967,-33.25,-23.5,-16.059998999999998,2d
2019-07-15_172630:580,-0.382324,-0.014740000000000001,-0.310638,-0.004671,0.005748,0.003303,-34.75,-24.18,-15.68,2d
2019-07-15_172630:600,-0.381317,-0.016753999999999998,-0.310638,-0.004549,0.005443,0.003639,-34.75,-24.18,-15.68,2d
2019-07-15_172630:620,-0.378265,-0.015228,-0.311127,-0.004,0.00471,0.003181,-33.68,-22.75,-15.25,2d
2019-07-15_172630:640,-0.381805,-0.017273,-0.308075,-0.0036340000000000005,0.003825,0.00251,-33.68,-22.75,-15.25,2d
2019-07-15_172630:660,-0.383331,-0.015747,-0.310638,-0.0031149999999999997,0.003307,0.001991,-33.68,-22.75,-15.25,2d
2019-07-15_172630:680,-0.388428,-0.014740000000000001,-0.308594,-0.0025050000000000003,0.003032,0.001991,-33.68,-23.059998999999998,-16.5,2d
2019-07-15_172630:700,-0.380798,-0.013213999999999998,-0.311646,-0.002321,0.002696,0.001442,-33.68,-23.059998999999998,-16.5,2d
2019-07-15_172630:720,-0.382324,-0.011169,-0.310638,-0.002199,0.0029100000000000003,0.001045,-34.060001,-23.5,-16.5,2d
2019-07-15_172630:740,-0.389435,-0.011687999999999999,-0.310638,-0.002443,0.002757,0.001106,-34.060001,-23.5,-16.5,2d
2019-07-15_172630:760,-0.388916,-0.012177,-0.312164,-0.002657,0.00352,0.0008619999999999999,-34.060001,-23.5,-16.5,2d
2019-07-15_172630:780,-0.387909,-0.011169,-0.310638,-0.002993,0.003917,0.001045,-34.060001,-23.870001000000002,-15.68,2d
2019-07-15_172630:800,-0.381317,-0.012177,-0.309113,-0.0034509999999999996,0.004161,0.001503,-34.060001,-23.870001000000002,-15.68,2d
2019-07-15_172630:820,-0.385376,-0.013702,-0.306061,-0.003878,0.0031850000000000003,0.001991,-34.5,-23.5,-16.059998999999998,2d
2019-07-15_172630:840,-0.383331,-0.013702,-0.305054,-0.004152,0.0029100000000000003,0.0021739999999999997,-34.5,-23.5,-16.059998999999998,2d
2019-07-15_172630:860,-0.384857,-0.014221000000000001,-0.307587,-0.00461,0.002971,0.002571,-34.5,-23.5,-16.059998999999998,2d
2019-07-15_172630:880,-0.379791,-0.015747,-0.306061,-0.0048850000000000005,0.002696,0.002571,-34.75,-23.059998999999998,-14.87,2d
2019-07-15_172630:900,-0.376221,-0.016266,-0.304535,-0.005282,0.001353,0.001655,-34.75,-23.059998999999998,-14.87,2d
2019-07-15_172630:920,-0.37265,-0.01828,-0.305542,-0.005404,-0.000508,0.000923,-34.060001,-23.870001000000002,-14.87,2d
2019-07-15_172630:940,-0.376221,-0.017273,-0.303528,-0.005282,-0.002431,0.000648,-34.060001,-23.870001000000002,-14.87,2d
2019-07-15_172630:960,-0.37316900000000003,-0.018799,-0.305542,-0.0051600000000000005,-0.004445,-0.00011499999999999999,-34.060001,-23.870001000000002,-14.87,2d
2019-07-15_172630:980,-0.377228,-0.017273,-0.30249000000000004,-0.005129,-0.006490000000000001,-0.000389,-33.68,-24.18,-15.25,2d
2019-07-15_172631:000,-0.396545,-0.01828,-0.305542,-0.004427,-0.007619,0.000343,-33.68,-24.18,-15.25,2d
2019-07-15_172631:020,-0.37316900000000003,-0.017273,-0.311646,-0.004152,-0.005879,0.000526,-34.5,-23.5,-16.059998999999998,2d
2019-07-15_172631:040,-0.38739,-0.017792,-0.317749,-0.003573,-0.006825,-0.000573,-34.5,-23.5,-16.059998999999998,2d
2019-07-15_172631:060,-0.386383,-0.01828,-0.319794,-0.0032979999999999997,-0.006673,-0.0012439999999999999,-34.5,-23.5,-16.059998999999998,2d
2019-07-15_172631:080,-0.391479,-0.016753999999999998,-0.320282,-0.0025960000000000002,-0.005574,-0.0013050000000000002,-35.18,-23.5,-16.059998999999998,2d
2019-07-15_172631:100,-0.390961,-0.015747,-0.320801,-0.002169,-0.003621,-0.001183,-35.18,-23.5,-16.059998999999998,2d
2019-07-15_172631:120,-0.380798,-0.015747,-0.319275,-0.001772,-0.001637,-0.001458,-34.060001,-23.870001000000002,-15.68,2d
2019-07-15_172631:140,-0.375214,-0.012177,-0.31723,-0.00165,-0.001118,-0.0012439999999999999,-34.060001,-23.870001000000002,-15.68,2d
2019-07-15_172631:160,-0.369598,-0.012177,-0.314697,-0.0015279999999999998,-0.001637,-0.000512,-34.060001,-23.870001000000002,-15.68,2d
2019-07-15_172631:180,-0.36911,-0.012695,-0.315704,-0.00165,-0.0032240000000000003,0.000129,-33.68,-23.870001000000002,-16.870001000000002,2d
2019-07-15_172631:200,-0.372162,-0.013213999999999998,-0.315216,-0.0015890000000000001,-0.00475,0.000587,-33.68,-23.870001000000002,-16.870001000000002,2d
2019-07-15_172631:220,-0.376221,-0.014221000000000001,-0.317749,-0.0017109999999999998,-0.005696,0.000984,-34.5,-24.18,-16.059998999999998,2d
2019-07-15_172631:240,-0.373688,-0.014740000000000001,-0.316742,-0.001467,-0.005971,0.0008619999999999999,-34.5,-24.18,-16.059998999999998,2d
2019-07-15_172631:260,-0.372162,-0.016266,-0.320801,-0.001314,-0.006337,0.000709,-34.5,-24.18,-16.059998999999998,2d
2019-07-15_172631:280,-0.369598,-0.01828,-0.32132,-0.000857,-0.006703,0.0007700000000000001,-33.68,-24.18,-16.059998999999998,2d
2019-07-15_172631:300,-0.364014,-0.020325,-0.319794,-6.3e-05,-0.007741,0.0007700000000000001,-33.68,-24.18,-16.059998999999998,2d
2019-07-15_172631:320,-0.361969,-0.022369,-0.32132,0.000608,-0.009145,0.001503,-33.68,-23.870001000000002,-16.870001000000002,2d
2019-07-15_172631:340,-0.376221,-0.026917,-0.327423,0.001737,-0.009999,0.001167,-33.68,-23.870001000000002,-16.870001000000002,2d
2019-07-15_172631:360,-0.382812,-0.024902,-0.33605999999999997,0.00305,-0.009022,0.000496,-33.68,-23.870001000000002,-16.870001000000002,2d
2019-07-15_172631:380,-0.38385,-0.025421,-0.34063699999999997,0.00424,-0.007069,0.001716,-33.25,-23.870001000000002,-17.559998999999998,2d
2019-07-15_172631:400,-0.382324,-0.023895,-0.341644,0.004515,-0.00475,0.002113,-33.25,-23.870001000000002,-17.559998999999998,2d
2019-07-15_172631:420,-0.38385,-0.026917,-0.345215,0.004515,-0.002431,0.002845,-33.0,-23.870001000000002,-18.75,2d
2019-07-15_172631:440,-0.382812,-0.026427999999999997,-0.34368899999999997,0.004331000000000001,-0.00011100000000000001,0.0022960000000000003,-33.0,-23.870001000000002,-18.75,2d
2019-07-15_172631:460,-0.376221,-0.028442000000000002,-0.34265100000000004,0.003599,0.0024519999999999998,0.000526,-33.0,-23.870001000000002,-18.75,2d
2019-07-15_172631:480,-0.372162,-0.030487,-0.341644,0.002867,0.003764,-0.0010609999999999999,-33.68,-23.059998999999998,-18.059998999999998,2d
2019-07-15_172631:500,-0.364014,-0.027954000000000003,-0.334534,0.001982,0.004314,-0.00396,-33.68,-23.059998999999998,-18.059998999999998,2d
2019-07-15_172631:520,-0.36044299999999996,-0.025421,-0.33197,0.000883,0.004161,-0.00689,-32.560001,-22.75,-19.25,2d
2019-07-15_172631:540,-0.353333,-0.022369,-0.324371,5.9e-05,0.003307,-0.008477,-32.560001,-22.75,-19.25,2d
2019-07-15_172631:560,-0.3508,-0.019318000000000002,-0.322845,-0.0009789999999999998,0.0012619999999999999,-0.009758,-32.560001,-22.75,-19.25,2d
2019-07-15_172631:580,-0.349274,-0.012177,-0.322327,-0.001925,-0.001515,-0.009941,-33.68,-22.75,-18.75,2d
2019-07-15_172631:600,-0.353851,-0.011687999999999999,-0.322845,-0.002932,-0.004231,-0.00869,-33.68,-22.75,-18.75,2d
2019-07-15_172631:620,-0.36554000000000003,-0.010162000000000001,-0.32486,-0.0036950000000000004,-0.00594,-0.007561,-32.18,-23.870001000000002,-18.5,2d
2019-07-15_172631:640,-0.37265,-0.008636,-0.326385,-0.004397,-0.006093,-0.007073,-32.18,-23.870001000000002,-18.5,2d
2019-07-15_172631:660,-0.368073,-0.009644,-0.329437,-0.004946,-0.004903,-0.005425,-32.18,-23.870001000000002,-18.5,2d
2019-07-15_172631:680,-0.368073,-0.010651,-0.335022,-0.005465,-0.004292,-0.003624,-32.560001,-23.870001000000002,-19.25,2d
2019-07-15_172631:700,-0.36554000000000003,-0.014221000000000001,-0.340118,-0.005343,-0.0037119999999999996,-0.002373,-32.560001,-23.870001000000002,-19.25,2d
2019-07-15_172631:720,-0.363007,-0.013702,-0.340118,-0.0048850000000000005,-0.0035600000000000002,-0.0019149999999999998,-33.0,-23.870001000000002,-18.75,2d
2019-07-15_172631:740,-0.368591,-0.015228,-0.34063699999999997,-0.004091,-0.002827,-0.0011220000000000002,-33.0,-23.870001000000002,-18.75,2d
2019-07-15_172631:760,-0.37112399999999995,-0.015228,-0.34368899999999997,-0.0034509999999999996,-0.001363,-0.000573,-33.0,-23.870001000000002,-18.75,2d
2019-07-15_172631:780,-0.37011700000000003,-0.013213999999999998,-0.345215,-0.003054,0.00022400000000000002,-5.4000000000000005e-05,-32.560001,-24.18,-18.059998999999998,2d
2019-07-15_172631:800,-0.36706500000000003,-0.011687999999999999,-0.344696,-0.002657,0.0016589999999999999,0.000587,-32.560001,-24.18,-18.059998999999998,2d
2019-07-15_172631:820,-0.364532,-0.011169,-0.34265100000000004,-0.002718,0.0024519999999999998,0.001258,-32.560001,-24.18,-18.5,2d
2019-07-15_172631:840,-0.361969,-0.012177,-0.339111,-0.002932,0.0031850000000000003,0.001716,-32.560001,-24.18,-18.5,2d
2019-07-15_172631:860,-0.359955,-0.010651,-0.338074,-0.0033280000000000002,0.003124,0.001564,-32.560001,-24.18,-18.5,2d
2019-07-15_172631:880,-0.359955,-0.010162000000000001,-0.33605999999999997,-0.003939,0.0024519999999999998,0.001991,-33.25,-24.18,-18.75,2d
2019-07-15_172631:900,-0.35791,-0.009125,-0.334534,-0.004549,0.001964,0.002571,-33.25,-24.18,-18.75,2d
2019-07-15_172631:920,-0.35943600000000003,-0.009125,-0.337067,-0.005526,0.001201,0.003242,-32.560001,-24.559998999999998,-19.559998999999998,2d
2019-07-15_172631:940,-0.364532,-0.010651,-0.336548,-0.00635,0.00056,0.003975,-32.560001,-24.559998999999998,-19.559998999999998,2d
2019-07-15_172631:960,-0.360962,-0.010651,-0.33758499999999997,-0.007143000000000001,0.000682,0.003913000000000001,-32.560001,-24.559998999999998,-19.559998999999998,2d
2019-07-15_172631:980,-0.365021,-0.006592,-0.334534,-0.008059,0.000743,0.003913000000000001,-33.0,-24.559998999999998,-19.25,2d
2019-07-15_172632:000,-0.371643,-0.006072999999999999,-0.33758499999999997,-0.009066,0.0014759999999999999,0.004768,-33.0,-24.559998999999998,-19.25,2d
2019-07-15_172632:020,-0.364014,-0.006072999999999999,-0.336548,-0.010653,0.0024519999999999998,0.005012,-33.0,-24.18,-19.559998999999998,2d
2019-07-15_172632:040,-0.359955,-0.007111,-0.33758499999999997,-0.011781999999999999,0.0024519999999999998,0.003975,-33.0,-24.18,-19.559998999999998,2d
2019-07-15_172632:060,-0.358429,-0.009125,-0.337067,-0.012972,0.002116,0.003151,-33.0,-24.18,-19.559998999999998,2d
2019-07-15_172632:080,-0.355896,-0.011687999999999999,-0.338593,-0.013368999999999999,0.0017809999999999998,0.004036,-32.560001,-23.870001000000002,-19.559998999999998,2d
2019-07-15_172632:100,-0.361481,-0.013213999999999998,-0.3396,-0.013430000000000001,0.001201,0.004097,-32.560001,-23.870001000000002,-19.559998999999998,2d
2019-07-15_172632:120,-0.36349499999999996,-0.013213999999999998,-0.341125,-0.013186000000000002,0.0012619999999999999,0.003761,-31.5,-24.559998999999998,-18.75,2d
2019-07-15_172632:140,-0.360962,-0.012695,-0.340118,-0.012575,0.001537,0.003151,-31.5,-24.559998999999998,-18.75,2d
2019-07-15_172632:160,-0.358917,-0.010651,-0.339111,-0.012514,0.002055,0.0022960000000000003,-31.5,-24.559998999999998,-18.75,2d
2019-07-15_172632:180,-0.358429,-0.013213999999999998,-0.340118,-0.012057,0.002361,0.002449,-32.560001,-24.18,-18.5,2d
2019-07-15_172632:200,-0.36044299999999996,-0.014221000000000001,-0.3396,-0.011323999999999999,0.0019030000000000002,0.001777,-32.560001,-24.18,-18.5,2d
2019-07-15_172632:220,-0.35791,-0.015228,-0.3396,-0.01047,0.0016589999999999999,0.001442,-33.25,-23.870001000000002,-17.68,2d
2019-07-15_172632:240,-0.356903,-0.015228,-0.340118,-0.008851999999999999,0.001201,0.002235,-33.25,-23.870001000000002,-17.68,2d
2019-07-15_172632:260,-0.35943600000000003,-0.017792,-0.34063699999999997,-0.007326000000000001,0.000743,0.0022960000000000003,-33.25,-23.870001000000002,-17.68,2d
2019-07-15_172632:280,-0.360962,-0.017273,-0.341125,-0.005404,0.000621,0.001716,-32.560001,-23.870001000000002,-17.25,2d
2019-07-15_172632:300,-0.35638400000000003,-0.012177,-0.341644,-0.003664,0.0009570000000000001,0.001167,-32.560001,-23.870001000000002,-17.25,2d
2019-07-15_172632:320,-0.355896,-0.011687999999999999,-0.34063699999999997,-0.002657,0.001018,0.001381,-33.68,-23.870001000000002,-17.559998999999998,2d
2019-07-15_172632:340,-0.353851,-0.009644,-0.34063699999999997,-0.001986,0.0008039999999999999,0.000496,-33.68,-23.870001000000002,-17.559998999999998,2d
2019-07-15_172632:360,-0.35131799999999996,-0.009125,-0.342163,-0.00165,0.00016299999999999998,-0.000512,-33.68,-23.870001000000002,-17.559998999999998,2d
2019-07-15_172632:380,-0.35180700000000004,-0.008636,-0.34317,-0.0015279999999999998,-0.0009660000000000001,-0.000389,-32.18,-23.5,-18.059998999999998,2d
2019-07-15_172632:400,-0.3508,-0.008636,-0.34317,-0.00165,-0.002034,-0.000786,-32.18,-23.5,-18.059998999999998,2d
2019-07-15_172632:420,-0.355377,-0.010162000000000001,-0.34368899999999997,-0.0015279999999999998,-0.003682,-0.0017629999999999998,-33.25,-23.5,-17.559998999999998,2d
2019-07-15_172632:440,-0.355896,-0.010651,-0.34368899999999997,-0.001253,-0.003621,-0.0019149999999999998,-33.25,-23.5,-17.559998999999998,2d
2019-07-15_172632:460,-0.35436999999999996,-0.011687999999999999,-0.344177,-0.000521,-0.004109000000000001,-0.001397,-33.25,-23.5,-17.559998999999998,2d
2019-07-15_172632:480,-0.35436999999999996,-0.013213999999999998,-0.348267,0.000395,-0.004109000000000001,-0.0010609999999999999,-32.18,-23.870001000000002,-18.059998999999998,2d
2019-07-15_172632:500,-0.359955,-0.013702,-0.350281,0.001402,-0.0037119999999999996,-0.000664,-32.18,-23.870001000000002,-18.059998999999998,2d
2019-07-15_172632:520,-0.36349499999999996,-0.008636,-0.353333,0.002409,-0.002431,-0.000664,-32.560001,-24.18,-18.5,2d
2019-07-15_172632:540,-0.358429,-0.008118,-0.353333,0.002531,-0.000722,-0.000267,-32.560001,-24.18,-18.5,2d
2019-07-15_172632:560,-0.353333,-0.005065999999999999,-0.353851,0.002195,-0.000233,0.000465,-32.560001,-24.18,-18.5,2d
2019-07-15_172632:580,-0.355377,-0.004059,-0.352325,0.001127,0.000499,0.001503,-32.560001,-24.559998999999998,-18.059998999999998,2d
2019-07-15_172632:600,-0.358429,-0.0035399999999999997,-0.35180700000000004,-6.3e-05,0.00114,0.001564,-32.560001,-24.559998999999998,-18.059998999999998,2d
2019-07-15_172632:620,-0.35943600000000003,-0.0025329999999999997,-0.35131799999999996,-0.0015279999999999998,0.001994,0.001258,-32.18,-24.18,-19.559998999999998,2d
2019-07-15_172632:640,-0.353333,-0.004547,-0.349792,-0.003176,0.002361,0.00132,-32.18,-24.18,-19.559998999999998,2d
2019-07-15_172632:660,-0.349792,-0.005065999999999999,-0.350281,-0.00461,0.002361,0.00132,-32.18,-24.18,-19.559998999999998,2d
2019-07-15_172632:680,-0.35131799999999996,-0.006072999999999999,-0.349274,-0.005556,0.0019030000000000002,0.001258,-32.18,-24.559998999999998,-18.75,2d
2019-07-15_172632:700,-0.352844,-0.008118,-0.346222,-0.006258,0.001842,0.001625,-32.18,-24.559998999999998,-18.75,2d
2019-07-15_172632:720,-0.353851,-0.009125,-0.346222,-0.0066549999999999995,0.0016589999999999999,0.0021739999999999997,-32.18,-24.18,-18.059998999999998,2d
2019-07-15_172632:740,-0.354858,-0.009644,-0.347748,-0.0066549999999999995,0.001415,0.00309,-32.18,-24.18,-18.059998999999998,2d
2019-07-15_172632:760,-0.355377,-0.011687999999999999,-0.34875500000000004,-0.0064719999999999995,0.0017809999999999998,0.003639,-32.18,-24.18,-18.059998999999998,2d
2019-07-15_172632:780,-0.35739099999999996,-0.013213999999999998,-0.347748,-0.006411,0.002116,0.003517,-32.18,-23.870001000000002,-17.559998999999998,2d
2019-07-15_172632:800,-0.35638400000000003,-0.014221000000000001,-0.347748,-0.005739,0.002971,0.003242,-32.18,-23.870001000000002,-17.559998999999998,2d
2019-07-15_172632:820,-0.355377,-0.016266,-0.347748,-0.005526,0.003307,0.0029059999999999997,-32.560001,-23.870001000000002,-18.059998999999998,2d
2019-07-15_172632:840,-0.35791,-0.014740000000000001,-0.347229,-0.0051600000000000005,0.0041,0.0026320000000000002,-32.560001,-23.870001000000002,-18.059998999999998,2d
2019-07-15_172632:860,-0.35791,-0.016266,-0.346222,-0.004793,0.004497,0.002754,-32.560001,-23.870001000000002,-18.059998999999998,2d
2019-07-15_172632:880,-0.358917,-0.016266,-0.34368899999999997,-0.004488000000000001,0.004954999999999999,0.002388,-32.560001,-23.870001000000002,-18.059998999999998,2d
2019-07-15_172632:900,-0.354858,-0.017273,-0.34265100000000004,-0.00403,0.004894,0.001625,-32.560001,-23.870001000000002,-18.059998999999998,2d
2019-07-15_172632:920,-0.355896,-0.01828,-0.342163,-0.003573,0.00471,0.001106,-33.0,-23.870001000000002,-19.25,2d
2019-07-15_172632:940,-0.355377,-0.018799,-0.344177,-0.0029010000000000004,0.004497,0.0008619999999999999,-33.0,-23.870001000000002,-19.25,2d
2019-07-15_172632:960,-0.352844,-0.019318000000000002,-0.34368899999999997,-0.002199,0.003764,0.000526,-33.0,-23.870001000000002,-19.25,2d
2019-07-15_172632:980,-0.35131799999999996,-0.018799,-0.34317,-0.001772,0.003124,0.00016,-32.560001,-23.870001000000002,-17.559998999999998,2d
2019-07-15_172633:000,-0.3508,-0.018799,-0.338074,-0.000734,0.002239,6.8e-05,-32.560001,-23.870001000000002,-17.559998999999998,2d
2019-07-15_172633:020,-0.355377,-0.015228,-0.338593,-0.000521,0.0019030000000000002,0.000129,-31.75,-23.870001000000002,-18.75,2d
2019-07-15_172633:040,-0.352844,-0.014221000000000001,-0.338074,-0.000796,0.000743,-0.000908,-31.75,-23.870001000000002,-18.75,2d
2019-07-15_172633:060,-0.352325,-0.013702,-0.34063699999999997,-0.001314,-0.000264,-0.001854,-31.75,-23.870001000000002,-18.75,2d
2019-07-15_172633:080,-0.353851,-0.012177,-0.338593,-0.00165,-0.00124,-0.002098,-33.0,-24.18,-18.059998999999998,2d
2019-07-15_172633:100,-0.356903,-0.013213999999999998,-0.34063699999999997,-0.002169,-0.001302,-0.002037,-33.0,-24.18,-18.059998999999998,2d
2019-07-15_172633:120,-0.361969,-0.011687999999999999,-0.341125,-0.002382,-0.001057,-0.002434,-32.560001,-23.870001000000002,-18.5,2d
2019-07-15_172633:140,-0.360962,-0.013213999999999998,-0.34570300000000004,-0.0025050000000000003,1.1e-05,-0.002983,-32.560001,-23.870001000000002,-18.5,2d
2019-07-15_172633:160,-0.363007,-0.012177,-0.347748,-0.002718,0.0010789999999999999,-0.002587,-32.560001,-23.870001000000002,-18.5,2d
2019-07-15_172633:180,-0.360962,-0.011687999999999999,-0.348267,-0.0025960000000000002,0.001292,-0.002251,-32.18,-23.5,-18.059998999999998,2d
2019-07-15_172633:200,-0.358917,-0.011687999999999999,-0.346222,-0.0025960000000000002,0.002361,-0.001366,-32.18,-23.5,-18.059998999999998,2d
2019-07-15_172633:220,-0.361481,-0.011687999999999999,-0.344177,-0.0025050000000000003,0.002574,-0.0011220000000000002,-32.18,-23.870001000000002,-18.059998999999998,2d
2019-07-15_172633:240,-0.355896,-0.012177,-0.34368899999999997,-0.0028399999999999996,0.003307,-0.001397,-32.18,-23.870001000000002,-18.059998999999998,2d
2019-07-15_172633:260,-0.353333,-0.012177,-0.341644,-0.002932,0.0029100000000000003,-0.0011220000000000002,-32.18,-23.870001000000002,-18.059998999999998,2d
2019-07-15_172633:280,-0.353333,-0.012177,-0.34368899999999997,-0.002932,0.002574,-0.0013050000000000002,-32.18,-23.870001000000002,-18.75,2d
2019-07-15_172633:300,-0.35638400000000003,-0.011687999999999999,-0.342163,-0.0029010000000000004,0.001628,-0.002495,-32.18,-23.870001000000002,-18.75,2d
2019-07-15_172633:320,-0.35638400000000003,-0.011169,-0.34063699999999997,-0.002718,0.0019030000000000002,-0.002648,-31.5,-23.870001000000002,-18.75,2d
2019-07-15_172633:340,-0.36044299999999996,-0.010162000000000001,-0.341125,-0.002932,0.002116,-0.0013050000000000002,-31.5,-23.870001000000002,-18.75,2d
2019-07-15_172633:360,-0.354858,-0.012177,-0.34265100000000004,-0.002718,0.002116,-0.000908,-31.5,-23.870001000000002,-18.75,2d
2019-07-15_172633:380,-0.35436999999999996,-0.011169,-0.34265100000000004,-0.002535,0.001628,-0.0019149999999999998,-32.560001,-24.18,-17.559998999999998,2d
2019-07-15_172633:400,-0.355896,-0.010162000000000001,-0.34368899999999997,-0.0021079999999999996,0.0010789999999999999,-0.002037,-32.560001,-24.18,-17.559998999999998,2d
2019-07-15_172633:420,-0.354858,-0.011169,-0.344696,-0.0017109999999999998,0.000621,-0.002098,-32.18,-23.5,-18.75,2d
2019-07-15_172633:440,-0.353851,-0.009644,-0.344177,-0.0014060000000000001,0.000285,-0.0017929999999999999,-32.18,-23.5,-18.75,2d
2019-07-15_172633:460,-0.35739099999999996,-0.011169,-0.345215,-0.001253,0.000133,-0.002037,-32.18,-23.5,-18.75,2d
2019-07-15_172633:480,-0.361481,-0.008636,-0.345215,-0.001192,0.00022400000000000002,-0.002098,-31.059998999999998,-24.18,-18.5,2d
2019-07-15_172633:500,-0.36248800000000003,-0.008636,-0.347229,-0.001467,0.00172,-0.00216,-31.059998999999998,-24.18,-18.5,2d
2019-07-15_172633:520,-0.35791,-0.007111,-0.34674099999999997,-0.001467,0.0019030000000000002,-0.0019149999999999998,-33.0,-24.18,-17.559998999999998,2d
2019-07-15_172633:540,-0.358429,-0.006072999999999999,-0.348267,-0.001864,0.002361,-0.001183,-33.0,-24.18,-17.559998999999998,2d
2019-07-15_172633:560,-0.35791,-0.0055850000000000006,-0.34570300000000004,-0.0021079999999999996,0.002635,-0.0009689999999999999,-33.0,-24.18,-17.559998999999998,2d
2019-07-15_172633:580,-0.35943600000000003,-0.006592,-0.34317,-0.002382,0.002757,-0.000786,-32.560001,-24.559998999999998,-19.559998999999998,2d
2019-07-15_172633:600,-0.355896,-0.005065999999999999,-0.34063699999999997,-0.003054,0.003093,0.0007700000000000001,-32.560001,-24.559998999999998,-19.559998999999998,2d
2019-07-15_172633:620,-0.352844,-0.004547,-0.342163,-0.003237,0.002788,0.001442,-31.75,-24.18,-18.5,2d
2019-07-15_172633:640,-0.350281,-0.005065999999999999,-0.341125,-0.003878,0.001292,0.002449,-31.75,-24.18,-18.5,2d
2019-07-15_172633:660,-0.352844,-0.0030210000000000002,-0.342163,-0.004488000000000001,0.000621,0.00309,-31.75,-24.18,-18.5,2d
2019-07-15_172633:680,-0.36044299999999996,0.0,-0.34368899999999997,-0.005129,0.000499,0.0033640000000000002,-32.18,-24.18,-18.059998999999998,2d
2019-07-15_172633:700,-0.365021,-0.0025329999999999997,-0.34265100000000004,-0.006991,0.001598,0.00489,-32.18,-24.18,-18.059998999999998,2d
2019-07-15_172633:720,-0.360962,-0.0055850000000000006,-0.344177,-0.007662,0.0019030000000000002,0.004951,-32.18,-24.18,-18.75,2d
2019-07-15_172633:740,-0.35791,-0.008636,-0.344177,-0.008791,0.0024519999999999998,0.005287,-32.18,-24.18,-18.75,2d
2019-07-15_172633:760,-0.353333,-0.015747,-0.346222,-0.008578,0.002055,0.005806,-32.18,-24.18,-18.75,2d
2019-07-15_172633:780,-0.352844,-0.017273,-0.34674099999999997,-0.008333,0.001842,0.0055,-31.5,-23.870001000000002,-18.75,2d
2019-07-15_172633:800,-0.35638400000000003,-0.018799,-0.345215,-0.007326000000000001,0.002177,0.004646,-31.5,-23.870001000000002,-18.75,2d
2019-07-15_172633:820,-0.36044299999999996,-0.01828,-0.34570300000000004,-0.006745999999999999,0.002361,0.003975,-31.5,-23.870001000000002,-18.75,2d
2019-07-15_172633:840,-0.35943600000000003,-0.016266,-0.34368899999999997,-0.005526,0.0035810000000000004,0.00309,-32.18,-25.0,-18.059998999999998,2d
2019-07-15_172633:860,-0.355896,-0.016753999999999998,-0.341125,-0.005221,0.003764,0.003242,-32.18,-25.0,-18.059998999999998,2d
2019-07-15_172633:880,-0.354858,-0.014740000000000001,-0.341644,-0.004671,0.0035810000000000004,0.002967,-32.18,-24.18,-18.059998999999998,2d
2019-07-15_172633:900,-0.35436999999999996,-0.014740000000000001,-0.341125,-0.004397,0.0029100000000000003,0.0029059999999999997,-32.18,-24.18,-18.059998999999998,2d
2019-07-15_172633:920,-0.35638400000000003,-0.013702,-0.34368899999999997,-0.004091,0.002116,0.00309,-32.18,-24.18,-18.059998999999998,2d
2019-07-15_172633:940,-0.35739099999999996,-0.015228,-0.34265100000000004,-0.004213000000000001,0.001964,0.002967,-32.18,-23.870001000000002,-18.059998999999998,2d
2019-07-15_172633:960,-0.36044299999999996,-0.013702,-0.342163,-0.004336,0.0017809999999999998,0.002754,-32.18,-23.870001000000002,-18.059998999999998,2d
2019-07-15_172633:980,-0.360962,-0.013702,-0.34368899999999997,-0.004336,0.002116,0.002388,-32.560001,-23.870001000000002,-18.5,2d
2019-07-15_172634:000,-0.359955,-0.013702,-0.34265100000000004,-0.004275,0.002971,0.002235,-32.560001,-23.870001000000002,-18.5,2d
2019-07-15_172634:020,-0.360962,-0.013213999999999998,-0.34368899999999997,-0.004397,0.003246,0.0026320000000000002,-32.560001,-23.870001000000002,-18.5,2d
2019-07-15_172634:040,-0.356903,-0.014221000000000001,-0.34265100000000004,-0.004671,0.003368,0.0021739999999999997,-33.68,-23.870001000000002,-18.75,2d
2019-07-15_172634:060,-0.353851,-0.014221000000000001,-0.341644,-0.004824,0.0031850000000000003,0.00196,-33.68,-23.870001000000002,-18.75,2d
2019-07-15_172634:080,-0.358429,-0.013213999999999998,-0.34063699999999997,-0.0048850000000000005,0.002757,0.002113,-33.0,-23.870001000000002,-18.75,2d
2019-07-15_172634:100,-0.35638400000000003,-0.013213999999999998,-0.339111,-0.005404,0.002513,0.001442,-33.0,-23.870001000000002,-18.75,2d
2019-07-15_172634:120,-0.36044299999999996,-0.011687999999999999,-0.337067,-0.005953,0.002513,0.000587,-32.560001,-23.870001000000002,-17.559998999999998,2d
2019-07-15_172634:140,-0.36248800000000003,-0.014740000000000001,-0.34063699999999997,-0.006014,0.002361,0.001777,-32.560001,-23.870001000000002,-17.559998999999998,2d
2019-07-15_172634:160,-0.361969,-0.013702,-0.341644,-0.006411,0.002849,0.001503,-32.560001,-23.870001000000002,-17.559998999999998,2d
2019-07-15_172634:180,-0.364532,-0.016753999999999998,-0.34265100000000004,-0.006075,0.003032,0.001228,-32.560001,-23.870001000000002,-18.75,2d
2019-07-15_172634:200,-0.36349499999999996,-0.015228,-0.339111,-0.005526,0.003703,0.000526,-32.560001,-23.870001000000002,-18.75,2d
2019-07-15_172634:220,-0.361969,-0.015747,-0.34063699999999997,-0.005129,0.003703,0.001228,-32.560001,-23.870001000000002,-18.75,2d
2019-07-15_172634:240,-0.35791,-0.016266,-0.34063699999999997,-0.004549,0.003825,0.001381,-33.25,-23.5,-18.5,2d
2019-07-15_172634:260,-0.355377,-0.014221000000000001,-0.338074,-0.003939,0.003764,0.001106,-33.25,-23.5,-18.5,2d
2019-07-15_172634:280,-0.355896,-0.014221000000000001,-0.338593,-0.00339,0.002971,0.000984,-33.0,-23.5,-18.059998999999998,2d
2019-07-15_172634:300,-0.35638400000000003,-0.013702,-0.33758499999999997,-0.003237,0.002574,0.000648,-33.0,-23.5,-18.059998999999998,2d
2019-07-15_172634:320,-0.36044299999999996,-0.014221000000000001,-0.3396,-0.003054,0.002177,0.000526,-33.68,-23.870001000000002,-17.68,2d
2019-07-15_172634:340,-0.36044299999999996,-0.015228,-0.340118,-0.003176,0.002239,-0.000176,-33.68,-23.870001000000002,-17.68,2d
2019-07-15_172634:360,-0.35791,-0.016266,-0.339111,-0.0028399999999999996,0.001994,-0.000512,-33.68,-23.870001000000002,-17.68,2d
2019-07-15_172634:380,-0.35436999999999996,-0.017273,-0.339111,-0.002443,0.001201,-0.000725,-32.560001,-24.18,-18.059998999999998,2d
2019-07-15_172634:400,-0.35131799999999996,-0.01828,-0.338074,-0.001772,0.00016299999999999998,-0.001,-32.560001,-24.18,-18.059998999999998,2d
2019-07-15_172634:420,-0.352844,-0.016753999999999998,-0.338074,-0.000857,-0.00124,-0.0019149999999999998,-32.560001,-24.18,-18.059998999999998,2d
2019-07-15_172634:440,-0.361481,-0.013213999999999998,-0.337067,-0.000124,-0.001912,-0.002495,-33.0,-23.5,-17.559998999999998,2d
2019-07-15_172634:460,-0.36349499999999996,-0.009644,-0.337067,0.000334,-0.001637,-0.0019760000000000003,-33.0,-23.5,-17.559998999999998,2d
2019-07-15_172634:480,-0.365021,-0.007599,-0.339111,-0.000246,-0.0009660000000000001,-0.001183,-33.0,-23.870001000000002,-18.059998999999998,2d
2019-07-15_172634:500,-0.36706500000000003,-0.006072999999999999,-0.342163,-0.001131,0.00016299999999999998,-0.0013050000000000002,-33.0,-23.870001000000002,-18.059998999999998,2d
2019-07-15_172634:520,-0.365021,-0.007599,-0.34368899999999997,-0.002199,0.0009570000000000001,-0.000634,-33.0,-23.870001000000002,-18.059998999999998,2d
2019-07-15_172634:540,-0.363007,-0.009644,-0.34265100000000004,-0.0033280000000000002,0.0016589999999999999,0.000343,-33.0,-24.18,-18.059998999999998,2d
2019-07-15_172634:560,-0.361481,-0.011169,-0.34317,-0.004091,0.001964,0.000129,-33.0,-24.18,-18.059998999999998,2d
2019-07-15_172634:580,-0.363007,-0.014740000000000001,-0.344177,-0.004275,0.002361,0.00016,-33.0,-23.5,-17.559998999999998,2d
2019-07-15_172634:600,-0.36349499999999996,-0.014221000000000001,-0.341125,-0.004,0.002788,-0.0008470000000000001,-33.0,-23.5,-17.559998999999998,2d
2019-07-15_172634:620,-0.361969,-0.013213999999999998,-0.34317,-0.003878,0.003093,-0.001,-33.0,-23.5,-17.559998999999998,2d
2019-07-15_172634:640,-0.35791,-0.013702,-0.341125,-0.003664,0.003246,-0.000786,-33.0,-23.5,-18.5,2d
2019-07-15_172634:660,-0.358429,-0.013213999999999998,-0.34265100000000004,-0.00339,0.003368,-0.000908,-33.0,-23.5,-18.5,2d
2019-07-15_172634:680,-0.36044299999999996,-0.011169,-0.34063699999999997,-0.003054,0.003307,-0.001397,-32.18,-23.5,-17.559998999999998,2d
2019-07-15_172634:700,-0.363007,-0.010651,-0.338074,-0.002657,0.003368,-0.001183,-32.18,-23.5,-17.559998999999998,2d
2019-07-15_172634:720,-0.361481,-0.009125,-0.339111,-0.002657,0.0036420000000000003,-0.000573,-32.18,-23.5,-17.559998999999998,2d
2019-07-15_172634:740,-0.361481,-0.006072999999999999,-0.337067,-0.0029010000000000004,0.003917,0.00028199999999999997,-32.560001,-24.18,-18.059998999999998,2d
2019-07-15_172634:760,-0.361481,-0.005065999999999999,-0.337067,-0.0036340000000000005,0.003886,0.001503,-32.560001,-24.18,-18.059998999999998,2d
2019-07-15_172634:780,-0.359955,-0.0035399999999999997,-0.33758499999999997,-0.004397,0.0035810000000000004,0.002571,-33.0,-23.870001000000002,-18.059998999999998,2d
2019-07-15_172634:800,-0.36248800000000003,-0.0025329999999999997,-0.33758499999999997,-0.0056170000000000005,0.003307,0.0033640000000000002,-33.0,-23.870001000000002,-18.059998999999998,2d
