timestamp,AccX,AccY,AccZ,GyroX,GyroY,GyroZ,MagX,MagY,MagZ,Activity
2019-07-15_130206:920,-0.41995200000000005,-0.027954000000000003,-0.267914,-0.004946,-0.000386,-5.4000000000000005e-05,-28.870001000000002,-18.870001000000002,-19.870001000000002,3b
2019-07-15_130206:940,-0.426544,-0.023375999999999997,-0.262848,-0.004213000000000001,-0.000325,0.000129,-28.870001000000002,-18.870001000000002,-19.870001000000002,3b
2019-07-15_130206:960,-0.42858900000000005,-0.022858,-0.263855,-0.004213000000000001,-0.000264,0.001167,-28.870001000000002,-18.870001000000002,-19.870001000000002,3b
2019-07-15_130206:980,-0.432159,-0.022369,-0.262848,-0.004732,0.000346,0.002571,-27.75,-18.5,-19.5,3b
2019-07-15_130207:000,-0.427063,-0.025908999999999998,-0.261322,-0.005068,0.0014759999999999999,0.002754,-27.75,-18.5,-19.5,3b
2019-07-15_130207:020,-0.421967,-0.027954000000000003,-0.263336,-0.0051600000000000005,0.002055,0.002754,-28.5,-18.5,-20.68,3b
2019-07-15_130207:040,-0.417908,-0.030487,-0.267426,-0.004549,0.0019030000000000002,0.003242,-28.5,-18.5,-20.68,3b
2019-07-15_130207:060,-0.42453,-0.025908999999999998,-0.266388,-0.004213000000000001,0.0014759999999999999,0.004158,-28.5,-18.5,-20.68,3b
2019-07-15_130207:080,-0.420959,-0.022369,-0.264862,-0.005526,0.00172,0.004554,-29.25,-18.18,-19.059998999999998,3b
2019-07-15_130207:100,-0.427063,-0.01828,-0.264862,-0.007448000000000001,0.002361,0.00428,-29.25,-18.18,-19.059998999999998,3b
2019-07-15_130207:120,-0.42605600000000005,-0.021332,-0.264374,-0.010317,0.003307,0.0033640000000000002,-28.5,-18.5,-19.870001000000002,3b
2019-07-15_130207:140,-0.43011499999999997,-0.028442000000000002,-0.264862,-0.01166,0.00471,0.002571,-28.5,-18.5,-19.870001000000002,3b
2019-07-15_130207:160,-0.431122,-0.030487,-0.264374,-0.011446,0.006084,0.001167,-28.5,-18.5,-19.870001000000002,3b
2019-07-15_130207:180,-0.421967,-0.034546,-0.260284,-0.010317,0.0071519999999999995,0.000984,-28.5,-18.870001000000002,-18.68,3b
2019-07-15_130207:200,-0.42758199999999996,-0.03302,-0.26181,-0.008333,0.006938,0.001106,-28.5,-18.870001000000002,-18.68,3b
2019-07-15_130207:220,-0.426544,-0.027435,-0.258759,-0.006991,0.007213,0.001045,-28.870001000000002,-18.870001000000002,-19.5,3b
2019-07-15_130207:240,-0.41995200000000005,-0.024384,-0.25521900000000003,-0.006197,0.007273999999999999,0.000648,-28.870001000000002,-18.870001000000002,-19.5,3b
2019-07-15_130207:260,-0.420959,-0.023375999999999997,-0.25521900000000003,-0.006258,0.006755,-0.000328,-28.870001000000002,-18.870001000000002,-19.5,3b
2019-07-15_130207:280,-0.42758199999999996,-0.027954000000000003,-0.255707,-0.005922,0.006358,-0.000725,-29.18,-18.5,-19.059998999999998,3b
2019-07-15_130207:300,-0.430634,-0.029480000000000003,-0.25521900000000003,-0.005129,0.006358,-0.000908,-29.18,-18.5,-19.059998999999998,3b
2019-07-15_130207:320,-0.42758199999999996,-0.026427999999999997,-0.254211,-0.004091,0.006755,-0.000664,-28.370001000000002,-18.5,-19.059998999999998,3b
2019-07-15_130207:340,-0.423492,-0.022369,-0.25116,-0.003237,0.00648,-0.000176,-28.370001000000002,-18.5,-19.059998999999998,3b
2019-07-15_130207:360,-0.425018,-0.020844,-0.250641,-0.0033280000000000002,0.006175,0.00016,-28.370001000000002,-18.5,-19.059998999999998,3b
2019-07-15_130207:380,-0.425018,-0.016753999999999998,-0.248108,-0.004213000000000001,0.005412,0.000831,-28.0,-18.870001000000002,-18.68,3b
2019-07-15_130207:400,-0.425537,-0.018799,-0.24963400000000002,-0.0051600000000000005,0.004894,0.001228,-28.0,-18.870001000000002,-18.68,3b
2019-07-15_130207:420,-0.42401099999999997,-0.022369,-0.24963400000000002,-0.006411,0.004314,0.000343,-29.18,-18.870001000000002,-18.25,3b
2019-07-15_130207:440,-0.42807,-0.025908999999999998,-0.248596,-0.006684999999999999,0.004161,-0.00011499999999999999,-29.18,-18.870001000000002,-18.25,3b
2019-07-15_130207:460,-0.429108,-0.028442000000000002,-0.246063,-0.006197,0.004161,-0.000512,-29.18,-18.870001000000002,-18.25,3b
2019-07-15_130207:480,-0.43774399999999997,-0.024902,-0.246063,-0.005221,0.004161,-0.001519,-28.870001000000002,-18.5,-18.25,3b
2019-07-15_130207:500,-0.432648,-0.019318000000000002,-0.24353000000000002,-0.004213000000000001,0.004771,-0.0009689999999999999,-28.870001000000002,-18.5,-18.25,3b
2019-07-15_130207:520,-0.430634,-0.015228,-0.246063,-0.003817,0.005016,-0.000573,-29.559998999999998,-19.25,-19.059998999999998,3b
2019-07-15_130207:540,-0.432159,-0.013213999999999998,-0.24453699999999998,-0.004397,0.004161,-0.0009689999999999999,-29.559998999999998,-19.25,-19.059998999999998,3b
2019-07-15_130207:560,-0.430634,-0.014221000000000001,-0.245056,-0.005221,0.003764,0.000129,-29.559998999999998,-19.25,-19.059998999999998,3b
2019-07-15_130207:580,-0.42758199999999996,-0.021851,-0.24658200000000002,-0.006014,0.003307,0.001106,-29.5,-18.5,-18.25,3b
2019-07-15_130207:600,-0.429108,-0.024902,-0.248108,-0.006258,0.0029100000000000003,0.000831,-29.5,-18.5,-18.25,3b
2019-07-15_130207:620,-0.42858900000000005,-0.026427999999999997,-0.250641,-0.006014,0.002788,0.000343,-29.870001000000002,-18.870001000000002,-17.870001000000002,3b
2019-07-15_130207:640,-0.42605600000000005,-0.023895,-0.252686,-0.005739,0.002849,0.000526,-29.870001000000002,-18.870001000000002,-17.870001000000002,3b
2019-07-15_130207:660,-0.425537,-0.025421,-0.255707,-0.005739,0.002788,0.000587,-29.870001000000002,-18.870001000000002,-17.870001000000002,3b
2019-07-15_130207:680,-0.429108,-0.024384,-0.2547,-0.005739,0.002361,0.00028199999999999997,-30.0,-19.25,-17.5,3b
2019-07-15_130207:700,-0.437225,-0.027435,-0.248108,-0.005678,0.002849,-0.000328,-30.0,-19.25,-17.5,3b
2019-07-15_130207:720,-0.43670699999999996,-0.026917,-0.24706999999999998,-0.0048850000000000005,0.003978,-0.000512,-30.0,-18.870001000000002,-17.870001000000002,3b
2019-07-15_130207:740,-0.42605600000000005,-0.022858,-0.24706999999999998,-0.003817,0.004771,-0.001366,-30.0,-18.870001000000002,-17.870001000000002,3b
2019-07-15_130207:760,-0.427063,-0.016266,-0.24658200000000002,-0.0033280000000000002,0.003978,-0.001397,-30.0,-18.870001000000002,-17.870001000000002,3b
2019-07-15_130207:780,-0.42858900000000005,-0.012695,-0.24353000000000002,-0.003664,0.002849,-0.0008470000000000001,-30.0,-18.870001000000002,-17.5,3b
2019-07-15_130207:800,-0.433167,-0.010162000000000001,-0.24096700000000001,-0.00461,0.0024519999999999998,6.8e-05,-30.0,-18.870001000000002,-17.5,3b
2019-07-15_130207:820,-0.433167,-0.011169,-0.24453699999999998,-0.0056170000000000005,0.002513,0.00028199999999999997,-30.0,-19.25,-16.25,3b
2019-07-15_130207:840,-0.431641,-0.013213999999999998,-0.242004,-0.006869,0.003032,6.8e-05,-30.0,-19.25,-16.25,3b
2019-07-15_130207:860,-0.42605600000000005,-0.016753999999999998,-0.245056,-0.007081999999999999,0.0029100000000000003,-5.4000000000000005e-05,-30.0,-19.25,-16.25,3b
2019-07-15_130207:880,-0.42807,-0.017792,-0.245056,-0.006869,0.002055,-0.00045099999999999996,-29.559998999999998,-18.870001000000002,-17.5,3b
2019-07-15_130207:900,-0.43011499999999997,-0.019318000000000002,-0.24658200000000002,-0.005861,0.001201,-0.000176,-29.559998999999998,-18.870001000000002,-17.5,3b
2019-07-15_130207:920,-0.429596,-0.020325,-0.24706999999999998,-0.004793,0.00114,0.000648,-29.559998999999998,-18.870001000000002,-17.870001000000002,3b
2019-07-15_130207:940,-0.43621800000000005,-0.019318000000000002,-0.245544,-0.0037560000000000002,0.0012619999999999999,0.001716,-29.559998999999998,-18.870001000000002,-17.870001000000002,3b
2019-07-15_130207:960,-0.43927,-0.017792,-0.243011,-0.002932,0.00172,0.0021739999999999997,-29.559998999999998,-18.870001000000002,-17.870001000000002,3b
2019-07-15_130207:980,-0.431122,-0.016266,-0.245056,-0.002535,0.002361,0.00132,-29.559998999999998,-18.870001000000002,-17.870001000000002,3b
2019-07-15_130208:000,-0.42858900000000005,-0.013702,-0.246063,-0.002657,0.001628,-0.000664,-29.559998999999998,-18.870001000000002,-17.870001000000002,3b
2019-07-15_130208:020,-0.42401099999999997,-0.014221000000000001,-0.24353000000000002,-0.0031149999999999997,0.000682,-0.00158,-30.370001000000002,-18.870001000000002,-18.25,3b
2019-07-15_130208:040,-0.432648,-0.012177,-0.244019,-0.003573,1.1e-05,-0.001,-30.370001000000002,-18.870001000000002,-18.25,3b
2019-07-15_130208:060,-0.43518100000000004,-0.013702,-0.244019,-0.003878,0.00056,-0.000389,-30.370001000000002,-18.870001000000002,-18.25,3b
2019-07-15_130208:080,-0.432648,-0.013702,-0.24353000000000002,-0.004275,0.0009570000000000001,6.8e-05,-30.0,-19.25,-17.5,3b
2019-07-15_130208:100,-0.431641,-0.013213999999999998,-0.245056,-0.004488000000000001,0.0009570000000000001,0.001228,-30.0,-19.25,-17.5,3b
2019-07-15_130208:120,-0.431122,-0.012695,-0.24758899999999998,-0.0048850000000000005,0.0009570000000000001,0.002388,-30.370001000000002,-19.25,-18.25,3b
2019-07-15_130208:140,-0.43774399999999997,-0.013213999999999998,-0.24658200000000002,-0.005678,0.001353,0.002357,-30.370001000000002,-19.25,-18.25,3b
2019-07-15_130208:160,-0.437225,-0.017792,-0.248108,-0.006411,0.001628,0.00251,-30.370001000000002,-19.25,-18.25,3b
2019-07-15_130208:180,-0.43621800000000005,-0.021851,-0.24963400000000002,-0.00635,0.00172,0.003303,-29.559998999999998,-19.25,-17.059998999999998,3b
2019-07-15_130208:200,-0.437225,-0.020325,-0.24706999999999998,-0.005953,0.0023,0.003303,-29.559998999999998,-19.25,-17.059998999999998,3b
2019-07-15_130208:220,-0.44027700000000003,-0.017273,-0.24706999999999998,-0.0056170000000000005,0.003246,0.0030280000000000003,-30.0,-19.25,-17.870001000000002,3b
2019-07-15_130208:240,-0.434174,-0.016753999999999998,-0.24658200000000002,-0.006197,0.003825,0.001045,-30.0,-19.25,-17.870001000000002,3b
2019-07-15_130208:260,-0.433167,-0.015747,-0.24706999999999998,-0.007204,0.004039,6.8e-05,-30.0,-19.25,-17.870001000000002,3b
2019-07-15_130208:280,-0.43670699999999996,-0.016266,-0.242493,-0.007815,0.003886,0.001167,-31.059998999999998,-18.870001000000002,-17.5,3b
2019-07-15_130208:300,-0.441803,-0.017792,-0.241486,-0.008516,0.005107,0.001503,-31.059998999999998,-18.870001000000002,-17.5,3b
2019-07-15_130208:320,-0.443329,-0.017273,-0.23895300000000003,-0.00873,0.006297,0.001838,-30.0,-19.25,-17.059998999999998,3b
2019-07-15_130208:340,-0.433167,-0.017273,-0.234375,-0.008272,0.007273999999999999,0.001564,-30.0,-19.25,-17.059998999999998,3b
2019-07-15_130208:360,-0.42858900000000005,-0.020325,-0.23486300000000002,-0.007601,0.006755,0.0008619999999999999,-30.0,-19.25,-17.059998999999998,3b
2019-07-15_130208:380,-0.426544,-0.021851,-0.23486300000000002,-0.006258,0.004649,0.000923,-30.75,-19.25,-16.68,3b
2019-07-15_130208:400,-0.43011499999999997,-0.021332,-0.230804,-0.005129,0.003093,0.0022960000000000003,-30.75,-19.25,-16.68,3b
2019-07-15_130208:420,-0.431641,-0.020844,-0.23233,-0.004213000000000001,0.002177,0.0029059999999999997,-30.370001000000002,-19.68,-16.25,3b
2019-07-15_130208:440,-0.43774399999999997,-0.013213999999999998,-0.234375,-0.00403,0.0016589999999999999,0.0021739999999999997,-30.370001000000002,-19.68,-16.25,3b
2019-07-15_130208:460,-0.434174,-0.010651,-0.237427,-0.004824,0.001598,0.0007700000000000001,-30.370001000000002,-19.68,-16.25,3b
2019-07-15_130208:480,-0.435699,-0.009644,-0.240479,-0.0066549999999999995,0.000743,-0.000328,-30.370001000000002,-18.870001000000002,-16.25,3b
2019-07-15_130208:500,-0.43670699999999996,-0.011169,-0.23995999999999998,-0.007784,0.000865,-0.000573,-30.370001000000002,-18.870001000000002,-16.25,3b
2019-07-15_130208:520,-0.44638100000000003,-0.014221000000000001,-0.23791500000000002,-0.008272,0.001964,-0.001854,-30.0,-19.68,-16.25,3b
2019-07-15_130208:540,-0.445862,-0.015747,-0.23690799999999998,-0.00812,0.00352,-0.002434,-30.0,-19.68,-16.25,3b
2019-07-15_130208:560,-0.43670699999999996,-0.017273,-0.239441,-0.0069299999999999995,0.004222,-0.002526,-30.0,-19.68,-16.25,3b
2019-07-15_130208:580,-0.43621800000000005,-0.015747,-0.23895300000000003,-0.005465,0.003917,-0.001397,-30.75,-19.25,-15.87,3b
2019-07-15_130208:600,-0.435699,-0.015228,-0.234375,-0.004275,0.00349,0.000465,-30.75,-19.25,-15.87,3b
2019-07-15_130208:620,-0.43774399999999997,-0.014221000000000001,-0.236389,-0.002932,0.0029100000000000003,0.0022960000000000003,-30.75,-18.5,-15.06,3b
2019-07-15_130208:640,-0.441803,-0.014740000000000001,-0.23590100000000003,-0.002169,0.002757,0.003975,-30.75,-18.5,-15.06,3b
2019-07-15_130208:660,-0.44027700000000003,-0.012695,-0.237427,-0.002199,0.002757,0.00489,-30.75,-18.5,-15.06,3b
2019-07-15_130208:680,-0.44027700000000003,-0.012177,-0.23590100000000003,-0.003054,0.003124,0.004615,-30.75,-19.68,-15.06,3b
2019-07-15_130208:700,-0.44027700000000003,-0.011169,-0.234375,-0.004427,0.0036420000000000003,0.003913000000000001,-30.75,-19.68,-15.06,3b
2019-07-15_130208:720,-0.435699,-0.012695,-0.235382,-0.006136,0.003368,0.00196,-30.370001000000002,-18.870001000000002,-16.25,3b
2019-07-15_130208:740,-0.432648,-0.013702,-0.234375,-0.007204,0.002696,0.000587,-30.370001000000002,-18.870001000000002,-16.25,3b
2019-07-15_130208:760,-0.43774399999999997,-0.017792,-0.23284899999999997,-0.007723000000000001,0.0019030000000000002,-0.000176,-30.370001000000002,-18.870001000000002,-16.25,3b
2019-07-15_130208:780,-0.441284,-0.017792,-0.23284899999999997,-0.007601,0.002116,7.000000000000001e-06,-30.75,-19.68,-15.5,3b
2019-07-15_130208:800,-0.43927,-0.019318000000000002,-0.233856,-0.007051999999999999,0.002757,0.000709,-30.75,-19.68,-15.5,3b
2019-07-15_130208:820,-0.440796,-0.019318000000000002,-0.233856,-0.005953,0.003246,0.001258,-30.370001000000002,-19.68,-16.68,3b
2019-07-15_130208:840,-0.432648,-0.012177,-0.235382,-0.0056170000000000005,0.003032,0.001564,-30.370001000000002,-19.68,-16.68,3b
2019-07-15_130208:860,-0.433167,-0.013213999999999998,-0.23690799999999998,-0.005953,0.002239,0.000923,-30.370001000000002,-19.68,-16.68,3b
2019-07-15_130208:880,-0.433655,-0.010162000000000001,-0.235382,-0.007204,0.0017809999999999998,0.000221,-30.75,-19.25,-15.87,3b
2019-07-15_130208:900,-0.43774399999999997,-0.010651,-0.234375,-0.008333,0.001415,0.000343,-30.75,-19.25,-15.87,3b
2019-07-15_130208:920,-0.43927,-0.015747,-0.236389,-0.008608,0.0016589999999999999,0.000129,-30.370001000000002,-19.68,-16.25,3b
2019-07-15_130208:940,-0.440796,-0.017273,-0.236389,-0.008211,0.002239,-0.000512,-30.370001000000002,-19.68,-16.25,3b
2019-07-15_130208:960,-0.44027700000000003,-0.015747,-0.238434,-0.007601,0.002849,-0.0008470000000000001,-30.370001000000002,-19.68,-16.25,3b
2019-07-15_130208:980,-0.44384799999999996,-0.015228,-0.236389,-0.0069299999999999995,0.00352,-0.001366,-31.059998999999998,-19.25,-15.5,3b
2019-07-15_130209:000,-0.44281000000000004,-0.012695,-0.234375,-0.006258,0.003764,-0.0008470000000000001,-31.059998999999998,-19.25,-15.5,3b
2019-07-15_130209:020,-0.441284,-0.012177,-0.23284899999999997,-0.005739,0.003978,-0.000176,-30.75,-19.25,-15.5,3b
2019-07-15_130209:040,-0.44281000000000004,-0.010162000000000001,-0.231323,-0.005282,0.004161,0.000465,-30.75,-19.25,-15.5,3b
2019-07-15_130209:060,-0.440796,-0.007599,-0.227264,-0.005129,0.004619,0.0007700000000000001,-30.75,-19.25,-15.5,3b
2019-07-15_130209:080,-0.445374,-0.008118,-0.22927899999999998,-0.005556,0.005107,0.001258,-30.370001000000002,-20.0,-15.87,3b
2019-07-15_130209:100,-0.438751,-0.0055850000000000006,-0.22879000000000002,-0.00635,0.005046,0.0018989999999999999,-30.370001000000002,-20.0,-15.87,3b
2019-07-15_130209:120,-0.440796,-0.005065999999999999,-0.231323,-0.006869,0.004375,0.001838,-31.059998999999998,-19.68,-14.68,3b
2019-07-15_130209:140,-0.441284,-0.0055850000000000006,-0.22979699999999997,-0.007662,0.0036420000000000003,0.001838,-31.059998999999998,-19.68,-14.68,3b
2019-07-15_130209:160,-0.444855,-0.006072999999999999,-0.227753,-0.008211,0.0035810000000000004,0.0021739999999999997,-31.059998999999998,-19.68,-14.68,3b
2019-07-15_130209:180,-0.445374,-0.006592,-0.226227,-0.008851999999999999,0.00352,0.002571,-30.75,-20.0,-15.5,3b
2019-07-15_130209:200,-0.447388,-0.009125,-0.22521999999999998,-0.009004999999999999,0.0036420000000000003,0.002784,-30.75,-20.0,-15.5,3b
2019-07-15_130209:220,-0.447388,-0.009125,-0.223694,-0.009127,0.003703,0.002845,-32.25,-19.68,-14.68,3b
2019-07-15_130209:240,-0.447388,-0.010651,-0.22216799999999998,-0.009401000000000001,0.003886,0.003913000000000001,-32.25,-19.68,-14.68,3b
2019-07-15_130209:260,-0.445374,-0.012177,-0.22116100000000002,-0.009340000000000001,0.0041,0.003913000000000001,-32.25,-19.68,-14.68,3b
2019-07-15_130209:280,-0.441284,-0.013213999999999998,-0.222687,-0.009066,0.0034289999999999998,0.00251,-30.75,-20.0,-15.06,3b
2019-07-15_130209:300,-0.44281000000000004,-0.011687999999999999,-0.223694,-0.008578,0.0029100000000000003,0.0022960000000000003,-30.75,-20.0,-15.06,3b
2019-07-15_130209:320,-0.445862,-0.012695,-0.223694,-0.00812,0.002635,0.0026320000000000002,-31.870001000000002,-18.870001000000002,-13.87,3b
2019-07-15_130209:340,-0.445374,-0.013213999999999998,-0.22216799999999998,-0.007387,0.002971,0.002845,-31.870001000000002,-18.870001000000002,-13.87,3b
2019-07-15_130209:360,-0.446899,-0.011687999999999999,-0.22164899999999998,-0.0066549999999999995,0.003307,0.0026320000000000002,-31.870001000000002,-18.870001000000002,-13.87,3b
2019-07-15_130209:380,-0.44433599999999995,-0.013213999999999998,-0.223175,-0.006014,0.003368,0.00251,-30.75,-19.25,-14.37,3b
2019-07-15_130209:400,-0.44433599999999995,-0.012177,-0.22164899999999998,-0.005404,0.003093,0.0033640000000000002,-30.75,-19.25,-14.37,3b
2019-07-15_130209:420,-0.447906,-0.013213999999999998,-0.220123,-0.0051600000000000005,0.003032,0.003639,-31.5,-19.25,-14.68,3b
2019-07-15_130209:440,-0.446899,-0.013213999999999998,-0.220123,-0.005221,0.0031850000000000003,0.004158,-31.5,-19.25,-14.68,3b
2019-07-15_130209:460,-0.446899,-0.014221000000000001,-0.220123,-0.005465,0.0029100000000000003,0.003639,-31.5,-19.25,-14.68,3b
2019-07-15_130209:480,-0.441803,-0.016266,-0.21911599999999998,-0.005404,0.0023,0.002754,-31.870001000000002,-19.25,-13.87,3b
2019-07-15_130209:500,-0.437225,-0.015228,-0.219635,-0.005282,0.001415,0.0022960000000000003,-31.870001000000002,-19.25,-13.87,3b
2019-07-15_130209:520,-0.440796,-0.018799,-0.22216799999999998,-0.005068,0.0008039999999999999,0.002449,-30.75,-19.25,-14.37,3b
2019-07-15_130209:540,-0.441284,-0.017792,-0.22116100000000002,-0.004,7.2e-05,0.001716,-30.75,-19.25,-14.37,3b
2019-07-15_130209:560,-0.44281000000000004,-0.016753999999999998,-0.223694,-0.00339,-0.000325,0.001564,-30.75,-19.25,-14.37,3b
2019-07-15_130209:580,-0.447388,-0.015228,-0.227753,-0.003054,-0.000172,0.001991,-30.75,-19.68,-13.87,3b
2019-07-15_130209:600,-0.44638100000000003,-0.015228,-0.227753,-0.002932,0.000407,0.0029059999999999997,-30.75,-19.68,-13.87,3b
2019-07-15_130209:620,-0.451477,-0.013702,-0.228271,-0.0029010000000000004,0.000865,0.002967,-32.25,-19.25,-13.87,3b
2019-07-15_130209:640,-0.451477,-0.011687999999999999,-0.227753,-0.003176,0.0023,0.002388,-32.25,-19.25,-13.87,3b
2019-07-15_130209:660,-0.447388,-0.010651,-0.227753,-0.003878,0.0029100000000000003,0.001258,-32.25,-19.25,-13.87,3b
2019-07-15_130209:680,-0.447906,-0.010162000000000001,-0.22879000000000002,-0.004275,0.003093,0.000984,-31.5,-19.25,-13.18,3b
2019-07-15_130209:700,-0.44891400000000004,-0.012695,-0.228271,-0.005282,0.003825,0.001228,-31.5,-19.25,-13.18,3b
2019-07-15_130209:720,-0.44891400000000004,-0.015747,-0.226227,-0.005221,0.004161,0.001381,-32.560001,-19.25,-13.18,3b
2019-07-15_130209:740,-0.443329,-0.014740000000000001,-0.22421300000000002,-0.004397,0.0052899999999999996,0.000709,-32.560001,-19.25,-13.18,3b
2019-07-15_130209:760,-0.43518100000000004,-0.011169,-0.22421300000000002,-0.004091,0.00471,0.00028199999999999997,-32.560001,-19.25,-13.18,3b
2019-07-15_130209:780,-0.434174,-0.009125,-0.227753,-0.004091,0.004161,0.000587,-31.5,-18.870001000000002,-13.5,3b
2019-07-15_130209:800,-0.437225,-0.007111,-0.22521999999999998,-0.004793,0.0024519999999999998,0.002693,-31.5,-18.870001000000002,-13.5,3b
2019-07-15_130209:820,-0.445862,-0.007111,-0.223694,-0.005282,0.002239,0.0029059999999999997,-31.870001000000002,-19.25,-13.5,3b
2019-07-15_130209:840,-0.44891400000000004,-0.008118,-0.224701,-0.006807,0.002849,0.002754,-31.870001000000002,-19.25,-13.5,3b
2019-07-15_130209:860,-0.44891400000000004,-0.011169,-0.223175,-0.007784,0.003124,0.003181,-31.870001000000002,-19.25,-13.5,3b
2019-07-15_130209:880,-0.446899,-0.015747,-0.223694,-0.008059,0.003246,0.003486,-31.870001000000002,-19.68,-13.87,3b
2019-07-15_130209:900,-0.446899,-0.017273,-0.21911599999999998,-0.008059,0.002971,0.003425,-31.870001000000002,-19.68,-13.87,3b
2019-07-15_130209:920,-0.447388,-0.019318000000000002,-0.21759,-0.007937,0.002696,0.0030280000000000003,-31.870001000000002,-19.68,-13.87,3b
2019-07-15_130209:940,-0.44891400000000004,-0.020325,-0.21859699999999999,-0.007051999999999999,0.003307,0.00196,-31.059998999999998,-18.5,-13.5,3b
2019-07-15_130209:960,-0.445374,-0.021332,-0.217072,-0.006991,0.003124,0.001625,-31.059998999999998,-18.5,-13.5,3b
2019-07-15_130209:980,-0.44281000000000004,-0.020325,-0.21911599999999998,-0.006014,0.003032,0.001991,-32.25,-18.870001000000002,-14.37,3b
2019-07-15_130210:000,-0.444855,-0.021332,-0.21759,-0.004824,0.002513,0.001045,-32.25,-18.870001000000002,-14.37,3b
2019-07-15_130210:020,-0.44433599999999995,-0.017792,-0.21911599999999998,-0.004549,0.002177,0.001625,-32.25,-18.5,-13.5,3b
2019-07-15_130210:040,-0.443329,-0.017792,-0.220123,-0.0048850000000000005,0.0017809999999999998,0.00132,-32.25,-18.5,-13.5,3b
2019-07-15_130210:060,-0.444855,-0.014740000000000001,-0.21859699999999999,-0.005282,0.001598,0.001228,-32.25,-18.5,-13.5,3b
2019-07-15_130210:080,-0.447388,-0.016753999999999998,-0.220123,-0.005404,0.001842,0.0008619999999999999,-32.560001,-18.870001000000002,-14.37,3b
2019-07-15_130210:100,-0.44384799999999996,-0.017273,-0.22116100000000002,-0.006197,0.001598,0.000923,-32.560001,-18.870001000000002,-14.37,3b
2019-07-15_130210:120,-0.441284,-0.019318000000000002,-0.222687,-0.006136,0.001353,0.001442,-32.560001,-18.870001000000002,-14.37,3b
2019-07-15_130210:140,-0.44281000000000004,-0.023895,-0.223175,-0.005953,0.000743,0.000923,-32.25,-19.68,-13.18,3b
2019-07-15_130210:160,-0.44638100000000003,-0.024902,-0.21859699999999999,-0.0048850000000000005,0.000743,0.000221,-32.25,-19.68,-13.18,3b
2019-07-15_130210:180,-0.446899,-0.021851,-0.220642,-0.003817,0.0009570000000000001,0.000221,-31.5,-18.870001000000002,-12.0,3b
2019-07-15_130210:200,-0.44891400000000004,-0.022858,-0.220642,-0.0034509999999999996,0.0010789999999999999,7.000000000000001e-06,-31.5,-18.870001000000002,-12.0,3b
2019-07-15_130210:220,-0.447388,-0.019806,-0.220123,-0.0025960000000000002,0.000865,0.000221,-31.059998999999998,-19.25,-12.68,3b
2019-07-15_130210:240,-0.44638100000000003,-0.017792,-0.21911599999999998,-0.0025050000000000003,0.0008960000000000001,0.001045,-31.059998999999998,-19.25,-12.68,3b
2019-07-15_130210:260,-0.44891400000000004,-0.015747,-0.21554600000000002,-0.0031149999999999997,0.0008960000000000001,0.000984,-31.059998999999998,-19.25,-12.68,3b
2019-07-15_130210:280,-0.45043900000000003,-0.016266,-0.217072,-0.003817,0.001353,0.0018989999999999999,-32.25,-18.5,-13.5,3b
2019-07-15_130210:300,-0.444855,-0.018799,-0.21606399999999998,-0.004732,0.001201,0.001655,-32.25,-18.5,-13.5,3b
2019-07-15_130210:320,-0.44027700000000003,-0.020325,-0.21859699999999999,-0.004824,0.001018,0.001258,-32.25,-18.5,-13.5,3b
2019-07-15_130210:340,-0.441803,-0.021851,-0.217072,-0.004824,-0.000325,0.000587,-32.560001,-18.5,-13.5,3b
2019-07-15_130210:360,-0.447906,-0.023895,-0.21606399999999998,-0.004549,-0.000722,0.001045,-32.560001,-18.5,-13.5,3b
2019-07-15_130210:380,-0.446899,-0.023895,-0.21911599999999998,-0.00403,-0.0005690000000000001,0.001503,-33.25,-18.870001000000002,-13.5,3b
2019-07-15_130210:400,-0.44384799999999996,-0.023375999999999997,-0.21810900000000003,-0.003512,-0.00011100000000000001,0.001564,-33.25,-18.870001000000002,-13.5,3b
2019-07-15_130210:420,-0.43621800000000005,-0.021851,-0.21911599999999998,-0.0032979999999999997,-0.000264,0.001625,-33.25,-18.870001000000002,-13.5,3b
2019-07-15_130210:440,-0.433167,-0.021851,-0.220642,-0.0032979999999999997,-0.001515,0.000984,-32.25,-18.870001000000002,-13.18,3b
2019-07-15_130210:460,-0.437225,-0.022369,-0.22116100000000002,-0.002993,-0.002827,0.000526,-32.25,-18.870001000000002,-13.18,3b
2019-07-15_130210:480,-0.44232200000000005,-0.023375999999999997,-0.223175,-0.0029010000000000004,-0.0037119999999999996,0.000221,-32.25,-18.5,-13.5,3b
2019-07-15_130210:500,-0.446899,-0.025908999999999998,-0.223175,-0.0025050000000000003,-0.003773,6.8e-05,-32.25,-18.5,-13.5,3b
2019-07-15_130210:520,-0.435699,-0.027954000000000003,-0.227753,-0.002199,-0.002888,6.8e-05,-32.25,-18.5,-13.5,3b
2019-07-15_130210:540,-0.439758,-0.028442000000000002,-0.23028600000000002,-0.000399,-0.003621,0.000496,-32.25,-18.5,-13.18,3b
2019-07-15_130210:560,-0.446899,-0.027435,-0.228271,0.0012490000000000001,-0.003682,0.000129,-32.25,-18.5,-13.18,3b
2019-07-15_130210:580,-0.45553599999999994,-0.022858,-0.233856,0.002378,-0.002522,0.000129,-32.25,-20.0,-14.37,3b
2019-07-15_130210:600,-0.45196499999999995,-0.021332,-0.233337,0.002073,-0.000325,-0.00045099999999999996,-32.25,-20.0,-14.37,3b
2019-07-15_130210:620,-0.446899,-0.019318000000000002,-0.23028600000000002,0.000944,0.0014759999999999999,-0.0008470000000000001,-32.25,-20.0,-14.37,3b
2019-07-15_130210:640,-0.44281000000000004,-0.019318000000000002,-0.224701,-6.3e-05,0.002361,-0.000786,-32.25,-18.870001000000002,-15.06,3b
2019-07-15_130210:660,-0.435699,-0.019318000000000002,-0.22216799999999998,-0.000796,0.002635,-0.002495,-32.25,-18.870001000000002,-15.06,3b
2019-07-15_130210:680,-0.430634,-0.017273,-0.225739,-0.0015279999999999998,0.0017809999999999998,-0.00396,-32.25,-18.870001000000002,-14.37,3b
2019-07-15_130210:700,-0.43518100000000004,-0.020325,-0.227264,-0.001986,7.2e-05,-0.004021,-32.25,-18.870001000000002,-14.37,3b
2019-07-15_130210:720,-0.433655,-0.017792,-0.22927899999999998,-0.002382,-0.001637,-0.004448,-32.25,-18.870001000000002,-14.37,3b
2019-07-15_130210:740,-0.44384799999999996,-0.020325,-0.22879000000000002,-0.002169,-0.002705,-0.0037159999999999997,-32.25,-18.870001000000002,-14.68,3b
2019-07-15_130210:760,-0.44384799999999996,-0.01828,-0.227753,-0.001772,-0.0024920000000000003,-0.003228,-32.25,-18.870001000000002,-14.68,3b
2019-07-15_130210:780,-0.440796,-0.017273,-0.233856,-0.00107,-0.001912,-0.0034409999999999996,-31.5,-18.5,-15.06,3b
2019-07-15_130210:800,-0.44232200000000005,-0.015747,-0.231323,-0.0006730000000000001,-0.001698,-0.0034409999999999996,-31.5,-18.5,-15.06,3b
2019-07-15_130210:820,-0.43927,-0.011687999999999999,-0.236389,-0.000582,-0.001576,-0.00216,-31.5,-18.5,-15.06,3b
2019-07-15_130210:840,-0.43670699999999996,-0.010651,-0.23690799999999998,-0.000643,-0.001454,-0.0009689999999999999,-31.870001000000002,-19.25,-15.06,3b
2019-07-15_130210:860,-0.44027700000000003,-0.010651,-0.23690799999999998,-0.000643,-0.00179,-0.000908,-31.870001000000002,-19.25,-15.06,3b
2019-07-15_130210:880,-0.440796,-0.008636,-0.238434,-0.001009,-0.001698,-0.000328,-32.560001,-19.25,-14.37,3b
2019-07-15_130210:900,-0.439758,-0.010651,-0.23690799999999998,-0.001925,-0.001118,0.001258,-32.560001,-19.25,-14.37,3b
2019-07-15_130210:920,-0.43927,-0.010651,-0.238434,-0.0031149999999999997,-0.0005690000000000001,0.002571,-32.560001,-19.25,-14.37,3b
2019-07-15_130210:940,-0.438751,-0.012177,-0.237427,-0.00461,0.000346,0.002784,-31.059998999999998,-18.870001000000002,-14.37,3b
2019-07-15_130210:960,-0.431122,-0.010162000000000001,-0.240479,-0.006075,0.000682,0.002449,-31.059998999999998,-18.870001000000002,-14.37,3b
2019-07-15_130210:980,-0.432159,-0.015228,-0.240479,-0.007387,-0.00011100000000000001,0.002571,-31.870001000000002,-19.68,-15.06,3b
2019-07-15_130211:000,-0.432648,-0.01828,-0.23690799999999998,-0.008394,-0.0009660000000000001,0.002052,-31.870001000000002,-19.68,-15.06,3b
2019-07-15_130211:020,-0.438751,-0.020844,-0.238434,-0.008791,-0.001118,0.002113,-31.870001000000002,-19.68,-15.06,3b
2019-07-15_130211:040,-0.437225,-0.022858,-0.239441,-0.008454999999999999,-0.001454,0.00132,-31.5,-18.5,-14.37,3b
2019-07-15_130211:060,-0.440796,-0.022369,-0.23690799999999998,-0.007723000000000001,-0.001179,0.000587,-31.5,-18.5,-14.37,3b
2019-07-15_130211:080,-0.439758,-0.024902,-0.236389,-0.006075,-0.001027,0.0008619999999999999,-31.059998999999998,-18.5,-14.68,3b
2019-07-15_130211:100,-0.443329,-0.021332,-0.235382,-0.005556,-0.000661,0.0008619999999999999,-31.059998999999998,-18.5,-14.68,3b
2019-07-15_130211:120,-0.441803,-0.021332,-0.238434,-0.004397,0.0008039999999999999,6.8e-05,-31.059998999999998,-18.5,-14.68,3b
2019-07-15_130211:140,-0.437225,-0.017792,-0.23995999999999998,-0.004091,0.001201,7.000000000000001e-06,-31.059998999999998,-18.870001000000002,-13.87,3b
2019-07-15_130211:160,-0.431641,-0.016753999999999998,-0.237427,-0.003939,0.00114,0.000343,-31.059998999999998,-18.870001000000002,-13.87,3b
2019-07-15_130211:180,-0.431641,-0.013702,-0.237427,-0.004,0.000743,-5.4000000000000005e-05,-31.870001000000002,-18.870001000000002,-15.5,3b
2019-07-15_130211:200,-0.433655,-0.012695,-0.23590100000000003,-0.004152,0.00022400000000000002,6.8e-05,-31.870001000000002,-18.870001000000002,-15.5,3b
2019-07-15_130211:220,-0.44027700000000003,-0.013702,-0.239441,-0.0048850000000000005,0.000285,0.000526,-31.870001000000002,-18.870001000000002,-15.5,3b
2019-07-15_130211:240,-0.43670699999999996,-0.014740000000000001,-0.23995999999999998,-0.0056170000000000005,0.000682,0.00132,-31.5,-19.25,-16.25,3b
2019-07-15_130211:260,-0.437225,-0.016266,-0.241486,-0.006197,0.000407,0.002113,-31.5,-19.25,-16.25,3b
2019-07-15_130211:280,-0.43670699999999996,-0.018799,-0.241486,-0.006807,-0.000172,0.001655,-31.059998999999998,-18.870001000000002,-14.68,3b
2019-07-15_130211:300,-0.449432,-0.019806,-0.23895300000000003,-0.006684999999999999,0.000499,0.001106,-31.059998999999998,-18.870001000000002,-14.68,3b
2019-07-15_130211:320,-0.449432,-0.020325,-0.23895300000000003,-0.0064719999999999995,0.0017809999999999998,0.000984,-31.059998999999998,-18.870001000000002,-14.68,3b
2019-07-15_130211:340,-0.446899,-0.022369,-0.23895300000000003,-0.006258,0.003368,0.000984,-31.5,-18.5,-15.5,3b
2019-07-15_130211:360,-0.44281000000000004,-0.022369,-0.23895300000000003,-0.005465,0.0041,0.000923,-31.5,-18.5,-15.5,3b
2019-07-15_130211:380,-0.43774399999999997,-0.020844,-0.239441,-0.00461,0.004161,0.000923,-31.5,-19.25,-15.5,3b
2019-07-15_130211:400,-0.437225,-0.018799,-0.23895300000000003,-0.004,0.003978,0.000221,-31.5,-19.25,-15.5,3b
2019-07-15_130211:420,-0.43774399999999997,-0.015228,-0.239441,-0.0037560000000000002,0.003917,0.00016,-31.5,-19.25,-15.5,3b
2019-07-15_130211:440,-0.44281000000000004,-0.014740000000000001,-0.23791500000000002,-0.004275,0.0042829999999999995,0.000221,-31.059998999999998,-18.870001000000002,-15.06,3b
2019-07-15_130211:460,-0.440796,-0.013213999999999998,-0.23895300000000003,-0.005007,0.00471,-0.000267,-31.059998999999998,-18.870001000000002,-15.06,3b
2019-07-15_130211:480,-0.44281000000000004,-0.013702,-0.238434,-0.005739,0.005412,-0.000786,-32.25,-18.870001000000002,-15.06,3b
2019-07-15_130211:500,-0.45043900000000003,-0.017273,-0.23895300000000003,-0.005861,0.006418999999999999,-0.000512,-32.25,-18.870001000000002,-15.06,3b
2019-07-15_130211:520,-0.449432,-0.017273,-0.23995999999999998,-0.005526,0.008342,0.000129,-32.25,-18.870001000000002,-15.06,3b
2019-07-15_130211:540,-0.44891400000000004,-0.016753999999999998,-0.239441,-0.005221,0.009807,0.0008619999999999999,-31.5,-18.870001000000002,-14.37,3b
2019-07-15_130211:560,-0.452484,-0.017273,-0.235382,-0.004824,0.011394,0.001167,-31.5,-18.870001000000002,-14.37,3b
2019-07-15_130211:580,-0.452484,-0.013702,-0.231812,-0.004549,0.013072,0.0007700000000000001,-31.870001000000002,-19.25,-14.37,3b
2019-07-15_130211:600,-0.44638100000000003,-0.013213999999999998,-0.227264,-0.004824,0.014262,0.001655,-31.870001000000002,-19.25,-14.37,3b
2019-07-15_130211:620,-0.440796,-0.015228,-0.22521999999999998,-0.0058,0.014322999999999999,0.0018989999999999999,-31.870001000000002,-19.25,-14.37,3b
2019-07-15_130211:640,-0.441284,-0.013213999999999998,-0.222687,-0.006258,0.013590999999999999,0.000984,-31.059998999999998,-18.5,-14.37,3b
2019-07-15_130211:660,-0.434692,-0.015228,-0.219635,-0.0066549999999999995,0.01353,0.000343,-31.059998999999998,-18.5,-14.37,3b
2019-07-15_130211:680,-0.441803,-0.016266,-0.21911599999999998,-0.006869,0.012279,0.00028199999999999997,-31.870001000000002,-18.870001000000002,-11.5,3b
2019-07-15_130211:700,-0.435699,-0.019318000000000002,-0.21606399999999998,-0.006533,0.011211,0.0008619999999999999,-31.870001000000002,-18.870001000000002,-11.5,3b
2019-07-15_130211:720,-0.43774399999999997,-0.020325,-0.21453899999999998,-0.005861,0.009288,0.000587,-31.870001000000002,-18.870001000000002,-11.5,3b
2019-07-15_130211:740,-0.439758,-0.021332,-0.21249400000000002,-0.004732,0.00822,0.000496,-31.559998999999998,-18.5,-12.37,3b
2019-07-15_130211:760,-0.43927,-0.019318000000000002,-0.209961,-0.0036950000000000004,0.006816,0.000831,-31.559998999999998,-18.5,-12.37,3b
2019-07-15_130211:780,-0.44433599999999995,-0.016753999999999998,-0.20944200000000002,-0.002993,0.005412,0.001258,-32.0,-19.25,-12.0,3b
2019-07-15_130211:800,-0.448425,-0.014740000000000001,-0.207916,-0.0028399999999999996,0.00471,0.001167,-32.0,-19.25,-12.0,3b
2019-07-15_130211:820,-0.45043900000000003,-0.012695,-0.208954,-0.003054,0.004375,0.001045,-32.0,-19.25,-12.0,3b
2019-07-15_130211:840,-0.449432,-0.012177,-0.20843499999999998,-0.0037560000000000002,0.004497,0.000984,-32.0,-19.25,-12.37,3b
2019-07-15_130211:860,-0.453003,-0.013702,-0.207916,-0.00403,0.004161,0.001167,-32.0,-19.25,-12.37,3b
2019-07-15_130211:880,-0.45706199999999997,-0.014740000000000001,-0.208954,-0.004549,0.0041,0.001625,-32.0,-18.870001000000002,-12.0,3b
2019-07-15_130211:900,-0.453491,-0.015747,-0.207916,-0.004549,0.0045579999999999996,0.0008619999999999999,-32.0,-18.870001000000002,-12.0,3b
2019-07-15_130211:920,-0.44891400000000004,-0.015747,-0.207916,-0.004427,0.0045579999999999996,6.8e-05,-32.0,-18.870001000000002,-12.0,3b
2019-07-15_130211:940,-0.44638100000000003,-0.017273,-0.20639000000000002,-0.004336,0.003978,0.000587,-33.0,-20.0,-11.18,3b
2019-07-15_130211:960,-0.445374,-0.016266,-0.204376,-0.00403,0.003124,0.000984,-33.0,-20.0,-11.18,3b
2019-07-15_130211:980,-0.446899,-0.015747,-0.20639000000000002,-0.003512,0.0019030000000000002,0.000648,-32.0,-18.5,-13.18,3b
2019-07-15_130212:000,-0.45196499999999995,-0.014221000000000001,-0.20639000000000002,-0.0032979999999999997,0.0019030000000000002,0.000526,-32.0,-18.5,-13.18,3b
2019-07-15_130212:020,-0.45095799999999997,-0.013213999999999998,-0.206909,-0.003512,0.001842,0.000465,-32.0,-18.5,-13.18,3b
2019-07-15_130212:040,-0.44384799999999996,-0.012695,-0.20639000000000002,-0.003664,0.0016589999999999999,0.00028199999999999997,-33.0,-19.25,-12.0,3b
2019-07-15_130212:060,-0.445374,-0.013213999999999998,-0.20639000000000002,-0.003664,0.001018,0.00016,-33.0,-19.25,-12.0,3b
2019-07-15_130212:080,-0.444855,-0.013213999999999998,-0.208954,-0.003664,1.1e-05,0.000221,-32.369999,-18.870001000000002,-12.0,3b
2019-07-15_130212:100,-0.445374,-0.015228,-0.20742800000000003,-0.003573,-0.0009050000000000001,0.000526,-32.369999,-18.870001000000002,-12.0,3b
2019-07-15_130212:120,-0.44891400000000004,-0.014221000000000001,-0.208954,-0.0036340000000000005,-0.001576,0.000923,-32.369999,-18.870001000000002,-12.0,3b
2019-07-15_130212:140,-0.447906,-0.014221000000000001,-0.208954,-0.0034509999999999996,-0.002095,0.0008619999999999999,-31.559998999999998,-19.25,-11.5,3b
2019-07-15_130212:160,-0.455017,-0.015747,-0.209961,-0.003512,-0.0024920000000000003,0.001228,-31.559998999999998,-19.25,-11.5,3b
2019-07-15_130212:180,-0.45806899999999995,-0.013213999999999998,-0.20843499999999998,-0.0036340000000000005,-0.001363,0.0021739999999999997,-32.369999,-18.870001000000002,-13.87,3b
2019-07-15_130212:200,-0.461639,-0.015747,-0.21048000000000003,-0.0037560000000000002,0.000133,0.0026320000000000002,-32.369999,-18.870001000000002,-13.87,3b
2019-07-15_130212:220,-0.453003,-0.016266,-0.210968,-0.004336,0.001628,0.003303,-32.369999,-18.870001000000002,-13.87,3b
2019-07-15_130212:240,-0.443329,-0.019318000000000002,-0.21453899999999998,-0.004275,0.0014759999999999999,0.003517,-32.369999,-18.5,-12.0,3b
2019-07-15_130212:260,-0.441284,-0.019318000000000002,-0.21249400000000002,-0.004091,0.000133,0.0026320000000000002,-32.369999,-18.5,-12.0,3b
2019-07-15_130212:280,-0.44232200000000005,-0.019806,-0.213531,-0.00403,-0.001363,0.0030280000000000003,-32.68,-19.25,-13.18,3b
2019-07-15_130212:300,-0.441284,-0.021332,-0.21148699999999998,-0.004152,-0.002248,0.0029059999999999997,-32.68,-19.25,-13.18,3b
2019-07-15_130212:320,-0.44384799999999996,-0.020844,-0.21402,-0.004793,-0.002888,0.002357,-32.68,-19.25,-13.18,3b
2019-07-15_130212:340,-0.445862,-0.022858,-0.21859699999999999,-0.004732,-0.00298,0.002693,-33.0,-19.25,-12.0,3b
2019-07-15_130212:360,-0.444855,-0.025421,-0.22164899999999998,-0.004671,-0.003163,0.001045,-33.0,-19.25,-12.0,3b
2019-07-15_130212:380,-0.445862,-0.023895,-0.220642,-0.003939,-0.003163,0.000343,-32.68,-19.25,-13.18,3b
2019-07-15_130212:400,-0.452484,-0.026917,-0.222687,-0.00339,-0.002888,0.00028199999999999997,-32.68,-19.25,-13.18,3b
2019-07-15_130212:420,-0.44995100000000005,-0.025421,-0.223175,-0.0031149999999999997,-0.002095,-0.001183,-32.68,-19.25,-13.18,3b
2019-07-15_130212:440,-0.448425,-0.023895,-0.223694,-0.0022600000000000003,-0.001759,-0.001519,-33.0,-18.5,-13.18,3b
2019-07-15_130212:460,-0.449432,-0.022369,-0.22421300000000002,-0.0017109999999999998,-0.001179,-0.002373,-33.0,-18.5,-13.18,3b
2019-07-15_130212:480,-0.453003,-0.019318000000000002,-0.223694,-0.001253,-0.000722,-0.001641,-32.68,-18.870001000000002,-13.18,3b
2019-07-15_130212:500,-0.451477,-0.016753999999999998,-0.222687,-0.001375,0.000468,-0.001183,-32.68,-18.870001000000002,-13.18,3b
2019-07-15_130212:520,-0.447906,-0.016266,-0.220642,-0.00165,0.001353,-0.0008470000000000001,-32.68,-18.870001000000002,-13.18,3b
2019-07-15_130212:540,-0.445374,-0.016753999999999998,-0.220642,-0.001925,0.001842,-0.000786,-32.369999,-18.5,-12.68,3b
2019-07-15_130212:560,-0.44384799999999996,-0.017792,-0.219635,-0.002382,0.001628,-0.00045099999999999996,-32.369999,-18.5,-12.68,3b
2019-07-15_130212:580,-0.44281000000000004,-0.019318000000000002,-0.22216799999999998,-0.002657,0.001201,-0.000176,-32.369999,-18.870001000000002,-12.0,3b
2019-07-15_130212:600,-0.445374,-0.020325,-0.22116100000000002,-0.0025960000000000002,0.0008039999999999999,-0.000389,-32.369999,-18.870001000000002,-12.0,3b
2019-07-15_130212:620,-0.448425,-0.021851,-0.22216799999999998,-0.002321,0.0008039999999999999,-0.000786,-32.369999,-18.870001000000002,-12.0,3b
2019-07-15_130212:640,-0.447906,-0.021851,-0.220123,-0.001772,0.0008960000000000001,-0.000176,-33.0,-18.870001000000002,-13.5,3b
2019-07-15_130212:660,-0.445862,-0.022858,-0.220642,-0.00107,0.001292,0.000587,-33.0,-18.870001000000002,-13.5,3b
2019-07-15_130212:680,-0.441284,-0.023895,-0.22116100000000002,-0.000277,0.0009570000000000001,-0.000389,-32.68,-18.5,-12.68,3b
2019-07-15_130212:700,-0.44384799999999996,-0.021332,-0.21859699999999999,0.00011999999999999999,0.000407,-0.001,-32.68,-18.5,-12.68,3b
2019-07-15_130212:720,-0.441803,-0.021332,-0.219635,0.00045599999999999997,0.000133,-0.000267,-32.68,-18.5,-12.68,3b
2019-07-15_130212:740,-0.443329,-0.022369,-0.22116100000000002,0.000334,-0.000233,-0.000634,-32.68,-18.5,-13.5,3b
2019-07-15_130212:760,-0.44433599999999995,-0.022369,-0.219635,0.000334,-0.001057,-0.001854,-32.68,-18.5,-13.5,3b
2019-07-15_130212:780,-0.44384799999999996,-0.020844,-0.22116100000000002,0.00045599999999999997,-0.0009660000000000001,-0.002526,-32.0,-18.5,-13.87,3b
2019-07-15_130212:800,-0.437225,-0.017273,-0.21759,0.00011999999999999999,-0.001363,-0.0023120000000000003,-32.0,-18.5,-13.87,3b
2019-07-15_130212:820,-0.432159,-0.014740000000000001,-0.21911599999999998,-0.00045999999999999996,-0.002888,-0.0017929999999999999,-32.0,-18.5,-13.87,3b
2019-07-15_130212:840,-0.427063,-0.010651,-0.21505700000000003,-0.00165,-0.005299,-0.001641,-32.369999,-18.870001000000002,-13.5,3b
2019-07-15_130212:860,-0.42858900000000005,-0.011687999999999999,-0.21810900000000003,-0.002993,-0.008473,-0.00011499999999999999,-32.369999,-18.870001000000002,-13.5,3b
2019-07-15_130212:880,-0.44638100000000003,-0.014740000000000001,-0.22421300000000002,-0.004152,-0.010334999999999999,6.8e-05,-32.0,-18.870001000000002,-15.06,3b
2019-07-15_130212:900,-0.45553599999999994,-0.016753999999999998,-0.226746,-0.005129,-0.010152,-0.000725,-32.0,-18.870001000000002,-15.06,3b
2019-07-15_130212:920,-0.45654300000000003,-0.022369,-0.23233,-0.005556,-0.007741,-0.000634,-32.0,-18.870001000000002,-15.06,3b
2019-07-15_130212:940,-0.451477,-0.025421,-0.23486300000000002,-0.005282,-0.00536,-0.000389,-32.369999,-19.0,-14.37,3b
2019-07-15_130212:960,-0.44638100000000003,-0.027435,-0.237427,-0.00403,-0.0037119999999999996,7.000000000000001e-06,-32.369999,-19.0,-14.37,3b
2019-07-15_130212:980,-0.444855,-0.025421,-0.239441,-0.0028399999999999996,-0.002705,0.00016,-32.0,-18.559998999999998,-14.68,3b
2019-07-15_130213:000,-0.44027700000000003,-0.023895,-0.23791500000000002,-0.001314,-0.002034,6.8e-05,-32.0,-18.559998999999998,-14.68,3b
2019-07-15_130213:020,-0.439758,-0.019806,-0.23895300000000003,-0.000399,-0.001912,-0.000786,-32.0,-18.559998999999998,-14.68,3b
2019-07-15_130213:040,-0.43823199999999995,-0.01828,-0.235382,-0.000277,-0.001637,-0.0012439999999999999,-31.559998999999998,-19.0,-14.37,3b
2019-07-15_130213:060,-0.438751,-0.017273,-0.23590100000000003,-0.000521,-0.001302,-0.001641,-31.559998999999998,-19.0,-14.37,3b
2019-07-15_130213:080,-0.432159,-0.016266,-0.236389,-0.000734,-0.001179,-0.0012439999999999999,-31.559998999999998,-19.0,-14.68,3b
2019-07-15_130213:100,-0.42807,-0.017273,-0.23590100000000003,-0.000582,-0.001973,-0.001,-31.559998999999998,-19.0,-14.68,3b
2019-07-15_130213:120,-0.437225,-0.015747,-0.238434,-0.000338,-0.0024920000000000003,-0.001397,-31.559998999999998,-19.0,-14.68,3b
2019-07-15_130213:140,-0.43927,-0.015747,-0.240479,-0.000246,-0.0027660000000000002,-0.001366,-32.68,-19.370001000000002,-15.06,3b
2019-07-15_130213:160,-0.43518100000000004,-0.017273,-0.239441,-0.000338,-0.002522,-0.0008470000000000001,-32.68,-19.370001000000002,-15.06,3b
2019-07-15_130213:180,-0.434174,-0.013213999999999998,-0.238434,-0.000857,-0.002522,0.000526,-31.18,-18.25,-14.68,3b
2019-07-15_130213:200,-0.432648,-0.018799,-0.23690799999999998,-0.001131,-0.00298,0.00132,-31.18,-18.25,-14.68,3b
2019-07-15_130213:220,-0.42807,-0.019806,-0.23791500000000002,-0.0015279999999999998,-0.0039570000000000004,0.000129,-31.18,-18.25,-14.68,3b
2019-07-15_130213:240,-0.426544,-0.023375999999999997,-0.238434,-0.001192,-0.005299,0.000129,-31.559998999999998,-18.559998999999998,-15.06,3b
2019-07-15_130213:260,-0.427063,-0.024902,-0.23791500000000002,-0.00045999999999999996,-0.006612000000000001,0.000526,-31.559998999999998,-18.559998999999998,-15.06,3b
2019-07-15_130213:280,-0.439758,-0.027954000000000003,-0.245544,0.000547,-0.006825,0.001228,-30.870001000000002,-19.370001000000002,-14.68,3b
2019-07-15_130213:300,-0.440796,-0.029480000000000003,-0.24963400000000002,0.001524,-0.005574,0.001655,-30.870001000000002,-19.370001000000002,-14.68,3b
2019-07-15_130213:320,-0.44027700000000003,-0.023375999999999997,-0.25116,0.00247,-0.0039570000000000004,0.0007700000000000001,-30.870001000000002,-19.370001000000002,-14.68,3b
2019-07-15_130213:340,-0.438751,-0.016266,-0.25116,0.002317,-0.002583,-5.4000000000000005e-05,-32.0,-18.5,-16.25,3b
2019-07-15_130213:360,-0.439758,-0.013213999999999998,-0.251648,0.001005,-0.001363,-0.00011499999999999999,-32.0,-18.5,-16.25,3b
2019-07-15_130213:380,-0.43670699999999996,-0.012177,-0.25012199999999996,-0.001314,-0.000386,0.0008619999999999999,-31.18,-19.0,-16.25,3b
2019-07-15_130213:400,-0.43670699999999996,-0.015228,-0.24658200000000002,-0.0036340000000000005,0.000468,0.001258,-31.18,-19.0,-16.25,3b
2019-07-15_130213:420,-0.43518100000000004,-0.020325,-0.245056,-0.005129,0.0010789999999999999,0.000648,-31.18,-19.0,-16.25,3b
2019-07-15_130213:440,-0.429596,-0.023895,-0.248108,-0.006014,0.0016589999999999999,0.00132,-30.870001000000002,-18.559998999999998,-16.25,3b
2019-07-15_130213:460,-0.42807,-0.027435,-0.245056,-0.006319,0.001292,0.002388,-30.870001000000002,-18.559998999999998,-16.25,3b
2019-07-15_130213:480,-0.426544,-0.029480000000000003,-0.246063,-0.005739,0.000743,0.0021739999999999997,-30.870001000000002,-18.559998999999998,-15.87,3b
2019-07-15_130213:500,-0.432159,-0.029480000000000003,-0.24758899999999998,-0.005129,0.000346,0.001228,-30.870001000000002,-18.559998999999998,-15.87,3b
2019-07-15_130213:520,-0.43518100000000004,-0.028961,-0.248596,-0.004,0.000346,0.001106,-30.870001000000002,-18.559998999999998,-15.87,3b
2019-07-15_130213:540,-0.431641,-0.025908999999999998,-0.248596,-0.003573,0.0009570000000000001,0.000923,-31.559998999999998,-18.559998999999998,-15.5,3b
2019-07-15_130213:560,-0.433655,-0.024384,-0.24706999999999998,-0.0032979999999999997,0.0012619999999999999,0.000526,-31.559998999999998,-18.559998999999998,-15.5,3b
2019-07-15_130213:580,-0.435699,-0.024384,-0.245544,-0.00339,0.001628,0.000404,-32.0,-18.25,-16.25,3b
2019-07-15_130213:600,-0.437225,-0.023375999999999997,-0.244019,-0.003878,0.001994,0.000465,-32.0,-18.25,-16.25,3b
2019-07-15_130213:620,-0.433167,-0.023375999999999997,-0.24706999999999998,-0.004213000000000001,0.002513,0.000587,-32.0,-18.25,-16.25,3b
2019-07-15_130213:640,-0.431122,-0.024384,-0.24706999999999998,-0.004549,0.002757,0.000221,-31.559998999999998,-18.25,-17.059998999999998,3b
2019-07-15_130213:660,-0.430634,-0.023895,-0.24658200000000002,-0.0048850000000000005,0.002635,0.00016,-31.559998999999998,-18.25,-17.059998999999998,3b
2019-07-15_130213:680,-0.43011499999999997,-0.023895,-0.24658200000000002,-0.004946,0.002513,-5.4000000000000005e-05,-31.559998999999998,-19.0,-17.059998999999998,3b
2019-07-15_130213:700,-0.42807,-0.023895,-0.24706999999999998,-0.0051600000000000005,0.002391,0.000221,-31.559998999999998,-19.0,-17.059998999999998,3b
2019-07-15_130213:720,-0.42758199999999996,-0.024384,-0.24758899999999998,-0.005221,0.0023,0.000221,-31.559998999999998,-19.0,-17.059998999999998,3b
2019-07-15_130213:740,-0.433167,-0.024902,-0.248108,-0.005007,0.001964,0.00028199999999999997,-32.0,-19.0,-15.06,3b
2019-07-15_130213:760,-0.432648,-0.023375999999999997,-0.244019,-0.004549,0.002055,0.000465,-32.0,-19.0,-15.06,3b
2019-07-15_130213:780,-0.431122,-0.020844,-0.246063,-0.00403,0.002391,0.000465,-31.559998999999998,-19.0,-15.06,3b
2019-07-15_130213:800,-0.431641,-0.020844,-0.245544,-0.004213000000000001,0.001994,0.000923,-31.559998999999998,-19.0,-15.06,3b
2019-07-15_130213:820,-0.431641,-0.020844,-0.24658200000000002,-0.004671,0.001598,0.001106,-31.559998999999998,-19.0,-15.06,3b
2019-07-15_130213:840,-0.432159,-0.019318000000000002,-0.245056,-0.005129,0.001537,0.000831,-31.559998999999998,-19.75,-16.25,3b
2019-07-15_130213:860,-0.429596,-0.020325,-0.245544,-0.005556,0.0012619999999999999,0.000648,-31.559998999999998,-19.75,-16.25,3b
2019-07-15_130213:880,-0.42758199999999996,-0.021332,-0.245056,-0.005678,0.0009570000000000001,0.00028199999999999997,-31.18,-19.0,-16.25,3b
2019-07-15_130213:900,-0.42401099999999997,-0.020844,-0.242004,-0.005556,0.00022400000000000002,0.000343,-31.18,-19.0,-16.25,3b
2019-07-15_130213:920,-0.426544,-0.020844,-0.245056,-0.005556,-0.000722,0.000984,-31.18,-19.0,-16.25,3b
2019-07-15_130213:940,-0.426544,-0.022858,-0.24758899999999998,-0.005282,-0.001302,0.000831,-30.870001000000002,-19.0,-16.68,3b
2019-07-15_130213:960,-0.429108,-0.021332,-0.24963400000000002,-0.005221,-0.002095,0.000496,-30.870001000000002,-19.0,-16.68,3b
2019-07-15_130213:980,-0.429108,-0.021851,-0.250641,-0.004946,-0.002583,0.000648,-32.0,-19.0,-14.68,3b
2019-07-15_130214:000,-0.433655,-0.022369,-0.25012199999999996,-0.004824,-0.002583,-0.00011499999999999999,-32.0,-19.0,-14.68,3b
2019-07-15_130214:020,-0.438751,-0.022369,-0.253693,-0.004427,-0.001759,0.000496,-32.0,-19.0,-14.68,3b
2019-07-15_130214:040,-0.434692,-0.023375999999999997,-0.25317399999999995,-0.004213000000000001,-0.00063,0.000587,-31.559998999999998,-19.0,-16.68,3b
2019-07-15_130214:060,-0.43011499999999997,-0.022369,-0.253693,-0.004,1.1e-05,6.8e-05,-31.559998999999998,-19.0,-16.68,3b
2019-07-15_130214:080,-0.425018,-0.021851,-0.251648,-0.0033280000000000002,0.00022400000000000002,-0.000389,-32.0,-19.0,-15.5,3b
2019-07-15_130214:100,-0.425018,-0.016753999999999998,-0.251648,-0.003054,-0.000264,-0.000634,-32.0,-19.0,-15.5,3b
2019-07-15_130214:120,-0.42758199999999996,-0.015747,-0.25317399999999995,-0.003054,-0.000386,0.000587,-32.0,-19.0,-15.5,3b
2019-07-15_130214:140,-0.42758199999999996,-0.014740000000000001,-0.254211,-0.003817,-0.000172,0.000923,-31.559998999999998,-18.559998999999998,-16.370001000000002,3b
2019-07-15_130214:160,-0.425537,-0.012695,-0.25521900000000003,-0.004824,-0.00011100000000000001,0.000984,-31.559998999999998,-18.559998999999998,-16.370001000000002,3b
2019-07-15_130214:180,-0.426544,-0.016753999999999998,-0.2547,-0.006075,-0.00011100000000000001,0.002052,-31.559998999999998,-19.370001000000002,-16.68,3b
2019-07-15_130214:200,-0.42758199999999996,-0.021332,-0.254211,-0.007326000000000001,-0.000233,0.00251,-31.559998999999998,-19.370001000000002,-16.68,3b
2019-07-15_130214:220,-0.429108,-0.027435,-0.256226,-0.007662,0.00016299999999999998,0.0029059999999999997,-31.559998999999998,-19.370001000000002,-16.68,3b
2019-07-15_130214:240,-0.42807,-0.031006,-0.257233,-0.007265000000000001,0.000346,0.002693,-31.559998999999998,-19.75,-15.5,3b
2019-07-15_130214:260,-0.429596,-0.031006,-0.255707,-0.005556,0.00056,0.00196,-31.559998999999998,-19.75,-15.5,3b
2019-07-15_130214:280,-0.42858900000000005,-0.027435,-0.25521900000000003,-0.00403,0.0009570000000000001,0.001716,-31.559998999999998,-19.0,-16.68,3b
2019-07-15_130214:300,-0.430634,-0.023895,-0.255707,-0.0036340000000000005,0.0014759999999999999,0.00196,-31.559998999999998,-19.0,-16.68,3b
2019-07-15_130214:320,-0.42758199999999996,-0.022858,-0.256744,-0.003573,0.001628,0.001564,-31.559998999999998,-19.0,-16.68,3b
2019-07-15_130214:340,-0.425537,-0.020325,-0.25521900000000003,-0.004488000000000001,0.001537,0.001716,-31.559998999999998,-18.559998999999998,-16.68,3b
2019-07-15_130214:360,-0.429108,-0.022369,-0.256226,-0.005129,0.001598,0.001716,-31.559998999999998,-18.559998999999998,-16.68,3b
2019-07-15_130214:380,-0.42858900000000005,-0.023375999999999997,-0.25317399999999995,-0.005861,0.0017809999999999998,0.001106,-31.559998999999998,-18.559998999999998,-16.68,3b
2019-07-15_130214:400,-0.43011499999999997,-0.024384,-0.2547,-0.005922,0.0023,0.000984,-31.559998999999998,-18.559998999999998,-16.68,3b
2019-07-15_130214:420,-0.42858900000000005,-0.025421,-0.253693,-0.005922,0.002391,0.000984,-31.559998999999998,-18.559998999999998,-16.68,3b
2019-07-15_130214:440,-0.42758199999999996,-0.025908999999999998,-0.252686,-0.005404,0.002574,0.001167,-31.559998999999998,-18.559998999999998,-15.5,3b
2019-07-15_130214:460,-0.42807,-0.025908999999999998,-0.25116,-0.0051600000000000005,0.002391,0.001106,-31.559998999999998,-18.559998999999998,-15.5,3b
2019-07-15_130214:480,-0.425537,-0.024384,-0.251648,-0.005007,0.002239,0.001045,-31.18,-19.370001000000002,-15.87,3b
2019-07-15_130214:500,-0.425537,-0.024902,-0.250641,-0.005068,0.0019030000000000002,0.001381,-31.18,-19.370001000000002,-15.87,3b
2019-07-15_130214:520,-0.423004,-0.025421,-0.252686,-0.005068,0.001598,0.001503,-31.18,-19.370001000000002,-15.87,3b
2019-07-15_130214:540,-0.425537,-0.026917,-0.25216700000000003,-0.00461,0.000865,0.001228,-31.18,-18.25,-14.68,3b
2019-07-15_130214:560,-0.42758199999999996,-0.026427999999999997,-0.25216700000000003,-0.004152,0.000865,0.000709,-31.18,-18.25,-14.68,3b
2019-07-15_130214:580,-0.42858900000000005,-0.024902,-0.25216700000000003,-0.003878,0.001201,0.000526,-32.0,-18.25,-15.06,3b
2019-07-15_130214:600,-0.427063,-0.024384,-0.253693,-0.003817,0.001353,0.000404,-32.0,-18.25,-15.06,3b
2019-07-15_130214:620,-0.425018,-0.022858,-0.25521900000000003,-0.004091,0.0012619999999999999,0.000221,-32.0,-18.25,-15.06,3b
2019-07-15_130214:640,-0.425537,-0.023375999999999997,-0.256226,-0.004213000000000001,0.000743,-0.00023700000000000001,-30.870001000000002,-18.0,-15.87,3b
2019-07-15_130214:660,-0.423004,-0.024384,-0.25317399999999995,-0.004488000000000001,0.000621,-0.000176,-30.870001000000002,-18.0,-15.87,3b
2019-07-15_130214:680,-0.42147799999999996,-0.024384,-0.2547,-0.004427,0.000133,-0.00011499999999999999,-32.0,-19.0,-14.68,3b
2019-07-15_130214:700,-0.420959,-0.024902,-0.253693,-0.004,-0.000386,0.000343,-32.0,-19.0,-14.68,3b
2019-07-15_130214:720,-0.423492,-0.025421,-0.25521900000000003,-0.0032979999999999997,-0.0008439999999999999,0.000496,-32.0,-19.0,-14.68,3b
2019-07-15_130214:740,-0.42453,-0.024902,-0.256226,-0.0031149999999999997,-0.001302,-5.4000000000000005e-05,-32.0,-18.559998999999998,-16.25,3b
2019-07-15_130214:760,-0.425537,-0.023375999999999997,-0.254211,-0.002932,-0.001393,0.00016,-32.0,-18.559998999999998,-16.25,3b
2019-07-15_130214:780,-0.427063,-0.022369,-0.25521900000000003,-0.003237,-0.00124,0.000465,-32.0,-18.559998999999998,-15.87,3b
2019-07-15_130214:800,-0.42807,-0.022369,-0.257233,-0.003664,-0.0008439999999999999,-0.00023700000000000001,-32.0,-18.559998999999998,-15.87,3b
2019-07-15_130214:820,-0.429108,-0.023375999999999997,-0.258759,-0.003817,-0.000233,-0.00023700000000000001,-32.0,-18.559998999999998,-15.87,3b
2019-07-15_130214:840,-0.42758199999999996,-0.022858,-0.260284,-0.0037560000000000002,1.1e-05,-0.000786,-31.559998999999998,-18.25,-15.87,3b
2019-07-15_130214:860,-0.426544,-0.022858,-0.260284,-0.003573,0.000133,-0.001854,-31.559998999999998,-18.25,-15.87,3b
2019-07-15_130214:880,-0.425537,-0.020844,-0.25827,-0.003237,0.00016299999999999998,-0.000664,-31.559998999999998,-19.0,-15.87,3b
2019-07-15_130214:900,-0.421967,-0.019806,-0.25827,-0.0031149999999999997,1.1e-05,-0.000389,-31.559998999999998,-19.0,-15.87,3b
2019-07-15_130214:920,-0.42248500000000005,-0.017273,-0.258759,-0.0034509999999999996,-0.000233,-0.001,-31.559998999999998,-19.0,-15.87,3b
2019-07-15_130214:940,-0.420441,-0.017792,-0.256226,-0.003664,-0.000722,-0.001397,-31.18,-19.370001000000002,-16.25,3b
2019-07-15_130214:960,-0.425018,-0.015228,-0.260803,-0.004397,-0.001118,-0.001,-31.18,-19.370001000000002,-16.25,3b
2019-07-15_130214:980,-0.42858900000000005,-0.015747,-0.26181,-0.0048850000000000005,-0.0009050000000000001,-0.000328,-31.18,-19.0,-16.68,3b
2019-07-15_130215:000,-0.42807,-0.017273,-0.262329,-0.005343,-0.00011100000000000001,-0.000573,-31.18,-19.0,-16.68,3b
2019-07-15_130215:020,-0.427063,-0.019318000000000002,-0.264862,-0.005221,0.000743,-0.000512,-31.18,-19.0,-16.68,3b
2019-07-15_130215:040,-0.42605600000000005,-0.019318000000000002,-0.261322,-0.004824,0.001292,0.000129,-30.059998999999998,-19.370001000000002,-16.25,3b
2019-07-15_130215:060,-0.425018,-0.017273,-0.26181,-0.00461,0.0016589999999999999,0.000648,-30.059998999999998,-19.370001000000002,-16.25,3b
2019-07-15_130215:080,-0.42758199999999996,-0.014740000000000001,-0.26181,-0.00461,0.001964,0.001258,-31.559998999999998,-18.559998999999998,-15.5,3b
2019-07-15_130215:100,-0.423492,-0.015228,-0.259796,-0.0051600000000000005,0.002391,0.001045,-31.559998999999998,-18.559998999999998,-15.5,3b
2019-07-15_130215:120,-0.421967,-0.015747,-0.259796,-0.005953,0.002513,0.000404,-31.559998999999998,-18.559998999999998,-15.5,3b
2019-07-15_130215:140,-0.420959,-0.014740000000000001,-0.259796,-0.006594,0.002239,0.000923,-31.559998999999998,-18.0,-17.059998999999998,3b
2019-07-15_130215:160,-0.42453,-0.019318000000000002,-0.257751,-0.007051999999999999,0.0019030000000000002,0.000984,-31.559998999999998,-18.0,-17.059998999999998,3b
2019-07-15_130215:180,-0.42248500000000005,-0.021851,-0.258759,-0.007081999999999999,0.001842,-0.0008470000000000001,-31.18,-18.559998999999998,-15.5,3b
2019-07-15_130215:200,-0.427063,-0.020844,-0.25827,-0.006411,0.001537,-0.000725,-31.18,-18.559998999999998,-15.5,3b
2019-07-15_130215:220,-0.42858900000000005,-0.023375999999999997,-0.259277,-0.005739,0.001628,-0.0009689999999999999,-31.18,-18.559998999999998,-15.5,3b
2019-07-15_130215:240,-0.429596,-0.022369,-0.259277,-0.0051600000000000005,0.002574,-0.0017929999999999999,-31.18,-19.370001000000002,-17.059998999999998,3b
2019-07-15_130215:260,-0.42758199999999996,-0.019806,-0.256226,-0.004336,0.00349,-0.001854,-31.18,-19.370001000000002,-17.059998999999998,3b
2019-07-15_130215:280,-0.42605600000000005,-0.017792,-0.259277,-0.003878,0.00349,-0.002495,-31.559998999999998,-18.559998999999998,-15.5,3b
2019-07-15_130215:300,-0.41943400000000003,-0.016266,-0.25521900000000003,-0.0034509999999999996,0.003032,-0.002892,-31.559998999999998,-18.559998999999998,-15.5,3b
2019-07-15_130215:320,-0.41995200000000005,-0.015747,-0.25521900000000003,-0.002932,0.001964,-0.00277,-31.559998999999998,-18.559998999999998,-15.5,3b
2019-07-15_130215:340,-0.420959,-0.015747,-0.256744,-0.002321,0.0009570000000000001,-0.0029219999999999997,-31.559998999999998,-18.559998999999998,-15.5,3b
2019-07-15_130215:360,-0.425537,-0.015747,-0.257751,-0.001772,0.000468,-0.00277,-31.559998999999998,-18.559998999999998,-15.5,3b
2019-07-15_130215:380,-0.42758199999999996,-0.016753999999999998,-0.258759,-0.001375,0.000499,-0.0028309999999999997,-30.870001000000002,-19.370001000000002,-15.06,3b
2019-07-15_130215:400,-0.42401099999999997,-0.017792,-0.257751,-0.001009,0.000499,-0.0028309999999999997,-30.870001000000002,-19.370001000000002,-15.06,3b
2019-07-15_130215:420,-0.42147799999999996,-0.016753999999999998,-0.25827,-0.000521,0.000407,-0.003106,-30.870001000000002,-19.370001000000002,-15.06,3b
2019-07-15_130215:440,-0.41995200000000005,-0.015747,-0.259277,-0.000277,-0.00011100000000000001,-0.003167,-30.5,-19.0,-16.25,3b
2019-07-15_130215:460,-0.41842700000000005,-0.016266,-0.26181,-2e-06,-0.0009050000000000001,-0.003228,-30.5,-19.0,-16.25,3b
2019-07-15_130215:480,-0.425018,-0.014221000000000001,-0.262848,0.000273,-0.001576,-0.0032890000000000003,-30.870001000000002,-19.0,-15.87,3b
2019-07-15_130215:500,-0.426544,-0.013213999999999998,-0.262848,0.000669,-0.00124,-0.002709,-30.870001000000002,-19.0,-15.87,3b
2019-07-15_130215:520,-0.42248500000000005,-0.011169,-0.2659,0.000791,-0.000386,-0.001702,-30.870001000000002,-19.0,-15.87,3b
2019-07-15_130215:540,-0.420441,-0.010162000000000001,-0.264862,0.000669,-0.000233,-0.0009689999999999999,-30.870001000000002,-18.559998999999998,-16.68,3b
2019-07-15_130215:560,-0.417908,-0.010162000000000001,-0.265381,0.000151,-0.000325,6.8e-05,-30.870001000000002,-18.559998999999998,-16.68,3b
2019-07-15_130215:580,-0.416382,-0.010651,-0.265381,-0.000734,-0.00063,0.001258,-30.870001000000002,-19.0,-16.68,3b
2019-07-15_130215:600,-0.416901,-0.014221000000000001,-0.262329,-0.0015890000000000001,-0.001057,0.001503,-30.870001000000002,-19.0,-16.68,3b
2019-07-15_130215:620,-0.418915,-0.016266,-0.264862,-0.001986,-0.001393,0.001045,-30.870001000000002,-19.0,-16.68,3b
2019-07-15_130215:640,-0.42147799999999996,-0.019806,-0.264862,-0.002199,-0.001637,0.000129,-31.559998999999998,-19.0,-16.68,3b
2019-07-15_130215:660,-0.42147799999999996,-0.019318000000000002,-0.262329,-0.002199,-0.001302,-0.0010609999999999999,-31.559998999999998,-19.0,-16.68,3b
2019-07-15_130215:680,-0.41842700000000005,-0.021332,-0.262848,-0.0018030000000000001,-0.001302,-0.001366,-30.870001000000002,-19.75,-16.68,3b
2019-07-15_130215:700,-0.414337,-0.020325,-0.263336,-0.001467,-0.0018510000000000002,-0.0021899999999999997,-30.870001000000002,-19.75,-16.68,3b
2019-07-15_130215:720,-0.42807,-0.018799,-0.2659,-0.00045999999999999996,-0.002583,-0.002434,-30.870001000000002,-19.75,-16.68,3b
2019-07-15_130215:740,-0.431122,-0.019806,-0.265381,0.00045599999999999997,-0.001637,-0.0035020000000000003,-31.559998999999998,-19.370001000000002,-17.5,3b
2019-07-15_130215:760,-0.432159,-0.012695,-0.263336,0.000883,0.000499,-0.003228,-31.559998999999998,-19.370001000000002,-17.5,3b
2019-07-15_130215:780,-0.430634,-0.011687999999999999,-0.264374,0.00128,0.001964,-0.001183,-30.059998999999998,-19.370001000000002,-17.059998999999998,3b
2019-07-15_130215:800,-0.421967,-0.005065999999999999,-0.264374,0.000395,0.002391,-0.000786,-30.059998999999998,-19.370001000000002,-17.059998999999998,3b
2019-07-15_130215:820,-0.420959,-0.004547,-0.264862,-0.00107,0.0024519999999999998,-0.000664,-30.059998999999998,-19.370001000000002,-17.059998999999998,3b
2019-07-15_130215:840,-0.42248500000000005,-0.009125,-0.2659,-0.0022600000000000003,0.002513,-0.0011220000000000002,-30.870001000000002,-19.370001000000002,-18.25,3b
2019-07-15_130215:860,-0.421967,-0.007599,-0.262848,-0.003176,0.0024519999999999998,6.8e-05,-30.870001000000002,-19.370001000000002,-18.25,3b
2019-07-15_130215:880,-0.421967,-0.011687999999999999,-0.263855,-0.003878,0.002757,0.000343,-30.059998999999998,-19.0,-17.5,3b
2019-07-15_130215:900,-0.420959,-0.013213999999999998,-0.262329,-0.004336,0.002513,6.8e-05,-30.059998999999998,-19.0,-17.5,3b
2019-07-15_130215:920,-0.42147799999999996,-0.015228,-0.26181,-0.003939,0.002635,0.000496,-30.059998999999998,-19.0,-17.5,3b
2019-07-15_130215:940,-0.421967,-0.016753999999999998,-0.262329,-0.003512,0.0024519999999999998,0.000526,-30.059998999999998,-19.0,-17.059998999999998,3b
2019-07-15_130215:960,-0.423004,-0.016266,-0.261322,-0.0031149999999999997,0.002391,0.000923,-30.059998999999998,-19.0,-17.059998999999998,3b
2019-07-15_130215:980,-0.425018,-0.014221000000000001,-0.263855,-0.002657,0.002391,0.001381,-30.5,-19.75,-17.059998999999998,3b
2019-07-15_130216:000,-0.425018,-0.014221000000000001,-0.260284,-0.0025960000000000002,0.0024519999999999998,0.000831,-30.5,-19.75,-17.059998999999998,3b
2019-07-15_130216:020,-0.42453,-0.012177,-0.260803,-0.003054,0.002513,0.001228,-30.5,-19.75,-17.059998999999998,3b
2019-07-15_130216:040,-0.425018,-0.013213999999999998,-0.260284,-0.0036340000000000005,0.002757,0.0022960000000000003,-30.059998999999998,-19.370001000000002,-17.059998999999998,3b
2019-07-15_130216:060,-0.425537,-0.014740000000000001,-0.25827,-0.004213000000000001,0.002971,0.001258,-30.059998999999998,-19.370001000000002,-17.059998999999998,3b
2019-07-15_130216:080,-0.423492,-0.015747,-0.259796,-0.00461,0.0024519999999999998,0.000343,-31.559998999999998,-19.370001000000002,-16.68,3b
2019-07-15_130216:100,-0.423004,-0.016266,-0.260284,-0.004397,0.002361,0.001716,-31.559998999999998,-19.370001000000002,-16.68,3b
2019-07-15_130216:120,-0.421967,-0.016753999999999998,-0.260803,-0.004275,0.002239,0.001655,-31.559998999999998,-19.370001000000002,-16.68,3b
2019-07-15_130216:140,-0.421967,-0.017273,-0.263336,-0.004275,0.001994,0.001381,-30.5,-19.0,-17.059998999999998,3b
2019-07-15_130216:160,-0.421967,-0.014221000000000001,-0.262329,-0.004397,0.001964,0.001625,-30.5,-19.0,-17.059998999999998,3b
2019-07-15_130216:180,-0.42453,-0.015228,-0.263336,-0.004793,0.001994,0.000831,-31.18,-19.75,-16.68,3b
2019-07-15_130216:200,-0.423004,-0.014740000000000001,-0.261322,-0.004824,0.002116,0.000984,-31.18,-19.75,-16.68,3b
2019-07-15_130216:220,-0.423004,-0.015228,-0.261322,-0.005007,0.001964,0.001258,-31.18,-19.75,-16.68,3b
2019-07-15_130216:240,-0.42147799999999996,-0.016753999999999998,-0.261322,-0.005282,0.0019030000000000002,0.001381,-30.870001000000002,-18.559998999999998,-17.5,3b
2019-07-15_130216:260,-0.420959,-0.017273,-0.25827,-0.005068,0.0017809999999999998,0.001167,-30.870001000000002,-18.559998999999998,-17.5,3b
2019-07-15_130216:280,-0.42147799999999996,-0.016753999999999998,-0.261322,-0.0048850000000000005,0.0017809999999999998,0.000923,-30.870001000000002,-18.559998999999998,-17.059998999999998,3b
2019-07-15_130216:300,-0.41995200000000005,-0.017792,-0.260284,-0.004488000000000001,0.0014759999999999999,0.000496,-30.870001000000002,-18.559998999999998,-17.059998999999998,3b
2019-07-15_130216:320,-0.41943400000000003,-0.015747,-0.261322,-0.004397,0.00114,0.000496,-30.870001000000002,-18.559998999999998,-17.059998999999998,3b
2019-07-15_130216:340,-0.423492,-0.015747,-0.262848,-0.004427,0.00114,0.000465,-30.870001000000002,-19.75,-16.25,3b
2019-07-15_130216:360,-0.423004,-0.013702,-0.263855,-0.004671,0.00114,0.000343,-30.870001000000002,-19.75,-16.25,3b
2019-07-15_130216:380,-0.42605600000000005,-0.013702,-0.267426,-0.004946,0.001292,0.00028199999999999997,-30.870001000000002,-19.370001000000002,-17.059998999999998,3b
2019-07-15_130216:400,-0.41995200000000005,-0.015747,-0.261322,-0.005221,0.001353,0.000496,-30.870001000000002,-19.370001000000002,-17.059998999999998,3b
2019-07-15_130216:420,-0.42453,-0.015747,-0.26181,-0.004793,0.001628,0.000923,-30.870001000000002,-19.370001000000002,-17.059998999999998,3b
2019-07-15_130216:440,-0.423492,-0.014740000000000001,-0.261322,-0.004824,0.0014759999999999999,0.001106,-30.870001000000002,-19.0,-17.059998999999998,3b
2019-07-15_130216:460,-0.42248500000000005,-0.015228,-0.262329,-0.004793,0.0019030000000000002,0.001106,-30.870001000000002,-19.0,-17.059998999999998,3b
2019-07-15_130216:480,-0.42147799999999996,-0.016753999999999998,-0.264374,-0.004732,0.00172,0.001106,-30.870001000000002,-19.370001000000002,-15.87,3b
2019-07-15_130216:500,-0.42147799999999996,-0.016266,-0.263336,-0.004671,0.001537,0.001167,-30.870001000000002,-19.370001000000002,-15.87,3b
2019-07-15_130216:520,-0.418915,-0.016266,-0.262848,-0.004671,0.001292,0.001228,-30.870001000000002,-19.370001000000002,-15.87,3b
2019-07-15_130216:540,-0.41995200000000005,-0.016753999999999998,-0.260803,-0.004336,0.001292,0.00132,-30.870001000000002,-19.0,-17.059998999999998,3b
2019-07-15_130216:560,-0.423004,-0.016753999999999998,-0.26181,-0.004152,0.001018,0.001381,-30.870001000000002,-19.0,-17.059998999999998,3b
2019-07-15_130216:580,-0.423492,-0.017273,-0.263336,-0.004091,0.001537,0.001167,-31.18,-18.559998999999998,-17.5,3b
2019-07-15_130216:600,-0.423492,-0.017273,-0.263855,-0.004152,0.001842,0.001838,-31.18,-18.559998999999998,-17.5,3b
2019-07-15_130216:620,-0.42401099999999997,-0.017792,-0.263855,-0.004152,0.0017809999999999998,0.002754,-31.18,-18.559998999999998,-17.5,3b
2019-07-15_130216:640,-0.420959,-0.019806,-0.264374,-0.004275,0.001964,0.0021739999999999997,-31.18,-18.559998999999998,-17.059998999999998,3b
2019-07-15_130216:660,-0.423004,-0.017792,-0.262329,-0.004091,0.0019030000000000002,0.001381,-31.18,-18.559998999999998,-17.059998999999998,3b
2019-07-15_130216:680,-0.423492,-0.020844,-0.262848,-0.004213000000000001,0.001842,0.000404,-32.0,-18.559998999999998,-16.25,3b
2019-07-15_130216:700,-0.42453,-0.01828,-0.264374,-0.003939,0.002055,0.0008619999999999999,-32.0,-18.559998999999998,-16.25,3b
2019-07-15_130216:720,-0.42401099999999997,-0.019318000000000002,-0.26181,-0.003817,0.002391,0.001228,-32.0,-18.559998999999998,-16.25,3b
2019-07-15_130216:740,-0.423492,-0.01828,-0.26181,-0.004,0.002635,0.000648,-31.18,-19.370001000000002,-16.68,3b
2019-07-15_130216:760,-0.420441,-0.016753999999999998,-0.258759,-0.003817,0.002513,0.001228,-31.18,-19.370001000000002,-16.68,3b
2019-07-15_130216:780,-0.42147799999999996,-0.019318000000000002,-0.26181,-0.004275,0.002513,0.001258,-30.5,-19.0,-16.25,3b
2019-07-15_130216:800,-0.421967,-0.017792,-0.260803,-0.004275,0.0023,0.001442,-30.5,-19.0,-16.25,3b
2019-07-15_130216:820,-0.421967,-0.018799,-0.262848,-0.004488000000000001,0.002361,0.001564,-30.5,-19.0,-16.25,3b
2019-07-15_130216:840,-0.42605600000000005,-0.021851,-0.262329,-0.004427,0.002391,0.001106,-31.18,-19.370001000000002,-16.25,3b
2019-07-15_130216:860,-0.425537,-0.020844,-0.262329,-0.004275,0.002849,0.001228,-31.18,-19.370001000000002,-16.25,3b
2019-07-15_130216:880,-0.42453,-0.020325,-0.26181,-0.003817,0.003032,0.001564,-30.5,-18.559998999999998,-16.25,3b
2019-07-15_130216:900,-0.42605600000000005,-0.021851,-0.259796,-0.0036950000000000004,0.003368,0.001167,-30.5,-18.559998999999998,-16.25,3b
2019-07-15_130216:920,-0.42248500000000005,-0.020325,-0.259277,-0.003512,0.0034289999999999998,0.000648,-30.5,-18.559998999999998,-16.25,3b
2019-07-15_130216:940,-0.42453,-0.018799,-0.259277,-0.003512,0.003093,0.000648,-31.559998999999998,-19.0,-16.25,3b
2019-07-15_130216:960,-0.423492,-0.019318000000000002,-0.258759,-0.00339,0.003093,0.000984,-31.559998999999998,-19.0,-16.25,3b
2019-07-15_130216:980,-0.42453,-0.01828,-0.257233,-0.003664,0.002788,0.000465,-30.870001000000002,-19.0,-15.87,3b
2019-07-15_130217:000,-0.42401099999999997,-0.019318000000000002,-0.257751,-0.003878,0.003093,0.000587,-30.870001000000002,-19.0,-15.87,3b
2019-07-15_130217:020,-0.42453,-0.020325,-0.25827,-0.004091,0.002788,7.000000000000001e-06,-30.870001000000002,-19.0,-15.87,3b
2019-07-15_130217:040,-0.425018,-0.020325,-0.258759,-0.004091,0.002788,0.00016,-30.870001000000002,-18.559998999999998,-15.87,3b
2019-07-15_130217:060,-0.425537,-0.021332,-0.256744,-0.0034509999999999996,0.002788,0.00028199999999999997,-30.870001000000002,-18.559998999999998,-15.87,3b
2019-07-15_130217:080,-0.42401099999999997,-0.019318000000000002,-0.257751,-0.0032979999999999997,0.002971,7.000000000000001e-06,-30.870001000000002,-18.559998999999998,-15.87,3b
2019-07-15_130217:100,-0.425018,-0.020325,-0.257751,-0.0028399999999999996,0.002635,0.000709,-30.870001000000002,-18.559998999999998,-15.87,3b
2019-07-15_130217:120,-0.426544,-0.016266,-0.256744,-0.0025960000000000002,0.002513,0.000831,-30.870001000000002,-18.559998999999998,-15.87,3b
2019-07-15_130217:140,-0.42758199999999996,-0.015747,-0.257233,-0.002932,0.002757,0.0007700000000000001,-31.559998999999998,-19.0,-15.06,3b
2019-07-15_130217:160,-0.42758199999999996,-0.014740000000000001,-0.257233,-0.00339,0.002757,0.0007700000000000001,-31.559998999999998,-19.0,-15.06,3b
2019-07-15_130217:180,-0.425018,-0.016266,-0.25827,-0.004213000000000001,0.003032,0.001106,-31.559998999999998,-19.0,-15.06,3b
2019-07-15_130217:200,-0.42453,-0.019318000000000002,-0.257751,-0.004946,0.003124,0.001106,-31.559998999999998,-19.0,-16.25,3b
2019-07-15_130217:220,-0.42605600000000005,-0.020844,-0.260803,-0.0048850000000000005,0.002757,0.000923,-31.559998999999998,-19.0,-16.25,3b
2019-07-15_130217:240,-0.425537,-0.021851,-0.257233,-0.004946,0.002788,0.001045,-29.68,-19.0,-14.68,3b
2019-07-15_130217:260,-0.427063,-0.019318000000000002,-0.256744,-0.004275,0.0029100000000000003,0.001167,-29.68,-19.0,-14.68,3b
2019-07-15_130217:280,-0.429108,-0.018799,-0.257233,-0.004091,0.0029100000000000003,0.001167,-29.68,-19.0,-14.68,3b
2019-07-15_130217:300,-0.431641,-0.01828,-0.2547,-0.004336,0.0036420000000000003,0.001777,-30.870001000000002,-19.0,-15.06,3b
2019-07-15_130217:320,-0.42807,-0.021851,-0.254211,-0.004488000000000001,0.004222,0.001625,-30.870001000000002,-19.0,-15.06,3b
2019-07-15_130217:340,-0.42453,-0.020844,-0.254211,-0.004488000000000001,0.004619,0.0007700000000000001,-32.0,-19.0,-15.87,3b
2019-07-15_130217:360,-0.423492,-0.020325,-0.253693,-0.004397,0.0045579999999999996,0.000831,-32.0,-19.0,-15.87,3b
2019-07-15_130217:380,-0.42401099999999997,-0.022369,-0.253693,-0.004213000000000001,0.003886,0.000648,-32.0,-19.0,-15.87,3b
2019-07-15_130217:400,-0.42605600000000005,-0.019806,-0.25521900000000003,-0.004213000000000001,0.003368,0.0007700000000000001,-31.18,-18.559998999999998,-16.25,3b
2019-07-15_130217:420,-0.425018,-0.020844,-0.253693,-0.003939,0.003032,-0.00011499999999999999,-31.18,-18.559998999999998,-16.25,3b
2019-07-15_130217:440,-0.42605600000000005,-0.017792,-0.25116,-0.003939,0.002757,0.00028199999999999997,-32.0,-19.75,-15.06,3b
2019-07-15_130217:460,-0.429108,-0.017792,-0.252686,-0.00403,0.002574,0.000587,-32.0,-19.75,-15.06,3b
2019-07-15_130217:480,-0.42858900000000005,-0.015747,-0.252686,-0.004427,0.002513,-0.000634,-32.0,-19.75,-15.06,3b
2019-07-15_130217:500,-0.431641,-0.017273,-0.25216700000000003,-0.004275,0.002971,-0.0008470000000000001,-31.559998999999998,-19.0,-15.06,3b
2019-07-15_130217:520,-0.431641,-0.016266,-0.250641,-0.004488000000000001,0.003093,-0.000573,-31.559998999999998,-19.0,-15.06,3b
2019-07-15_130217:540,-0.430634,-0.01828,-0.250641,-0.004397,0.003246,0.000496,-31.559998999999998,-18.559998999999998,-15.87,3b
2019-07-15_130217:560,-0.431641,-0.019318000000000002,-0.25012199999999996,-0.004,0.0035810000000000004,0.00016,-31.559998999999998,-18.559998999999998,-15.87,3b
2019-07-15_130217:580,-0.42858900000000005,-0.016266,-0.248108,-0.0036950000000000004,0.0034289999999999998,0.000221,-31.559998999999998,-18.559998999999998,-15.87,3b
2019-07-15_130217:600,-0.42605600000000005,-0.016753999999999998,-0.250641,-0.003237,0.0031850000000000003,0.000465,-31.18,-18.559998999999998,-15.5,3b
2019-07-15_130217:620,-0.426544,-0.016753999999999998,-0.24963400000000002,-0.0029010000000000004,0.003032,0.00028199999999999997,-31.18,-18.559998999999998,-15.5,3b
2019-07-15_130217:640,-0.429108,-0.013702,-0.250641,-0.002993,0.002696,0.00132,-30.5,-19.0,-15.5,3b
2019-07-15_130217:660,-0.43011499999999997,-0.016266,-0.25012199999999996,-0.00339,0.002513,0.0021739999999999997,-30.5,-19.0,-15.5,3b
2019-07-15_130217:680,-0.433167,-0.016266,-0.248596,-0.003878,0.0029100000000000003,0.00196,-30.5,-19.0,-15.5,3b
2019-07-15_130217:700,-0.432648,-0.01828,-0.248596,-0.004213000000000001,0.0034289999999999998,0.00196,-30.870001000000002,-19.0,-15.87,3b
2019-07-15_130217:720,-0.432159,-0.019318000000000002,-0.248596,-0.004336,0.003307,0.002235,-30.870001000000002,-19.0,-15.87,3b
2019-07-15_130217:740,-0.429596,-0.020844,-0.248596,-0.004336,0.003368,0.001442,-32.0,-19.0,-15.06,3b
2019-07-15_130217:760,-0.43011499999999997,-0.020844,-0.24758899999999998,-0.004213000000000001,0.0031850000000000003,0.001381,-32.0,-19.0,-15.06,3b
2019-07-15_130217:780,-0.42858900000000005,-0.022369,-0.24658200000000002,-0.004091,0.002788,0.002113,-32.0,-19.0,-15.06,3b
2019-07-15_130217:800,-0.42807,-0.023375999999999997,-0.249115,-0.003512,0.0023,0.002113,-32.369999,-19.370001000000002,-14.37,3b
2019-07-15_130217:820,-0.431122,-0.022858,-0.246063,-0.002993,0.002177,0.001564,-32.369999,-19.370001000000002,-14.37,3b
2019-07-15_130217:840,-0.434174,-0.022369,-0.24658200000000002,-0.002657,0.002239,0.001442,-31.559998999999998,-18.559998999999998,-15.06,3b
2019-07-15_130217:860,-0.432159,-0.019318000000000002,-0.245056,-0.002657,0.002391,0.00196,-31.559998999999998,-18.559998999999998,-15.06,3b
2019-07-15_130217:880,-0.429596,-0.021332,-0.24758899999999998,-0.0032979999999999997,0.002513,0.0018989999999999999,-31.559998999999998,-18.559998999999998,-15.06,3b
2019-07-15_130217:900,-0.429108,-0.022369,-0.246063,-0.0036950000000000004,0.001964,0.001655,-32.369999,-18.559998999999998,-16.25,3b
2019-07-15_130217:920,-0.431641,-0.024384,-0.24658200000000002,-0.004,0.001628,0.001167,-32.369999,-18.559998999999998,-16.25,3b
2019-07-15_130217:940,-0.431122,-0.026917,-0.24758899999999998,-0.003939,0.001598,0.000923,-32.0,-18.25,-15.06,3b
2019-07-15_130217:960,-0.430634,-0.027954000000000003,-0.24706999999999998,-0.0034509999999999996,0.0016589999999999999,0.001167,-32.0,-18.25,-15.06,3b
2019-07-15_130217:980,-0.430634,-0.027435,-0.248596,-0.002718,0.001842,0.0008619999999999999,-32.0,-18.25,-15.06,3b
2019-07-15_130218:000,-0.431122,-0.025421,-0.24758899999999998,-0.001864,0.00172,0.000343,-32.369999,-19.0,-15.5,3b
2019-07-15_130218:020,-0.432159,-0.021851,-0.248596,-0.0015279999999999998,0.001842,7.000000000000001e-06,-32.369999,-19.0,-15.5,3b
2019-07-15_130218:040,-0.432648,-0.019806,-0.24658200000000002,-0.0018030000000000001,0.002055,-5.4000000000000005e-05,-32.369999,-19.0,-15.06,3b
2019-07-15_130218:060,-0.429108,-0.017273,-0.24706999999999998,-0.0028399999999999996,0.002239,0.000404,-32.369999,-19.0,-15.06,3b
2019-07-15_130218:080,-0.431122,-0.019318000000000002,-0.248108,-0.003878,0.002177,0.000496,-32.369999,-19.0,-15.06,3b
2019-07-15_130218:100,-0.42807,-0.020325,-0.248108,-0.004671,0.0016589999999999999,0.000404,-32.369999,-18.559998999999998,-15.06,3b
2019-07-15_130218:120,-0.430634,-0.021851,-0.248596,-0.005068,0.0016589999999999999,0.000496,-32.369999,-18.559998999999998,-15.06,3b
2019-07-15_130218:140,-0.435699,-0.025421,-0.24758899999999998,-0.004824,0.0014759999999999999,0.000496,-32.68,-18.559998999999998,-15.87,3b
2019-07-15_130218:160,-0.43823199999999995,-0.024384,-0.24706999999999998,-0.004549,0.002391,0.000343,-32.68,-18.559998999999998,-15.87,3b
2019-07-15_130218:180,-0.433655,-0.024902,-0.24758899999999998,-0.004091,0.0031850000000000003,0.000343,-32.68,-18.559998999999998,-15.87,3b
2019-07-15_130218:200,-0.429108,-0.024384,-0.24758899999999998,-0.0037560000000000002,0.003093,0.0007700000000000001,-32.68,-18.25,-15.5,3b
2019-07-15_130218:220,-0.427063,-0.023375999999999997,-0.24658200000000002,-0.003664,0.002971,0.000923,-32.68,-18.25,-15.5,3b
2019-07-15_130218:240,-0.42858900000000005,-0.025421,-0.24658200000000002,-0.0036950000000000004,0.0024519999999999998,0.001045,-32.0,-18.0,-13.87,3b
2019-07-15_130218:260,-0.429108,-0.025421,-0.24658200000000002,-0.003573,0.002055,0.000343,-32.0,-18.0,-13.87,3b
2019-07-15_130218:280,-0.433167,-0.024384,-0.24706999999999998,-0.0034509999999999996,0.001964,0.00028199999999999997,-32.0,-18.0,-13.87,3b
2019-07-15_130218:300,-0.434174,-0.021851,-0.245544,-0.0034509999999999996,0.002361,0.001564,-32.369999,-18.559998999999998,-15.87,3b
2019-07-15_130218:320,-0.432648,-0.023895,-0.245544,-0.003878,0.002574,0.001106,-32.369999,-18.559998999999998,-15.87,3b
2019-07-15_130218:340,-0.433655,-0.021851,-0.24658200000000002,-0.004275,0.0024519999999999998,0.000709,-32.0,-18.559998999999998,-15.06,3b
2019-07-15_130218:360,-0.432159,-0.023895,-0.243011,-0.004793,0.002177,0.000496,-32.0,-18.559998999999998,-15.06,3b
2019-07-15_130218:380,-0.432648,-0.025908999999999998,-0.244019,-0.005007,0.002055,0.000984,-32.0,-18.559998999999998,-15.06,3b
2019-07-15_130218:400,-0.431122,-0.028961,-0.246063,-0.004488000000000001,0.002391,0.001503,-31.559998999999998,-18.559998999999998,-15.5,3b
2019-07-15_130218:420,-0.42807,-0.029968,-0.246063,-0.003939,0.002116,0.001258,-31.559998999999998,-18.559998999999998,-15.5,3b
2019-07-15_130218:440,-0.42758199999999996,-0.027954000000000003,-0.248108,-0.003237,0.001964,0.000526,-32.0,-18.25,-14.68,3b
2019-07-15_130218:460,-0.431122,-0.026917,-0.245544,-0.0028399999999999996,0.0017809999999999998,0.00016,-32.0,-18.25,-14.68,3b
2019-07-15_130218:480,-0.431122,-0.026427999999999997,-0.24758899999999998,-0.003054,0.001842,7.000000000000001e-06,-32.0,-18.25,-14.68,3b
2019-07-15_130218:500,-0.431122,-0.026917,-0.248596,-0.0031149999999999997,0.001842,0.000129,-31.18,-19.0,-15.06,3b
2019-07-15_130218:520,-0.432648,-0.027954000000000003,-0.248108,-0.0029010000000000004,0.00172,-0.000176,-31.18,-19.0,-15.06,3b
2019-07-15_130218:540,-0.434174,-0.028442000000000002,-0.24706999999999998,-0.0025960000000000002,0.0019030000000000002,-0.000512,-32.369999,-18.25,-14.68,3b
2019-07-15_130218:560,-0.433167,-0.027954000000000003,-0.244019,-0.002443,0.001994,-0.000389,-32.369999,-18.25,-14.68,3b
2019-07-15_130218:580,-0.429108,-0.028961,-0.243011,-0.001864,0.0023,-0.000512,-32.369999,-18.25,-14.68,3b
2019-07-15_130218:600,-0.429108,-0.027954000000000003,-0.243011,-0.0015279999999999998,0.0017809999999999998,-0.0011220000000000002,-32.369999,-18.25,-14.68,3b
2019-07-15_130218:620,-0.433167,-0.026917,-0.242004,-0.0014060000000000001,0.0012619999999999999,-0.0009689999999999999,-32.369999,-18.25,-14.68,3b
2019-07-15_130218:640,-0.43670699999999996,-0.022858,-0.241486,-0.0017109999999999998,0.0014759999999999999,-0.001366,-31.559998999999998,-18.559998999999998,-15.87,3b
2019-07-15_130218:660,-0.43518100000000004,-0.023375999999999997,-0.241486,-0.002199,0.00172,-0.001641,-31.559998999999998,-18.559998999999998,-15.87,3b
2019-07-15_130218:680,-0.430634,-0.023375999999999997,-0.24353000000000002,-0.0028399999999999996,0.001537,-0.001519,-31.559998999999998,-18.559998999999998,-15.87,3b
2019-07-15_130218:700,-0.432159,-0.023895,-0.242493,-0.0031149999999999997,0.0012619999999999999,-0.002037,-31.559998999999998,-18.559998999999998,-14.37,3b
2019-07-15_130218:720,-0.434174,-0.026427999999999997,-0.24096700000000001,-0.002932,0.001292,-0.002251,-31.559998999999998,-18.559998999999998,-14.37,3b
2019-07-15_130218:740,-0.433655,-0.024902,-0.244019,-0.002321,0.00114,-0.0019760000000000003,-32.0,-19.370001000000002,-15.5,3b
2019-07-15_130218:760,-0.432648,-0.022369,-0.242493,-0.0018030000000000001,0.00114,-0.001641,-32.0,-19.370001000000002,-15.5,3b
2019-07-15_130218:780,-0.432648,-0.019318000000000002,-0.244019,-0.00165,0.0008960000000000001,-0.0011220000000000002,-32.0,-19.370001000000002,-15.5,3b
2019-07-15_130218:800,-0.434174,-0.015228,-0.243011,-0.0020469999999999998,0.0008960000000000001,-0.0009689999999999999,-30.870001000000002,-18.25,-15.5,3b
2019-07-15_130218:820,-0.433167,-0.014740000000000001,-0.244019,-0.00339,0.001018,-0.0008470000000000001,-30.870001000000002,-18.25,-15.5,3b
2019-07-15_130218:840,-0.433167,-0.017273,-0.245056,-0.004732,0.001292,-0.000573,-31.559998999999998,-18.559998999999998,-14.37,3b
2019-07-15_130218:860,-0.431641,-0.020325,-0.245056,-0.005404,0.0012619999999999999,-0.00045099999999999996,-31.559998999999998,-18.559998999999998,-14.37,3b
2019-07-15_130218:880,-0.432648,-0.024384,-0.24758899999999998,-0.005556,0.000865,-0.000389,-31.559998999999998,-18.559998999999998,-14.37,3b
2019-07-15_130218:900,-0.435699,-0.025421,-0.24658200000000002,-0.004671,0.001018,-0.0008470000000000001,-32.0,-18.559998999999998,-15.06,3b
2019-07-15_130218:920,-0.434174,-0.024384,-0.245544,-0.0032979999999999997,0.0014759999999999999,-0.000512,-32.0,-18.559998999999998,-15.06,3b
2019-07-15_130218:940,-0.431641,-0.021332,-0.246063,-0.002321,0.0016589999999999999,0.000129,-31.559998999999998,-19.370001000000002,-15.5,3b
2019-07-15_130218:960,-0.432159,-0.017273,-0.245056,-0.001772,0.001842,0.000496,-31.559998999999998,-19.370001000000002,-15.5,3b
2019-07-15_130218:980,-0.433167,-0.014740000000000001,-0.24658200000000002,-0.0021079999999999996,0.00172,0.000496,-31.559998999999998,-19.370001000000002,-15.5,3b
2019-07-15_130219:000,-0.433655,-0.016266,-0.24758899999999998,-0.0028399999999999996,0.001842,0.000221,-31.559998999999998,-18.0,-14.68,3b
2019-07-15_130219:020,-0.434692,-0.016266,-0.24758899999999998,-0.003664,0.0017809999999999998,-0.00011499999999999999,-31.559998999999998,-18.0,-14.68,3b
2019-07-15_130219:040,-0.433167,-0.020844,-0.246063,-0.004,0.0016589999999999999,-0.000908,-31.559998999999998,-19.0,-15.5,3b
2019-07-15_130219:060,-0.433655,-0.019806,-0.244019,-0.0037560000000000002,0.002116,-0.0009689999999999999,-31.559998999999998,-19.0,-15.5,3b
2019-07-15_130219:080,-0.432159,-0.019318000000000002,-0.242493,-0.00339,0.002177,-0.000389,-31.559998999999998,-19.0,-15.5,3b
2019-07-15_130219:100,-0.432648,-0.016753999999999998,-0.244019,-0.003054,0.001994,-0.000328,-30.870001000000002,-19.370001000000002,-14.68,3b
2019-07-15_130219:120,-0.434692,-0.014221000000000001,-0.241486,-0.002993,0.001964,-0.000267,-30.870001000000002,-19.370001000000002,-14.68,3b
2019-07-15_130219:140,-0.433167,-0.012695,-0.242493,-0.003878,0.001842,0.001381,-32.369999,-19.0,-15.5,3b
2019-07-15_130219:160,-0.433655,-0.017273,-0.24096700000000001,-0.004732,0.001537,0.001625,-32.369999,-19.0,-15.5,3b
2019-07-15_130219:180,-0.433167,-0.016266,-0.241486,-0.005739,0.001598,0.000923,-32.369999,-19.0,-15.5,3b
2019-07-15_130219:200,-0.42758199999999996,-0.021851,-0.241486,-0.006014,0.0012619999999999999,0.001045,-32.68,-19.0,-14.68,3b
2019-07-15_130219:220,-0.429108,-0.021851,-0.242493,-0.0058,0.000682,0.000831,-32.68,-19.0,-14.68,3b
2019-07-15_130219:240,-0.431122,-0.024384,-0.24453699999999998,-0.004946,0.000346,0.001838,-32.0,-19.0,-15.87,3b
2019-07-15_130219:260,-0.434692,-0.023375999999999997,-0.246063,-0.004275,0.000346,0.0018989999999999999,-32.0,-19.0,-15.87,3b
2019-07-15_130219:280,-0.434692,-0.021851,-0.24353000000000002,-0.00403,0.000621,0.001716,-32.0,-19.0,-15.87,3b
2019-07-15_130219:300,-0.43621800000000005,-0.020325,-0.244019,-0.004275,0.0014759999999999999,0.002052,-32.369999,-18.559998999999998,-14.68,3b
2019-07-15_130219:320,-0.432648,-0.022369,-0.242004,-0.004549,0.002116,0.001716,-32.369999,-18.559998999999998,-14.68,3b
2019-07-15_130219:340,-0.432159,-0.022369,-0.24758899999999998,-0.004946,0.00172,0.001655,-31.559998999999998,-19.370001000000002,-14.68,3b
2019-07-15_130219:360,-0.431641,-0.026917,-0.245056,-0.005282,0.001598,0.001381,-31.559998999999998,-19.370001000000002,-14.68,3b
2019-07-15_130219:380,-0.433167,-0.028961,-0.248596,-0.005068,0.00114,0.000526,-31.559998999999998,-19.370001000000002,-14.68,3b
2019-07-15_130219:400,-0.43621800000000005,-0.027954000000000003,-0.245056,-0.004152,0.001201,0.000709,-32.0,-18.559998999999998,-15.5,3b
2019-07-15_130219:420,-0.43518100000000004,-0.028442000000000002,-0.246063,-0.0032979999999999997,0.001598,6.8e-05,-32.0,-18.559998999999998,-15.5,3b
2019-07-15_130219:440,-0.430634,-0.024384,-0.246063,-0.002443,0.001964,-0.0013050000000000002,-32.369999,-18.559998999999998,-15.06,3b
2019-07-15_130219:460,-0.430634,-0.023895,-0.24453699999999998,-0.0020469999999999998,0.0017809999999999998,-0.000573,-32.369999,-18.559998999999998,-15.06,3b
2019-07-15_130219:480,-0.42858900000000005,-0.020844,-0.24453699999999998,-0.001772,0.001628,-0.000786,-32.369999,-18.559998999999998,-15.06,3b
2019-07-15_130219:500,-0.42807,-0.019806,-0.24706999999999998,-0.0020469999999999998,0.001537,-0.0010609999999999999,-32.369999,-18.559998999999998,-14.68,3b
2019-07-15_130219:520,-0.430634,-0.020844,-0.24706999999999998,-0.002321,0.000865,-0.0013050000000000002,-32.369999,-18.559998999999998,-14.68,3b
2019-07-15_130219:540,-0.433655,-0.018799,-0.24658200000000002,-0.002779,0.0008960000000000001,-0.001641,-32.0,-18.25,-14.68,3b
2019-07-15_130219:560,-0.433167,-0.021332,-0.246063,-0.003176,0.001018,-0.001641,-32.0,-18.25,-14.68,3b
2019-07-15_130219:580,-0.432648,-0.022369,-0.248108,-0.0032979999999999997,0.0014759999999999999,-0.001397,-32.0,-18.25,-14.68,3b
2019-07-15_130219:600,-0.431122,-0.022369,-0.248596,-0.003176,0.001628,-0.001397,-31.18,-18.559998999999998,-15.06,3b
2019-07-15_130219:620,-0.43011499999999997,-0.021332,-0.24758899999999998,-0.002718,0.00172,-0.001366,-31.18,-18.559998999999998,-15.06,3b
2019-07-15_130219:640,-0.432648,-0.020325,-0.24658200000000002,-0.002382,0.001537,-0.0010609999999999999,-32.0,-18.559998999999998,-14.68,3b
2019-07-15_130219:660,-0.434174,-0.019806,-0.24758899999999998,-0.002199,0.0016589999999999999,-0.000786,-32.0,-18.559998999999998,-14.68,3b
2019-07-15_130219:680,-0.434692,-0.01828,-0.24758899999999998,-0.002535,0.002055,-0.000176,-32.0,-18.559998999999998,-14.68,3b
2019-07-15_130219:700,-0.433167,-0.018799,-0.248596,-0.0031149999999999997,0.002239,-0.00011499999999999999,-32.0,-19.370001000000002,-14.68,3b
2019-07-15_130219:720,-0.43518100000000004,-0.021851,-0.245544,-0.0033280000000000002,0.0024519999999999998,-0.000573,-32.0,-19.370001000000002,-14.68,3b
2019-07-15_130219:740,-0.433655,-0.020325,-0.245056,-0.0034509999999999996,0.003032,-0.000664,-32.68,-18.559998999999998,-15.06,3b
2019-07-15_130219:760,-0.431641,-0.022858,-0.243011,-0.0032979999999999997,0.003307,-0.000634,-32.68,-18.559998999999998,-15.06,3b
2019-07-15_130219:780,-0.430634,-0.021332,-0.245544,-0.002932,0.002971,-0.00045099999999999996,-32.68,-18.559998999999998,-15.06,3b
2019-07-15_130219:800,-0.431641,-0.021851,-0.246063,-0.0025050000000000003,0.002391,-0.00045099999999999996,-32.0,-18.559998999999998,-14.68,3b
2019-07-15_130219:820,-0.432648,-0.020325,-0.24353000000000002,-0.001986,0.002055,-0.000725,-32.0,-18.559998999999998,-14.68,3b
2019-07-15_130219:840,-0.437225,-0.015747,-0.243011,-0.0022600000000000003,0.002361,-0.0011220000000000002,-32.68,-19.0,-14.68,3b
2019-07-15_130219:860,-0.43621800000000005,-0.015228,-0.241486,-0.002657,0.002849,-0.0009689999999999999,-32.68,-19.0,-14.68,3b
2019-07-15_130219:880,-0.433167,-0.015228,-0.24096700000000001,-0.003512,0.002849,-0.001,-32.68,-19.0,-14.68,3b
2019-07-15_130219:900,-0.433655,-0.016753999999999998,-0.24096700000000001,-0.00403,0.002757,-0.0010609999999999999,-31.559998999999998,-19.370001000000002,-15.5,3b
2019-07-15_130219:920,-0.432648,-0.020844,-0.238434,-0.004,0.002177,-0.0019149999999999998,-31.559998999999998,-19.370001000000002,-15.5,3b
2019-07-15_130219:940,-0.43518100000000004,-0.01828,-0.237427,-0.0036340000000000005,0.001964,-0.001397,-31.559998999999998,-19.0,-15.5,3b
2019-07-15_130219:960,-0.433167,-0.017273,-0.236389,-0.0031149999999999997,0.001842,0.000496,-31.559998999999998,-19.0,-15.5,3b
2019-07-15_130219:980,-0.432159,-0.015228,-0.238434,-0.003573,0.0014759999999999999,-5.4000000000000005e-05,-31.559998999999998,-19.0,-15.5,3b
2019-07-15_130220:000,-0.430634,-0.016266,-0.240479,-0.0036340000000000005,0.000468,0.000129,-32.0,-19.0,-15.06,3b
2019-07-15_130220:020,-0.432648,-0.018799,-0.241486,-0.004091,1.1e-05,6.8e-05,-32.0,-19.0,-15.06,3b
2019-07-15_130220:040,-0.43518100000000004,-0.018799,-0.24453699999999998,-0.004336,-0.000264,0.00028199999999999997,-32.0,-19.0,-14.68,3b
2019-07-15_130220:060,-0.434174,-0.021332,-0.244019,-0.004091,-0.00011100000000000001,0.001045,-32.0,-19.0,-14.68,3b
2019-07-15_130220:080,-0.43621800000000005,-0.019806,-0.246063,-0.0037560000000000002,0.00022400000000000002,7.000000000000001e-06,-32.0,-19.0,-14.68,3b
2019-07-15_130220:100,-0.434174,-0.018799,-0.24453699999999998,-0.003176,0.0008039999999999999,-0.00011499999999999999,-30.870001000000002,-18.559998999999998,-15.06,3b
2019-07-15_130220:120,-0.431641,-0.017792,-0.24353000000000002,-0.003176,0.001018,-5.4000000000000005e-05,-30.870001000000002,-18.559998999999998,-15.06,3b
2019-07-15_130220:140,-0.43518100000000004,-0.016753999999999998,-0.246063,-0.00339,0.0010789999999999999,-0.000328,-31.559998999999998,-18.559998999999998,-15.06,3b
2019-07-15_130220:160,-0.434692,-0.017792,-0.244019,-0.003512,0.00114,-0.000176,-31.559998999999998,-18.559998999999998,-15.06,3b
2019-07-15_130220:180,-0.437225,-0.016266,-0.245544,-0.0034509999999999996,0.0012619999999999999,-0.000634,-31.559998999999998,-18.559998999999998,-15.06,3b
2019-07-15_130220:200,-0.43518100000000004,-0.016266,-0.24453699999999998,-0.003512,0.001842,-0.000328,-32.369999,-19.0,-15.06,3b
2019-07-15_130220:220,-0.432648,-0.015747,-0.241486,-0.003664,0.002116,0.000923,-32.369999,-19.0,-15.06,3b
2019-07-15_130220:240,-0.43011499999999997,-0.014740000000000001,-0.242004,-0.004091,0.002116,0.000221,-32.68,-19.0,-15.5,3b
2019-07-15_130220:260,-0.42858900000000005,-0.013213999999999998,-0.241486,-0.004275,0.0016589999999999999,0.000221,-32.68,-19.0,-15.5,3b
2019-07-15_130220:280,-0.430634,-0.015228,-0.243011,-0.004671,0.000865,0.001655,-32.68,-19.0,-15.5,3b
2019-07-15_130220:300,-0.43518100000000004,-0.017273,-0.242004,-0.005068,0.000407,0.001655,-30.870001000000002,-19.370001000000002,-14.68,3b
2019-07-15_130220:320,-0.43518100000000004,-0.017792,-0.243011,-0.004946,0.000499,0.001503,-30.870001000000002,-19.370001000000002,-14.68,3b
2019-07-15_130220:340,-0.432159,-0.01828,-0.246063,-0.0048850000000000005,0.000743,0.001655,-32.369999,-19.0,-13.87,3b
2019-07-15_130220:360,-0.432159,-0.018799,-0.244019,-0.004671,0.000621,0.00196,-32.369999,-19.0,-13.87,3b
2019-07-15_130220:380,-0.435699,-0.020325,-0.245544,-0.004671,0.000407,0.002235,-32.369999,-19.0,-13.87,3b
2019-07-15_130220:400,-0.433655,-0.020325,-0.24353000000000002,-0.004671,0.000499,0.001991,-31.559998999999998,-19.75,-15.06,3b
2019-07-15_130220:420,-0.43518100000000004,-0.020844,-0.242004,-0.004275,0.000682,0.001716,-31.559998999999998,-19.75,-15.06,3b
2019-07-15_130220:440,-0.434692,-0.021851,-0.242493,-0.003237,0.0009570000000000001,0.000465,-32.369999,-19.370001000000002,-14.37,3b
2019-07-15_130220:460,-0.429596,-0.020844,-0.242004,-0.002657,0.001018,0.000343,-32.369999,-19.370001000000002,-14.37,3b
2019-07-15_130220:480,-0.42807,-0.017792,-0.24353000000000002,-0.002443,0.000499,0.000496,-32.369999,-19.370001000000002,-14.37,3b
2019-07-15_130220:500,-0.42758199999999996,-0.014740000000000001,-0.244019,-0.002443,-0.000325,0.00028199999999999997,-31.18,-19.0,-15.87,3b
2019-07-15_130220:520,-0.431122,-0.013702,-0.24706999999999998,-0.003054,-0.0009660000000000001,0.000221,-31.18,-19.0,-15.87,3b
2019-07-15_130220:540,-0.437225,-0.016266,-0.249115,-0.003878,-0.000722,0.000221,-32.0,-19.0,-15.5,3b
2019-07-15_130220:560,-0.437225,-0.01828,-0.250641,-0.004397,0.000133,0.000129,-32.0,-19.0,-15.5,3b
2019-07-15_130220:580,-0.43670699999999996,-0.022369,-0.250641,-0.004275,0.0009570000000000001,0.000343,-32.0,-19.0,-15.5,3b
2019-07-15_130220:600,-0.434692,-0.023895,-0.24963400000000002,-0.0036340000000000005,0.0017809999999999998,0.000404,-31.559998999999998,-19.0,-14.68,3b
2019-07-15_130220:620,-0.435699,-0.026917,-0.248596,-0.0025960000000000002,0.002177,0.00028199999999999997,-31.559998999999998,-19.0,-14.68,3b
2019-07-15_130220:640,-0.43518100000000004,-0.024902,-0.24758899999999998,-0.001192,0.002849,0.000465,-31.559998999999998,-19.0,-15.06,3b
2019-07-15_130220:660,-0.434174,-0.023375999999999997,-0.24658200000000002,-0.000582,0.003093,0.000496,-31.559998999999998,-19.0,-15.06,3b
2019-07-15_130220:680,-0.433167,-0.021851,-0.246063,-0.000124,0.003246,7.000000000000001e-06,-31.559998999999998,-19.0,-15.06,3b
2019-07-15_130220:700,-0.431641,-0.019806,-0.244019,-0.000246,0.003246,-0.000573,-32.0,-18.559998999999998,-14.37,3b
2019-07-15_130220:720,-0.43011499999999997,-0.017792,-0.242493,-0.000734,0.003124,0.00028199999999999997,-32.0,-18.559998999999998,-14.37,3b
2019-07-15_130220:740,-0.427063,-0.022369,-0.24706999999999998,-0.001375,0.002635,0.000343,-32.369999,-19.370001000000002,-15.06,3b
2019-07-15_130220:760,-0.42758199999999996,-0.019806,-0.246063,-0.001986,0.0019030000000000002,-0.00045099999999999996,-32.369999,-19.370001000000002,-15.06,3b
2019-07-15_130220:780,-0.429596,-0.020844,-0.24706999999999998,-0.002169,0.001353,-0.000664,-32.369999,-19.370001000000002,-15.06,3b
2019-07-15_130220:800,-0.432648,-0.01828,-0.245056,-0.002321,0.0014759999999999999,-0.000786,-32.0,-18.559998999999998,-14.68,3b
2019-07-15_130220:820,-0.432648,-0.017273,-0.244019,-0.0028399999999999996,0.001964,0.000221,-32.0,-18.559998999999998,-14.68,3b
2019-07-15_130220:840,-0.43518100000000004,-0.019318000000000002,-0.245056,-0.0036950000000000004,0.002177,0.001564,-32.369999,-19.75,-15.5,3b
2019-07-15_130220:860,-0.432648,-0.020325,-0.24096700000000001,-0.004427,0.002757,0.002357,-32.369999,-19.75,-15.5,3b
2019-07-15_130220:880,-0.42758199999999996,-0.018799,-0.24353000000000002,-0.005221,0.002574,0.00196,-32.369999,-19.75,-15.5,3b
2019-07-15_130220:900,-0.425018,-0.018799,-0.24353000000000002,-0.005678,0.001628,0.001838,-32.0,-18.559998999999998,-15.5,3b
2019-07-15_130220:920,-0.427063,-0.020325,-0.241486,-0.006258,0.000865,0.0021739999999999997,-32.0,-18.559998999999998,-15.5,3b
2019-07-15_130220:940,-0.42807,-0.020325,-0.243011,-0.006684999999999999,0.000133,0.001503,-31.559998999999998,-18.559998999999998,-14.68,3b
2019-07-15_130220:960,-0.42807,-0.019806,-0.24658200000000002,-0.007326000000000001,-0.0005690000000000001,0.000587,-31.559998999999998,-18.559998999999998,-14.68,3b
2019-07-15_130220:980,-0.431641,-0.020325,-0.24758899999999998,-0.007540000000000001,-0.0008439999999999999,0.00132,-31.559998999999998,-18.559998999999998,-14.68,3b
2019-07-15_130221:000,-0.435699,-0.022858,-0.24706999999999998,-0.007387,-0.0007830000000000001,0.000984,-31.18,-18.559998999999998,-15.06,3b
2019-07-15_130221:020,-0.429108,-0.021332,-0.248108,-0.007387,-0.000661,-0.000512,-31.18,-18.559998999999998,-15.06,3b
2019-07-15_130221:040,-0.430634,-0.01828,-0.25012199999999996,-0.007081999999999999,-0.001027,7.000000000000001e-06,-31.559998999999998,-19.370001000000002,-15.87,3b
2019-07-15_130221:060,-0.432159,-0.020325,-0.25216700000000003,-0.006745999999999999,-0.0009050000000000001,0.000404,-31.559998999999998,-19.370001000000002,-15.87,3b
2019-07-15_130221:080,-0.434174,-0.01828,-0.252686,-0.006684999999999999,-0.000233,-0.00011499999999999999,-31.559998999999998,-19.370001000000002,-15.87,3b
2019-07-15_130221:100,-0.432648,-0.017792,-0.252686,-0.006411,0.000468,0.000465,-32.0,-18.559998999999998,-15.06,3b
2019-07-15_130221:120,-0.433167,-0.017792,-0.253693,-0.006684999999999999,0.000743,0.000648,-32.0,-18.559998999999998,-15.06,3b
2019-07-15_130221:140,-0.434692,-0.019318000000000002,-0.25116,-0.006533,0.001201,0.000984,-31.559998999999998,-19.0,-14.68,3b
2019-07-15_130221:160,-0.43621800000000005,-0.020844,-0.248596,-0.006014,0.001994,0.000404,-31.559998999999998,-19.0,-14.68,3b
2019-07-15_130221:180,-0.432159,-0.020325,-0.24706999999999998,-0.0058,0.0024519999999999998,-0.0010609999999999999,-31.559998999999998,-19.0,-14.68,3b
2019-07-15_130221:200,-0.432159,-0.020325,-0.248596,-0.005465,0.002361,-0.0011220000000000002,-32.0,-18.559998999999998,-14.68,3b
2019-07-15_130221:220,-0.43518100000000004,-0.024902,-0.245056,-0.004671,0.002361,-0.000725,-32.0,-18.559998999999998,-14.68,3b
2019-07-15_130221:240,-0.434174,-0.025421,-0.24658200000000002,-0.003573,0.002757,-0.0010609999999999999,-31.18,-19.370001000000002,-15.06,3b
2019-07-15_130221:260,-0.429108,-0.025421,-0.24658200000000002,-0.001925,0.0029100000000000003,-0.00216,-31.18,-19.370001000000002,-15.06,3b
2019-07-15_130221:280,-0.433655,-0.021332,-0.24658200000000002,-0.000185,0.002635,-0.0029219999999999997,-31.18,-19.370001000000002,-15.06,3b
2019-07-15_130221:300,-0.43774399999999997,-0.014740000000000001,-0.248108,0.000944,0.002971,-0.002983,-32.0,-19.370001000000002,-13.87,3b
2019-07-15_130221:320,-0.437225,-0.011169,-0.246063,0.001402,0.0034289999999999998,-0.00216,-32.0,-19.370001000000002,-13.87,3b
2019-07-15_130221:340,-0.43823199999999995,-0.009644,-0.244019,0.001585,0.0041,-0.0011220000000000002,-32.0,-19.370001000000002,-15.5,3b
2019-07-15_130221:360,-0.435699,-0.007599,-0.239441,0.0012490000000000001,0.004954999999999999,-0.0008470000000000001,-32.0,-19.370001000000002,-15.5,3b
2019-07-15_130221:380,-0.42807,-0.007599,-0.23995999999999998,0.000944,0.004649,-0.000786,-32.0,-19.370001000000002,-15.5,3b
2019-07-15_130221:400,-0.423492,-0.009644,-0.242004,-2e-06,0.0034289999999999998,-0.001,-31.18,-19.370001000000002,-14.37,3b
2019-07-15_130221:420,-0.42248500000000005,-0.013213999999999998,-0.24096700000000001,-0.000796,0.00172,-0.0011220000000000002,-31.18,-19.370001000000002,-14.37,3b
2019-07-15_130221:440,-0.426544,-0.017273,-0.23995999999999998,-0.00107,0.00022400000000000002,-0.000573,-31.559998999999998,-19.0,-15.5,3b
2019-07-15_130221:460,-0.431641,-0.021851,-0.241486,-0.000734,-0.000172,7.000000000000001e-06,-31.559998999999998,-19.0,-15.5,3b
2019-07-15_130221:480,-0.43670699999999996,-0.022858,-0.242004,-0.000124,1.1e-05,0.000923,-31.559998999999998,-19.0,-15.5,3b
2019-07-15_130221:500,-0.43670699999999996,-0.023895,-0.242004,0.000395,0.000285,0.002357,-32.0,-19.0,-13.87,3b
2019-07-15_130221:520,-0.432648,-0.022369,-0.243011,0.000669,0.000743,0.001564,-32.0,-19.0,-13.87,3b
2019-07-15_130221:540,-0.431641,-0.019806,-0.242004,0.000212,0.000133,0.000526,-31.559998999999998,-18.559998999999998,-15.87,3b
2019-07-15_130221:560,-0.426544,-0.019806,-0.24096700000000001,-0.000734,-0.00011100000000000001,-0.0008470000000000001,-31.559998999999998,-18.559998999999998,-15.87,3b
2019-07-15_130221:580,-0.425018,-0.017792,-0.242004,-0.001864,-0.0007830000000000001,-0.0012439999999999999,-31.559998999999998,-18.559998999999998,-15.87,3b
2019-07-15_130221:600,-0.42453,-0.020325,-0.24453699999999998,-0.002718,-0.001759,-0.000267,-31.559998999999998,-19.0,-15.5,3b
2019-07-15_130221:620,-0.423492,-0.023895,-0.244019,-0.0028399999999999996,-0.0027660000000000002,-5.4000000000000005e-05,-31.559998999999998,-19.0,-15.5,3b
2019-07-15_130221:640,-0.42605600000000005,-0.024384,-0.245544,-0.0025960000000000002,-0.0034990000000000004,-0.00011499999999999999,-31.559998999999998,-19.0,-15.87,3b
2019-07-15_130221:660,-0.425018,-0.022858,-0.246063,-0.001986,-0.003773,0.000587,-31.559998999999998,-19.0,-15.87,3b
2019-07-15_130221:680,-0.429596,-0.019318000000000002,-0.25116,-0.001925,-0.004353,0.0008619999999999999,-31.559998999999998,-19.0,-15.87,3b
2019-07-15_130221:700,-0.43621800000000005,-0.018799,-0.256226,-0.0025960000000000002,-0.00417,0.000984,-31.559998999999998,-18.559998999999998,-14.68,3b
2019-07-15_130221:720,-0.43774399999999997,-0.01828,-0.258759,-0.00403,-0.003041,0.001045,-31.559998999999998,-18.559998999999998,-14.68,3b
2019-07-15_130221:740,-0.43518100000000004,-0.01828,-0.261322,-0.005404,-0.001759,0.001258,-32.369999,-19.370001000000002,-15.87,3b
2019-07-15_130221:760,-0.43518100000000004,-0.022369,-0.257233,-0.006533,-0.0008439999999999999,0.001655,-32.369999,-19.370001000000002,-15.87,3b
2019-07-15_130221:780,-0.432648,-0.025421,-0.257233,-0.007051999999999999,0.000346,0.001258,-32.369999,-19.370001000000002,-15.87,3b
2019-07-15_130221:800,-0.43011499999999997,-0.026427999999999997,-0.253693,-0.007081999999999999,0.001018,0.000465,-31.559998999999998,-19.0,-14.68,3b
2019-07-15_130221:820,-0.427063,-0.027954000000000003,-0.253693,-0.0066549999999999995,0.0012619999999999999,0.000923,-31.559998999999998,-19.0,-14.68,3b
2019-07-15_130221:840,-0.42807,-0.027954000000000003,-0.254211,-0.006014,0.001292,0.000587,-32.0,-19.0,-15.87,3b
2019-07-15_130221:860,-0.42858900000000005,-0.025421,-0.252686,-0.005404,0.0010789999999999999,0.00028199999999999997,-32.0,-19.0,-15.87,3b
2019-07-15_130221:880,-0.433655,-0.022858,-0.253693,-0.005007,0.001598,0.001228,-32.0,-19.0,-15.87,3b
2019-07-15_130221:900,-0.430634,-0.020844,-0.2547,-0.005465,0.002361,0.001381,-31.559998999999998,-19.0,-16.25,3b
2019-07-15_130221:920,-0.42858900000000005,-0.021851,-0.253693,-0.006258,0.002971,0.000526,-31.559998999999998,-19.0,-16.25,3b
2019-07-15_130221:940,-0.427063,-0.024384,-0.254211,-0.006684999999999999,0.003246,7.000000000000001e-06,-31.18,-18.559998999999998,-15.06,3b
2019-07-15_130221:960,-0.427063,-0.026427999999999997,-0.251648,-0.006411,0.003032,-0.0009689999999999999,-31.18,-18.559998999999998,-15.06,3b
2019-07-15_130221:980,-0.429596,-0.025908999999999998,-0.25216700000000003,-0.0056170000000000005,0.002757,-0.0017929999999999999,-31.18,-18.559998999999998,-15.06,3b
2019-07-15_130222:000,-0.433655,-0.023375999999999997,-0.25116,-0.004336,0.002635,-0.0021899999999999997,-31.559998999999998,-19.0,-16.25,3b
2019-07-15_130222:020,-0.433167,-0.022369,-0.251648,-0.00339,0.003368,-0.0021899999999999997,-31.559998999999998,-19.0,-16.25,3b
2019-07-15_130222:040,-0.432159,-0.015747,-0.25012199999999996,-0.0022600000000000003,0.003825,-0.0021899999999999997,-32.0,-19.370001000000002,-15.87,3b
2019-07-15_130222:060,-0.429108,-0.012177,-0.25116,-0.002382,0.003978,-0.0021899999999999997,-32.0,-19.370001000000002,-15.87,3b
2019-07-15_130222:080,-0.431122,-0.011687999999999999,-0.25012199999999996,-0.002657,0.003978,-0.0019149999999999998,-32.0,-19.370001000000002,-15.87,3b
2019-07-15_130222:100,-0.431641,-0.010651,-0.25012199999999996,-0.002932,0.003886,-0.001641,-32.0,-19.0,-15.06,3b
2019-07-15_130222:120,-0.431122,-0.012177,-0.249115,-0.0031149999999999997,0.003703,-0.001641,-32.0,-19.0,-15.06,3b
2019-07-15_130222:140,-0.431122,-0.012177,-0.249115,-0.003237,0.003368,-0.001183,-32.369999,-19.0,-15.5,3b
2019-07-15_130222:160,-0.430634,-0.015228,-0.246063,-0.002993,0.003368,-0.001,-32.369999,-19.0,-15.5,3b
2019-07-15_130222:180,-0.431641,-0.013213999999999998,-0.24658200000000002,-0.0025960000000000002,0.0035810000000000004,-0.0009689999999999999,-32.369999,-19.0,-15.5,3b
2019-07-15_130222:200,-0.43011499999999997,-0.013702,-0.24658200000000002,-0.0025050000000000003,0.0034289999999999998,-0.000512,-31.559998999999998,-19.370001000000002,-15.06,3b
2019-07-15_130222:220,-0.429596,-0.012695,-0.245544,-0.002535,0.003246,-0.00045099999999999996,-31.559998999999998,-19.370001000000002,-15.06,3b
2019-07-15_130222:240,-0.431641,-0.011169,-0.246063,-0.002932,0.002971,-0.00023700000000000001,-31.559998999999998,-19.370001000000002,-15.5,3b
2019-07-15_130222:260,-0.432648,-0.011169,-0.245544,-0.003176,0.002696,-0.000725,-31.559998999999998,-19.370001000000002,-15.5,3b
2019-07-15_130222:280,-0.43518100000000004,-0.010162000000000001,-0.24758899999999998,-0.0036950000000000004,0.002391,-0.0012439999999999999,-31.559998999999998,-19.370001000000002,-15.5,3b
2019-07-15_130222:300,-0.43927,-0.010651,-0.248108,-0.004,0.002757,-0.000328,-31.559998999999998,-19.75,-15.06,3b
2019-07-15_130222:320,-0.432648,-0.011169,-0.24353000000000002,-0.004824,0.003886,-0.00045099999999999996,-31.559998999999998,-19.75,-15.06,3b
2019-07-15_130222:340,-0.432648,-0.010651,-0.243011,-0.004671,0.003764,0.00016,-32.68,-19.75,-15.5,3b
2019-07-15_130222:360,-0.431641,-0.012695,-0.245056,-0.004793,0.0036420000000000003,0.00016,-32.68,-19.75,-15.5,3b
2019-07-15_130222:380,-0.429108,-0.011169,-0.245544,-0.004824,0.003124,-5.4000000000000005e-05,-32.68,-19.75,-15.5,3b
2019-07-15_130222:400,-0.434692,-0.012177,-0.246063,-0.005129,0.002971,0.001045,-31.559998999999998,-19.370001000000002,-13.87,3b
2019-07-15_130222:420,-0.434692,-0.013213999999999998,-0.24453699999999998,-0.005526,0.003246,0.001564,-31.559998999999998,-19.370001000000002,-13.87,3b
2019-07-15_130222:440,-0.434174,-0.015228,-0.245544,-0.005922,0.003093,0.001106,-32.68,-20.059998999999998,-14.68,3b
2019-07-15_130222:460,-0.433655,-0.015747,-0.24353000000000002,-0.006075,0.003246,0.001503,-32.68,-20.059998999999998,-14.68,3b
2019-07-15_130222:480,-0.432159,-0.019318000000000002,-0.243011,-0.006075,0.002971,0.001655,-32.68,-20.059998999999998,-14.68,3b
2019-07-15_130222:500,-0.432159,-0.019806,-0.24353000000000002,-0.005953,0.002574,0.001625,-32.369999,-19.0,-14.68,3b
2019-07-15_130222:520,-0.431641,-0.021851,-0.242004,-0.0048850000000000005,0.0023,0.001258,-32.369999,-19.0,-14.68,3b
2019-07-15_130222:540,-0.433167,-0.021332,-0.241486,-0.004275,0.002116,0.001167,-32.0,-19.0,-14.37,3b
2019-07-15_130222:560,-0.429108,-0.018799,-0.239441,-0.003664,0.002055,0.001381,-32.0,-19.0,-14.37,3b
2019-07-15_130222:580,-0.426544,-0.017792,-0.239441,-0.0034509999999999996,0.001537,0.00028199999999999997,-32.0,-19.0,-14.37,3b
2019-07-15_130222:600,-0.423492,-0.015747,-0.24096700000000001,-0.0032979999999999997,0.000743,-0.000573,-32.369999,-19.0,-15.87,3b
2019-07-15_130222:620,-0.423492,-0.015228,-0.240479,-0.0029010000000000004,-0.00063,-0.000176,-32.369999,-19.0,-15.87,3b
2019-07-15_130222:640,-0.429596,-0.015747,-0.245544,-0.002535,-0.001363,-0.000725,-32.0,-19.75,-14.68,3b
2019-07-15_130222:660,-0.432648,-0.013702,-0.24706999999999998,-0.0025050000000000003,-0.001515,-0.000908,-32.0,-19.75,-14.68,3b
2019-07-15_130222:680,-0.43621800000000005,-0.013702,-0.248596,-0.002443,-0.001363,-0.000389,-32.0,-19.75,-14.68,3b
2019-07-15_130222:700,-0.43670699999999996,-0.014221000000000001,-0.24963400000000002,-0.002718,-0.0008439999999999999,-0.000512,-32.0,-19.0,-15.06,3b
2019-07-15_130222:720,-0.439758,-0.012177,-0.24658200000000002,-0.002993,0.00022400000000000002,-0.000573,-32.0,-19.0,-15.06,3b
2019-07-15_130222:740,-0.437225,-0.013213999999999998,-0.24758899999999998,-0.0031149999999999997,0.0012619999999999999,-0.000634,-31.559998999999998,-19.370001000000002,-15.06,3b
2019-07-15_130222:760,-0.431641,-0.013213999999999998,-0.24453699999999998,-0.0033280000000000002,0.0016589999999999999,-5.4000000000000005e-05,-31.559998999999998,-19.370001000000002,-15.06,3b
2019-07-15_130222:780,-0.433655,-0.014221000000000001,-0.245056,-0.003512,0.001537,0.000221,-31.559998999999998,-19.370001000000002,-15.06,3b
2019-07-15_130222:800,-0.433167,-0.014740000000000001,-0.245544,-0.003664,0.0017809999999999998,0.00028199999999999997,-32.0,-19.370001000000002,-15.06,3b
2019-07-15_130222:820,-0.43011499999999997,-0.015228,-0.24453699999999998,-0.0036950000000000004,0.001842,0.000496,-32.0,-19.370001000000002,-15.06,3b
2019-07-15_130222:840,-0.42858900000000005,-0.017273,-0.246063,-0.003664,0.001537,0.000343,-32.0,-19.75,-15.87,3b
2019-07-15_130222:860,-0.430634,-0.016266,-0.246063,-0.0034509999999999996,0.001201,7.000000000000001e-06,-32.0,-19.75,-15.87,3b
2019-07-15_130222:880,-0.430634,-0.016753999999999998,-0.245544,-0.0032979999999999997,0.000743,-0.00011499999999999999,-32.0,-19.75,-15.87,3b
2019-07-15_130222:900,-0.430634,-0.014740000000000001,-0.24706999999999998,-0.003237,0.000682,-5.4000000000000005e-05,-31.559998999999998,-19.75,-14.68,3b
2019-07-15_130222:920,-0.430634,-0.013702,-0.24758899999999998,-0.003237,0.000346,6.8e-05,-31.559998999999998,-19.75,-14.68,3b
2019-07-15_130222:940,-0.432648,-0.012695,-0.249115,-0.003237,0.000407,0.000129,-32.369999,-19.370001000000002,-15.06,3b
2019-07-15_130222:960,-0.433167,-0.010162000000000001,-0.24963400000000002,-0.0037560000000000002,0.000621,6.8e-05,-32.369999,-19.370001000000002,-15.06,3b
2019-07-15_130222:980,-0.433655,-0.009644,-0.249115,-0.004213000000000001,0.00114,0.000343,-32.369999,-19.370001000000002,-15.06,3b
2019-07-15_130223:000,-0.43518100000000004,-0.010162000000000001,-0.250641,-0.004488000000000001,0.0014759999999999999,0.0007700000000000001,-31.18,-19.370001000000002,-16.25,3b
2019-07-15_130223:020,-0.433655,-0.012177,-0.249115,-0.004732,0.001842,0.000984,-31.18,-19.370001000000002,-16.25,3b
2019-07-15_130223:040,-0.431641,-0.012695,-0.249115,-0.0048850000000000005,0.0017809999999999998,0.001228,-31.18,-19.0,-14.37,3b
2019-07-15_130223:060,-0.431641,-0.015228,-0.248596,-0.00461,0.0017809999999999998,0.001716,-31.18,-19.0,-14.37,3b
2019-07-15_130223:080,-0.43518100000000004,-0.015747,-0.24758899999999998,-0.004275,0.001964,0.001258,-31.18,-19.0,-14.37,3b
2019-07-15_130223:100,-0.43518100000000004,-0.012695,-0.245056,-0.003939,0.002391,0.002754,-32.0,-19.0,-15.06,3b
2019-07-15_130223:120,-0.434692,-0.016753999999999998,-0.245056,-0.003939,0.002574,0.0030280000000000003,-32.0,-19.0,-15.06,3b
2019-07-15_130223:140,-0.429108,-0.014740000000000001,-0.246063,-0.004488000000000001,0.002116,0.002113,-32.369999,-19.0,-14.68,3b
2019-07-15_130223:160,-0.42858900000000005,-0.016266,-0.24658200000000002,-0.004671,0.0016589999999999999,0.002113,-32.369999,-19.0,-14.68,3b
2019-07-15_130223:180,-0.429108,-0.01828,-0.24658200000000002,-0.005129,0.001201,0.0008619999999999999,-32.369999,-19.0,-14.68,3b
2019-07-15_130223:200,-0.431641,-0.017273,-0.246063,-0.005068,0.0012619999999999999,0.000831,-31.559998999999998,-19.370001000000002,-15.06,3b
2019-07-15_130223:220,-0.432648,-0.019318000000000002,-0.24453699999999998,-0.004427,0.001292,0.00132,-31.559998999999998,-19.370001000000002,-15.06,3b
2019-07-15_130223:240,-0.430634,-0.01828,-0.245056,-0.00403,0.001415,0.000496,-32.68,-19.75,-14.68,3b
2019-07-15_130223:260,-0.42858900000000005,-0.016266,-0.24353000000000002,-0.003939,0.00114,0.000831,-32.68,-19.75,-14.68,3b
2019-07-15_130223:280,-0.42758199999999996,-0.015228,-0.244019,-0.0037560000000000002,0.000407,0.000648,-32.68,-19.75,-14.68,3b
2019-07-15_130223:300,-0.42807,-0.012695,-0.24706999999999998,-0.004,7.2e-05,0.000587,-31.559998999999998,-19.370001000000002,-14.68,3b
2019-07-15_130223:320,-0.429596,-0.015228,-0.24706999999999998,-0.004549,-0.0007830000000000001,0.000709,-31.559998999999998,-19.370001000000002,-14.68,3b
2019-07-15_130223:340,-0.432648,-0.015747,-0.24758899999999998,-0.004549,-0.0008439999999999999,0.000343,-32.0,-19.370001000000002,-14.68,3b
2019-07-15_130223:360,-0.433655,-0.016753999999999998,-0.248596,-0.004671,-0.000325,0.0007700000000000001,-32.0,-19.370001000000002,-14.68,3b
2019-07-15_130223:380,-0.432648,-0.016266,-0.248596,-0.004336,0.000285,0.000923,-32.0,-19.370001000000002,-14.68,3b
2019-07-15_130223:400,-0.42858900000000005,-0.017273,-0.25012199999999996,-0.004,0.000743,-0.000176,-31.559998999999998,-19.0,-14.68,3b
2019-07-15_130223:420,-0.432159,-0.014740000000000001,-0.25116,-0.0036340000000000005,0.0009570000000000001,0.00016,-31.559998999999998,-19.0,-14.68,3b
2019-07-15_130223:440,-0.434692,-0.014221000000000001,-0.250641,-0.0036950000000000004,0.0009570000000000001,0.0008619999999999999,-31.559998999999998,-19.370001000000002,-15.06,3b
2019-07-15_130223:460,-0.43621800000000005,-0.015228,-0.248596,-0.0036950000000000004,0.0017809999999999998,0.000496,-31.559998999999998,-19.370001000000002,-15.06,3b
2019-07-15_130223:480,-0.43670699999999996,-0.013702,-0.24758899999999998,-0.00403,0.002177,0.000404,-31.559998999999998,-19.370001000000002,-15.06,3b
2019-07-15_130223:500,-0.435699,-0.013213999999999998,-0.248596,-0.004336,0.002849,0.000587,-32.68,-20.059998999999998,-15.5,3b
2019-07-15_130223:520,-0.433655,-0.013213999999999998,-0.245544,-0.00461,0.0029100000000000003,0.000587,-32.68,-20.059998999999998,-15.5,3b
2019-07-15_130223:540,-0.431641,-0.013702,-0.246063,-0.004671,0.002696,0.000496,-31.559998999999998,-19.0,-14.68,3b
2019-07-15_130223:560,-0.430634,-0.016266,-0.24658200000000002,-0.004397,0.002177,0.000496,-31.559998999999998,-19.0,-14.68,3b
2019-07-15_130223:580,-0.432159,-0.015747,-0.246063,-0.0036340000000000005,0.001964,0.000709,-31.559998999999998,-19.0,-14.68,3b
2019-07-15_130223:600,-0.431122,-0.016266,-0.24758899999999998,-0.003176,0.001842,0.000984,-31.559998999999998,-19.0,-14.37,3b
2019-07-15_130223:620,-0.43518100000000004,-0.014740000000000001,-0.24706999999999998,-0.002932,0.002055,0.001167,-31.559998999999998,-19.0,-14.37,3b
2019-07-15_130223:640,-0.43518100000000004,-0.015228,-0.24758899999999998,-0.002779,0.002513,0.0008619999999999999,-30.870001000000002,-19.0,-15.5,3b
2019-07-15_130223:660,-0.434692,-0.015747,-0.24758899999999998,-0.002718,0.003307,0.00028199999999999997,-30.870001000000002,-19.0,-15.5,3b
2019-07-15_130223:680,-0.429596,-0.012695,-0.245544,-0.002718,0.002971,0.000526,-30.870001000000002,-19.0,-15.5,3b
2019-07-15_130223:700,-0.42807,-0.012177,-0.24453699999999998,-0.002718,0.002177,0.000831,-30.870001000000002,-19.75,-15.06,3b
2019-07-15_130223:720,-0.430634,-0.013702,-0.244019,-0.002718,0.001964,0.000923,-30.870001000000002,-19.75,-15.06,3b
2019-07-15_130223:740,-0.432159,-0.016266,-0.245544,-0.002657,0.002116,0.001442,-31.559998999999998,-19.75,-14.68,3b
2019-07-15_130223:760,-0.432648,-0.015228,-0.244019,-0.002657,0.001994,0.001777,-31.559998999999998,-19.75,-14.68,3b
2019-07-15_130223:780,-0.431641,-0.016753999999999998,-0.242493,-0.002779,0.0023,0.001991,-31.559998999999998,-19.75,-14.68,3b
2019-07-15_130223:800,-0.432159,-0.017273,-0.24353000000000002,-0.0029010000000000004,0.002361,0.0021739999999999997,-31.18,-19.370001000000002,-15.5,3b
2019-07-15_130223:820,-0.430634,-0.01828,-0.244019,-0.0029010000000000004,0.002177,0.001625,-31.18,-19.370001000000002,-15.5,3b
2019-07-15_130223:840,-0.429596,-0.019318000000000002,-0.245544,-0.0029010000000000004,0.001964,0.001564,-32.68,-19.370001000000002,-14.68,3b
2019-07-15_130223:860,-0.43011499999999997,-0.021332,-0.24658200000000002,-0.0028399999999999996,0.00172,0.000984,-32.68,-19.370001000000002,-14.68,3b
2019-07-15_130223:880,-0.433167,-0.021851,-0.246063,-0.002443,0.001353,0.000404,-32.68,-19.370001000000002,-14.68,3b
2019-07-15_130223:900,-0.435699,-0.019806,-0.244019,-0.0025050000000000003,0.001598,0.0008619999999999999,-32.0,-18.25,-15.06,3b
2019-07-15_130223:920,-0.43774399999999997,-0.019806,-0.243011,-0.002321,0.001964,0.001777,-32.0,-18.25,-15.06,3b
2019-07-15_130223:940,-0.434174,-0.020325,-0.244019,-0.002657,0.0024519999999999998,0.000831,-31.18,-18.25,-15.06,3b
2019-07-15_130223:960,-0.432648,-0.020325,-0.24453699999999998,-0.002993,0.002696,0.000709,-31.18,-18.25,-15.06,3b
2019-07-15_130223:980,-0.42858900000000005,-0.019806,-0.246063,-0.0033280000000000002,0.0019030000000000002,0.00028199999999999997,-31.18,-18.25,-15.06,3b
2019-07-15_130224:000,-0.43011499999999997,-0.020844,-0.24658200000000002,-0.003664,0.0016589999999999999,7.000000000000001e-06,-32.68,-19.370001000000002,-15.5,3b
2019-07-15_130224:020,-0.431641,-0.021851,-0.24353000000000002,-0.003512,0.0012619999999999999,0.00028199999999999997,-32.68,-19.370001000000002,-15.5,3b
2019-07-15_130224:040,-0.431641,-0.021332,-0.24453699999999998,-0.0033280000000000002,0.001353,6.8e-05,-31.18,-19.370001000000002,-15.06,3b
2019-07-15_130224:060,-0.432159,-0.022369,-0.24453699999999998,-0.003176,0.001415,-0.00011499999999999999,-31.18,-19.370001000000002,-15.06,3b
2019-07-15_130224:080,-0.431641,-0.019318000000000002,-0.245544,-0.002993,0.001628,0.00028199999999999997,-31.18,-19.370001000000002,-15.06,3b
2019-07-15_130224:100,-0.432159,-0.017792,-0.24658200000000002,-0.0034509999999999996,0.0014759999999999999,0.00028199999999999997,-31.18,-19.370001000000002,-14.68,3b
2019-07-15_130224:120,-0.432648,-0.015228,-0.24658200000000002,-0.003939,0.001353,0.000526,-31.18,-19.370001000000002,-14.68,3b
2019-07-15_130224:140,-0.43518100000000004,-0.017792,-0.245544,-0.004549,0.001415,0.000831,-33.0,-18.559998999999998,-15.87,3b
2019-07-15_130224:160,-0.43621800000000005,-0.017792,-0.245544,-0.005068,0.0016589999999999999,0.001045,-33.0,-18.559998999999998,-15.87,3b
2019-07-15_130224:180,-0.435699,-0.018799,-0.246063,-0.005129,0.0023,0.001716,-33.0,-18.559998999999998,-15.87,3b
2019-07-15_130224:200,-0.43670699999999996,-0.021332,-0.24453699999999998,-0.0051600000000000005,0.002574,0.0018989999999999999,-32.68,-19.370001000000002,-15.06,3b
2019-07-15_130224:220,-0.434174,-0.021851,-0.242004,-0.005007,0.002635,0.001228,-32.68,-19.370001000000002,-15.06,3b
2019-07-15_130224:240,-0.432648,-0.022369,-0.24096700000000001,-0.005068,0.002513,0.002052,-32.68,-19.370001000000002,-15.06,3b
2019-07-15_130224:260,-0.432648,-0.022858,-0.242004,-0.004946,0.002177,0.001991,-32.0,-19.0,-15.06,3b
2019-07-15_130224:280,-0.432648,-0.022858,-0.243011,-0.0048850000000000005,0.0016589999999999999,0.001045,-32.0,-19.0,-15.06,3b
2019-07-15_130224:300,-0.43011499999999997,-0.023375999999999997,-0.24453699999999998,-0.00461,0.001353,0.000831,-32.369999,-18.559998999999998,-14.68,3b
2019-07-15_130224:320,-0.430634,-0.023375999999999997,-0.242004,-0.004488000000000001,0.001201,0.000465,-32.369999,-18.559998999999998,-14.68,3b
2019-07-15_130224:340,-0.42807,-0.022369,-0.246063,-0.004275,0.000743,0.000343,-32.369999,-18.559998999999998,-14.68,3b
2019-07-15_130224:360,-0.431122,-0.022858,-0.243011,-0.003664,0.000346,7.000000000000001e-06,-32.369999,-19.75,-14.68,3b
2019-07-15_130224:380,-0.433655,-0.022858,-0.24658200000000002,-0.003237,0.000346,-0.000786,-32.369999,-19.75,-14.68,3b
2019-07-15_130224:400,-0.432159,-0.019806,-0.245056,-0.002657,0.00056,-0.000664,-31.559998999999998,-19.0,-13.87,3b
2019-07-15_130224:420,-0.431641,-0.019318000000000002,-0.24658200000000002,-0.0025960000000000002,0.000865,-0.00023700000000000001,-31.559998999999998,-19.0,-13.87,3b
2019-07-15_130224:440,-0.431122,-0.019318000000000002,-0.24758899999999998,-0.002657,0.0008039999999999999,-0.00011499999999999999,-32.369999,-19.0,-15.06,3b
2019-07-15_130224:460,-0.431122,-0.01828,-0.245544,-0.002718,0.000621,-0.00011499999999999999,-32.369999,-19.0,-15.06,3b
2019-07-15_130224:480,-0.43011499999999997,-0.017792,-0.246063,-0.003054,0.000743,-0.00011499999999999999,-32.369999,-19.0,-15.06,3b
2019-07-15_130224:500,-0.433167,-0.017792,-0.246063,-0.0034509999999999996,0.00056,-0.000176,-32.0,-19.0,-15.5,3b
2019-07-15_130224:520,-0.433167,-0.017273,-0.246063,-0.003878,0.000468,0.000129,-32.0,-19.0,-15.5,3b
2019-07-15_130224:540,-0.431641,-0.020325,-0.24706999999999998,-0.004275,0.000743,0.000343,-32.0,-19.0,-15.5,3b
2019-07-15_130224:560,-0.432159,-0.019318000000000002,-0.24758899999999998,-0.004427,0.0009570000000000001,0.000526,-30.870001000000002,-19.0,-15.06,3b
2019-07-15_130224:580,-0.431122,-0.021851,-0.248596,-0.004397,0.0009570000000000001,0.000343,-30.870001000000002,-19.0,-15.06,3b
2019-07-15_130224:600,-0.431641,-0.020325,-0.249115,-0.004336,0.001018,6.8e-05,-32.0,-18.559998999999998,-15.06,3b
2019-07-15_130224:620,-0.433655,-0.020325,-0.24758899999999998,-0.004427,0.0014759999999999999,-0.00011499999999999999,-32.0,-18.559998999999998,-15.06,3b
