timestamp,AccX,AccY,AccZ,GyroX,GyroY,GyroZ,MagX,MagY,MagZ,Activity
2019-07-15_121910:700,-0.432159,-0.041687,-0.24453699999999998,-0.0009789999999999998,-0.00475,-0.006554000000000001,-30.370001000000002,-19.870001000000002,-19.18,2c
2019-07-15_121910:720,-0.445862,-0.036591000000000005,-0.242493,-0.0009789999999999998,-0.004964,-0.007409000000000001,-31.059998999999998,-20.25,-19.559998999999998,2c
2019-07-15_121910:740,-0.46060200000000007,-0.031494,-0.23895300000000003,-0.0017109999999999998,-0.003285,-0.0078049999999999994,-31.059998999999998,-20.25,-19.559998999999998,2c
2019-07-15_121910:760,-0.469757,-0.024384,-0.23028600000000002,-0.003573,0.000346,-0.005425,-31.059998999999998,-20.68,-19.559998999999998,2c
2019-07-15_121910:780,-0.46060200000000007,-0.028961,-0.231323,-0.006533,0.0042829999999999995,-0.001366,-31.059998999999998,-20.68,-19.559998999999998,2c
2019-07-15_121910:800,-0.43011499999999997,-0.038635,-0.235382,-0.008851999999999999,0.004314,0.0007700000000000001,-31.059998999999998,-20.68,-19.559998999999998,2c
2019-07-15_121910:820,-0.417908,-0.042694,-0.23486300000000002,-0.009401000000000001,0.002055,0.000465,-29.559998999999998,-19.870001000000002,-18.870001000000002,2c
2019-07-15_121910:840,-0.420959,-0.042694,-0.23233,-0.009309999999999999,-0.00044699999999999997,-0.0011220000000000002,-29.559998999999998,-19.870001000000002,-18.870001000000002,2c
2019-07-15_121910:860,-0.44027700000000003,-0.033539,-0.231323,-0.009309999999999999,-0.001912,-0.002373,-29.559998999999998,-20.25,-19.559998999999998,2c
2019-07-15_121910:880,-0.460114,-0.027954000000000003,-0.22979699999999997,-0.009798000000000001,-0.00044699999999999997,-0.002709,-29.559998999999998,-20.25,-19.559998999999998,2c
2019-07-15_121910:900,-0.417908,-0.025908999999999998,-0.239441,-0.010714,0.001994,-0.003319,-29.559998999999998,-20.25,-19.559998999999998,2c
2019-07-15_121910:920,-0.47689799999999993,-0.023895,-0.233337,-0.010988,0.001292,-0.004021,-30.75,-21.370001000000002,-19.18,2c
2019-07-15_121910:940,-0.45043900000000003,-0.023375999999999997,-0.21554600000000002,-0.011446,0.005016,-0.004113,-30.75,-21.370001000000002,-19.18,2c
2019-07-15_121910:960,-0.45196499999999995,-0.021332,-0.21810900000000003,-0.011781999999999999,0.006297,-0.003319,-29.25,-21.75,-19.559998999999998,2c
2019-07-15_121910:980,-0.446899,-0.020844,-0.21505700000000003,-0.012118,0.007365000000000001,-0.0019760000000000003,-29.25,-21.75,-19.559998999999998,2c
2019-07-15_121911:000,-0.446899,-0.016753999999999998,-0.21505700000000003,-0.012758,0.007426,0.000343,-29.25,-21.75,-19.559998999999998,2c
2019-07-15_121911:020,-0.44638100000000003,-0.014740000000000001,-0.21402,-0.013521,0.0071519999999999995,0.001777,-30.0,-21.370001000000002,-20.0,2c
2019-07-15_121911:040,-0.441284,-0.010162000000000001,-0.210968,-0.01523,0.007304000000000001,0.002571,-30.0,-21.370001000000002,-20.0,2c
2019-07-15_121911:060,-0.44281000000000004,-0.009644,-0.206909,-0.017366999999999997,0.0071519999999999995,0.002784,-30.370001000000002,-21.75,-18.5,2c
2019-07-15_121911:080,-0.453003,-0.0025329999999999997,-0.207916,-0.020083,0.007304000000000001,0.003517,-30.370001000000002,-21.75,-18.5,2c
2019-07-15_121911:100,-0.45605500000000004,0.005065999999999999,-0.21859699999999999,-0.024325,0.007945,0.005012,-30.370001000000002,-21.75,-18.5,2c
2019-07-15_121911:120,-0.452484,0.011687999999999999,-0.217072,-0.029848000000000003,0.009288,0.006691,-29.559998999999998,-21.75,-18.0,2c
2019-07-15_121911:140,-0.452484,0.0035399999999999997,-0.213013,-0.035401999999999996,0.010356,0.009864,-29.559998999999998,-21.75,-18.0,2c
2019-07-15_121911:160,-0.448425,-0.015228,-0.209961,-0.038607,0.011058,0.011726,-30.75,-22.18,-17.25,2c
2019-07-15_121911:180,-0.439758,-0.023375999999999997,-0.205902,-0.039736,0.010265,0.011726,-30.75,-22.18,-17.25,2c
2019-07-15_121911:200,-0.45095799999999997,-0.037108999999999996,-0.199799,-0.03879,0.007762000000000001,0.011543000000000001,-30.75,-22.18,-17.25,2c
2019-07-15_121911:220,-0.45907600000000004,-0.038635,-0.192169,-0.035799,0.005748,0.0102,-32.18,-22.18,-15.68,2c
2019-07-15_121911:240,-0.466217,-0.036591000000000005,-0.191162,-0.032168,0.003032,0.007759,-32.18,-22.18,-15.68,2c
2019-07-15_121911:260,-0.473846,-0.031494,-0.19574,-0.028048000000000003,-5e-05,0.005836,-31.059998999999998,-22.18,-14.5,2c
2019-07-15_121911:280,-0.47433500000000006,-0.023375999999999997,-0.193695,-0.024447,-0.001515,0.004646,-31.059998999999998,-22.18,-14.5,2c
2019-07-15_121911:300,-0.46823100000000006,-0.015747,-0.194214,-0.021273,-0.001912,0.003975,-31.059998999999998,-22.18,-14.5,2c
2019-07-15_121911:320,-0.461121,-0.007599,-0.194214,-0.018801,-0.001363,0.0043100000000000005,-31.75,-22.18,-15.37,2c
2019-07-15_121911:340,-0.44995100000000005,-0.004059,-0.190125,-0.017031,7.2e-05,0.004829,-31.75,-22.18,-15.37,2c
2019-07-15_121911:360,-0.455017,-0.0030210000000000002,-0.189117,-0.015505000000000001,0.001842,0.004768,-31.5,-23.25,-14.18,2c
2019-07-15_121911:380,-0.45196499999999995,-0.0025329999999999997,-0.186584,-0.014894999999999999,0.004375,0.005012,-31.5,-23.25,-14.18,2c
2019-07-15_121911:400,-0.44281000000000004,-0.008636,-0.191162,-0.014834,0.005901,0.005622,-31.5,-23.25,-14.18,2c
2019-07-15_121911:420,-0.441803,-0.012177,-0.194702,-0.014712000000000001,0.006236,0.006233,-31.370001000000002,-23.25,-14.5,2c
2019-07-15_121911:440,-0.445374,-0.022858,-0.201324,-0.014284,0.005565,0.00663,-31.370001000000002,-23.25,-14.5,2c
2019-07-15_121911:460,-0.447906,-0.029968,-0.20843499999999998,-0.013308,0.004039,0.006416,-31.75,-22.5,-14.18,2c
2019-07-15_121911:480,-0.45605500000000004,-0.033539,-0.213531,-0.011904000000000001,0.001292,0.005622,-31.75,-22.5,-14.18,2c
2019-07-15_121911:500,-0.459595,-0.032532,-0.219635,-0.011049,-0.001302,0.005226,-31.75,-22.5,-14.18,2c
2019-07-15_121911:520,-0.476379,-0.032013,-0.220123,-0.010531,-0.003102,0.005409000000000001,-31.75,-22.18,-12.56,2c
2019-07-15_121911:540,-0.46469099999999997,-0.033539,-0.216583,-0.010653,-0.002156,0.0038829999999999997,-31.75,-22.18,-12.56,2c
2019-07-15_121911:560,-0.44638100000000003,-0.029968,-0.219635,-0.01047,1.1e-05,0.001381,-32.18,-22.870001000000002,-14.18,2c
2019-07-15_121911:580,-0.43823199999999995,-0.027954000000000003,-0.21810900000000003,-0.010195000000000001,0.001537,-0.000328,-32.18,-22.870001000000002,-14.18,2c
2019-07-15_121911:600,-0.443329,-0.021851,-0.222687,-0.00992,0.001598,0.000923,-32.18,-22.870001000000002,-14.18,2c
2019-07-15_121911:620,-0.455017,-0.015747,-0.220123,-0.010439,0.002513,0.002754,-31.75,-22.5,-13.37,2c
2019-07-15_121911:640,-0.455017,-0.015228,-0.210968,-0.011995,0.0052899999999999996,0.004951,-31.75,-22.5,-13.37,2c
2019-07-15_121911:660,-0.440796,-0.020844,-0.212006,-0.013368999999999999,0.007365000000000001,0.005012,-31.059998999999998,-22.5,-13.37,2c
2019-07-15_121911:680,-0.423492,-0.022858,-0.21810900000000003,-0.014100999999999999,0.006418999999999999,0.002449,-31.059998999999998,-22.5,-13.37,2c
2019-07-15_121911:700,-0.437225,-0.023895,-0.22164899999999998,-0.014100999999999999,0.002513,-0.00011499999999999999,-31.059998999999998,-22.5,-13.37,2c
2019-07-15_121911:720,-0.455017,-0.023375999999999997,-0.216583,-0.013704,0.000407,-0.003045,-32.18,-22.5,-13.37,2c
2019-07-15_121911:740,-0.45706199999999997,-0.021851,-0.21402,-0.013125,0.0008039999999999999,-0.004845,-32.18,-22.5,-13.37,2c
2019-07-15_121911:760,-0.44232200000000005,-0.016266,-0.21249400000000002,-0.012240000000000001,0.002055,-0.0057,-31.75,-22.5,-12.56,2c
2019-07-15_121911:780,-0.43823199999999995,-0.010162000000000001,-0.21402,-0.010836,0.0019030000000000002,-0.006706999999999999,-31.75,-22.5,-12.56,2c
2019-07-15_121911:800,-0.433655,-0.0030210000000000002,-0.21606399999999998,-0.010042,0.001598,-0.005944,-31.75,-22.5,-12.56,2c
2019-07-15_121911:820,-0.42858900000000005,-0.0025329999999999997,-0.217072,-0.009249,0.001292,-0.004631000000000001,-31.370001000000002,-22.870001000000002,-12.18,2c
2019-07-15_121911:840,-0.42248500000000005,0.0,-0.21911599999999998,-0.008791,0.000743,-0.0037159999999999997,-31.370001000000002,-22.870001000000002,-12.18,2c
2019-07-15_121911:860,-0.412811,-0.001495,-0.220123,-0.008394,-0.0008439999999999999,-0.002373,-31.75,-23.25,-13.37,2c
2019-07-15_121911:880,-0.410797,-0.004059,-0.226746,-0.007876000000000001,-0.00237,-0.0010609999999999999,-31.75,-23.25,-13.37,2c
2019-07-15_121911:900,-0.412811,-0.005065999999999999,-0.22927899999999998,-0.007479,-0.0032240000000000003,0.000129,-31.75,-23.25,-13.37,2c
2019-07-15_121911:920,-0.431641,-0.007599,-0.23895300000000003,-0.006807,-0.003834,0.001045,-31.75,-23.25,-12.18,2c
2019-07-15_121911:940,-0.454529,-0.006592,-0.24096700000000001,-0.006014,-0.004353,-0.00045099999999999996,-31.75,-23.25,-12.18,2c
2019-07-15_121911:960,-0.489075,-0.0030210000000000002,-0.23028600000000002,-0.004397,-0.0035600000000000002,-0.0038380000000000003,-32.18,-23.68,-11.75,2c
2019-07-15_121911:980,-0.498749,0.002014,-0.22116100000000002,-0.0025050000000000003,0.000468,-0.006768000000000001,-32.18,-23.68,-11.75,2c
2019-07-15_121912:000,-0.478912,0.015228,-0.20944200000000002,-0.000185,0.004497,-0.0075,-32.18,-23.68,-11.75,2c
2019-07-15_121912:020,-0.45907600000000004,0.019318000000000002,-0.203369,0.001524,0.00648,-0.006706999999999999,-32.18,-23.25,-13.0,2c
2019-07-15_121912:040,-0.432159,0.025908999999999998,-0.19574,0.002378,0.006084,-0.004174000000000001,-32.18,-23.25,-13.0,2c
2019-07-15_121912:060,-0.431641,0.026427999999999997,-0.197266,0.00186,0.003825,0.000709,-31.059998999999998,-23.25,-12.56,2c
2019-07-15_121912:080,-0.434692,0.025908999999999998,-0.20944200000000002,0.000151,0.0010789999999999999,0.005012,-31.059998999999998,-23.25,-12.56,2c
2019-07-15_121912:100,-0.44638100000000003,0.017273,-0.21606399999999998,-0.0022600000000000003,-0.001759,0.007942,-31.059998999999998,-23.25,-12.56,2c
2019-07-15_121912:120,-0.454529,0.009125,-0.216583,-0.005007,-0.0035600000000000002,0.009803000000000001,-31.5,-24.0,-12.18,2c
2019-07-15_121912:140,-0.467743,-0.001007,-0.21402,-0.007051999999999999,-0.0033770000000000002,0.01081,-31.5,-24.0,-12.18,2c
2019-07-15_121912:160,-0.46670500000000004,-0.004547,-0.21249400000000002,-0.008516,-0.0007830000000000001,0.009406999999999999,-31.059998999999998,-24.0,-12.56,2c
2019-07-15_121912:180,-0.453003,-0.006072999999999999,-0.21810900000000003,-0.00873,0.0010789999999999999,0.006294,-31.059998999999998,-24.0,-12.56,2c
2019-07-15_121912:200,-0.446899,-0.006592,-0.21911599999999998,-0.008791,0.001415,0.003425,-31.059998999999998,-24.0,-12.56,2c
2019-07-15_121912:220,-0.44638100000000003,-0.007599,-0.219635,-0.008608,0.000499,0.002449,-31.370001000000002,-23.68,-13.75,2c
2019-07-15_121912:240,-0.44891400000000004,-0.010162000000000001,-0.22164899999999998,-0.00812,-0.0005690000000000001,0.002449,-31.370001000000002,-23.68,-13.75,2c
2019-07-15_121912:260,-0.458588,-0.010162000000000001,-0.222687,-0.007204,-0.001027,0.001838,-31.059998999999998,-22.5,-12.18,2c
2019-07-15_121912:280,-0.455017,-0.007111,-0.225739,-0.006014,-0.0007830000000000001,0.000496,-31.059998999999998,-22.5,-12.18,2c
2019-07-15_121912:300,-0.458588,-0.0055850000000000006,-0.226227,-0.005221,-0.000325,0.001258,-31.059998999999998,-22.5,-12.18,2c
2019-07-15_121912:320,-0.45553599999999994,-0.007111,-0.222687,-0.004336,0.00016299999999999998,0.002449,-32.869999,-22.870001000000002,-13.0,2c
2019-07-15_121912:340,-0.455017,-0.004547,-0.21810900000000003,-0.004,0.000743,0.00251,-32.869999,-22.870001000000002,-13.0,2c
2019-07-15_121912:360,-0.45553599999999994,-0.004059,-0.21606399999999998,-0.0037560000000000002,0.00172,0.004036,-31.75,-23.25,-12.18,2c
2019-07-15_121912:380,-0.451477,-0.006072999999999999,-0.213013,-0.00403,0.002849,0.004554,-31.75,-23.25,-12.18,2c
2019-07-15_121912:400,-0.44433599999999995,-0.005065999999999999,-0.21402,-0.00461,0.004039,0.003639,-31.75,-23.25,-12.18,2c
2019-07-15_121912:420,-0.438751,-0.006072999999999999,-0.21048000000000003,-0.004824,0.003703,0.002571,-31.370001000000002,-23.25,-13.37,2c
2019-07-15_121912:440,-0.434692,-0.008636,-0.20944200000000002,-0.004793,0.0029100000000000003,0.001228,-31.370001000000002,-23.25,-13.37,2c
2019-07-15_121912:460,-0.440796,-0.009644,-0.210968,-0.004671,0.0014759999999999999,-0.000176,-31.75,-23.25,-12.18,2c
2019-07-15_121912:480,-0.462646,-0.010162000000000001,-0.208954,-0.004152,0.000682,-0.001458,-31.75,-23.25,-12.18,2c
2019-07-15_121912:500,-0.44638100000000003,-0.009125,-0.213013,-0.003512,0.0019030000000000002,-0.0023120000000000003,-31.75,-23.25,-12.18,2c
2019-07-15_121912:520,-0.433167,-0.008636,-0.222687,-0.0025050000000000003,0.0010789999999999999,-0.002648,-31.75,-23.25,-12.56,2c
2019-07-15_121912:540,-0.44433599999999995,-0.006072999999999999,-0.224701,-0.001253,-0.000508,-0.0023120000000000003,-31.75,-23.25,-12.56,2c
2019-07-15_121912:560,-0.44891400000000004,-0.004059,-0.21859699999999999,-2e-06,-0.0018510000000000002,-0.0017629999999999998,-32.18,-23.25,-13.0,2c
2019-07-15_121912:580,-0.45654300000000003,-0.0025329999999999997,-0.220123,0.000791,-0.001912,-0.00158,-32.18,-23.25,-13.0,2c
2019-07-15_121912:600,-0.455017,-0.001495,-0.22164899999999998,0.001188,-0.00044699999999999997,-0.002037,-32.18,-23.25,-13.0,2c
2019-07-15_121912:620,-0.45043900000000003,0.000488,-0.222687,0.001341,0.0008960000000000001,-0.0017629999999999998,-31.5,-23.559998999999998,-13.37,2c
2019-07-15_121912:640,-0.449432,0.000488,-0.220642,0.00128,0.0017809999999999998,-0.000908,-31.5,-23.559998999999998,-13.37,2c
2019-07-15_121912:660,-0.452484,0.0,-0.21859699999999999,0.000944,0.0017809999999999998,-0.000786,-31.370001000000002,-22.18,-13.0,2c
2019-07-15_121912:680,-0.45401,0.0,-0.21606399999999998,0.000547,0.002574,-0.000573,-31.370001000000002,-22.18,-13.0,2c
2019-07-15_121912:700,-0.449432,-0.001495,-0.21402,0.000212,0.002757,-0.000634,-31.370001000000002,-22.18,-13.0,2c
2019-07-15_121912:720,-0.44891400000000004,-0.000488,-0.21606399999999998,-6.3e-05,0.003246,-0.000176,-31.5,-22.870001000000002,-13.37,2c
2019-07-15_121912:740,-0.446899,0.0,-0.21505700000000003,-0.000643,0.002849,-0.00023700000000000001,-31.5,-22.870001000000002,-13.37,2c
2019-07-15_121912:760,-0.44638100000000003,-0.001007,-0.21554600000000002,-0.001314,0.002177,0.000404,-31.5,-23.559998999999998,-13.75,2c
2019-07-15_121912:780,-0.446899,-0.002014,-0.21505700000000003,-0.0018030000000000001,0.0017809999999999998,0.000465,-31.5,-23.559998999999998,-13.75,2c
2019-07-15_121912:800,-0.45043900000000003,-0.001495,-0.21810900000000003,-0.002779,0.001628,0.000496,-31.5,-23.559998999999998,-13.75,2c
2019-07-15_121912:820,-0.453003,-0.002014,-0.217072,-0.003573,0.0014759999999999999,0.000709,-31.059998999999998,-23.25,-13.37,2c
2019-07-15_121912:840,-0.45043900000000003,-0.004059,-0.217072,-0.004397,0.002055,0.001045,-31.059998999999998,-23.25,-13.37,2c
2019-07-15_121912:860,-0.449432,-0.006072999999999999,-0.216583,-0.005007,0.0023,0.0007700000000000001,-30.75,-23.559998999999998,-13.37,2c
2019-07-15_121912:880,-0.447906,-0.007599,-0.21505700000000003,-0.005404,0.002391,0.000587,-30.75,-23.559998999999998,-13.37,2c
2019-07-15_121912:900,-0.44232200000000005,-0.010162000000000001,-0.21810900000000003,-0.005343,0.001994,0.0008619999999999999,-30.75,-23.559998999999998,-13.37,2c
2019-07-15_121912:920,-0.444855,-0.009644,-0.21911599999999998,-0.005221,0.0012619999999999999,7.000000000000001e-06,-31.370001000000002,-22.870001000000002,-13.0,2c
2019-07-15_121912:940,-0.448425,-0.008118,-0.21505700000000003,-0.004946,0.001018,-0.000267,-31.370001000000002,-22.870001000000002,-13.0,2c
2019-07-15_121912:960,-0.45095799999999997,-0.008636,-0.21759,-0.004793,0.0010789999999999999,0.000496,-31.5,-23.25,-13.0,2c
2019-07-15_121912:980,-0.445862,-0.009125,-0.21505700000000003,-0.004793,0.001628,0.0007700000000000001,-31.5,-23.25,-13.0,2c
2019-07-15_121913:000,-0.440796,-0.010162000000000001,-0.219635,-0.004488000000000001,0.00172,0.000404,-31.5,-23.25,-13.0,2c
2019-07-15_121913:020,-0.44027700000000003,-0.010162000000000001,-0.21810900000000003,-0.004213000000000001,0.001353,-0.000328,-31.75,-23.25,-12.56,2c
2019-07-15_121913:040,-0.443329,-0.010162000000000001,-0.21859699999999999,-0.0036950000000000004,0.000682,-0.000908,-31.75,-23.25,-12.56,2c
2019-07-15_121913:060,-0.44638100000000003,-0.010162000000000001,-0.216583,-0.003054,0.000468,-0.000908,-31.059998999999998,-22.870001000000002,-13.37,2c
2019-07-15_121913:080,-0.447388,-0.009644,-0.21606399999999998,-0.0025050000000000003,0.000621,-0.0012439999999999999,-31.059998999999998,-22.870001000000002,-13.37,2c
2019-07-15_121913:100,-0.445862,-0.006072999999999999,-0.219635,-0.002199,0.00114,-0.0012439999999999999,-31.059998999999998,-22.870001000000002,-13.37,2c
2019-07-15_121913:120,-0.447388,-0.005065999999999999,-0.220123,-0.002199,0.001292,-0.000908,-31.059998999999998,-23.559998999999998,-12.18,2c
2019-07-15_121913:140,-0.44281000000000004,-0.0030210000000000002,-0.220642,-0.0022600000000000003,0.001201,-0.00158,-31.059998999999998,-23.559998999999998,-12.18,2c
2019-07-15_121913:160,-0.44384799999999996,-0.001495,-0.22116100000000002,-0.001925,0.00016299999999999998,-0.001702,-31.75,-22.870001000000002,-12.56,2c
2019-07-15_121913:180,-0.44995100000000005,-0.001007,-0.22116100000000002,-0.001772,0.000133,-0.0012439999999999999,-31.75,-22.870001000000002,-12.56,2c
2019-07-15_121913:200,-0.45401,0.000488,-0.220123,-0.0017109999999999998,0.000285,-0.000786,-31.75,-22.870001000000002,-12.56,2c
2019-07-15_121913:220,-0.452484,0.001007,-0.22216799999999998,-0.0018030000000000001,0.000743,7.000000000000001e-06,-31.059998999999998,-23.25,-13.75,2c
2019-07-15_121913:240,-0.45095799999999997,0.0,-0.220642,-0.002169,0.0010789999999999999,0.000831,-31.059998999999998,-23.25,-13.75,2c
2019-07-15_121913:260,-0.447906,0.001007,-0.222687,-0.0029010000000000004,0.001537,0.00196,-31.5,-23.559998999999998,-12.18,2c
2019-07-15_121913:280,-0.448425,0.0,-0.21911599999999998,-0.003237,0.001018,0.0022960000000000003,-31.5,-23.559998999999998,-12.18,2c
2019-07-15_121913:300,-0.446899,-0.002014,-0.220642,-0.003817,0.0008039999999999999,0.00132,-31.5,-23.559998999999998,-12.18,2c
2019-07-15_121913:320,-0.446899,-0.001007,-0.223694,-0.004275,0.000407,0.001442,-31.5,-23.25,-13.0,2c
2019-07-15_121913:340,-0.44995100000000005,-0.0025329999999999997,-0.22116100000000002,-0.004549,0.00016299999999999998,0.0022960000000000003,-31.5,-23.25,-13.0,2c
2019-07-15_121913:360,-0.448425,-0.0025329999999999997,-0.223175,-0.0048850000000000005,0.0008960000000000001,0.002388,-32.18,-23.25,-13.75,2c
2019-07-15_121913:380,-0.446899,-0.004547,-0.220642,-0.005221,0.0014759999999999999,0.002571,-32.18,-23.25,-13.75,2c
2019-07-15_121913:400,-0.445862,-0.004547,-0.223175,-0.005404,0.001842,0.002449,-32.18,-23.25,-13.75,2c
2019-07-15_121913:420,-0.447388,-0.004547,-0.222687,-0.005739,0.001628,0.002571,-31.75,-23.559998999999998,-13.37,2c
2019-07-15_121913:440,-0.44638100000000003,-0.005065999999999999,-0.220642,-0.006014,0.001842,0.0029059999999999997,-31.75,-23.559998999999998,-13.37,2c
2019-07-15_121913:460,-0.44638100000000003,-0.008118,-0.21911599999999998,-0.006258,0.001994,0.002845,-31.059998999999998,-23.68,-12.56,2c
2019-07-15_121913:480,-0.443329,-0.009644,-0.21759,-0.006014,0.002239,0.00251,-31.059998999999998,-23.68,-12.56,2c
2019-07-15_121913:500,-0.441284,-0.011169,-0.21759,-0.005739,0.001964,0.0022960000000000003,-31.059998999999998,-23.68,-12.56,2c
2019-07-15_121913:520,-0.44433599999999995,-0.011169,-0.21810900000000003,-0.005221,0.001628,0.001655,-31.059998999999998,-23.25,-13.0,2c
2019-07-15_121913:540,-0.441284,-0.010651,-0.220642,-0.004946,0.001415,0.001228,-31.059998999999998,-23.25,-13.0,2c
2019-07-15_121913:560,-0.44384799999999996,-0.010651,-0.222687,-0.00461,0.00114,0.000709,-31.5,-22.18,-12.56,2c
2019-07-15_121913:580,-0.445374,-0.008636,-0.220123,-0.00461,0.001018,0.00016,-31.5,-22.18,-12.56,2c
2019-07-15_121913:600,-0.445862,-0.008118,-0.22164899999999998,-0.004793,0.000865,-0.00011499999999999999,-31.5,-22.18,-12.56,2c
2019-07-15_121913:620,-0.444855,-0.007599,-0.220642,-0.00461,0.0010789999999999999,-0.000267,-30.75,-22.5,-13.0,2c
2019-07-15_121913:640,-0.446899,-0.007599,-0.22216799999999998,-0.004671,0.000682,-5.4000000000000005e-05,-30.75,-22.5,-13.0,2c
2019-07-15_121913:660,-0.445862,-0.006072999999999999,-0.22216799999999998,-0.004671,0.000621,-5.4000000000000005e-05,-32.18,-22.870001000000002,-13.37,2c
2019-07-15_121913:680,-0.44384799999999996,-0.0055850000000000006,-0.222687,-0.004549,0.000407,-0.000328,-32.18,-22.870001000000002,-13.37,2c
2019-07-15_121913:700,-0.44384799999999996,-0.006592,-0.22421300000000002,-0.00461,0.000133,-0.000573,-32.18,-22.870001000000002,-13.37,2c
2019-07-15_121913:720,-0.445374,-0.007599,-0.224701,-0.004336,-0.000233,-0.000664,-31.75,-22.870001000000002,-14.5,2c
2019-07-15_121913:740,-0.44638100000000003,-0.008118,-0.22421300000000002,-0.00403,1.1e-05,-0.000389,-31.75,-22.870001000000002,-14.5,2c
2019-07-15_121913:760,-0.44638100000000003,-0.008636,-0.224701,-0.0033280000000000002,0.000407,-0.000634,-31.059998999999998,-23.68,-14.18,2c
2019-07-15_121913:780,-0.448425,-0.009644,-0.222687,-0.002718,0.00056,-0.0011220000000000002,-31.059998999999998,-23.68,-14.18,2c
2019-07-15_121913:800,-0.44638100000000003,-0.009125,-0.222687,-0.002321,0.000743,-0.000389,-31.059998999999998,-23.68,-14.18,2c
2019-07-15_121913:820,-0.447906,-0.009644,-0.22216799999999998,-0.0018030000000000001,0.001201,-0.00011499999999999999,-31.059998999999998,-22.870001000000002,-12.56,2c
2019-07-15_121913:840,-0.447906,-0.005065999999999999,-0.223694,-0.0015279999999999998,0.0012619999999999999,-0.000725,-31.059998999999998,-22.870001000000002,-12.56,2c
2019-07-15_121913:860,-0.448425,-0.0055850000000000006,-0.223175,-0.001253,0.001628,-0.000634,-31.5,-23.559998999999998,-14.18,2c
2019-07-15_121913:880,-0.448425,-0.008118,-0.220123,-0.0014060000000000001,0.0016589999999999999,-0.001183,-31.5,-23.559998999999998,-14.18,2c
2019-07-15_121913:900,-0.445862,-0.007111,-0.22216799999999998,-0.0015279999999999998,0.001415,-0.000573,-31.5,-23.559998999999998,-14.18,2c
2019-07-15_121913:920,-0.445862,-0.007599,-0.22164899999999998,-0.001375,0.00172,-0.000176,-32.560001,-22.870001000000002,-13.75,2c
2019-07-15_121913:940,-0.446899,-0.006072999999999999,-0.22216799999999998,-0.0015890000000000001,0.001964,-0.00045099999999999996,-32.560001,-22.870001000000002,-13.75,2c
2019-07-15_121913:960,-0.44384799999999996,-0.005065999999999999,-0.22164899999999998,-0.001314,0.002055,-0.00045099999999999996,-31.75,-23.559998999999998,-14.5,2c
2019-07-15_121913:980,-0.44281000000000004,-0.005065999999999999,-0.22116100000000002,-0.0015279999999999998,0.001994,-0.000786,-31.75,-23.559998999999998,-14.5,2c
2019-07-15_121914:000,-0.444855,-0.004547,-0.22216799999999998,-0.001314,0.0017809999999999998,-0.000786,-31.75,-23.559998999999998,-14.5,2c
2019-07-15_121914:020,-0.447388,-0.0055850000000000006,-0.220123,-0.001314,0.001842,-0.000573,-31.75,-23.25,-13.0,2c
2019-07-15_121914:040,-0.447906,-0.004059,-0.21859699999999999,-0.001253,0.001994,-0.000634,-31.75,-23.25,-13.0,2c
2019-07-15_121914:060,-0.448425,-0.004059,-0.219635,-0.001467,0.002361,-0.000664,-31.370001000000002,-22.870001000000002,-13.37,2c
2019-07-15_121914:080,-0.448425,-0.0030210000000000002,-0.220123,-0.0017109999999999998,0.002055,-0.0009689999999999999,-31.370001000000002,-22.870001000000002,-13.37,2c
2019-07-15_121914:100,-0.447388,-0.0035399999999999997,-0.21859699999999999,-0.001864,0.002177,-0.000908,-31.370001000000002,-22.870001000000002,-13.37,2c
2019-07-15_121914:120,-0.446899,-0.004547,-0.219635,-0.001986,0.002055,-0.000725,-31.5,-23.25,-13.37,2c
2019-07-15_121914:140,-0.443329,-0.0035399999999999997,-0.21859699999999999,-0.002169,0.001994,-0.00023700000000000001,-31.5,-23.25,-13.37,2c
2019-07-15_121914:160,-0.444855,-0.005065999999999999,-0.21911599999999998,-0.001925,0.001964,-0.000328,-31.75,-22.870001000000002,-12.18,2c
2019-07-15_121914:180,-0.447906,-0.0035399999999999997,-0.21759,-0.001864,0.0017809999999999998,-0.000908,-31.75,-22.870001000000002,-12.18,2c
2019-07-15_121914:200,-0.444855,-0.0030210000000000002,-0.219635,-0.0017109999999999998,0.001964,0.000129,-31.75,-22.870001000000002,-12.18,2c
2019-07-15_121914:220,-0.44433599999999995,-0.005065999999999999,-0.22116100000000002,-0.001772,0.001842,0.000465,-31.5,-23.559998999999998,-13.0,2c
2019-07-15_121914:240,-0.444855,-0.0035399999999999997,-0.219635,-0.001864,0.00172,0.000465,-31.5,-23.559998999999998,-13.0,2c
2019-07-15_121914:260,-0.447388,-0.004059,-0.22116100000000002,-0.001864,0.001201,0.000587,-31.5,-23.25,-12.56,2c
2019-07-15_121914:280,-0.44891400000000004,-0.004547,-0.219635,-0.001925,0.001537,0.000343,-31.5,-23.25,-12.56,2c
2019-07-15_121914:300,-0.446899,-0.004059,-0.21911599999999998,-0.002169,0.0017809999999999998,0.000587,-31.5,-23.25,-12.56,2c
2019-07-15_121914:320,-0.448425,-0.004547,-0.219635,-0.002321,0.001964,0.001045,-31.059998999999998,-23.559998999999998,-13.75,2c
2019-07-15_121914:340,-0.449432,-0.005065999999999999,-0.220642,-0.002718,0.001964,0.001045,-31.059998999999998,-23.559998999999998,-13.75,2c
2019-07-15_121914:360,-0.45043900000000003,-0.004547,-0.220642,-0.003054,0.001842,0.000709,-32.18,-23.25,-12.56,2c
2019-07-15_121914:380,-0.45095799999999997,-0.004059,-0.222687,-0.003237,0.002177,0.000343,-32.18,-23.25,-12.56,2c
2019-07-15_121914:400,-0.44638100000000003,-0.004547,-0.21606399999999998,-0.0037560000000000002,0.002971,-0.000267,-32.18,-23.25,-12.56,2c
2019-07-15_121914:420,-0.444855,-0.0055850000000000006,-0.216583,-0.004213000000000001,0.002696,7.000000000000001e-06,-31.059998999999998,-23.25,-14.18,2c
2019-07-15_121914:440,-0.44638100000000003,-0.006072999999999999,-0.21759,-0.003939,0.002391,-0.00011499999999999999,-31.059998999999998,-23.25,-14.18,2c
2019-07-15_121914:460,-0.45095799999999997,-0.006072999999999999,-0.21911599999999998,-0.004,0.002635,-0.000389,-31.75,-22.5,-13.75,2c
2019-07-15_121914:480,-0.452484,-0.0055850000000000006,-0.220642,-0.004,0.002971,-0.00011499999999999999,-31.75,-22.5,-13.75,2c
2019-07-15_121914:500,-0.45196499999999995,-0.0055850000000000006,-0.220642,-0.004,0.0036420000000000003,0.00016,-31.75,-22.5,-13.75,2c
2019-07-15_121914:520,-0.44891400000000004,-0.006072999999999999,-0.21859699999999999,-0.003939,0.004161,0.00028199999999999997,-30.75,-22.5,-13.75,2c
2019-07-15_121914:540,-0.448425,-0.007111,-0.21759,-0.0037560000000000002,0.003764,0.000465,-30.75,-22.5,-13.75,2c
2019-07-15_121914:560,-0.44995100000000005,-0.008118,-0.21606399999999998,-0.0034509999999999996,0.003703,0.000465,-31.059998999999998,-23.25,-12.18,2c
2019-07-15_121914:580,-0.44995100000000005,-0.006592,-0.21554600000000002,-0.00339,0.003886,0.0007700000000000001,-31.059998999999998,-23.25,-12.18,2c
2019-07-15_121914:600,-0.446899,-0.008118,-0.21554600000000002,-0.00339,0.003886,0.000984,-31.059998999999998,-23.25,-12.18,2c
2019-07-15_121914:620,-0.447906,-0.006592,-0.21505700000000003,-0.0034509999999999996,0.003764,0.001045,-31.059998999999998,-22.870001000000002,-12.56,2c
2019-07-15_121914:640,-0.447906,-0.007111,-0.213531,-0.003664,0.0035810000000000004,0.000831,-31.059998999999998,-22.870001000000002,-12.56,2c
2019-07-15_121914:660,-0.447388,-0.007599,-0.21402,-0.003817,0.00352,0.0007700000000000001,-32.18,-23.25,-13.0,2c
2019-07-15_121914:680,-0.449432,-0.007111,-0.21402,-0.004213000000000001,0.003124,0.000709,-32.18,-23.25,-13.0,2c
2019-07-15_121914:700,-0.44891400000000004,-0.007111,-0.21505700000000003,-0.004213000000000001,0.0029100000000000003,0.0007700000000000001,-32.18,-23.25,-13.0,2c
2019-07-15_121914:720,-0.45095799999999997,-0.007111,-0.21505700000000003,-0.004732,0.002696,0.00028199999999999997,-31.75,-22.870001000000002,-13.37,2c
2019-07-15_121914:740,-0.453003,-0.0055850000000000006,-0.21402,-0.005129,0.002361,0.000221,-31.75,-22.870001000000002,-13.37,2c
2019-07-15_121914:760,-0.44433599999999995,-0.006072999999999999,-0.213013,-0.005282,0.002757,0.000465,-31.370001000000002,-23.68,-14.18,2c
2019-07-15_121914:780,-0.447906,-0.0055850000000000006,-0.213531,-0.005678,0.002391,0.0008619999999999999,-31.370001000000002,-23.68,-14.18,2c
2019-07-15_121914:800,-0.449432,-0.0055850000000000006,-0.20742800000000003,-0.005739,0.002361,0.001442,-31.370001000000002,-23.68,-14.18,2c
2019-07-15_121914:820,-0.454529,-0.0055850000000000006,-0.210968,-0.005953,0.002513,0.001991,-32.560001,-23.25,-13.37,2c
2019-07-15_121914:840,-0.449432,-0.008118,-0.213013,-0.006533,0.002696,0.001564,-32.560001,-23.25,-13.37,2c
2019-07-15_121914:860,-0.45043900000000003,-0.008118,-0.213013,-0.006258,0.002361,0.000648,-31.370001000000002,-23.25,-13.0,2c
2019-07-15_121914:880,-0.45043900000000003,-0.006592,-0.209961,-0.006258,0.0023,-0.000267,-31.370001000000002,-23.25,-13.0,2c
2019-07-15_121914:900,-0.449432,-0.006072999999999999,-0.21148699999999998,-0.006197,0.002239,7.000000000000001e-06,-31.370001000000002,-23.25,-13.0,2c
2019-07-15_121914:920,-0.45043900000000003,-0.006592,-0.212006,-0.006258,0.001994,7.000000000000001e-06,-31.370001000000002,-23.25,-13.0,2c
2019-07-15_121914:940,-0.449432,-0.005065999999999999,-0.209961,-0.006258,0.001994,-0.00045099999999999996,-31.370001000000002,-23.25,-13.0,2c
2019-07-15_121914:960,-0.448425,-0.0035399999999999997,-0.208954,-0.006319,0.001842,-0.00023700000000000001,-32.18,-22.870001000000002,-13.0,2c
2019-07-15_121914:980,-0.44638100000000003,-0.004059,-0.20843499999999998,-0.006684999999999999,0.0017809999999999998,-5.4000000000000005e-05,-32.18,-22.870001000000002,-13.0,2c
2019-07-15_121915:000,-0.44384799999999996,-0.0035399999999999997,-0.21048000000000003,-0.006684999999999999,0.001018,7.000000000000001e-06,-32.18,-22.870001000000002,-13.0,2c
2019-07-15_121915:020,-0.445862,-0.0025329999999999997,-0.213013,-0.006807,-0.000386,6.8e-05,-31.75,-22.870001000000002,-11.75,2c
2019-07-15_121915:040,-0.447906,-0.001495,-0.21554600000000002,-0.007143000000000001,-0.001393,7.000000000000001e-06,-31.75,-22.870001000000002,-11.75,2c
2019-07-15_121915:060,-0.45706199999999997,0.0,-0.21759,-0.007540000000000001,-0.00179,0.000404,-31.75,-22.870001000000002,-13.0,2c
2019-07-15_121915:080,-0.46469099999999997,0.0,-0.213013,-0.008669,-0.000722,0.001381,-31.75,-22.870001000000002,-13.0,2c
2019-07-15_121915:100,-0.46569799999999995,0.000488,-0.20742800000000003,-0.009737,0.000621,0.002388,-31.75,-22.870001000000002,-13.0,2c
2019-07-15_121915:120,-0.45907600000000004,0.0,-0.203369,-0.010134,0.002391,0.001228,-31.5,-23.559998999999998,-11.0,2c
2019-07-15_121915:140,-0.454529,-0.000488,-0.20385699999999998,-0.009859,0.002788,-0.0012439999999999999,-31.5,-23.559998999999998,-11.0,2c
2019-07-15_121915:160,-0.44232200000000005,0.001007,-0.206909,-0.009066,0.001415,-0.002526,-31.059998999999998,-23.559998999999998,-13.75,2c
2019-07-15_121915:180,-0.438751,0.001007,-0.20944200000000002,-0.008454999999999999,-0.000172,-0.0032890000000000003,-31.059998999999998,-23.559998999999998,-13.75,2c
2019-07-15_121915:200,-0.441803,0.002014,-0.21249400000000002,-0.007876000000000001,-0.001698,-0.002098,-31.059998999999998,-23.559998999999998,-13.75,2c
2019-07-15_121915:220,-0.443329,0.001007,-0.21606399999999998,-0.007601,-0.002583,0.000465,-31.75,-23.25,-12.18,2c
2019-07-15_121915:240,-0.448425,-0.001007,-0.21759,-0.007387,-0.00237,0.002571,-31.75,-23.25,-12.18,2c
2019-07-15_121915:260,-0.44995100000000005,-0.001007,-0.21759,-0.007081999999999999,-0.001118,0.00309,-31.75,-24.0,-13.0,2c
2019-07-15_121915:280,-0.446899,-0.002014,-0.21911599999999998,-0.006411,-0.00011100000000000001,0.002571,-31.75,-24.0,-13.0,2c
2019-07-15_121915:300,-0.443329,-0.001007,-0.21911599999999998,-0.005861,-0.00011100000000000001,0.0018989999999999999,-31.75,-24.0,-13.0,2c
2019-07-15_121915:320,-0.44232200000000005,-0.001495,-0.21810900000000003,-0.005861,-0.00011100000000000001,0.001838,-31.059998999999998,-22.870001000000002,-13.37,2c
2019-07-15_121915:340,-0.443329,-0.002014,-0.21606399999999998,-0.005343,-0.001118,0.001991,-31.059998999999998,-22.870001000000002,-13.37,2c
2019-07-15_121915:360,-0.44232200000000005,-0.0030210000000000002,-0.21810900000000003,-0.005221,-0.001302,0.0022960000000000003,-31.370001000000002,-23.68,-11.75,2c
2019-07-15_121915:380,-0.444855,-0.0035399999999999997,-0.21759,-0.004671,-0.002431,0.001503,-31.370001000000002,-23.68,-11.75,2c
2019-07-15_121915:400,-0.444855,-0.0030210000000000002,-0.21911599999999998,-0.004213000000000001,-0.003041,0.000923,-31.370001000000002,-23.68,-11.75,2c
2019-07-15_121915:420,-0.446899,-0.0025329999999999997,-0.220642,-0.004152,-0.0033770000000000002,0.0007700000000000001,-32.560001,-23.25,-13.37,2c
2019-07-15_121915:440,-0.45196499999999995,-0.004059,-0.21911599999999998,-0.003664,-0.002705,0.001045,-32.560001,-23.25,-13.37,2c
2019-07-15_121915:460,-0.455017,-0.004059,-0.220642,-0.003664,-0.002187,0.0007700000000000001,-31.75,-22.870001000000002,-13.37,2c
2019-07-15_121915:480,-0.452484,-0.0035399999999999997,-0.219635,-0.002657,-0.000386,0.00028199999999999997,-31.75,-22.870001000000002,-13.37,2c
2019-07-15_121915:500,-0.449432,-0.001495,-0.220642,-0.002443,0.00022400000000000002,0.000129,-31.75,-22.870001000000002,-13.37,2c
2019-07-15_121915:520,-0.44995100000000005,-0.001007,-0.21911599999999998,-0.002321,0.000621,0.000343,-32.18,-22.870001000000002,-12.56,2c
2019-07-15_121915:540,-0.452484,-0.000488,-0.21606399999999998,-0.002169,0.001292,0.000526,-32.18,-22.870001000000002,-12.56,2c
2019-07-15_121915:560,-0.44995100000000005,0.0,-0.21402,-0.001864,0.0017809999999999998,0.000404,-31.5,-23.25,-13.0,2c
2019-07-15_121915:580,-0.44891400000000004,0.0030210000000000002,-0.216583,-0.001467,0.00172,-0.000389,-31.5,-23.25,-13.0,2c
2019-07-15_121915:600,-0.44638100000000003,0.0055850000000000006,-0.216583,-0.0021079999999999996,0.001201,-0.000328,-31.5,-23.25,-13.0,2c
2019-07-15_121915:620,-0.445374,0.007599,-0.217072,-0.002993,0.001018,-0.000267,-31.5,-23.559998999999998,-11.37,2c
2019-07-15_121915:640,-0.447906,0.007111,-0.21606399999999998,-0.004213000000000001,0.001018,-0.00011499999999999999,-31.5,-23.559998999999998,-11.37,2c
2019-07-15_121915:660,-0.44638100000000003,0.007111,-0.217072,-0.00461,0.001292,-5.4000000000000005e-05,-31.5,-23.559998999999998,-11.37,2c
2019-07-15_121915:680,-0.44281000000000004,0.007111,-0.21911599999999998,-0.005404,0.001353,0.000221,-30.75,-22.870001000000002,-12.56,2c
2019-07-15_121915:700,-0.44232200000000005,0.005065999999999999,-0.217072,-0.005556,0.000865,0.000465,-30.75,-22.870001000000002,-12.56,2c
2019-07-15_121915:720,-0.441803,0.0035399999999999997,-0.21859699999999999,-0.005404,0.000499,0.0008619999999999999,-32.18,-23.559998999999998,-13.75,2c
2019-07-15_121915:740,-0.444855,0.001007,-0.216583,-0.005221,-0.000233,0.002845,-32.18,-23.559998999999998,-13.75,2c
2019-07-15_121915:760,-0.448425,0.0,-0.22164899999999998,-0.005129,-0.000325,0.003181,-32.560001,-23.559998999999998,-13.0,2c
2019-07-15_121915:780,-0.44638100000000003,0.0,-0.22116100000000002,-0.005343,-0.000722,0.003303,-32.560001,-23.559998999999998,-13.0,2c
2019-07-15_121915:800,-0.447906,-0.000488,-0.22116100000000002,-0.005343,-0.0008439999999999999,0.003578,-32.560001,-23.559998999999998,-13.0,2c
2019-07-15_121915:820,-0.44638100000000003,-0.0025329999999999997,-0.22216799999999998,-0.005526,-0.0008439999999999999,0.003425,-32.18,-23.68,-13.0,2c
2019-07-15_121915:840,-0.447388,-0.0035399999999999997,-0.220123,-0.005678,-0.0005690000000000001,0.00196,-32.18,-23.68,-13.0,2c
2019-07-15_121915:860,-0.44433599999999995,-0.004059,-0.22116100000000002,-0.0058,-0.000386,0.002113,-32.18,-23.68,-13.0,2c
2019-07-15_121915:880,-0.445862,-0.004547,-0.22164899999999998,-0.005739,1.1e-05,0.0021739999999999997,-32.18,-23.68,-12.56,2c
2019-07-15_121915:900,-0.43823199999999995,-0.0025329999999999997,-0.224701,-0.005526,-0.000661,0.001838,-32.18,-23.68,-12.56,2c
2019-07-15_121915:920,-0.43927,-0.004547,-0.227753,-0.005282,-0.001118,0.001167,-31.370001000000002,-23.25,-13.0,2c
2019-07-15_121915:940,-0.44433599999999995,-0.0030210000000000002,-0.226746,-0.005068,-0.001973,-0.000328,-31.370001000000002,-23.25,-13.0,2c
2019-07-15_121915:960,-0.444855,-0.000488,-0.226746,-0.0048850000000000005,-0.001973,-0.000267,-31.370001000000002,-23.25,-13.0,2c
2019-07-15_121915:980,-0.44433599999999995,-0.000488,-0.22879000000000002,-0.005282,-0.001118,-0.00045099999999999996,-31.059998999999998,-23.25,-13.75,2c
2019-07-15_121916:000,-0.44281000000000004,-0.000488,-0.228271,-0.005343,-0.001057,-0.00045099999999999996,-31.059998999999998,-23.25,-13.75,2c
2019-07-15_121916:020,-0.44232200000000005,-0.0030210000000000002,-0.22927899999999998,-0.005526,-0.0007830000000000001,0.00028199999999999997,-32.18,-23.25,-12.56,2c
2019-07-15_121916:040,-0.443329,-0.004547,-0.226746,-0.005861,-0.000508,0.0008619999999999999,-32.18,-23.25,-12.56,2c
2019-07-15_121916:060,-0.439758,-0.006072999999999999,-0.227753,-0.0058,-0.000233,0.001655,-32.18,-23.25,-12.56,2c
2019-07-15_121916:080,-0.44027700000000003,-0.007111,-0.228271,-0.005556,-0.000325,0.001838,-31.5,-23.25,-13.37,2c
2019-07-15_121916:100,-0.441803,-0.007111,-0.23028600000000002,-0.005556,-0.000264,0.000343,-31.5,-23.25,-13.37,2c
2019-07-15_121916:120,-0.44027700000000003,-0.007599,-0.230804,-0.005556,-0.000508,-0.000176,-32.18,-23.559998999999998,-13.0,2c
2019-07-15_121916:140,-0.44281000000000004,-0.006072999999999999,-0.230804,-0.0051600000000000005,-0.000722,-0.001183,-32.18,-23.559998999999998,-13.0,2c
2019-07-15_121916:160,-0.44384799999999996,-0.0055850000000000006,-0.231323,-0.005129,-0.0005690000000000001,-0.001366,-32.18,-23.559998999999998,-13.0,2c
2019-07-15_121916:180,-0.444855,-0.004547,-0.230804,-0.004427,-0.000233,-0.0019149999999999998,-31.059998999999998,-23.25,-13.0,2c
2019-07-15_121916:200,-0.44027700000000003,-0.0035399999999999997,-0.22979699999999997,-0.003939,-5e-05,-0.0017629999999999998,-31.059998999999998,-23.25,-13.0,2c
2019-07-15_121916:220,-0.44232200000000005,-0.004059,-0.231323,-0.0025050000000000003,0.00022400000000000002,-0.001397,-31.059998999999998,-23.25,-13.75,2c
2019-07-15_121916:240,-0.44281000000000004,-0.001495,-0.22927899999999998,-0.001925,0.000468,-0.002098,-31.059998999999998,-23.25,-13.75,2c
2019-07-15_121916:260,-0.44232200000000005,0.001495,-0.23028600000000002,-0.000918,7.2e-05,-0.0010609999999999999,-31.059998999999998,-24.25,-13.75,2c
2019-07-15_121916:280,-0.44281000000000004,0.0030210000000000002,-0.23233,-0.000918,0.00016299999999999998,-0.000725,-31.059998999999998,-24.25,-13.75,2c
2019-07-15_121916:300,-0.44232200000000005,0.005065999999999999,-0.233337,-0.0015890000000000001,0.00022400000000000002,0.000465,-31.059998999999998,-24.25,-13.75,2c
2019-07-15_121916:320,-0.44384799999999996,0.006072999999999999,-0.23233,-0.001772,0.000285,0.000587,-31.059998999999998,-23.559998999999998,-13.0,2c
2019-07-15_121916:340,-0.44232200000000005,0.006592,-0.23233,-0.0028399999999999996,0.0008960000000000001,0.000648,-31.059998999999998,-23.559998999999998,-13.0,2c
2019-07-15_121916:360,-0.441803,0.006072999999999999,-0.230804,-0.002932,0.00114,0.000831,-30.75,-24.0,-13.75,2c
2019-07-15_121916:380,-0.43927,0.004059,-0.23028600000000002,-0.0037560000000000002,0.001598,0.001564,-30.75,-24.0,-13.75,2c
2019-07-15_121916:400,-0.438751,0.0030210000000000002,-0.230804,-0.003878,0.001353,0.001777,-30.75,-24.0,-13.75,2c
2019-07-15_121916:420,-0.43823199999999995,0.000488,-0.231323,-0.00403,0.001018,0.002113,-30.75,-24.0,-14.18,2c
2019-07-15_121916:440,-0.438751,0.000488,-0.230804,-0.003939,0.0009570000000000001,0.002357,-30.75,-24.0,-14.18,2c
2019-07-15_121916:460,-0.44232200000000005,0.0,-0.23233,-0.003939,0.0008039999999999999,0.002845,-30.75,-24.0,-14.18,2c
2019-07-15_121916:480,-0.43927,-0.000488,-0.231323,-0.0036950000000000004,0.0008039999999999999,0.0030280000000000003,-30.0,-23.25,-13.37,2c
2019-07-15_121916:500,-0.43823199999999995,-0.001007,-0.234375,-0.00339,0.000682,0.003242,-30.0,-23.25,-13.37,2c
2019-07-15_121916:520,-0.44027700000000003,-0.001007,-0.235382,-0.003054,0.00056,0.003242,-31.75,-23.559998999999998,-13.75,2c
2019-07-15_121916:540,-0.438751,-0.001495,-0.233337,-0.0025050000000000003,0.000468,0.0033640000000000002,-31.75,-23.559998999999998,-13.75,2c
2019-07-15_121916:560,-0.439758,-0.001495,-0.235382,-0.001772,0.000682,0.003578,-31.75,-23.559998999999998,-13.75,2c
2019-07-15_121916:580,-0.441803,-0.001495,-0.23590100000000003,-0.001772,0.000743,0.003761,-32.18,-23.25,-13.75,2c
2019-07-15_121916:600,-0.441803,-0.0025329999999999997,-0.234375,-0.0015890000000000001,0.0008039999999999999,0.004615,-32.18,-23.25,-13.75,2c
2019-07-15_121916:620,-0.44433599999999995,-0.004547,-0.23233,-0.0017109999999999998,0.001415,0.004707,-31.370001000000002,-22.870001000000002,-13.0,2c
2019-07-15_121916:640,-0.443329,-0.006072999999999999,-0.22979699999999997,-0.001772,0.001994,0.004493,-31.370001000000002,-22.870001000000002,-13.0,2c
2019-07-15_121916:660,-0.44232200000000005,-0.007599,-0.230804,-0.0018030000000000001,0.0023,0.004371,-31.370001000000002,-22.870001000000002,-13.0,2c
2019-07-15_121916:680,-0.44384799999999996,-0.008118,-0.22979699999999997,-0.0018030000000000001,0.002574,0.0038829999999999997,-31.059998999999998,-23.68,-13.0,2c
2019-07-15_121916:700,-0.441803,-0.009125,-0.228271,-0.002199,0.002788,0.003181,-31.059998999999998,-23.68,-13.0,2c
2019-07-15_121916:720,-0.439758,-0.009644,-0.227264,-0.0025960000000000002,0.002574,0.00309,-31.059998999999998,-22.870001000000002,-14.5,2c
2019-07-15_121916:740,-0.43823199999999995,-0.010651,-0.227264,-0.003176,0.002635,0.002845,-31.059998999999998,-22.870001000000002,-14.5,2c
2019-07-15_121916:760,-0.437225,-0.010651,-0.22927899999999998,-0.003512,0.002116,0.002449,-31.059998999999998,-22.870001000000002,-14.5,2c
2019-07-15_121916:780,-0.43823199999999995,-0.012695,-0.231812,-0.0037560000000000002,0.001598,0.002235,-31.75,-22.5,-13.37,2c
2019-07-15_121916:800,-0.439758,-0.011169,-0.233337,-0.004213000000000001,0.001353,0.0018989999999999999,-31.75,-22.5,-13.37,2c
2019-07-15_121916:820,-0.439758,-0.013213999999999998,-0.233856,-0.00461,0.0014759999999999999,0.001777,-31.5,-22.5,-13.75,2c
2019-07-15_121916:840,-0.44232200000000005,-0.012695,-0.23233,-0.004824,0.00172,0.001655,-31.5,-22.5,-13.75,2c
2019-07-15_121916:860,-0.441284,-0.014221000000000001,-0.231323,-0.004946,0.001842,0.0021739999999999997,-31.5,-22.5,-13.75,2c
2019-07-15_121916:880,-0.44027700000000003,-0.014740000000000001,-0.230804,-0.005129,0.002361,0.0021739999999999997,-31.5,-22.870001000000002,-13.37,2c
2019-07-15_121916:900,-0.44027700000000003,-0.013213999999999998,-0.23028600000000002,-0.005007,0.002513,0.002052,-31.5,-22.870001000000002,-13.37,2c
2019-07-15_121916:920,-0.441803,-0.014221000000000001,-0.231323,-0.005221,0.0024519999999999998,0.000984,-32.18,-22.870001000000002,-14.5,2c
2019-07-15_121916:940,-0.43927,-0.013702,-0.22879000000000002,-0.005282,0.002361,-0.000176,-32.18,-22.870001000000002,-14.5,2c
2019-07-15_121916:960,-0.439758,-0.014221000000000001,-0.228271,-0.005129,0.002177,-0.00011499999999999999,-32.18,-22.870001000000002,-14.5,2c
2019-07-15_121916:980,-0.440796,-0.014221000000000001,-0.22879000000000002,-0.004793,0.002177,-0.000725,-31.5,-22.5,-13.37,2c
2019-07-15_121917:000,-0.438751,-0.012695,-0.226746,-0.00461,0.002116,-0.0012439999999999999,-31.5,-22.5,-13.37,2c
2019-07-15_121917:020,-0.43774399999999997,-0.011687999999999999,-0.227753,-0.004152,0.002116,-0.001458,-30.75,-22.5,-12.56,2c
2019-07-15_121917:040,-0.43621800000000005,-0.010651,-0.22879000000000002,-0.003939,0.001415,-0.001458,-30.75,-22.5,-12.56,2c
2019-07-15_121917:060,-0.43823199999999995,-0.010651,-0.231323,-0.003817,0.0008960000000000001,-0.0013050000000000002,-30.75,-22.5,-12.56,2c
2019-07-15_121917:080,-0.44232200000000005,-0.008636,-0.231812,-0.003664,0.000468,-0.0011220000000000002,-31.370001000000002,-23.25,-14.87,2c
2019-07-15_121917:100,-0.44433599999999995,-0.007599,-0.23233,-0.003512,0.0008039999999999999,-0.000573,-31.370001000000002,-23.25,-14.87,2c
2019-07-15_121917:120,-0.44281000000000004,-0.007111,-0.234375,-0.003664,0.000682,-0.00023700000000000001,-32.18,-23.25,-12.56,2c
2019-07-15_121917:140,-0.44027700000000003,-0.006592,-0.23486300000000002,-0.0036950000000000004,0.00022400000000000002,0.00016,-32.18,-23.25,-12.56,2c
2019-07-15_121917:160,-0.439758,-0.006592,-0.23486300000000002,-0.003817,7.2e-05,0.00028199999999999997,-32.18,-23.25,-12.56,2c
2019-07-15_121917:180,-0.44281000000000004,-0.008118,-0.235382,-0.003939,0.000499,0.000465,-30.75,-22.870001000000002,-14.18,2c
2019-07-15_121917:200,-0.44281000000000004,-0.006592,-0.23486300000000002,-0.004152,0.0012619999999999999,0.000923,-30.75,-22.870001000000002,-14.18,2c
2019-07-15_121917:220,-0.441803,-0.007599,-0.23486300000000002,-0.004336,0.001994,0.000831,-31.5,-22.870001000000002,-14.18,2c
2019-07-15_121917:240,-0.441284,-0.007111,-0.23284899999999997,-0.005007,0.002788,6.8e-05,-31.5,-22.870001000000002,-14.18,2c
2019-07-15_121917:260,-0.439758,-0.008636,-0.233856,-0.005556,0.003246,0.000831,-31.5,-22.870001000000002,-14.18,2c
2019-07-15_121917:280,-0.43774399999999997,-0.012177,-0.233337,-0.006197,0.002971,0.000648,-32.18,-22.870001000000002,-13.75,2c
2019-07-15_121917:300,-0.43823199999999995,-0.013213999999999998,-0.23233,-0.006014,0.002513,-0.000267,-32.18,-22.870001000000002,-13.75,2c
2019-07-15_121917:320,-0.43823199999999995,-0.013702,-0.23233,-0.005556,0.002055,-0.000664,-31.370001000000002,-22.870001000000002,-14.18,2c
2019-07-15_121917:340,-0.441803,-0.012177,-0.231812,-0.004732,0.00172,-0.0017629999999999998,-31.370001000000002,-22.870001000000002,-14.18,2c
2019-07-15_121917:360,-0.44281000000000004,-0.009125,-0.23284899999999997,-0.004213000000000001,0.002055,-0.00216,-31.370001000000002,-22.870001000000002,-14.18,2c
2019-07-15_121917:380,-0.44433599999999995,-0.008636,-0.231323,-0.003512,0.002513,-0.002373,-31.75,-22.870001000000002,-13.75,2c
2019-07-15_121917:400,-0.44384799999999996,-0.0055850000000000006,-0.23028600000000002,-0.00339,0.003093,-0.00216,-31.75,-22.870001000000002,-13.75,2c
2019-07-15_121917:420,-0.44433599999999995,-0.0035399999999999997,-0.231812,-0.0034509999999999996,0.003703,-0.0017929999999999999,-31.75,-22.5,-14.18,2c
2019-07-15_121917:440,-0.44433599999999995,-0.001495,-0.228271,-0.003939,0.004161,-0.002373,-31.75,-22.5,-14.18,2c
2019-07-15_121917:460,-0.446899,0.0,-0.22879000000000002,-0.004732,0.003917,-0.002373,-31.75,-22.5,-14.18,2c
2019-07-15_121917:480,-0.448425,-0.001007,-0.227753,-0.005739,0.004375,-0.0021899999999999997,-31.370001000000002,-22.870001000000002,-13.0,2c
2019-07-15_121917:500,-0.444855,-0.0035399999999999997,-0.22521999999999998,-0.006533,0.005016,-0.002495,-31.370001000000002,-22.870001000000002,-13.0,2c
2019-07-15_121917:520,-0.439758,-0.0035399999999999997,-0.224701,-0.0069299999999999995,0.005016,-0.002526,-31.75,-22.870001000000002,-13.37,2c
2019-07-15_121917:540,-0.437225,-0.0035399999999999997,-0.222687,-0.007081999999999999,0.0045579999999999996,-0.002495,-31.75,-22.870001000000002,-13.37,2c
2019-07-15_121917:560,-0.43621800000000005,-0.004547,-0.223175,-0.006594,0.003764,-0.002648,-31.75,-22.870001000000002,-13.37,2c
2019-07-15_121917:580,-0.43670699999999996,-0.0030210000000000002,-0.22216799999999998,-0.006014,0.002757,-0.002373,-31.370001000000002,-22.5,-13.0,2c
2019-07-15_121917:600,-0.435699,-0.0030210000000000002,-0.220642,-0.005221,0.0016589999999999999,-0.0017629999999999998,-31.370001000000002,-22.5,-13.0,2c
2019-07-15_121917:620,-0.437225,-0.000488,-0.222687,-0.004549,0.00056,-0.0010609999999999999,-30.75,-23.559998999999998,-13.0,2c
2019-07-15_121917:640,-0.439758,0.001007,-0.224701,-0.004091,-0.000325,-0.000573,-30.75,-23.559998999999998,-13.0,2c
2019-07-15_121917:660,-0.44232200000000005,0.002014,-0.226227,-0.004275,-0.000661,-0.000389,-30.75,-23.559998999999998,-13.0,2c
2019-07-15_121917:680,-0.444855,0.004059,-0.22879000000000002,-0.004793,-0.000661,0.000129,-31.370001000000002,-22.870001000000002,-13.0,2c
2019-07-15_121917:700,-0.445862,0.002014,-0.22927899999999998,-0.005343,-0.0005690000000000001,0.000923,-31.370001000000002,-22.870001000000002,-13.0,2c
2019-07-15_121917:720,-0.44891400000000004,0.000488,-0.228271,-0.005861,7.2e-05,0.001258,-31.75,-22.870001000000002,-13.0,2c
2019-07-15_121917:740,-0.44638100000000003,-0.001495,-0.227264,-0.005922,0.0008960000000000001,0.001442,-31.75,-22.870001000000002,-13.0,2c
2019-07-15_121917:760,-0.44433599999999995,-0.0025329999999999997,-0.227753,-0.005465,0.001415,0.001167,-31.75,-22.870001000000002,-13.0,2c
2019-07-15_121917:780,-0.443329,-0.004059,-0.225739,-0.004824,0.001537,0.000709,-31.5,-23.25,-13.0,2c
2019-07-15_121917:800,-0.443329,-0.0035399999999999997,-0.225739,-0.004213000000000001,0.001292,0.000496,-31.5,-23.25,-13.0,2c
2019-07-15_121917:820,-0.443329,-0.001007,-0.22421300000000002,-0.0036340000000000005,0.001628,0.000496,-31.5,-23.25,-13.0,2c
2019-07-15_121917:840,-0.443329,-0.001007,-0.22521999999999998,-0.003054,0.001292,0.000496,-31.5,-23.25,-13.0,2c
2019-07-15_121917:860,-0.443329,0.000488,-0.226227,-0.0028399999999999996,0.001292,0.00028199999999999997,-31.5,-23.25,-13.0,2c
2019-07-15_121917:880,-0.44281000000000004,0.0,-0.226746,-0.0025050000000000003,0.0012619999999999999,0.000343,-31.75,-24.0,-13.0,2c
2019-07-15_121917:900,-0.44433599999999995,0.002014,-0.226227,-0.0022600000000000003,0.0010789999999999999,0.000221,-31.75,-24.0,-13.0,2c
2019-07-15_121917:920,-0.445862,0.0025329999999999997,-0.228271,-0.002199,0.001415,0.000984,-30.75,-23.25,-12.56,2c
2019-07-15_121917:940,-0.44384799999999996,0.0035399999999999997,-0.227753,-0.0025050000000000003,0.001201,0.0018989999999999999,-30.75,-23.25,-12.56,2c
2019-07-15_121917:960,-0.443329,0.002014,-0.226227,-0.003054,0.001598,0.002052,-30.75,-23.25,-12.56,2c
2019-07-15_121917:980,-0.441284,0.0035399999999999997,-0.223694,-0.0036950000000000004,0.0019030000000000002,0.002449,-30.75,-23.25,-11.75,2c
2019-07-15_121918:000,-0.44433599999999995,0.001007,-0.223694,-0.004488000000000001,0.0016589999999999999,0.002967,-30.75,-23.25,-11.75,2c
2019-07-15_121918:020,-0.441803,0.000488,-0.224701,-0.005526,0.001598,0.0029059999999999997,-31.059998999999998,-23.559998999999998,-13.37,2c
2019-07-15_121918:040,-0.441284,-0.0030210000000000002,-0.226227,-0.006014,0.001201,0.00251,-31.059998999999998,-23.559998999999998,-13.37,2c
2019-07-15_121918:060,-0.44232200000000005,-0.001007,-0.225739,-0.0064719999999999995,0.000407,0.0008619999999999999,-31.059998999999998,-23.559998999999998,-13.37,2c
2019-07-15_121918:080,-0.443329,-0.0035399999999999997,-0.227264,-0.006869,0.000468,0.001045,-31.5,-22.870001000000002,-14.18,2c
2019-07-15_121918:100,-0.44232200000000005,-0.004059,-0.226746,-0.006594,0.000621,0.001045,-31.5,-22.870001000000002,-14.18,2c
2019-07-15_121918:120,-0.44232200000000005,-0.0035399999999999997,-0.228271,-0.006197,0.000743,0.000709,-32.18,-22.870001000000002,-12.56,2c
2019-07-15_121918:140,-0.44384799999999996,-0.0030210000000000002,-0.227264,-0.005678,0.000865,0.000831,-32.18,-22.870001000000002,-12.56,2c
2019-07-15_121918:160,-0.443329,-0.001007,-0.22927899999999998,-0.005282,0.001353,0.0007700000000000001,-32.18,-22.870001000000002,-12.56,2c
2019-07-15_121918:180,-0.443329,0.0,-0.230804,-0.0051600000000000005,0.001598,0.001106,-31.75,-24.0,-12.18,2c
2019-07-15_121918:200,-0.445862,0.000488,-0.23028600000000002,-0.005404,0.0016589999999999999,0.0008619999999999999,-31.75,-24.0,-12.18,2c
2019-07-15_121918:220,-0.44638100000000003,0.002014,-0.231812,-0.005556,0.0023,0.000648,-31.5,-22.870001000000002,-13.75,2c
2019-07-15_121918:240,-0.447906,0.002014,-0.230804,-0.005922,0.002849,0.000923,-31.5,-22.870001000000002,-13.75,2c
2019-07-15_121918:260,-0.445862,0.0035399999999999997,-0.23233,-0.006136,0.00352,0.001258,-31.5,-22.870001000000002,-13.75,2c
2019-07-15_121918:280,-0.445374,0.0025329999999999997,-0.23028600000000002,-0.006411,0.003703,0.0022960000000000003,-32.18,-23.559998999999998,-11.75,2c
2019-07-15_121918:300,-0.445862,0.001007,-0.226746,-0.007051999999999999,0.003825,0.003242,-32.18,-23.559998999999998,-11.75,2c
2019-07-15_121918:320,-0.44281000000000004,0.0025329999999999997,-0.227264,-0.007081999999999999,0.004436,0.003975,-31.75,-23.25,-13.0,2c
2019-07-15_121918:340,-0.44433599999999995,0.000488,-0.227264,-0.007662,0.004497,0.0051649999999999995,-31.75,-23.25,-13.0,2c
2019-07-15_121918:360,-0.438751,0.0,-0.22879000000000002,-0.008454999999999999,0.0042829999999999995,0.004493,-31.75,-23.25,-13.0,2c
2019-07-15_121918:380,-0.43823199999999995,0.0,-0.227753,-0.008578,0.004039,0.004158,-32.18,-23.25,-12.18,2c
2019-07-15_121918:400,-0.43823199999999995,-0.0030210000000000002,-0.226746,-0.00873,0.002971,0.004432,-32.18,-23.25,-12.18,2c
2019-07-15_121918:420,-0.441803,-0.005065999999999999,-0.223694,-0.008578,0.0023,0.003639,-31.370001000000002,-23.68,-12.18,2c
2019-07-15_121918:440,-0.441803,-0.0055850000000000006,-0.22164899999999998,-0.008181,0.001842,0.003486,-31.370001000000002,-23.68,-12.18,2c
2019-07-15_121918:460,-0.439758,-0.008118,-0.22164899999999998,-0.007601,0.0016589999999999999,0.002784,-31.370001000000002,-23.68,-12.18,2c
2019-07-15_121918:480,-0.438751,-0.009125,-0.222687,-0.006869,0.0010789999999999999,0.001258,-32.18,-22.5,-12.18,2c
2019-07-15_121918:500,-0.44232200000000005,-0.007599,-0.22116100000000002,-0.005922,-5e-05,0.00016,-32.18,-22.5,-12.18,2c
2019-07-15_121918:520,-0.44891400000000004,-0.007599,-0.22216799999999998,-0.005068,-5e-05,-0.0009689999999999999,-32.560001,-22.870001000000002,-11.75,2c
2019-07-15_121918:540,-0.451477,-0.005065999999999999,-0.22164899999999998,-0.004213000000000001,0.000468,-0.0019760000000000003,-32.560001,-22.870001000000002,-11.75,2c
2019-07-15_121918:560,-0.44891400000000004,-0.0030210000000000002,-0.223175,-0.0036340000000000005,0.001415,-0.002373,-32.560001,-22.870001000000002,-11.75,2c
2019-07-15_121918:580,-0.445862,-0.001495,-0.223175,-0.0036340000000000005,0.001842,-0.002373,-31.75,-22.870001000000002,-11.75,2c
2019-07-15_121918:600,-0.443329,-0.001495,-0.22421300000000002,-0.0036950000000000004,0.00172,-0.0017629999999999998,-31.75,-22.870001000000002,-11.75,2c
2019-07-15_121918:620,-0.443329,-0.001495,-0.228271,-0.004,0.001598,-0.001183,-31.75,-22.5,-11.75,2c
2019-07-15_121918:640,-0.445374,-0.001495,-0.22521999999999998,-0.00403,0.001415,-0.000634,-31.75,-22.5,-11.75,2c
2019-07-15_121918:660,-0.44638100000000003,-0.001007,-0.226227,-0.0037560000000000002,0.001598,-0.00023700000000000001,-31.75,-22.5,-11.75,2c
2019-07-15_121918:680,-0.44638100000000003,-0.002014,-0.225739,-0.00339,0.002055,7.000000000000001e-06,-31.5,-23.25,-13.0,2c
2019-07-15_121918:700,-0.445862,-0.001007,-0.223694,-0.003176,0.002757,0.000404,-31.5,-23.25,-13.0,2c
2019-07-15_121918:720,-0.444855,-0.0025329999999999997,-0.223694,-0.002993,0.002971,0.000831,-32.18,-22.870001000000002,-12.18,2c
2019-07-15_121918:740,-0.44384799999999996,-0.002014,-0.223175,-0.002718,0.003246,0.000831,-32.18,-22.870001000000002,-12.18,2c
2019-07-15_121918:760,-0.445862,-0.004547,-0.223694,-0.0025960000000000002,0.0031850000000000003,0.0007700000000000001,-32.18,-22.870001000000002,-12.18,2c
2019-07-15_121918:780,-0.447906,-0.004059,-0.222687,-0.002169,0.003307,0.000343,-31.5,-22.5,-12.18,2c
2019-07-15_121918:800,-0.446899,-0.0025329999999999997,-0.223694,-0.0018030000000000001,0.0035810000000000004,-0.00045099999999999996,-31.5,-22.5,-12.18,2c
2019-07-15_121918:820,-0.44638100000000003,-0.000488,-0.22216799999999998,-0.001375,0.003825,-0.000512,-31.059998999999998,-22.870001000000002,-11.75,2c
2019-07-15_121918:840,-0.447388,0.000488,-0.22164899999999998,-0.0017109999999999998,0.003703,-0.00045099999999999996,-31.059998999999998,-22.870001000000002,-11.75,2c
2019-07-15_121918:860,-0.446899,0.000488,-0.22216799999999998,-0.0022600000000000003,0.003886,-0.0009689999999999999,-31.059998999999998,-22.870001000000002,-11.75,2c
2019-07-15_121918:880,-0.44433599999999995,0.0025329999999999997,-0.222687,-0.002932,0.0041,-0.0009689999999999999,-32.18,-22.870001000000002,-10.68,2c
2019-07-15_121918:900,-0.44433599999999995,0.0025329999999999997,-0.22164899999999998,-0.003512,0.003368,-0.000389,-32.18,-22.870001000000002,-10.68,2c
2019-07-15_121918:920,-0.445374,0.001495,-0.22216799999999998,-0.004275,0.0029100000000000003,6.8e-05,-31.5,-22.870001000000002,-13.0,2c
2019-07-15_121918:940,-0.448425,0.000488,-0.21911599999999998,-0.004824,0.002849,0.000496,-31.5,-22.870001000000002,-13.0,2c
2019-07-15_121918:960,-0.447906,-0.001495,-0.222687,-0.005282,0.003124,0.001045,-31.5,-22.870001000000002,-13.0,2c
2019-07-15_121918:980,-0.446899,-0.002014,-0.22164899999999998,-0.005465,0.00352,0.001442,-32.18,-23.25,-11.75,2c
2019-07-15_121919:000,-0.44638100000000003,-0.004059,-0.219635,-0.0051600000000000005,0.00349,0.001655,-32.18,-23.25,-11.75,2c
2019-07-15_121919:020,-0.449432,-0.004547,-0.21911599999999998,-0.004427,0.0035810000000000004,0.00132,-32.560001,-22.870001000000002,-12.56,2c
2019-07-15_121919:040,-0.445862,-0.001495,-0.21606399999999998,-0.003939,0.003917,0.001777,-32.560001,-22.870001000000002,-12.56,2c
2019-07-15_121919:060,-0.447388,-0.0035399999999999997,-0.21759,-0.0036340000000000005,0.003825,0.002571,-32.560001,-22.870001000000002,-12.56,2c
2019-07-15_121919:080,-0.44433599999999995,-0.000488,-0.216583,-0.003573,0.003917,0.0021739999999999997,-31.5,-22.870001000000002,-11.37,2c
2019-07-15_121919:100,-0.447388,-0.001007,-0.21606399999999998,-0.003573,0.003368,0.0021739999999999997,-31.5,-22.870001000000002,-11.37,2c
2019-07-15_121919:120,-0.44638100000000003,0.000488,-0.216583,-0.003664,0.0029100000000000003,0.0008619999999999999,-32.869999,-22.18,-11.37,2c
2019-07-15_121919:140,-0.44638100000000003,-0.002014,-0.216583,-0.004,0.002696,0.000648,-32.869999,-22.18,-11.37,2c
2019-07-15_121919:160,-0.447388,-0.004059,-0.21911599999999998,-0.004091,0.002513,0.001381,-32.869999,-22.18,-11.37,2c
2019-07-15_121919:180,-0.448425,-0.004059,-0.217072,-0.00403,0.0023,0.000984,-32.869999,-22.18,-11.37,2c
2019-07-15_121919:200,-0.45043900000000003,-0.0030210000000000002,-0.21759,-0.00339,0.001994,0.0008619999999999999,-32.869999,-22.18,-11.37,2c
2019-07-15_121919:220,-0.45043900000000003,-0.0030210000000000002,-0.217072,-0.003237,0.0023,0.001228,-32.18,-23.25,-12.18,2c
2019-07-15_121919:240,-0.45043900000000003,-0.002014,-0.21554600000000002,-0.003054,0.002757,0.00132,-32.18,-23.25,-12.18,2c
2019-07-15_121919:260,-0.448425,-0.0030210000000000002,-0.21606399999999998,-0.002932,0.003124,0.001381,-32.18,-23.25,-12.18,2c
2019-07-15_121919:280,-0.447388,-0.0025329999999999997,-0.21554600000000002,-0.003176,0.003093,0.000648,-32.869999,-22.5,-11.37,2c
2019-07-15_121919:300,-0.449432,-0.0025329999999999997,-0.21453899999999998,-0.003573,0.002971,0.000587,-32.869999,-22.5,-11.37,2c
2019-07-15_121919:320,-0.448425,-0.007111,-0.21505700000000003,-0.003817,0.002513,0.000587,-31.75,-23.25,-11.37,2c
2019-07-15_121919:340,-0.448425,-0.009644,-0.21249400000000002,-0.003512,0.002116,0.00016,-31.75,-23.25,-11.37,2c
2019-07-15_121919:360,-0.449432,-0.008636,-0.21249400000000002,-0.002199,0.0019030000000000002,-0.000389,-31.75,-23.25,-11.37,2c
2019-07-15_121919:380,-0.45095799999999997,-0.004547,-0.21148699999999998,-0.001467,0.00172,-0.000725,-31.75,-22.18,-10.68,2c
2019-07-15_121919:400,-0.45553599999999994,-0.0055850000000000006,-0.21048000000000003,-0.001131,0.002116,-0.000908,-31.75,-22.18,-10.68,2c
2019-07-15_121919:420,-0.454529,-0.0025329999999999997,-0.21048000000000003,-0.000918,0.002849,-0.00158,-32.18,-22.5,-11.0,2c
2019-07-15_121919:440,-0.45043900000000003,0.0,-0.209961,-0.001131,0.002788,-0.000786,-32.18,-22.5,-11.0,2c
2019-07-15_121919:460,-0.44638100000000003,-0.000488,-0.212006,-0.0018030000000000001,0.002239,0.000587,-32.18,-22.5,-11.0,2c
2019-07-15_121919:480,-0.44281000000000004,-0.0025329999999999997,-0.212006,-0.002199,0.001018,0.000496,-31.5,-23.25,-12.18,2c
2019-07-15_121919:500,-0.44384799999999996,-0.0025329999999999997,-0.21453899999999998,-0.0022600000000000003,7.2e-05,0.000709,-31.5,-23.25,-12.18,2c
2019-07-15_121919:520,-0.445374,-0.002014,-0.21505700000000003,-0.002718,-0.000661,0.001228,-33.25,-22.870001000000002,-11.37,2c
2019-07-15_121919:540,-0.446899,-0.004547,-0.216583,-0.0028399999999999996,-0.001118,0.001777,-33.25,-22.870001000000002,-11.37,2c
2019-07-15_121919:560,-0.446899,-0.006592,-0.21810900000000003,-0.002382,-0.00124,0.002571,-33.25,-22.870001000000002,-11.37,2c
2019-07-15_121919:580,-0.452484,-0.007111,-0.219635,-0.00165,-0.00124,0.003486,-32.869999,-22.870001000000002,-10.68,2c
2019-07-15_121919:600,-0.453003,-0.006592,-0.21859699999999999,-0.000857,-0.00063,0.005745,-32.869999,-22.870001000000002,-10.68,2c
2019-07-15_121919:620,-0.458588,-0.006592,-0.21606399999999998,5.9e-05,0.000621,0.008948999999999999,-31.059998999999998,-22.5,-12.18,2c
2019-07-15_121919:640,-0.45806899999999995,-0.007111,-0.21148699999999998,0.000547,0.001964,0.010597,-31.059998999999998,-22.5,-12.18,2c
2019-07-15_121919:660,-0.45605500000000004,-0.006592,-0.210968,0.000608,0.0029100000000000003,0.011482,-31.059998999999998,-22.5,-12.18,2c
2019-07-15_121919:680,-0.455017,-0.007111,-0.21249400000000002,0.00045599999999999997,0.00352,0.012001000000000001,-32.560001,-22.18,-11.0,2c
2019-07-15_121919:700,-0.45095799999999997,-0.008636,-0.212006,-0.000582,0.003764,0.011268,-32.560001,-22.18,-11.0,2c
2019-07-15_121919:720,-0.448425,-0.009644,-0.21554600000000002,-0.0020469999999999998,0.003307,0.0102,-32.869999,-22.18,-11.0,2c
2019-07-15_121919:740,-0.449432,-0.011169,-0.217072,-0.003176,0.003093,0.008612999999999999,-32.869999,-22.18,-11.0,2c
2019-07-15_121919:760,-0.45196499999999995,-0.012695,-0.223175,-0.004275,0.002696,0.006934999999999999,-32.869999,-22.18,-11.0,2c
2019-07-15_121919:780,-0.45806899999999995,-0.014221000000000001,-0.222687,-0.005129,0.003307,0.006141,-32.560001,-21.75,-11.0,2c
2019-07-15_121919:800,-0.46316499999999994,-0.013702,-0.222687,-0.005953,0.005107,0.006813,-32.560001,-21.75,-11.0,2c
2019-07-15_121919:820,-0.457581,-0.017792,-0.22116100000000002,-0.0064719999999999995,0.007091,0.007484,-32.869999,-21.370001000000002,-11.37,2c
2019-07-15_121919:840,-0.45196499999999995,-0.017273,-0.21911599999999998,-0.007204,0.00822,0.007667,-32.869999,-21.370001000000002,-11.37,2c
2019-07-15_121919:860,-0.45095799999999997,-0.021851,-0.21810900000000003,-0.007387,0.008678,0.00727,-32.869999,-21.370001000000002,-11.37,2c
2019-07-15_121919:880,-0.453003,-0.023895,-0.22116100000000002,-0.007876000000000001,0.00883,0.006476999999999999,-33.25,-21.75,-11.0,2c
2019-07-15_121919:900,-0.444855,-0.026917,-0.21249400000000002,-0.008516,0.009807,0.006416,-33.25,-21.75,-11.0,2c
2019-07-15_121919:920,-0.446899,-0.029480000000000003,-0.21048000000000003,-0.009188,0.009685,0.005684000000000001,-34.060001,-21.370001000000002,-10.68,2c
2019-07-15_121919:940,-0.448425,-0.03302,-0.20538299999999998,-0.009004999999999999,0.009685,0.004371,-34.060001,-21.370001000000002,-10.68,2c
2019-07-15_121919:960,-0.453003,-0.033539,-0.206909,-0.008578,0.009929,0.002845,-34.060001,-21.370001000000002,-10.68,2c
2019-07-15_121919:980,-0.454529,-0.03302,-0.205902,-0.008333,0.010753,0.001442,-34.060001,-20.68,-11.75,2c
2019-07-15_121920:000,-0.45095799999999997,-0.031494,-0.20233199999999998,-0.008394,0.011058,0.000465,-34.060001,-20.68,-11.75,2c
2019-07-15_121920:020,-0.449432,-0.030487,-0.198792,-0.008516,0.010875,-0.0008470000000000001,-34.060001,-21.370001000000002,-10.68,2c
2019-07-15_121920:040,-0.447906,-0.031006,-0.19574,-0.008516,0.009929,-0.002709,-34.060001,-21.370001000000002,-10.68,2c
2019-07-15_121920:060,-0.448425,-0.029968,-0.194214,-0.008211,0.008403,-0.004296,-34.060001,-21.370001000000002,-10.68,2c
2019-07-15_121920:080,-0.448425,-0.030487,-0.194214,-0.007662,0.00703,-0.005822,-33.68,-21.370001000000002,-10.18,2c
2019-07-15_121920:100,-0.453003,-0.028442000000000002,-0.192169,-0.006991,0.005961999999999999,-0.007225,-33.68,-21.370001000000002,-10.18,2c
2019-07-15_121920:120,-0.455017,-0.025908999999999998,-0.189117,-0.006533,0.005168,-0.008019,-34.060001,-20.68,-9.5,2c
2019-07-15_121920:140,-0.45706199999999997,-0.021332,-0.189117,-0.005739,0.004314,-0.008477,-34.060001,-20.68,-9.5,2c
2019-07-15_121920:160,-0.45907600000000004,-0.020844,-0.194214,-0.004946,0.003978,-0.008965,-34.060001,-20.68,-9.5,2c
2019-07-15_121920:180,-0.46469099999999997,-0.014221000000000001,-0.19622799999999999,-0.0051600000000000005,0.004161,-0.010003,-33.68,-21.75,-9.5,2c
2019-07-15_121920:200,-0.46875,-0.009644,-0.194214,-0.0056170000000000005,0.005046,-0.010613,-33.68,-21.75,-9.5,2c
2019-07-15_121920:220,-0.46670500000000004,-0.009125,-0.19622799999999999,-0.00635,0.005748,-0.010491,-32.869999,-21.75,-10.18,2c
2019-07-15_121920:240,-0.470276,-0.009125,-0.197266,-0.0069299999999999995,0.006541,-0.011071,-32.869999,-21.75,-10.18,2c
2019-07-15_121920:260,-0.471283,-0.007111,-0.198273,-0.007387,0.007488,-0.012535,-32.869999,-21.75,-10.18,2c
2019-07-15_121920:280,-0.466217,-0.001495,-0.193695,-0.008394,0.00883,-0.013543000000000001,-32.560001,-21.75,-9.06,2c
2019-07-15_121920:300,-0.46569799999999995,-0.000488,-0.192169,-0.008912999999999999,0.009807,-0.013512,-32.560001,-21.75,-9.06,2c
2019-07-15_121920:320,-0.462646,-0.000488,-0.190643,-0.009524,0.0106,-0.013787,-33.68,-22.5,-8.68,2c
2019-07-15_121920:340,-0.460114,-0.000488,-0.18811,-0.009798000000000001,0.011211,-0.014275,-33.68,-22.5,-8.68,2c
2019-07-15_121920:360,-0.45706199999999997,0.000488,-0.184021,-0.009524,0.010997,-0.014733000000000001,-33.68,-22.5,-8.68,2c
2019-07-15_121920:380,-0.45605500000000004,0.002014,-0.180481,-0.008791,0.010326,-0.014641,-32.560001,-23.25,-7.87,2c
2019-07-15_121920:400,-0.457581,0.006072999999999999,-0.175903,-0.007540000000000001,0.009349,-0.013999999999999999,-32.560001,-23.25,-7.87,2c
2019-07-15_121920:420,-0.46060200000000007,0.007111,-0.17385899999999999,-0.006319,0.008617,-0.013054,-33.25,-23.559998999999998,-9.5,2c
2019-07-15_121920:440,-0.45806899999999995,0.011687999999999999,-0.171844,-0.0048850000000000005,0.008342,-0.01162,-33.25,-23.559998999999998,-9.5,2c
2019-07-15_121920:460,-0.45806899999999995,0.012177,-0.170807,-0.00339,0.007426,-0.009941,-33.25,-23.559998999999998,-9.5,2c
2019-07-15_121920:480,-0.45654300000000003,0.015747,-0.1698,-0.0015890000000000001,0.005779,-0.008598999999999999,-32.18,-24.0,-7.87,2c
2019-07-15_121920:500,-0.45654300000000003,0.01828,-0.168274,5.9e-05,0.0042829999999999995,-0.006706999999999999,-32.18,-24.0,-7.87,2c
2019-07-15_121920:520,-0.45806899999999995,0.020325,-0.167755,0.001402,0.002757,-0.004357,-33.68,-24.68,-8.68,2c
2019-07-15_121920:540,-0.458588,0.023375999999999997,-0.165741,0.002195,0.001628,-0.001702,-33.68,-24.68,-8.68,2c
2019-07-15_121920:560,-0.458588,0.023895,-0.1698,0.002989,0.00022400000000000002,0.00028199999999999997,-33.68,-24.68,-8.68,2c
2019-07-15_121920:580,-0.458588,0.024902,-0.169281,0.003141,-0.001393,0.00132,-32.18,-24.0,-7.87,2c
2019-07-15_121920:600,-0.45907600000000004,0.024902,-0.170319,0.003141,-0.003102,0.003242,-32.18,-24.0,-7.87,2c
2019-07-15_121920:620,-0.46060200000000007,0.024902,-0.171326,0.002531,-0.004811,0.004768,-32.75,-24.68,-8.25,2c
2019-07-15_121920:640,-0.46060200000000007,0.024902,-0.171326,0.002012,-0.00594,0.005958,-32.75,-24.68,-8.25,2c
2019-07-15_121920:660,-0.45907600000000004,0.023375999999999997,-0.172852,0.001341,-0.006703,0.007301,-32.75,-24.68,-8.25,2c
2019-07-15_121920:680,-0.46469099999999997,0.022858,-0.17337,0.00048600000000000005,-0.007619,0.008339,-32.5,-23.559998999999998,-8.25,2c
2019-07-15_121920:700,-0.46670500000000004,0.020844,-0.182007,-0.000246,-0.0072829999999999995,0.009132,-32.5,-23.559998999999998,-8.25,2c
2019-07-15_121920:720,-0.46569799999999995,0.017792,-0.189117,-0.0009789999999999998,-0.006764,0.009132,-32.060001,-24.25,-8.68,2c
2019-07-15_121920:740,-0.465179,0.016753999999999998,-0.188599,-0.0017109999999999998,-0.005879,0.009071,-32.060001,-24.25,-8.68,2c
2019-07-15_121920:760,-0.460114,0.011169,-0.19165,-0.002443,-0.005299,0.009406999999999999,-32.060001,-24.25,-8.68,2c
2019-07-15_121920:780,-0.462646,0.007111,-0.194702,-0.0032979999999999997,-0.004903,0.008796,-32.75,-23.559998999999998,-9.5,2c
2019-07-15_121920:800,-0.46469099999999997,0.004059,-0.194214,-0.0036340000000000005,-0.00417,0.007759,-32.75,-23.559998999999998,-9.5,2c
2019-07-15_121920:820,-0.46417200000000003,0.001495,-0.193695,-0.004,-0.003621,0.005958,-32.75,-23.25,-8.68,2c
2019-07-15_121920:840,-0.45806899999999995,0.002014,-0.190643,-0.004152,-0.0033159999999999995,0.0043100000000000005,-32.75,-23.25,-8.68,2c
2019-07-15_121920:860,-0.459595,0.001007,-0.192688,-0.00403,-0.003438,0.003242,-32.75,-23.25,-8.68,2c
2019-07-15_121920:880,-0.46469099999999997,0.0,-0.19165,-0.003878,-0.0035600000000000002,0.0021739999999999997,-32.060001,-24.68,-9.5,2c
2019-07-15_121920:900,-0.462646,0.0,-0.192169,-0.003573,-0.003438,0.001564,-32.060001,-24.68,-9.5,2c
2019-07-15_121920:920,-0.46316499999999994,-0.000488,-0.194214,-0.003054,-0.002705,0.001167,-32.75,-23.559998999999998,-9.5,2c
2019-07-15_121920:940,-0.461121,0.000488,-0.192169,-0.002443,-0.002431,0.000648,-32.75,-23.559998999999998,-9.5,2c
2019-07-15_121920:960,-0.46469099999999997,0.001007,-0.194702,-0.001772,-0.001973,0.000496,-32.75,-23.559998999999998,-9.5,2c
2019-07-15_121920:980,-0.463654,0.0025329999999999997,-0.194702,-0.001253,-0.001576,0.000648,-32.75,-23.559998999999998,-8.68,2c
2019-07-15_121921:000,-0.463654,0.0035399999999999997,-0.194702,-0.001131,-0.0007830000000000001,0.000648,-32.75,-23.559998999999998,-8.68,2c
2019-07-15_121921:020,-0.46060200000000007,0.0035399999999999997,-0.194702,-0.001009,-0.000325,0.001258,-32.060001,-23.25,-9.87,2c
2019-07-15_121921:040,-0.45806899999999995,0.002014,-0.194702,-0.000918,-0.000172,0.001258,-32.060001,-23.25,-9.87,2c
2019-07-15_121921:060,-0.45654300000000003,0.002014,-0.195221,-0.001131,-0.000386,0.001167,-32.060001,-23.25,-9.87,2c
2019-07-15_121921:080,-0.45806899999999995,0.002014,-0.193176,-0.001009,-0.00063,0.001167,-31.370001000000002,-23.25,-9.87,2c
2019-07-15_121921:100,-0.459595,0.000488,-0.193695,-0.001192,-0.00063,0.001503,-31.370001000000002,-23.25,-9.87,2c
2019-07-15_121921:120,-0.458588,-0.001495,-0.19622799999999999,-0.001131,-0.00044699999999999997,0.00196,-32.060001,-23.25,-10.18,2c
2019-07-15_121921:140,-0.45806899999999995,-0.000488,-0.195221,-0.001009,-0.00063,0.002052,-32.060001,-23.25,-10.18,2c
2019-07-15_121921:160,-0.45806899999999995,-0.001007,-0.19775399999999999,-0.000918,-0.000264,0.001655,-32.060001,-23.25,-10.18,2c
2019-07-15_121921:180,-0.45605500000000004,-0.001007,-0.197266,-0.000582,-5e-05,0.001167,-32.060001,-23.559998999999998,-10.68,2c
2019-07-15_121921:200,-0.457581,-0.000488,-0.199799,-0.000857,1.1e-05,0.0007700000000000001,-32.060001,-23.559998999999998,-10.68,2c
2019-07-15_121921:220,-0.45654300000000003,-0.001495,-0.199799,-0.001253,-0.000386,0.000496,-33.560001,-22.18,-8.68,2c
2019-07-15_121921:240,-0.461121,-0.0025329999999999997,-0.199799,-0.001467,-0.000264,0.000129,-33.560001,-22.18,-8.68,2c
2019-07-15_121921:260,-0.45806899999999995,-0.002014,-0.19927999999999998,-0.0015279999999999998,0.000133,-0.00023700000000000001,-33.560001,-22.18,-8.68,2c
2019-07-15_121921:280,-0.461121,-0.002014,-0.198792,-0.001772,0.0008039999999999999,-0.000176,-33.560001,-22.870001000000002,-11.37,2c
2019-07-15_121921:300,-0.455017,-0.0030210000000000002,-0.197266,-0.001925,0.00114,-0.00023700000000000001,-33.560001,-22.870001000000002,-11.37,2c
2019-07-15_121921:320,-0.451477,-0.0035399999999999997,-0.199799,-0.001925,0.000743,-0.00011499999999999999,-33.18,-23.25,-10.68,2c
2019-07-15_121921:340,-0.455017,-0.0055850000000000006,-0.19927999999999998,-0.0017109999999999998,0.000346,-0.001183,-33.18,-23.25,-10.68,2c
2019-07-15_121921:360,-0.45605500000000004,-0.004547,-0.200317,-0.0014060000000000001,1.1e-05,-0.0013050000000000002,-33.18,-23.25,-10.68,2c
2019-07-15_121921:380,-0.45605500000000004,-0.004059,-0.20285,-0.001009,1.1e-05,-0.000634,-32.75,-23.25,-10.18,2c
2019-07-15_121921:400,-0.45553599999999994,-0.0035399999999999997,-0.20080599999999998,-0.000734,7.2e-05,-0.001,-32.75,-23.25,-10.18,2c
2019-07-15_121921:420,-0.45806899999999995,-0.0035399999999999997,-0.20233199999999998,-6.3e-05,0.000285,-0.0011220000000000002,-32.75,-23.559998999999998,-11.0,2c
2019-07-15_121921:440,-0.45706199999999997,-0.001495,-0.20080599999999998,0.000212,0.000499,-0.000786,-32.75,-23.559998999999998,-11.0,2c
2019-07-15_121921:460,-0.454529,-0.0025329999999999997,-0.20080599999999998,0.000395,0.0008960000000000001,-5.4000000000000005e-05,-32.75,-23.559998999999998,-11.0,2c
2019-07-15_121921:480,-0.452484,-0.0025329999999999997,-0.201843,0.000547,0.000285,0.000648,-32.060001,-23.25,-10.68,2c
2019-07-15_121921:500,-0.453003,-0.0035399999999999997,-0.199799,0.000608,-0.000386,0.001045,-32.060001,-23.25,-10.68,2c
2019-07-15_121921:520,-0.454529,-0.0030210000000000002,-0.201324,0.000791,-0.001027,0.000831,-32.060001,-22.870001000000002,-10.18,2c
2019-07-15_121921:540,-0.453003,-0.004059,-0.201324,0.001005,-0.001363,0.000343,-32.060001,-22.870001000000002,-10.18,2c
2019-07-15_121921:560,-0.45043900000000003,-0.0035399999999999997,-0.201324,0.001127,-0.002034,-0.00011499999999999999,-32.060001,-22.870001000000002,-10.18,2c
2019-07-15_121921:580,-0.448425,-0.0035399999999999997,-0.20285,0.0012490000000000001,-0.00298,-0.000389,-31.68,-22.5,-9.87,2c
2019-07-15_121921:600,-0.44995100000000005,-0.004059,-0.201324,0.001188,-0.004231,-0.000389,-31.68,-22.5,-9.87,2c
2019-07-15_121921:620,-0.452484,-0.0030210000000000002,-0.201324,0.0012490000000000001,-0.004353,0.000221,-32.060001,-22.870001000000002,-10.68,2c
2019-07-15_121921:640,-0.455017,-0.004547,-0.203369,0.0012490000000000001,-0.004018,0.000129,-32.060001,-22.870001000000002,-10.68,2c
2019-07-15_121921:660,-0.452484,-0.004547,-0.20486500000000002,0.00073,-0.003896,6.8e-05,-32.060001,-22.870001000000002,-10.68,2c
2019-07-15_121921:680,-0.455017,-0.0025329999999999997,-0.208954,5.9e-05,-0.003773,0.000709,-32.060001,-23.25,-11.75,2c
2019-07-15_121921:700,-0.45654300000000003,-0.001495,-0.206909,-0.001375,-0.003102,0.000129,-32.060001,-23.25,-11.75,2c
2019-07-15_121921:720,-0.45401,-0.0035399999999999997,-0.212006,-0.0033280000000000002,-0.002522,-0.000786,-32.060001,-22.5,-10.68,2c
2019-07-15_121921:740,-0.45401,-0.0025329999999999997,-0.213013,-0.0048850000000000005,-0.002309,-0.001366,-32.060001,-22.5,-10.68,2c
2019-07-15_121921:760,-0.45401,-0.0055850000000000006,-0.213013,-0.006014,-0.002248,-0.0017929999999999999,-32.060001,-22.5,-10.68,2c
2019-07-15_121921:780,-0.451477,-0.006592,-0.21453899999999998,-0.006594,-0.002034,-0.0021899999999999997,-31.370001000000002,-22.5,-12.18,2c
2019-07-15_121921:800,-0.453003,-0.007111,-0.213531,-0.006991,-0.001302,-0.002373,-31.370001000000002,-22.5,-12.18,2c
2019-07-15_121921:820,-0.45401,-0.009644,-0.217072,-0.006807,-0.001027,-0.002373,-31.68,-22.870001000000002,-12.18,2c
2019-07-15_121921:840,-0.45605500000000004,-0.009125,-0.216583,-0.005526,0.00016299999999999998,-0.001854,-31.68,-22.870001000000002,-12.18,2c
2019-07-15_121921:860,-0.45401,-0.009644,-0.21759,-0.004275,0.000865,-0.001183,-31.68,-22.870001000000002,-12.18,2c
2019-07-15_121921:880,-0.45401,-0.006072999999999999,-0.21810900000000003,-0.002779,0.001415,0.000129,-31.68,-23.559998999999998,-11.0,2c
2019-07-15_121921:900,-0.452484,-0.0035399999999999997,-0.217072,-0.001772,0.0017809999999999998,0.001106,-31.68,-23.559998999999998,-11.0,2c
2019-07-15_121921:920,-0.44995100000000005,-0.001495,-0.21505700000000003,-0.0014060000000000001,0.0017809999999999998,0.001564,-31.68,-23.25,-10.18,2c
2019-07-15_121921:940,-0.45095799999999997,-0.001007,-0.217072,-0.0017109999999999998,0.001994,0.002113,-31.68,-23.25,-10.18,2c
2019-07-15_121921:960,-0.45043900000000003,-0.0025329999999999997,-0.21554600000000002,-0.0021079999999999996,0.002055,0.001838,-31.68,-23.25,-10.18,2c
2019-07-15_121921:980,-0.451477,-0.0025329999999999997,-0.21505700000000003,-0.002932,0.002055,0.00132,-32.75,-23.25,-12.56,2c
2019-07-15_121922:000,-0.449432,-0.004059,-0.213531,-0.00339,0.002055,0.000831,-32.75,-23.25,-12.56,2c
2019-07-15_121922:020,-0.44891400000000004,-0.004547,-0.213531,-0.0037560000000000002,0.002177,-0.000176,-31.68,-22.870001000000002,-13.0,2c
2019-07-15_121922:040,-0.448425,-0.004059,-0.21249400000000002,-0.004091,0.001628,-0.0009689999999999999,-31.68,-22.870001000000002,-13.0,2c
2019-07-15_121922:060,-0.449432,-0.004059,-0.212006,-0.004213000000000001,0.001598,-0.0011220000000000002,-31.68,-22.870001000000002,-13.0,2c
2019-07-15_121922:080,-0.44995100000000005,-0.0035399999999999997,-0.212006,-0.004213000000000001,0.0017809999999999998,-0.0013050000000000002,-32.75,-22.870001000000002,-13.0,2c
2019-07-15_121922:100,-0.449432,-0.004059,-0.212006,-0.0036950000000000004,0.0016589999999999999,-0.0009689999999999999,-32.75,-22.870001000000002,-13.0,2c
2019-07-15_121922:120,-0.45043900000000003,-0.004059,-0.21148699999999998,-0.0032979999999999997,0.00172,-0.000328,-31.370001000000002,-23.25,-11.75,2c
2019-07-15_121922:140,-0.45196499999999995,-0.004059,-0.212006,-0.002657,0.0017809999999999998,0.000404,-31.370001000000002,-23.25,-11.75,2c
2019-07-15_121922:160,-0.45095799999999997,-0.0035399999999999997,-0.212006,-0.0021079999999999996,0.002177,0.001106,-31.370001000000002,-23.25,-11.75,2c
2019-07-15_121922:180,-0.451477,-0.0035399999999999997,-0.21249400000000002,-0.0015890000000000001,0.002391,0.001442,-31.68,-23.25,-11.75,2c
2019-07-15_121922:200,-0.45043900000000003,-0.0025329999999999997,-0.210968,-0.001192,0.002635,0.002113,-31.68,-23.25,-11.75,2c
2019-07-15_121922:220,-0.44995100000000005,-0.0025329999999999997,-0.213013,-0.001192,0.002757,0.00251,-32.060001,-22.870001000000002,-12.18,2c
2019-07-15_121922:240,-0.44995100000000005,-0.001495,-0.21249400000000002,-0.001314,0.002177,0.002784,-32.060001,-22.870001000000002,-12.18,2c
2019-07-15_121922:260,-0.448425,-0.0025329999999999997,-0.213531,-0.00165,0.0019030000000000002,0.003303,-32.060001,-22.870001000000002,-12.18,2c
2019-07-15_121922:280,-0.451477,-0.0025329999999999997,-0.212006,-0.001925,0.0017809999999999998,0.003303,-31.370001000000002,-23.25,-11.37,2c
2019-07-15_121922:300,-0.452484,-0.004059,-0.210968,-0.002321,0.0017809999999999998,0.003151,-31.370001000000002,-23.25,-11.37,2c
2019-07-15_121922:320,-0.453003,-0.004059,-0.21148699999999998,-0.0025960000000000002,0.001628,0.003151,-31.370001000000002,-23.25,-11.37,2c
2019-07-15_121922:340,-0.45196499999999995,-0.005065999999999999,-0.210968,-0.0033280000000000002,0.002361,0.002449,-31.68,-22.5,-12.18,2c
2019-07-15_121922:360,-0.45043900000000003,-0.005065999999999999,-0.209961,-0.004,0.0019030000000000002,0.0021739999999999997,-31.68,-22.5,-12.18,2c
2019-07-15_121922:380,-0.449432,-0.005065999999999999,-0.210968,-0.004336,0.0019030000000000002,0.002235,-31.0,-23.25,-12.18,2c
2019-07-15_121922:400,-0.449432,-0.005065999999999999,-0.208954,-0.005129,0.001628,0.001564,-31.0,-23.25,-12.18,2c
2019-07-15_121922:420,-0.452484,-0.006592,-0.210968,-0.005282,0.0014759999999999999,0.001045,-31.0,-23.25,-12.18,2c
2019-07-15_121922:440,-0.44995100000000005,-0.0055850000000000006,-0.20843499999999998,-0.005739,0.0017809999999999998,0.001503,-31.68,-22.5,-11.75,2c
2019-07-15_121922:460,-0.453491,-0.009125,-0.20944200000000002,-0.006136,0.001994,0.001777,-31.68,-22.5,-11.75,2c
2019-07-15_121922:480,-0.45196499999999995,-0.007599,-0.207916,-0.0064719999999999995,0.002177,0.001716,-31.68,-22.870001000000002,-12.18,2c
2019-07-15_121922:500,-0.45095799999999997,-0.009644,-0.210968,-0.0064719999999999995,0.002055,0.001777,-31.68,-22.870001000000002,-12.18,2c
2019-07-15_121922:520,-0.45043900000000003,-0.008636,-0.212006,-0.006533,0.0017809999999999998,0.000831,-31.68,-22.870001000000002,-12.18,2c
2019-07-15_121922:540,-0.452484,-0.009125,-0.212006,-0.0064719999999999995,0.001628,0.0007700000000000001,-32.5,-23.25,-12.18,2c
2019-07-15_121922:560,-0.452484,-0.010162000000000001,-0.21148699999999998,-0.00635,0.0016589999999999999,0.000465,-32.5,-23.25,-12.18,2c
2019-07-15_121922:580,-0.45196499999999995,-0.010162000000000001,-0.21148699999999998,-0.006197,0.00172,0.00028199999999999997,-31.68,-22.870001000000002,-10.68,2c
2019-07-15_121922:600,-0.45095799999999997,-0.010162000000000001,-0.209961,-0.005678,0.001964,0.0007700000000000001,-31.68,-22.870001000000002,-10.68,2c
2019-07-15_121922:620,-0.449432,-0.012177,-0.210968,-0.005526,0.001994,0.0007700000000000001,-31.68,-22.870001000000002,-10.68,2c
2019-07-15_121922:640,-0.449432,-0.010162000000000001,-0.21148699999999998,-0.005221,0.0014759999999999999,0.000984,-31.68,-22.5,-10.68,2c
2019-07-15_121922:660,-0.44995100000000005,-0.009644,-0.209961,-0.005007,0.0014759999999999999,0.000709,-31.68,-22.5,-10.68,2c
2019-07-15_121922:680,-0.453491,-0.008636,-0.21048000000000003,-0.0048850000000000005,0.001353,0.000404,-31.68,-22.870001000000002,-11.37,2c
2019-07-15_121922:700,-0.453491,-0.008636,-0.20843499999999998,-0.004488000000000001,0.001415,0.000526,-31.68,-22.870001000000002,-11.37,2c
2019-07-15_121922:720,-0.452484,-0.008636,-0.21148699999999998,-0.004427,0.001537,0.001106,-32.75,-22.18,-11.75,2c
2019-07-15_121922:740,-0.45095799999999997,-0.009644,-0.210968,-0.004336,0.001292,0.001258,-32.75,-22.18,-11.75,2c
2019-07-15_121922:760,-0.45043900000000003,-0.010162000000000001,-0.208954,-0.004336,0.0014759999999999999,0.00132,-32.75,-22.18,-11.75,2c
2019-07-15_121922:780,-0.449432,-0.009125,-0.20944200000000002,-0.004488000000000001,0.001537,0.001564,-32.5,-22.870001000000002,-11.0,2c
2019-07-15_121922:800,-0.45095799999999997,-0.010651,-0.21048000000000003,-0.004275,0.0012619999999999999,0.001167,-32.5,-22.870001000000002,-11.0,2c
2019-07-15_121922:820,-0.45043900000000003,-0.011169,-0.21148699999999998,-0.004397,0.0012619999999999999,0.000404,-32.060001,-22.870001000000002,-13.0,2c
2019-07-15_121922:840,-0.45196499999999995,-0.009125,-0.21148699999999998,-0.004213000000000001,0.0009570000000000001,0.000465,-32.060001,-22.870001000000002,-13.0,2c
2019-07-15_121922:860,-0.454529,-0.010162000000000001,-0.21148699999999998,-0.004336,0.001018,0.000343,-32.060001,-22.870001000000002,-13.0,2c
2019-07-15_121922:880,-0.45401,-0.009125,-0.210968,-0.004152,0.0017809999999999998,0.00016,-32.5,-22.18,-12.18,2c
2019-07-15_121922:900,-0.453003,-0.010162000000000001,-0.20944200000000002,-0.003817,0.00172,0.00028199999999999997,-32.5,-22.18,-12.18,2c
2019-07-15_121922:920,-0.45095799999999997,-0.010651,-0.209961,-0.0036950000000000004,0.001842,7.000000000000001e-06,-32.5,-22.18,-12.18,2c
2019-07-15_121922:940,-0.44995100000000005,-0.009125,-0.208954,-0.003512,0.0016589999999999999,-0.00011499999999999999,-32.75,-22.870001000000002,-11.75,2c
2019-07-15_121922:960,-0.44995100000000005,-0.010162000000000001,-0.20944200000000002,-0.0033280000000000002,0.001415,-0.000267,-32.75,-22.870001000000002,-11.75,2c
2019-07-15_121922:980,-0.45043900000000003,-0.007599,-0.210968,-0.0032979999999999997,0.001292,-0.000328,-31.68,-21.75,-13.0,2c
2019-07-15_121923:000,-0.45043900000000003,-0.007111,-0.208954,-0.002993,0.001292,-0.000328,-31.68,-21.75,-13.0,2c
2019-07-15_121923:020,-0.44995100000000005,-0.007599,-0.212006,-0.0028399999999999996,0.0012619999999999999,-0.000267,-32.060001,-23.25,-11.37,2c
2019-07-15_121923:040,-0.449432,-0.007599,-0.213013,-0.002779,0.0010789999999999999,-0.00045099999999999996,-32.060001,-23.25,-11.37,2c
2019-07-15_121923:060,-0.45095799999999997,-0.008118,-0.212006,-0.002718,0.0008960000000000001,-0.000267,-32.060001,-23.25,-11.37,2c
2019-07-15_121923:080,-0.45196499999999995,-0.007111,-0.212006,-0.0025050000000000003,0.0009570000000000001,-0.000328,-31.0,-22.870001000000002,-12.56,2c
2019-07-15_121923:100,-0.453003,-0.004547,-0.209961,-0.0025960000000000002,0.001292,-0.000664,-31.0,-22.870001000000002,-12.56,2c
2019-07-15_121923:120,-0.452484,-0.0030210000000000002,-0.210968,-0.003054,0.0012619999999999999,-0.000664,-31.0,-22.870001000000002,-12.56,2c
2019-07-15_121923:140,-0.451477,-0.004059,-0.21048000000000003,-0.003664,0.0014759999999999999,-0.000328,-32.5,-23.25,-11.0,2c
2019-07-15_121923:160,-0.44995100000000005,-0.0030210000000000002,-0.20944200000000002,-0.004213000000000001,0.0012619999999999999,-0.000389,-32.5,-23.25,-11.0,2c
2019-07-15_121923:180,-0.45196499999999995,-0.0055850000000000006,-0.210968,-0.004671,0.0008960000000000001,-0.00023700000000000001,-31.68,-22.870001000000002,-11.37,2c
2019-07-15_121923:200,-0.452484,-0.0055850000000000006,-0.20944200000000002,-0.004671,0.000865,-0.000176,-31.68,-22.870001000000002,-11.37,2c
2019-07-15_121923:220,-0.451477,-0.007111,-0.210968,-0.004824,0.00114,0.000129,-31.370001000000002,-22.870001000000002,-13.37,2c
2019-07-15_121923:240,-0.45196499999999995,-0.006072999999999999,-0.213531,-0.00461,0.0012619999999999999,6.8e-05,-31.370001000000002,-22.870001000000002,-13.37,2c
2019-07-15_121923:260,-0.449432,-0.008118,-0.21148699999999998,-0.004488000000000001,0.001201,0.000343,-31.370001000000002,-22.870001000000002,-13.37,2c
2019-07-15_121923:280,-0.449432,-0.008118,-0.210968,-0.004397,0.00114,0.00016,-32.5,-22.18,-11.37,2c
2019-07-15_121923:300,-0.448425,-0.008118,-0.21048000000000003,-0.003939,0.001018,7.000000000000001e-06,-32.5,-22.18,-11.37,2c
2019-07-15_121923:320,-0.45095799999999997,-0.007111,-0.213013,-0.003573,0.000621,-0.000389,-32.5,-22.18,-11.37,2c
2019-07-15_121923:340,-0.454529,-0.006072999999999999,-0.21249400000000002,-0.003573,0.000621,-0.00023700000000000001,-31.68,-22.5,-11.75,2c
2019-07-15_121923:360,-0.453491,-0.006592,-0.210968,-0.00339,0.000865,0.000648,-31.68,-22.5,-11.75,2c
2019-07-15_121923:380,-0.45043900000000003,-0.0055850000000000006,-0.21249400000000002,-0.0036340000000000005,0.00114,0.000587,-31.370001000000002,-23.25,-12.18,2c
2019-07-15_121923:400,-0.449432,-0.0055850000000000006,-0.208954,-0.003573,0.001018,0.000404,-31.370001000000002,-23.25,-12.18,2c
2019-07-15_121923:420,-0.449432,-0.004547,-0.210968,-0.003817,0.000865,0.000221,-31.370001000000002,-23.25,-12.18,2c
2019-07-15_121923:440,-0.449432,-0.004547,-0.212006,-0.0037560000000000002,0.001018,-0.00011499999999999999,-32.060001,-22.870001000000002,-12.18,2c
2019-07-15_121923:460,-0.45095799999999997,-0.006072999999999999,-0.21148699999999998,-0.0037560000000000002,0.000865,-0.000328,-32.060001,-22.870001000000002,-12.18,2c
2019-07-15_121923:480,-0.45095799999999997,-0.006072999999999999,-0.21148699999999998,-0.0036950000000000004,0.000865,7.000000000000001e-06,-32.060001,-23.559998999999998,-11.37,2c
2019-07-15_121923:500,-0.45095799999999997,-0.006592,-0.209961,-0.00339,0.000865,7.000000000000001e-06,-32.060001,-23.559998999999998,-11.37,2c
2019-07-15_121923:520,-0.452484,-0.006592,-0.21048000000000003,-0.0032979999999999997,0.0008039999999999999,-0.000267,-32.060001,-23.559998999999998,-11.37,2c
2019-07-15_121923:540,-0.451477,-0.005065999999999999,-0.209961,-0.0033280000000000002,0.000865,0.000709,-31.68,-22.18,-12.56,2c
2019-07-15_121923:560,-0.452484,-0.006592,-0.21048000000000003,-0.003512,0.001292,0.000496,-31.68,-22.18,-12.56,2c
2019-07-15_121923:580,-0.448425,-0.006072999999999999,-0.21148699999999998,-0.0036340000000000005,0.0008960000000000001,-0.00011499999999999999,-31.68,-22.870001000000002,-12.18,2c
2019-07-15_121923:600,-0.44995100000000005,-0.0055850000000000006,-0.210968,-0.003512,0.000346,-0.000786,-31.68,-22.870001000000002,-12.18,2c
2019-07-15_121923:620,-0.451477,-0.004547,-0.212006,-0.003573,-5e-05,-0.001641,-31.68,-22.870001000000002,-12.18,2c
2019-07-15_121923:640,-0.452484,-0.004059,-0.212006,-0.003512,0.00022400000000000002,-0.000725,-32.060001,-23.25,-11.75,2c
2019-07-15_121923:660,-0.451477,-0.004547,-0.213531,-0.0036340000000000005,0.000468,-0.000267,-32.060001,-23.25,-11.75,2c
2019-07-15_121923:680,-0.449432,-0.0035399999999999997,-0.21249400000000002,-0.00339,0.000499,-0.000328,-32.060001,-22.870001000000002,-11.75,2c
2019-07-15_121923:700,-0.448425,-0.004059,-0.210968,-0.00339,0.000499,0.00016,-32.060001,-22.870001000000002,-11.75,2c
2019-07-15_121923:720,-0.448425,-0.0030210000000000002,-0.21249400000000002,-0.003664,7.2e-05,0.000404,-32.060001,-22.870001000000002,-11.75,2c
2019-07-15_121923:740,-0.451477,-0.0030210000000000002,-0.21402,-0.003817,0.00016299999999999998,0.000923,-32.060001,-22.870001000000002,-12.18,2c
2019-07-15_121923:760,-0.44891400000000004,-0.0035399999999999997,-0.21606399999999998,-0.004336,0.000499,0.000984,-32.060001,-22.870001000000002,-12.18,2c
2019-07-15_121923:780,-0.44995100000000005,-0.004059,-0.217072,-0.004488000000000001,0.000407,0.000923,-32.5,-22.870001000000002,-13.75,2c
2019-07-15_121923:800,-0.448425,-0.005065999999999999,-0.216583,-0.004732,0.000346,0.0007700000000000001,-32.5,-22.870001000000002,-13.75,2c
2019-07-15_121923:820,-0.447388,-0.005065999999999999,-0.21759,-0.004397,-0.000172,0.001045,-32.5,-22.870001000000002,-13.75,2c
2019-07-15_121923:840,-0.45095799999999997,-0.0035399999999999997,-0.217072,-0.004213000000000001,-0.00011100000000000001,0.001106,-32.060001,-23.25,-12.18,2c
2019-07-15_121923:860,-0.453003,-0.0035399999999999997,-0.21759,-0.00461,0.000499,0.001258,-32.060001,-23.25,-12.18,2c
2019-07-15_121923:880,-0.449432,-0.0030210000000000002,-0.21810900000000003,-0.0048850000000000005,0.00114,0.001777,-32.060001,-22.870001000000002,-11.75,2c
2019-07-15_121923:900,-0.44891400000000004,-0.005065999999999999,-0.21810900000000003,-0.005282,0.001292,0.0021739999999999997,-32.060001,-22.870001000000002,-11.75,2c
2019-07-15_121923:920,-0.447906,-0.005065999999999999,-0.21759,-0.005556,0.001598,0.001503,-32.060001,-22.870001000000002,-11.75,2c
2019-07-15_121923:940,-0.44891400000000004,-0.006072999999999999,-0.21554600000000002,-0.005556,0.001201,0.001381,-31.68,-22.870001000000002,-12.18,2c
2019-07-15_121923:960,-0.446899,-0.008118,-0.216583,-0.0058,0.0010789999999999999,0.00132,-31.68,-22.870001000000002,-12.18,2c
2019-07-15_121923:980,-0.448425,-0.007599,-0.216583,-0.0058,0.0008960000000000001,0.001045,-31.68,-22.5,-11.75,2c
2019-07-15_121924:000,-0.44995100000000005,-0.007599,-0.21606399999999998,-0.005465,0.000865,0.000984,-31.68,-22.5,-11.75,2c
2019-07-15_121924:020,-0.45043900000000003,-0.007599,-0.217072,-0.005404,0.0009570000000000001,0.000526,-31.68,-22.5,-11.75,2c
2019-07-15_121924:040,-0.446899,-0.007111,-0.217072,-0.0048850000000000005,0.001415,-0.000176,-31.370001000000002,-22.870001000000002,-11.75,2c
2019-07-15_121924:060,-0.445862,-0.007111,-0.21606399999999998,-0.004488000000000001,0.001353,-0.000328,-31.370001000000002,-22.870001000000002,-11.75,2c
2019-07-15_121924:080,-0.448425,-0.006072999999999999,-0.217072,-0.00403,0.0008960000000000001,-0.000664,-31.370001000000002,-22.5,-11.37,2c
2019-07-15_121924:100,-0.44891400000000004,-0.007111,-0.21606399999999998,-0.003664,0.001018,-0.000664,-31.370001000000002,-22.5,-11.37,2c
2019-07-15_121924:120,-0.45095799999999997,-0.004547,-0.21759,-0.003237,0.001018,-0.000573,-31.370001000000002,-22.5,-11.37,2c
2019-07-15_121924:140,-0.44995100000000005,-0.0035399999999999997,-0.21810900000000003,-0.002779,0.001415,-0.000573,-32.060001,-22.870001000000002,-12.56,2c
2019-07-15_121924:160,-0.44995100000000005,-0.002014,-0.21810900000000003,-0.0025960000000000002,0.001415,-0.00045099999999999996,-32.060001,-22.870001000000002,-12.56,2c
2019-07-15_121924:180,-0.447906,-0.001007,-0.217072,-0.002657,0.0016589999999999999,-0.000176,-32.5,-23.25,-12.18,2c
2019-07-15_121924:200,-0.447388,-0.000488,-0.21554600000000002,-0.0031149999999999997,0.001537,0.000404,-32.5,-23.25,-12.18,2c
2019-07-15_121924:220,-0.447388,0.0,-0.21505700000000003,-0.003573,0.00172,0.000709,-32.5,-23.25,-12.18,2c
2019-07-15_121924:240,-0.445862,-0.001007,-0.216583,-0.00403,0.001537,0.000648,-32.060001,-22.870001000000002,-11.75,2c
2019-07-15_121924:260,-0.447906,-0.001495,-0.21554600000000002,-0.004488000000000001,0.001537,0.000648,-32.060001,-22.870001000000002,-11.75,2c
2019-07-15_121924:280,-0.44891400000000004,-0.0035399999999999997,-0.21554600000000002,-0.004946,0.001415,0.0008619999999999999,-31.68,-22.5,-12.18,2c
2019-07-15_121924:300,-0.45043900000000003,-0.004547,-0.213531,-0.004946,0.0012619999999999999,0.000923,-31.68,-22.5,-12.18,2c
2019-07-15_121924:320,-0.45095799999999997,-0.005065999999999999,-0.21554600000000002,-0.004824,0.001415,0.000923,-31.68,-22.5,-12.18,2c
2019-07-15_121924:340,-0.449432,-0.0055850000000000006,-0.216583,-0.004671,0.001598,0.001228,-31.370001000000002,-23.559998999999998,-11.75,2c
2019-07-15_121924:360,-0.448425,-0.006592,-0.21453899999999998,-0.004488000000000001,0.001598,0.001258,-31.370001000000002,-23.559998999999998,-11.75,2c
2019-07-15_121924:380,-0.44891400000000004,-0.007599,-0.21606399999999998,-0.004152,0.00114,0.000984,-32.060001,-22.870001000000002,-12.56,2c
2019-07-15_121924:400,-0.448425,-0.006592,-0.21606399999999998,-0.0037560000000000002,0.001201,0.001106,-32.060001,-22.870001000000002,-12.56,2c
2019-07-15_121924:420,-0.448425,-0.006592,-0.21554600000000002,-0.003573,0.001201,0.001106,-32.060001,-22.870001000000002,-12.56,2c
2019-07-15_121924:440,-0.449432,-0.0055850000000000006,-0.216583,-0.0031149999999999997,0.0008960000000000001,0.000984,-32.5,-22.870001000000002,-13.0,2c
2019-07-15_121924:460,-0.45095799999999997,-0.006072999999999999,-0.21606399999999998,-0.003237,0.0009570000000000001,0.000923,-32.5,-22.870001000000002,-13.0,2c
2019-07-15_121924:480,-0.45043900000000003,-0.004547,-0.21606399999999998,-0.0031149999999999997,0.001292,0.001228,-31.68,-22.5,-13.0,2c
2019-07-15_121924:500,-0.45095799999999997,-0.0035399999999999997,-0.21505700000000003,-0.003573,0.001537,0.000923,-31.68,-22.5,-13.0,2c
2019-07-15_121924:520,-0.45043900000000003,-0.005065999999999999,-0.21554600000000002,-0.00403,0.001994,0.0007700000000000001,-31.68,-22.5,-13.0,2c
2019-07-15_121924:540,-0.449432,-0.004547,-0.21505700000000003,-0.004488000000000001,0.002116,0.000709,-32.060001,-23.25,-11.0,2c
2019-07-15_121924:560,-0.446899,-0.005065999999999999,-0.216583,-0.004793,0.001964,0.000587,-32.060001,-23.25,-11.0,2c
2019-07-15_121924:580,-0.446899,-0.007599,-0.216583,-0.004732,0.0017809999999999998,0.000831,-31.68,-22.18,-10.68,2c
2019-07-15_121924:600,-0.44638100000000003,-0.009644,-0.21554600000000002,-0.00461,0.001353,0.0007700000000000001,-31.68,-22.18,-10.68,2c
2019-07-15_121924:620,-0.44638100000000003,-0.009125,-0.21505700000000003,-0.004091,0.00114,0.000343,-31.68,-22.18,-10.68,2c
2019-07-15_121924:640,-0.44891400000000004,-0.008118,-0.21606399999999998,-0.003512,0.0008960000000000001,-5.4000000000000005e-05,-32.060001,-22.870001000000002,-12.56,2c
2019-07-15_121924:660,-0.448425,-0.006072999999999999,-0.217072,-0.003054,0.000865,0.000221,-32.060001,-22.870001000000002,-12.56,2c
2019-07-15_121924:680,-0.446899,-0.006592,-0.217072,-0.002718,0.001018,0.000709,-31.68,-22.5,-11.75,2c
2019-07-15_121924:700,-0.45095799999999997,-0.004547,-0.21606399999999998,-0.002535,0.00114,0.00016,-31.68,-22.5,-11.75,2c
2019-07-15_121924:720,-0.44891400000000004,-0.004547,-0.21505700000000003,-0.0028399999999999996,0.001292,0.0007700000000000001,-31.68,-22.5,-11.75,2c
2019-07-15_121924:740,-0.45043900000000003,-0.004547,-0.21554600000000002,-0.003176,0.0010789999999999999,0.001106,-32.060001,-22.5,-11.37,2c
2019-07-15_121924:760,-0.44638100000000003,-0.004547,-0.21554600000000002,-0.003817,0.001292,0.0007700000000000001,-32.060001,-22.5,-11.37,2c
2019-07-15_121924:780,-0.446899,-0.006072999999999999,-0.21505700000000003,-0.004213000000000001,0.0008039999999999999,0.000709,-31.370001000000002,-22.5,-13.0,2c
2019-07-15_121924:800,-0.448425,-0.005065999999999999,-0.213531,-0.00461,0.000621,-0.000512,-31.370001000000002,-22.5,-13.0,2c
2019-07-15_121924:820,-0.447906,-0.005065999999999999,-0.21453899999999998,-0.0048850000000000005,0.00016299999999999998,-0.000267,-31.370001000000002,-22.5,-13.0,2c
2019-07-15_121924:840,-0.44995100000000005,-0.007111,-0.21505700000000003,-0.0048850000000000005,0.000133,6.8e-05,-31.68,-22.870001000000002,-13.37,2c
2019-07-15_121924:860,-0.44891400000000004,-0.008118,-0.217072,-0.004824,0.000499,-0.000176,-31.68,-22.870001000000002,-13.37,2c
2019-07-15_121924:880,-0.448425,-0.006592,-0.217072,-0.004671,0.000468,-0.000176,-32.060001,-22.18,-11.75,2c
2019-07-15_121924:900,-0.447906,-0.008118,-0.21606399999999998,-0.004336,0.000468,0.00016,-32.060001,-22.18,-11.75,2c
2019-07-15_121924:920,-0.448425,-0.008636,-0.21810900000000003,-0.00403,0.000407,0.000221,-32.060001,-22.18,-11.75,2c
2019-07-15_121924:940,-0.44891400000000004,-0.008636,-0.21859699999999999,-0.0036340000000000005,0.000499,-0.00011499999999999999,-32.060001,-22.5,-11.75,2c
2019-07-15_121924:960,-0.449432,-0.008118,-0.217072,-0.002932,0.00056,-0.000573,-32.060001,-22.5,-11.75,2c
2019-07-15_121924:980,-0.448425,-0.007599,-0.217072,-0.002443,0.0009570000000000001,-0.000664,-32.060001,-22.5,-12.18,2c
2019-07-15_121925:000,-0.447906,-0.0055850000000000006,-0.21606399999999998,-0.001925,0.001018,-0.000389,-32.060001,-22.5,-12.18,2c
2019-07-15_121925:020,-0.449432,-0.004059,-0.21911599999999998,-0.0017109999999999998,0.000682,-0.00011499999999999999,-32.060001,-22.5,-12.18,2c
2019-07-15_121925:040,-0.447388,-0.0030210000000000002,-0.219635,-0.0018030000000000001,0.0008039999999999999,-0.00011499999999999999,-32.060001,-22.870001000000002,-12.56,2c
2019-07-15_121925:060,-0.448425,-0.000488,-0.21859699999999999,-0.002199,0.000743,0.000343,-32.060001,-22.870001000000002,-12.56,2c
2019-07-15_121925:080,-0.448425,-0.0025329999999999997,-0.220642,-0.003176,0.000743,0.000831,-32.5,-22.870001000000002,-12.18,2c
2019-07-15_121925:100,-0.446899,-0.0035399999999999997,-0.219635,-0.0034509999999999996,0.001018,0.000343,-32.5,-22.870001000000002,-12.18,2c
2019-07-15_121925:120,-0.449432,-0.004059,-0.22879000000000002,-0.004,0.000621,0.00016,-32.5,-22.870001000000002,-12.18,2c
2019-07-15_121925:140,-0.441284,-0.006592,-0.21249400000000002,-0.004427,0.001415,0.000465,-32.5,-22.870001000000002,-11.75,2c
2019-07-15_121925:160,-0.45043900000000003,-0.007111,-0.21810900000000003,-0.0037560000000000002,0.0008039999999999999,0.000404,-32.5,-22.870001000000002,-11.75,2c
2019-07-15_121925:180,-0.446899,-0.005065999999999999,-0.21759,-0.0036340000000000005,0.0010789999999999999,0.000343,-32.5,-23.25,-11.75,2c
2019-07-15_121925:200,-0.449432,-0.004547,-0.22164899999999998,-0.00339,0.001292,0.000526,-32.5,-23.25,-11.75,2c
2019-07-15_121925:220,-0.44891400000000004,-0.0035399999999999997,-0.22116100000000002,-0.003573,0.0016589999999999999,0.00028199999999999997,-32.5,-23.25,-11.75,2c
2019-07-15_121925:240,-0.446899,-0.004059,-0.22116100000000002,-0.003664,0.0016589999999999999,0.00028199999999999997,-31.370001000000002,-22.870001000000002,-11.75,2c
2019-07-15_121925:260,-0.445862,-0.004059,-0.22116100000000002,-0.003878,0.0017809999999999998,0.00016,-31.370001000000002,-22.870001000000002,-11.75,2c
2019-07-15_121925:280,-0.44638100000000003,-0.005065999999999999,-0.220123,-0.003664,0.00172,0.000129,-31.370001000000002,-23.25,-13.75,2c
2019-07-15_121925:300,-0.445862,-0.006072999999999999,-0.220123,-0.0033280000000000002,0.001628,-0.000176,-31.370001000000002,-23.25,-13.75,2c
2019-07-15_121925:320,-0.446899,-0.007111,-0.220642,-0.0028399999999999996,0.001353,-0.000267,-31.370001000000002,-23.25,-13.75,2c
2019-07-15_121925:340,-0.447388,-0.006072999999999999,-0.219635,-0.002321,0.001292,6.8e-05,-31.370001000000002,-22.870001000000002,-11.75,2c
2019-07-15_121925:360,-0.44891400000000004,-0.005065999999999999,-0.22116100000000002,-0.0021079999999999996,0.001598,0.00016,-31.370001000000002,-22.870001000000002,-11.75,2c
2019-07-15_121925:380,-0.44891400000000004,-0.0030210000000000002,-0.220642,-0.001986,0.001537,0.00028199999999999997,-32.060001,-23.25,-12.18,2c
2019-07-15_121925:400,-0.447388,-0.0030210000000000002,-0.21859699999999999,-0.002321,0.0019030000000000002,0.00028199999999999997,-32.060001,-23.25,-12.18,2c
2019-07-15_121925:420,-0.445374,-0.001495,-0.220642,-0.002718,0.001964,0.000343,-32.060001,-23.25,-12.18,2c
2019-07-15_121925:440,-0.44638100000000003,-0.0025329999999999997,-0.21759,-0.0031149999999999997,0.0019030000000000002,0.000496,-32.060001,-22.5,-11.0,2c
2019-07-15_121925:460,-0.447388,-0.004059,-0.21810900000000003,-0.0034509999999999996,0.002116,0.000709,-32.060001,-22.5,-11.0,2c
2019-07-15_121925:480,-0.445862,-0.004547,-0.219635,-0.0037560000000000002,0.001964,0.000831,-32.5,-22.18,-13.75,2c
2019-07-15_121925:500,-0.445374,-0.004547,-0.21759,-0.003817,0.0016589999999999999,0.0008619999999999999,-32.5,-22.18,-13.75,2c
2019-07-15_121925:520,-0.446899,-0.0055850000000000006,-0.21859699999999999,-0.0037560000000000002,0.001415,0.000709,-32.5,-22.18,-13.75,2c
2019-07-15_121925:540,-0.447906,-0.006072999999999999,-0.21810900000000003,-0.0037560000000000002,0.00114,0.000648,-32.060001,-22.870001000000002,-13.37,2c
2019-07-15_121925:560,-0.44995100000000005,-0.007111,-0.21810900000000003,-0.003573,0.001292,0.000831,-32.060001,-22.870001000000002,-13.37,2c
2019-07-15_121925:580,-0.448425,-0.007111,-0.219635,-0.003664,0.00172,0.000709,-32.060001,-22.5,-13.0,2c
2019-07-15_121925:600,-0.448425,-0.006592,-0.21810900000000003,-0.00339,0.001628,0.000648,-32.060001,-22.5,-13.0,2c
2019-07-15_121925:620,-0.447388,-0.008118,-0.21810900000000003,-0.003176,0.001628,0.000526,-32.060001,-22.5,-13.0,2c
2019-07-15_121925:640,-0.447388,-0.008118,-0.21810900000000003,-0.003054,0.001842,0.000465,-32.5,-22.870001000000002,-13.37,2c
2019-07-15_121925:660,-0.44891400000000004,-0.007599,-0.21810900000000003,-0.002779,0.0019030000000000002,0.000343,-32.5,-22.870001000000002,-13.37,2c
2019-07-15_121925:680,-0.448425,-0.008118,-0.21810900000000003,-0.0025960000000000002,0.002055,0.000465,-32.75,-23.559998999999998,-11.75,2c
2019-07-15_121925:700,-0.447906,-0.007111,-0.21606399999999998,-0.0025960000000000002,0.001964,0.000221,-32.75,-23.559998999999998,-11.75,2c
2019-07-15_121925:720,-0.44995100000000005,-0.007111,-0.21759,-0.002535,0.001964,0.000221,-32.75,-23.559998999999998,-11.75,2c
2019-07-15_121925:740,-0.44638100000000003,-0.008118,-0.217072,-0.0025050000000000003,0.002116,0.000129,-32.060001,-22.5,-13.0,2c
2019-07-15_121925:760,-0.44638100000000003,-0.006592,-0.21554600000000002,-0.002382,0.001628,-0.000176,-32.060001,-22.5,-13.0,2c
2019-07-15_121925:780,-0.446899,-0.006072999999999999,-0.216583,-0.002535,0.00172,-0.000176,-32.060001,-22.18,-11.75,2c
2019-07-15_121925:800,-0.44433599999999995,-0.004059,-0.21505700000000003,-0.0025960000000000002,0.0012619999999999999,-5.4000000000000005e-05,-32.060001,-22.18,-11.75,2c
2019-07-15_121925:820,-0.447906,-0.0030210000000000002,-0.21759,-0.002932,0.0008960000000000001,0.00016,-32.060001,-22.18,-11.75,2c
2019-07-15_121925:840,-0.446899,-0.002014,-0.21810900000000003,-0.003512,0.0010789999999999999,0.00028199999999999997,-32.060001,-22.870001000000002,-12.18,2c
2019-07-15_121925:860,-0.451477,-0.0030210000000000002,-0.21810900000000003,-0.004152,0.000865,7.000000000000001e-06,-32.060001,-22.870001000000002,-12.18,2c
2019-07-15_121925:880,-0.44638100000000003,-0.0030210000000000002,-0.21759,-0.005068,0.001292,0.0008619999999999999,-32.5,-22.18,-12.56,2c
2019-07-15_121925:900,-0.447388,-0.006072999999999999,-0.21759,-0.005404,0.00172,0.000923,-32.5,-22.18,-12.56,2c
2019-07-15_121925:920,-0.44433599999999995,-0.007111,-0.21810900000000003,-0.005465,0.0010789999999999999,0.000465,-32.5,-22.18,-12.56,2c
2019-07-15_121925:940,-0.447388,-0.010651,-0.21810900000000003,-0.005129,0.000743,0.00028199999999999997,-32.060001,-22.870001000000002,-12.18,2c
2019-07-15_121925:960,-0.44995100000000005,-0.009125,-0.21859699999999999,-0.0048850000000000005,0.000621,-0.000664,-32.060001,-22.870001000000002,-12.18,2c
2019-07-15_121925:980,-0.44995100000000005,-0.009125,-0.21859699999999999,-0.004427,0.000743,0.000465,-31.68,-23.559998999999998,-13.0,2c
2019-07-15_121926:000,-0.447906,-0.009644,-0.21911599999999998,-0.0036950000000000004,0.0008960000000000001,0.000465,-31.68,-23.559998999999998,-13.0,2c
2019-07-15_121926:020,-0.449432,-0.007599,-0.219635,-0.0032979999999999997,0.001353,6.8e-05,-31.68,-23.559998999999998,-13.0,2c
2019-07-15_121926:040,-0.448425,-0.006592,-0.219635,-0.0028399999999999996,0.001628,0.00028199999999999997,-32.5,-22.870001000000002,-12.56,2c
2019-07-15_121926:060,-0.447388,-0.004547,-0.21810900000000003,-0.002932,0.00172,0.00028199999999999997,-32.5,-22.870001000000002,-12.56,2c
2019-07-15_121926:080,-0.445374,-0.0055850000000000006,-0.21810900000000003,-0.0031149999999999997,0.001628,0.000526,-31.370001000000002,-22.5,-13.0,2c
2019-07-15_121926:100,-0.44638100000000003,-0.007599,-0.217072,-0.0034509999999999996,0.001598,0.000343,-31.370001000000002,-22.5,-13.0,2c
2019-07-15_121926:120,-0.446899,-0.007111,-0.21810900000000003,-0.0034509999999999996,0.0014759999999999999,6.8e-05,-31.370001000000002,-22.5,-13.0,2c
2019-07-15_121926:140,-0.445374,-0.008118,-0.21859699999999999,-0.0034509999999999996,0.0012619999999999999,0.000129,-32.060001,-22.18,-12.56,2c
2019-07-15_121926:160,-0.445862,-0.007111,-0.21810900000000003,-0.00339,0.000865,7.000000000000001e-06,-32.060001,-22.18,-12.56,2c
2019-07-15_121926:180,-0.448425,-0.007599,-0.22116100000000002,-0.002932,0.000682,6.8e-05,-32.060001,-22.870001000000002,-11.75,2c
2019-07-15_121926:200,-0.448425,-0.007111,-0.21810900000000003,-0.002657,0.0008960000000000001,7.000000000000001e-06,-32.060001,-22.870001000000002,-11.75,2c
2019-07-15_121926:220,-0.447388,-0.004547,-0.220123,-0.0029010000000000004,0.00114,0.000343,-32.060001,-22.870001000000002,-11.75,2c
2019-07-15_121926:240,-0.448425,-0.005065999999999999,-0.21810900000000003,-0.003054,0.001353,0.000496,-32.060001,-22.870001000000002,-13.0,2c
2019-07-15_121926:260,-0.447906,-0.0055850000000000006,-0.21810900000000003,-0.00339,0.0012619999999999999,-0.000725,-32.060001,-22.870001000000002,-13.0,2c
2019-07-15_121926:280,-0.446899,-0.004547,-0.219635,-0.003664,0.0010789999999999999,-0.000664,-32.060001,-22.5,-13.0,2c
2019-07-15_121926:300,-0.44891400000000004,-0.007111,-0.21859699999999999,-0.003878,0.001353,6.8e-05,-32.060001,-22.5,-13.0,2c
2019-07-15_121926:320,-0.44891400000000004,-0.0055850000000000006,-0.220123,-0.003878,0.001598,-0.00023700000000000001,-32.060001,-22.5,-13.0,2c
2019-07-15_121926:340,-0.449432,-0.006072999999999999,-0.220123,-0.003664,0.001628,0.000404,-32.5,-22.870001000000002,-12.18,2c
2019-07-15_121926:360,-0.449432,-0.006592,-0.21810900000000003,-0.003817,0.0019030000000000002,0.00028199999999999997,-32.5,-22.870001000000002,-12.18,2c
2019-07-15_121926:380,-0.44891400000000004,-0.004547,-0.21810900000000003,-0.0036340000000000005,0.002177,-0.00011499999999999999,-31.0,-22.870001000000002,-13.0,2c
2019-07-15_121926:400,-0.447388,-0.0055850000000000006,-0.21911599999999998,-0.003664,0.002361,7.000000000000001e-06,-31.0,-22.870001000000002,-13.0,2c
2019-07-15_121926:420,-0.44384799999999996,-0.004547,-0.21810900000000003,-0.003573,0.002116,-0.000176,-31.0,-22.870001000000002,-13.0,2c
2019-07-15_121926:440,-0.445374,-0.005065999999999999,-0.217072,-0.003512,0.001964,-0.00011499999999999999,-31.370001000000002,-22.5,-13.0,2c
2019-07-15_121926:460,-0.44638100000000003,-0.0055850000000000006,-0.21759,-0.0031149999999999997,0.001415,-0.00045099999999999996,-31.370001000000002,-22.5,-13.0,2c
2019-07-15_121926:480,-0.447906,-0.005065999999999999,-0.21759,-0.002993,0.0010789999999999999,-0.000512,-32.060001,-22.870001000000002,-12.56,2c
2019-07-15_121926:500,-0.448425,-0.0035399999999999997,-0.21759,-0.002779,0.001201,-0.00023700000000000001,-32.060001,-22.870001000000002,-12.56,2c
2019-07-15_121926:520,-0.448425,-0.004547,-0.21810900000000003,-0.002657,0.001415,7.000000000000001e-06,-32.060001,-22.870001000000002,-12.56,2c
2019-07-15_121926:540,-0.447906,-0.0035399999999999997,-0.21810900000000003,-0.002779,0.001353,0.000129,-32.75,-22.870001000000002,-12.18,2c
2019-07-15_121926:560,-0.446899,-0.002014,-0.21810900000000003,-0.002993,0.001537,0.000129,-32.75,-22.870001000000002,-12.18,2c
2019-07-15_121926:580,-0.448425,-0.0030210000000000002,-0.21859699999999999,-0.00339,0.001201,0.00016,-32.060001,-22.870001000000002,-13.0,2c
2019-07-15_121926:600,-0.448425,-0.0035399999999999997,-0.21859699999999999,-0.0036340000000000005,0.001353,0.000404,-32.060001,-22.870001000000002,-13.0,2c
2019-07-15_121926:620,-0.44638100000000003,-0.0035399999999999997,-0.21759,-0.003664,0.001292,0.000496,-32.060001,-22.870001000000002,-13.0,2c
2019-07-15_121926:640,-0.448425,-0.005065999999999999,-0.219635,-0.003664,0.0010789999999999999,0.000404,-31.370001000000002,-22.870001000000002,-12.56,2c
2019-07-15_121926:660,-0.449432,-0.0055850000000000006,-0.21810900000000003,-0.003878,0.0010789999999999999,0.000587,-31.370001000000002,-22.870001000000002,-12.56,2c
2019-07-15_121926:680,-0.448425,-0.0055850000000000006,-0.220123,-0.0037560000000000002,0.001415,0.0007700000000000001,-31.370001000000002,-23.25,-11.37,2c
2019-07-15_121926:700,-0.448425,-0.006072999999999999,-0.219635,-0.003664,0.001537,0.0008619999999999999,-31.370001000000002,-23.25,-11.37,2c
2019-07-15_121926:720,-0.447388,-0.006592,-0.219635,-0.0036340000000000005,0.001537,0.000984,-31.370001000000002,-23.25,-11.37,2c
2019-07-15_121926:740,-0.44638100000000003,-0.007111,-0.21911599999999998,-0.003573,0.001628,0.000587,-32.060001,-22.5,-13.0,2c
2019-07-15_121926:760,-0.446899,-0.007599,-0.21810900000000003,-0.003512,0.001415,0.000526,-32.060001,-22.5,-13.0,2c
2019-07-15_121926:780,-0.44638100000000003,-0.007111,-0.21911599999999998,-0.0031149999999999997,0.0017809999999999998,0.000496,-32.75,-22.5,-13.0,2c
2019-07-15_121926:800,-0.44638100000000003,-0.005065999999999999,-0.21759,-0.002779,0.00172,0.000404,-32.75,-22.5,-13.0,2c
2019-07-15_121926:820,-0.445862,-0.0055850000000000006,-0.219635,-0.002718,0.001292,0.000404,-32.75,-22.5,-13.0,2c
2019-07-15_121926:840,-0.446899,-0.004059,-0.21810900000000003,-0.002718,0.001415,0.000465,-32.060001,-22.5,-12.56,2c
2019-07-15_121926:860,-0.448425,-0.004059,-0.21911599999999998,-0.0029010000000000004,0.001537,0.000465,-32.060001,-22.5,-12.56,2c
2019-07-15_121926:880,-0.44995100000000005,-0.005065999999999999,-0.21859699999999999,-0.003176,0.001598,0.00028199999999999997,-32.5,-22.870001000000002,-12.56,2c
2019-07-15_121926:900,-0.448425,-0.005065999999999999,-0.21810900000000003,-0.003512,0.0019030000000000002,0.00028199999999999997,-32.5,-22.870001000000002,-12.56,2c
2019-07-15_121926:920,-0.44638100000000003,-0.0055850000000000006,-0.21911599999999998,-0.003664,0.002116,0.000648,-32.5,-22.870001000000002,-12.56,2c
2019-07-15_121926:940,-0.447906,-0.007111,-0.21759,-0.0036340000000000005,0.001964,0.000496,-31.370001000000002,-22.18,-12.18,2c
2019-07-15_121926:960,-0.446899,-0.006072999999999999,-0.21606399999999998,-0.003664,0.0016589999999999999,0.000496,-31.370001000000002,-22.18,-12.18,2c
2019-07-15_121926:980,-0.448425,-0.006592,-0.21759,-0.0034509999999999996,0.001628,0.000648,-32.060001,-22.5,-13.0,2c
2019-07-15_121927:000,-0.447906,-0.007599,-0.21810900000000003,-0.0033280000000000002,0.001598,0.000343,-32.060001,-22.5,-13.0,2c
2019-07-15_121927:020,-0.44891400000000004,-0.007111,-0.21759,-0.0032979999999999997,0.001537,0.000465,-32.060001,-22.5,-13.0,2c
2019-07-15_121927:040,-0.447906,-0.007599,-0.217072,-0.0031149999999999997,0.0017809999999999998,0.000587,-31.68,-22.5,-13.75,2c
2019-07-15_121927:060,-0.446899,-0.0055850000000000006,-0.21759,-0.003176,0.0016589999999999999,0.000648,-31.68,-22.5,-13.75,2c
2019-07-15_121927:080,-0.44891400000000004,-0.007111,-0.21759,-0.003054,0.0016589999999999999,0.00016,-31.68,-22.870001000000002,-13.0,2c
2019-07-15_121927:100,-0.447906,-0.004547,-0.21402,-0.003237,0.001842,0.000923,-31.68,-22.870001000000002,-13.0,2c
2019-07-15_121927:120,-0.448425,-0.008636,-0.21810900000000003,-0.0032979999999999997,0.001964,0.001625,-31.68,-22.870001000000002,-13.0,2c
2019-07-15_121927:140,-0.446899,-0.007111,-0.217072,-0.003512,0.001842,0.000831,-32.060001,-22.18,-11.37,2c
2019-07-15_121927:160,-0.447388,-0.008636,-0.216583,-0.0034509999999999996,0.001415,0.000496,-32.060001,-22.18,-11.37,2c
2019-07-15_121927:180,-0.448425,-0.007599,-0.21606399999999998,-0.003664,0.0009570000000000001,-0.000664,-31.68,-22.5,-13.37,2c
2019-07-15_121927:200,-0.447388,-0.007599,-0.21810900000000003,-0.003573,0.001201,-0.00011499999999999999,-31.68,-22.5,-13.37,2c
2019-07-15_121927:220,-0.447388,-0.008636,-0.21859699999999999,-0.003512,0.0010789999999999999,0.00016,-31.68,-22.5,-13.37,2c
2019-07-15_121927:240,-0.449432,-0.007111,-0.21810900000000003,-0.0033280000000000002,0.001018,-0.000573,-31.370001000000002,-22.5,-12.56,2c
2019-07-15_121927:260,-0.449432,-0.008118,-0.216583,-0.003176,0.001598,-0.000328,-31.370001000000002,-22.5,-12.56,2c
2019-07-15_121927:280,-0.447388,-0.007111,-0.21759,-0.0031149999999999997,0.00172,-0.000328,-31.68,-22.18,-11.75,2c
2019-07-15_121927:300,-0.448425,-0.008636,-0.217072,-0.0029010000000000004,0.001842,-0.00011499999999999999,-31.68,-22.18,-11.75,2c
2019-07-15_121927:320,-0.446899,-0.008636,-0.21911599999999998,-0.002779,0.0016589999999999999,6.8e-05,-31.68,-22.18,-11.75,2c
2019-07-15_121927:340,-0.445862,-0.008636,-0.21859699999999999,-0.002657,0.001842,-0.00011499999999999999,-32.5,-22.18,-12.18,2c
2019-07-15_121927:360,-0.445862,-0.008118,-0.21810900000000003,-0.0025960000000000002,0.001598,-0.000328,-32.5,-22.18,-12.18,2c
2019-07-15_121927:380,-0.44995100000000005,-0.006072999999999999,-0.220642,-0.0025050000000000003,0.0014759999999999999,-0.000573,-32.060001,-22.870001000000002,-13.0,2c
2019-07-15_121927:400,-0.44995100000000005,-0.006072999999999999,-0.220642,-0.002779,0.001537,-0.0008470000000000001,-32.060001,-22.870001000000002,-13.0,2c
2019-07-15_121927:420,-0.449432,-0.006592,-0.22116100000000002,-0.0028399999999999996,0.001537,-0.0010609999999999999,-32.060001,-22.870001000000002,-13.0,2c
2019-07-15_121927:440,-0.45095799999999997,-0.007599,-0.22164899999999998,-0.002932,0.002239,-0.000908,-31.370001000000002,-22.870001000000002,-12.18,2c
2019-07-15_121927:460,-0.445862,-0.008118,-0.219635,-0.002993,0.002635,-0.00045099999999999996,-31.370001000000002,-22.870001000000002,-12.18,2c
2019-07-15_121927:480,-0.447388,-0.012177,-0.22164899999999998,-0.0022600000000000003,0.0024519999999999998,-0.000664,-31.68,-22.5,-11.0,2c
2019-07-15_121927:500,-0.445374,-0.011169,-0.220123,-0.0015890000000000001,0.002635,-0.001641,-31.68,-22.5,-11.0,2c
2019-07-15_121927:520,-0.446899,-0.011169,-0.219635,-0.000734,0.002177,-0.0011220000000000002,-31.68,-22.5,-11.0,2c
2019-07-15_121927:540,-0.44638100000000003,-0.012177,-0.22164899999999998,0.000212,0.0019030000000000002,-0.001366,-32.5,-22.870001000000002,-12.56,2c
2019-07-15_121927:560,-0.447388,-0.011687999999999999,-0.219635,0.001341,0.00172,-0.0017629999999999998,-32.5,-22.870001000000002,-12.56,2c
2019-07-15_121927:580,-0.447906,-0.011687999999999999,-0.21759,0.00247,0.0016589999999999999,-0.0010609999999999999,-31.68,-22.5,-12.56,2c
2019-07-15_121927:600,-0.447906,-0.011687999999999999,-0.21606399999999998,0.003721,0.00172,-0.000328,-31.68,-22.5,-12.56,2c
2019-07-15_121927:620,-0.44995100000000005,-0.012695,-0.217072,0.004667,0.001842,6.8e-05,-31.68,-22.5,-12.56,2c
2019-07-15_121927:640,-0.44891400000000004,-0.012177,-0.21810900000000003,0.005461,0.001628,0.000587,-31.68,-22.18,-12.56,2c
2019-07-15_121927:660,-0.44638100000000003,-0.011169,-0.217072,0.005979,0.0014759999999999999,-0.000176,-31.68,-22.18,-12.56,2c
2019-07-15_121927:680,-0.447906,-0.011169,-0.21810900000000003,0.006376,0.001628,-0.000176,-32.060001,-23.25,-12.56,2c
2019-07-15_121927:700,-0.447388,-0.012177,-0.216583,0.006498,0.001842,-0.000328,-32.060001,-23.25,-12.56,2c
2019-07-15_121927:720,-0.449432,-0.010651,-0.21810900000000003,0.006376,0.001994,-0.0008470000000000001,-32.060001,-23.25,-12.56,2c
2019-07-15_121927:740,-0.448425,-0.010651,-0.21911599999999998,0.006162,0.00172,-0.0012439999999999999,-31.370001000000002,-22.5,-13.75,2c
2019-07-15_121927:760,-0.44891400000000004,-0.009125,-0.21606399999999998,0.005705,0.001598,-0.001,-31.370001000000002,-22.5,-13.75,2c
2019-07-15_121927:780,-0.447388,-0.009644,-0.21606399999999998,0.004911,0.001415,-0.000512,-31.370001000000002,-22.18,-13.75,2c
2019-07-15_121927:800,-0.446899,-0.010162000000000001,-0.21759,0.004331000000000001,0.0014759999999999999,-0.00023700000000000001,-31.370001000000002,-22.18,-13.75,2c
2019-07-15_121927:820,-0.44891400000000004,-0.010162000000000001,-0.21759,0.0034460000000000003,0.001292,-0.000634,-31.370001000000002,-22.18,-13.75,2c
2019-07-15_121927:840,-0.447388,-0.010162000000000001,-0.217072,0.002806,0.001537,-0.0012439999999999999,-32.5,-22.5,-13.37,2c
2019-07-15_121927:860,-0.45095799999999997,-0.009644,-0.21402,0.001737,0.0017809999999999998,-0.0010609999999999999,-32.5,-22.5,-13.37,2c
2019-07-15_121927:880,-0.451477,-0.010651,-0.213531,0.000944,0.002177,-0.001183,-31.370001000000002,-22.5,-14.18,2c
2019-07-15_121927:900,-0.453491,-0.010651,-0.213013,0.000273,0.002757,-0.001854,-31.370001000000002,-22.5,-14.18,2c
2019-07-15_121927:920,-0.45095799999999997,-0.010651,-0.210968,-0.000521,0.003093,-0.002434,-31.370001000000002,-22.5,-14.18,2c
2019-07-15_121927:940,-0.44995100000000005,-0.012177,-0.20944200000000002,-0.000857,0.003246,-0.003106,-32.060001,-22.5,-14.18,2c
2019-07-15_121927:960,-0.447906,-0.012177,-0.20944200000000002,-0.000918,0.003093,-0.003228,-32.060001,-22.5,-14.18,2c
2019-07-15_121927:980,-0.446899,-0.015747,-0.21249400000000002,0.000151,0.002116,-0.003045,-31.68,-22.5,-13.75,2c
2019-07-15_121928:000,-0.447388,-0.015228,-0.212006,0.000608,0.001964,-0.003319,-31.68,-22.5,-13.75,2c
2019-07-15_121928:020,-0.447906,-0.015228,-0.21148699999999998,0.002409,0.001842,-0.0028309999999999997,-31.68,-22.5,-13.75,2c
2019-07-15_121928:040,-0.448425,-0.015747,-0.212006,0.002806,0.0016589999999999999,-0.002526,-32.5,-22.5,-14.18,2c
2019-07-15_121928:060,-0.449432,-0.013702,-0.21048000000000003,0.003782,0.001415,-0.002251,-32.5,-22.5,-14.18,2c
2019-07-15_121928:080,-0.45043900000000003,-0.013702,-0.21249400000000002,0.003996,0.001292,-0.0023120000000000003,-31.68,-22.18,-13.0,2c
2019-07-15_121928:100,-0.44995100000000005,-0.012177,-0.213013,0.0041789999999999996,0.0012619999999999999,-0.002373,-31.68,-22.18,-13.0,2c
2019-07-15_121928:120,-0.45095799999999997,-0.010651,-0.21249400000000002,0.004118,0.001353,-0.002098,-31.68,-22.18,-13.0,2c
2019-07-15_121928:140,-0.453003,-0.010162000000000001,-0.21249400000000002,0.00366,0.001415,-0.002037,-32.060001,-22.5,-13.37,2c
2019-07-15_121928:160,-0.45043900000000003,-0.009125,-0.213013,0.002928,0.001353,-0.0017629999999999998,-32.060001,-22.5,-13.37,2c
2019-07-15_121928:180,-0.45043900000000003,-0.010162000000000001,-0.21249400000000002,0.002409,0.001537,-0.001641,-31.68,-22.870001000000002,-14.87,2c
2019-07-15_121928:200,-0.45043900000000003,-0.010162000000000001,-0.21148699999999998,0.001585,0.001201,-0.001183,-31.68,-22.870001000000002,-14.87,2c
2019-07-15_121928:220,-0.449432,-0.009644,-0.21249400000000002,0.000883,0.001353,-0.0009689999999999999,-31.68,-22.870001000000002,-14.87,2c
2019-07-15_121928:240,-0.447388,-0.009644,-0.213531,0.000669,0.001292,-0.0010609999999999999,-31.370001000000002,-22.870001000000002,-14.5,2c
2019-07-15_121928:260,-0.449432,-0.009644,-0.213531,-0.000185,0.0008960000000000001,-0.0010609999999999999,-31.370001000000002,-22.870001000000002,-14.5,2c
2019-07-15_121928:280,-0.44891400000000004,-0.008118,-0.213531,-0.000521,0.001018,-0.0009689999999999999,-31.0,-22.870001000000002,-14.87,2c
2019-07-15_121928:300,-0.449432,-0.009125,-0.213531,-0.0018030000000000001,0.000743,-0.00023700000000000001,-31.0,-22.870001000000002,-14.87,2c
2019-07-15_121928:320,-0.449432,-0.009644,-0.21402,-0.0025960000000000002,0.000743,-0.000786,-31.0,-22.870001000000002,-14.87,2c
2019-07-15_121928:340,-0.451477,-0.009644,-0.21453899999999998,-0.0029010000000000004,0.000865,-0.001,-31.0,-21.75,-16.059998999999998,2c
2019-07-15_121928:360,-0.448425,-0.010651,-0.212006,-0.003573,0.0012619999999999999,0.000343,-31.0,-21.75,-16.059998999999998,2c
