timestamp,AccX,AccY,AccZ,GyroX,GyroY,GyroZ,MagX,MagY,MagZ,Activity
2019-07-15_184905:660,-0.398071,-0.054901,-0.297913,-0.005068,0.004314,-0.0009689999999999999,-27.059998999999998,-20.68,-24.5,1a
2019-07-15_184905:680,-0.388428,-0.057953,-0.29742399999999997,-0.006136,0.004619,0.001045,-27.059998999999998,-20.68,-24.5,1a
2019-07-15_184905:700,-0.381317,-0.063019,-0.30300900000000003,-0.005953,0.0042829999999999995,0.001625,-27.059998999999998,-20.68,-24.5,1a
2019-07-15_184905:720,-0.390961,-0.061005,-0.302002,-0.0051600000000000005,0.0024519999999999998,-0.001366,-26.68,-19.870001000000002,-24.5,1a
2019-07-15_184905:740,-0.40570100000000003,-0.051849,-0.296906,-0.0029010000000000004,0.0016589999999999999,-0.006157,-26.68,-19.870001000000002,-24.5,1a
2019-07-15_184905:760,-0.40570100000000003,-0.049805,-0.296387,-0.002382,0.002177,-0.005883,-26.25,-21.0,-24.75,1a
2019-07-15_184905:780,-0.399109,-0.045745999999999995,-0.293854,-0.0015890000000000001,0.00352,-0.004296,-26.25,-21.0,-24.75,1a
2019-07-15_184905:800,-0.398071,-0.042694,-0.29486100000000004,-0.0015890000000000001,0.00349,-0.0033799999999999998,-26.25,-21.0,-24.75,1a
2019-07-15_184905:820,-0.399109,-0.039642000000000004,-0.294373,-0.001375,0.003246,-0.001702,-26.25,-21.0,-24.75,1a
2019-07-15_184905:840,-0.398071,-0.039642000000000004,-0.29486100000000004,-0.001467,0.003307,-0.001458,-26.25,-21.0,-24.75,1a
2019-07-15_184905:860,-0.397583,-0.036591000000000005,-0.293854,-0.001925,0.003246,-0.0008470000000000001,-26.25,-20.25,-24.5,1a
2019-07-15_184905:880,-0.397064,-0.037598,-0.28875700000000004,-0.0028399999999999996,0.003307,-0.00011499999999999999,-26.25,-20.25,-24.5,1a
2019-07-15_184905:900,-0.397064,-0.041687,-0.28875700000000004,-0.00403,0.003124,0.000465,-26.25,-20.25,-24.5,1a
2019-07-15_184905:920,-0.39502,-0.043701,-0.28979499999999997,-0.005068,0.003032,0.000587,-26.25,-20.68,-24.5,1a
2019-07-15_184905:940,-0.393494,-0.048798,-0.290283,-0.005861,0.0016589999999999999,0.000526,-26.25,-20.68,-24.5,1a
2019-07-15_184905:960,-0.395538,-0.047272,-0.29180900000000004,-0.005922,0.0009570000000000001,0.000343,-26.0,-20.68,-24.75,1a
2019-07-15_184905:980,-0.39859,-0.046752999999999996,-0.28927600000000003,-0.005556,7.2e-05,0.000648,-26.0,-20.68,-24.75,1a
2019-07-15_184906:000,-0.397064,-0.047791,-0.28979499999999997,-0.005465,1.1e-05,0.0007700000000000001,-26.0,-20.68,-24.75,1a
2019-07-15_184906:020,-0.396545,-0.045745999999999995,-0.287231,-0.0051600000000000005,-0.00011100000000000001,0.001106,-27.059998999999998,-21.0,-25.559998999999998,1a
2019-07-15_184906:040,-0.396545,-0.045745999999999995,-0.28875700000000004,-0.005282,-0.000233,0.001258,-27.059998999999998,-21.0,-25.559998999999998,1a
2019-07-15_184906:060,-0.399597,-0.041168,-0.28875700000000004,-0.005953,-0.0008439999999999999,0.000984,-27.059998999999998,-20.68,-25.559998999999998,1a
2019-07-15_184906:080,-0.407227,-0.035065,-0.282654,-0.007448000000000001,-0.001302,0.000221,-27.059998999999998,-20.68,-25.559998999999998,1a
2019-07-15_184906:100,-0.409271,-0.034058,-0.269958,-0.009737,-0.0005690000000000001,-0.000267,-27.059998999999998,-20.68,-25.559998999999998,1a
2019-07-15_184906:120,-0.410797,-0.032013,-0.259796,-0.013643,0.000407,-0.00011499999999999999,-26.0,-21.0,-25.25,1a
2019-07-15_184906:140,-0.41485600000000006,-0.035583,-0.25012199999999996,-0.021151,0.00056,0.003486,-26.0,-21.0,-25.25,1a
2019-07-15_184906:160,-0.410278,-0.043213,-0.248108,-0.023806,0.00022400000000000002,0.0038829999999999997,-26.0,-21.0,-24.5,1a
2019-07-15_184906:180,-0.407227,-0.047272,-0.245056,-0.027712,-0.001393,0.002784,-26.0,-21.0,-24.5,1a
2019-07-15_184906:200,-0.412811,-0.048279,-0.24963400000000002,-0.030092,-0.004109000000000001,0.000404,-26.0,-21.0,-24.5,1a
2019-07-15_184906:220,-0.425018,-0.047791,-0.257751,-0.031161,-0.007161,-0.002648,-26.68,-21.0,-24.75,1a
2019-07-15_184906:240,-0.438751,-0.046752999999999996,-0.261322,-0.030427999999999997,-0.008137,-0.005425,-26.68,-21.0,-24.75,1a
2019-07-15_184906:260,-0.454529,-0.041687,-0.262848,-0.028383,-0.006612000000000001,-0.008416,-25.559998999999998,-22.18,-24.5,1a
2019-07-15_184906:280,-0.455017,-0.035065,-0.266388,-0.026064,-0.003102,-0.010216,-25.559998999999998,-22.18,-24.5,1a
2019-07-15_184906:300,-0.44995100000000005,-0.031494,-0.284698,-0.023531,-0.001759,-0.009026000000000001,-25.559998999999998,-22.18,-24.5,1a
2019-07-15_184906:320,-0.45706199999999997,-0.031006,-0.29486100000000004,-0.020083,-0.001363,-0.008537999999999999,-26.25,-22.5,-24.0,1a
2019-07-15_184906:340,-0.49823,-0.024902,-0.312653,-0.013368999999999999,-0.001576,-0.010888,-26.25,-22.5,-24.0,1a
2019-07-15_184906:360,-0.522644,-0.020325,-0.318268,-0.007937,-0.000661,-0.010338,-25.559998999999998,-24.0,-23.559998999999998,1a
2019-07-15_184906:380,-0.5246890000000001,-0.004547,-0.313171,-0.0033280000000000002,0.001353,-0.00869,-25.559998999999998,-24.0,-23.559998999999998,1a
2019-07-15_184906:400,-0.497742,0.004059,-0.31012,-6.3e-05,0.00172,-0.005547,-25.559998999999998,-24.0,-23.559998999999998,1a
2019-07-15_184906:420,-0.44995100000000005,0.008636,-0.319794,0.002775,-0.002187,-0.001458,-25.18,-24.0,-22.75,1a
2019-07-15_184906:440,-0.433655,0.004547,-0.323853,0.005125,-0.008809,-0.00045099999999999996,-25.18,-24.0,-22.75,1a
2019-07-15_184906:460,-0.379791,0.013213999999999998,-0.33197,0.006956,-0.016957,-0.0034409999999999996,-25.559998999999998,-23.68,-23.559998999999998,1a
2019-07-15_184906:480,-0.347229,0.017273,-0.36044299999999996,0.007626999999999999,-0.028737000000000002,-0.005883,-25.559998999999998,-23.68,-23.559998999999998,1a
2019-07-15_184906:500,-0.364532,0.014221000000000001,-0.406219,0.007963,-0.039754000000000005,-0.007897,-25.559998999999998,-23.68,-23.559998999999998,1a
2019-07-15_184906:520,-0.374176,0.008636,-0.425537,0.009214,-0.045644,-0.012322,-24.75,-24.370001000000002,-24.75,1a
2019-07-15_184906:540,-0.39502,-0.0055850000000000006,-0.45401,0.011961,-0.047688,-0.015526,-24.75,-24.370001000000002,-24.75,1a
2019-07-15_184906:560,-0.392487,-0.025908999999999998,-0.461639,0.017668,-0.04778,-0.015313,-23.0,-23.25,-24.5,1a
2019-07-15_184906:580,-0.385864,-0.042175,-0.453491,0.025083,-0.046529,-0.015068000000000002,-23.0,-23.25,-24.5,1a
2019-07-15_184906:600,-0.385864,-0.042175,-0.43774399999999997,0.031187,-0.044453,-0.011132,-23.0,-23.25,-24.5,1a
2019-07-15_184906:620,-0.375702,-0.043213,-0.401642,0.035368000000000004,-0.040547,-0.007958,-21.870001000000002,-22.870001000000002,-27.18,1a
2019-07-15_184906:640,-0.341644,-0.023895,-0.38028,0.036039,-0.039082,-0.008934000000000001,-21.870001000000002,-22.870001000000002,-27.18,1a
2019-07-15_184906:660,-0.311646,0.0025329999999999997,-0.40063499999999996,0.033872,-0.037433999999999995,-0.009209,-20.370001000000002,-22.18,-28.5,1a
2019-07-15_184906:680,-0.307068,0.012695,-0.40316799999999997,0.029997000000000003,-0.039021,-0.009606,-20.370001000000002,-22.18,-28.5,1a
2019-07-15_184906:700,-0.286224,0.019806,-0.408752,0.023832,-0.040547,-0.010491,-20.370001000000002,-22.18,-28.5,1a
2019-07-15_184906:720,-0.29232800000000003,0.01828,-0.405212,0.016722,-0.039876,-0.006706999999999999,-19.68,-21.75,-31.18,1a
2019-07-15_184906:740,-0.263336,0.000488,-0.41333000000000003,0.009031,-0.037282,-0.001,-19.68,-21.75,-31.18,1a
2019-07-15_184906:760,-0.233337,-0.015228,-0.43774399999999997,0.002409,-0.035878,0.003517,-17.5,-19.870001000000002,-32.0,1a
2019-07-15_184906:780,-0.224701,-0.033539,-0.477386,-6.3e-05,-0.038075,-0.003106,-17.5,-19.870001000000002,-32.0,1a
2019-07-15_184906:800,-0.262329,-0.019806,-0.48706099999999997,0.000334,-0.036031,-0.016503,-17.5,-19.870001000000002,-32.0,1a
2019-07-15_184906:820,-0.29895,-0.007599,-0.46060200000000007,0.003935,-0.026997000000000004,-0.024804,-16.370001000000002,-20.75,-32.0,1a
2019-07-15_184906:840,-0.34875500000000004,0.008118,-0.41586300000000004,0.005064,-0.012379000000000001,-0.024285,-16.370001000000002,-20.75,-32.0,1a
2019-07-15_184906:860,-0.333496,0.016266,-0.385376,0.004057,0.005107,-0.018029,-15.25,-20.75,-35.18,1a
2019-07-15_184906:880,-0.13623,0.016266,-0.391968,-0.000124,0.011211,-0.010459999999999999,-15.25,-20.75,-35.18,1a
2019-07-15_184906:900,-0.21048000000000003,0.007111,-0.36248800000000003,-0.005343,-0.000325,-0.001183,-15.25,-20.75,-35.18,1a
2019-07-15_184906:920,-0.227753,-0.020844,-0.387909,-0.010865999999999999,-0.0071,0.009224,-15.5,-20.0,-33.68,1a
2019-07-15_184906:940,-0.266907,-0.041687,-0.37265,-0.015780000000000002,-0.010274,0.014778,-15.5,-20.0,-33.68,1a
2019-07-15_184906:960,-0.241486,-0.07421900000000001,-0.385376,-0.017946,-0.011067,0.016028999999999998,-15.06,-19.25,-35.25,1a
2019-07-15_184906:980,-0.24658200000000002,-0.09149199999999999,-0.392487,-0.017946,-0.011342,0.015052000000000001,-15.06,-19.25,-35.25,1a
2019-07-15_184907:000,-0.262848,-0.103699,-0.409271,-0.016572999999999997,-0.008931,0.01551,-15.06,-19.25,-35.25,1a
2019-07-15_184907:020,-0.282166,-0.105225,-0.40976,-0.014315000000000001,-0.004353,0.016028999999999998,-15.06,-20.0,-33.68,1a
2019-07-15_184907:040,-0.259277,-0.095581,-0.402649,-0.012362,0.0010789999999999999,0.01432,-15.06,-20.0,-33.68,1a
2019-07-15_184907:060,-0.2547,-0.088959,-0.393494,-0.010134,0.0034289999999999998,0.012519,-14.75,-19.559998999999998,-34.5,1a
2019-07-15_184907:080,-0.244019,-0.075226,-0.378754,-0.008211,0.0034289999999999998,0.010597,-14.75,-19.559998999999998,-34.5,1a
2019-07-15_184907:100,-0.258759,-0.063019,-0.364014,-0.007662,0.0008039999999999999,0.010719,-14.75,-19.559998999999998,-34.5,1a
2019-07-15_184907:120,-0.28674299999999997,-0.060486,-0.34317,-0.007723000000000001,-0.001637,0.011940000000000001,-14.75,-20.370001000000002,-33.68,1a
2019-07-15_184907:140,-0.288269,-0.055389,-0.346222,-0.00812,-0.001515,0.013313,-14.75,-20.370001000000002,-33.68,1a
2019-07-15_184907:160,-0.279114,-0.054901,-0.349274,-0.008394,-0.003285,0.015968,-16.25,-19.559998999999998,-34.060001,1a
2019-07-15_184907:180,-0.28979499999999997,-0.048279,-0.346222,-0.008578,-0.005299,0.018715,-16.25,-19.559998999999998,-34.060001,1a
2019-07-15_184907:200,-0.28674299999999997,-0.047791,-0.342163,-0.009188,-0.004018,0.023018,-16.25,-19.559998999999998,-34.060001,1a
2019-07-15_184907:220,-0.257233,-0.051330999999999995,-0.352844,-0.009737,-0.002248,0.026405,-16.0,-19.559998999999998,-33.68,1a
2019-07-15_184907:240,-0.259796,-0.060486,-0.363007,-0.011568,-0.003834,0.028205,-16.0,-19.559998999999998,-33.68,1a
2019-07-15_184907:260,-0.2659,-0.069641,-0.36654699999999996,-0.014223,-0.0046890000000000005,0.028327999999999996,-16.68,-19.559998999999998,-34.060001,1a
2019-07-15_184907:280,-0.242004,-0.0737,-0.36248800000000003,-0.019288999999999997,-0.003438,0.029304000000000004,-16.68,-19.559998999999998,-34.060001,1a
2019-07-15_184907:300,-0.220642,-0.076263,-0.364014,-0.024659999999999998,-0.001576,0.034828,-16.68,-19.559998999999998,-34.060001,1a
2019-07-15_184907:320,-0.193176,-0.08843999999999999,-0.35791,-0.02936,-0.0007830000000000001,0.038794999999999996,-16.0,-19.559998999999998,-34.0,1a
2019-07-15_184907:340,-0.204376,-0.078278,-0.366058,-0.031344,-0.001179,0.037880000000000004,-16.0,-19.559998999999998,-34.0,1a
2019-07-15_184907:360,-0.21148699999999998,-0.063538,-0.383331,-0.031099,-0.003102,0.030525,-17.059998999999998,-20.370001000000002,-33.68,1a
2019-07-15_184907:380,-0.222687,-0.045226999999999996,-0.402649,-0.03055,-0.006337,0.019233,-17.059998999999998,-20.370001000000002,-33.68,1a
2019-07-15_184907:400,-0.256744,-0.020844,-0.42401099999999997,-0.028841000000000002,-0.010121,0.0167,-17.059998999999998,-20.370001000000002,-33.68,1a
2019-07-15_184907:420,-0.26944,-0.015747,-0.433167,-0.027651,-0.011983,0.018775999999999998,-17.5,-20.370001000000002,-34.060001,1a
2019-07-15_184907:440,-0.230804,-0.0025329999999999997,-0.448425,-0.027315,-0.01125,0.020942,-17.5,-20.370001000000002,-34.060001,1a
2019-07-15_184907:460,-0.217072,0.0035399999999999997,-0.46670500000000004,-0.025179,-0.012532,0.019844,-18.18,-20.75,-33.68,1a
2019-07-15_184907:480,-0.24096700000000001,0.016266,-0.498749,-0.022799,-0.016163999999999998,0.014106,-18.18,-20.75,-33.68,1a
2019-07-15_184907:500,-0.263336,0.023895,-0.502319,-0.020662,-0.017628,0.009468,-18.18,-20.75,-33.68,1a
2019-07-15_184907:520,-0.309113,0.027435,-0.476379,-0.019198,-0.012135,0.011268,-17.870001000000002,-21.5,-32.369999,1a
2019-07-15_184907:540,-0.293335,0.025421,-0.453491,-0.018435,-0.00124,0.012611,-17.870001000000002,-21.5,-32.369999,1a
2019-07-15_184907:560,-0.22164899999999998,0.032013,-0.441284,-0.017306000000000002,0.00648,0.011543000000000001,-17.870001000000002,-21.870001000000002,-32.75,1a
2019-07-15_184907:580,-0.244019,0.032013,-0.44281000000000004,-0.015413,0.0042829999999999995,0.008948999999999999,-17.870001000000002,-21.870001000000002,-32.75,1a
2019-07-15_184907:600,-0.271484,0.038116000000000004,-0.45401,-0.012911,0.0016589999999999999,0.00663,-17.870001000000002,-21.870001000000002,-32.75,1a
2019-07-15_184907:620,-0.29486100000000004,0.041168,-0.460114,-0.010714,-0.00124,0.009956,-18.559998999999998,-21.870001000000002,-32.369999,1a
2019-07-15_184907:640,-0.31723,0.037108999999999996,-0.449432,-0.008181,0.000133,0.014137,-18.559998999999998,-21.870001000000002,-32.369999,1a
2019-07-15_184907:660,-0.317749,0.038635,-0.44384799999999996,-0.005221,0.002788,0.012611,-18.559998999999998,-21.870001000000002,-32.369999,1a
2019-07-15_184907:680,-0.314697,0.044739,-0.43774399999999997,-0.002657,0.0017809999999999998,0.010322,-18.559998999999998,-21.870001000000002,-32.369999,1a
2019-07-15_184907:700,-0.309113,0.042175,-0.433167,-0.001467,-0.001179,0.009956,-18.559998999999998,-21.870001000000002,-32.369999,1a
2019-07-15_184907:720,-0.285217,0.028442000000000002,-0.420441,-0.000796,-0.003621,0.011940000000000001,-18.559998999999998,-21.559998999999998,-33.18,1a
2019-07-15_184907:740,-0.264374,0.019806,-0.410797,-0.000277,-0.006032,0.014717,-18.559998999999998,-21.559998999999998,-33.18,1a
2019-07-15_184907:760,-0.241486,0.007111,-0.40316799999999997,-6.3e-05,-0.008809,0.01551,-18.559998999999998,-21.870001000000002,-32.75,1a
2019-07-15_184907:780,-0.242004,-0.0035399999999999997,-0.408752,-0.000582,-0.011006,0.015052000000000001,-18.559998999999998,-21.870001000000002,-32.75,1a
2019-07-15_184907:800,-0.227753,-0.017792,-0.417908,-0.001009,-0.01241,0.014381,-18.559998999999998,-21.870001000000002,-32.75,1a
2019-07-15_184907:820,-0.22164899999999998,-0.025908999999999998,-0.42453,-0.0015890000000000001,-0.014728999999999999,0.012855000000000002,-18.559998999999998,-21.059998999999998,-31.559998999999998,1a
2019-07-15_184907:840,-0.24453699999999998,-0.040161,-0.43621800000000005,-0.002321,-0.01598,0.010872,-18.559998999999998,-21.059998999999998,-31.559998999999998,1a
2019-07-15_184907:860,-0.243011,-0.046752999999999996,-0.44995100000000005,-0.002169,-0.015034,0.008674,-18.18,-20.870001000000002,-33.18,1a
2019-07-15_184907:880,-0.260284,-0.052338,-0.457581,-0.00165,-0.014394,0.005684000000000001,-18.18,-20.870001000000002,-33.18,1a
2019-07-15_184907:900,-0.269958,-0.054901,-0.455017,-0.000643,-0.011739,0.001625,-18.18,-20.870001000000002,-33.18,1a
2019-07-15_184907:920,-0.24963400000000002,-0.057953,-0.45605500000000004,0.000791,-0.006703,-0.002648,-17.5,-21.5,-33.18,1a
2019-07-15_184907:940,-0.241486,-0.060486,-0.452484,0.002195,-0.002583,-0.005181,-17.5,-21.5,-33.18,1a
2019-07-15_184907:960,-0.22927899999999998,-0.057434000000000006,-0.434174,0.003599,0.001537,-0.004235,-18.18,-21.059998999999998,-32.75,1a
2019-07-15_184907:980,-0.20944200000000002,-0.051849,-0.42248500000000005,0.004301,0.006175,7.000000000000001e-06,-18.18,-21.059998999999998,-32.75,1a
2019-07-15_184908:000,-0.186066,-0.051849,-0.417389,0.003935,0.008006000000000001,0.003761,-18.18,-21.059998999999998,-32.75,1a
2019-07-15_184908:020,-0.182007,-0.048798,-0.41333000000000003,0.002409,0.0071519999999999995,0.00489,-17.68,-20.75,-34.369999,1a
2019-07-15_184908:040,-0.17996199999999998,-0.045226999999999996,-0.41384899999999997,0.000151,0.006175,0.004432,-17.68,-20.75,-34.369999,1a
2019-07-15_184908:060,-0.185059,-0.040649,-0.416382,-0.002932,0.006145,0.002754,-17.059998999999998,-20.370001000000002,-34.75,1a
2019-07-15_184908:080,-0.17996199999999998,-0.041168,-0.423004,-0.005922,0.004436,0.003242,-17.059998999999998,-20.370001000000002,-34.75,1a
2019-07-15_184908:100,-0.174377,-0.043701,-0.43670699999999996,-0.008516,-0.001393,0.004615,-17.059998999999998,-20.370001000000002,-34.75,1a
2019-07-15_184908:120,-0.20285,-0.044739,-0.454529,-0.01047,-0.008687,0.005745,-18.18,-20.0,-34.0,1a
2019-07-15_184908:140,-0.209961,-0.050842,-0.47079499999999996,-0.011568,-0.013112,0.008216,-18.18,-20.0,-34.0,1a
2019-07-15_184908:160,-0.222687,-0.057434000000000006,-0.48043800000000003,-0.011781999999999999,-0.014119,0.009742,-17.870001000000002,-20.370001000000002,-33.560001,1a
2019-07-15_184908:180,-0.22879000000000002,-0.058960000000000005,-0.478912,-0.010714,-0.012135,0.010139,-17.870001000000002,-20.370001000000002,-33.560001,1a
2019-07-15_184908:200,-0.233856,-0.057434000000000006,-0.467743,-0.008851999999999999,-0.007831999999999999,0.009864,-17.870001000000002,-20.370001000000002,-33.560001,1a
2019-07-15_184908:220,-0.201324,-0.05285599999999999,-0.465179,-0.007265000000000001,-0.003163,0.009956,-15.56,-20.370001000000002,-33.18,1a
2019-07-15_184908:240,-0.19775399999999999,-0.039642000000000004,-0.462128,-0.00635,-0.00237,0.008064,-15.56,-20.370001000000002,-33.18,1a
2019-07-15_184908:260,-0.186584,-0.031006,-0.461121,-0.0064719999999999995,-0.001973,0.004829,-16.370001000000002,-20.0,-33.18,1a
2019-07-15_184908:280,-0.21048000000000003,-0.022858,-0.45654300000000003,-0.007479,-0.003041,0.003303,-16.370001000000002,-20.0,-33.18,1a
2019-07-15_184908:300,-0.183533,-0.019806,-0.46417200000000003,-0.008669,-0.0027660000000000002,0.005043,-16.370001000000002,-20.0,-33.18,1a
2019-07-15_184908:320,-0.20538299999999998,-0.014740000000000001,-0.475861,-0.010531,-0.0034990000000000004,0.006569,-17.5,-20.75,-34.0,1a
2019-07-15_184908:340,-0.20843499999999998,-0.019806,-0.47842399999999996,-0.012392,-0.003285,0.006233,-17.5,-20.75,-34.0,1a
2019-07-15_184908:360,-0.220642,-0.022858,-0.477905,-0.013094,-0.002156,0.0053479999999999995,-17.059998999999998,-20.370001000000002,-33.560001,1a
2019-07-15_184908:380,-0.220642,-0.026427999999999997,-0.473846,-0.013643,0.000133,0.005043,-17.059998999999998,-20.370001000000002,-33.560001,1a
2019-07-15_184908:400,-0.223694,-0.028442000000000002,-0.467743,-0.012972,0.002757,0.005409000000000001,-17.059998999999998,-20.370001000000002,-33.560001,1a
2019-07-15_184908:420,-0.20944200000000002,-0.029480000000000003,-0.461639,-0.011904000000000001,0.004894,0.004371,-17.5,-20.370001000000002,-33.560001,1a
2019-07-15_184908:440,-0.207916,-0.028961,-0.453003,-0.01047,0.005626,0.004219,-17.5,-20.370001000000002,-33.560001,1a
2019-07-15_184908:460,-0.213013,-0.029480000000000003,-0.44891400000000004,-0.008851999999999999,0.0052899999999999996,0.005287,-18.18,-21.5,-33.18,1a
2019-07-15_184908:480,-0.21453899999999998,-0.028442000000000002,-0.449432,-0.007326000000000001,0.004894,0.006813,-18.18,-21.5,-33.18,1a
2019-07-15_184908:500,-0.21911599999999998,-0.027954000000000003,-0.448425,-0.006319,0.004894,0.008674,-18.18,-21.5,-33.18,1a
2019-07-15_184908:520,-0.21606399999999998,-0.025421,-0.44995100000000005,-0.005556,0.004314,0.008064,-16.68,-20.75,-32.75,1a
2019-07-15_184908:540,-0.21402,-0.023375999999999997,-0.453003,-0.005404,0.00352,0.00663,-16.68,-20.75,-32.75,1a
2019-07-15_184908:560,-0.21859699999999999,-0.022858,-0.45605500000000004,-0.0058,0.002055,0.006569,-17.75,-20.75,-32.75,1a
2019-07-15_184908:580,-0.226227,-0.022858,-0.460114,-0.0066549999999999995,0.0014759999999999999,0.007148000000000001,-17.75,-20.75,-32.75,1a
2019-07-15_184908:600,-0.233856,-0.023895,-0.462128,-0.007723000000000001,0.001537,0.008612999999999999,-17.75,-20.75,-32.75,1a
2019-07-15_184908:620,-0.228271,-0.029968,-0.46060200000000007,-0.009066,0.002971,0.009285,-18.18,-21.5,-32.0,1a
2019-07-15_184908:640,-0.225739,-0.031494,-0.46060200000000007,-0.00992,0.003978,0.009529000000000001,-18.18,-21.5,-32.0,1a
2019-07-15_184908:660,-0.22521999999999998,-0.036072,-0.460114,-0.010317,0.003703,0.009406999999999999,-17.75,-21.18,-32.75,1a
2019-07-15_184908:680,-0.22421300000000002,-0.037598,-0.458588,-0.010103000000000001,0.003703,0.008339,-17.75,-21.18,-32.75,1a
2019-07-15_184908:700,-0.220642,-0.039124,-0.46060200000000007,-0.009524,0.003825,0.006691,-17.75,-21.18,-32.75,1a
2019-07-15_184908:720,-0.223694,-0.039124,-0.461639,-0.008578,0.0035810000000000004,0.005836,-18.559998999999998,-21.059998999999998,-32.369999,1a
2019-07-15_184908:740,-0.220123,-0.035583,-0.462128,-0.007723000000000001,0.003368,0.005287,-18.559998999999998,-21.059998999999998,-32.369999,1a
2019-07-15_184908:760,-0.22521999999999998,-0.034546,-0.466217,-0.007143000000000001,0.002361,0.004036,-19.68,-22.0,-32.75,1a
2019-07-15_184913:620,-0.189117,0.011687999999999999,-0.501801,-0.007876000000000001,-0.001302,-0.0017629999999999998,-24.18,-26.370001000000002,-25.18,1a
2019-07-15_184913:640,-0.20538299999999998,0.011169,-0.51297,-0.007876000000000001,-0.006612000000000001,-0.000634,-24.18,-26.370001000000002,-25.18,1a
2019-07-15_184913:660,-0.268951,0.019806,-0.523163,-0.008669,-0.007161,-0.0011220000000000002,-24.18,-26.370001000000002,-25.18,1a
2019-07-15_184913:680,-0.29538000000000003,0.021851,-0.519073,-0.010988,-0.000508,-0.00023700000000000001,-23.370001000000002,-26.75,-26.5,1a
2019-07-15_184913:700,-0.28369099999999997,0.017792,-0.50943,-0.013918,0.008281,-0.001397,-23.370001000000002,-26.75,-26.5,1a
2019-07-15_184913:720,-0.231812,0.012177,-0.49468999999999996,-0.015047,0.014597999999999998,-0.004174000000000001,-23.75,-26.75,-27.559998999999998,1a
2019-07-15_184913:740,-0.20843499999999998,0.006592,-0.47995,-0.013581999999999999,0.016124,-0.002098,-23.75,-26.75,-27.559998999999998,1a
2019-07-15_184913:760,-0.224701,0.006592,-0.47943100000000005,-0.011446,0.013927000000000002,-0.0008470000000000001,-23.75,-26.75,-27.559998999999998,1a
2019-07-15_184913:780,-0.234375,0.013702,-0.47995,-0.010714,0.01411,-0.0017629999999999998,-23.75,-27.18,-24.5,1a
2019-07-15_184913:800,-0.245056,0.01828,-0.48300200000000004,-0.010317,0.017558,-0.0038380000000000003,-23.75,-27.18,-24.5,1a
2019-07-15_184913:820,-0.239441,0.019806,-0.477386,-0.011720999999999999,0.022472,-0.010154999999999999,-24.870001000000002,-27.18,-26.5,1a
2019-07-15_184913:840,-0.23284899999999997,0.012177,-0.46926899999999994,-0.010988,0.026469,-0.013909,-24.870001000000002,-27.18,-26.5,1a
2019-07-15_184913:860,-0.237427,0.005065999999999999,-0.46417200000000003,-0.008059,0.029186,-0.015465000000000001,-24.870001000000002,-27.18,-26.5,1a
2019-07-15_184913:880,-0.233856,0.004059,-0.46417200000000003,-0.0034509999999999996,0.031169,-0.01693,-24.75,-27.870001000000002,-24.0,1a
2019-07-15_184913:900,-0.23895300000000003,0.011169,-0.461639,0.001402,0.033305,-0.016991,-24.75,-27.870001000000002,-24.0,1a
2019-07-15_184913:920,-0.238434,0.010162000000000001,-0.455017,0.005461,0.036295999999999995,-0.017785,-25.18,-28.25,-24.5,1a
2019-07-15_184913:940,-0.230804,0.012695,-0.447906,0.008818000000000001,0.039348,-0.018517,-25.18,-28.25,-24.5,1a
2019-07-15_184913:960,-0.22216799999999998,0.013213999999999998,-0.44281000000000004,0.012144,0.040874,-0.018364,-25.18,-28.25,-24.5,1a
2019-07-15_184913:980,-0.240479,0.009644,-0.437225,0.014402000000000002,0.041148000000000004,-0.020684,-24.75,-28.25,-23.559998999999998,1a
2019-07-15_184914:000,-0.25116,-0.025421,-0.43774399999999997,0.019041,0.044475,-0.02221,-24.75,-28.25,-23.559998999999998,1a
2019-07-15_184914:020,-0.258759,-0.052338,-0.44384799999999996,0.029019999999999997,0.049846,-0.025536,-25.059998999999998,-28.68,-23.25,1a
2019-07-15_184914:040,-0.251648,-0.076752,-0.448425,0.042295,0.054759,-0.030846,-25.059998999999998,-28.68,-23.25,1a
2019-07-15_184914:060,-0.259277,-0.098633,-0.45043900000000003,0.059599,0.058452,-0.032372000000000005,-25.059998999999998,-28.68,-23.25,1a
2019-07-15_184914:080,-0.264862,-0.139282,-0.45043900000000003,0.080839,0.062694,-0.035881,-25.870001000000002,-29.059998999999998,-24.5,1a
2019-07-15_184914:100,-0.276581,-0.159119,-0.45605500000000004,0.10613800000000001,0.06690499999999999,-0.04406,-25.870001000000002,-29.059998999999998,-24.5,1a
2019-07-15_184914:120,-0.264374,-0.152008,-0.455017,0.13155899999999998,0.070934,-0.051963999999999996,-26.5,-27.559998999999998,-24.5,1a
2019-07-15_184914:140,-0.262848,-0.143372,-0.444855,0.153868,0.072551,-0.05467999999999999,-26.5,-27.559998999999998,-24.5,1a
2019-07-15_184914:160,-0.260284,-0.131165,-0.435699,0.17239200000000002,0.073314,-0.05614500000000001,-26.5,-27.559998999999998,-24.5,1a
2019-07-15_184914:180,-0.259796,-0.124054,-0.429108,0.187254,0.074321,-0.059989999999999995,-28.25,-26.370001000000002,-26.5,1a
2019-07-15_184914:200,-0.23995999999999998,-0.09201000000000001,-0.429108,0.199247,0.07313099999999999,-0.064751,-28.25,-26.370001000000002,-26.5,1a
2019-07-15_184914:220,-0.29284699999999997,-0.066589,-0.41842700000000005,0.20641900000000002,0.066112,-0.06411,-29.0,-23.5,-28.559998999999998,1a
2019-07-15_184914:240,-0.5429689999999999,-0.037108999999999996,-0.45095799999999997,0.206236,0.041056999999999996,-0.055992999999999994,-29.0,-23.5,-28.559998999999998,1a
2019-07-15_184914:260,-0.37316900000000003,-0.060486,-0.334534,0.194151,0.033122000000000006,-0.031304000000000005,-29.0,-23.5,-28.559998999999998,1a
2019-07-15_184914:280,-0.363007,-0.071686,-0.382324,0.191679,0.03297,-0.03283,-29.559998999999998,-19.0,-30.559998999999998,1a
2019-07-15_184914:300,-0.335022,-0.038116000000000004,-0.33605999999999997,0.185057,0.033916,-0.071801,-29.559998999999998,-19.0,-30.559998999999998,1a
2019-07-15_184914:320,-0.321808,0.019806,-0.329437,0.177549,0.025737,-0.092125,-29.5,-13.75,-32.68,1a
2019-07-15_184914:340,-0.30300900000000003,0.01828,-0.293854,0.168669,0.018900999999999998,-0.082024,-29.5,-13.75,-32.68,1a
2019-07-15_184914:360,-0.429108,0.008118,-0.293335,0.156431,0.010722,-0.083672,-29.5,-13.75,-32.68,1a
2019-07-15_184914:380,-0.469757,0.008636,-0.277069,0.145567,0.01115,-0.087273,-29.870001000000002,-10.06,-33.18,1a
2019-07-15_184914:400,-0.44232200000000005,0.009125,-0.26181,0.13693,0.016124,-0.08440399999999999,-29.870001000000002,-10.06,-33.18,1a
2019-07-15_184914:420,-0.420959,0.01828,-0.255707,0.12704300000000002,0.019022999999999998,-0.08297,-29.5,-7.25,-35.75,1a
2019-07-15_184914:440,-0.384338,0.019318000000000002,-0.23284899999999997,0.117369,0.017588999999999997,-0.074334,-29.5,-7.25,-35.75,1a
2019-07-15_184914:460,-0.37674,0.013702,-0.21911599999999998,0.108274,0.013072,-0.062523,-29.5,-7.25,-35.75,1a
2019-07-15_184914:480,-0.41232299999999994,0.001495,-0.20486500000000002,0.09844800000000001,0.009807,-0.056725,-29.5,-5.5,-35.0,1a
2019-07-15_184914:500,-0.427063,-0.010651,-0.19574,0.089659,0.011943,-0.053948,-29.5,-5.5,-35.0,1a
2019-07-15_184914:520,-0.41842700000000005,-0.019806,-0.18096900000000002,0.082365,0.01591,-0.052361000000000005,-30.559998999999998,-1.56,-35.369999,1a
2019-07-15_184914:540,-0.404175,-0.024384,-0.171844,0.075285,0.016978,-0.050713,-30.559998999999998,-1.56,-35.369999,1a
2019-07-15_184914:560,-0.385376,-0.029968,-0.158112,0.069425,0.015788,-0.047448000000000004,-30.559998999999998,-1.56,-35.369999,1a
2019-07-15_184914:580,-0.374695,-0.028442000000000002,-0.152527,0.064451,0.013652000000000001,-0.044182,-30.370001000000002,-1.37,-36.25,1a
2019-07-15_184914:600,-0.370636,-0.030487,-0.150482,0.059751,0.009470999999999999,-0.042076,-30.370001000000002,-1.37,-36.25,1a
2019-07-15_184914:620,-0.392487,-0.028961,-0.153534,0.05615,0.005168,-0.04049,-31.059998999999998,-0.56,-36.25,1a
2019-07-15_184914:640,-0.41232299999999994,-0.029480000000000003,-0.168793,0.05264099999999999,0.00114,-0.037896,-31.059998999999998,-0.56,-36.25,1a
2019-07-15_184914:660,-0.41232299999999994,-0.028961,-0.176422,0.04904,-0.0037119999999999996,-0.035302,-31.059998999999998,-0.56,-36.25,1a
2019-07-15_184914:680,-0.415375,-0.027954000000000003,-0.182007,0.046018,-0.009755,-0.033623,-31.5,0.87,-35.060001,1a
2019-07-15_184914:700,-0.411285,-0.026917,-0.17996199999999998,0.043547,-0.013936000000000002,-0.032494,-31.5,0.87,-35.060001,1a
2019-07-15_184914:720,-0.45553599999999994,-0.028442000000000002,-0.185547,0.041838,-0.016255000000000002,-0.032188999999999995,-30.75,0.87,-36.25,1a
2019-07-15_184914:740,-0.48553500000000005,-0.029480000000000003,-0.188599,0.041471,-0.014302,-0.031975,-30.75,0.87,-36.25,1a
2019-07-15_184914:760,-0.505371,-0.025908999999999998,-0.199799,0.042356,-0.009724,-0.031701,-30.75,0.87,-36.25,1a
2019-07-15_184914:780,-0.505371,-0.022369,-0.200317,0.044004,-0.0052380000000000005,-0.02932,-31.059998999999998,1.56,-35.5,1a
2019-07-15_184914:800,-0.529266,-0.015747,-0.192688,0.045683,-0.000722,-0.024559,-31.059998999999998,1.56,-35.5,1a
2019-07-15_184914:820,-0.5267029999999999,-0.013213999999999998,-0.193695,0.046324000000000004,0.0023,-0.018578,-30.75,2.06,-36.68,1a
2019-07-15_184914:840,-0.512482,-0.012177,-0.19574,0.044614999999999995,0.004039,-0.013999999999999999,-30.75,2.06,-36.68,1a
2019-07-15_184914:860,-0.502808,-0.014740000000000001,-0.196747,0.040952999999999996,0.004771,-0.011254,-30.75,2.06,-36.68,1a
2019-07-15_184914:880,-0.539917,-0.024384,-0.201843,0.036497,0.006023,-0.010338,-30.370001000000002,3.18,-35.060001,1a
2019-07-15_184914:900,-0.66806,-0.036072,-0.193695,0.032011000000000005,0.008006000000000001,-0.012139,-30.370001000000002,3.18,-35.060001,1a
2019-07-15_184914:920,-0.533325,-0.051849,-0.191162,0.028959,0.007488,-0.016045,-30.75,4.68,-35.869999,1a
2019-07-15_184914:940,-0.589233,-0.051330999999999995,-0.149475,0.025480000000000003,0.017772,-0.023674,-30.75,4.68,-35.869999,1a
2019-07-15_184914:960,-0.458588,-0.055389,-0.18096900000000002,0.023893,0.023601,-0.020897,-30.75,4.68,-35.869999,1a
2019-07-15_184914:980,-0.440796,-0.065582,-0.127106,0.022306,0.031596,-0.018578,-31.870001000000002,5.06,-36.25,1a
2019-07-15_184915:000,-0.418915,-0.063538,-0.134705,0.020658000000000003,0.031993,-0.015374,-31.870001000000002,5.06,-36.25,1a
2019-07-15_184915:020,-0.410797,-0.074738,-0.142334,0.020262,0.023691999999999998,-0.00515,-32.25,4.68,-33.869999,1a
2019-07-15_184915:040,-0.410797,-0.076752,-0.1586,0.018247,0.00822,0.001564,-32.25,4.68,-33.869999,1a
2019-07-15_184915:060,-0.433655,-0.081848,-0.161163,0.016538,-0.005574,0.0065379999999999995,-32.25,4.68,-33.869999,1a
2019-07-15_184915:080,-0.463654,-0.097107,-0.167755,0.015347999999999999,-0.013447999999999998,0.008827,-33.369999,5.37,-33.869999,1a
2019-07-15_184915:100,-0.46926899999999994,-0.099121,-0.178955,0.016386,-0.014333000000000002,0.001106,-33.369999,5.37,-33.869999,1a
2019-07-15_184915:120,-0.42401099999999997,-0.090485,-0.183533,0.0184,-0.011739,-0.011864,-33.369999,6.18,-33.5,1a
2019-07-15_184915:140,-0.404694,-0.083374,-0.17944300000000002,0.021238,-0.008809,-0.019371,-33.369999,6.18,-33.5,1a
2019-07-15_184915:160,-0.395538,-0.076752,-0.167267,0.024107,-0.005543,-0.021355000000000002,-33.369999,6.18,-33.5,1a
2019-07-15_184915:180,-0.381805,-0.065582,-0.153534,0.026548000000000002,-0.0008439999999999999,-0.020836,-32.25,5.5,-32.68,1a
2019-07-15_184915:200,-0.355896,-0.048798,-0.137756,0.028807,0.003246,-0.019982,-32.25,5.5,-32.68,1a
2019-07-15_184915:220,-0.347229,-0.038635,-0.132172,0.029814,0.00584,-0.021294,-34.5,6.25,-34.18,1a
2019-07-15_184915:240,-0.353333,-0.017792,-0.128601,0.029997000000000003,0.005168,-0.02282,-34.5,6.25,-34.18,1a
2019-07-15_184915:260,-0.384338,-0.0055850000000000006,-0.140808,0.028623000000000003,0.003032,-0.023034,-34.5,6.25,-34.18,1a
2019-07-15_184915:280,-0.40823400000000004,0.000488,-0.142334,0.025022,0.002788,-0.022362,-33.75,6.68,-31.75,1a
2019-07-15_184915:300,-0.433655,0.011169,-0.131653,0.019438,0.004771,-0.0187,-33.75,6.68,-31.75,1a
2019-07-15_184915:320,-0.46823100000000006,0.010651,-0.135223,0.0119,0.006938,-0.012535,-34.060001,6.75,-33.0,1a
2019-07-15_184915:340,-0.5424800000000001,0.001495,-0.141846,0.003721,0.009226999999999999,-0.006431999999999999,-34.060001,6.75,-33.0,1a
2019-07-15_184915:360,-0.577545,-0.007111,-0.142853,-0.005068,0.010478,-0.000267,-34.060001,6.75,-33.0,1a
2019-07-15_184915:380,-0.60907,-0.026427999999999997,-0.142334,-0.013033000000000001,0.011852,0.005439,-33.369999,7.06,-33.369999,1a
2019-07-15_184915:400,-0.5922850000000001,-0.034546,-0.148956,-0.019594,0.012981,0.009803000000000001,-33.369999,7.06,-33.369999,1a
2019-07-15_184915:420,-0.551636,-0.041168,-0.152008,-0.023928,0.015666,0.012397,-34.869999,6.37,-32.18,1a
2019-07-15_184915:440,-0.562805,-0.044739,-0.159119,-0.024935,0.017314,0.011665,-34.869999,6.37,-32.18,1a
2019-07-15_184915:460,-0.796692,-0.030487,-0.19622799999999999,-0.025789,0.01414,0.008612999999999999,-34.869999,6.37,-32.18,1a
2019-07-15_184915:480,-0.49468999999999996,-0.037108999999999996,-0.162689,-0.026247000000000003,0.010326,0.017097,-34.869999,6.37,-31.370001000000002,1a
2019-07-15_184915:500,-0.49468999999999996,-0.026917,-0.164703,-0.027987,0.020030000000000003,0.020697999999999998,-34.869999,6.37,-31.370001000000002,1a
2019-07-15_184915:520,-0.381317,0.0,-0.19622799999999999,-0.024782,0.020030000000000003,0.012855000000000002,-35.560001,5.25,-32.18,1a
2019-07-15_184915:540,-0.5048520000000001,0.019318000000000002,-0.172852,-0.024935,0.016368,0.003639,-35.560001,5.25,-32.18,1a
2019-07-15_184915:560,-0.42248500000000005,0.028961,-0.191162,-0.022249,0.000621,-0.0034409999999999996,-35.560001,5.25,-32.18,1a
2019-07-15_184915:580,-0.45043900000000003,0.037598,-0.19622799999999999,-0.02286,-0.015431,-0.012535,-36.369999,5.25,-30.18,1a
2019-07-15_184915:600,-0.506378,0.048279,-0.213531,-0.022341,-0.031575,-0.015068000000000002,-36.369999,5.25,-30.18,1a
2019-07-15_184915:620,-0.530273,0.041687,-0.21402,-0.022616,-0.035634,-0.0029219999999999997,-35.68,4.18,-31.370001000000002,1a
2019-07-15_184915:640,-0.5109560000000001,0.034058,-0.210968,-0.021943999999999998,-0.026601,0.008827,-35.68,4.18,-31.370001000000002,1a
2019-07-15_184915:660,-0.431641,0.024384,-0.200317,-0.022127,-0.013050999999999998,0.01493,-35.68,4.18,-31.370001000000002,1a
2019-07-15_184915:680,-0.388428,0.015228,-0.190125,-0.02167,-0.001302,0.019172,-35.369999,3.37,-32.560001,1a
2019-07-15_184915:700,-0.377747,-0.001495,-0.171844,-0.022402000000000002,0.006816,0.020697999999999998,-35.369999,3.37,-32.560001,1a
2019-07-15_184915:720,-0.36706500000000003,-0.010651,-0.154541,-0.023653,0.013805000000000001,0.021339,-35.369999,4.18,-31.75,1a
2019-07-15_184915:740,-0.352325,-0.020844,-0.12658699999999998,-0.025057,0.019694999999999997,0.021491999999999997,-35.369999,4.18,-31.75,1a
2019-07-15_184915:760,-0.33758499999999997,-0.028442000000000002,-0.11843900000000002,-0.026583,0.022746000000000002,0.021491999999999997,-35.369999,4.18,-31.75,1a
2019-07-15_184915:780,-0.33300799999999997,-0.040649,-0.108276,-0.027498,0.021831,0.02201,-35.369999,4.56,-31.75,1a
2019-07-15_184915:800,-0.370636,-0.045226999999999996,-0.10675,-0.027558999999999997,0.01765,0.02137,-35.369999,4.56,-31.75,1a
2019-07-15_184915:820,-0.41232299999999994,-0.047791,-0.116425,-0.027041000000000003,0.013713,0.018897999999999998,-35.68,4.18,-31.75,1a
2019-07-15_184915:840,-0.44027700000000003,-0.048279,-0.119965,-0.026369,0.013377000000000002,0.016059,-35.68,4.18,-31.75,1a
2019-07-15_184915:860,-0.472321,-0.050842,-0.12558,-0.025057,0.016184999999999998,0.014197999999999999,-35.68,4.18,-31.75,1a
2019-07-15_184915:880,-0.514008,-0.050323,-0.138275,-0.023409,0.018108000000000003,0.011451000000000001,-35.68,3.06,-30.559998999999998,1a
2019-07-15_184915:900,-0.585693,-0.044739,-0.146423,-0.021547,0.019634,0.00962,-35.68,3.06,-30.559998999999998,1a
2019-07-15_184915:920,-0.5979,-0.042694,-0.140808,-0.019411,0.025065999999999998,0.007148000000000001,-36.060001,4.56,-31.0,1a
2019-07-15_184915:940,-0.571442,-0.036072,-0.150482,-0.018892,0.026286,0.005409000000000001,-36.060001,4.56,-31.0,1a
2019-07-15_184915:960,-0.551117,-0.031006,-0.158112,-0.018221,0.026683,0.001625,-36.060001,4.56,-31.0,1a
2019-07-15_184915:980,-0.548584,-0.024384,-0.161163,-0.017824,0.026195,-0.0019760000000000003,-37.18,3.37,-29.059998999999998,1a
2019-07-15_184916:000,-0.828217,-0.021332,-0.149475,-0.019137,0.025737,-0.003899,-37.18,3.37,-29.059998999999998,1a
2019-07-15_184916:020,-0.531799,-0.018799,-0.146912,-0.025240000000000002,0.02827,-0.005089,-37.18,3.37,-29.18,1a
2019-07-15_184916:040,-0.46316499999999994,-0.015747,-0.105743,-0.030427999999999997,0.040355,-0.010735,-37.18,3.37,-29.18,1a
2019-07-15_184916:060,-0.447906,-0.01828,-0.153534,-0.035616,0.039623,0.002845,-37.18,3.37,-29.18,1a
2019-07-15_184916:080,-0.454529,-0.057953,-0.11233499999999999,-0.04117,0.030527999999999996,0.017891,-38.0,2.68,-28.18,1a
2019-07-15_184916:100,-0.42858900000000005,-0.081848,-0.132172,-0.045748000000000004,0.010997,0.025519999999999998,-38.0,2.68,-28.18,1a
2019-07-15_184916:120,-0.431641,-0.099121,-0.12200899999999999,-0.046816,-0.007161,0.031044,-39.369999,2.68,-25.870001000000002,1a
2019-07-15_184916:140,-0.47079499999999996,-0.12658699999999998,-0.135742,-0.043581,-0.021626,0.027656,-39.369999,2.68,-25.870001000000002,1a
2019-07-15_184916:160,-0.46316499999999994,-0.128113,-0.139282,-0.039705000000000004,-0.030445999999999997,0.01493,-39.369999,2.68,-25.870001000000002,1a
2019-07-15_184916:180,-0.445374,-0.11080899999999999,-0.133698,-0.035006,-0.035084,0.00428,-39.060001,1.75,-26.68,1a
2019-07-15_184916:200,-0.41842700000000005,-0.09963999999999999,-0.129639,-0.030092,-0.035634,-0.00045099999999999996,-39.060001,1.75,-26.68,1a
2019-07-15_184916:220,-0.38385,-0.086426,-0.11691300000000002,-0.026583,-0.033559,-0.0054859999999999996,-38.369999,1.06,-27.870001000000002,1a
2019-07-15_184916:240,-0.401642,-0.08081100000000001,-0.111328,-0.022066,-0.025745999999999998,-0.010796,-38.369999,1.06,-27.870001000000002,1a
2019-07-15_184916:260,-0.42807,-0.069641,-0.10928299999999999,-0.017824,-0.010884,-0.014733000000000001,-38.369999,1.06,-27.870001000000002,1a
2019-07-15_184916:280,-0.41943400000000003,-0.064545,-0.096069,-0.014834,0.006236,-0.016166999999999997,-37.0,1.06,-29.5,1a
2019-07-15_184916:300,-0.397064,-0.05996699999999999,-0.086426,-0.011720999999999999,0.020243999999999998,-0.017632,-37.0,1.06,-29.5,1a
2019-07-15_184916:320,-0.37674,-0.056427,-0.080322,-0.008516,0.028667,-0.021294,-37.0,0.68,-29.870001000000002,1a
2019-07-15_184916:340,-0.359955,-0.054901,-0.071686,-0.004275,0.031566000000000004,-0.027611,-37.0,0.68,-29.870001000000002,1a
2019-07-15_184916:360,-0.399597,-0.055389,-0.062012,0.000547,0.031841,-0.033623,-37.0,0.68,-29.870001000000002,1a
2019-07-15_184916:380,-0.45553599999999994,-0.041687,-0.06405599999999999,0.005461,0.032573000000000005,-0.035698,-37.68,-0.75,-28.68,1a
2019-07-15_184916:400,-0.49365200000000004,-0.032532,-0.060486,0.008756,0.033763,-0.034844,-37.68,-0.75,-28.68,1a
2019-07-15_184916:420,-0.52774,-0.013213999999999998,-0.063538,0.010832,0.033916,-0.031577999999999995,-38.75,-1.87,-27.5,1a
2019-07-15_184916:440,-0.555176,-0.0025329999999999997,-0.068115,0.011807999999999999,0.029521,-0.026543,-38.75,-1.87,-27.5,1a
2019-07-15_184916:460,-0.5872189999999999,0.014740000000000001,-0.08081100000000001,0.011106,0.021495,-0.020958,-38.75,-1.87,-27.5,1a
2019-07-15_184916:480,-0.562286,0.022369,-0.081329,0.008177,0.012676,-0.011925,-39.5,-2.56,-26.68,1a
2019-07-15_184916:500,-0.535858,0.027954000000000003,-0.086426,0.004667,0.00584,0.00016,-39.5,-2.56,-26.68,1a
2019-07-15_184916:520,-0.5979,0.026917,-0.0849,0.00048600000000000005,0.0023,0.010475,-39.869999,-3.0,-26.68,1a
2019-07-15_184916:540,-0.758545,0.028961,-0.149475,-0.0025960000000000002,-0.00011100000000000001,0.019813,-39.869999,-3.0,-26.68,1a
2019-07-15_184916:560,-0.570435,0.016266,-0.07421900000000001,-0.012240000000000001,0.016184999999999998,0.029335000000000003,-39.869999,-3.0,-26.68,1a
2019-07-15_184916:580,-0.48553500000000005,0.019318000000000002,-0.072174,-0.015566,0.028056,0.037086,-39.5,-2.18,-25.5,1a
2019-07-15_184916:600,-0.396545,0.020325,-0.085388,-0.014559,0.033977,0.025795,-39.5,-2.18,-25.5,1a
2019-07-15_184916:620,-0.503845,0.040649,-0.077271,-0.016878,0.024028,0.0043100000000000005,-39.869999,-0.75,-25.5,1a
2019-07-15_184916:640,-0.455017,0.053863999999999995,-0.08996599999999999,-0.015749000000000003,0.006816,-0.010125,-39.869999,-0.75,-25.5,1a
2019-07-15_184916:660,-0.49316400000000005,0.059479,-0.08590700000000001,-0.019015,-0.013661000000000001,-0.02044,-39.869999,-0.75,-25.5,1a
2019-07-15_184916:680,-0.492645,0.06253099999999999,-0.108795,-0.02054,-0.03185,-0.019097,-40.5,-1.18,-25.370001000000002,1a
2019-07-15_184916:700,-0.462128,0.06149299999999999,-0.11080899999999999,-0.020022,-0.043446,-0.009606,-40.5,-1.18,-25.370001000000002,1a
2019-07-15_184916:720,-0.467743,0.057953,-0.12558,-0.017763,-0.046651,0.000526,-40.869999,-2.25,-26.559998999999998,1a
2019-07-15_184916:740,-0.433167,0.050323,-0.12658699999999998,-0.014773,-0.042194999999999996,0.01139,-40.869999,-2.25,-26.559998999999998,1a
2019-07-15_184916:760,-0.409271,0.044219999999999995,-0.12301600000000001,-0.013521,-0.034901,0.022346,-40.869999,-2.25,-26.559998999999998,1a
2019-07-15_184916:780,-0.385864,0.022858,-0.11233499999999999,-0.01404,-0.025532,0.030861000000000003,-38.25,-3.0,-27.370001000000002,1a
2019-07-15_184916:800,-0.382324,0.013213999999999998,-0.09353600000000001,-0.015688,-0.016041999999999997,0.034767,-38.25,-3.0,-27.370001000000002,1a
2019-07-15_184916:820,-0.359955,-0.009125,-0.086426,-0.017884999999999998,-0.006337,0.036293,-38.68,-1.87,-28.18,1a
2019-07-15_184916:840,-0.350281,-0.024384,-0.081848,-0.019533000000000002,0.0010789999999999999,0.035377,-38.68,-1.87,-28.18,1a
2019-07-15_184916:860,-0.347229,-0.041687,-0.078278,-0.019869,0.004649,0.031166000000000003,-38.68,-1.87,-28.18,1a
2019-07-15_184916:880,-0.36248800000000003,-0.051849,-0.081329,-0.018892,0.005443,0.024391,-38.68,-1.5,-28.18,1a
2019-07-15_184916:900,-0.411804,-0.05438200000000001,-0.08743300000000001,-0.017031,0.005168,0.019111000000000003,-38.68,-1.5,-28.18,1a
2019-07-15_184916:920,-0.44995100000000005,-0.062012,-0.096069,-0.014284,0.006358,0.014594999999999999,-39.0,-0.75,-29.059998999999998,1a
2019-07-15_184916:940,-0.49365200000000004,-0.060486,-0.09811399999999999,-0.009859,0.007091,0.006874,-39.0,-0.75,-29.059998999999998,1a
2019-07-15_184916:960,-0.554688,-0.057953,-0.112854,-0.004275,0.007426,0.00016,-39.0,-0.75,-29.059998999999998,1a
2019-07-15_184916:980,-0.611603,-0.054901,-0.105743,0.001463,0.008281,-0.004845,-38.68,0.0,-28.559998999999998,1a
2019-07-15_184917:000,-0.58316,-0.038635,-0.127106,0.005979,0.007426,-0.008294,-38.68,0.0,-28.559998999999998,1a
2019-07-15_184917:020,-0.557739,-0.03302,-0.132172,0.00955,0.005351,-0.014733000000000001,-39.369999,-0.37,-27.059998999999998,1a
2019-07-15_184917:040,-0.718384,-0.035065,-0.12506099999999998,0.011564,-5e-05,-0.022149000000000002,-39.369999,-0.37,-27.059998999999998,1a
2019-07-15_184917:060,-0.879059,0.009644,-0.194702,0.013212,-0.007344,-0.0252,-39.369999,-0.37,-27.059998999999998,1a
2019-07-15_184917:080,-0.551636,0.0035399999999999997,-0.108276,0.011747,0.004039,-0.028983999999999996,-39.369999,-0.37,-27.75,1a
2019-07-15_184917:100,-0.47280900000000003,0.010651,-0.12658699999999998,0.006437000000000001,0.015116999999999998,-0.030785000000000003,-39.369999,-0.37,-27.75,1a
2019-07-15_184917:120,-0.401123,-0.013702,-0.163696,0.0012490000000000001,0.014322999999999999,-0.00869,-39.369999,-1.5,-27.370001000000002,1a
2019-07-15_184917:140,-0.48349,-0.042694,-0.129639,-0.004549,0.0029100000000000003,0.005561,-39.369999,-1.5,-27.370001000000002,1a
2019-07-15_184917:160,-0.438751,-0.050842,-0.170319,-0.010134,-0.015706,0.015846000000000002,-39.369999,-1.5,-27.370001000000002,1a
2019-07-15_184917:180,-0.447388,-0.08081100000000001,-0.158112,-0.013491,-0.029988,0.03083,-41.25,-2.25,-26.559998999999998,1a
2019-07-15_184917:200,-0.500275,-0.104706,-0.184021,-0.013125,-0.037404,0.028999,-41.25,-2.25,-26.559998999999998,1a
2019-07-15_184917:220,-0.455017,-0.101685,-0.18096900000000002,-0.013643,-0.039082,0.013252000000000002,-39.369999,-1.18,-28.18,1a
2019-07-15_184917:240,-0.423004,-0.077271,-0.19574,-0.012057,-0.040547,0.00016,-39.369999,-1.18,-28.18,1a
2019-07-15_184917:260,-0.391968,-0.068634,-0.19165,-0.010836,-0.040059,-0.004906000000000001,-39.369999,-1.18,-28.18,1a
2019-07-15_184917:280,-0.364532,-0.05438200000000001,-0.170807,-0.010256,-0.036670999999999995,-0.009819,-39.0,-0.75,-29.75,1a
2019-07-15_184917:300,-0.36044299999999996,-0.045226999999999996,-0.157593,-0.00873,-0.029835000000000004,-0.012535,-39.0,-0.75,-29.75,1a
2019-07-15_184917:320,-0.373688,-0.040161,-0.131165,-0.006684999999999999,-0.019826,-0.01339,-38.0,-1.18,-30.559998999999998,1a
2019-07-15_184917:340,-0.378265,-0.035583,-0.121002,-0.004152,-0.006947,-0.015313,-38.0,-1.18,-30.559998999999998,1a
2019-07-15_184917:360,-0.35739099999999996,-0.028961,-0.114899,-0.001986,0.00584,-0.016838,-38.0,-1.18,-30.559998999999998,1a
2019-07-15_184917:380,-0.341125,-0.029480000000000003,-0.110321,-0.000277,0.013316,-0.017388,-38.0,-1.18,-31.75,1a
2019-07-15_184917:400,-0.35180700000000004,-0.031494,-0.10675,0.00128,0.014995,-0.018975,-38.0,-1.18,-31.75,1a
2019-07-15_184917:420,-0.402161,-0.026427999999999997,-0.11691300000000002,0.002195,0.012676,-0.019431999999999998,-37.5,-2.56,-31.75,1a
2019-07-15_184917:440,-0.465179,-0.027954000000000003,-0.122528,0.0022559999999999998,0.013469,-0.015434999999999999,-37.5,-2.56,-31.75,1a
2019-07-15_184917:460,-0.525696,-0.027954000000000003,-0.129639,0.002134,0.016765000000000002,-0.010491,-37.5,-2.56,-31.75,1a
2019-07-15_184917:480,-0.5770569999999999,-0.029968,-0.145386,0.001127,0.01942,-0.003655,-37.869999,-2.25,-31.370001000000002,1a
2019-07-15_184917:500,-0.6212770000000001,-0.036591000000000005,-0.143372,-0.00107,0.019847,0.004493,-37.869999,-2.25,-31.370001000000002,1a
2019-07-15_184917:520,-0.632965,-0.041687,-0.154541,-0.003817,0.01884,0.011726,-38.560001,-3.0,-30.559998999999998,1a
2019-07-15_184917:540,-0.610596,-0.047272,-0.151001,-0.007723000000000001,0.020152,0.017036000000000003,-38.560001,-3.0,-30.559998999999998,1a
2019-07-15_184917:560,-0.590759,-0.051330999999999995,-0.165222,-0.010836,0.022105,0.019355,-38.560001,-3.0,-30.559998999999998,1a
2019-07-15_184917:580,-0.7900699999999999,-0.070648,-0.143372,-0.013643,0.022472,0.017921,-39.25,-3.0,-30.559998999999998,1a
2019-07-15_184917:600,-0.629425,-0.076752,-0.194702,-0.015444,0.016399,0.022102,-39.25,-3.0,-30.559998999999998,1a
2019-07-15_184917:620,-0.611115,-0.058960000000000005,-0.092529,-0.019594,0.038738,0.019569,-40.75,-3.25,-29.370001000000002,1a
2019-07-15_184917:640,-0.43774399999999997,-0.032013,-0.14386,-0.016939,0.048106,0.016791999999999998,-40.75,-3.25,-29.370001000000002,1a
2019-07-15_184917:660,-0.32132,-0.024902,-0.08996599999999999,-0.013765000000000001,0.054363,0.0075450000000000005,-40.75,-3.25,-29.370001000000002,1a
2019-07-15_184917:680,-0.42807,0.007599,-0.115906,-0.010865999999999999,0.036144,-0.009362,-40.369999,-1.5,-28.18,1a
2019-07-15_184917:700,-0.394012,0.019318000000000002,-0.12454200000000001,-0.0069299999999999995,0.011881999999999998,-0.020347999999999998,-40.369999,-1.5,-28.18,1a
2019-07-15_184917:720,-0.429596,0.022369,-0.121002,-0.006014,-0.014394,-0.028923,-42.68,-1.87,-27.059998999999998,1a
2019-07-15_184917:740,-0.461639,0.028442000000000002,-0.140808,-0.00339,-0.035084,-0.029656000000000002,-42.68,-1.87,-27.059998999999998,1a
2019-07-15_184917:760,-0.49468999999999996,0.026917,-0.12912,-0.000734,-0.041066000000000005,-0.022881,-42.68,-1.87,-27.059998999999998,1a
2019-07-15_184917:780,-0.489075,0.029968,-0.143372,0.00247,-0.035084,-0.011864,-43.060001,-3.0,-27.75,1a
2019-07-15_184917:800,-0.425537,0.021851,-0.150482,0.004728,-0.024861,-0.000573,-43.060001,-3.0,-27.75,1a
2019-07-15_184917:820,-0.377228,0.016266,-0.148956,0.005522,-0.016652,0.005439,-41.869999,-4.06,-29.059998999999998,1a
2019-07-15_184917:840,-0.348267,0.0055850000000000006,-0.128113,0.005705,-0.011067,0.009864,-41.869999,-4.06,-29.059998999999998,1a
2019-07-15_184917:860,-0.333496,-0.004059,-0.11538699999999999,0.005125,-0.006154,0.015266,-41.869999,-4.06,-29.059998999999998,1a
2019-07-15_184917:880,-0.322327,-0.017273,-0.100159,0.0041789999999999996,-0.002522,0.018623,-41.18,-3.56,-31.75,1a
2019-07-15_184917:900,-0.315704,-0.022369,-0.10116599999999999,0.0032020000000000004,-0.0009660000000000001,0.018715,-41.18,-3.56,-31.75,1a
2019-07-15_184917:920,-0.328949,-0.028961,-0.105225,0.002195,-0.00124,0.017646000000000002,-40.060001,-3.18,-30.18,1a
2019-07-15_184917:940,-0.368073,-0.036072,-0.105225,0.00186,-0.002919,0.014656,-40.060001,-3.18,-30.18,1a
2019-07-15_184917:960,-0.426544,-0.038635,-0.12301600000000001,0.0019210000000000002,-0.004414,0.010872,-40.060001,-3.18,-30.18,1a
2019-07-15_184917:980,-0.432648,-0.042694,-0.127106,0.0034460000000000003,-0.002431,0.007484,-40.75,-2.18,-30.18,1a
2019-07-15_184918:000,-0.518066,-0.044739,-0.12912,0.004911,0.0008960000000000001,0.003303,-40.75,-2.18,-30.18,1a
2019-07-15_184918:020,-0.559753,-0.045226999999999996,-0.143372,0.006193,0.004375,0.005043,-40.369999,-1.75,-30.559998999999998,1a
2019-07-15_184918:040,-0.594849,-0.051849,-0.146423,0.008085,0.006145,0.008674,-40.369999,-1.75,-30.559998999999998,1a
2019-07-15_184918:060,-0.599426,-0.050323,-0.166229,0.009977,0.004771,0.005958,-40.369999,-1.75,-30.559998999999998,1a
2019-07-15_184918:080,-0.56839,-0.047791,-0.17538499999999999,0.012297,0.003032,0.000648,-40.060001,-1.06,-31.0,1a
2019-07-15_184918:100,-0.615173,-0.055389,-0.178955,0.014463,0.0012619999999999999,-0.004692,-40.060001,-1.06,-31.0,1a
2019-07-15_184918:120,-0.792603,-0.019806,-0.254211,0.015013,-0.004414,-0.006951000000000001,-40.75,-1.37,-30.559998999999998,1a
2019-07-15_184918:140,-0.662964,-0.042694,-0.159637,0.014952000000000002,0.008891,-0.004296,-40.75,-1.37,-30.559998999999998,1a
2019-07-15_184918:160,-0.519592,-0.034058,-0.178955,0.012083,0.025401,-0.012017,-40.75,-1.37,-30.559998999999998,1a
2019-07-15_184918:180,-0.404175,-0.057434000000000006,-0.178955,0.006376,0.031047,0.00196,-40.060001,0.06,-31.75,1a
2019-07-15_184918:200,-0.43011499999999997,-0.09301799999999999,-0.157074,0.00073,0.021769999999999998,0.023994,-40.060001,0.06,-31.75,1a
2019-07-15_184918:220,-0.404175,-0.12048299999999999,-0.186066,-0.004946,0.0019030000000000002,0.039405,-41.869999,0.06,-29.75,1a
2019-07-15_184918:240,-0.429596,-0.156067,-0.17944300000000002,-0.006684999999999999,-0.015462,0.039131,-41.869999,0.06,-29.75,1a
2019-07-15_184918:260,-0.477905,-0.156067,-0.198273,-0.004275,-0.024159,0.019752000000000002,-41.869999,0.06,-29.75,1a
2019-07-15_184918:280,-0.460114,-0.131165,-0.212006,-0.003939,-0.026326,-0.0034409999999999996,-41.869999,1.56,-30.559998999999998,1a
2019-07-15_184918:300,-0.452484,-0.099121,-0.204376,-0.0025050000000000003,-0.026936,-0.012597,-41.869999,1.56,-30.559998999999998,1a
2019-07-15_184918:320,-0.420959,-0.076263,-0.185547,-0.000399,-0.024922,-0.018761,-41.560001,1.5,-31.75,1a
2019-07-15_184918:340,-0.395538,-0.05438200000000001,-0.1698,0.00073,-0.020833,-0.024804,-41.560001,1.5,-31.75,1a
2019-07-15_184918:360,-0.375214,-0.034058,-0.143372,0.002531,-0.015369999999999998,-0.0234,-41.560001,1.5,-31.75,1a
2019-07-15_184918:380,-0.36654699999999996,-0.025421,-0.12912,0.003721,-0.008412000000000001,-0.019555,-39.25,1.5,-32.18,1a
2019-07-15_184918:400,-0.354858,-0.013702,-0.10675,0.003721,-0.00124,-0.016899,-39.25,1.5,-32.18,1a
2019-07-15_184918:420,-0.349792,-0.012177,-0.102692,0.003385,0.004833,-0.015923,-38.560001,0.68,-32.560001,1a
2019-07-15_184918:440,-0.34265100000000004,-0.005065999999999999,-0.092529,0.002134,0.00822,-0.015128999999999998,-38.560001,0.68,-32.560001,1a
2019-07-15_184918:460,-0.34570300000000004,-0.006072999999999999,-0.092529,-2e-06,0.009470999999999999,-0.013938999999999998,-38.560001,0.68,-32.560001,1a
2019-07-15_184918:480,-0.391968,-0.013702,-0.08843999999999999,-0.0025050000000000003,0.010265,-0.011925,-39.25,0.0,-33.75,1a
2019-07-15_184918:500,-0.44232200000000005,-0.01828,-0.096588,-0.005556,0.011791,-0.007683,-39.25,0.0,-33.75,1a
2019-07-15_184918:520,-0.47180200000000005,-0.028961,-0.105225,-0.007448000000000001,0.015116999999999998,-0.0035020000000000003,-39.68,0.0,-33.75,1a
2019-07-15_184918:540,-0.49926800000000005,-0.034546,-0.11538699999999999,-0.008974,0.017253,-0.0019149999999999998,-39.68,0.0,-33.75,1a
2019-07-15_184918:560,-0.564331,-0.036591000000000005,-0.139282,-0.011170999999999999,0.016124,0.001655,-39.68,0.0,-33.75,1a
2019-07-15_184918:580,-0.590271,-0.037108999999999996,-0.141327,-0.013765000000000001,0.013316,0.008064,-40.75,-0.37,-31.75,1a
2019-07-15_184918:600,-0.576538,-0.041687,-0.159119,-0.01697,0.011455,0.013008,-40.75,-0.37,-31.75,1a
2019-07-15_184918:620,-0.5633239999999999,-0.042175,-0.158112,-0.019594,0.013805000000000001,0.015266,-40.75,-0.37,-33.369999,1a
2019-07-15_184918:640,-0.545013,-0.038635,-0.168274,-0.020815,0.019756,0.0167,-40.75,-0.37,-33.369999,1a
2019-07-15_184918:660,-0.6161800000000001,-0.043213,-0.15506,-0.023073,0.022563,0.019233,-40.75,-0.37,-33.369999,1a
2019-07-15_184918:680,-0.44638100000000003,-0.047272,-0.186584,-0.026919,0.021769999999999998,0.035377,-42.25,-0.37,-33.0,1a
2019-07-15_184918:700,-0.454529,-0.040161,-0.111847,-0.029908999999999998,0.044872,0.040260000000000004,-42.25,-0.37,-33.0,1a
2019-07-15_184918:720,-0.491638,-0.038116000000000004,-0.165741,-0.029695999999999997,0.041819999999999996,0.030432999999999998,-41.869999,0.25,-30.559998999999998,1a
2019-07-15_184918:740,-0.557739,-0.028442000000000002,-0.108276,-0.028322000000000003,0.035899,0.018837,-41.869999,0.25,-30.559998999999998,1a
2019-07-15_184918:760,-0.49823,-0.027954000000000003,-0.104218,-0.026125,0.021373,0.003486,-41.869999,0.25,-30.559998999999998,1a
2019-07-15_184918:780,-0.500275,-0.024902,-0.099121,-0.023469999999999998,0.005229,-0.017113,-43.369999,0.25,-29.370001000000002,1a
2019-07-15_184918:800,-0.5272220000000001,-0.012695,-0.11795,-0.020022,-0.0118,-0.026146,-43.369999,0.25,-29.370001000000002,1a
2019-07-15_184918:820,-0.47280900000000003,-0.011169,-0.127594,-0.014376,-0.025685000000000003,-0.028130000000000002,-44.18,-0.75,-29.370001000000002,1a
2019-07-15_184918:840,-0.47180200000000005,0.0,-0.134705,-0.009585,-0.031392,-0.028983999999999996,-44.18,-0.75,-29.370001000000002,1a
2019-07-15_184918:860,-0.466217,0.008636,-0.127106,-0.004671,-0.024342,-0.01931,-44.18,-0.75,-29.370001000000002,1a
2019-07-15_184918:880,-0.41995200000000005,0.010162000000000001,-0.12048299999999999,-0.0020469999999999998,-0.018422,-0.012597,-43.75,-2.56,-30.18,1a
2019-07-15_184918:900,-0.375702,0.011169,-0.113373,0.000395,-0.000264,0.000221,-43.75,-2.56,-30.18,1a
2019-07-15_184918:920,-0.336548,0.009644,-0.09301799999999999,-2e-06,0.0036420000000000003,0.003242,-42.68,-3.0,-30.18,1a
2019-07-15_184918:940,-0.319275,0.0030210000000000002,-0.0849,-0.002382,0.008739,0.012977,-42.68,-3.0,-30.18,1a
2019-07-15_184918:960,-0.312164,-0.010162000000000001,-0.069641,-0.005282,0.009349,0.015571000000000002,-42.68,-3.0,-30.18,1a
2019-07-15_184918:980,-0.318756,-0.017792,-0.067108,-0.007448000000000001,0.009288,0.015968,-42.25,-2.56,-31.0,1a
2019-07-15_184919:000,-0.34063699999999997,-0.027435,-0.073212,-0.008059,0.009746,0.01258,-42.25,-2.56,-31.0,1a
2019-07-15_184919:020,-0.381805,-0.028442000000000002,-0.078796,-0.008454999999999999,0.010265,0.007423000000000001,-42.68,-2.25,-30.18,1a
2019-07-15_184919:040,-0.455017,-0.024902,-0.09201000000000001,-0.00812,0.010081999999999999,0.0053479999999999995,-42.68,-2.25,-30.18,1a
2019-07-15_184919:060,-0.476379,-0.023375999999999997,-0.096588,-0.007723000000000001,0.010936,0.003913000000000001,-42.68,-2.25,-30.18,1a
2019-07-15_184919:080,-0.525696,-0.022369,-0.100159,-0.0069299999999999995,0.011607,0.001106,-43.369999,-2.25,-30.18,1a
2019-07-15_184919:100,-0.570435,-0.019318000000000002,-0.106232,-0.0051600000000000005,0.010661,-0.001702,-43.369999,-2.25,-30.18,1a
2019-07-15_184919:120,-0.618225,-0.015228,-0.11438,-0.001864,0.006023,-0.007073,-43.369999,-2.25,-29.370001000000002,1a
2019-07-15_184919:140,-0.588226,-0.013702,-0.12200899999999999,-0.000521,0.004222,-0.009667,-43.369999,-2.25,-29.370001000000002,1a
2019-07-15_184919:160,-0.551636,-0.007111,-0.144379,0.004576,-0.0040479999999999995,-0.017723,-43.369999,-2.25,-29.370001000000002,1a
2019-07-15_184919:180,-0.779907,-0.006072999999999999,-0.12506099999999998,0.007626999999999999,-0.009267000000000001,-0.020287,-44.560001,-2.25,-29.370001000000002,1a
2019-07-15_184919:200,-0.802795,0.029968,-0.20486500000000002,0.008756,-0.001698,-0.016106,-44.560001,-2.25,-29.370001000000002,1a
2019-07-15_184919:220,-0.581116,0.019806,-0.11233499999999999,0.00897,0.008556,-0.017632,-44.18,-2.25,-28.559998999999998,1a
2019-07-15_184919:240,-0.543488,0.025421,-0.129639,0.000669,0.023631,-0.0017929999999999999,-44.18,-2.25,-28.559998999999998,1a
2019-07-15_184919:260,-0.397583,0.013702,-0.12301600000000001,-0.005678,0.026133999999999998,0.02024,-44.18,-2.25,-28.559998999999998,1a
2019-07-15_184919:280,-0.47995,-0.006592,-0.080322,-0.014497999999999999,0.013927000000000002,0.034217000000000004,-43.75,-3.25,-29.0,1a
2019-07-15_184919:300,-0.42248500000000005,-0.030487,-0.130646,-0.02167,-0.003102,0.045967,-43.75,-3.25,-29.0,1a
2019-07-15_184919:320,-0.361969,-0.053375,-0.122528,-0.023867,-0.013509,0.046912999999999996,-44.560001,-3.0,-27.059998999999998,1a
2019-07-15_184919:340,-0.45095799999999997,-0.075226,-0.151001,-0.025911,-0.040852,0.027076,-44.560001,-3.0,-27.059998999999998,1a
2019-07-15_184919:360,-0.45654300000000003,-0.073212,-0.157074,-0.028322000000000003,-0.04659,0.012062,-44.560001,-3.0,-27.059998999999998,1a
2019-07-15_184919:380,-0.462646,-0.06405599999999999,-0.151489,-0.028322000000000003,-0.046773,0.008674,-44.18,-1.18,-27.370001000000002,1a
2019-07-15_184919:400,-0.453491,-0.059479,-0.150482,-0.027895,-0.038228,7.000000000000001e-06,-44.18,-1.18,-27.370001000000002,1a
2019-07-15_184919:420,-0.41384899999999997,-0.041168,-0.152008,-0.027589999999999996,-0.033772,-0.002892,-42.68,-1.5,-29.370001000000002,1a
2019-07-15_184919:440,-0.398071,-0.027954000000000003,-0.145905,-0.025667000000000002,-0.017506,-0.0057,-42.68,-1.5,-29.370001000000002,1a
2019-07-15_184919:460,-0.402161,-0.014740000000000001,-0.131653,-0.024263999999999997,-0.006886,-0.006279,-42.68,-1.5,-29.370001000000002,1a
2019-07-15_184919:480,-0.396057,-0.010162000000000001,-0.12048299999999999,-0.023653,-0.002034,-0.007744,-41.869999,-2.25,-29.75,1a
2019-07-15_184919:500,-0.371643,-0.0035399999999999997,-0.097107,-0.02228,0.009685,-0.013512,-41.869999,-2.25,-29.75,1a
2019-07-15_184919:520,-0.356903,0.000488,-0.08843999999999999,-0.022127,0.011545999999999999,-0.013604,-41.18,-4.06,-29.75,1a
2019-07-15_184919:540,-0.346222,-0.002014,-0.079803,-0.023531,0.010661,-0.008934000000000001,-41.18,-4.06,-29.75,1a
2019-07-15_184919:560,-0.379791,-0.005065999999999999,-0.076752,-0.024843,0.005901,-0.004448,-41.18,-4.06,-29.75,1a
2019-07-15_184919:580,-0.42453,-0.012695,-0.08590700000000001,-0.025118,0.003886,-0.003228,-41.5,-4.75,-29.75,1a
2019-07-15_184919:600,-0.47280900000000003,-0.014221000000000001,-0.08590700000000001,-0.02698,-0.00011100000000000001,-0.00045099999999999996,-41.5,-4.75,-29.75,1a
2019-07-15_184919:620,-0.52417,-0.017273,-0.097107,-0.027926,0.0010789999999999999,0.000831,-42.18,-5.56,-29.75,1a
2019-07-15_184919:640,-0.562286,-0.018799,-0.119476,-0.031283,0.002635,0.007087,-42.18,-5.56,-29.75,1a
2019-07-15_184919:660,-0.6177060000000001,-0.026917,-0.14386,-0.033999,0.002696,0.012855000000000002,-42.18,-5.56,-29.75,1a
2019-07-15_184919:680,-0.6222840000000001,-0.029480000000000003,-0.157074,-0.035463,0.002849,0.016456000000000002,-41.060001,-6.0,-28.559998999999998,1a
2019-07-15_184919:700,-0.564331,-0.033539,-0.159119,-0.037995999999999995,0.009929,0.024665,-41.060001,-6.0,-28.559998999999998,1a
2019-07-15_184919:720,-0.541443,-0.038116000000000004,-0.172333,-0.037478,0.012737,0.02433,-41.060001,-6.0,-28.559998999999998,1a
2019-07-15_184919:740,-0.8617549999999999,-0.05285599999999999,-0.14843800000000001,-0.035463,0.013316,0.019813,-40.68,-6.68,-27.18,1a
2019-07-15_184919:760,-0.607056,-0.023895,-0.223175,-0.037264,0.024883000000000002,0.029060000000000002,-40.68,-6.68,-27.18,1a
2019-07-15_184919:780,-0.514008,-0.029480000000000003,-0.088959,-0.038119,0.033855,0.028175,-41.5,-6.75,-29.059998999999998,1a
2019-07-15_184919:800,-0.410797,-0.010162000000000001,-0.184021,-0.035463,0.032787000000000004,0.025337000000000002,-41.5,-6.75,-29.059998999999998,1a
2019-07-15_184919:820,-0.467743,0.0,-0.112854,-0.034884,0.027599000000000002,0.011268,-42.18,-6.68,-26.25,1a
2019-07-15_184919:840,-0.42453,0.012177,-0.147949,-0.032563999999999996,0.008098000000000001,-0.005822,-42.18,-6.68,-26.25,1a
2019-07-15_184919:860,-0.427063,0.022369,-0.143372,-0.031435000000000005,-0.023671,-0.022362,-42.18,-6.68,-26.25,1a
2019-07-15_184919:880,-0.462128,0.028442000000000002,-0.17843599999999998,-0.031038,-0.034566,-0.022637,-43.0,-6.75,-24.25,1a
2019-07-15_184919:900,-0.510437,0.025908999999999998,-0.192688,-0.028109,-0.049152999999999995,-0.011589,-43.0,-6.75,-24.25,1a
2019-07-15_184919:920,-0.518066,0.024384,-0.195221,-0.026461000000000002,-0.046314999999999995,-0.007409000000000001,-43.0,-6.75,-24.25,1a
2019-07-15_184919:940,-0.485016,0.023895,-0.19574,-0.021943999999999998,-0.029133999999999997,0.004829,-41.869999,-8.68,-25.5,1a
2019-07-15_184919:960,-0.438751,0.022369,-0.186066,-0.020662,-0.023396,0.008216,-41.869999,-8.68,-25.5,1a
2019-07-15_184919:980,-0.378265,0.018799,-0.163696,-0.018801,-0.013905,0.013465000000000001,-38.869999,-10.06,-26.25,1a
2019-07-15_184920:000,-0.35436999999999996,0.014740000000000001,-0.14843800000000001,-0.019076,-0.007831999999999999,0.018226,-38.869999,-10.06,-26.25,1a
2019-07-15_184920:020,-0.326385,0.0025329999999999997,-0.129639,-0.020144,-0.0040479999999999995,0.023933000000000003,-38.869999,-10.06,-26.25,1a
2019-07-15_184920:040,-0.31369,-0.006072999999999999,-0.11843900000000002,-0.021731,-0.0018510000000000002,0.027808999999999997,-40.060001,-10.18,-26.75,1a
2019-07-15_184920:060,-0.315704,-0.018799,-0.10928299999999999,-0.023592,-0.002827,0.028938,-40.060001,-10.18,-26.75,1a
2019-07-15_184920:080,-0.336548,-0.026917,-0.11080899999999999,-0.023928,-0.002919,0.028663,-38.869999,-9.5,-27.559998999999998,1a
2019-07-15_184920:100,-0.376221,-0.040161,-0.11080899999999999,-0.023653,-0.001759,0.025611000000000002,-38.869999,-9.5,-27.559998999999998,1a
2019-07-15_184920:120,-0.416382,-0.043701,-0.11795,-0.022677000000000003,-0.001027,0.024543000000000002,-38.869999,-9.5,-27.559998999999998,1a
2019-07-15_184920:140,-0.449432,-0.048798,-0.131165,-0.01993,0.004436,0.019905000000000003,-39.25,-8.75,-26.0,1a
2019-07-15_184920:160,-0.502808,-0.051849,-0.135223,-0.018801,0.006145,0.018684,-39.25,-8.75,-26.0,1a
2019-07-15_184920:180,-0.557739,-0.054901,-0.154022,-0.016543000000000002,0.008098000000000001,0.018104,-38.18,-8.37,-26.0,1a
2019-07-15_184920:200,-0.572479,-0.056915,-0.153534,-0.014223,0.009593,0.015236000000000001,-38.18,-8.37,-26.0,1a
2019-07-15_184920:220,-0.579071,-0.050842,-0.181488,-0.01166,0.008403,0.010719,-38.18,-8.37,-26.0,1a
2019-07-15_184920:240,-0.558746,-0.053375,-0.18811,-0.008791,0.006938,0.003761,-38.75,-8.37,-25.25,1a
2019-07-15_184920:260,-0.641602,-0.06405599999999999,-0.189117,-0.006684999999999999,0.003886,-0.004815,-38.75,-8.37,-25.25,1a
2019-07-15_184920:280,-0.8414309999999999,-0.029968,-0.248596,-0.005678,-0.006764,-0.00396,-38.5,-8.37,-25.25,1a
2019-07-15_184920:300,-0.581116,-0.057434000000000006,-0.190643,-0.004275,0.004314,-0.004357,-38.5,-8.37,-25.25,1a
2019-07-15_184920:320,-0.529755,-0.042694,-0.20486500000000002,-0.00403,0.015727,-0.017907,-38.5,-8.37,-25.25,1a
2019-07-15_184920:340,-0.384338,-0.040161,-0.20742800000000003,-0.006991,0.023204,0.001655,-38.060001,-8.0,-24.370001000000002,1a
2019-07-15_184920:360,-0.414337,-0.049805,-0.166229,-0.011446,0.017558,0.017158,-38.060001,-8.0,-24.370001000000002,1a
2019-07-15_184920:380,-0.376221,-0.067108,-0.213013,-0.015688,-0.000661,0.021736000000000002,-38.5,-9.5,-24.059998999999998,1a
2019-07-15_184920:400,-0.352844,-0.076263,-0.21859699999999999,-0.017153,-0.021077000000000002,0.017311,-38.5,-9.5,-24.059998999999998,1a
2019-07-15_184920:420,-0.44384799999999996,-0.070648,-0.24758899999999998,-0.015566,-0.033437,0.003822,-38.5,-9.5,-24.059998999999998,1a
2019-07-15_184920:440,-0.467224,-0.056427,-0.24963400000000002,-0.015627000000000002,-0.03365,-0.007347,-37.0,-9.18,-24.370001000000002,1a
2019-07-15_184920:460,-0.47332799999999997,-0.034058,-0.24758899999999998,-0.015627000000000002,-0.029256,-0.009087,-37.0,-9.18,-24.370001000000002,1a
2019-07-15_184920:480,-0.457581,-0.022369,-0.238434,-0.016878,-0.022022999999999997,-0.005303,-37.369999,-8.75,-25.559998999999998,1a
2019-07-15_184920:500,-0.425537,-0.008118,-0.213531,-0.018496000000000002,-0.013050999999999998,-0.003167,-37.369999,-8.75,-25.559998999999998,1a
2019-07-15_184920:520,-0.41485600000000006,-0.000488,-0.19775399999999999,-0.019808000000000003,-0.0033770000000000002,-0.003563,-37.369999,-8.75,-25.559998999999998,1a
2019-07-15_184920:540,-0.394531,0.0030210000000000002,-0.172333,-0.020937,0.005412,-0.005242,-36.25,-9.5,-25.25,1a
2019-07-15_184920:560,-0.379272,0.004059,-0.153015,-0.021943999999999998,0.011852,-0.006615,-36.25,-9.5,-25.25,1a
2019-07-15_184920:580,-0.35739099999999996,0.0025329999999999997,-0.131165,-0.023316999999999997,0.014995,-0.005974,-35.869999,-9.87,-26.059998999999998,1a
2019-07-15_184920:600,-0.3508,-0.000488,-0.12149000000000001,-0.024263999999999997,0.015116999999999998,-0.004174000000000001,-35.869999,-9.87,-26.059998999999998,1a
2019-07-15_184920:620,-0.35791,-0.0035399999999999997,-0.115906,-0.025332,0.013255000000000001,-0.003106,-35.869999,-9.87,-26.059998999999998,1a
2019-07-15_184920:640,-0.393494,-0.009125,-0.114899,-0.026461000000000002,0.010875,-0.0021899999999999997,-35.5,-10.56,-24.5,1a
2019-07-15_184920:660,-0.397583,-0.010651,-0.11843900000000002,-0.027254,0.008556,-0.00023700000000000001,-35.5,-10.56,-24.5,1a
2019-07-15_184920:680,-0.46417200000000003,-0.013213999999999998,-0.133179,-0.027712,0.006084,0.001258,-35.5,-11.37,-22.870001000000002,1a
2019-07-15_184920:700,-0.5048520000000001,-0.015228,-0.137268,-0.028841000000000002,0.008159,0.005043,-35.5,-11.37,-22.870001000000002,1a
2019-07-15_184920:720,-0.544006,-0.012695,-0.157074,-0.031038,0.011943,0.010749,-35.5,-11.37,-22.870001000000002,1a
2019-07-15_184920:740,-0.5846859999999999,-0.016753999999999998,-0.165222,-0.034731,0.014995,0.017981999999999998,-35.18,-12.18,-23.370001000000002,1a
2019-07-15_184920:760,-0.568909,-0.024384,-0.180481,-0.039522,0.015513999999999998,0.024482,-35.18,-12.18,-23.370001000000002,1a
2019-07-15_184920:780,-0.5709529999999999,-0.025908999999999998,-0.176422,-0.04349,0.017711,0.027717000000000002,-35.18,-12.56,-24.18,1a
2019-07-15_184920:800,-0.7677,-0.017792,-0.23284899999999997,-0.046633,0.015116999999999998,0.030983,-35.18,-12.56,-24.18,1a
2019-07-15_184920:820,-0.63855,-0.049805,-0.19574,-0.049471,0.00822,0.039528,-35.18,-12.56,-24.18,1a
2019-07-15_184920:840,-0.514496,-0.019806,-0.219635,-0.051729,0.012462,0.034431,-35.869999,-12.18,-22.18,1a
2019-07-15_184920:860,-0.469757,-0.010651,-0.180481,-0.048494,0.023143,0.025276,-35.869999,-12.18,-22.18,1a
2019-07-15_184920:880,-0.46316499999999994,0.027435,-0.171326,-0.044039,0.028941,0.006233,-35.869999,-11.75,-21.370001000000002,1a
2019-07-15_184920:900,-0.453003,0.063538,-0.171844,-0.043581,0.021831,-0.0017929999999999999,-35.869999,-11.75,-21.370001000000002,1a
2019-07-15_184920:920,-0.410278,0.072174,-0.1698,-0.045443,0.00883,0.002235,-35.869999,-11.75,-21.370001000000002,1a
2019-07-15_184920:940,-0.44384799999999996,0.071686,-0.177948,-0.05002,-0.006337,0.004371,-35.5,-12.06,-19.370001000000002,1a
2019-07-15_184920:960,-0.474854,0.06405599999999999,-0.185059,-0.054110000000000005,-0.017232,0.012672,-35.5,-12.06,-19.370001000000002,1a
2019-07-15_184920:980,-0.453003,0.049805,-0.182007,-0.056704,-0.021504,0.025947,-35.5,-12.5,-19.0,1a
2019-07-15_184921:000,-0.42807,0.036072,-0.194214,-0.05823,-0.020558,0.031105,-35.5,-12.5,-19.0,1a
2019-07-15_184921:020,-0.40368699999999996,0.026427999999999997,-0.201843,-0.058962,-0.018574,0.031318,-35.5,-12.5,-19.0,1a
2019-07-15_184921:040,-0.394531,0.008636,-0.20080599999999998,-0.058962,-0.016652,0.032356,-35.18,-12.87,-19.25,1a
2019-07-15_184921:060,-0.389954,-0.006072999999999999,-0.195221,-0.058626,-0.013142,0.032722,-35.18,-12.87,-19.25,1a
2019-07-15_184921:080,-0.381805,-0.020325,-0.181488,-0.057833,-0.0072829999999999995,0.031715,-33.68,-12.87,-18.870001000000002,1a
2019-07-15_184921:100,-0.370636,-0.027954000000000003,-0.172333,-0.056367999999999994,-0.000386,0.029852999999999998,-33.68,-12.87,-18.870001000000002,1a
2019-07-15_184921:120,-0.35739099999999996,-0.03302,-0.157074,-0.053469,0.00584,0.026588,-33.68,-12.87,-18.870001000000002,1a
2019-07-15_184921:140,-0.360962,-0.03302,-0.149963,-0.049958999999999996,0.010814,0.02256,-34.369999,-13.18,-18.370001000000002,1a
2019-07-15_184921:160,-0.37011700000000003,-0.029480000000000003,-0.149475,-0.045626,0.015178,0.020881,-34.369999,-13.18,-18.370001000000002,1a
2019-07-15_184921:180,-0.377747,-0.028442000000000002,-0.151489,-0.041201,0.019847,0.021034,-34.369999,-12.87,-17.25,1a
2019-07-15_184921:200,-0.410278,-0.024384,-0.151489,-0.037325,0.023601,0.021034,-34.369999,-12.87,-17.25,1a
2019-07-15_184921:220,-0.473846,-0.022369,-0.149963,-0.033632,0.025127,0.020424,-34.369999,-12.87,-17.25,1a
2019-07-15_184921:240,-0.520111,-0.024384,-0.160126,-0.030642000000000003,0.025675999999999997,0.018684,-34.0,-13.18,-16.059998999999998,1a
2019-07-15_184921:260,-0.560272,-0.028442000000000002,-0.152527,-0.027712,0.028667,0.014503,-34.0,-13.18,-16.059998999999998,1a
2019-07-15_184921:280,-0.56839,-0.024384,-0.167755,-0.025637,0.031993,0.011207,-34.369999,-12.87,-14.87,1a
2019-07-15_184921:300,-0.5541689999999999,-0.029480000000000003,-0.162689,-0.023256,0.034953,0.009406999999999999,-34.369999,-12.87,-14.87,1a
2019-07-15_184921:320,-0.6812739999999999,-0.041168,-0.15506,-0.02054,0.035013999999999997,0.0033640000000000002,-34.369999,-12.87,-14.87,1a
2019-07-15_184921:340,-0.91922,-0.004547,-0.19622799999999999,-0.019198,0.027141000000000002,-0.00045099999999999996,-34.75,-13.56,-13.68,1a
2019-07-15_184921:360,-0.566864,-0.039124,-0.12912,-0.018801,0.024730000000000002,0.003822,-34.75,-13.56,-13.68,1a
2019-07-15_184921:380,-0.47280900000000003,-0.023375999999999997,-0.157074,-0.016085,0.034221,-0.015128999999999998,-34.0,-13.06,-12.5,1a
2019-07-15_184921:400,-0.36248800000000003,-0.022858,-0.17385899999999999,-0.018801,0.033977,-0.005974,-34.0,-13.06,-12.5,1a
2019-07-15_184921:420,-0.45095799999999997,-0.039642000000000004,-0.139801,-0.022524000000000002,0.028544999999999997,0.019752000000000002,-34.0,-13.06,-12.5,1a
2019-07-15_184921:440,-0.427063,-0.063538,-0.18454,-0.029635,0.010753,0.036537,-34.75,-14.25,-11.68,1a
2019-07-15_184921:460,-0.381805,-0.077271,-0.17337,-0.033602,-0.006551,0.035774,-34.75,-14.25,-11.68,1a
2019-07-15_184921:480,-0.47433500000000006,-0.068115,-0.19775399999999999,-0.032473,-0.023091,0.018775999999999998,-34.75,-14.25,-10.5,1a
2019-07-15_184921:500,-0.485016,-0.051849,-0.201324,-0.033236,-0.027211000000000003,0.002449,-34.75,-14.25,-10.5,1a
2019-07-15_184921:520,-0.496704,-0.03302,-0.19775399999999999,-0.035158,-0.021504,-0.003228,-34.75,-14.25,-10.5,1a
2019-07-15_184921:540,-0.475372,-0.019806,-0.194702,-0.0376,-0.013142,-0.005089,-34.369999,-13.5,-10.06,1a
2019-07-15_184921:560,-0.42147799999999996,-0.0030210000000000002,-0.163177,-0.040255,-0.005025,-0.007622,-34.369999,-13.5,-10.06,1a
2019-07-15_184921:580,-0.41232299999999994,0.008636,-0.154541,-0.041444999999999996,0.001292,-0.008934000000000001,-33.68,-14.56,-10.87,1a
2019-07-15_184921:600,-0.391968,0.010162000000000001,-0.12558,-0.042788,0.007670999999999999,-0.007409000000000001,-33.68,-14.56,-10.87,1a
2019-07-15_184921:620,-0.384338,0.011687999999999999,-0.109802,-0.04349,0.01292,-0.007561,-33.68,-14.56,-10.87,1a
2019-07-15_184921:640,-0.360962,0.012177,-0.095062,-0.044436,0.015636,-0.0078049999999999994,-32.75,-15.0,-10.5,1a
2019-07-15_184921:660,-0.355896,0.006072999999999999,-0.089478,-0.045015,0.015238999999999999,-0.006279,-32.75,-15.0,-10.5,1a
2019-07-15_184921:680,-0.373688,-0.0035399999999999997,-0.090485,-0.045564999999999994,0.012004,-0.004815,-32.060001,-16.0,-10.5,1a
2019-07-15_184921:700,-0.41333000000000003,-0.006072999999999999,-0.08996599999999999,-0.046023,0.008556,-0.004296,-32.060001,-16.0,-10.5,1a
2019-07-15_184921:720,-0.45401,-0.011169,-0.105743,-0.045962,0.006175,-0.003624,-32.060001,-16.0,-10.5,1a
2019-07-15_184921:740,-0.466217,-0.012177,-0.102173,-0.045229000000000005,0.00761,-0.004174000000000001,-32.060001,-16.370001000000002,-8.87,1a
2019-07-15_184921:760,-0.49722299999999997,-0.0055850000000000006,-0.119476,-0.045168,0.009807,-0.0034409999999999996,-32.060001,-16.370001000000002,-8.87,1a
2019-07-15_184921:780,-0.531281,0.0,-0.12506099999999998,-0.046145,0.011271999999999999,0.002754,-32.369999,-17.75,-7.25,1a
2019-07-15_184921:800,-0.576019,-0.001007,-0.12658699999999998,-0.048556,0.010997,0.011787,-32.369999,-17.75,-7.25,1a
2019-07-15_184921:820,-0.591278,-0.0035399999999999997,-0.128113,-0.052675,0.010265,0.020942,-32.369999,-17.75,-7.25,1a
2019-07-15_184921:840,-0.5368649999999999,-0.007111,-0.128601,-0.057253,0.011211,0.029852999999999998,-32.5,-17.75,-7.75,1a
2019-07-15_184921:860,-0.5134890000000001,-0.0030210000000000002,-0.13269,-0.061312,0.01411,0.03495,-32.5,-17.75,-7.75,1a
2019-07-15_184921:880,-0.5983890000000001,0.001495,-0.12149000000000001,-0.064608,0.01765,0.037482999999999995,-32.18,-17.5,-5.37,1a
2019-07-15_184921:900,-0.76059,0.018799,-0.165741,-0.068789,0.013590999999999999,0.038276,-32.18,-17.5,-5.37,1a
2019-07-15_184921:920,-0.531799,0.014740000000000001,-0.092529,-0.075503,0.016063,0.043129,-32.18,-17.5,-5.37,1a
2019-07-15_184921:940,-0.46469099999999997,0.022369,-0.150482,-0.083071,0.021343,0.043739,-33.25,-17.5,-3.87,1a
2019-07-15_184921:960,-0.5058590000000001,0.028961,-0.118958,-0.08493200000000001,0.024730000000000002,0.045631,-33.25,-17.5,-3.87,1a
2019-07-15_184921:980,-0.525696,0.041687,-0.149475,-0.08771,0.018382,0.031105,-33.25,-16.0,-2.0,1a
2019-07-15_184922:000,-0.497742,0.065582,-0.127594,-0.091036,0.011271999999999999,0.01371,-33.25,-16.0,-2.0,1a
2019-07-15_184922:020,-0.525696,0.06253099999999999,-0.14743,-0.09362999999999999,0.002177,0.005745,-33.25,-16.0,-2.0,1a
2019-07-15_184922:040,-0.525177,0.050323,-0.149963,-0.09652899999999999,-0.008931,0.005226,-34.369999,-15.25,1.18,1a
2019-07-15_184922:060,-0.51297,0.042175,-0.151489,-0.097353,-0.016377000000000003,0.014137,-34.369999,-15.25,1.18,1a
2019-07-15_184922:080,-0.486023,0.025421,-0.149475,-0.094546,-0.016103,0.025519999999999998,-33.369999,-16.5,0.75,1a
2019-07-15_184922:100,-0.463654,0.024902,-0.141327,-0.089632,-0.009358,0.029976,-33.369999,-16.5,0.75,1a
2019-07-15_184922:120,-0.404694,0.024384,-0.132172,-0.084444,0.000865,0.030432999999999998,-33.369999,-16.5,0.75,1a
2019-07-15_184922:140,-0.361969,0.023375999999999997,-0.11538699999999999,-0.080935,0.010478,0.03199,-33.369999,-14.56,3.06,1a
2019-07-15_184922:160,-0.34265100000000004,0.015228,-0.111328,-0.079348,0.015453,0.035774,-33.369999,-14.56,3.06,1a
2019-07-15_184922:180,-0.31369,0.006592,-0.117432,-0.07913400000000001,0.015575,0.034309,-33.75,-12.75,2.68,1a
2019-07-15_184922:200,-0.315704,-0.002014,-0.11795,-0.07947,0.013408000000000002,0.03257,-33.75,-12.75,2.68,1a
2019-07-15_184922:220,-0.358917,-0.019318000000000002,-0.12301600000000001,-0.079928,0.006816,0.030128,-33.75,-12.75,2.68,1a
2019-07-15_184922:240,-0.37316900000000003,-0.031006,-0.12048299999999999,-0.079012,0.006816,0.028999,-35.25,-11.56,4.68,1a
2019-07-15_184922:260,-0.41842700000000005,-0.039124,-0.12149000000000001,-0.072176,0.009197,0.017768,-35.25,-11.56,4.68,1a
2019-07-15_184922:280,-0.45401,-0.040161,-0.12200899999999999,-0.06561499999999999,0.009959,0.012275,-35.25,-9.5,5.37,1a
2019-07-15_184922:300,-0.5109560000000001,-0.03302,-0.124054,-0.057924,0.00941,0.009956,-35.25,-9.5,5.37,1a
2019-07-15_184922:320,-0.528748,-0.028961,-0.12353499999999999,-0.051333000000000004,0.007823,0.008796,-35.25,-9.5,5.37,1a
2019-07-15_184922:340,-0.590759,-0.020325,-0.114899,-0.045107,0.006145,0.007881,-35.25,-9.18,7.06,1a
2019-07-15_184922:360,-0.584167,-0.009644,-0.12149000000000001,-0.040987,0.0045579999999999996,0.010322,-35.25,-9.18,7.06,1a
2019-07-15_184922:380,-0.559753,-0.004059,-0.12454200000000001,-0.038546,0.003246,0.010353,-34.5,-9.18,7.37,1a
2019-07-15_184922:400,-0.551117,-0.0030210000000000002,-0.133179,-0.037661,0.002788,0.004951,-34.5,-9.18,7.37,1a
2019-07-15_184922:420,-0.675171,-0.014221000000000001,-0.12149000000000001,-0.036135,0.004619,-0.000267,-34.5,-9.18,7.37,1a
2019-07-15_184922:440,-0.806854,0.001495,-0.155548,-0.035616,0.006023,0.000496,-34.5,-8.0,8.5,1a
2019-07-15_184922:460,-0.51297,-0.020325,-0.116425,-0.035738,0.013377000000000002,0.001381,-34.5,-8.0,8.5,1a
2019-07-15_184922:480,-0.48553500000000005,-0.009125,-0.13623,-0.034395,0.013744,-0.0057,-34.560001,-8.06,7.75,1a
2019-07-15_184922:500,-0.381317,-0.000488,-0.134216,-0.036593,0.013744,0.005806,-34.560001,-8.06,7.75,1a
2019-07-15_184922:520,-0.427063,-0.008118,-0.10928299999999999,-0.041323,0.007213,0.016761,-34.560001,-8.06,7.75,1a
2019-07-15_184922:540,-0.41333000000000003,-0.007111,-0.167267,-0.050356,-0.004964,0.029731,-35.0,-7.37,9.37,1a
2019-07-15_184922:560,-0.417908,-0.022369,-0.171844,-0.055390999999999996,-0.022206,0.034033999999999995,-35.0,-7.37,9.37,1a
2019-07-15_184922:580,-0.47280900000000003,-0.014740000000000001,-0.20285,-0.060365999999999996,-0.037801,0.022895,-35.369999,-7.0,9.37,1a
2019-07-15_184922:600,-0.48706099999999997,-0.001495,-0.212006,-0.06778200000000001,-0.041524,0.020759,-35.369999,-7.0,9.37,1a
2019-07-15_184922:620,-0.495697,0.012177,-0.209961,-0.07574700000000001,-0.035817,0.027045999999999997,-35.369999,-7.0,9.37,1a
2019-07-15_184922:640,-0.48754899999999995,0.010162000000000001,-0.21048000000000003,-0.085329,-0.025685000000000003,0.023933000000000003,-35.0,-4.75,8.5,1a
2019-07-15_184922:660,-0.42453,0.009644,-0.182007,-0.095461,-0.008076,0.017585,-35.0,-4.75,8.5,1a
2019-07-15_184922:680,-0.416382,0.002014,-0.17337,-0.096468,-0.0024920000000000003,0.015846000000000002,-35.369999,-3.25,7.0,1a
2019-07-15_184922:700,-0.404175,-0.011687999999999999,-0.147949,-0.097201,0.006633,0.009956,-35.369999,-3.25,7.0,1a
2019-07-15_184922:720,-0.388428,-0.015228,-0.135742,-0.094423,0.013011000000000002,0.008094,-35.369999,-3.25,7.0,1a
2019-07-15_184922:740,-0.36554000000000003,-0.017273,-0.117432,-0.088564,0.015636,0.010933,-35.68,-1.5,6.25,1a
2019-07-15_184922:760,-0.366058,-0.022858,-0.118958,-0.08200299999999999,0.014049,0.013130000000000001,-35.68,-1.5,6.25,1a
2019-07-15_184922:780,-0.36248800000000003,-0.026427999999999997,-0.13269,-0.075167,0.009531999999999999,0.014044999999999998,-35.0,-1.06,8.25,1a
2019-07-15_184922:800,-0.417389,-0.031494,-0.143372,-0.069124,0.003124,0.016638999999999998,-35.0,-1.06,8.25,1a
2019-07-15_184922:820,-0.434174,-0.040161,-0.1586,-0.06341799999999999,0.000346,0.019752000000000002,-35.0,-1.06,8.25,1a
2019-07-15_184922:840,-0.462646,-0.036591000000000005,-0.177948,-0.05823,-0.0005690000000000001,0.020087999999999998,-35.0,0.37,10.56,1a
2019-07-15_184922:860,-0.5119630000000001,-0.039124,-0.17385899999999999,-0.05450599999999999,0.00172,0.019752000000000002,-35.0,0.37,10.56,1a
2019-07-15_184922:880,-0.56076,-0.039642000000000004,-0.180481,-0.051789999999999996,0.006023,0.017981999999999998,-34.560001,2.18,8.56,1a
2019-07-15_184922:900,-0.582642,-0.042175,-0.19165,-0.049868,0.009013,0.017494,-34.560001,2.18,8.56,1a
2019-07-15_184922:920,-0.5658569999999999,-0.045745999999999995,-0.19622799999999999,-0.04703,0.008891,0.017555,-34.560001,2.18,8.56,1a
2019-07-15_184922:940,-0.526215,-0.045745999999999995,-0.192688,-0.042910000000000004,0.009134999999999999,0.013313,-35.369999,3.25,9.56,1a
2019-07-15_184922:960,-0.5323180000000001,-0.034546,-0.185059,-0.038271,0.011881999999999998,0.008216,-35.369999,3.25,9.56,1a
2019-07-15_184922:980,-0.6721189999999999,-0.018799,-0.154022,-0.034823,0.014995,0.010414,-35.0,4.37,9.18,1a
2019-07-15_184923:000,-0.59433,0.022369,-0.226227,-0.038119,0.00648,0.023933000000000003,-35.0,4.37,9.18,1a
2019-07-15_184923:020,-0.531281,-0.016753999999999998,-0.138794,-0.040041,0.011455,0.029060000000000002,-35.0,4.37,9.18,1a
2019-07-15_184923:040,-0.463654,-0.0025329999999999997,-0.170319,-0.039064999999999996,0.017558,0.025062,-34.18,5.0,9.25,1a
2019-07-15_184923:060,-0.460114,0.000488,-0.104218,-0.037538999999999996,0.026469,0.024543000000000002,-34.18,5.0,9.25,1a
2019-07-15_184923:080,-0.48300200000000004,0.006592,-0.119965,-0.037142,0.021159,0.020942,-33.869999,6.5,7.68,1a
2019-07-15_184923:100,-0.449432,0.020325,-0.111328,-0.037203,0.010936,0.013588,-33.869999,6.5,7.68,1a
2019-07-15_184923:120,-0.49316400000000005,0.022858,-0.11438,-0.03586,-0.0037119999999999996,0.003822,-33.869999,6.5,7.68,1a
2019-07-15_184923:140,-0.485016,0.041168,-0.13269,-0.035067,-0.015248,-0.001641,-33.5,7.37,8.87,1a
2019-07-15_184923:160,-0.447906,0.043701,-0.137268,-0.035006,-0.022267,-0.0013050000000000002,-33.5,7.37,8.87,1a
2019-07-15_184923:180,-0.41995200000000005,0.06149299999999999,-0.15506,-0.036196,-0.025532,0.004097,-34.560001,7.0,8.56,1a
2019-07-15_184923:200,-0.398071,0.062012,-0.159119,-0.04059,-0.024922,0.016791999999999998,-34.560001,7.0,8.56,1a
2019-07-15_184923:220,-0.377747,0.047791,-0.161163,-0.047152,-0.021412999999999998,0.02555,-34.560001,7.0,8.56,1a
2019-07-15_184923:240,-0.367584,0.03302,-0.162689,-0.054262,-0.018636,0.027717000000000002,-34.18,8.5,7.37,1a
2019-07-15_184923:260,-0.387909,0.014221000000000001,-0.157593,-0.060091,-0.015248,0.028388999999999998,-34.18,8.5,7.37,1a
2019-07-15_184923:280,-0.391968,-0.0055850000000000006,-0.152527,-0.06296,-0.007893,0.02787,-34.18,9.25,5.37,1a
2019-07-15_184923:300,-0.381805,-0.020844,-0.14743,-0.06302100000000001,-0.0009050000000000001,0.022895,-34.18,9.25,5.37,1a
2019-07-15_184923:320,-0.379791,-0.022369,-0.14843800000000001,-0.060976,0.004161,0.016243,-34.18,9.25,5.37,1a
2019-07-15_184923:340,-0.402161,-0.017273,-0.149963,-0.056977999999999994,0.005901,0.011116,-33.5,10.5,6.25,1a
2019-07-15_184923:360,-0.408752,-0.0035399999999999997,-0.154022,-0.052736,0.005686999999999999,0.009346,-33.5,10.5,6.25,1a
2019-07-15_184923:380,-0.478912,0.012695,-0.155548,-0.048402999999999995,0.006145,0.009468,-33.869999,11.87,4.68,1a
2019-07-15_184923:400,-0.49823,0.026917,-0.17385899999999999,-0.046419,0.008098000000000001,0.012855000000000002,-33.869999,11.87,4.68,1a
2019-07-15_184923:420,-0.511444,0.034546,-0.17690999999999998,-0.046755,0.008495,0.019111000000000003,-33.869999,11.87,4.68,1a
2019-07-15_184923:440,-0.580109,0.031494,-0.187073,-0.049288,0.006418999999999999,0.02201,-33.5,11.87,3.18,1a
2019-07-15_184923:460,-0.578583,0.015747,-0.19622799999999999,-0.053194000000000005,0.008617,0.022499,-33.5,11.87,3.18,1a
2019-07-15_184923:480,-0.574005,0.001495,-0.207916,-0.055178,0.01234,0.01725,-33.5,12.68,2.25,1a
2019-07-15_184923:500,-0.800751,-0.027954000000000003,-0.19574,-0.055238999999999996,0.012981,0.012123,-33.5,12.68,2.25,1a
2019-07-15_184923:520,-0.761108,-0.018799,-0.264374,-0.054780999999999996,0.006236,0.016426,-33.5,12.68,2.25,1a
2019-07-15_184923:540,-0.516022,-0.049316000000000006,-0.194702,-0.051821000000000006,0.015238999999999999,0.005561,-33.5,13.06,3.5,1a
2019-07-15_184923:560,-0.445862,-0.020844,-0.208954,-0.049746,0.020702,0.002845,-33.5,13.06,3.5,1a
2019-07-15_184923:580,-0.391968,-0.045745999999999995,-0.18454,-0.044649,0.026927,0.017555,-33.5,13.5,2.0,1a
2019-07-15_184923:600,-0.43621800000000005,-0.050842,-0.172852,-0.040529,0.020702,0.007423000000000001,-33.5,13.5,2.0,1a
2019-07-15_184923:620,-0.41995200000000005,-0.028442000000000002,-0.19622799999999999,-0.039126,0.005961999999999999,-0.00011499999999999999,-33.5,13.5,2.0,1a
2019-07-15_184923:640,-0.44638100000000003,-0.025421,-0.183533,-0.03467,-0.006886,0.006965000000000001,-33.060001,14.25,2.0,1a
2019-07-15_184923:660,-0.467743,-0.006592,-0.201843,-0.036745,-0.014728999999999999,0.006141,-33.060001,14.25,2.0,1a
2019-07-15_184923:680,-0.433167,-0.006072999999999999,-0.188599,-0.039736,-0.015248,0.009009999999999999,-33.5,15.0,2.0,1a
2019-07-15_184923:700,-0.432648,-0.015747,-0.190125,-0.04059,-0.01299,0.009009999999999999,-33.5,15.0,2.0,1a
2019-07-15_184923:720,-0.40774499999999997,-0.016753999999999998,-0.17538499999999999,-0.039126,-0.006764,-0.0019760000000000003,-33.5,15.0,2.0,1a
2019-07-15_184923:740,-0.386383,-0.006072999999999999,-0.1698,-0.035067,-0.000386,-0.012139,-33.5,14.56,-0.37,1a
2019-07-15_184923:760,-0.363007,0.008118,-0.166229,-0.030367,0.003886,-0.010856999999999999,-33.5,14.56,-0.37,1a
2019-07-15_184923:780,-0.358917,0.014740000000000001,-0.153015,-0.026033999999999998,0.007365000000000001,-0.008294,-34.560001,14.37,-0.68,1a
2019-07-15_184923:800,-0.35131799999999996,0.034058,-0.139801,-0.023989,0.010997,-0.009423,-34.560001,14.37,-0.68,1a
2019-07-15_184923:820,-0.340118,0.034546,-0.139282,-0.022921,0.011729,-0.004845,-34.560001,14.37,-0.68,1a
2019-07-15_184923:840,-0.37674,0.031494,-0.148956,-0.023409,0.008067,-0.000573,-33.869999,14.37,-0.68,1a
2019-07-15_184923:860,-0.40823400000000004,0.036591000000000005,-0.155548,-0.025727999999999997,0.004619,0.001777,-33.869999,14.37,-0.68,1a
2019-07-15_184923:880,-0.453003,0.022369,-0.167755,-0.028292,0.003246,0.008154999999999999,-34.060001,14.0,-1.06,1a
2019-07-15_184923:900,-0.477386,0.0035399999999999997,-0.17337,-0.030886,0.004375,0.013588,-34.060001,14.0,-1.06,1a
2019-07-15_184923:920,-0.48858599999999996,-0.01828,-0.167755,-0.032412,0.009959,0.011604000000000001,-34.060001,14.0,-1.06,1a
2019-07-15_184923:940,-0.50943,-0.010162000000000001,-0.187073,-0.031435000000000005,0.010875,0.006934999999999999,-34.869999,14.37,-0.68,1a
2019-07-15_184923:960,-0.535858,-0.0030210000000000002,-0.18811,-0.030947000000000002,0.007426,0.00663,-34.869999,14.37,-0.68,1a
2019-07-15_184923:980,-0.552124,-0.010162000000000001,-0.186584,-0.03174,0.003825,0.0102,-34.869999,14.0,-1.06,1a
2019-07-15_184924:000,-0.523651,-0.017273,-0.186584,-0.031435000000000005,0.0023,0.014381,-34.869999,14.0,-1.06,1a
2019-07-15_184924:020,-0.521637,-0.008636,-0.198792,-0.03229,0.001353,0.016914,-34.869999,14.0,-1.06,1a
2019-07-15_184924:040,-0.717377,-0.009644,-0.162689,-0.034273000000000005,0.001537,0.021095,-34.5,14.0,-3.56,1a
2019-07-15_184924:060,-0.676178,0.007599,-0.233337,-0.039736,-0.00417,0.025215,-34.5,14.0,-3.56,1a
2019-07-15_184924:080,-0.56485,-0.064545,-0.144379,-0.044954,-0.006673,0.019447,-34.060001,14.75,-3.87,1a
2019-07-15_184924:100,-0.496216,-0.021332,-0.188599,-0.038057,-0.001515,-0.000512,-34.060001,14.75,-3.87,1a
2019-07-15_184924:120,-0.477905,0.013213999999999998,-0.134216,-0.02878,0.011394,0.007484,-34.060001,14.75,-3.87,1a
2019-07-15_184924:140,-0.467224,0.029480000000000003,-0.146423,-0.022127,0.014995,0.017189,-35.25,16.0,-3.56,1a
2019-07-15_184924:160,-0.451477,0.041168,-0.134705,-0.022616,0.009868,0.013862000000000001,-35.25,16.0,-3.56,1a
2019-07-15_184924:180,-0.490112,0.039642000000000004,-0.133179,-0.024508000000000002,0.001964,0.007484,-34.869999,15.18,-4.25,1a
2019-07-15_184924:200,-0.467743,0.032532,-0.160645,-0.026125,-0.0045060000000000005,0.009224,-34.869999,15.18,-4.25,1a
2019-07-15_184924:220,-0.399109,0.031494,-0.158112,-0.028505000000000003,-0.007954000000000001,0.007942,-34.869999,15.18,-4.25,1a
2019-07-15_184924:240,-0.347229,0.057953,-0.169281,-0.030976999999999998,-0.009084,-0.001854,-34.869999,15.18,-5.5,1a
2019-07-15_184924:260,-0.347748,0.064545,-0.170807,-0.034395,-0.010395999999999999,-0.000786,-34.869999,15.18,-5.5,1a
2019-07-15_184924:280,-0.348267,0.041687,-0.178955,-0.038119,-0.009328,0.011848000000000001,-35.560001,16.0,-5.06,1a
2019-07-15_184924:300,-0.361969,0.023375999999999997,-0.184021,-0.042055,-0.008748,0.018043,-35.560001,16.0,-5.06,1a
2019-07-15_184924:320,-0.377228,0.009644,-0.177429,-0.044649,-0.007741,0.016975,-35.560001,16.0,-5.06,1a
2019-07-15_184924:340,-0.385864,-0.007111,-0.1698,-0.044314,-0.004567,0.01725,-35.560001,16.0,-5.06,1a
2019-07-15_184924:360,-0.385376,-0.032532,-0.156586,-0.042910000000000004,-0.0009660000000000001,0.018318,-35.560001,16.0,-5.06,1a
2019-07-15_184924:380,-0.388916,-0.037598,-0.155548,-0.040255,0.0017809999999999998,0.019081,-34.869999,16.68,-7.06,1a
2019-07-15_184924:400,-0.385376,-0.034546,-0.156586,-0.037386,0.0019030000000000002,0.018562000000000002,-34.869999,16.68,-7.06,1a
2019-07-15_184924:420,-0.42758199999999996,-0.01828,-0.155548,-0.035067,0.000346,0.01493,-34.869999,16.68,-7.06,1a
2019-07-15_184924:440,-0.472321,0.016266,-0.160126,-0.035128,0.0014759999999999999,0.012977,-35.560001,16.68,-8.68,1a
2019-07-15_184924:460,-0.477386,0.019318000000000002,-0.161652,-0.039004000000000004,0.005748,0.012977,-35.560001,16.68,-8.68,1a
2019-07-15_184924:480,-0.490112,0.004059,-0.178955,-0.042910000000000004,0.006755,0.011451000000000001,-36.0,16.25,-9.5,1a
2019-07-15_184924:500,-0.505371,-0.006592,-0.183533,-0.043368000000000004,0.003886,0.00727,-36.0,16.25,-9.5,1a
2019-07-15_184924:520,-0.536377,-0.014740000000000001,-0.187592,-0.042635,0.001415,0.005622,-36.0,16.25,-9.5,1a
2019-07-15_184924:540,-0.5541689999999999,-0.020325,-0.189117,-0.039522,0.001842,0.008674,-35.25,17.18,-9.5,1a
2019-07-15_184924:560,-0.582123,-0.025908999999999998,-0.183014,-0.035525,0.006418999999999999,0.009071,-35.25,17.18,-9.5,1a
2019-07-15_184924:580,-0.700073,-0.021332,-0.177948,-0.030976999999999998,0.010478,0.005226,-35.560001,17.18,-9.5,1a
2019-07-15_184924:600,-0.604492,-0.033539,-0.23895300000000003,-0.030306,0.00016299999999999998,0.009925,-35.560001,17.18,-9.5,1a
2019-07-15_184924:620,-0.55365,-0.036072,-0.160126,-0.02997,0.007091,0.009956,-35.560001,17.18,-9.5,1a
2019-07-15_184924:640,-0.459595,-0.023375999999999997,-0.231323,-0.027193000000000002,0.005443,0.004615,-36.0,16.75,-10.68,1a
2019-07-15_184924:660,-0.367584,-0.037108999999999996,-0.186066,-0.024721,0.010020000000000001,0.007484,-36.0,16.75,-10.68,1a
2019-07-15_184924:680,-0.409271,-0.020325,-0.239441,-0.021059,-0.000233,0.002357,-36.75,16.370001000000002,-12.25,1a
2019-07-15_184924:700,-0.425018,-0.019318000000000002,-0.22116100000000002,-0.018678999999999998,-0.014058000000000001,-0.002648,-36.75,16.370001000000002,-12.25,1a
2019-07-15_184924:720,-0.47079499999999996,-0.013702,-0.23791500000000002,-0.015780000000000002,-0.0248,-0.012261,-36.75,16.370001000000002,-12.25,1a
2019-07-15_184924:740,-0.484009,-0.007111,-0.25012199999999996,-0.012118,-0.028249,-0.018578,-37.369999,17.18,-9.87,1a
2019-07-15_184924:760,-0.48095699999999997,0.020325,-0.24453699999999998,-0.007204,-0.025655,-0.02163,-37.369999,17.18,-9.87,1a
2019-07-15_184924:780,-0.46823100000000006,0.035583,-0.23233,-0.006533,-0.018512999999999998,-0.021477,-37.369999,16.370001000000002,-13.5,1a
2019-07-15_184924:800,-0.415375,0.029480000000000003,-0.196747,-0.008211,-0.008473,-0.017571,-37.369999,16.370001000000002,-13.5,1a
2019-07-15_184924:820,-0.376221,0.016266,-0.184021,-0.008211,0.001201,-0.017632,-37.369999,16.370001000000002,-13.5,1a
2019-07-15_184924:840,-0.365021,-0.001495,-0.159637,-0.0058,0.007823,-0.019768,-38.060001,15.68,-13.06,1a
2019-07-15_184924:860,-0.35436999999999996,-0.008118,-0.14032,-2e-06,0.015331000000000001,-0.01693,-38.060001,15.68,-13.06,1a
2019-07-15_184924:880,-0.338074,-0.015747,-0.126068,0.006559000000000001,0.022472,-0.012657999999999999,-38.5,14.18,-12.68,1a
2019-07-15_184924:900,-0.337067,-0.03302,-0.11795,0.014006000000000001,0.027995,-0.008019,-38.5,14.18,-12.68,1a
2019-07-15_184924:920,-0.339111,-0.05996699999999999,-0.12454200000000001,0.0249,0.031505,-0.004418,-38.5,14.18,-12.68,1a
2019-07-15_184924:940,-0.367584,-0.06405599999999999,-0.136749,0.038297000000000005,0.030467,-0.004509,-38.75,14.56,-11.06,1a
2019-07-15_184924:960,-0.40823400000000004,-0.065063,-0.170807,0.052244000000000006,0.024730000000000002,-0.0032890000000000003,-38.75,14.56,-11.06,1a
2019-07-15_184924:980,-0.44995100000000005,-0.059479,-0.17944300000000002,0.06857100000000001,0.022075,-0.004967,-38.75,15.25,-11.06,1a
2019-07-15_184925:000,-0.497742,-0.043701,-0.186066,0.081327,0.023357,-0.011925,-38.75,15.25,-11.06,1a
2019-07-15_184925:020,-0.562286,-0.006072999999999999,-0.195221,0.088285,0.023021,-0.010003,-38.75,15.25,-11.06,1a
2019-07-15_184925:040,-0.574005,-0.0035399999999999997,-0.197266,0.091276,0.018565,-0.001641,-40.0,14.87,-10.68,1a
2019-07-15_184925:060,-0.58316,-0.001495,-0.21048000000000003,0.091001,0.011791,-0.00045099999999999996,-40.0,14.87,-10.68,1a
2019-07-15_184925:080,-0.578064,-0.001495,-0.20742800000000003,0.090391,0.008006000000000001,-0.007958,-40.25,15.68,-7.5,1a
2019-07-15_184925:100,-0.551117,0.016266,-0.201843,0.089475,0.007091,-0.014122,-40.25,15.68,-7.5,1a
2019-07-15_184925:120,-0.5633239999999999,0.022858,-0.198273,0.086363,0.007213,-0.009941,-40.25,15.68,-7.5,1a
2019-07-15_184925:140,-0.775848,0.034546,-0.199799,0.07824500000000001,-0.0027660000000000002,0.001777,-40.68,15.25,-5.5,1a
2019-07-15_184925:160,-0.512482,0.021851,-0.18096900000000002,0.06677000000000001,0.002239,0.013649000000000001,-40.68,15.25,-5.5,1a
2019-07-15_184925:180,-0.519073,0.015228,-0.12912,0.062254,0.014322999999999999,0.004829,-40.68,14.87,-4.68,1a
2019-07-15_184925:200,-0.421967,0.048798,-0.151001,0.053891999999999995,0.024089,0.004554,-40.68,14.87,-4.68,1a
2019-07-15_184925:220,-0.447388,0.050323,-0.12658699999999998,0.045988,0.018779,0.008216,-40.68,14.87,-4.68,1a
2019-07-15_184925:240,-0.393494,0.047272,-0.165741,0.04022,0.002788,-0.005242,-40.68,16.059998999999998,-3.56,1a
2019-07-15_184925:260,-0.408752,0.056427,-0.170319,0.034056,-0.015584,-0.020225999999999997,-40.68,16.059998999999998,-3.56,1a
2019-07-15_184925:280,-0.45806899999999995,0.054901,-0.190125,0.030149000000000002,-0.032185000000000005,-0.017235,-42.18,16.370001000000002,-3.56,1a
2019-07-15_184925:300,-0.458588,0.039124,-0.177429,0.028929000000000003,-0.032704000000000004,-0.017296000000000002,-42.18,16.370001000000002,-3.56,1a
2019-07-15_184925:320,-0.431122,0.031494,-0.18249500000000002,0.026608999999999997,-0.026264999999999997,-0.011254,-42.18,16.370001000000002,-3.56,1a
2019-07-15_184925:340,-0.390442,0.028961,-0.18454,0.024626,-0.020497,0.001045,-41.68,14.75,-2.18,1a
2019-07-15_184925:360,-0.360962,0.017792,-0.17996199999999998,0.020719,-0.014638,0.008674,-41.68,14.75,-2.18,1a
2019-07-15_184925:380,-0.364532,0.006592,-0.166748,0.016996,-0.0072829999999999995,0.009864,-42.060001,14.87,-3.37,1a
2019-07-15_184925:400,-0.352844,-0.008118,-0.147949,0.013487,-0.0009050000000000001,0.008735,-42.060001,14.87,-3.37,1a
2019-07-15_184925:420,-0.34368899999999997,-0.015747,-0.137268,0.010343000000000001,0.001842,0.009529000000000001,-42.060001,14.87,-3.37,1a
2019-07-15_184925:440,-0.337067,-0.032013,-0.137756,0.008451,0.002055,0.008888,-41.369999,15.25,-4.18,1a
2019-07-15_184925:460,-0.364014,-0.041687,-0.139801,0.0076879999999999995,0.002788,0.005684000000000001,-41.369999,15.25,-4.18,1a
2019-07-15_184925:480,-0.441284,-0.049805,-0.148956,0.008634000000000001,0.0045579999999999996,0.000648,-41.68,15.18,-3.37,1a
2019-07-15_184925:500,-0.45605500000000004,-0.051849,-0.154541,0.011106,0.008495,-0.005303,-41.68,15.18,-3.37,1a
2019-07-15_184925:520,-0.45806899999999995,-0.040649,-0.150482,0.014341,0.011089,-0.007897,-41.68,15.18,-3.37,1a
2019-07-15_184925:540,-0.49365200000000004,-0.03302,-0.164215,0.016142,0.010814,-0.008629000000000001,-42.060001,14.75,-3.5,1a
2019-07-15_184925:560,-0.53891,-0.021332,-0.176422,0.018705,0.0069689999999999995,-0.010735,-42.060001,14.75,-3.5,1a
2019-07-15_184925:580,-0.565338,-0.011687999999999999,-0.184021,0.018736000000000003,0.004771,-0.009423,-42.869999,14.75,-3.5,1a
2019-07-15_184925:600,-0.5404359999999999,-0.011687999999999999,-0.198273,0.018522,-0.000264,-0.00689,-42.869999,14.75,-3.5,1a
2019-07-15_184925:620,-0.556702,-0.014740000000000001,-0.207916,0.016142,-0.002827,-0.006615,-42.869999,14.75,-3.5,1a
2019-07-15_184925:640,-0.699585,-0.015747,-0.209961,0.012602,-0.005574,-0.0019760000000000003,-42.869999,14.75,-2.87,1a
2019-07-15_184925:660,-0.8002319999999999,-0.0025329999999999997,-0.272491,0.0072310000000000004,0.001628,0.00251,-42.869999,14.75,-2.87,1a
2019-07-15_184925:680,-0.6370239999999999,-0.032532,-0.18454,0.00011999999999999999,0.021495,-0.005944,-42.869999,14.75,-2.06,1a
2019-07-15_184925:700,-0.575012,-0.026427999999999997,-0.192169,-0.0051600000000000005,0.033519,0.005409000000000001,-42.869999,14.75,-2.06,1a
2019-07-15_184925:720,-0.397064,-0.056427,-0.185059,-0.008333,0.037425,0.012123,-42.869999,14.75,-2.06,1a
2019-07-15_184925:740,-0.381317,-0.07775900000000001,-0.146912,-0.00992,0.034038,0.010414,-43.18,14.75,-2.06,1a
2019-07-15_184925:760,-0.434174,-0.079803,-0.166748,-0.011720999999999999,0.016765000000000002,0.011879,-43.18,14.75,-2.06,1a
2019-07-15_184925:780,-0.386383,-0.09201000000000001,-0.171326,-0.011781999999999999,0.010265,0.012458,-43.560001,13.68,-1.37,1a
2019-07-15_184925:800,-0.42605600000000005,-0.09149199999999999,-0.177429,-0.011995,-0.008870000000000001,0.002113,-43.560001,13.68,-1.37,1a
2019-07-15_184925:820,-0.45043900000000003,-0.083862,-0.185059,-0.011507,-0.016896,-0.000389,-43.560001,13.68,-1.37,1a
2019-07-15_184925:840,-0.45095799999999997,-0.082336,-0.193176,-0.010653,-0.019765,-0.001854,-43.18,14.5,0.25,1a
2019-07-15_184925:860,-0.433655,-0.071686,-0.197266,-0.009524,-0.017049,-0.00927,-43.18,14.5,0.25,1a
2019-07-15_184925:880,-0.416901,-0.061005,-0.192169,-0.00873,-0.013142,-0.010003,-43.18,13.68,-0.87,1a
2019-07-15_184925:900,-0.399597,-0.053375,-0.171844,-0.006594,0.001415,-0.00808,-43.18,13.68,-0.87,1a
2019-07-15_184925:920,-0.379272,-0.043701,-0.159119,-0.006136,0.009685,-0.00747,-43.18,13.68,-0.87,1a
2019-07-15_184925:940,-0.338593,-0.029480000000000003,-0.134216,-0.005922,0.012737,-0.007286,-43.18,13.0,-2.06,1a
2019-07-15_184925:960,-0.327911,-0.019806,-0.122528,-0.007204,0.015331000000000001,-0.005822,-43.18,13.0,-2.06,1a
2019-07-15_184925:980,-0.342163,-0.013702,-0.113373,-0.007815,0.014659,-0.005242,-43.18,13.0,-1.37,1a
2019-07-15_184926:000,-0.369598,-0.014221000000000001,-0.115906,-0.011233,0.012248,-0.003045,-43.18,13.0,-1.37,1a
2019-07-15_184926:020,-0.425537,-0.01828,-0.121002,-0.013430000000000001,0.011729,0.001564,-43.18,13.0,-1.37,1a
2019-07-15_184926:040,-0.434174,-0.019806,-0.130127,-0.014773,0.012614,0.003913000000000001,-43.18,12.56,-1.37,1a
2019-07-15_184926:060,-0.45806899999999995,-0.025421,-0.130646,-0.017611,0.015788,0.007026,-43.18,12.56,-1.37,1a
2019-07-15_184926:080,-0.49722299999999997,-0.022369,-0.143372,-0.018557,0.01591,0.007484,-43.18,12.56,-1.37,1a
2019-07-15_184926:100,-0.5185850000000001,-0.019806,-0.168274,-0.021943999999999998,0.010722,0.009925,-44.0,12.18,-0.87,1a
2019-07-15_184926:120,-0.5495909999999999,-0.015747,-0.169281,-0.026858,0.006175,0.013862000000000001,-44.0,12.18,-0.87,1a
2019-07-15_184926:140,-0.545013,-0.01828,-0.169281,-0.029238,0.005016,0.017433,-42.869999,12.56,0.25,1a
2019-07-15_184926:160,-0.556213,-0.024902,-0.168793,-0.03467,0.008434,0.023475,-42.869999,12.56,0.25,1a
2019-07-15_184926:180,-0.611603,-0.029968,-0.164703,-0.035738,0.010997,0.024208,-44.0,12.56,-0.5,1a
2019-07-15_184926:200,-0.894287,-0.015747,-0.190643,-0.040255,0.005901,0.036811,-44.0,12.56,-0.5,1a
2019-07-15_184926:220,-0.502808,-0.029968,-0.151001,-0.044649,0.026683,0.042335000000000005,-44.0,12.56,-0.5,1a
2019-07-15_184926:240,-0.48706099999999997,-0.029968,-0.134705,-0.043123,0.028056,0.040657,-43.560001,12.56,-0.18,1a
2019-07-15_184926:260,-0.500793,-0.022858,-0.14386,-0.03818,0.026683,0.022682,-43.560001,12.56,-0.18,1a
2019-07-15_184926:280,-0.538391,0.002014,-0.159119,-0.037874,0.020702,0.015174000000000002,-42.869999,14.75,1.5,1a
2019-07-15_184926:300,-0.48196400000000006,0.006592,-0.142334,-0.035006,0.0106,0.001716,-42.869999,14.75,1.5,1a
2019-07-15_184926:320,-0.508423,0.015228,-0.155548,-0.032808,-0.007558,-0.014244,-42.869999,14.75,1.5,1a
2019-07-15_184926:340,-0.46823100000000006,0.019806,-0.161652,-0.031557,-0.013203,-0.012535,-43.560001,15.18,1.0,1a
2019-07-15_184926:360,-0.44638100000000003,0.017792,-0.16217,-0.027315,-0.023274,-0.0037770000000000004,-43.560001,15.18,1.0,1a
2019-07-15_184926:380,-0.434692,0.020325,-0.172333,-0.026369,-0.024007,0.000526,-43.560001,15.18,1.0,1a
2019-07-15_184926:400,-0.41232299999999994,0.017792,-0.172852,-0.023012,-0.017689,0.016304,-43.18,14.5,1.0,1a
2019-07-15_184926:420,-0.393494,0.009644,-0.160645,-0.022738,-0.013905,0.017981999999999998,-43.18,14.5,1.0,1a
2019-07-15_184926:440,-0.381805,0.006592,-0.148956,-0.023745,-0.00475,0.017036000000000003,-43.560001,14.5,-1.0,1a
2019-07-15_184926:460,-0.36248800000000003,0.002014,-0.129639,-0.025973000000000003,0.0034289999999999998,0.016853,-43.560001,14.5,-1.0,1a
2019-07-15_184926:480,-0.338074,-0.005065999999999999,-0.116425,-0.028444,0.009746,0.016791999999999998,-42.869999,15.56,-1.5,1a
2019-07-15_184926:500,-0.309113,-0.016266,-0.104218,-0.030306,0.01234,0.012275,-42.869999,15.56,-1.5,1a
2019-07-15_184926:520,-0.31012,-0.016266,-0.106232,-0.030825,0.010204000000000001,0.00489,-42.869999,15.56,-1.5,1a
2019-07-15_184926:540,-0.347748,-0.018799,-0.111328,-0.030489,0.009013,0.004432,-42.5,15.56,-2.56,1a
2019-07-15_184926:560,-0.381805,-0.014740000000000001,-0.11080899999999999,-0.028567000000000002,0.007488,0.0061719999999999995,-42.5,15.56,-2.56,1a
2019-07-15_184926:580,-0.458588,-0.006592,-0.128113,-0.028322000000000003,0.007548999999999999,0.007301,-42.5,15.56,-2.56,1a
2019-07-15_184926:600,-0.516022,-0.0055850000000000006,-0.137268,-0.028444,0.008495,0.010872,-41.68,16.0,-1.5,1a
2019-07-15_184926:620,-0.544006,-0.009125,-0.142853,-0.02817,0.009746,0.011268,-41.68,16.0,-1.5,1a
2019-07-15_184926:640,-0.5633239999999999,-0.014221000000000001,-0.137756,-0.026583,0.012676,0.007698,-42.5,16.25,-1.75,1a
2019-07-15_184926:660,-0.611603,-0.0055850000000000006,-0.146423,-0.025271000000000002,0.015331000000000001,0.004493,-42.5,16.25,-1.75,1a
2019-07-15_184926:680,-0.580597,-0.012177,-0.141327,-0.023531,0.017497,0.004219,-42.5,16.25,-1.75,1a
2019-07-15_184926:700,-0.667542,-0.017792,-0.139282,-0.02228,0.016704,-0.002037,-43.18,16.25,-1.75,1a
2019-07-15_184926:720,-0.896332,0.015747,-0.166748,-0.022524000000000002,0.007091,-0.003563,-43.18,16.25,-1.75,1a
2019-07-15_184926:740,-0.6161800000000001,-0.008636,-0.114899,-0.025179,0.008739,-0.00011499999999999999,-43.18,16.68,-1.56,1a
2019-07-15_184926:760,-0.498749,0.010162000000000001,-0.138794,-0.028719,0.017558,-0.0063100000000000005,-43.18,16.68,-1.56,1a
2019-07-15_184926:780,-0.411285,0.001495,-0.149475,-0.034273000000000005,0.023753,0.009132,-43.18,16.68,-1.56,1a
2019-07-15_184926:800,-0.423492,-0.023895,-0.14743,-0.040194,0.018504,0.025276,-42.869999,16.25,-0.37,1a
2019-07-15_184926:820,-0.44232200000000005,-0.03302,-0.174377,-0.045504,0.003246,0.027594999999999998,-42.869999,16.25,-0.37,1a
2019-07-15_184926:840,-0.38739,-0.036591000000000005,-0.175903,-0.048891000000000004,-0.012654,0.026741,-42.5,16.559998999999998,0.37,1a
2019-07-15_184926:860,-0.501801,-0.038635,-0.18249500000000002,-0.049013,-0.022206,0.02024,-42.5,16.559998999999998,0.37,1a
2019-07-15_184926:880,-0.519592,-0.031006,-0.177948,-0.05115,-0.020038999999999998,0.014990999999999999,-42.5,16.559998999999998,0.37,1a
2019-07-15_184926:900,-0.49722299999999997,-0.024384,-0.178955,-0.051729,-0.012776000000000001,0.016853,-41.75,17.68,-1.56,1a
2019-07-15_184926:920,-0.462128,-0.021332,-0.17690999999999998,-0.052279,-0.005635,0.016059,-41.75,17.68,-1.56,1a
2019-07-15_184926:940,-0.416382,-0.013213999999999998,-0.163177,-0.052736,-0.00063,0.012336,-42.18,18.059998999999998,-2.68,1a
2019-07-15_184926:960,-0.404175,-0.011687999999999999,-0.152008,-0.05166799999999999,0.003032,0.009529000000000001,-42.18,18.059998999999998,-2.68,1a
2019-07-15_184926:980,-0.382812,-0.012695,-0.135223,-0.050417000000000003,0.006297,0.004951,-42.18,18.059998999999998,-2.68,1a
2019-07-15_184927:000,-0.37316900000000003,-0.013213999999999998,-0.127106,-0.048402999999999995,0.007823,-0.000328,-42.560001,19.870001000000002,-5.06,1a
2019-07-15_184927:020,-0.374695,-0.014740000000000001,-0.121002,-0.045564999999999994,0.008403,-0.0034409999999999996,-42.560001,19.870001000000002,-5.06,1a
2019-07-15_184927:040,-0.36554000000000003,-0.017273,-0.119965,-0.042696,0.008617,-0.005974,-41.75,19.18,-4.68,1a
2019-07-15_184927:060,-0.377747,-0.019318000000000002,-0.116425,-0.040072,0.008281,-0.007103,-41.75,19.18,-4.68,1a
2019-07-15_184927:080,-0.40316799999999997,-0.023375999999999997,-0.115906,-0.037264,0.00703,-0.005639,-41.75,19.18,-4.68,1a
2019-07-15_184927:100,-0.417908,-0.023375999999999997,-0.12301600000000001,-0.034487000000000004,0.006175,-0.003655,-41.5,18.75,-3.87,1a
2019-07-15_184927:120,-0.459595,-0.020844,-0.127106,-0.032229,0.005961999999999999,-0.0029219999999999997,-41.5,18.75,-3.87,1a
2019-07-15_184927:140,-0.49926800000000005,-0.014221000000000001,-0.12454200000000001,-0.031495999999999996,0.006633,0.000709,-42.18,18.059998999999998,-5.06,1a
2019-07-15_184927:160,-0.536377,-0.016753999999999998,-0.127106,-0.031099,0.007213,0.006813,-42.18,18.059998999999998,-5.06,1a
2019-07-15_184927:180,-0.602478,-0.018799,-0.133179,-0.031832,0.0071519999999999995,0.010749,-42.18,18.059998999999998,-5.06,1a
2019-07-15_184927:200,-0.56839,-0.018799,-0.13623,-0.033297,0.008556,0.013649000000000001,-41.75,18.25,-5.5,1a
2019-07-15_184927:220,-0.528748,-0.020325,-0.136749,-0.034395,0.012126000000000001,0.01725,-41.75,18.25,-5.5,1a
2019-07-15_184927:240,-0.520111,-0.01828,-0.14743,-0.034212,0.015666,0.020637,-42.18,18.25,-7.06,1a
2019-07-15_184927:260,-0.7478640000000001,-0.013213999999999998,-0.130127,-0.034273000000000005,0.015331000000000001,0.019233,-42.18,18.25,-7.06,1a
2019-07-15_184927:280,-0.5404359999999999,-0.017792,-0.158112,-0.035401999999999996,0.0088,0.022865,-42.18,18.25,-7.06,1a
2019-07-15_184927:300,-0.5424800000000001,-0.0025329999999999997,-0.096069,-0.03821,0.024364,0.022163,-41.060001,19.559998999999998,-5.06,1a
2019-07-15_184927:320,-0.56076,0.004059,-0.128601,-0.037203,0.029856999999999998,0.022956,-41.060001,19.559998999999998,-5.06,1a
2019-07-15_184927:340,-0.521637,0.012695,-0.128601,-0.035616,0.028941,0.01258,-41.5,20.559998999999998,-5.37,1a
2019-07-15_184927:360,-0.476379,0.032013,-0.121002,-0.034487000000000004,0.021373,-0.007103,-41.5,20.559998999999998,-5.37,1a
2019-07-15_184927:380,-0.484009,0.041168,-0.139801,-0.033144,0.007273999999999999,-0.018578,-41.5,20.559998999999998,-5.37,1a
2019-07-15_184927:400,-0.467743,0.032013,-0.15506,-0.03229,-0.010457,-0.021294,-41.060001,20.18,-4.56,1a
2019-07-15_184927:420,-0.443329,0.029968,-0.152008,-0.030976999999999998,-0.025471,-0.019219,-41.060001,20.18,-4.56,1a
2019-07-15_184927:440,-0.44384799999999996,0.032013,-0.15506,-0.028627999999999997,-0.031697,-0.009484000000000001,-40.0,19.75,-6.56,1a
2019-07-15_184927:460,-0.425537,0.025421,-0.149963,-0.025973000000000003,-0.026936,0.0037,-40.0,19.75,-6.56,1a
2019-07-15_184927:480,-0.414337,0.019318000000000002,-0.138794,-0.024721,-0.01711,0.012001000000000001,-40.0,19.75,-6.56,1a
2019-07-15_184927:500,-0.397583,0.012695,-0.12658699999999998,-0.024111,-0.005971,0.016456000000000002,-41.5,19.75,-7.0,1a
2019-07-15_184927:520,-0.355377,-0.001007,-0.10675,-0.023531,0.003917,0.018715,-41.5,19.75,-7.0,1a
2019-07-15_184927:540,-0.334015,-0.008118,-0.102173,-0.023409,0.009073999999999999,0.017311,-40.68,20.18,-8.18,1a
2019-07-15_184927:560,-0.3396,-0.013702,-0.099121,-0.022066,0.009134999999999999,0.013130000000000001,-40.68,20.18,-8.18,1a
2019-07-15_184927:580,-0.349274,-0.013213999999999998,-0.104218,-0.019961000000000003,0.006175,0.007209,-40.68,20.18,-8.18,1a
2019-07-15_184927:600,-0.378265,-0.007599,-0.108276,-0.018007,0.004222,0.002113,-39.560001,20.18,-7.0,1a
2019-07-15_184927:620,-0.42453,-0.004059,-0.115906,-0.015962999999999998,0.004039,-0.000725,-39.560001,20.18,-7.0,1a
2019-07-15_184927:640,-0.47180200000000005,0.0,-0.12658699999999998,-0.014162000000000001,0.005565,-0.0038380000000000003,-40.25,20.559998999999998,-9.75,1a
2019-07-15_184927:660,-0.500275,0.004547,-0.128601,-0.011629,0.007365000000000001,-0.007958,-40.25,20.559998999999998,-9.75,1a
2019-07-15_184927:680,-0.55011,0.010651,-0.136749,-0.009004999999999999,0.008556,-0.011254,-40.25,20.559998999999998,-9.75,1a
2019-07-15_184927:700,-0.579071,0.013213999999999998,-0.138794,-0.006411,0.008678,-0.011742,-41.060001,21.25,-9.0,1a
2019-07-15_184927:720,-0.569427,0.015228,-0.142853,-0.003237,0.007365000000000001,-0.014518999999999999,-41.060001,21.25,-9.0,1a
2019-07-15_184927:740,-0.549072,0.020325,-0.152008,-0.000338,0.005046,-0.019951,-40.0,21.0,-8.06,1a
2019-07-15_184927:760,-0.543488,0.025908999999999998,-0.17337,0.002531,0.00114,-0.022881,-40.0,21.0,-8.06,1a
2019-07-15_184927:780,-0.727539,0.023375999999999997,-0.163177,0.004454,-0.003041,-0.026055000000000002,-40.0,21.0,-8.06,1a
2019-07-15_184927:800,-0.6350100000000001,0.029480000000000003,-0.200317,0.006559000000000001,-0.006367,-0.028526999999999997,-40.25,19.5,-8.87,1a
2019-07-15_184927:820,-0.6222840000000001,0.03302,-0.116425,0.005705,0.011058,-0.031792,-40.25,19.5,-8.87,1a
2019-07-15_184927:840,-0.5658569999999999,0.025908999999999998,-0.18096900000000002,0.002928,0.021373,-0.027611,-41.5,18.68,-8.87,1a
2019-07-15_184927:860,-0.420441,-0.001495,-0.11691300000000002,-6.3e-05,0.033427,-0.017509999999999998,-41.5,18.68,-8.87,1a
2019-07-15_184927:880,-0.46926899999999994,-0.019318000000000002,-0.12658699999999998,-0.003939,0.033244,-0.016166999999999997,-41.5,18.68,-8.87,1a
2019-07-15_184927:900,-0.460114,-0.03302,-0.12200899999999999,-0.003573,0.025858999999999997,-0.010735,-41.060001,17.25,-6.87,1a
2019-07-15_184927:920,-0.421967,-0.047791,-0.118958,-0.004,0.016124,-0.004052,-41.060001,17.25,-6.87,1a
2019-07-15_184927:940,-0.45706199999999997,-0.050323,-0.141846,-0.002657,0.002788,-0.0009689999999999999,-43.0,17.25,-7.68,1a
2019-07-15_184927:960,-0.417389,-0.052338,-0.149963,-0.001253,-0.009541,0.000221,-43.0,17.25,-7.68,1a
2019-07-15_184927:980,-0.418915,-0.049805,-0.161652,0.00011999999999999999,-0.019306999999999998,-0.003167,-43.0,17.25,-7.68,1a
2019-07-15_184928:000,-0.426544,-0.046265,-0.16217,0.001402,-0.024342,-0.008019,-42.5,16.5,-7.68,1a
2019-07-15_184928:020,-0.431641,-0.045745999999999995,-0.157074,0.0032630000000000003,-0.021352,-0.012473999999999999,-42.5,16.5,-7.68,1a
2019-07-15_184928:040,-0.433167,-0.042694,-0.144897,0.00543,-0.011281,-0.017449,-42.5,17.559998999999998,-7.25,1a
2019-07-15_184928:060,-0.423004,-0.038116000000000004,-0.130646,0.007719,0.001292,-0.021965000000000002,-42.5,17.559998999999998,-7.25,1a
2019-07-15_184928:080,-0.370636,-0.03302,-0.104218,0.011289,0.011333,-0.024285,-42.5,17.559998999999998,-7.25,1a
2019-07-15_184928:100,-0.3508,-0.031494,-0.09811399999999999,0.015531,0.015178,-0.025138999999999998,-43.18,16.5,-6.87,1a
2019-07-15_184928:120,-0.347748,-0.026427999999999997,-0.09353600000000001,0.020964,0.013652000000000001,-0.025811,-43.18,16.5,-6.87,1a
2019-07-15_184928:140,-0.347748,-0.028961,-0.094055,0.027006,0.00761,-0.026482,-42.869999,16.059998999999998,-7.68,1a
2019-07-15_184928:160,-0.395538,-0.028442000000000002,-0.099121,0.033537,-0.00044699999999999997,-0.026543,-42.869999,16.059998999999998,-7.68,1a
2019-07-15_184928:180,-0.40976,-0.026427999999999997,-0.116425,0.039701,-0.008809,-0.0252,-42.869999,16.059998999999998,-7.68,1a
2019-07-15_184928:200,-0.438751,-0.023375999999999997,-0.12048299999999999,0.044676,-0.013447999999999998,-0.02343,-44.0,15.37,-7.25,1a
2019-07-15_184928:220,-0.494171,-0.017273,-0.128601,0.048582,-0.014728999999999999,-0.022606,-44.0,15.37,-7.25,1a
2019-07-15_184928:240,-0.556702,-0.010651,-0.144897,0.050901,-0.012806999999999999,-0.022881,-43.869999,14.56,-7.68,1a
2019-07-15_184928:260,-0.5983890000000001,-0.013702,-0.140808,0.050199,-0.007222,-0.023490999999999998,-43.869999,14.56,-7.68,1a
2019-07-15_184928:280,-0.6161800000000001,-0.014740000000000001,-0.144897,0.048857,0.000468,-0.022484,-43.869999,14.56,-7.68,1a
2019-07-15_184928:300,-0.582642,-0.015228,-0.13623,0.047911,0.009073999999999999,-0.021904,-44.25,13.06,-6.87,1a
2019-07-15_184928:320,-0.541443,-0.009644,-0.135742,0.046598,0.017192,-0.020684,-44.25,13.06,-6.87,1a
2019-07-15_184928:340,-0.539429,-0.005065999999999999,-0.131653,0.047666,0.024028,-0.017571,-45.0,12.75,-6.87,1a
2019-07-15_184928:360,-0.7036439999999999,0.008118,-0.12301600000000001,0.048520999999999995,0.023479,-0.017968,-45.0,12.75,-6.87,1a
2019-07-15_184928:380,-0.555176,0.004547,-0.170807,0.052915,0.015269999999999999,-0.020378,-45.0,12.75,-6.87,1a
2019-07-15_184928:400,-0.459595,0.031494,-0.12149000000000001,0.048582,0.020946,-0.009362,-44.560001,12.37,-4.87,1a
2019-07-15_184928:420,-0.41586300000000004,0.020844,-0.14032,0.050566,0.025279,-0.004235,-44.560001,12.37,-4.87,1a
2019-07-15_184928:440,-0.469757,0.021851,-0.133179,0.051237,0.021037,-0.018241999999999998,-45.25,11.56,-3.37,1a
2019-07-15_184928:460,-0.45553599999999994,0.032013,-0.15506,0.05496,0.0088,-0.028252,-45.25,11.56,-3.37,1a
2019-07-15_184928:480,-0.43823199999999995,0.047791,-0.16217,0.056822000000000004,-0.007619,-0.02694,-45.25,11.56,-3.37,1a
2019-07-15_184928:500,-0.473846,0.048798,-0.190643,0.056486,-0.024738999999999997,-0.022026,-46.75,10.18,-1.68,1a
2019-07-15_184928:520,-0.502319,0.045745999999999995,-0.20385699999999998,0.054777,-0.034169,-0.014641,-46.75,10.18,-1.68,1a
2019-07-15_184928:540,-0.5343319999999999,0.039124,-0.203369,0.05355599999999999,-0.028919999999999998,-0.007622,-46.18,10.56,-0.87,1a
2019-07-15_184928:560,-0.543488,0.025908999999999998,-0.20538299999999998,0.052122,-0.015797,-0.006554000000000001,-46.18,10.56,-0.87,1a
2019-07-15_184928:580,-0.505371,0.024902,-0.190643,0.049192,7.2e-05,-0.005028,-46.18,10.56,-0.87,1a
2019-07-15_184928:600,-0.45605500000000004,0.014221000000000001,-0.161652,0.045469,0.013713,0.002052,-46.5,9.06,-2.5,1a
2019-07-15_184928:620,-0.41943400000000003,-0.000488,-0.142853,0.041349000000000004,0.023296,0.0058969999999999995,-46.5,9.06,-2.5,1a
2019-07-15_184928:640,-0.376221,-0.013702,-0.105743,0.03729,0.028392,0.005561,-46.060001,8.68,-0.87,1a
2019-07-15_184928:660,-0.36044299999999996,-0.015747,-0.090485,0.034635,0.028667,0.005806,-46.060001,8.68,-0.87,1a
2019-07-15_184928:680,-0.35180700000000004,-0.017792,-0.083374,0.031278,0.025005,0.006476999999999999,-46.060001,8.68,-0.87,1a
2019-07-15_184928:700,-0.36706500000000003,-0.013213999999999998,-0.08081100000000001,0.027281,0.018443,0.008278,-46.060001,9.56,-0.87,1a
2019-07-15_184928:720,-0.408752,-0.013702,-0.087952,0.024229,0.011484999999999999,0.010475,-46.060001,9.56,-0.87,1a
2019-07-15_184928:740,-0.429108,-0.014221000000000001,-0.09149199999999999,0.020506,0.007823,0.010322,-45.68,9.87,0.25,1a
2019-07-15_184928:760,-0.474854,-0.016266,-0.089478,0.017332,0.007273999999999999,0.009132,-45.68,9.87,0.25,1a
2019-07-15_184928:780,-0.49111899999999997,-0.020325,-0.111328,0.016081,0.007945,0.005439,-45.68,9.87,0.25,1a
2019-07-15_184928:800,-0.501801,-0.01828,-0.115906,0.014402000000000002,0.00761,-0.000573,-47.18,10.68,1.56,1a
2019-07-15_184928:820,-0.525696,-0.01828,-0.131653,0.014677,0.003917,-0.0017629999999999998,-47.18,10.68,1.56,1a
2019-07-15_184928:840,-0.530792,-0.021851,-0.138794,0.016142,-0.00124,-0.003167,-46.75,10.25,0.56,1a
2019-07-15_184928:860,-0.544495,-0.026427999999999997,-0.14843800000000001,0.01721,-0.0062759999999999995,-0.0054859999999999996,-46.75,10.25,0.56,1a
2019-07-15_184928:880,-0.575531,-0.032013,-0.158112,0.020384,-0.008076,-0.007836,-46.75,10.25,0.56,1a
2019-07-15_184928:900,-0.844482,-0.042175,-0.1586,0.025480000000000003,-0.004842,-0.014518999999999999,-46.5,9.5,2.68,1a
2019-07-15_184928:920,-0.6060180000000001,-0.041687,-0.201324,0.033323,0.001598,-0.021691,-46.5,9.5,2.68,1a
2019-07-15_184928:940,-0.6324770000000001,-0.028442000000000002,-0.08590700000000001,0.035795,0.023479,-0.025078,-46.75,9.87,1.18,1a
2019-07-15_184928:960,-0.546539,-0.035583,-0.154541,0.041899,0.03065,-0.014641,-46.75,9.87,1.18,1a
2019-07-15_184928:980,-0.395538,-0.052338,-0.067596,0.040434,0.039409,-0.009331,-46.75,9.87,1.18,1a
2019-07-15_184929:000,-0.44384799999999996,-0.065582,-0.099121,0.040373,0.027721,0.000496,-46.75,8.06,1.56,1a
2019-07-15_184929:020,-0.377228,-0.086426,-0.11795,0.041563,0.010936,0.01258,-46.75,8.06,1.56,1a
2019-07-15_184929:040,-0.406219,-0.096069,-0.124054,0.040678,-0.010274,0.016791999999999998,-46.5,7.56,4.37,1a
2019-07-15_184929:060,-0.475372,-0.09353600000000001,-0.153015,0.0426,-0.027272,0.012458,-46.5,7.56,4.37,1a
2019-07-15_184929:080,-0.467743,-0.083862,-0.160126,0.041685,-0.035176,0.002357,-46.5,7.56,4.37,1a
2019-07-15_184929:100,-0.453003,-0.069122,-0.174377,0.041563,-0.036092,-0.008294,-47.560001,7.68,4.68,1a
2019-07-15_184929:120,-0.44433599999999995,-0.06253099999999999,-0.181488,0.04083,-0.02953,-0.014733000000000001,-47.560001,7.68,4.68,1a
2019-07-15_184929:140,-0.432159,-0.056915,-0.17337,0.040373,-0.017689,-0.016655,-47.560001,6.87,2.68,1a
2019-07-15_184929:160,-0.399597,-0.053375,-0.158112,0.041288,-0.005086,-0.015984,-47.560001,6.87,2.68,1a
2019-07-15_184929:180,-0.361481,-0.041168,-0.14386,0.042631,0.003978,-0.014733000000000001,-47.560001,6.87,2.68,1a
2019-07-15_184929:200,-0.355896,-0.033539,-0.133698,0.043485,0.007365000000000001,-0.012993000000000001,-48.25,7.25,2.37,1a
2019-07-15_184929:220,-0.34875500000000004,-0.023895,-0.12454200000000001,0.042997,0.00584,-0.011528,-48.25,7.25,2.37,1a
2019-07-15_184929:240,-0.35943600000000003,-0.019318000000000002,-0.121002,0.041349000000000004,0.0019030000000000002,-0.009362,-47.18,5.37,2.37,1a
2019-07-15_184929:260,-0.40063499999999996,-0.019806,-0.127106,0.038694,-0.001576,-0.0078049999999999994,-47.18,5.37,2.37,1a
2019-07-15_184929:280,-0.43927,-0.018799,-0.126068,0.035459,-0.001302,-0.008537999999999999,-47.18,5.37,2.37,1a
2019-07-15_184929:300,-0.505371,-0.019318000000000002,-0.135223,0.031736,0.00172,-0.009331,-47.18,5.06,2.0,1a
2019-07-15_184929:320,-0.5419619999999999,-0.022369,-0.131165,0.027219999999999998,0.008067,-0.00869,-47.18,5.06,2.0,1a
2019-07-15_184929:340,-0.594849,-0.022858,-0.134705,0.023038999999999997,0.013590999999999999,-0.005242,-47.560001,5.25,2.0,1a
2019-07-15_184929:360,-0.589233,-0.026427999999999997,-0.128601,0.017942,0.017711,0.000984,-47.560001,5.25,2.0,1a
2019-07-15_184929:380,-0.558228,-0.030487,-0.135742,0.013609,0.020030000000000003,0.008339,-47.560001,5.25,2.0,1a
2019-07-15_184929:400,-0.5429689999999999,-0.031006,-0.139801,0.010556999999999999,0.021434,0.013588,-47.560001,4.56,2.75,1a
2019-07-15_184929:420,-0.6314390000000001,-0.038116000000000004,-0.131165,0.00778,0.020427,0.014044999999999998,-47.560001,4.56,2.75,1a
2019-07-15_184929:440,-0.876007,-0.026427999999999997,-0.154541,0.005705,0.01234,0.016517,-47.560001,5.0,4.0,1a
2019-07-15_184929:460,-0.5109560000000001,-0.026917,-0.12454200000000001,0.001585,0.017558,0.022865,-47.560001,5.0,4.0,1a
2019-07-15_184929:480,-0.431122,-0.033539,-0.11691300000000002,-0.0015890000000000001,0.028606,0.017311,-47.560001,5.0,4.0,1a
2019-07-15_184929:500,-0.42605600000000005,-0.007111,-0.14743,0.002775,0.030132,0.004829,-48.25,5.0,4.75,1a
2019-07-15_184929:520,-0.462646,0.013702,-0.12912,0.003324,0.020885,-0.0078049999999999994,-48.25,5.0,4.75,1a
2019-07-15_184929:540,-0.45654300000000003,0.028961,-0.150482,0.00366,0.002361,-0.015038,-47.18,5.25,4.75,1a
2019-07-15_184929:560,-0.43621800000000005,0.032532,-0.160126,0.0017980000000000001,-0.017567,-0.017449,-47.18,5.25,4.75,1a
2019-07-15_184929:580,-0.494171,0.033539,-0.18249500000000002,0.000334,-0.035146,-0.014641,-47.18,5.25,4.75,1a
