timestamp,AccX,AccY,AccZ,GyroX,GyroY,GyroZ,MagX,MagY,MagZ,Activity
2019-07-15_142321:000,-0.310638,0.054901,-0.377228,-0.012697,-0.013936000000000002,-0.010491,-27.059998999999998,-27.75,-21.68,1b
2019-07-15_142321:020,-0.325378,0.043213,-0.38028,-0.013581999999999999,-0.015797,-0.0054859999999999996,-26.68,-29.25,-23.68,1b
2019-07-15_142321:040,-0.3396,0.040161,-0.376221,-0.014284,-0.016438,-0.005639,-26.68,-29.25,-23.68,1b
2019-07-15_142321:060,-0.334534,0.046752999999999996,-0.380798,-0.014956,-0.015248,-0.008965,-26.0,-29.68,-22.870001000000002,1b
2019-07-15_142321:080,-0.316223,0.060486,-0.391479,-0.01462,-0.013844,-0.011742,-26.0,-29.68,-22.870001000000002,1b
2019-07-15_142321:100,-0.31369,0.070648,-0.396545,-0.015016999999999999,-0.014302,-0.014336000000000002,-26.0,-29.68,-22.870001000000002,1b
2019-07-15_142321:120,-0.33605999999999997,0.083374,-0.397583,-0.016634,-0.014851,-0.015465000000000001,-25.18,-30.0,-22.870001000000002,1b
2019-07-15_142321:140,-0.349792,0.09149199999999999,-0.397064,-0.018496000000000002,-0.013112,-0.015434999999999999,-25.18,-30.0,-22.870001000000002,1b
2019-07-15_142321:160,-0.34063699999999997,0.08590700000000001,-0.388916,-0.019198,-0.008199,-0.015923,-24.870001000000002,-31.18,-23.68,1b
2019-07-15_142321:180,-0.319275,0.089478,-0.379272,-0.01816,-0.003041,-0.017509999999999998,-24.870001000000002,-31.18,-23.68,1b
2019-07-15_142321:200,-0.30249000000000004,0.094055,-0.36248800000000003,-0.015444,-0.000722,-0.012871,-24.870001000000002,-31.18,-23.68,1b
2019-07-15_142321:220,-0.291321,0.111328,-0.355377,-0.012057,0.00016299999999999998,-0.010125,-24.870001000000002,-32.25,-24.059998999999998,1b
2019-07-15_142321:240,-0.285706,0.135742,-0.35131799999999996,-0.012240000000000001,-0.001027,-0.010125,-24.870001000000002,-32.25,-24.059998999999998,1b
2019-07-15_142321:260,-0.312164,0.12048299999999999,-0.355896,-0.013827,-0.0034990000000000004,-0.007164,-25.0,-32.68,-22.870001000000002,1b
2019-07-15_142321:280,-0.318268,0.0849,-0.378754,-0.014315000000000001,-0.002156,-0.009941,-25.0,-32.68,-22.870001000000002,1b
2019-07-15_142321:300,-0.29486100000000004,0.071167,-0.388428,-0.010439,0.001994,-0.012993000000000001,-25.0,-32.68,-22.870001000000002,1b
2019-07-15_142321:320,-0.28775,0.068115,-0.40011599999999997,-0.002443,0.002635,-0.010888,-23.059998999999998,-32.560001,-22.5,1b
2019-07-15_142321:340,-0.276062,0.062012,-0.40011599999999997,0.002928,0.000621,-0.006371,-23.059998999999998,-32.560001,-22.5,1b
2019-07-15_142321:360,-0.307587,0.020844,-0.414337,0.0119,-0.002187,-0.002373,-22.68,-32.560001,-22.5,1b
2019-07-15_142321:380,-0.300964,-0.007111,-0.427063,0.015531,-0.000508,-0.006279,-22.68,-32.560001,-22.5,1b
2019-07-15_142321:400,-0.317749,-0.016753999999999998,-0.42807,0.03372,0.005901,-0.016991,-22.68,-32.560001,-22.5,1b
2019-07-15_142321:420,-0.287231,-0.010651,-0.426544,0.038511000000000004,0.009593,-0.016503,-23.059998999999998,-33.0,-23.68,1b
2019-07-15_142321:440,-0.274017,-0.046752999999999996,-0.429108,0.054624,0.011943,-0.012139,-23.059998999999998,-33.0,-23.68,1b
2019-07-15_142321:460,-0.280121,-0.08081100000000001,-0.44281000000000004,0.069975,0.01115,-0.022606,-23.059998999999998,-32.869999,-24.370001000000002,1b
2019-07-15_142321:480,-0.293335,-0.102692,-0.454529,0.09274099999999999,0.013590999999999999,-0.035575999999999997,-23.059998999999998,-32.869999,-24.370001000000002,1b
2019-07-15_142321:500,-0.29742399999999997,-0.109802,-0.453491,0.116606,0.01704,-0.040215,-23.059998999999998,-32.869999,-24.370001000000002,1b
2019-07-15_142321:520,-0.29895,-0.11795,-0.460114,0.13793699999999998,0.02058,-0.043999,-22.68,-31.370001000000002,-26.059998999999998,1b
2019-07-15_142321:540,-0.28418000000000004,-0.10775799999999999,-0.46060200000000007,0.154783,0.02415,-0.054009,-22.68,-31.370001000000002,-26.059998999999998,1b
2019-07-15_142321:560,-0.28418000000000004,-0.090485,-0.467743,0.16592200000000001,0.025401,-0.062645,-22.0,-29.18,-29.559998999999998,1b
2019-07-15_142321:580,-0.287231,-0.082336,-0.472321,0.172575,0.025005,-0.067345,-22.0,-29.18,-29.559998999999998,1b
2019-07-15_142321:600,-0.335541,-0.063019,-0.484009,0.174223,0.021769999999999998,-0.072716,-22.0,-29.18,-29.559998999999998,1b
2019-07-15_142321:620,-0.36911,-0.051330999999999995,-0.48043800000000003,0.16964500000000002,0.01704,-0.075127,-20.870001000000002,-25.18,-34.68,1b
2019-07-15_142321:640,-0.33605999999999997,-0.043213,-0.453491,0.164823,0.018321,-0.078637,-20.870001000000002,-25.18,-34.68,1b
2019-07-15_142321:660,-0.32132,-0.027435,-0.448425,0.156645,0.01945,-0.089989,-20.5,-21.559998999999998,-37.369999,1b
2019-07-15_142321:680,-0.28875700000000004,-0.0035399999999999997,-0.423004,0.147947,0.018443,-0.094963,-20.5,-21.559998999999998,-37.369999,1b
2019-07-15_142321:700,-0.29232800000000003,-0.0035399999999999997,-0.410797,0.13925,0.017314,-0.091515,-20.5,-21.559998999999998,-37.369999,1b
2019-07-15_142321:720,-0.28674299999999997,-0.004547,-0.382812,0.131224,0.016643,-0.088982,-18.68,-17.5,-39.0,1b
2019-07-15_142321:740,-0.277069,0.001007,-0.371643,0.123075,0.015056,-0.08733400000000001,-18.68,-17.5,-39.0,1b
2019-07-15_142321:760,-0.276581,0.001007,-0.353333,0.11501900000000001,0.012187,-0.083367,-19.370001000000002,-13.37,-40.75,1b
2019-07-15_142321:780,-0.278595,-0.0035399999999999997,-0.34674099999999997,0.10754200000000001,0.007762000000000001,-0.079186,-19.370001000000002,-13.37,-40.75,1b
2019-07-15_142321:800,-0.320801,-0.012695,-0.335541,0.10104199999999999,0.003978,-0.075463,-19.370001000000002,-13.37,-40.75,1b
2019-07-15_142321:820,-0.34317,-0.013702,-0.341644,0.096098,0.002574,-0.07235,-18.68,-10.37,-41.68,1b
2019-07-15_142321:840,-0.320282,-0.010162000000000001,-0.337067,0.09048300000000001,-0.0005690000000000001,-0.073143,-18.68,-10.37,-41.68,1b
2019-07-15_142321:860,-0.321808,-0.001495,-0.33758499999999997,0.08355499999999999,-0.005299,-0.073479,-18.0,-7.25,-42.869999,1b
2019-07-15_142321:880,-0.33605999999999997,0.0025329999999999997,-0.331482,0.076872,-0.009602,-0.070061,-18.0,-7.25,-42.869999,1b
2019-07-15_142321:900,-0.346222,0.001007,-0.334015,0.069914,-0.012593,-0.06588,-18.0,-7.25,-42.869999,1b
2019-07-15_142321:920,-0.352325,-0.001007,-0.347229,0.063108,-0.015462,-0.06118,-18.370001000000002,-5.75,-44.060001,1b
2019-07-15_142321:940,-0.353333,-0.010162000000000001,-0.356903,0.056303,-0.0183,-0.056786,-18.370001000000002,-5.75,-44.060001,1b
2019-07-15_142321:960,-0.377228,-0.021851,-0.366058,0.050718,-0.017628,-0.053215,-18.0,-3.18,-42.369999,1b
2019-07-15_142321:980,-0.385376,-0.027954000000000003,-0.35739099999999996,0.046324000000000004,-0.01299,-0.049157,-18.0,-3.18,-42.369999,1b
2019-07-15_142322:000,-0.384857,-0.031006,-0.344696,0.0426,-0.007405,-0.047631,-18.0,-3.18,-42.369999,1b
2019-07-15_142322:020,-0.365021,-0.026917,-0.33605999999999997,0.038572,-0.003438,-0.04757,-15.75,-1.5,-44.060001,1b
2019-07-15_142322:040,-0.34875500000000004,-0.020325,-0.33197,0.035063,-0.002888,-0.045403,-15.75,-1.5,-44.060001,1b
2019-07-15_142322:060,-0.337067,-0.01828,-0.325378,0.031797000000000006,-0.004414,-0.042931,-15.75,-0.37,-44.0,1b
2019-07-15_142322:080,-0.33300799999999997,-0.016753999999999998,-0.31723,0.027738,-0.007497,-0.042473000000000004,-15.75,-0.37,-44.0,1b
2019-07-15_142322:100,-0.337067,-0.020325,-0.313171,0.024565,-0.010334999999999999,-0.042015,-15.75,-0.37,-44.0,1b
2019-07-15_142322:120,-0.34265100000000004,-0.027954000000000003,-0.314178,0.023374000000000002,-0.012256999999999999,-0.042473000000000004,-16.18,0.0,-43.560001,1b
2019-07-15_142322:140,-0.34317,-0.032532,-0.327423,0.024565,-0.012929,-0.04345,-16.18,0.0,-43.560001,1b
2019-07-15_142322:160,-0.34570300000000004,-0.031006,-0.33300799999999997,0.027281,-0.013538999999999999,-0.043877,-15.75,1.06,-45.18,1b
2019-07-15_142322:180,-0.355896,-0.023375999999999997,-0.329437,0.029477999999999997,-0.012868000000000001,-0.044243,-15.75,1.06,-45.18,1b
2019-07-15_142322:200,-0.365021,-0.011169,-0.322327,0.030545999999999997,-0.009877,-0.043938,-15.75,1.06,-45.18,1b
2019-07-15_142322:220,-0.373688,-0.006592,-0.315704,0.030393,-0.005818,-0.042656,-16.18,1.5,-44.0,1b
2019-07-15_142322:240,-0.369598,-0.004059,-0.313171,0.029142,-0.0024920000000000003,-0.039421,-16.18,1.5,-44.0,1b
2019-07-15_142322:260,-0.369598,-0.006072999999999999,-0.310638,0.028135000000000004,-0.0009660000000000001,-0.034295,-15.75,2.56,-44.75,1b
2019-07-15_142322:280,-0.38739,-0.010651,-0.311127,0.027402999999999997,-0.000325,-0.031639,-15.75,2.56,-44.75,1b
2019-07-15_142322:300,-0.402161,-0.009125,-0.315216,0.026364999999999996,0.00022400000000000002,-0.031181999999999998,-15.75,2.56,-44.75,1b
2019-07-15_142322:320,-0.415375,-0.007599,-0.316742,0.025236,0.002177,-0.030114,-14.68,2.25,-44.75,1b
2019-07-15_142322:340,-0.414337,-0.005065999999999999,-0.314697,0.024107,0.003124,-0.029442000000000003,-14.68,2.25,-44.75,1b
2019-07-15_142322:360,-0.407227,-0.007111,-0.31369,0.022917,0.003307,-0.028069,-16.25,3.06,-44.75,1b
2019-07-15_142322:380,-0.404694,-0.013702,-0.314697,0.021971,0.002361,-0.025811,-16.25,3.06,-44.75,1b
2019-07-15_142322:400,-0.425018,-0.019806,-0.322845,0.021177,0.001842,-0.023674,-16.25,3.06,-44.75,1b
2019-07-15_142322:420,-0.461121,-0.026917,-0.33758499999999997,0.020567,0.002239,-0.022637,-16.68,4.18,-44.75,1b
2019-07-15_142322:440,-0.44433599999999995,-0.029968,-0.34570300000000004,0.019651,0.000682,-0.022026,-16.68,4.18,-44.75,1b
2019-07-15_142322:460,-0.458588,-0.030487,-0.3508,0.018338999999999998,0.000682,-0.017968,-16.25,4.25,-44.75,1b
2019-07-15_142322:480,-0.425018,-0.037598,-0.35943600000000003,0.016538,0.000865,-0.011742,-16.25,4.25,-44.75,1b
2019-07-15_142322:500,-0.379272,-0.052338,-0.377228,0.013822,-0.000508,-0.008934000000000001,-16.25,4.25,-44.75,1b
2019-07-15_142322:520,-0.37011700000000003,-0.053863999999999995,-0.37316900000000003,0.010740000000000001,-0.000264,-0.008629000000000001,-16.68,5.06,-45.5,1b
2019-07-15_142322:540,-0.35180700000000004,-0.057953,-0.378265,0.008451,0.001292,-0.008202,-16.68,5.06,-45.5,1b
2019-07-15_142322:560,-0.327911,-0.065582,-0.372162,0.006193,0.004436,-0.008751,-16.25,5.06,-44.369999,1b
2019-07-15_142322:580,-0.321808,-0.07016,-0.369598,0.004454,0.008098000000000001,-0.008965,-16.25,5.06,-44.369999,1b
2019-07-15_142322:600,-0.334534,-0.078796,-0.377747,0.004118,0.010936,-0.00808,-16.25,5.06,-44.369999,1b
2019-07-15_142322:620,-0.325897,-0.07928500000000001,-0.378754,0.004515,0.012798,-0.009087,-16.370001000000002,5.75,-45.18,1b
2019-07-15_142322:640,-0.286224,-0.075226,-0.378265,0.005582999999999999,0.012065000000000001,-0.012871,-16.370001000000002,5.75,-45.18,1b
2019-07-15_142322:660,-0.281647,-0.073212,-0.377747,0.006498,0.008678,-0.016838,-17.059998999999998,6.18,-43.869999,1b
2019-07-15_142322:680,-0.308594,-0.066071,-0.382324,0.00778,0.003978,-0.019431999999999998,-17.059998999999998,6.18,-43.869999,1b
2019-07-15_142322:700,-0.319794,-0.062012,-0.383331,0.009764,-0.000172,-0.020958,-17.059998999999998,6.18,-43.869999,1b
2019-07-15_142322:720,-0.338074,-0.051330999999999995,-0.381805,0.011167,-0.001515,-0.019951,-17.059998999999998,6.5,-45.060001,1b
2019-07-15_142322:740,-0.34674099999999997,-0.044739,-0.378265,0.012144,-0.000264,-0.018119999999999997,-17.059998999999998,6.5,-45.060001,1b
2019-07-15_142322:760,-0.366058,-0.036591000000000005,-0.36554000000000003,0.011503,0.0031850000000000003,-0.016166999999999997,-18.18,6.18,-44.68,1b
2019-07-15_142322:780,-0.37112399999999995,-0.031006,-0.350281,0.009977,0.007762000000000001,-0.013665,-18.18,6.18,-44.68,1b
2019-07-15_142322:800,-0.353851,-0.032013,-0.317749,0.007719,0.012187,-0.012871,-18.18,6.18,-44.68,1b
2019-07-15_142322:820,-0.333496,-0.031006,-0.295898,0.005644,0.014506999999999999,-0.012719,-19.68,6.5,-43.869999,1b
2019-07-15_142322:840,-0.32486,-0.03302,-0.28927600000000003,0.003782,0.013408000000000002,-0.010674,-19.68,6.5,-43.869999,1b
2019-07-15_142322:860,-0.322327,-0.034058,-0.28775,0.0016760000000000002,0.010265,-0.008751,-18.559998999999998,6.87,-44.68,1b
2019-07-15_142322:880,-0.330475,-0.036591000000000005,-0.294373,-0.000185,0.006876999999999999,-0.006431999999999999,-18.559998999999998,6.87,-44.68,1b
2019-07-15_142322:900,-0.333496,-0.037108999999999996,-0.296906,-0.001864,0.003307,-0.003655,-18.559998999999998,6.87,-44.68,1b
2019-07-15_142322:920,-0.344696,-0.040161,-0.305542,-0.0034509999999999996,0.00022400000000000002,-0.0023120000000000003,-20.059998999999998,6.87,-43.869999,1b
2019-07-15_142322:940,-0.355896,-0.042175,-0.308075,-0.005221,-0.001027,0.000709,-20.059998999999998,6.87,-43.869999,1b
2019-07-15_142322:960,-0.36706500000000003,-0.047791,-0.311646,-0.006684999999999999,-0.000386,0.004768,-20.75,6.06,-42.68,1b
2019-07-15_142322:980,-0.368591,-0.055389,-0.309601,-0.007479,0.002239,0.004829,-20.75,6.06,-42.68,1b
2019-07-15_142323:000,-0.38028,-0.056915,-0.302002,-0.007937,0.005901,0.003913000000000001,-20.75,6.06,-42.68,1b
2019-07-15_142323:020,-0.379272,-0.056915,-0.296387,-0.00873,0.009746,0.0058969999999999995,-20.5,5.75,-44.68,1b
2019-07-15_142323:040,-0.391479,-0.061005,-0.288269,-0.010042,0.012401,0.007484,-20.5,5.75,-44.68,1b
2019-07-15_142323:060,-0.395538,-0.065582,-0.282166,-0.010865999999999999,0.013193999999999999,0.006416,-20.059998999999998,5.75,-44.18,1b
2019-07-15_142323:080,-0.410278,-0.06405599999999999,-0.28112800000000004,-0.011568,0.01292,0.005104,-20.059998999999998,5.75,-44.18,1b
2019-07-15_142323:100,-0.427063,-0.064545,-0.28112800000000004,-0.012179,0.012737,0.004768,-20.059998999999998,5.75,-44.18,1b
2019-07-15_142323:120,-0.447388,-0.066589,-0.281647,-0.012301000000000001,0.012676,0.004707,-20.75,5.75,-43.869999,1b
2019-07-15_142323:140,-0.45553599999999994,-0.063538,-0.283173,-0.012972,0.012584,0.003486,-20.75,5.75,-43.869999,1b
2019-07-15_142323:160,-0.458588,-0.059479,-0.285706,-0.012911,0.012584,0.003761,-21.559998999999998,6.18,-42.68,1b
2019-07-15_142323:180,-0.46060200000000007,-0.050842,-0.293854,-0.013125,0.014934000000000001,0.005836,-21.559998999999998,6.18,-42.68,1b
2019-07-15_142323:200,-0.457581,-0.046265,-0.29742399999999997,-0.013368999999999999,0.017162,0.0063549999999999995,-21.559998999999998,6.18,-42.68,1b
2019-07-15_142323:220,-0.5134890000000001,-0.037108999999999996,-0.32132,-0.013581999999999999,0.017100999999999998,0.006294,-22.559998999999998,5.18,-42.369999,1b
2019-07-15_142323:240,-0.452484,-0.027435,-0.323334,-0.015505000000000001,0.012126000000000001,0.009803000000000001,-22.559998999999998,5.18,-42.369999,1b
2019-07-15_142323:260,-0.469757,-0.025908999999999998,-0.33605999999999997,-0.016421,0.011333,0.012336,-21.68,5.18,-41.560001,1b
2019-07-15_142323:280,-0.452484,-0.024902,-0.323853,-0.017306000000000002,0.00883,0.010017,-21.68,5.18,-41.560001,1b
2019-07-15_142323:300,-0.40570100000000003,-0.012695,-0.326904,-0.017153,0.007945,0.008674,-21.68,5.18,-41.560001,1b
2019-07-15_142323:320,-0.374176,-0.011169,-0.323853,-0.016482,0.008281,0.009071,-23.059998999999998,5.18,-42.75,1b
2019-07-15_142323:340,-0.350281,-0.007599,-0.309601,-0.014376,0.012584,0.00727,-23.059998999999998,5.18,-42.75,1b
2019-07-15_142323:360,-0.340118,-0.0025329999999999997,-0.309601,-0.013581999999999999,0.013469,0.0073620000000000005,-23.5,4.75,-42.369999,1b
2019-07-15_142323:380,-0.316223,0.001495,-0.309113,-0.012057,0.010143000000000001,0.009864,-23.5,4.75,-42.369999,1b
2019-07-15_142323:400,-0.313171,0.002014,-0.307068,-0.012575,0.005412,0.010536,-23.5,4.75,-42.369999,1b
2019-07-15_142323:420,-0.327911,0.004547,-0.313171,-0.013247,-0.0009660000000000001,0.012062,-23.059998999999998,4.37,-42.0,1b
2019-07-15_142323:440,-0.34317,0.001495,-0.318756,-0.014223,-0.006154,0.014441999999999998,-23.059998999999998,4.37,-42.0,1b
2019-07-15_142323:460,-0.35638400000000003,-0.004059,-0.330475,-0.015688,-0.010334999999999999,0.016182,-24.559998999999998,4.37,-41.560001,1b
2019-07-15_142323:480,-0.364532,-0.008636,-0.336548,-0.016817,-0.013722,0.018318,-24.559998999999998,4.37,-41.560001,1b
2019-07-15_142323:500,-0.389435,-0.020844,-0.335541,-0.017428,-0.013783000000000002,0.018715,-24.559998999999998,4.37,-41.560001,1b
2019-07-15_142323:520,-0.406738,-0.027954000000000003,-0.326385,-0.017428,-0.012135,0.018226,-23.5,3.56,-40.75,1b
2019-07-15_142323:540,-0.40368699999999996,-0.035583,-0.309113,-0.016359000000000002,-0.001637,0.016456000000000002,-23.5,3.56,-40.75,1b
2019-07-15_142323:560,-0.385376,-0.039642000000000004,-0.296387,-0.015780000000000002,0.001415,0.015907,-23.870001000000002,3.56,-42.369999,1b
2019-07-15_142323:580,-0.358429,-0.043213,-0.282166,-0.013186000000000002,0.006023,0.0149,-23.870001000000002,3.56,-42.369999,1b
2019-07-15_142323:600,-0.35180700000000004,-0.043213,-0.27301,-0.011262999999999999,0.004954999999999999,0.014044999999999998,-23.870001000000002,3.56,-42.369999,1b
2019-07-15_142323:620,-0.36044299999999996,-0.036591000000000005,-0.26944,-0.010531,0.003764,0.014594999999999999,-22.68,3.87,-42.369999,1b
2019-07-15_142323:640,-0.35943600000000003,-0.034546,-0.271484,-0.009463,0.0010789999999999999,0.017585,-22.68,3.87,-42.369999,1b
2019-07-15_142323:660,-0.364532,-0.034546,-0.276581,-0.009188,0.000499,0.016975,-23.059998999999998,3.56,-41.560001,1b
2019-07-15_142323:680,-0.368591,-0.031494,-0.276581,-0.009340000000000001,-0.0009050000000000001,0.013984,-23.059998999999998,3.56,-41.560001,1b
2019-07-15_142323:700,-0.387909,-0.031494,-0.28369099999999997,-0.010134,-0.001179,0.013130000000000001,-23.059998999999998,3.56,-41.560001,1b
2019-07-15_142323:720,-0.393005,-0.031006,-0.28927600000000003,-0.010714,-0.00044699999999999997,0.012611,-23.059998999999998,4.25,-42.75,1b
2019-07-15_142323:740,-0.40570100000000003,-0.031006,-0.29538000000000003,-0.011843000000000001,0.004222,0.012001000000000001,-23.059998999999998,4.25,-42.75,1b
2019-07-15_142323:760,-0.41943400000000003,-0.031006,-0.297913,-0.012301000000000001,0.006023,0.011329,-23.059998999999998,3.56,-42.369999,1b
2019-07-15_142323:780,-0.425018,-0.031494,-0.28979499999999997,-0.013125,0.012523000000000001,0.009925,-23.059998999999998,3.56,-42.369999,1b
2019-07-15_142323:800,-0.430634,-0.028961,-0.285217,-0.013186000000000002,0.017314,0.008216,-23.059998999999998,3.56,-42.369999,1b
2019-07-15_142323:820,-0.431641,-0.025421,-0.282654,-0.013033000000000001,0.01942,0.008154999999999999,-23.5,3.18,-42.369999,1b
2019-07-15_142323:840,-0.430634,-0.024384,-0.278107,-0.01285,0.022624000000000002,0.009224,-23.5,3.18,-42.369999,1b
2019-07-15_142323:860,-0.43774399999999997,-0.021332,-0.278595,-0.012758,0.022472,0.009132,-23.5,3.18,-42.369999,1b
2019-07-15_142323:880,-0.437225,-0.021332,-0.276581,-0.012179,0.022289,0.008094,-24.559998999999998,3.56,-41.560001,1b
2019-07-15_142323:900,-0.451477,-0.027435,-0.275055,-0.010714,0.023691999999999998,0.0073620000000000005,-24.559998999999998,3.56,-41.560001,1b
2019-07-15_142323:920,-0.462128,-0.030487,-0.274536,-0.009737,0.024883000000000002,0.006476999999999999,-24.18,3.18,-41.560001,1b
2019-07-15_142323:940,-0.5572199999999999,-0.033539,-0.28979499999999997,-0.007540000000000001,0.026683,0.005806,-24.18,3.18,-41.560001,1b
2019-07-15_142323:960,-0.529755,-0.028442000000000002,-0.318756,-0.006197,0.022899,0.005287,-25.68,3.56,-42.0,1b
2019-07-15_142323:980,-0.546539,-0.034546,-0.31012,-0.005922,0.022502,0.0029059999999999997,-25.68,3.56,-42.0,1b
2019-07-15_142324:000,-0.48043800000000003,-0.035065,-0.325378,-0.007051999999999999,0.020091,-0.0012439999999999999,-25.68,3.56,-42.0,1b
2019-07-15_142324:020,-0.46875,-0.041168,-0.313171,-0.006745999999999999,0.020824000000000002,-0.00158,-26.059998999999998,2.75,-40.75,1b
2019-07-15_142324:040,-0.42858900000000005,-0.043213,-0.28979499999999997,-0.008578,0.025462000000000002,0.001258,-26.059998999999998,2.75,-40.75,1b
2019-07-15_142324:060,-0.38028,-0.051849,-0.278107,-0.010592,0.029582,0.009803000000000001,-26.059998999999998,2.75,-40.75,1b
2019-07-15_142324:080,-0.344177,-0.064545,-0.268433,-0.012911,0.030314999999999998,0.017768,-28.0,2.75,-39.68,1b
2019-07-15_142324:100,-0.33197,-0.077271,-0.263336,-0.014712000000000001,0.026744,0.018226,-28.0,2.75,-39.68,1b
2019-07-15_142324:120,-0.333496,-0.07928500000000001,-0.2659,-0.016359000000000002,0.019634,0.017097,-29.059998999999998,2.75,-38.869999,1b
2019-07-15_142324:140,-0.325378,-0.083862,-0.2659,-0.016756,0.00648,0.011604000000000001,-29.059998999999998,2.75,-38.869999,1b
2019-07-15_142324:160,-0.344177,-0.082855,-0.275543,-0.016421,0.0024519999999999998,0.008154999999999999,-29.059998999999998,2.75,-38.869999,1b
2019-07-15_142324:180,-0.382324,-0.0737,-0.284698,-0.015352000000000001,-0.004231,0.003242,-30.18,2.06,-37.68,1b
2019-07-15_142324:200,-0.401642,-0.066071,-0.285706,-0.014223,-0.009419,0.00132,-30.18,2.06,-37.68,1b
2019-07-15_142324:220,-0.420441,-0.056915,-0.283173,-0.013643,-0.0118,0.001564,-29.370001000000002,3.56,-37.75,1b
2019-07-15_142324:240,-0.429108,-0.046265,-0.276062,-0.014315000000000001,-0.010457,0.003151,-29.370001000000002,3.56,-37.75,1b
2019-07-15_142324:260,-0.429108,-0.037598,-0.266388,-0.015505000000000001,-0.005879,0.00489,-29.370001000000002,3.56,-37.75,1b
2019-07-15_142324:280,-0.415375,-0.029968,-0.257751,-0.017702000000000002,-0.000661,0.005409000000000001,-29.18,2.37,-38.560001,1b
2019-07-15_142324:300,-0.377747,-0.021332,-0.24658200000000002,-0.020815,0.002116,0.007026,-29.18,2.37,-38.560001,1b
2019-07-15_142324:320,-0.369598,-0.022858,-0.244019,-0.023592,0.002971,0.008674,-28.370001000000002,2.06,-39.369999,1b
2019-07-15_142324:340,-0.364014,-0.021332,-0.239441,-0.026522000000000004,0.002116,0.00727,-28.370001000000002,2.06,-39.369999,1b
2019-07-15_142324:360,-0.36349499999999996,-0.022369,-0.24353000000000002,-0.029513,0.00056,0.007087,-28.370001000000002,2.06,-39.369999,1b
2019-07-15_142324:380,-0.36706500000000003,-0.028442000000000002,-0.245056,-0.032351,-0.001393,0.010597,-29.18,2.06,-37.75,1b
2019-07-15_142324:400,-0.37674,-0.034546,-0.245056,-0.034945,-0.003773,0.0149,-29.18,2.06,-37.75,1b
2019-07-15_142324:420,-0.39502,-0.041687,-0.246063,-0.037722000000000006,-0.0040479999999999995,0.018501,-27.68,0.87,-39.75,1b
2019-07-15_142324:440,-0.397583,-0.044739,-0.24706999999999998,-0.038393000000000004,-0.003621,0.018775999999999998,-27.68,0.87,-39.75,1b
2019-07-15_142324:460,-0.40316799999999997,-0.048798,-0.249115,-0.03998,-0.002187,0.02021,-27.68,0.87,-39.75,1b
2019-07-15_142324:480,-0.40368699999999996,-0.051330999999999995,-0.24758899999999998,-0.040255,-0.00124,0.020881,-28.059998999999998,-0.5,-38.560001,1b
2019-07-15_142324:500,-0.41586300000000004,-0.050323,-0.245056,-0.040438,-5e-05,0.019691,-28.059998999999998,-0.5,-38.560001,1b
2019-07-15_142324:520,-0.432648,-0.048279,-0.244019,-0.040865,0.001018,0.017585,-28.370001000000002,-0.87,-39.369999,1b
2019-07-15_142324:540,-0.445862,-0.047791,-0.242493,-0.041323,0.002574,0.016182,-28.370001000000002,-0.87,-39.369999,1b
2019-07-15_142324:560,-0.45654300000000003,-0.048798,-0.24963400000000002,-0.04236,0.004649,0.015571000000000002,-28.370001000000002,-0.87,-39.369999,1b
2019-07-15_142324:580,-0.472321,-0.048798,-0.245056,-0.043519999999999996,0.006236,0.017097,-28.059998999999998,-2.0,-39.369999,1b
2019-07-15_142324:600,-0.48706099999999997,-0.049316000000000006,-0.246063,-0.044314,0.007945,0.018715,-28.059998999999998,-2.0,-39.369999,1b
2019-07-15_142324:620,-0.49722299999999997,-0.050323,-0.24706999999999998,-0.045229000000000005,0.009685,0.018775999999999998,-28.059998999999998,-2.68,-38.560001,1b
2019-07-15_142324:640,-0.49926800000000005,-0.050323,-0.242493,-0.045626,0.012584,0.01844,-28.059998999999998,-2.68,-38.560001,1b
2019-07-15_142324:660,-0.496704,-0.046752999999999996,-0.24096700000000001,-0.045839,0.015849000000000002,0.017891,-28.059998999999998,-2.68,-38.560001,1b
2019-07-15_142324:680,-0.492645,-0.039642000000000004,-0.24658200000000002,-0.045962,0.017100999999999998,0.014503,-28.75,-3.87,-38.560001,1b
2019-07-15_142324:700,-0.554688,-0.035065,-0.256744,-0.045778,0.013590999999999999,0.010933,-28.75,-3.87,-38.560001,1b
2019-07-15_142324:720,-0.48349,-0.027954000000000003,-0.253693,-0.045778,0.006876999999999999,0.010719,-29.5,-4.56,-38.18,1b
2019-07-15_142324:740,-0.516541,-0.025908999999999998,-0.255707,-0.045382,0.009013,0.012733,-29.5,-4.56,-38.18,1b
2019-07-15_142324:760,-0.5048520000000001,-0.01828,-0.271484,-0.04349,0.008891,0.012733,-29.5,-4.56,-38.18,1b
2019-07-15_142324:780,-0.45553599999999994,-0.006592,-0.267914,-0.041201,0.007488,0.011268,-30.25,-5.25,-37.0,1b
2019-07-15_142324:800,-0.417908,0.004547,-0.262329,-0.037995999999999995,0.008434,0.011482,-30.25,-5.25,-37.0,1b
2019-07-15_142324:820,-0.390961,0.007599,-0.240479,-0.034548,0.013133,0.009803000000000001,-29.870001000000002,-6.87,-37.0,1b
2019-07-15_142324:840,-0.369598,0.025421,-0.236389,-0.031618,0.01591,0.007881,-29.870001000000002,-6.87,-37.0,1b
2019-07-15_142324:860,-0.349274,0.03302,-0.245544,-0.029635,0.011089,0.008796,-29.870001000000002,-6.87,-37.0,1b
2019-07-15_142324:880,-0.339111,0.038116000000000004,-0.256744,-0.02878,0.0029100000000000003,0.00727,-31.0,-7.68,-35.369999,1b
2019-07-15_142324:900,-0.350281,0.043213,-0.272491,-0.028505000000000003,-0.005574,0.004829,-31.0,-7.68,-35.369999,1b
2019-07-15_142324:920,-0.349792,0.045226999999999996,-0.286224,-0.02878,-0.014119,0.008064,-30.68,-8.37,-36.560001,1b
2019-07-15_142324:940,-0.378265,0.041168,-0.298431,-0.029513,-0.022206,0.013313,-30.68,-8.37,-36.560001,1b
2019-07-15_142324:960,-0.405212,0.029968,-0.314697,-0.031832,-0.027180000000000003,0.020027,-30.68,-8.37,-36.560001,1b
2019-07-15_142324:980,-0.44433599999999995,0.017273,-0.315704,-0.033236,-0.026143,0.029304000000000004,-30.25,-8.37,-37.0,1b
2019-07-15_142325:000,-0.457581,0.001007,-0.305054,-0.032747000000000005,-0.01598,0.033638,-30.25,-8.37,-37.0,1b
2019-07-15_142325:020,-0.44281000000000004,-0.006072999999999999,-0.29995700000000003,-0.031679,-0.0034990000000000004,0.03083,-29.870001000000002,-9.18,-35.75,1b
2019-07-15_142325:040,-0.40570100000000003,-0.013213999999999998,-0.272491,-0.030306,0.005779,0.029304000000000004,-29.870001000000002,-9.18,-35.75,1b
2019-07-15_142325:060,-0.379791,-0.020844,-0.257233,-0.028292,0.009959,0.031593,-29.870001000000002,-9.18,-35.75,1b
2019-07-15_142325:080,-0.36654699999999996,-0.027435,-0.23486300000000002,-0.026795999999999997,0.010204000000000001,0.031562,-29.5,-9.5,-37.75,1b
2019-07-15_142325:100,-0.37112399999999995,-0.031006,-0.226746,-0.025118,0.008098000000000001,0.030311,-29.5,-9.5,-37.75,1b
2019-07-15_142325:120,-0.376221,-0.034058,-0.22116100000000002,-0.023316999999999997,0.006084,0.028511,-28.75,-9.5,-37.0,1b
2019-07-15_142325:140,-0.376221,-0.037108999999999996,-0.22216799999999998,-0.021853,0.003886,0.02494,-28.75,-9.5,-37.0,1b
2019-07-15_142325:160,-0.38028,-0.037598,-0.227264,-0.01993,0.001842,0.02201,-28.75,-9.5,-37.0,1b
2019-07-15_142325:180,-0.381317,-0.039124,-0.231812,-0.018496000000000002,1.1e-05,0.018623,-30.25,-9.37,-37.369999,1b
2019-07-15_142325:200,-0.391968,-0.039642000000000004,-0.23690799999999998,-0.016634,-0.001363,0.01432,-30.25,-9.37,-37.369999,1b
2019-07-15_142325:220,-0.405212,-0.039642000000000004,-0.240479,-0.014894999999999999,-0.0009660000000000001,0.011054999999999999,-31.0,-9.37,-35.75,1b
2019-07-15_142325:240,-0.441803,-0.041168,-0.242493,-0.013491,0.00172,0.008612999999999999,-31.0,-9.37,-35.75,1b
2019-07-15_142325:260,-0.477386,-0.042694,-0.24706999999999998,-0.011904000000000001,0.006541,0.007484,-31.0,-9.37,-35.75,1b
2019-07-15_142325:280,-0.475861,-0.040161,-0.233856,-0.009859,0.013866,0.006416,-30.68,-9.37,-35.75,1b
2019-07-15_142325:300,-0.46875,-0.038635,-0.23233,-0.007601,0.019359,0.005043,-30.68,-9.37,-35.75,1b
2019-07-15_142325:320,-0.45553599999999994,-0.032013,-0.230804,-0.005343,0.020243999999999998,0.003242,-30.25,-9.37,-35.369999,1b
2019-07-15_142325:340,-0.460114,-0.027435,-0.235382,-0.003573,0.016368,0.002052,-30.25,-9.37,-35.369999,1b
2019-07-15_142325:360,-0.460114,-0.018799,-0.234375,-0.0020469999999999998,0.012187,0.002967,-30.25,-9.37,-35.369999,1b
2019-07-15_142325:380,-0.46417200000000003,-0.015228,-0.235382,-0.001253,0.010265,0.003486,-31.370001000000002,-9.37,-34.560001,1b
2019-07-15_142325:400,-0.484497,-0.014740000000000001,-0.239441,-0.00107,0.011394,0.001716,-31.370001000000002,-9.37,-34.560001,1b
2019-07-15_142325:420,-0.5617979999999999,-0.020325,-0.248108,-0.000734,0.011089,-0.000176,-31.75,-10.18,-33.869999,1b
2019-07-15_142325:440,-0.466217,-0.025908999999999998,-0.272003,-2e-06,0.0035810000000000004,-0.002037,-31.75,-10.18,-33.869999,1b
2019-07-15_142325:460,-0.559753,-0.036072,-0.241486,0.0017980000000000001,0.005107,-0.004753,-31.75,-10.18,-33.869999,1b
2019-07-15_142325:480,-0.484009,-0.046265,-0.266907,0.002928,0.006084,-0.006157,-31.370001000000002,-9.37,-34.68,1b
2019-07-15_142325:500,-0.449432,-0.049316000000000006,-0.272491,0.004911,0.005565,-0.007561,-31.370001000000002,-9.37,-34.68,1b
2019-07-15_142325:520,-0.40823400000000004,-0.056427,-0.262848,0.004057,0.006418999999999999,-0.001854,-32.18,-9.37,-34.68,1b
2019-07-15_142325:540,-0.43670699999999996,-0.06405599999999999,-0.26181,0.0017980000000000001,0.00761,0.010749,-32.18,-9.37,-34.68,1b
2019-07-15_142325:560,-0.397064,-0.087952,-0.259796,-0.000582,0.006358,0.019447,-32.18,-9.37,-34.68,1b
2019-07-15_142325:580,-0.374695,-0.095062,-0.26181,-0.003054,0.003093,0.017891,-32.5,-9.06,-34.25,1b
2019-07-15_142325:600,-0.37265,-0.100647,-0.262848,-0.004488000000000001,-0.001698,0.013527,-32.5,-9.06,-34.25,1b
2019-07-15_142325:620,-0.35943600000000003,-0.09963999999999999,-0.268951,-0.005221,-0.006947,0.0073620000000000005,-32.5,-8.68,-34.25,1b
2019-07-15_142325:640,-0.368073,-0.081848,-0.278595,-0.006075,-0.012929,-0.00023700000000000001,-32.5,-8.68,-34.25,1b
2019-07-15_142325:660,-0.374176,-0.067596,-0.286224,-0.006197,-0.017689,-0.005944,-32.5,-8.68,-34.25,1b
2019-07-15_142325:680,-0.383331,-0.048798,-0.28775,-0.006075,-0.020038999999999998,-0.010338,-32.18,-8.25,-33.5,1b
2019-07-15_142325:700,-0.385864,-0.036072,-0.28418000000000004,-0.007081999999999999,-0.020345,-0.010674,-32.18,-8.25,-33.5,1b
2019-07-15_142325:720,-0.37674,-0.020844,-0.274536,-0.008333,-0.018512999999999998,-0.00515,-32.18,-9.37,-33.869999,1b
2019-07-15_142325:740,-0.366058,-0.014740000000000001,-0.268433,-0.010714,-0.016590999999999998,0.001228,-32.18,-9.37,-33.869999,1b
2019-07-15_142325:760,-0.3508,-0.009644,-0.259796,-0.013704,-0.016499,0.006233,-32.18,-9.37,-33.869999,1b
2019-07-15_142325:780,-0.336548,-0.012177,-0.257751,-0.017672,-0.018697,0.010994,-31.370001000000002,-10.18,-34.25,1b
2019-07-15_142325:800,-0.349274,-0.021332,-0.25827,-0.021456,-0.021626,0.014656,-31.370001000000002,-10.18,-34.25,1b
2019-07-15_142325:820,-0.373688,-0.027435,-0.2659,-0.025271000000000002,-0.022022999999999997,0.014534,-30.68,-9.75,-35.75,1b
2019-07-15_142325:840,-0.392487,-0.037598,-0.277069,-0.028841000000000002,-0.019826,0.012916,-30.68,-9.75,-35.75,1b
2019-07-15_142325:860,-0.396057,-0.042175,-0.28369099999999997,-0.031495999999999996,-0.01711,0.01139,-30.68,-9.75,-35.75,1b
2019-07-15_142325:880,-0.404175,-0.045226999999999996,-0.283173,-0.033602,-0.014577000000000001,0.009406999999999999,-29.870001000000002,-10.18,-35.369999,1b
2019-07-15_142325:900,-0.408752,-0.046752999999999996,-0.282654,-0.03528,-0.011585999999999999,0.008094,-29.870001000000002,-10.18,-35.369999,1b
2019-07-15_142325:920,-0.417389,-0.044219999999999995,-0.279633,-0.036410000000000005,-0.007619,0.008216,-29.18,-10.56,-35.75,1b
2019-07-15_142325:940,-0.408752,-0.043701,-0.274017,-0.036927999999999996,-0.00298,0.009406999999999999,-29.18,-10.56,-35.75,1b
2019-07-15_142325:960,-0.396057,-0.043213,-0.274017,-0.036989,0.000499,0.01139,-29.18,-10.56,-35.75,1b
2019-07-15_142325:980,-0.40570100000000003,-0.045226999999999996,-0.275543,-0.036745,0.00172,0.013130000000000001,-28.68,-11.56,-35.369999,1b
2019-07-15_142326:000,-0.41842700000000005,-0.048798,-0.279114,-0.035738,0.002971,0.011940000000000001,-28.68,-11.56,-35.369999,1b
2019-07-15_142326:020,-0.42401099999999997,-0.045745999999999995,-0.28418000000000004,-0.034548,0.004039,0.009803000000000001,-29.75,-12.06,-36.25,1b
2019-07-15_142326:040,-0.44232200000000005,-0.046752999999999996,-0.28927600000000003,-0.033205,0.004894,0.011268,-29.75,-12.06,-36.25,1b
2019-07-15_142326:060,-0.471283,-0.053375,-0.29538000000000003,-0.032014999999999995,0.006816,0.013404,-29.75,-12.06,-36.25,1b
2019-07-15_142326:080,-0.490601,-0.061005,-0.300964,-0.030244999999999998,0.012279,0.012855000000000002,-29.059998999999998,-12.68,-35.060001,1b
2019-07-15_142326:100,-0.49926800000000005,-0.063538,-0.29895,-0.027375999999999998,0.01945,0.010872,-29.059998999999998,-12.68,-35.060001,1b
2019-07-15_142326:120,-0.49365200000000004,-0.06253099999999999,-0.290283,-0.024141,0.026407999999999997,0.0084,-30.559998999999998,-13.18,-34.25,1b
2019-07-15_142326:140,-0.477386,-0.055389,-0.28112800000000004,-0.020266,0.032512,0.007087,-30.559998999999998,-13.18,-34.25,1b
2019-07-15_142326:160,-0.48654200000000003,-0.05438200000000001,-0.279114,-0.016694999999999998,0.036021,0.007881,-30.559998999999998,-13.18,-34.25,1b
2019-07-15_142326:180,-0.537384,-0.040649,-0.306061,-0.013704,0.033427,0.008064,-32.060001,-14.68,-33.869999,1b
2019-07-15_142326:200,-0.48553500000000005,-0.039642000000000004,-0.25827,-0.011446,0.028606,0.0102,-32.060001,-14.68,-33.869999,1b
2019-07-15_142326:220,-0.505371,-0.037598,-0.272491,-0.010103000000000001,0.028911000000000003,0.01139,-32.369999,-14.0,-32.25,1b
2019-07-15_142326:240,-0.457581,-0.027435,-0.25317399999999995,-0.009463,0.026407999999999997,0.009285,-32.369999,-14.0,-32.25,1b
2019-07-15_142326:260,-0.394012,-0.020325,-0.22927899999999998,-0.008516,0.021373,0.007759,-32.369999,-14.0,-32.25,1b
2019-07-15_142326:280,-0.35943600000000003,-0.012695,-0.21048000000000003,-0.00812,0.014934000000000001,0.003303,-32.75,-14.25,-31.870001000000002,1b
2019-07-15_142326:300,-0.32843,0.0025329999999999997,-0.18454,-0.008394,0.011484999999999999,-0.0017629999999999998,-32.75,-14.25,-31.870001000000002,1b
2019-07-15_142326:320,-0.312653,0.011687999999999999,-0.183533,-0.009188,0.00822,-0.0019149999999999998,-33.560001,-14.25,-30.25,1b
2019-07-15_142326:340,-0.342163,0.018799,-0.213013,-0.010653,-0.002034,-0.00023700000000000001,-33.560001,-14.25,-30.25,1b
2019-07-15_142326:360,-0.347748,0.024384,-0.220123,-0.013125,-0.013905,-0.000634,-33.560001,-14.25,-30.25,1b
2019-07-15_142326:380,-0.375702,0.021332,-0.241486,-0.015688,-0.023396,0.002357,-33.869999,-14.68,-30.75,1b
2019-07-15_142326:400,-0.383331,0.016266,-0.255707,-0.018221,-0.032094,0.007209,-33.869999,-14.68,-30.75,1b
2019-07-15_142326:420,-0.391968,0.009644,-0.298431,-0.020753999999999998,-0.03896,0.011543000000000001,-33.560001,-14.0,-31.059998999999998,1b
2019-07-15_142326:440,-0.399109,0.0035399999999999997,-0.327911,-0.022677000000000003,-0.044453,0.015266,-33.560001,-14.0,-31.059998999999998,1b
2019-07-15_142326:460,-0.429108,-0.009125,-0.32843,-0.023256,-0.043720999999999996,0.015632,-33.560001,-14.0,-31.059998999999998,1b
2019-07-15_142326:480,-0.42807,-0.014740000000000001,-0.305054,-0.023316999999999997,-0.035878,0.014717,-32.75,-14.68,-31.5,1b
2019-07-15_142326:500,-0.40976,-0.024902,-0.294373,-0.021609,-0.025532,0.015907,-32.75,-14.68,-31.5,1b
2019-07-15_142326:520,-0.402161,-0.027435,-0.290802,-0.01993,-0.01656,0.018959,-30.18,-15.5,-35.060001,1b
2019-07-15_142326:540,-0.393494,-0.032532,-0.277069,-0.017824,-0.009816,0.023018,-30.18,-15.5,-35.060001,1b
2019-07-15_142326:560,-0.38028,-0.038635,-0.272003,-0.016572999999999997,-0.005177,0.024482,-30.18,-15.5,-35.060001,1b
2019-07-15_142326:580,-0.368073,-0.042694,-0.264374,-0.014956,-0.004109000000000001,0.02375,-31.0,-15.06,-33.5,1b
2019-07-15_142326:600,-0.364014,-0.043701,-0.263855,-0.013368999999999999,-0.005574,0.022682,-31.0,-15.06,-33.5,1b
2019-07-15_142326:620,-0.382324,-0.043213,-0.268433,-0.012118,-0.00829,0.02137,-31.370001000000002,-14.68,-33.5,1b
2019-07-15_142326:640,-0.402649,-0.042694,-0.272003,-0.011262999999999999,-0.009358,0.021431,-31.370001000000002,-14.68,-33.5,1b
2019-07-15_142326:660,-0.40823400000000004,-0.042694,-0.281647,-0.010653,-0.006612000000000001,0.020149,-31.370001000000002,-14.68,-33.5,1b
2019-07-15_142326:680,-0.40976,-0.040161,-0.284698,-0.010103000000000001,-0.00298,0.018318,-32.18,-14.68,-33.060001,1b
2019-07-15_142326:700,-0.417908,-0.044219999999999995,-0.278107,-0.008974,0.001994,0.017891,-32.18,-14.68,-33.060001,1b
2019-07-15_142326:720,-0.41333000000000003,-0.045226999999999996,-0.274536,-0.007265000000000001,0.007213,0.015266,-30.870001000000002,-13.56,-32.68,1b
2019-07-15_142326:740,-0.423004,-0.045226999999999996,-0.267914,-0.005343,0.012401,0.011329,-30.870001000000002,-13.56,-32.68,1b
2019-07-15_142326:760,-0.423004,-0.044739,-0.264862,-0.002993,0.015331000000000001,0.008491,-30.870001000000002,-13.56,-32.68,1b
2019-07-15_142326:780,-0.42401099999999997,-0.047791,-0.264862,-0.000399,0.016643,0.005622,-30.870001000000002,-14.0,-33.060001,1b
2019-07-15_142326:800,-0.423004,-0.047272,-0.264374,0.0022559999999999998,0.015178,0.002449,-30.870001000000002,-14.0,-33.060001,1b
2019-07-15_142326:820,-0.42858900000000005,-0.048798,-0.27301,0.004728,0.011791,0.0007700000000000001,-31.25,-13.18,-33.060001,1b
2019-07-15_142326:840,-0.43774399999999997,-0.051849,-0.277069,0.00778,0.009470999999999999,-0.000573,-31.25,-13.18,-33.060001,1b
2019-07-15_142326:860,-0.451477,-0.056427,-0.28418000000000004,0.010954,0.009868,-0.0037770000000000004,-31.25,-13.18,-33.060001,1b
2019-07-15_142326:880,-0.477386,-0.05996699999999999,-0.298431,0.014616,0.011668000000000001,-0.008598999999999999,-32.369999,-13.18,-32.25,1b
2019-07-15_142326:900,-0.5846859999999999,-0.05996699999999999,-0.363007,0.018003,0.008403,-0.014580000000000001,-32.369999,-13.18,-32.25,1b
2019-07-15_142326:920,-0.523163,-0.082336,-0.29538000000000003,0.02252,0.0034289999999999998,-0.0187,-32.060001,-12.06,-33.060001,1b
2019-07-15_142326:940,-0.523651,-0.066071,-0.338593,0.026762,0.012187,-0.029595,-32.060001,-12.06,-33.060001,1b
2019-07-15_142326:960,-0.49468999999999996,-0.071167,-0.316223,0.02841,0.018718000000000002,-0.025932999999999998,-32.060001,-12.06,-33.060001,1b
2019-07-15_142326:980,-0.42401099999999997,-0.079803,-0.29538000000000003,0.031736,0.024822,-0.020958,-32.060001,-12.75,-31.559998999999998,1b
2019-07-15_142327:000,-0.374695,-0.072174,-0.277588,0.029814,0.030833,-0.020165,-32.060001,-12.75,-31.559998999999998,1b
2019-07-15_142327:020,-0.34317,-0.077271,-0.279633,0.027951999999999998,0.028941,-0.008873,-32.75,-12.06,-32.25,1b
2019-07-15_142327:040,-0.334534,-0.085388,-0.276062,0.024839,0.021159,-0.001,-32.75,-12.06,-32.25,1b
2019-07-15_142327:060,-0.352844,-0.077271,-0.278595,0.019528999999999998,0.011607,-0.000664,-32.75,-12.06,-32.25,1b
2019-07-15_142327:080,-0.35638400000000003,-0.079803,-0.285706,0.014463,0.00349,0.004707,-32.369999,-11.68,-32.25,1b
2019-07-15_142327:100,-0.364532,-0.079803,-0.293854,0.009367,-0.002919,0.004615,-32.369999,-11.68,-32.25,1b
2019-07-15_142327:120,-0.36654699999999996,-0.072174,-0.300964,0.003935,-0.008412000000000001,-0.004174000000000001,-33.18,-11.0,-31.870001000000002,1b
2019-07-15_142327:140,-0.368591,-0.06405599999999999,-0.304016,-0.000246,-0.013263999999999998,-0.010154999999999999,-33.18,-11.0,-31.870001000000002,1b
2019-07-15_142327:160,-0.378754,-0.058960000000000005,-0.29995700000000003,-0.003512,-0.015462,-0.013328999999999999,-33.18,-11.0,-31.870001000000002,1b
2019-07-15_142327:180,-0.389435,-0.047791,-0.290283,-0.006533,-0.013509,-0.016991,-33.560001,-10.25,-32.25,1b
2019-07-15_142327:200,-0.396545,-0.042694,-0.280121,-0.00812,-0.008229,-0.018241999999999998,-33.560001,-10.25,-32.25,1b
2019-07-15_142327:220,-0.388916,-0.031494,-0.264374,-0.008669,-0.00179,-0.017632,-32.369999,-10.68,-31.5,1b
2019-07-15_142327:240,-0.378265,-0.023895,-0.25116,-0.009066,0.0036420000000000003,-0.01577,-32.369999,-10.68,-31.5,1b
2019-07-15_142327:260,-0.37265,-0.01828,-0.23284899999999997,-0.009463,0.007365000000000001,-0.011864,-32.369999,-10.68,-31.5,1b
2019-07-15_142327:280,-0.37112399999999995,-0.013702,-0.22521999999999998,-0.010042,0.009807,-0.008598999999999999,-32.060001,-11.68,-33.5,1b
2019-07-15_142327:300,-0.364014,-0.010651,-0.225739,-0.010865999999999999,0.00941,-0.005974,-32.060001,-11.68,-33.5,1b
2019-07-15_142327:320,-0.36706500000000003,-0.011169,-0.227753,-0.012758,0.008006000000000001,-0.003106,-32.75,-11.68,-32.25,1b
2019-07-15_142327:340,-0.38028,-0.019318000000000002,-0.236389,-0.014956,0.005168,-5.4000000000000005e-05,-32.75,-11.68,-32.25,1b
2019-07-15_142327:360,-0.389435,-0.022858,-0.23995999999999998,-0.016878,0.003307,0.001625,-32.75,-11.68,-32.25,1b
2019-07-15_142327:380,-0.411285,-0.026427999999999997,-0.243011,-0.01874,0.00352,0.002754,-32.369999,-12.06,-32.25,1b
2019-07-15_142327:400,-0.42147799999999996,-0.030487,-0.24353000000000002,-0.020205,0.005779,0.004768,-32.369999,-12.06,-32.25,1b
2019-07-15_142327:420,-0.423004,-0.036072,-0.24658200000000002,-0.022982,0.010539,0.006934999999999999,-32.060001,-12.06,-31.5,1b
2019-07-15_142327:440,-0.449432,-0.043213,-0.23995999999999998,-0.023928,0.011791,0.0073620000000000005,-32.060001,-12.06,-31.5,1b
2019-07-15_142327:460,-0.460114,-0.052338,-0.242493,-0.025271000000000002,0.012859,0.007087,-32.060001,-12.06,-31.5,1b
2019-07-15_142327:480,-0.469757,-0.05438200000000001,-0.24963400000000002,-0.025911,0.012584,0.0075450000000000005,-33.18,-13.18,-31.870001000000002,1b
2019-07-15_142327:500,-0.495697,-0.055389,-0.24758899999999998,-0.025789,0.013713,0.008551999999999999,-33.18,-13.18,-31.870001000000002,1b
2019-07-15_142327:520,-0.49365200000000004,-0.051330999999999995,-0.24658200000000002,-0.025667000000000002,0.017894,0.007606,-33.560001,-13.56,-31.059998999999998,1b
2019-07-15_142327:540,-0.506378,-0.044219999999999995,-0.248108,-0.025240000000000002,0.022228,0.005806,-33.560001,-13.56,-31.059998999999998,1b
2019-07-15_142327:560,-0.64212,-0.044219999999999995,-0.267426,-0.025515,0.016124,0.005439,-33.560001,-13.56,-31.059998999999998,1b
2019-07-15_142327:580,-0.501282,-0.032013,-0.257751,-0.026033999999999998,0.009746,0.011268,-33.869999,-14.0,-29.559998999999998,1b
2019-07-15_142327:600,-0.509918,-0.031006,-0.304535,-0.027254,0.00941,0.015846000000000002,-33.869999,-14.0,-29.559998999999998,1b
2019-07-15_142327:620,-0.48196400000000006,-0.026917,-0.270966,-0.026583,0.013652000000000001,0.008888,-34.18,-14.25,-29.18,1b
2019-07-15_142327:640,-0.395538,-0.0055850000000000006,-0.270966,-0.024721,0.016856,-0.0023120000000000003,-34.18,-14.25,-29.18,1b
2019-07-15_142327:660,-0.35638400000000003,0.004547,-0.265381,-0.022616,0.016794999999999997,-0.007286,-34.18,-14.25,-29.18,1b
2019-07-15_142327:680,-0.35791,0.013702,-0.27301,-0.020357,0.009623999999999999,-0.0064930000000000005,-35.0,-14.25,-28.370001000000002,1b
2019-07-15_142327:700,-0.334015,0.022858,-0.266388,-0.018801,0.000468,-0.005181,-35.0,-14.25,-28.370001000000002,1b
2019-07-15_142327:720,-0.360962,0.029968,-0.264374,-0.018618,-0.009084,-0.002251,-35.68,-15.5,-28.370001000000002,1b
2019-07-15_142327:740,-0.37011700000000003,0.026427999999999997,-0.263336,-0.019288999999999997,-0.016713,0.004768,-35.68,-15.5,-28.370001000000002,1b
2019-07-15_142327:760,-0.38028,0.009125,-0.274017,-0.020662,-0.022359,0.011604000000000001,-35.68,-15.5,-28.370001000000002,1b
2019-07-15_142327:780,-0.38385,0.004059,-0.285706,-0.02167,-0.026143,0.013984,-34.560001,-15.75,-29.18,1b
2019-07-15_142327:800,-0.393494,-0.015747,-0.279633,-0.021853,-0.026723,0.014197999999999999,-34.560001,-15.75,-29.18,1b
2019-07-15_142327:820,-0.389435,-0.029480000000000003,-0.2659,-0.021456,-0.02422,0.01432,-35.0,-15.75,-29.18,1b
2019-07-15_142327:840,-0.37011700000000003,-0.047791,-0.24963400000000002,-0.020083,-0.020772,0.014503,-35.0,-15.75,-29.18,1b
2019-07-15_142327:860,-0.36911,-0.055389,-0.242004,-0.017092,-0.019643,0.014259,-35.0,-15.75,-29.18,1b
2019-07-15_142327:880,-0.365021,-0.066071,-0.23284899999999997,-0.013094,-0.019429,0.010536,-33.18,-16.18,-29.18,1b
2019-07-15_142327:900,-0.368073,-0.067108,-0.23284899999999997,-0.00873,-0.0201,0.006294,-33.18,-16.18,-29.18,1b
2019-07-15_142327:920,-0.38028,-0.067108,-0.23486300000000002,-0.003939,-0.021168,0.0037,-33.18,-15.75,-29.18,1b
2019-07-15_142327:940,-0.38385,-0.064545,-0.236389,0.000608,-0.022206,0.001564,-33.18,-15.75,-29.18,1b
2019-07-15_142327:960,-0.40774499999999997,-0.058960000000000005,-0.24758899999999998,0.004789,-0.022542,0.000648,-33.18,-15.75,-29.18,1b
2019-07-15_142327:980,-0.41333000000000003,-0.055389,-0.264374,0.008177,-0.020436000000000003,-0.000512,-32.75,-15.75,-30.370001000000002,1b
2019-07-15_142328:000,-0.41333000000000003,-0.050323,-0.282166,0.011289,-0.018116999999999998,-0.004021,-32.75,-15.75,-30.370001000000002,1b
2019-07-15_142328:020,-0.410278,-0.046265,-0.284698,0.013944,-0.014638,-0.005822,-31.25,-15.5,-31.870001000000002,1b
2019-07-15_142328:040,-0.41586300000000004,-0.043213,-0.28875700000000004,0.01605,-0.009816,-0.0064930000000000005,-31.25,-15.5,-31.870001000000002,1b
2019-07-15_142328:060,-0.434692,-0.041168,-0.29995700000000003,0.018125,-0.005299,-0.009087,-31.25,-15.5,-31.870001000000002,1b
2019-07-15_142328:080,-0.42605600000000005,-0.036591000000000005,-0.29232800000000003,0.020658000000000003,0.00056,-0.013451,-31.25,-15.06,-31.5,1b
2019-07-15_142328:100,-0.430634,-0.034546,-0.29232800000000003,0.023252000000000002,0.005626,-0.016655,-31.25,-15.06,-31.5,1b
2019-07-15_142328:120,-0.429108,-0.029968,-0.29538000000000003,0.025816000000000002,0.008495,-0.018639,-31.68,-14.68,-31.870001000000002,1b
2019-07-15_142328:140,-0.437225,-0.027435,-0.29943800000000004,0.028562,0.009013,-0.018761,-31.68,-14.68,-31.870001000000002,1b
2019-07-15_142328:160,-0.452484,-0.027954000000000003,-0.304535,0.031125999999999997,0.009929,-0.017693,-31.68,-14.68,-31.870001000000002,1b
2019-07-15_142328:180,-0.46060200000000007,-0.030487,-0.311127,0.033872,0.012981,-0.018090000000000002,-30.870001000000002,-14.25,-33.060001,1b
2019-07-15_142328:200,-0.476379,-0.031494,-0.315216,0.036253,0.017894,-0.021019,-30.870001000000002,-14.25,-33.060001,1b
2019-07-15_142328:220,-0.5872189999999999,-0.034546,-0.337067,0.037687,0.015178,-0.024865,-30.559998999999998,-13.56,-33.869999,1b
2019-07-15_142328:240,-0.492126,-0.035065,-0.318756,0.038969,0.008067,-0.026818,-30.559998999999998,-13.56,-33.869999,1b
2019-07-15_142328:260,-0.5419619999999999,-0.035065,-0.33605999999999997,0.039976,0.012462,-0.032311,-30.559998999999998,-13.56,-33.869999,1b
2019-07-15_142328:280,-0.5185850000000001,-0.036591000000000005,-0.32486,0.039305,0.016582,-0.032372000000000005,-30.870001000000002,-14.0,-33.5,1b
2019-07-15_142328:300,-0.444855,-0.044739,-0.323334,0.039823000000000004,0.020488,-0.030114,-30.870001000000002,-14.0,-33.5,1b
2019-07-15_142328:320,-0.395538,-0.046265,-0.308075,0.037962,0.022289,-0.027672000000000002,-31.25,-13.18,-32.25,1b
2019-07-15_142328:340,-0.36349499999999996,-0.05438200000000001,-0.284698,0.035856,0.024028,-0.018822,-31.25,-13.18,-32.25,1b
2019-07-15_142328:360,-0.363007,-0.075226,-0.279633,0.033323,0.022502,-0.013268,-31.25,-13.18,-32.25,1b
2019-07-15_142328:380,-0.35791,-0.07928500000000001,-0.270966,0.030393,0.018687,-0.016564,-30.559998999999998,-12.06,-32.68,1b
2019-07-15_142328:400,-0.34368899999999997,-0.078278,-0.266907,0.027281,0.01411,-0.014641,-30.559998999999998,-12.06,-32.68,1b
2019-07-15_142328:420,-0.341125,-0.081848,-0.273529,0.024839,0.008678,-0.010399,-32.75,-11.25,-31.870001000000002,1b
2019-07-15_142328:440,-0.35638400000000003,-0.077271,-0.281647,0.022244999999999997,0.003764,-0.015465000000000001,-32.75,-11.25,-31.870001000000002,1b
2019-07-15_142328:460,-0.361969,-0.066589,-0.28875700000000004,0.020384,-0.0009050000000000001,-0.019249000000000002,-32.75,-11.25,-31.870001000000002,1b
2019-07-15_142328:480,-0.361969,-0.06149299999999999,-0.288269,0.018797,-0.0037119999999999996,-0.019158,-32.75,-11.18,-32.25,1b
2019-07-15_142328:500,-0.367584,-0.05438200000000001,-0.28674299999999997,0.016416,-0.004445,-0.021111,-32.75,-11.18,-32.25,1b
2019-07-15_142328:520,-0.374176,-0.044739,-0.28369099999999997,0.014616,-0.003438,-0.021355000000000002,-31.68,-11.18,-32.25,1b
2019-07-15_142328:540,-0.377228,-0.045226999999999996,-0.276581,0.013151,-0.001027,-0.021874,-31.68,-11.18,-32.25,1b
2019-07-15_142328:560,-0.377747,-0.045745999999999995,-0.266388,0.011869,0.002116,-0.02282,-31.68,-11.18,-32.25,1b
2019-07-15_142328:580,-0.377228,-0.044739,-0.263336,0.011412,0.005412,-0.022362,-30.870001000000002,-11.18,-32.25,1b
2019-07-15_142328:600,-0.375214,-0.049316000000000006,-0.2547,0.011228,0.0088,-0.02108,-30.870001000000002,-11.18,-32.25,1b
2019-07-15_142328:620,-0.374695,-0.050323,-0.255707,0.010740000000000001,0.009593,-0.020347999999999998,-31.370001000000002,-11.18,-32.68,1b
2019-07-15_142328:640,-0.372162,-0.048798,-0.24706999999999998,0.010159999999999999,0.0088,-0.020104,-31.370001000000002,-11.18,-32.68,1b
2019-07-15_142328:660,-0.382324,-0.048279,-0.242004,0.00955,0.00648,-0.019584999999999998,-31.370001000000002,-11.18,-32.68,1b
2019-07-15_142328:680,-0.402161,-0.041168,-0.235382,0.008573,0.005107,-0.019707,-30.68,-11.56,-33.060001,1b
2019-07-15_142328:700,-0.40976,-0.032013,-0.23284899999999997,0.007566,0.005168,-0.019097,-30.68,-11.56,-33.060001,1b
2019-07-15_142328:720,-0.41232299999999994,-0.025421,-0.228271,0.006834000000000001,0.006023,-0.017327000000000002,-31.370001000000002,-12.0,-33.060001,1b
2019-07-15_142328:740,-0.40823400000000004,-0.022369,-0.222687,0.005461,0.006755,-0.013999999999999999,-31.370001000000002,-12.0,-33.060001,1b
2019-07-15_142328:760,-0.406219,-0.017792,-0.220642,0.004057,0.007548999999999999,-0.009209,-31.370001000000002,-12.0,-33.060001,1b
2019-07-15_142328:780,-0.41384899999999997,-0.017273,-0.220123,0.002012,0.006693999999999999,-0.004692,-31.0,-12.68,-31.870001000000002,1b
2019-07-15_142328:800,-0.439758,-0.019318000000000002,-0.233337,5.9e-05,0.004954999999999999,-0.0021899999999999997,-31.0,-12.68,-31.870001000000002,1b
2019-07-15_142328:820,-0.45196499999999995,-0.021851,-0.235382,-0.002321,0.003246,-0.0010609999999999999,-31.75,-12.37,-32.68,1b
2019-07-15_142328:840,-0.48349,-0.025908999999999998,-0.23590100000000003,-0.004427,0.0029100000000000003,-0.002373,-31.75,-12.37,-32.68,1b
2019-07-15_142328:860,-0.496216,-0.027435,-0.23233,-0.006014,0.005016,-0.005974,-31.75,-12.37,-32.68,1b
2019-07-15_142328:880,-0.49823,-0.028961,-0.23233,-0.006258,0.009134999999999999,-0.00988,-31.370001000000002,-12.68,-31.5,1b
2019-07-15_142328:900,-0.495697,-0.026917,-0.23284899999999997,-0.005556,0.012614,-0.014916,-31.370001000000002,-12.68,-31.5,1b
2019-07-15_142328:920,-0.478912,-0.015228,-0.244019,-0.004091,0.014446,-0.018456,-31.370001000000002,-13.37,-32.68,1b
2019-07-15_142328:940,-0.516022,-0.008118,-0.2547,-0.002321,0.011943,-0.017632,-31.370001000000002,-13.37,-32.68,1b
2019-07-15_142328:960,-0.500793,0.006592,-0.28775,-0.001131,0.00352,-0.016381,-31.370001000000002,-13.37,-32.68,1b
2019-07-15_142328:980,-0.568909,0.012695,-0.275055,-0.0006730000000000001,0.0024519999999999998,-0.010856999999999999,-31.75,-13.0,-30.75,1b
2019-07-15_142329:000,-0.560272,0.020325,-0.273529,-0.000582,0.006145,-0.008477,-31.75,-13.0,-30.75,1b
2019-07-15_142329:020,-0.5058590000000001,0.031494,-0.255707,-0.000796,0.015331000000000001,-0.010459999999999999,-31.75,-14.06,-32.25,1b
2019-07-15_142329:040,-0.45401,0.036072,-0.22421300000000002,-0.001253,0.026256,-0.00869,-31.75,-14.06,-32.25,1b
2019-07-15_142329:060,-0.364014,0.040161,-0.194214,-0.0025960000000000002,0.030437,-0.0066760000000000005,-31.75,-14.06,-32.25,1b
2019-07-15_142329:080,-0.32132,0.045745999999999995,-0.192688,-0.0051600000000000005,0.023235,-0.004296,-31.75,-14.06,-30.25,1b
2019-07-15_142329:100,-0.301483,0.042175,-0.20843499999999998,-0.007998,0.007945,-5.4000000000000005e-05,-31.75,-14.06,-30.25,1b
2019-07-15_142329:120,-0.314178,0.037598,-0.21554600000000002,-0.010927,-0.010274,0.004554,-33.0,-14.87,-30.75,1b
2019-07-15_142329:140,-0.35739099999999996,0.024902,-0.256744,-0.013094,-0.027211000000000003,0.008948999999999999,-33.0,-14.87,-30.75,1b
2019-07-15_142329:160,-0.376221,0.018799,-0.268433,-0.014497999999999999,-0.039998,0.012336,-33.0,-14.87,-30.75,1b
2019-07-15_142329:180,-0.47995,0.001007,-0.314697,-0.01523,-0.043446,0.015571000000000002,-31.059998999999998,-14.06,-28.0,1b
2019-07-15_142329:200,-0.488068,-0.0055850000000000006,-0.314697,-0.015413,-0.034169,0.021339,-31.059998999999998,-14.06,-28.0,1b
2019-07-15_142329:220,-0.473846,-0.035065,-0.300476,-0.013308,-0.019887000000000002,0.02201,-31.5,-14.87,-30.5,1b
2019-07-15_142329:240,-0.458588,-0.038635,-0.290283,-0.010714,-0.006032,0.017555,-31.5,-14.87,-30.5,1b
2019-07-15_142329:260,-0.40063499999999996,-0.046752999999999996,-0.249115,-0.0069299999999999995,0.0024519999999999998,0.016638999999999998,-31.5,-14.87,-30.5,1b
2019-07-15_142329:280,-0.388916,-0.049316000000000006,-0.238434,-0.003573,0.006175,0.017036000000000003,-30.370001000000002,-14.5,-30.870001000000002,1b
2019-07-15_142329:300,-0.366058,-0.048279,-0.208954,-0.001467,0.005412,0.015266,-30.370001000000002,-14.5,-30.870001000000002,1b
2019-07-15_142329:320,-0.365021,-0.046752999999999996,-0.206909,0.00048600000000000005,0.0010789999999999999,0.013374,-31.5,-14.06,-32.369999,1b
2019-07-15_142329:340,-0.377747,-0.042694,-0.21554600000000002,0.0012490000000000001,-0.004842,0.010994,-31.5,-14.06,-32.369999,1b
2019-07-15_142329:360,-0.385864,-0.043213,-0.21759,0.0022559999999999998,-0.009145,0.007484,-31.5,-14.06,-32.369999,1b
2019-07-15_142329:380,-0.406738,-0.044219999999999995,-0.227753,0.003111,-0.010609,0.004219,-30.75,-13.75,-30.870001000000002,1b
2019-07-15_142329:400,-0.427063,-0.043213,-0.245056,0.004392,-0.008199,0.001777,-30.75,-13.75,-30.870001000000002,1b
2019-07-15_142329:420,-0.44232200000000005,-0.042175,-0.254211,0.006254,-0.0032240000000000003,0.000526,-31.5,-13.37,-31.559998999999998,1b
2019-07-15_142329:440,-0.44433599999999995,-0.035583,-0.260803,0.008634000000000001,0.0036420000000000003,-0.0010609999999999999,-31.5,-13.37,-31.559998999999998,1b
2019-07-15_142329:460,-0.445374,-0.033539,-0.262848,0.010832,0.010478,-0.002892,-31.5,-13.37,-31.559998999999998,1b
2019-07-15_142329:480,-0.43670699999999996,-0.031006,-0.25216700000000003,0.012937,0.016978,-0.003167,-31.059998999999998,-13.0,-31.870001000000002,1b
2019-07-15_142329:500,-0.43518100000000004,-0.027954000000000003,-0.245544,0.014952000000000002,0.021434,-0.003319,-31.059998999999998,-13.0,-31.870001000000002,1b
2019-07-15_142329:520,-0.444855,-0.027435,-0.23995999999999998,0.016538,0.022685,-0.005425,-30.370001000000002,-13.37,-31.5,1b
2019-07-15_142329:540,-0.44891400000000004,-0.023895,-0.239441,0.018186,0.023204,-0.005944,-30.370001000000002,-13.37,-31.5,1b
2019-07-15_142329:560,-0.455017,-0.023895,-0.237427,0.020109000000000002,0.023235,-0.005639,-30.370001000000002,-13.37,-31.5,1b
2019-07-15_142329:580,-0.46469099999999997,-0.026427999999999997,-0.24353000000000002,0.020994,0.022959999999999998,-0.006218,-31.870001000000002,-12.25,-29.870001000000002,1b
2019-07-15_142329:600,-0.48043800000000003,-0.025908999999999998,-0.244019,0.02429,0.024883000000000002,-0.008629000000000001,-31.870001000000002,-12.25,-29.870001000000002,1b
2019-07-15_142329:620,-0.49365200000000004,-0.026917,-0.245544,0.025419,0.026652999999999996,-0.009331,-32.25,-11.87,-31.5,1b
2019-07-15_142329:640,-0.594849,-0.039124,-0.25012199999999996,0.029539,0.03065,-0.010064,-32.25,-11.87,-31.5,1b
2019-07-15_142329:660,-0.6426390000000001,-0.027435,-0.288269,0.032591,0.025554,-0.009728,-32.25,-11.87,-31.5,1b
2019-07-15_142329:680,-0.607544,-0.045745999999999995,-0.21911599999999998,0.03665,0.035747,-0.011406,-32.25,-11.87,-30.370001000000002,1b
2019-07-15_142329:700,-0.55365,-0.045745999999999995,-0.263336,0.038908,0.040324,-0.011528,-32.25,-11.87,-30.370001000000002,1b
2019-07-15_142329:720,-0.46569799999999995,-0.045745999999999995,-0.24096700000000001,0.042143,0.040263,-0.010399,-33.0,-11.06,-29.18,1b
2019-07-15_142329:740,-0.43823199999999995,-0.046265,-0.226227,0.041685,0.037212,-0.0075,-33.0,-11.06,-29.18,1b
2019-07-15_142329:760,-0.385376,-0.049805,-0.210968,0.039762,0.032237,0.00028199999999999997,-33.0,-11.06,-29.18,1b
2019-07-15_142329:780,-0.36248800000000003,-0.059479,-0.205902,0.03845,0.028911000000000003,0.0037,-33.369999,-10.5,-28.370001000000002,1b
2019-07-15_142329:800,-0.360962,-0.070648,-0.20285,0.032713,0.016765000000000002,0.002967,-33.369999,-10.5,-28.370001000000002,1b
2019-07-15_142329:820,-0.379272,-0.071686,-0.205902,0.030851,0.012798,0.001258,-34.060001,-9.0,-28.370001000000002,1b
2019-07-15_142329:840,-0.368591,-0.076752,-0.20742800000000003,0.026608999999999997,0.0008960000000000001,-0.002037,-34.060001,-9.0,-28.370001000000002,1b
2019-07-15_142329:860,-0.375214,-0.078278,-0.21249400000000002,0.024046,-0.006154,-0.004845,-34.060001,-9.0,-28.370001000000002,1b
2019-07-15_142329:880,-0.40063499999999996,-0.072174,-0.220123,0.023161,-0.008992,-0.006035,-35.560001,-8.18,-28.370001000000002,1b
2019-07-15_142329:900,-0.406738,-0.069122,-0.224701,0.020109000000000002,-0.015248,-0.011589,-35.560001,-8.18,-28.370001000000002,1b
2019-07-15_142329:920,-0.406738,-0.06253099999999999,-0.22927899999999998,0.019041,-0.016988,-0.013115,-34.060001,-8.18,-29.18,1b
2019-07-15_142329:940,-0.417389,-0.054901,-0.226746,0.016203,-0.01891,-0.014977,-34.060001,-8.18,-29.18,1b
2019-07-15_142329:960,-0.43518100000000004,-0.051330999999999995,-0.225739,0.014341,-0.016194,-0.015434999999999999,-34.060001,-8.18,-29.18,1b
2019-07-15_142329:980,-0.432648,-0.043213,-0.21606399999999998,0.013394999999999999,-0.013996999999999999,-0.014641,-32.560001,-7.75,-29.18,1b
2019-07-15_142330:000,-0.42605600000000005,-0.039642000000000004,-0.20742800000000003,0.010556999999999999,-0.007344,-0.011009999999999999,-32.560001,-7.75,-29.18,1b
2019-07-15_142330:020,-0.411285,-0.035583,-0.194214,0.009245,-0.005696,-0.010399,-31.870001000000002,-7.06,-29.5,1b
2019-07-15_142330:040,-0.417908,-0.030487,-0.185059,0.005033,-0.0045060000000000005,-0.008812,-31.870001000000002,-7.06,-29.5,1b
2019-07-15_142330:060,-0.41995200000000005,-0.028961,-0.186584,0.0019210000000000002,-0.0037119999999999996,-0.007073,-31.870001000000002,-7.06,-29.5,1b
2019-07-15_142330:080,-0.414337,-0.027954000000000003,-0.18454,0.000212,-0.003682,-0.006371,-32.25,-7.75,-30.68,1b
2019-07-15_142330:100,-0.41232299999999994,-0.028961,-0.187592,-0.005007,-0.005971,-0.003563,-32.25,-7.75,-30.68,1b
2019-07-15_142330:120,-0.43011499999999997,-0.03302,-0.191162,-0.006533,-0.006490000000000001,-0.002709,-32.25,-7.75,-30.68,1b
2019-07-15_142330:140,-0.437225,-0.038635,-0.19622799999999999,-0.010256,-0.0033770000000000002,-0.002587,-31.059998999999998,-7.5,-30.68,1b
2019-07-15_142330:160,-0.43011499999999997,-0.041168,-0.198273,-0.011720999999999999,-0.000172,-0.0012439999999999999,-31.059998999999998,-7.5,-30.68,1b
2019-07-15_142330:180,-0.447388,-0.049805,-0.20944200000000002,-0.012301000000000001,0.001598,-0.0009689999999999999,-30.75,-8.56,-29.5,1b
2019-07-15_142330:200,-0.48095699999999997,-0.055908000000000006,-0.21505700000000003,-0.012514,0.010265,-0.003319,-30.75,-8.56,-29.5,1b
2019-07-15_142330:220,-0.500793,-0.057953,-0.204376,-0.011965,0.014842,-0.004631000000000001,-30.75,-8.56,-29.5,1b
2019-07-15_142330:240,-0.508423,-0.058441,-0.195221,-0.010653,0.028117000000000003,-0.005822,-30.75,-8.56,-29.5,1b
2019-07-15_142330:260,-0.496704,-0.052338,-0.174377,-0.010042,0.033763,-0.006279,-30.75,-8.56,-29.5,1b
2019-07-15_142330:280,-0.500275,-0.049316000000000006,-0.161163,-0.009859,0.035013999999999997,-0.005974,-30.75,-9.0,-29.5,1b
2019-07-15_142330:300,-0.501282,-0.043213,-0.141846,-0.009401000000000001,0.035227999999999995,-0.004845,-30.75,-9.0,-29.5,1b
2019-07-15_142330:320,-0.49111899999999997,-0.036072,-0.139801,-0.009524,0.034038,-0.004692,-30.75,-9.0,-29.5,1b
2019-07-15_142330:340,-0.49365200000000004,-0.024902,-0.138794,-0.011049,0.026195,-0.002648,-31.5,-9.25,-27.870001000000002,1b
2019-07-15_142330:360,-0.5556949999999999,-0.026917,-0.141846,-0.012697,0.019298,-0.000664,-31.5,-9.25,-27.870001000000002,1b
2019-07-15_142330:380,-0.569427,-0.021332,-0.174896,-0.013430000000000001,0.014934000000000001,0.000129,-32.25,-9.0,-26.25,1b
2019-07-15_142330:400,-0.5404359999999999,-0.021332,-0.130646,-0.016756,0.007823,0.004829,-32.25,-9.0,-26.25,1b
2019-07-15_142330:420,-0.540955,-0.017792,-0.17690999999999998,-0.017611,0.006418999999999999,0.0065379999999999995,-31.870001000000002,-10.06,-27.5,1b
2019-07-15_142330:440,-0.49517799999999995,-0.014221000000000001,-0.17843599999999998,-0.019411,0.0029100000000000003,0.005043,-31.870001000000002,-10.06,-27.5,1b
2019-07-15_142330:460,-0.426544,-0.007111,-0.184021,-0.019961000000000003,0.002055,0.001777,-31.870001000000002,-10.06,-27.5,1b
2019-07-15_142330:480,-0.391968,-0.001495,-0.180481,-0.019015,0.004039,-0.000634,-32.25,-10.5,-25.870001000000002,1b
2019-07-15_142330:500,-0.410278,0.004059,-0.186584,-0.018099,-0.0007830000000000001,-0.005974,-32.25,-10.5,-25.870001000000002,1b
2019-07-15_142330:520,-0.384857,0.009644,-0.186584,-0.017702000000000002,-0.004231,-0.00515,-32.25,-10.5,-25.870001000000002,1b
2019-07-15_142330:540,-0.38028,0.009644,-0.189117,-0.01697,-0.012256999999999999,-0.0019760000000000003,-32.560001,-10.5,-25.870001000000002,1b
2019-07-15_142330:560,-0.41586300000000004,0.007111,-0.200317,-0.016817,-0.024068,0.003761,-32.560001,-10.5,-25.870001000000002,1b
2019-07-15_142330:580,-0.43011499999999997,0.000488,-0.22164899999999998,-0.016572999999999997,-0.026479000000000003,0.0073620000000000005,-32.25,-11.06,-26.0,1b
2019-07-15_142330:600,-0.45605500000000004,-0.016266,-0.23284899999999997,-0.015962999999999998,-0.029469,0.013191,-32.25,-11.06,-26.0,1b
2019-07-15_142330:620,-0.44638100000000003,-0.030487,-0.248108,-0.014712000000000001,-0.028125999999999998,0.012611,-32.25,-11.06,-26.0,1b
2019-07-15_142330:640,-0.454529,-0.037598,-0.25216700000000003,-0.012118,-0.024464,0.010536,-32.560001,-11.06,-27.5,1b
2019-07-15_142330:660,-0.454529,-0.047791,-0.242493,-0.009004999999999999,-0.0183,0.006965000000000001,-32.560001,-11.06,-27.5,1b
2019-07-15_142330:680,-0.44891400000000004,-0.050842,-0.23284899999999997,-0.006991,-0.012195999999999999,0.005561,-30.370001000000002,-11.06,-27.5,1b
2019-07-15_142330:700,-0.433167,-0.055908000000000006,-0.21554600000000002,-0.00461,-0.007344,0.008339,-30.370001000000002,-11.06,-27.5,1b
2019-07-15_142330:720,-0.41995200000000005,-0.061005,-0.20538299999999998,-0.002657,-0.004231,0.008888,-30.370001000000002,-11.06,-27.5,1b
2019-07-15_142330:740,-0.406738,-0.063019,-0.197266,-0.000918,-0.00417,0.006813,-29.559998999999998,-11.06,-27.059998999999998,1b
2019-07-15_142330:760,-0.417908,-0.06405599999999999,-0.19622799999999999,0.0016760000000000002,-0.005696,0.00428,-29.559998999999998,-11.06,-27.059998999999998,1b
2019-07-15_142330:780,-0.41995200000000005,-0.066071,-0.20080599999999998,0.004454,-0.007497,0.0008619999999999999,-29.25,-11.06,-27.870001000000002,1b
2019-07-15_142330:800,-0.426544,-0.062012,-0.204376,0.008756,-0.00948,-0.00216,-29.25,-11.06,-27.870001000000002,1b
2019-07-15_142330:820,-0.437225,-0.054901,-0.213531,0.010221,-0.009328,-0.002892,-29.25,-11.06,-27.870001000000002,1b
2019-07-15_142330:840,-0.43774399999999997,-0.051849,-0.21759,0.01248,-0.008137,-0.004967,-29.25,-10.5,-27.5,1b
2019-07-15_142330:860,-0.433655,-0.044739,-0.22164899999999998,0.014402000000000002,-0.006825,-0.007073,-29.25,-10.5,-27.5,1b
2019-07-15_142330:880,-0.42858900000000005,-0.043213,-0.220642,0.016477000000000002,-0.004353,-0.008294,-28.870001000000002,-10.5,-27.870001000000002,1b
2019-07-15_142330:900,-0.426544,-0.041687,-0.217072,0.018583000000000002,-0.002187,-0.00988,-28.870001000000002,-10.5,-27.870001000000002,1b
2019-07-15_142330:920,-0.423004,-0.037598,-0.21859699999999999,0.020964,-0.000508,-0.011254,-28.870001000000002,-10.5,-27.870001000000002,1b
2019-07-15_142330:940,-0.444855,-0.033539,-0.213531,0.023222,0.000865,-0.012719,-29.25,-10.06,-29.059998999999998,1b
2019-07-15_142330:960,-0.453491,-0.029968,-0.207916,0.025144,0.002849,-0.012322,-29.25,-10.06,-29.059998999999998,1b
2019-07-15_142330:980,-0.47079499999999996,-0.026427999999999997,-0.20639000000000002,0.026608999999999997,0.004649,-0.011284,-28.18,-9.25,-28.68,1b
2019-07-15_142331:000,-0.475372,-0.023375999999999997,-0.20233199999999998,0.027342,0.006755,-0.010338,-28.18,-9.25,-28.68,1b
2019-07-15_142331:020,-0.48654200000000003,-0.018799,-0.20233199999999998,0.027098,0.008952,-0.009484000000000001,-28.18,-9.25,-28.68,1b
2019-07-15_142331:040,-0.489075,-0.017792,-0.20538299999999998,0.026274000000000002,0.011545999999999999,-0.008873,-27.75,-9.25,-28.68,1b
2019-07-15_142331:060,-0.496216,-0.020325,-0.20742800000000003,0.025236,0.015056,-0.008934000000000001,-27.75,-9.25,-28.68,1b
2019-07-15_142331:080,-0.500275,-0.020325,-0.20742800000000003,0.024503999999999998,0.019756,-0.009423,-27.059998999999998,-8.56,-28.25,1b
2019-07-15_142331:100,-0.535858,-0.025908999999999998,-0.20538299999999998,0.024565,0.023998,-0.011345000000000001,-27.059998999999998,-8.56,-28.25,1b
2019-07-15_142331:120,-0.650269,-0.021332,-0.223694,0.025572,0.019634,-0.015801,-27.059998999999998,-8.56,-28.25,1b
2019-07-15_142331:140,-0.526215,-0.023375999999999997,-0.17337,0.028135000000000004,0.021953,-0.020745,-27.370001000000002,-8.18,-27.5,1b
2019-07-15_142331:160,-0.5556949999999999,-0.019318000000000002,-0.209961,0.029142,0.025401,-0.021904,-27.370001000000002,-8.18,-27.5,1b
2019-07-15_142331:180,-0.492126,-0.028442000000000002,-0.18811,0.031919,0.027873000000000002,-0.016106,-27.75,-7.75,-27.870001000000002,1b
2019-07-15_142331:200,-0.46823100000000006,-0.03302,-0.18454,0.033384,0.027995,-0.015068000000000002,-27.75,-7.75,-27.870001000000002,1b
2019-07-15_142331:220,-0.432159,-0.036072,-0.17337,0.033262,0.02653,-0.008934000000000001,-27.75,-7.75,-27.870001000000002,1b
2019-07-15_142331:240,-0.423004,-0.042694,-0.1586,0.032865,0.025065999999999998,0.002754,-28.870001000000002,-7.5,-27.5,1b
2019-07-15_142331:260,-0.414337,-0.055389,-0.142853,0.029875,0.022959999999999998,0.008796,-28.870001000000002,-7.5,-27.5,1b
2019-07-15_142331:280,-0.406738,-0.060486,-0.139801,0.025755,0.018687,0.010078,-28.18,-6.25,-27.5,1b
2019-07-15_142331:300,-0.407227,-0.070648,-0.141327,0.022428,0.012248,0.0102,-28.18,-6.25,-27.5,1b
2019-07-15_142331:320,-0.402649,-0.077271,-0.146423,0.018064,0.0041,0.007942,-28.18,-6.25,-27.5,1b
2019-07-15_142331:340,-0.402649,-0.08081100000000001,-0.157593,0.014341,-0.0045060000000000005,0.003578,-28.870001000000002,-5.56,-26.68,1b
2019-07-15_142331:360,-0.416901,-0.08081100000000001,-0.167755,0.011106,-0.013844,-0.001,-28.870001000000002,-5.56,-26.68,1b
2019-07-15_142331:380,-0.435699,-0.07775900000000001,-0.187592,0.008298999999999999,-0.02187,-0.00457,-28.559998999999998,-4.87,-26.25,1b
2019-07-15_142331:400,-0.435699,-0.077271,-0.193695,0.006437000000000001,-0.026601,-0.007836,-28.559998999999998,-4.87,-26.25,1b
2019-07-15_142331:420,-0.45806899999999995,-0.071167,-0.208954,0.005033,-0.027791000000000003,-0.010399,-28.559998999999998,-4.87,-26.25,1b
2019-07-15_142331:440,-0.470276,-0.068115,-0.21505700000000003,0.004301,-0.024464,-0.011864,-28.559998999999998,-4.5,-28.68,1b
2019-07-15_142331:460,-0.474854,-0.063019,-0.20944200000000002,0.00424,-0.017171000000000002,-0.014458000000000002,-28.559998999999998,-4.5,-28.68,1b
2019-07-15_142331:480,-0.452484,-0.05438200000000001,-0.201843,0.00424,-0.009419,-0.016838,-26.25,-4.87,-27.870001000000002,1b
2019-07-15_142331:500,-0.43670699999999996,-0.047272,-0.190125,0.004454,-0.0035600000000000002,-0.016777,-26.25,-4.87,-27.870001000000002,1b
2019-07-15_142331:520,-0.41943400000000003,-0.041168,-0.177429,0.004331000000000001,-0.000661,-0.016442,-26.25,-4.87,-27.870001000000002,1b
2019-07-15_142331:540,-0.411285,-0.032532,-0.17337,0.004331000000000001,-0.000661,-0.016442,-26.25,-4.5,-28.25,1b
2019-07-15_142331:560,-0.410278,-0.024384,-0.163177,0.003843,-0.0027660000000000002,-0.015587,-26.25,-4.5,-28.25,1b
2019-07-15_142331:580,-0.410797,-0.020325,-0.157074,0.002989,-0.005086,-0.013938999999999998,-25.559998999999998,-4.87,-28.25,1b
2019-07-15_142331:600,-0.42807,-0.015747,-0.159119,0.0016760000000000002,-0.006947,-0.012139,-25.559998999999998,-4.87,-28.25,1b
2019-07-15_142331:620,-0.430634,-0.010651,-0.163696,-6.3e-05,-0.006490000000000001,-0.008965,-25.559998999999998,-4.87,-28.25,1b
2019-07-15_142331:640,-0.43518100000000004,-0.014740000000000001,-0.171844,-0.0021079999999999996,-0.005177,-0.004052,-25.18,-5.18,-29.059998999999998,1b
2019-07-15_142331:660,-0.45553599999999994,-0.020844,-0.17843599999999998,-0.004732,-0.0040479999999999995,0.000984,-25.18,-5.18,-29.059998999999998,1b
2019-07-15_142331:680,-0.49111899999999997,-0.029968,-0.180481,-0.007387,0.00056,0.0038829999999999997,-25.18,-5.56,-28.68,1b
2019-07-15_142331:700,-0.489594,-0.034058,-0.17538499999999999,-0.010865999999999999,0.010326,0.005806,-25.18,-5.56,-28.68,1b
2019-07-15_142331:720,-0.491638,-0.043213,-0.18096900000000002,-0.011995,0.011881999999999998,0.006019,-25.18,-5.56,-28.68,1b
2019-07-15_142331:740,-0.49517799999999995,-0.048798,-0.186066,-0.014284,0.012737,0.005806,-25.559998999999998,-5.18,-29.059998999999998,1b
2019-07-15_142331:760,-0.515015,-0.05285599999999999,-0.18811,-0.016085,0.012248,0.005684000000000001,-25.559998999999998,-5.18,-29.059998999999998,1b
2019-07-15_142331:780,-0.519073,-0.053863999999999995,-0.18096900000000002,-0.017366999999999997,0.014262,0.004951,-25.18,-5.56,-29.059998999999998,1b
2019-07-15_142331:800,-0.5205989999999999,-0.048798,-0.180481,-0.01816,0.01765,0.003486,-25.18,-5.56,-29.059998999999998,1b
2019-07-15_142331:820,-0.535858,-0.046752999999999996,-0.182007,-0.018618,0.019908000000000002,0.00251,-25.18,-5.56,-29.059998999999998,1b
2019-07-15_142331:840,-0.608582,-0.038635,-0.21249400000000002,-0.018892,0.016643,0.002357,-24.75,-5.56,-27.870001000000002,1b
2019-07-15_142331:860,-0.5323180000000001,-0.040649,-0.167267,-0.019472,0.013713,0.004158,-24.75,-5.56,-27.870001000000002,1b
2019-07-15_142331:880,-0.529266,-0.035065,-0.193695,-0.019747,0.013927000000000002,0.006141,-25.559998999999998,-5.56,-27.5,1b
2019-07-15_142331:900,-0.496704,-0.031494,-0.184021,-0.018801,0.014842,0.0051649999999999995,-25.559998999999998,-5.56,-27.5,1b
2019-07-15_142331:920,-0.45043900000000003,-0.020844,-0.196747,-0.016817,0.013713,0.000709,-25.559998999999998,-5.56,-27.5,1b
2019-07-15_142331:940,-0.409271,-0.012695,-0.196747,-0.013643,0.011607,-0.005089,-25.559998999999998,-6.0,-26.25,1b
2019-07-15_142331:960,-0.40063499999999996,0.001007,-0.18811,-0.010592,0.010143000000000001,-0.010613,-25.559998999999998,-6.0,-26.25,1b
2019-07-15_142331:980,-0.42605600000000005,0.007599,-0.185059,-0.007662,0.007701,-0.011742,-25.25,-7.5,-26.0,1b
2019-07-15_142332:000,-0.417389,0.017273,-0.177429,-0.005526,0.004436,-0.009545,-25.25,-7.5,-26.0,1b
2019-07-15_142332:020,-0.41232299999999994,0.021851,-0.18096900000000002,-0.0048850000000000005,-0.000264,-0.005883,-25.25,-7.5,-26.0,1b
2019-07-15_142332:040,-0.421967,0.022369,-0.18454,-0.004824,-0.006367,-0.002434,-26.370001000000002,-6.25,-27.059998999999998,1b
2019-07-15_142332:060,-0.425537,0.019318000000000002,-0.195221,-0.0058,-0.014333000000000002,0.0008619999999999999,-26.370001000000002,-6.25,-27.059998999999998,1b
2019-07-15_142332:080,-0.42605600000000005,0.008636,-0.213531,-0.006991,-0.023488,0.004951,-24.870001000000002,-6.25,-28.25,1b
2019-07-15_142332:100,-0.44027700000000003,0.0025329999999999997,-0.21453899999999998,-0.008059,-0.029439,0.009132,-24.870001000000002,-6.25,-28.25,1b
2019-07-15_142332:120,-0.462646,-0.008118,-0.212006,-0.008394,-0.028645,0.011940000000000001,-24.870001000000002,-6.25,-28.25,1b
2019-07-15_142332:140,-0.459595,-0.016753999999999998,-0.208954,-0.007937,-0.022694,0.012794,-24.370001000000002,-7.06,-26.25,1b
2019-07-15_142332:160,-0.441284,-0.025908999999999998,-0.20486500000000002,-0.007326000000000001,-0.015462,0.011848000000000001,-24.370001000000002,-7.06,-26.25,1b
2019-07-15_142332:180,-0.429596,-0.032013,-0.200317,-0.006411,-0.009937999999999999,0.010749,-22.870001000000002,-6.68,-27.870001000000002,1b
2019-07-15_142332:200,-0.42248500000000005,-0.044739,-0.181488,-0.003939,-0.006093,0.009193000000000002,-22.870001000000002,-6.68,-27.870001000000002,1b
2019-07-15_142332:220,-0.425537,-0.043213,-0.17538499999999999,-0.002993,-0.005696,0.008461,-22.870001000000002,-6.68,-27.870001000000002,1b
2019-07-15_142332:240,-0.42758199999999996,-0.048279,-0.164215,-0.000857,-0.005574,0.0084,-22.870001000000002,-7.06,-27.870001000000002,1b
2019-07-15_142332:260,-0.42758199999999996,-0.051330999999999995,-0.157593,0.0019210000000000002,-0.005971,0.005439,-22.870001000000002,-7.06,-27.870001000000002,1b
2019-07-15_142332:280,-0.41384899999999997,-0.042694,-0.167755,0.005033,-0.007344,-0.001641,-22.870001000000002,-6.68,-29.5,1b
2019-07-15_142332:300,-0.42401099999999997,-0.037108999999999996,-0.176422,0.008421,-0.009755,-0.004509,-22.870001000000002,-6.68,-29.5,1b
2019-07-15_142332:320,-0.42147799999999996,-0.027954000000000003,-0.19622799999999999,0.011625,-0.013538999999999999,-0.004631000000000001,-22.870001000000002,-6.68,-29.5,1b
2019-07-15_142332:340,-0.41842700000000005,-0.020844,-0.20538299999999998,0.013669999999999998,-0.015706,-0.004906000000000001,-22.370001000000002,-6.25,-27.870001000000002,1b
2019-07-15_142332:360,-0.451477,-0.015228,-0.21402,0.015074,-0.015858,-0.003319,-22.370001000000002,-6.25,-27.870001000000002,1b
2019-07-15_142332:380,-0.475861,-0.015747,-0.21859699999999999,0.015531,-0.011861,-0.000908,-22.370001000000002,-6.25,-29.75,1b
2019-07-15_142332:400,-0.476379,-0.017792,-0.216583,0.015347999999999999,-0.009145,-0.000176,-22.370001000000002,-6.25,-29.75,1b
2019-07-15_142332:420,-0.47943100000000005,-0.021851,-0.212006,0.01486,-0.003682,0.000496,-22.370001000000002,-6.25,-29.75,1b
2019-07-15_142332:440,-0.46417200000000003,-0.024902,-0.204376,0.014555000000000002,0.000621,0.000343,-21.18,-5.18,-30.25,1b
2019-07-15_142332:460,-0.45706199999999997,-0.026917,-0.201843,0.013669999999999998,0.0019030000000000002,-0.000786,-21.18,-5.18,-30.25,1b
2019-07-15_142332:480,-0.45605500000000004,-0.032013,-0.20285,0.012358,0.0010789999999999999,-0.001366,-21.18,-4.5,-31.0,1b
2019-07-15_142332:500,-0.465179,-0.034058,-0.204376,0.011167,0.0008960000000000001,-0.0019760000000000003,-21.18,-4.5,-31.0,1b
2019-07-15_142332:520,-0.47842399999999996,-0.040161,-0.21249400000000002,0.009641,0.002116,-0.0035020000000000003,-21.18,-4.5,-31.0,1b
2019-07-15_142332:540,-0.481476,-0.041687,-0.21606399999999998,0.009489000000000001,0.006084,-0.006371,-20.059998999999998,-4.5,-31.059998999999998,1b
2019-07-15_142332:560,-0.49111899999999997,-0.048798,-0.219635,0.010343000000000001,0.011333,-0.009362,-20.059998999999998,-4.5,-31.059998999999998,1b
2019-07-15_142332:580,-0.497742,-0.051849,-0.220642,0.012083,0.016794999999999997,-0.013268,-20.059998999999998,-3.75,-30.75,1b
2019-07-15_142332:600,-0.609589,-0.046752999999999996,-0.260284,0.014555000000000002,0.014842,-0.017113,-20.059998999999998,-3.75,-30.75,1b
2019-07-15_142332:620,-0.497742,-0.053863999999999995,-0.208954,0.019193,0.010814,-0.019982,-20.059998999999998,-3.75,-30.75,1b
2019-07-15_142332:640,-0.535858,-0.045226999999999996,-0.244019,0.022703,0.014903,-0.024681,-19.68,-3.87,-30.75,1b
2019-07-15_142332:660,-0.536377,-0.046265,-0.23233,0.025816000000000002,0.013590999999999999,-0.022698,-19.68,-3.87,-30.75,1b
2019-07-15_142332:680,-0.49316400000000005,-0.047272,-0.223175,0.028562,0.011058,-0.020501,-19.75,-3.5,-30.370001000000002,1b
2019-07-15_142332:700,-0.444855,-0.044219999999999995,-0.22521999999999998,0.027738,0.009807,-0.015648,-19.75,-3.5,-30.370001000000002,1b
2019-07-15_142332:720,-0.410278,-0.058960000000000005,-0.200317,0.027555,0.011545999999999999,-0.008598999999999999,-19.75,-3.5,-30.370001000000002,1b
2019-07-15_142332:740,-0.387909,-0.067596,-0.19622799999999999,0.026364999999999996,0.012462,-0.00927,-20.559998999999998,-2.68,-30.75,1b
2019-07-15_142332:760,-0.361969,-0.071167,-0.182007,0.026304,0.010143000000000001,-0.013725999999999999,-20.559998999999998,-2.68,-30.75,1b
2019-07-15_142332:780,-0.356903,-0.076263,-0.187073,0.026945,0.002361,-0.016319999999999998,-20.559998999999998,-2.37,-30.75,1b
2019-07-15_142332:800,-0.35180700000000004,-0.072693,-0.198273,0.028288,-0.008809,-0.019584999999999998,-20.559998999999998,-2.37,-30.75,1b
2019-07-15_142332:820,-0.375702,-0.07016,-0.213013,0.029081,-0.020497,-0.022087,-20.559998999999998,-2.37,-30.75,1b
2019-07-15_142332:840,-0.41586300000000004,-0.063019,-0.22879000000000002,0.029997000000000003,-0.029195,-0.024163,-20.18,-1.56,-30.370001000000002,1b
2019-07-15_142332:860,-0.43670699999999996,-0.060486,-0.24658200000000002,0.030393,-0.032643,-0.02694,-20.18,-1.56,-30.370001000000002,1b
2019-07-15_142332:880,-0.452484,-0.050842,-0.266388,0.030789999999999998,-0.031911,-0.028252,-19.059998999999998,-1.56,-31.870001000000002,1b
2019-07-15_142332:900,-0.448425,-0.045226999999999996,-0.261322,0.030607,-0.027607999999999997,-0.028130000000000002,-19.059998999999998,-1.56,-31.870001000000002,1b
2019-07-15_142332:920,-0.435699,-0.044219999999999995,-0.253693,0.030545999999999997,-0.021077000000000002,-0.026664999999999998,-19.059998999999998,-1.56,-31.870001000000002,1b
2019-07-15_142332:940,-0.420959,-0.041168,-0.243011,0.030088,-0.015584,-0.024559,-18.0,-0.5,-31.059998999999998,1b
2019-07-15_142332:960,-0.40063499999999996,-0.036072,-0.22216799999999998,0.029417000000000002,-0.012318,-0.021508000000000003,-18.0,-0.5,-31.059998999999998,1b
2019-07-15_142332:980,-0.390442,-0.026917,-0.207916,0.02841,-0.011403,-0.019371,-17.559998999999998,-0.56,-33.060001,1b
2019-07-15_142333:000,-0.395538,-0.017792,-0.200317,0.026304,-0.012471,-0.016899,-17.559998999999998,-0.56,-33.060001,1b
2019-07-15_142333:020,-0.39502,-0.014221000000000001,-0.198273,0.022581,-0.013783000000000002,-0.013207,-17.559998999999998,-0.56,-33.060001,1b
2019-07-15_142333:040,-0.384857,-0.010651,-0.198792,0.01721,-0.015462,-0.012597,-16.059998999999998,0.5,-32.68,1b
2019-07-15_142333:060,-0.375702,-0.012695,-0.20538299999999998,0.011686,-0.017963999999999997,-0.012931999999999999,-16.059998999999998,0.5,-32.68,1b
2019-07-15_142333:080,-0.368073,-0.014740000000000001,-0.21453899999999998,0.006895,-0.019826,-0.011681,-16.5,0.75,-34.25,1b
2019-07-15_142333:100,-0.383331,-0.021332,-0.226227,0.003111,-0.022084,-0.011009999999999999,-16.5,0.75,-34.25,1b
2019-07-15_142333:120,-0.397583,-0.023375999999999997,-0.231812,0.000334,-0.023274,-0.010003,-16.5,0.75,-34.25,1b
2019-07-15_142333:140,-0.429596,-0.026427999999999997,-0.242004,-0.001772,-0.022755,-0.009209,-15.0,1.5,-33.5,1b
2019-07-15_142333:160,-0.44027700000000003,-0.029968,-0.24453699999999998,-0.003512,-0.020436000000000003,-0.007347,-15.0,1.5,-33.5,1b
2019-07-15_142333:180,-0.460114,-0.034546,-0.261322,-0.004732,-0.017171000000000002,-0.004753,-14.68,1.5,-35.5,1b
2019-07-15_142333:200,-0.48196400000000006,-0.036072,-0.27301,-0.006014,-0.015065,-0.00277,-14.68,1.5,-35.5,1b
2019-07-15_142333:220,-0.48349,-0.034058,-0.28112800000000004,-0.0064719999999999995,-0.012929,-0.000908,-14.68,1.5,-35.5,1b
2019-07-15_142333:240,-0.486023,-0.033539,-0.28418000000000004,-0.0066549999999999995,-0.010334999999999999,0.00132,-13.18,1.06,-34.0,1b
2019-07-15_142333:260,-0.492126,-0.025908999999999998,-0.295898,-0.006991,-0.006337,0.002784,-13.18,1.06,-34.0,1b
2019-07-15_142333:280,-0.49722299999999997,-0.010651,-0.34875500000000004,-0.006745999999999999,-0.000172,0.0033640000000000002,-13.56,1.06,-34.369999,1b
2019-07-15_142333:300,-0.49722299999999997,-0.010651,-0.34875500000000004,-0.006745999999999999,-0.000172,0.0033640000000000002,-13.56,1.5,-33.560001,1b
2019-07-15_142333:320,-0.486023,0.0,-0.342163,-0.007815,0.000407,0.010597,-13.56,1.5,-33.560001,1b
2019-07-15_142333:340,-0.48706099999999997,-0.001007,-0.332489,-0.008394,0.0010789999999999999,0.013313,-13.56,1.5,-33.560001,1b
2019-07-15_142333:360,-0.48706099999999997,-0.001007,-0.332489,-0.008394,0.0010789999999999999,0.013313,-13.56,1.5,-33.560001,1b
2019-07-15_142333:380,-0.429596,0.0035399999999999997,-0.317749,-0.009401000000000001,0.001994,0.015907,-12.87,1.06,-36.369999,1b
2019-07-15_142333:400,-0.381805,0.0035399999999999997,-0.296906,-0.011049,0.0069689999999999995,0.016243,-12.87,1.06,-36.369999,1b
2019-07-15_142333:420,-0.366058,0.000488,-0.28927600000000003,-0.011170999999999999,0.009349,0.015663,-12.87,1.06,-36.369999,1b
2019-07-15_142333:440,-0.363007,-0.001495,-0.285706,-0.011446,0.012523000000000001,0.013130000000000001,-12.87,0.25,-35.18,1b
2019-07-15_142333:460,-0.361481,-0.010162000000000001,-0.28418000000000004,-0.011446,0.013590999999999999,0.009925,-12.87,0.25,-35.18,1b
2019-07-15_142333:480,-0.361969,-0.017273,-0.281647,-0.01047,0.009746,0.006934999999999999,-12.06,1.37,-34.369999,1b
2019-07-15_142333:500,-0.36706500000000003,-0.023895,-0.282166,-0.010134,0.007426,0.006233,-12.06,1.37,-34.369999,1b
2019-07-15_142333:520,-0.365021,-0.028442000000000002,-0.28875700000000004,-0.009188,-0.000661,0.007423000000000001,-12.06,1.37,-34.369999,1b
2019-07-15_142333:540,-0.377228,-0.036072,-0.30654899999999996,-0.00812,-0.006703,0.008339,-13.56,1.37,-34.869999,1b
2019-07-15_142333:560,-0.386902,-0.042175,-0.311646,-0.00635,-0.010731000000000001,0.006019,-13.56,1.37,-34.869999,1b
2019-07-15_142333:580,-0.41232299999999994,-0.047791,-0.310638,-0.003664,-0.010854,0.0018989999999999999,-14.0,1.37,-36.5,1b
2019-07-15_142333:600,-0.425537,-0.051849,-0.301483,-0.000643,-0.006612000000000001,-0.000908,-14.0,1.37,-36.5,1b
2019-07-15_142333:620,-0.42758199999999996,-0.056427,-0.285217,0.00247,0.00056,-0.0012439999999999999,-14.0,1.37,-36.5,1b
2019-07-15_142333:640,-0.417908,-0.059479,-0.276581,0.006101,0.0069689999999999995,-0.000725,-13.68,1.37,-34.5,1b
2019-07-15_142333:660,-0.394012,-0.06149299999999999,-0.25827,0.009367,0.01115,-0.002373,-13.68,1.37,-34.5,1b
2019-07-15_142333:680,-0.376221,-0.06253099999999999,-0.249115,0.012083,0.011791,-0.004448,-11.5,1.75,-35.25,1b
2019-07-15_142333:700,-0.385864,-0.06405599999999999,-0.24453699999999998,0.01486,0.009197,-0.006431999999999999,-11.5,1.75,-35.25,1b
2019-07-15_142333:720,-0.385864,-0.064545,-0.23895300000000003,0.017912,0.0069689999999999995,-0.007561,-11.5,1.75,-35.25,1b
2019-07-15_142333:740,-0.384857,-0.064545,-0.240479,0.020719,0.0041,-0.009819,-13.0,2.5,-35.560001,1b
2019-07-15_142333:760,-0.393494,-0.059479,-0.242004,0.023649,0.000621,-0.014244,-13.0,2.5,-35.560001,1b
2019-07-15_142333:780,-0.404694,-0.054901,-0.255707,0.025968,-0.001363,-0.017723,-13.68,2.87,-35.25,1b
2019-07-15_142333:800,-0.415375,-0.053863999999999995,-0.262848,0.029081,-0.0008439999999999999,-0.021172,-13.68,2.87,-35.25,1b
2019-07-15_142333:820,-0.406738,-0.05285599999999999,-0.269958,0.032713,0.002177,-0.0252,-13.68,2.87,-35.25,1b
2019-07-15_142333:840,-0.399109,-0.050323,-0.272491,0.03665,0.005412,-0.029656000000000002,-13.25,2.5,-35.25,1b
2019-07-15_142333:860,-0.398071,-0.046752999999999996,-0.274017,0.041227,0.006938,-0.033043,-13.25,2.5,-35.25,1b
2019-07-15_142333:880,-0.388428,-0.044739,-0.271484,0.046263,0.007701,-0.035424000000000004,-13.68,4.75,-34.75,1b
2019-07-15_142333:900,-0.39502,-0.040649,-0.274536,0.05139,0.007945,-0.03814,-13.68,4.75,-34.75,1b
2019-07-15_142333:920,-0.41384899999999997,-0.036591000000000005,-0.282166,0.056486,0.0071519999999999995,-0.040154,-13.68,4.75,-34.75,1b
2019-07-15_142333:940,-0.43621800000000005,-0.032013,-0.282166,0.060941999999999996,0.007213,-0.040276,-13.25,5.06,-34.869999,1b
2019-07-15_142333:960,-0.44384799999999996,-0.025421,-0.28112800000000004,0.06497,0.00883,-0.039421,-13.25,5.06,-34.869999,1b
2019-07-15_142333:980,-0.454529,-0.020325,-0.28674299999999997,0.06765499999999999,0.011852,-0.03814,-14.06,7.68,-34.869999,1b
2019-07-15_142334:000,-0.46417200000000003,-0.017273,-0.290283,0.068968,0.014995,-0.03695,-14.06,7.68,-34.869999,1b
2019-07-15_142334:020,-0.553162,-0.020325,-0.305054,0.069425,0.013927000000000002,-0.036217,-14.06,7.68,-34.869999,1b
2019-07-15_142334:040,-0.482483,-0.014740000000000001,-0.326385,0.069303,0.009593,-0.035424000000000004,-14.75,8.75,-33.25,1b
2019-07-15_142334:060,-0.5404359999999999,-0.023375999999999997,-0.29232800000000003,0.069425,0.01411,-0.035973000000000005,-14.75,8.75,-33.25,1b
2019-07-15_142334:080,-0.516022,-0.022369,-0.286224,0.068785,0.020305,-0.036308999999999994,-15.87,10.25,-32.869999,1b
2019-07-15_142334:100,-0.45401,-0.029480000000000003,-0.270477,0.06869299999999999,0.024364,-0.036217,-15.87,10.25,-32.869999,1b
2019-07-15_142334:120,-0.42147799999999996,-0.03302,-0.260284,0.06716699999999999,0.024486,-0.035912,-15.87,10.25,-32.869999,1b
2019-07-15_142334:140,-0.37316900000000003,-0.043701,-0.244019,0.06551900000000001,0.019816999999999998,-0.030601999999999997,-15.87,11.75,-32.060001,1b
2019-07-15_142334:160,-0.375702,-0.050323,-0.235382,0.062986,0.014446,-0.023735,-15.87,11.75,-32.060001,1b
2019-07-15_142334:180,-0.382812,-0.06149299999999999,-0.226227,0.059019,0.011545999999999999,-0.016442,-17.370001000000002,13.25,-31.0,1b
2019-07-15_142334:200,-0.397064,-0.071686,-0.216583,0.055357,0.012737,-0.011589,-17.370001000000002,13.25,-31.0,1b
2019-07-15_142334:220,-0.40823400000000004,-0.086914,-0.220123,0.051054,0.013744,-0.012871,-17.370001000000002,13.25,-31.0,1b
2019-07-15_142334:240,-0.393494,-0.091003,-0.22421300000000002,0.046812,0.010936,-0.014336000000000002,-18.059998999999998,14.37,-29.75,1b
2019-07-15_142334:260,-0.385376,-0.099121,-0.228271,0.042539,0.0045579999999999996,-0.014397,-18.059998999999998,14.37,-29.75,1b
2019-07-15_142334:280,-0.393005,-0.102173,-0.23028600000000002,0.038908,-0.003041,-0.016503,-18.870001000000002,16.559998999999998,-29.75,1b
2019-07-15_142334:300,-0.410278,-0.10116599999999999,-0.24453699999999998,0.036375,-0.010152,-0.02163,-18.870001000000002,16.559998999999998,-29.75,1b
2019-07-15_142334:320,-0.40823400000000004,-0.099121,-0.24706999999999998,0.034178,-0.015065,-0.029198,-18.870001000000002,16.559998999999998,-29.75,1b
2019-07-15_142334:340,-0.42147799999999996,-0.09301799999999999,-0.265381,0.033048,-0.01772,-0.03637,-19.18,16.25,-28.18,1b
2019-07-15_142334:360,-0.431122,-0.08590700000000001,-0.269958,0.032713,-0.016774,-0.041527,-19.18,16.25,-28.18,1b
2019-07-15_142334:380,-0.44027700000000003,-0.07421900000000001,-0.26944,0.032072,-0.010792,-0.043601999999999995,-18.870001000000002,17.68,-28.059998999999998,1b
2019-07-15_142334:400,-0.425018,-0.067108,-0.260284,0.03198,-0.003163,-0.043144999999999996,-18.870001000000002,17.68,-28.059998999999998,1b
2019-07-15_142334:420,-0.386902,-0.061005,-0.24658200000000002,0.032713,0.0017809999999999998,-0.042199,-18.870001000000002,17.68,-28.059998999999998,1b
2019-07-15_142334:440,-0.376221,-0.053375,-0.237427,0.033201,0.002177,-0.039879000000000005,-18.75,18.059998999999998,-27.75,1b
2019-07-15_142334:460,-0.37674,-0.050842,-0.22421300000000002,0.034513,-5e-05,-0.036034,-18.75,18.059998999999998,-27.75,1b
2019-07-15_142334:480,-0.385864,-0.049316000000000006,-0.22216799999999998,0.035124,-0.00237,-0.033165,-20.68,18.059998999999998,-25.75,1b
2019-07-15_142334:500,-0.401642,-0.046265,-0.224701,0.035795,-0.003163,-0.031792,-20.68,18.059998999999998,-25.75,1b
2019-07-15_142334:520,-0.412811,-0.042175,-0.22979699999999997,0.036161,-0.00237,-0.031731,-20.68,18.059998999999998,-25.75,1b
2019-07-15_142334:540,-0.410797,-0.039124,-0.231812,0.036039,-0.002156,-0.030999000000000002,-21.370001000000002,17.370001000000002,-25.75,1b
2019-07-15_142334:560,-0.40368699999999996,-0.034058,-0.23233,0.035063,-0.002095,-0.027947000000000003,-21.370001000000002,17.370001000000002,-25.75,1b
2019-07-15_142334:580,-0.411285,-0.032013,-0.233856,0.033842000000000004,-0.002156,-0.026146,-21.370001000000002,18.18,-27.0,1b
2019-07-15_142334:600,-0.445374,-0.031006,-0.233337,0.031401,-0.001973,-0.025872000000000003,-21.370001000000002,18.18,-27.0,1b
2019-07-15_142334:620,-0.447388,-0.031006,-0.236389,0.029477999999999997,0.00114,-0.023888,-21.370001000000002,18.18,-27.0,1b
2019-07-15_142334:640,-0.463654,-0.034546,-0.23233,0.025633,0.003978,-0.021874,-21.5,18.059998999999998,-26.559998999999998,1b
2019-07-15_142334:660,-0.467743,-0.032013,-0.227264,0.022428,0.006693999999999999,-0.019249000000000002,-21.5,18.059998999999998,-26.559998999999998,1b
2019-07-15_142334:680,-0.477386,-0.037108999999999996,-0.231812,0.019193,0.009073999999999999,-0.016198,-21.870001000000002,18.059998999999998,-24.18,1b
2019-07-15_142334:700,-0.494171,-0.039642000000000004,-0.23791500000000002,0.016142,0.011484999999999999,-0.015191,-21.870001000000002,18.059998999999998,-24.18,1b
2019-07-15_142334:720,-0.494171,-0.038116000000000004,-0.24758899999999998,0.013822,0.015056,-0.014336000000000002,-21.870001000000002,18.059998999999998,-24.18,1b
2019-07-15_142334:740,-0.48043800000000003,-0.036591000000000005,-0.25317399999999995,0.011625,0.018382,-0.011681,-23.25,18.059998999999998,-23.75,1b
2019-07-15_142334:760,-0.589752,-0.039642000000000004,-0.26944,0.010618,0.01704,-0.009728,-23.25,18.059998999999998,-23.75,1b
2019-07-15_142334:780,-0.506897,-0.032532,-0.277588,0.009428,0.010081999999999999,-0.009362,-24.059998999999998,18.059998999999998,-23.370001000000002,1b
2019-07-15_142334:800,-0.525177,-0.026427999999999997,-0.282166,0.008451,0.007945,-0.00689,-24.059998999999998,18.059998999999998,-23.370001000000002,1b
2019-07-15_142334:820,-0.525177,-0.026427999999999997,-0.270966,0.008085,0.00761,-0.007103,-24.059998999999998,18.059998999999998,-23.370001000000002,1b
2019-07-15_142334:840,-0.48349,-0.012177,-0.268951,0.008512,0.00941,-0.009758,-24.75,18.18,-22.559998999999998,1b
2019-07-15_142334:860,-0.43670699999999996,-0.008636,-0.261322,0.009611,0.014719999999999999,-0.009362,-24.75,18.18,-22.559998999999998,1b
2019-07-15_142334:880,-0.377747,0.000488,-0.246063,0.010893,0.018779,-0.008477,-25.559998999999998,18.18,-23.0,1b
2019-07-15_142334:900,-0.353333,0.006072999999999999,-0.23284899999999997,0.011961,0.021678,-0.006371,-25.559998999999998,18.18,-23.0,1b
2019-07-15_142334:920,-0.352325,0.007599,-0.21759,0.012815,0.02058,-0.002526,-25.559998999999998,18.18,-23.0,1b
2019-07-15_142334:940,-0.364532,0.008636,-0.21249400000000002,0.013425999999999999,0.017588999999999997,0.000343,-25.18,17.75,-22.18,1b
2019-07-15_142334:960,-0.371643,0.009644,-0.20843499999999998,0.012815,0.012004,0.00132,-25.18,17.75,-22.18,1b
2019-07-15_142334:980,-0.37112399999999995,0.006592,-0.21606399999999998,0.012022,0.0041,0.001655,-27.18,18.559998999999998,-22.18,1b
2019-07-15_142335:000,-0.389954,-0.001495,-0.23486300000000002,0.010282,-0.005543,0.002357,-27.18,18.559998999999998,-22.18,1b
2019-07-15_142335:020,-0.402161,-0.008118,-0.25216700000000003,0.009641,-0.015462,0.0018989999999999999,-27.18,18.559998999999998,-22.18,1b
2019-07-15_142335:040,-0.42401099999999997,-0.018799,-0.275543,0.008818000000000001,-0.023549,-0.0017629999999999998,-26.0,18.559998999999998,-22.18,1b
2019-07-15_142335:060,-0.463654,-0.023375999999999997,-0.282166,0.009977,-0.025594,-0.006096,-26.0,18.559998999999998,-22.18,1b
2019-07-15_142335:080,-0.484009,-0.026917,-0.282166,0.011747,-0.018636,-0.008965,-26.68,18.18,-22.18,1b
2019-07-15_142335:100,-0.47180200000000005,-0.032013,-0.27301,0.013731,-0.007741,-0.009331,-26.68,18.18,-22.18,1b
2019-07-15_142335:120,-0.44027700000000003,-0.038635,-0.245056,0.016599000000000003,0.002513,-0.007164,-26.68,18.18,-22.18,1b
2019-07-15_142335:140,-0.416901,-0.042175,-0.227264,0.019438,0.009349,-0.005547,-26.0,19.25,-22.559998999999998,1b
2019-07-15_142335:160,-0.389954,-0.046752999999999996,-0.19927999999999998,0.02252,0.011484999999999999,-0.00515,-26.0,19.25,-22.559998999999998,1b
2019-07-15_142335:180,-0.381805,-0.050323,-0.197266,0.025144,0.008403,-0.006768000000000001,-27.5,18.870001000000002,-22.5,1b
2019-07-15_142335:200,-0.377228,-0.054901,-0.19165,0.028227,0.0019030000000000002,-0.008965,-27.5,18.870001000000002,-22.5,1b
2019-07-15_142335:220,-0.394531,-0.05438200000000001,-0.198792,0.031613999999999996,-0.00475,-0.011986,-27.5,18.870001000000002,-22.5,1b
2019-07-15_142335:240,-0.406738,-0.049316000000000006,-0.20639000000000002,0.035124,-0.00948,-0.014733000000000001,-26.68,18.870001000000002,-20.870001000000002,1b
2019-07-15_142335:260,-0.423004,-0.047272,-0.220123,0.038755,-0.011342,-0.017174000000000002,-26.68,18.870001000000002,-20.870001000000002,1b
2019-07-15_142335:280,-0.43518100000000004,-0.043213,-0.223694,0.041807,-0.011067,-0.018853,-27.75,19.25,-20.870001000000002,1b
2019-07-15_142335:300,-0.41232299999999994,-0.023895,-0.236389,0.046324000000000004,-0.004018,-0.023094999999999997,-27.5,19.68,-19.75,1b
2019-07-15_142335:320,-0.41232299999999994,-0.023895,-0.236389,0.046324000000000004,-0.004018,-0.023094999999999997,-27.5,19.68,-19.75,1b
2019-07-15_142335:340,-0.41586300000000004,-0.021851,-0.231812,0.046812,-0.0024920000000000003,-0.024285,-27.5,19.68,-19.75,1b
2019-07-15_142335:360,-0.429596,-0.016266,-0.234375,0.047209,-0.00124,-0.024224000000000002,-27.5,19.68,-19.75,1b
2019-07-15_142335:380,-0.43774399999999997,-0.014740000000000001,-0.23486300000000002,0.047117,-0.001759,-0.022484,-29.0,20.370001000000002,-20.559998999999998,1b
2019-07-15_142335:400,-0.45806899999999995,-0.011687999999999999,-0.23791500000000002,0.047056,-0.00237,-0.02224,-29.0,20.370001000000002,-20.559998999999998,1b
2019-07-15_142335:420,-0.47079499999999996,-0.012695,-0.23690799999999998,0.046781,-0.001973,-0.022606,-29.0,20.370001000000002,-20.559998999999998,1b
2019-07-15_142335:440,-0.469757,-0.011687999999999999,-0.238434,0.046415,1.1e-05,-0.021965000000000002,-28.559998999999998,19.68,-18.870001000000002,1b
2019-07-15_142335:460,-0.469757,-0.013702,-0.240479,0.045652,0.002361,-0.020347999999999998,-28.559998999999998,19.68,-18.870001000000002,1b
2019-07-15_142335:480,-0.473846,-0.015747,-0.245056,0.044676,0.004222,-0.017723,-28.559998999999998,20.059998999999998,-18.559998999999998,1b
2019-07-15_142335:500,-0.605011,-0.032013,-0.281647,0.043363,0.004161,-0.019249000000000002,-28.559998999999998,20.059998999999998,-18.559998999999998,1b
2019-07-15_142335:520,-0.5272220000000001,-0.031006,-0.29943800000000004,0.043211,-0.000264,-0.020897,-28.559998999999998,20.059998999999998,-18.559998999999998,1b
2019-07-15_142335:540,-0.49111899999999997,-0.036591000000000005,-0.2659,0.044400999999999996,0.000133,-0.024285,-30.059998999999998,20.370001000000002,-18.5,1b
2019-07-15_142335:560,-0.498749,-0.037598,-0.266388,0.04315,0.002177,-0.025292,-30.059998999999998,20.370001000000002,-18.5,1b
2019-07-15_142335:580,-0.485016,-0.045226999999999996,-0.254211,0.044858999999999996,1.1e-05,-0.02108,-30.059998999999998,20.059998999999998,-17.25,1b
2019-07-15_142335:600,-0.412811,-0.056427,-0.250641,0.045011,-0.0062759999999999995,-0.023216999999999998,-30.059998999999998,20.059998999999998,-17.25,1b
2019-07-15_142335:620,-0.397064,-0.057434000000000006,-0.249115,0.043669,-0.012593,-0.021752,-30.059998999999998,20.059998999999998,-17.25,1b
2019-07-15_142335:640,-0.364532,-0.067108,-0.24353000000000002,0.041960000000000004,-0.016988,-0.015038,-30.870001000000002,20.25,-16.5,1b
2019-07-15_142335:660,-0.347748,-0.07775900000000001,-0.241486,0.039701,-0.021687,-0.013909,-30.870001000000002,20.25,-16.5,1b
2019-07-15_142335:680,-0.329437,-0.088959,-0.25012199999999996,0.038053,-0.02773,-0.017388,-30.870001000000002,20.25,-16.18,1b
2019-07-15_142335:700,-0.33300799999999997,-0.09353600000000001,-0.257233,0.037626,-0.035023,-0.021233000000000002,-30.870001000000002,20.25,-16.18,1b
2019-07-15_142335:720,-0.333496,-0.095581,-0.279114,0.036985000000000004,-0.041737,-0.026787000000000002,-30.870001000000002,20.25,-16.18,1b
2019-07-15_142335:740,-0.341644,-0.09301799999999999,-0.29943800000000004,0.0361,-0.046376,-0.033898000000000005,-32.0,19.559998999999998,-16.370001000000002,1b
2019-07-15_142335:760,-0.36911,-0.08081100000000001,-0.33300799999999997,0.035459,-0.047626999999999996,-0.038231,-32.0,19.559998999999998,-16.370001000000002,1b
2019-07-15_142335:780,-0.381317,-0.0737,-0.35131799999999996,0.034849,-0.045644,-0.039208,-31.559998999999998,19.559998999999998,-18.0,1b
2019-07-15_142335:800,-0.398071,-0.065582,-0.365021,0.034391000000000005,-0.040669,-0.038932999999999995,-31.559998999999998,19.559998999999998,-18.0,1b
2019-07-15_142335:820,-0.404175,-0.055389,-0.35943600000000003,0.034269,-0.032429,-0.03756,-31.559998999999998,19.559998999999998,-18.0,1b
2019-07-15_142335:840,-0.404694,-0.039124,-0.34265100000000004,0.03253,-0.022298,-0.035546,-31.370001000000002,20.25,-18.370001000000002,1b
2019-07-15_142335:860,-0.39502,-0.03302,-0.330475,0.029752999999999998,-0.012806999999999999,-0.032921,-31.370001000000002,20.25,-18.370001000000002,1b
2019-07-15_142335:880,-0.366058,-0.028442000000000002,-0.316223,0.02609,-0.006093,-0.030510000000000002,-33.560001,18.0,-18.370001000000002,1b
2019-07-15_142335:900,-0.35638400000000003,-0.026917,-0.309113,0.022093,-0.002888,-0.028405,-33.560001,18.0,-18.370001000000002,1b
2019-07-15_142335:920,-0.34875500000000004,-0.029480000000000003,-0.29943800000000004,0.018186,-0.002431,-0.026818,-33.560001,18.0,-18.370001000000002,1b
2019-07-15_142335:940,-0.352844,-0.028442000000000002,-0.294373,0.014463,-0.0033159999999999995,-0.024926,-33.18,17.68,-18.25,1b
2019-07-15_142335:960,-0.36044299999999996,-0.034546,-0.290802,0.011564,-0.003438,-0.022545,-33.18,17.68,-18.25,1b
2019-07-15_142335:980,-0.361969,-0.037108999999999996,-0.290283,0.009367,-0.0033159999999999995,-0.021477,-32.869999,17.68,-19.5,1b
2019-07-15_142336:000,-0.35943600000000003,-0.037598,-0.29180900000000004,0.007566,-0.0033159999999999995,-0.019431999999999998,-32.869999,17.68,-19.5,1b
2019-07-15_142336:020,-0.361481,-0.03302,-0.285706,0.005857,-0.003163,-0.016991,-32.869999,17.68,-19.5,1b
2019-07-15_142336:040,-0.381317,-0.031494,-0.28112800000000004,0.004789,-0.003102,-0.016106,-33.68,17.25,-19.059998999999998,1b
2019-07-15_142336:060,-0.39502,-0.027435,-0.275543,0.002531,0.00016299999999999998,-0.013725999999999999,-33.68,17.25,-19.059998999999998,1b
2019-07-15_142336:080,-0.396545,-0.026917,-0.276062,0.0017980000000000001,0.0016589999999999999,-0.012719,-34.5,17.18,-19.5,1b
2019-07-15_142336:100,-0.399109,-0.025908999999999998,-0.282166,-0.000338,0.002788,-0.009087,-34.5,17.18,-19.5,1b
2019-07-15_142336:120,-0.421967,-0.028442000000000002,-0.293335,-0.0015890000000000001,0.00056,-0.006768000000000001,-34.5,17.18,-19.5,1b
2019-07-15_142336:140,-0.44027700000000003,-0.032532,-0.300476,-0.0028399999999999996,-0.000172,-0.005089,-34.5,16.5,-20.25,1b
2019-07-15_142336:160,-0.452484,-0.035583,-0.300476,-0.003512,0.001415,-0.005639,-34.5,16.5,-20.25,1b
2019-07-15_142336:180,-0.447388,-0.032532,-0.30654899999999996,-0.003512,0.002971,-0.006615,-34.869999,16.18,-19.68,1b
2019-07-15_142336:200,-0.44027700000000003,-0.030487,-0.31369,-0.003176,0.007701,-0.010491,-34.869999,16.18,-19.68,1b
2019-07-15_142336:220,-0.432159,-0.025908999999999998,-0.320801,-0.0017109999999999998,0.010722,-0.011681,-34.869999,16.18,-19.68,1b
2019-07-15_142336:240,-0.425537,-0.020325,-0.330475,-0.000582,0.012004,-0.011284,-36.369999,16.5,-20.870001000000002,1b
2019-07-15_142336:260,-0.47995,-0.016266,-0.346222,0.002806,0.006938,-0.008629000000000001,-36.369999,16.5,-20.870001000000002,1b
2019-07-15_142336:280,-0.406219,0.004059,-0.36044299999999996,0.003507,0.003032,-0.005944,-36.369999,15.75,-20.18,1b
2019-07-15_142336:300,-0.460114,-0.001495,-0.368073,0.003507,0.001994,0.006934999999999999,-36.369999,15.75,-20.18,1b
2019-07-15_142336:320,-0.467224,-0.004059,-0.377228,0.002775,0.003825,0.001777,-36.369999,15.75,-20.18,1b
2019-07-15_142336:340,-0.441284,0.0055850000000000006,-0.37674,0.0016760000000000002,0.005351,0.000129,-36.369999,15.75,-19.370001000000002,1b
2019-07-15_142336:360,-0.390961,0.000488,-0.355896,0.001188,0.014659,0.0061719999999999995,-36.369999,15.75,-19.370001000000002,1b
2019-07-15_142336:380,-0.353851,-0.0030210000000000002,-0.333496,0.000791,0.018900999999999998,0.00489,-37.060001,15.75,-19.68,1b
2019-07-15_142336:400,-0.323334,0.0030210000000000002,-0.307068,0.000395,0.026256,-0.000512,-37.060001,15.75,-19.68,1b
2019-07-15_142336:420,-0.31012,0.0,-0.290283,0.001524,0.021098,0.001625,-37.060001,15.75,-19.68,1b
2019-07-15_142336:440,-0.307587,-0.005065999999999999,-0.285706,0.001066,0.017192,0.000984,-36.369999,16.5,-19.370001000000002,1b
2019-07-15_142336:460,-0.307068,-0.006592,-0.28775,0.000547,0.002513,0.005287,-36.369999,16.5,-19.370001000000002,1b
2019-07-15_142336:480,-0.325897,-0.020325,-0.30300900000000003,0.00048600000000000005,-0.002583,0.006813,-37.869999,16.5,-19.370001000000002,1b
2019-07-15_142336:500,-0.338074,-0.031006,-0.315216,0.0012490000000000001,-0.015645,0.0037,-37.869999,16.5,-19.370001000000002,1b
2019-07-15_142336:520,-0.36044299999999996,-0.039642000000000004,-0.334534,0.003507,-0.019826,0.001442,-37.869999,16.5,-19.370001000000002,1b
2019-07-15_142336:540,-0.394531,-0.046752999999999996,-0.338593,0.005033,-0.019154,0.000648,-37.5,15.37,-19.370001000000002,1b
2019-07-15_142336:560,-0.42858900000000005,-0.053863999999999995,-0.33300799999999997,0.009153,-0.008137,-0.0028309999999999997,-37.5,15.37,-19.370001000000002,1b
2019-07-15_142336:580,-0.427063,-0.053863999999999995,-0.320801,0.010221,-0.0033770000000000002,-0.0034409999999999996,-37.5,15.37,-19.370001000000002,1b
2019-07-15_142336:600,-0.409271,-0.058441,-0.300964,0.013028999999999999,0.008495,-0.004509,-37.869999,15.75,-19.68,1b
2019-07-15_142336:620,-0.390961,-0.060486,-0.282654,0.013731,0.010326,-0.005089,-37.869999,15.75,-19.68,1b
2019-07-15_142336:640,-0.36248800000000003,-0.06253099999999999,-0.264374,0.015135,0.010753,-0.00689,-37.869999,16.5,-19.68,1b
2019-07-15_142336:660,-0.352844,-0.06405599999999999,-0.257233,0.016783000000000003,0.007426,-0.009606,-37.869999,16.5,-19.68,1b
2019-07-15_142336:680,-0.354858,-0.06149299999999999,-0.260803,0.018338999999999998,0.001964,-0.011803,-38.18,17.18,-19.0,1b
2019-07-15_142336:700,-0.352844,-0.059479,-0.264374,0.019987,-0.002431,-0.013207,-38.18,17.18,-19.0,1b
2019-07-15_142336:720,-0.36706500000000003,-0.055908000000000006,-0.276062,0.021299000000000002,-0.006490000000000001,-0.016319999999999998,-38.18,17.18,-19.0,1b
2019-07-15_142336:740,-0.380798,-0.05438200000000001,-0.279633,0.021391,-0.0070079999999999995,-0.016838,-38.18,16.18,-19.0,1b
2019-07-15_142336:760,-0.394531,-0.047272,-0.276062,0.024015,-0.0024920000000000003,-0.019584999999999998,-38.18,16.18,-19.0,1b
2019-07-15_142336:780,-0.378265,-0.038635,-0.287231,0.024412,-0.0007830000000000001,-0.022087,-38.18,16.18,-19.0,1b
2019-07-15_142336:800,-0.365021,-0.031006,-0.291321,0.026762,0.0036420000000000003,-0.026664999999999998,-38.18,16.18,-18.559998999999998,1b
2019-07-15_142336:820,-0.393494,-0.026917,-0.303528,0.027738,0.005565,-0.027611,-38.18,16.18,-18.559998999999998,1b
2019-07-15_142336:840,-0.409271,-0.025421,-0.30300900000000003,0.029661,0.008434,-0.030388,-39.369999,15.75,-19.0,1b
2019-07-15_142336:860,-0.412811,-0.016753999999999998,-0.301483,0.032194,0.010356,-0.031121,-39.369999,15.75,-19.0,1b
2019-07-15_142336:880,-0.40774499999999997,-0.013702,-0.304535,0.035246,0.010539,-0.030570999999999997,-39.369999,15.75,-19.0,1b
2019-07-15_142336:900,-0.42248500000000005,-0.0025329999999999997,-0.307068,0.037107,0.009197,-0.030785000000000003,-40.75,15.0,-18.18,1b
2019-07-15_142336:920,-0.42758199999999996,-0.002014,-0.313171,0.038633,0.006755,-0.029595,-40.75,15.0,-18.18,1b
2019-07-15_142336:940,-0.531799,-0.010162000000000001,-0.350281,0.038755,0.003124,-0.029656000000000002,-40.5,15.0,-17.75,1b
2019-07-15_142336:960,-0.46417200000000003,-0.009125,-0.368591,0.040037,-0.00536,-0.029717,-40.5,15.0,-17.75,1b
2019-07-15_142336:980,-0.547058,-0.010651,-0.342163,0.039762,-0.001454,-0.029137,-40.5,15.0,-17.75,1b
2019-07-15_142337:000,-0.5368649999999999,-0.014221000000000001,-0.342163,0.03784,0.011607,-0.021691,-41.18,14.25,-17.370001000000002,1b
2019-07-15_142337:020,-0.45605500000000004,-0.024384,-0.334015,0.036161,0.014995,-0.01989,-41.18,14.25,-17.370001000000002,1b
2019-07-15_142337:040,-0.446899,-0.03302,-0.342163,0.031797000000000006,0.019176,-0.014336000000000002,-41.18,14.25,-18.18,1b
2019-07-15_142337:060,-0.397583,-0.055908000000000006,-0.320282,0.027616,0.023021,-0.007347,-41.18,14.25,-18.18,1b
2019-07-15_142337:080,-0.35791,-0.07016,-0.312653,0.023374000000000002,0.02653,-0.007012000000000001,-41.18,14.25,-18.18,1b
2019-07-15_142337:100,-0.33605999999999997,-0.086426,-0.296387,0.021177,0.02766,-0.013451,-43.369999,13.75,-17.0,1b
2019-07-15_142337:120,-0.330475,-0.085388,-0.29742399999999997,0.020567,0.025951,-0.019493,-43.369999,13.75,-17.0,1b
2019-07-15_142337:140,-0.336548,-0.083862,-0.301483,0.021757,0.021831,-0.017785,-44.560001,13.37,-14.18,1b
2019-07-15_142337:160,-0.336548,-0.083374,-0.30249000000000004,0.02371,0.017436,-0.016166999999999997,-44.560001,13.37,-14.18,1b
2019-07-15_142337:180,-0.339111,-0.07016,-0.31012,0.025175,0.011484999999999999,-0.018090000000000002,-44.560001,13.37,-14.18,1b
2019-07-15_142337:200,-0.340118,-0.05996699999999999,-0.316742,0.026883999999999998,0.004161,-0.019249000000000002,-44.560001,13.5,-13.87,1b
2019-07-15_142337:220,-0.352844,-0.046265,-0.326904,0.027951999999999998,-0.0037119999999999996,-0.020378,-44.560001,13.5,-13.87,1b
2019-07-15_142337:240,-0.366058,-0.037598,-0.327911,0.027342,-0.009022,-0.022026,-45.25,13.5,-13.06,1b
2019-07-15_142337:260,-0.391968,-0.026917,-0.316742,0.025816000000000002,-0.01006,-0.021477,-45.25,13.5,-13.06,1b
2019-07-15_142337:280,-0.407227,-0.026917,-0.30654899999999996,0.023619,-0.005177,-0.020104,-45.25,13.5,-13.06,1b
2019-07-15_142337:300,-0.402649,-0.024384,-0.290283,0.020658000000000003,0.001292,-0.019431999999999998,-45.18,12.75,-12.68,1b
2019-07-15_142337:320,-0.386902,-0.022369,-0.274536,0.018338999999999998,0.006084,-0.017509999999999998,-45.18,12.75,-12.68,1b
2019-07-15_142337:340,-0.36654699999999996,-0.023375999999999997,-0.248108,0.016081,0.009013,-0.015313,-44.75,12.75,-14.18,1b
2019-07-15_142337:360,-0.358917,-0.023375999999999997,-0.234375,0.013669999999999998,0.008952,-0.013787,-44.75,12.75,-14.18,1b
2019-07-15_142337:380,-0.349792,-0.022369,-0.225739,0.01135,0.005565,-0.010856999999999999,-44.75,12.75,-14.18,1b
2019-07-15_142337:400,-0.354858,-0.024902,-0.220642,0.008695,0.000346,-0.00747,-46.0,11.87,-13.5,1b
2019-07-15_142337:420,-0.352325,-0.028442000000000002,-0.220123,0.00604,-0.005177,-0.005883,-46.0,11.87,-13.5,1b
2019-07-15_142337:440,-0.36044299999999996,-0.032532,-0.224701,0.002989,-0.01067,-0.005425,-46.0,12.25,-13.06,1b
2019-07-15_142337:460,-0.40063499999999996,-0.042175,-0.231323,0.000669,-0.013661000000000001,-0.004753,-46.0,12.25,-13.06,1b
2019-07-15_142337:480,-0.417908,-0.046265,-0.234375,-0.00165,-0.012256999999999999,-0.005181,-46.0,12.25,-13.06,1b
2019-07-15_142337:500,-0.42605600000000005,-0.046265,-0.241486,-0.003664,-0.008473,-0.004357,-47.369999,11.56,-13.87,1b
2019-07-15_142337:520,-0.420959,-0.046752999999999996,-0.24963400000000002,-0.005678,-0.005147,-0.001,-47.369999,11.56,-13.87,1b
2019-07-15_142337:540,-0.41485600000000006,-0.05285599999999999,-0.26181,-0.007387,-0.0033159999999999995,-0.000328,-46.0,11.25,-15.37,1b
2019-07-15_142337:560,-0.42147799999999996,-0.050842,-0.269958,-0.009066,-0.005177,-0.002434,-46.0,11.25,-15.37,1b
2019-07-15_142337:580,-0.445374,-0.052338,-0.276062,-0.010256,-0.007405,-0.0028309999999999997,-46.0,11.25,-15.37,1b
2019-07-15_142337:600,-0.45095799999999997,-0.053863999999999995,-0.28112800000000004,-0.011323999999999999,-0.007679999999999999,-0.003045,-46.0,11.25,-13.5,1b
2019-07-15_142337:620,-0.45654300000000003,-0.052338,-0.288269,-0.01111,-0.006154,-0.004448,-46.0,11.25,-13.5,1b
2019-07-15_142337:640,-0.45196499999999995,-0.05285599999999999,-0.296906,-0.010103000000000001,-0.0034990000000000004,-0.007012000000000001,-46.25,10.87,-15.0,1b
2019-07-15_142337:660,-0.453003,-0.048279,-0.301483,-0.007784,-0.001515,-0.010613,-46.25,10.87,-15.0,1b
2019-07-15_142337:680,-0.474854,-0.041687,-0.307587,-0.005678,-0.000386,-0.01278,-46.25,10.87,-15.0,1b
2019-07-15_142337:700,-0.497742,-0.024384,-0.345215,-0.004213000000000001,-0.005757,-0.011406,-47.369999,10.5,-15.87,1b
2019-07-15_142337:720,-0.49111899999999997,-0.015228,-0.31012,-0.003939,-0.003682,-0.004967,-47.369999,10.5,-15.87,1b
2019-07-15_142337:740,-0.477386,-0.015747,-0.335022,-0.003878,-0.001027,-0.0017929999999999999,-47.369999,10.06,-17.0,1b
2019-07-15_142337:760,-0.441803,-0.009125,-0.340118,-0.0036340000000000005,-0.00044699999999999997,-0.003167,-47.369999,10.06,-17.0,1b
2019-07-15_142337:780,-0.393005,-0.0035399999999999997,-0.338074,-0.003054,0.000285,-0.000786,-47.369999,10.06,-17.0,1b
2019-07-15_142337:800,-0.379791,-0.0035399999999999997,-0.32843,-0.002321,0.002391,7.000000000000001e-06,-47.0,9.37,-15.37,1b
2019-07-15_142337:820,-0.358917,0.0055850000000000006,-0.312164,-0.0020469999999999998,0.00648,-0.0017929999999999999,-47.0,9.37,-15.37,1b
2019-07-15_142337:840,-0.344696,0.007599,-0.308594,-0.001772,0.008891,0.000221,-47.369999,10.06,-15.0,1b
2019-07-15_142337:860,-0.321808,0.008118,-0.301483,-0.002169,0.007670999999999999,0.003425,-47.369999,10.06,-15.0,1b
2019-07-15_142337:880,-0.316742,0.011169,-0.307068,-0.003878,0.0019030000000000002,0.004646,-47.369999,10.06,-15.0,1b
2019-07-15_142337:900,-0.33300799999999997,0.008636,-0.32132,-0.005678,-0.006215,0.007667,-48.060001,9.37,-15.0,1b
2019-07-15_142337:920,-0.34875500000000004,0.0030210000000000002,-0.328949,-0.007662,-0.013996999999999999,0.010261,-48.060001,9.37,-15.0,1b
2019-07-15_142337:940,-0.367584,-0.004059,-0.3396,-0.009127,-0.018849,0.009864,-48.060001,9.75,-15.0,1b
2019-07-15_142337:960,-0.391479,-0.009125,-0.341125,-0.009004999999999999,-0.018849,0.010657999999999999,-48.060001,9.75,-15.0,1b
2019-07-15_142337:980,-0.41232299999999994,-0.019318000000000002,-0.33605999999999997,-0.008333,-0.013661000000000001,0.01139,-48.060001,9.75,-15.0,1b
2019-07-15_142338:000,-0.405212,-0.024384,-0.325378,-0.007387,-0.005177,0.011146,-47.369999,10.06,-16.18,1b
2019-07-15_142338:020,-0.380798,-0.030487,-0.305054,-0.005861,0.002116,0.012123,-47.369999,10.06,-16.18,1b
2019-07-15_142338:040,-0.361969,-0.032532,-0.291321,-0.00403,0.006572,0.013130000000000001,-47.369999,10.5,-17.0,1b
2019-07-15_142338:060,-0.344177,-0.034058,-0.274017,-0.002932,0.006755,0.012519,-47.369999,10.5,-17.0,1b
2019-07-15_142338:080,-0.35131799999999996,-0.030487,-0.26944,-0.00165,0.004375,0.011482,-47.369999,10.5,-17.0,1b
2019-07-15_142338:100,-0.367584,-0.032532,-0.271484,-0.0009789999999999998,0.001964,0.009742,-47.75,10.5,-17.370001000000002,1b
2019-07-15_142338:120,-0.377228,-0.034058,-0.272003,-0.000521,0.001537,0.005836,-47.75,10.5,-17.370001000000002,1b
2019-07-15_142338:140,-0.383331,-0.034546,-0.281647,0.000151,0.001628,0.002571,-47.369999,11.25,-17.370001000000002,1b
2019-07-15_142338:160,-0.389435,-0.036591000000000005,-0.286224,0.00073,0.0017809999999999998,0.001045,-47.369999,11.25,-17.370001000000002,1b
2019-07-15_142338:180,-0.391479,-0.037598,-0.28775,0.0022559999999999998,0.0029100000000000003,-0.002495,-47.369999,11.25,-17.370001000000002,1b
2019-07-15_142338:200,-0.408752,-0.03302,-0.283173,0.004392,0.0052899999999999996,-0.006951000000000001,-47.75,11.25,-17.370001000000002,1b
2019-07-15_142338:220,-0.41232299999999994,-0.027435,-0.282654,0.0073219999999999995,0.008495,-0.008019,-47.75,11.25,-17.370001000000002,1b
2019-07-15_142338:240,-0.409271,-0.022369,-0.277588,0.010038,0.011271999999999999,-0.008019,-47.75,11.56,-16.18,1b
2019-07-15_142338:260,-0.416901,-0.018799,-0.278595,0.011625,0.014262,-0.007622,-47.75,11.56,-16.18,1b
2019-07-15_142338:280,-0.416901,-0.015747,-0.279114,0.012754000000000001,0.014903,-0.004631000000000001,-47.75,11.56,-16.18,1b
2019-07-15_142338:300,-0.426544,-0.017792,-0.282166,0.013487,0.014385,-0.0037770000000000004,-49.18,10.06,-16.559998999999998,1b
2019-07-15_142338:320,-0.439758,-0.017273,-0.283173,0.013731,0.014322999999999999,-0.004692,-49.18,10.06,-16.559998999999998,1b
2019-07-15_142338:340,-0.44995100000000005,-0.019318000000000002,-0.282654,0.013272999999999998,0.015513999999999998,-0.003106,-48.0,10.87,-15.37,1b
2019-07-15_142338:360,-0.440796,-0.024384,-0.278107,0.012693000000000001,0.01823,-0.000573,-48.0,10.87,-15.37,1b
2019-07-15_142338:380,-0.440796,-0.026917,-0.278107,0.011869,0.021373,0.000404,-48.0,10.87,-15.37,1b
2019-07-15_142338:400,-0.477386,-0.040161,-0.279633,0.011412,0.023082,0.000526,-49.18,11.56,-15.0,1b
2019-07-15_142338:420,-0.530792,-0.040161,-0.308075,0.011473,0.018108000000000003,-0.000786,-49.18,11.56,-15.0,1b
2019-07-15_142338:440,-0.484497,-0.052338,-0.25012199999999996,0.011473,0.012279,-0.002251,-49.869999,10.5,-13.5,1b
2019-07-15_142338:460,-0.465179,-0.050323,-0.287231,0.011412,0.012004,-0.0063100000000000005,-49.869999,10.5,-13.5,1b
2019-07-15_142338:480,-0.445374,-0.060486,-0.282654,0.012419,0.008891,-0.00927,-49.869999,10.5,-13.5,1b
2019-07-15_142338:500,-0.41943400000000003,-0.06253099999999999,-0.282654,0.013487,0.0042829999999999995,-0.012657999999999999,-50.25,10.87,-12.68,1b
2019-07-15_142338:520,-0.386902,-0.059479,-0.290283,0.013487,0.000346,-0.010338,-50.25,10.87,-12.68,1b
2019-07-15_142338:540,-0.36706500000000003,-0.058441,-0.28979499999999997,0.012265999999999999,-0.002583,-0.0011220000000000002,-50.68,10.06,-13.5,1b
2019-07-15_142338:560,-0.359955,-0.068115,-0.295898,0.008848,-0.003041,0.00428,-50.68,10.06,-13.5,1b
2019-07-15_142338:580,-0.361481,-0.069122,-0.30249000000000004,0.005796,-0.002705,0.001228,-50.68,10.06,-13.5,1b
2019-07-15_142338:600,-0.37112399999999995,-0.071686,-0.307587,0.002653,-0.002919,-0.002373,-51.369999,9.75,-12.25,1b
2019-07-15_142338:620,-0.379272,-0.077271,-0.313171,0.000547,-0.0024920000000000003,-0.0023120000000000003,-51.369999,9.75,-12.25,1b
2019-07-15_142338:640,-0.389435,-0.073212,-0.32132,-0.001192,-0.0007830000000000001,-0.005028,-51.0,10.56,-11.87,1b
2019-07-15_142338:660,-0.38385,-0.066589,-0.32843,-0.0014060000000000001,0.001201,-0.009209,-51.0,10.56,-11.87,1b
2019-07-15_142338:680,-0.374695,-0.056915,-0.3396,0.00048600000000000005,0.002116,-0.01281,-51.0,10.56,-11.87,1b
2019-07-15_142338:700,-0.382812,-0.047272,-0.339111,0.0027140000000000003,0.000743,-0.016106,-51.369999,10.18,-11.87,1b
2019-07-15_142338:720,-0.394012,-0.03302,-0.325378,0.004789,0.000133,-0.018241999999999998,-51.369999,10.18,-11.87,1b
2019-07-15_142338:740,-0.396057,-0.025908999999999998,-0.311127,0.005705,0.002635,-0.019219,-51.0,9.5,-11.5,1b
2019-07-15_142338:760,-0.396545,-0.015747,-0.287231,0.00604,0.007548999999999999,-0.018761,-51.0,9.5,-11.5,1b
2019-07-15_142338:780,-0.383331,-0.009644,-0.277069,0.005186,0.012004,-0.016564,-51.0,9.5,-11.5,1b
2019-07-15_142338:800,-0.36349499999999996,-0.007599,-0.262848,0.003935,0.013133,-0.013725999999999999,-51.0,8.37,-11.87,1b
2019-07-15_142338:820,-0.364014,-0.007599,-0.25317399999999995,0.002134,0.011881999999999998,-0.010856999999999999,-51.0,8.37,-11.87,1b
2019-07-15_142338:840,-0.368591,-0.010651,-0.24353000000000002,-0.000185,0.009197,-0.007897,-52.560001,8.68,-12.68,1b
2019-07-15_142338:860,-0.374695,-0.016753999999999998,-0.23995999999999998,-0.002321,0.006693999999999999,-0.00515,-52.560001,8.68,-12.68,1b
2019-07-15_142338:880,-0.382812,-0.024902,-0.245544,-0.004488000000000001,0.005046,-0.0034409999999999996,-52.560001,8.68,-12.68,1b
2019-07-15_142338:900,-0.386902,-0.029968,-0.24706999999999998,-0.006533,0.003307,-0.002892,-52.060001,7.18,-11.5,1b
2019-07-15_142338:920,-0.390961,-0.038635,-0.245544,-0.008272,0.002116,-0.001641,-52.060001,7.18,-11.5,1b
2019-07-15_142338:940,-0.40368699999999996,-0.039642000000000004,-0.24096700000000001,-0.009309999999999999,0.001994,-0.0008470000000000001,-52.5,7.56,-11.06,1b
2019-07-15_142338:960,-0.411285,-0.039124,-0.23486300000000002,-0.010103000000000001,0.003917,-0.0008470000000000001,-52.5,7.56,-11.06,1b
2019-07-15_142338:980,-0.423004,-0.036072,-0.234375,-0.010103000000000001,0.007304000000000001,-0.0010609999999999999,-52.5,7.56,-11.06,1b
2019-07-15_142339:000,-0.434174,-0.03302,-0.233337,-0.010103000000000001,0.010265,0.000343,-52.5,7.18,-9.5,1b
2019-07-15_142339:020,-0.45095799999999997,-0.033539,-0.236389,-0.010256,0.0106,0.0033640000000000002,-52.5,7.18,-9.5,1b
2019-07-15_142339:040,-0.47995,-0.036072,-0.237427,-0.010714,0.010081999999999999,0.004829,-52.560001,7.18,-11.87,1b
2019-07-15_142339:060,-0.481476,-0.037108999999999996,-0.240479,-0.011323999999999999,0.00941,0.006141,-52.560001,7.18,-11.87,1b
2019-07-15_142339:080,-0.486023,-0.039642000000000004,-0.23895300000000003,-0.011720999999999999,0.009807,0.007423000000000001,-52.560001,7.18,-11.87,1b
2019-07-15_142339:100,-0.484497,-0.037108999999999996,-0.236389,-0.011904000000000001,0.011881999999999998,0.004768,-53.0,6.87,-8.37,1b
2019-07-15_142339:120,-0.475861,-0.03302,-0.236389,-0.011781999999999999,0.015056,0.001503,-53.0,6.87,-8.37,1b
2019-07-15_142339:140,-0.48043800000000003,-0.031494,-0.235382,-0.011446,0.018962,0.001106,-53.0,7.18,-9.18,1b
2019-07-15_142339:160,-0.500793,-0.032013,-0.233337,-0.010865999999999999,0.023021,0.001991,-53.0,7.18,-9.18,1b
2019-07-15_142339:180,-0.53891,-0.026427999999999997,-0.25827,-0.010134,0.021709,0.003639,-53.0,7.18,-9.18,1b
2019-07-15_142339:200,-0.510437,-0.022369,-0.235382,-0.010988,0.015849000000000002,0.007698,-53.0,7.18,-9.18,1b
2019-07-15_142339:220,-0.5134890000000001,-0.025421,-0.259796,-0.011323999999999999,0.014322999999999999,0.010139,-53.0,7.18,-9.18,1b
2019-07-15_142339:240,-0.472321,-0.014221000000000001,-0.257751,-0.012057,0.012798,0.003975,-53.25,6.87,-8.75,1b
2019-07-15_142339:260,-0.45806899999999995,-0.011169,-0.259796,-0.011720999999999999,0.012401,0.002449,-53.25,6.87,-8.75,1b
2019-07-15_142339:280,-0.420959,-0.0055850000000000006,-0.261322,-0.009249,0.01292,0.001381,-53.25,6.87,-8.75,1b
2019-07-15_142339:300,-0.42248500000000005,0.004547,-0.25116,-0.0069299999999999995,0.016246,-0.005028,-53.68,7.18,-7.18,1b
2019-07-15_142339:320,-0.43518100000000004,0.019318000000000002,-0.243011,-0.005526,0.023691999999999998,-0.006615,-53.68,7.18,-7.18,1b
2019-07-15_142339:340,-0.409271,0.023375999999999997,-0.244019,-0.006991,0.030437,-0.0010609999999999999,-53.0,7.56,-6.06,1b
2019-07-15_142339:360,-0.383331,0.022369,-0.23590100000000003,-0.009646,0.028177999999999998,-0.000908,-53.0,7.56,-6.06,1b
2019-07-15_142339:380,-0.378754,0.014740000000000001,-0.23791500000000002,-0.010775,0.022807,-0.000328,-53.0,7.56,-6.06,1b
2019-07-15_142339:400,-0.379272,0.005065999999999999,-0.243011,-0.010836,0.01411,0.000496,-54.060001,6.87,-5.25,1b
2019-07-15_142339:420,-0.385376,0.0030210000000000002,-0.241486,-0.010317,0.0035810000000000004,0.003761,-54.060001,6.87,-5.25,1b
2019-07-15_142339:440,-0.443329,-0.011169,-0.23284899999999997,-0.008791,0.00056,0.010353,-54.75,7.18,-4.56,1b
2019-07-15_142339:460,-0.441284,-0.016266,-0.22116100000000002,-0.009188,0.0036420000000000003,0.012062,-54.75,7.18,-4.56,1b
2019-07-15_142339:480,-0.441284,-0.016266,-0.22116100000000002,-0.009188,0.0036420000000000003,0.012062,-54.75,7.18,-4.56,1b
2019-07-15_142339:500,-0.423004,-0.020325,-0.209961,-0.009859,0.008342,0.014990999999999999,-54.75,7.18,-4.56,1b
2019-07-15_142339:520,-0.423004,-0.020325,-0.209961,-0.009859,0.008342,0.014990999999999999,-54.75,7.18,-4.56,1b
2019-07-15_142339:540,-0.417389,-0.022858,-0.205902,-0.010042,0.009593,0.015663,-54.75,7.56,-5.25,1b
2019-07-15_142339:560,-0.397583,-0.031494,-0.190643,-0.010378,0.009929,0.015327,-54.75,7.56,-5.25,1b
2019-07-15_142339:580,-0.394531,-0.036072,-0.183533,-0.010103000000000001,0.006633,0.013862000000000001,-54.75,7.56,-5.25,1b
2019-07-15_142339:600,-0.406219,-0.039124,-0.183014,-0.009340000000000001,0.002177,0.011879,-54.75,8.0,-5.25,1b
2019-07-15_142339:620,-0.42248500000000005,-0.040649,-0.186066,-0.008211,-0.0008439999999999999,0.008948999999999999,-54.75,8.0,-5.25,1b
