timestamp,AccX,AccY,AccZ,GyroX,GyroY,GyroZ,MagX,MagY,MagZ,Activity
2019-07-15_184604:680,-0.42147799999999996,-0.012177,-0.24963400000000002,-0.008974,-0.0005690000000000001,0.007606,-38.369999,-22.5,-13.75,3b
2019-07-15_184604:700,-0.44281000000000004,-0.017792,-0.243011,-0.010103000000000001,-0.0008439999999999999,0.00663,-38.369999,-22.5,-13.75,3b
2019-07-15_184604:720,-0.448425,-0.017273,-0.23995999999999998,-0.010256,0.00056,0.0058969999999999995,-38.369999,-22.5,-13.75,3b
2019-07-15_184604:740,-0.46469099999999997,-0.019318000000000002,-0.227753,-0.010653,0.002513,0.005226,-37.25,-22.059998999999998,-12.56,3b
2019-07-15_184604:760,-0.463654,-0.018799,-0.21911599999999998,-0.010531,0.004375,0.0061719999999999995,-37.25,-22.059998999999998,-12.56,3b
2019-07-15_184604:780,-0.452484,-0.017273,-0.21759,-0.010531,0.005412,0.008064,-38.0,-22.5,-13.37,3b
2019-07-15_184604:800,-0.437225,-0.018799,-0.220123,-0.010378,0.004833,0.007209,-38.0,-22.5,-13.37,3b
2019-07-15_184604:820,-0.416901,-0.019806,-0.227753,-0.009524,0.0019030000000000002,0.004432,-38.0,-22.5,-13.37,3b
2019-07-15_184604:840,-0.437225,-0.020325,-0.230804,-0.008578,0.000285,0.00251,-38.0,-21.370001000000002,-11.75,3b
2019-07-15_184604:860,-0.437225,-0.020844,-0.230804,-0.007204,-0.000508,0.001381,-38.0,-21.370001000000002,-11.75,3b
2019-07-15_184604:880,-0.44027700000000003,-0.019806,-0.23028600000000002,-0.005739,-0.00044699999999999997,0.000923,-38.369999,-22.059998999999998,-12.18,3b
2019-07-15_184604:900,-0.441803,-0.017273,-0.22879000000000002,-0.004,0.000346,0.001258,-38.369999,-22.059998999999998,-12.18,3b
2019-07-15_184604:920,-0.439758,-0.015228,-0.22927899999999998,-0.0025050000000000003,0.001201,0.001655,-38.369999,-22.059998999999998,-12.18,3b
2019-07-15_184604:940,-0.432159,-0.010162000000000001,-0.22879000000000002,-0.000918,0.00114,0.001258,-38.369999,-21.68,-12.18,3b
2019-07-15_184604:960,-0.435699,-0.009644,-0.228271,0.000151,0.000346,0.001106,-38.369999,-21.68,-12.18,3b
2019-07-15_184604:980,-0.43621800000000005,-0.006072999999999999,-0.22879000000000002,0.000944,-0.00011100000000000001,0.001167,-38.68,-22.059998999999998,-12.56,3b
2019-07-15_184605:000,-0.433655,-0.0030210000000000002,-0.22979699999999997,0.001585,-0.000661,0.000923,-38.68,-22.059998999999998,-12.56,3b
2019-07-15_184605:020,-0.44891400000000004,-0.004059,-0.226227,0.0016460000000000001,-0.00011100000000000001,0.0007700000000000001,-38.68,-22.059998999999998,-12.56,3b
2019-07-15_184605:040,-0.446899,-0.007111,-0.22979699999999997,0.002073,0.001353,0.000984,-38.68,-21.370001000000002,-13.37,3b
2019-07-15_184605:060,-0.446899,-0.01828,-0.23233,0.003141,0.002696,0.000587,-38.68,-21.370001000000002,-13.37,3b
2019-07-15_184605:080,-0.439758,-0.021851,-0.235382,0.005461,0.003703,0.001625,-38.0,-21.370001000000002,-13.0,3b
2019-07-15_184605:100,-0.446899,-0.028961,-0.23590100000000003,0.009153,0.0042829999999999995,0.002357,-38.0,-21.370001000000002,-13.0,3b
2019-07-15_184605:120,-0.44995100000000005,-0.028442000000000002,-0.236389,0.012297,0.0052899999999999996,0.001716,-38.0,-21.370001000000002,-13.0,3b
2019-07-15_184605:140,-0.45095799999999997,-0.024902,-0.23486300000000002,0.01547,0.00648,0.001045,-38.369999,-21.68,-11.75,3b
2019-07-15_184605:160,-0.447906,-0.021332,-0.23233,0.017515,0.007426,-0.000664,-38.369999,-21.68,-11.75,3b
2019-07-15_184605:180,-0.441803,-0.017273,-0.226227,0.018736000000000003,0.008403,-0.002526,-39.060001,-21.0,-12.56,3b
2019-07-15_184605:200,-0.44027700000000003,-0.011687999999999999,-0.222687,0.01898,0.00822,-0.002098,-39.060001,-21.0,-12.56,3b
2019-07-15_184605:220,-0.437225,-0.008118,-0.223694,0.018003,0.006816,-0.001519,-39.060001,-21.0,-12.56,3b
2019-07-15_184605:240,-0.438751,-0.007111,-0.21911599999999998,0.016538,0.005107,-0.00216,-38.68,-21.0,-13.37,3b
2019-07-15_184605:260,-0.43774399999999997,-0.009125,-0.213013,0.014555000000000002,0.0041,-0.0019149999999999998,-38.68,-21.0,-13.37,3b
2019-07-15_184605:280,-0.43774399999999997,-0.012695,-0.21453899999999998,0.013090000000000001,0.003093,-0.0013050000000000002,-39.060001,-21.370001000000002,-13.75,3b
2019-07-15_184605:300,-0.431122,-0.01828,-0.213013,0.011625,0.001628,-0.0010609999999999999,-39.060001,-21.370001000000002,-13.75,3b
2019-07-15_184605:320,-0.432648,-0.021332,-0.213013,0.010618,-0.0007830000000000001,-0.001519,-39.060001,-21.370001000000002,-13.75,3b
2019-07-15_184605:340,-0.441284,-0.025421,-0.210968,0.009703,-0.002034,-0.002373,-39.369999,-20.559998999999998,-13.0,3b
2019-07-15_184605:360,-0.44638100000000003,-0.028961,-0.213531,0.009153,-0.002034,-0.002373,-39.369999,-20.559998999999998,-13.0,3b
2019-07-15_184605:380,-0.44995100000000005,-0.031006,-0.217072,0.00897,-0.001393,-0.0023120000000000003,-37.560001,-20.18,-14.18,3b
2019-07-15_184605:400,-0.44891400000000004,-0.029480000000000003,-0.219635,0.008695,-0.0009050000000000001,-0.002892,-37.560001,-20.18,-14.18,3b
2019-07-15_184605:420,-0.45095799999999997,-0.024384,-0.223694,0.008512,-0.000661,-0.003624,-37.560001,-20.18,-14.18,3b
2019-07-15_184605:440,-0.45043900000000003,-0.023895,-0.220642,0.00778,-0.00011100000000000001,-0.004113,-38.68,-20.559998999999998,-15.0,3b
2019-07-15_184605:460,-0.45043900000000003,-0.020844,-0.219635,0.00659,0.000743,-0.004448,-38.68,-20.559998999999998,-15.0,3b
2019-07-15_184605:480,-0.446899,-0.017792,-0.216583,0.005125,0.001353,-0.004296,-38.68,-20.559998999999998,-15.75,3b
2019-07-15_184605:500,-0.439758,-0.016753999999999998,-0.213531,0.003721,0.0014759999999999999,-0.004448,-38.68,-20.559998999999998,-15.75,3b
2019-07-15_184605:520,-0.432648,-0.014740000000000001,-0.212006,0.002134,0.00056,-0.0057,-38.68,-20.559998999999998,-15.75,3b
2019-07-15_184605:540,-0.432648,-0.011687999999999999,-0.21148699999999998,0.00073,-0.001027,-0.005944,-38.369999,-20.25,-14.56,3b
2019-07-15_184605:560,-0.44433599999999995,-0.013213999999999998,-0.213531,-0.000582,-0.003041,-0.004815,-38.369999,-20.25,-14.56,3b
2019-07-15_184605:580,-0.45401,-0.015747,-0.219635,-0.001314,-0.003163,-0.00396,-37.560001,-20.18,-15.75,3b
2019-07-15_184605:600,-0.45401,-0.017792,-0.226227,-0.0017109999999999998,-0.001759,-0.003045,-37.560001,-20.18,-15.75,3b
2019-07-15_184605:620,-0.451477,-0.019806,-0.233856,-0.001925,-0.000722,-0.0017929999999999999,-37.560001,-20.18,-15.75,3b
2019-07-15_184605:640,-0.445374,-0.020844,-0.233337,-0.002321,-0.000233,-0.001458,-38.0,-20.68,-15.37,3b
2019-07-15_184605:660,-0.44384799999999996,-0.022858,-0.23233,-0.002199,0.000133,-0.0017929999999999999,-38.0,-20.68,-15.37,3b
2019-07-15_184605:680,-0.446899,-0.022369,-0.23284899999999997,-0.001986,0.00022400000000000002,-0.0021899999999999997,-38.68,-21.75,-15.75,3b
2019-07-15_184605:700,-0.448425,-0.021332,-0.22879000000000002,-0.001467,0.00056,-0.003228,-38.68,-21.75,-15.75,3b
2019-07-15_184605:720,-0.447906,-0.021851,-0.223694,-0.000918,0.0016589999999999999,-0.002983,-38.68,-21.75,-15.75,3b
2019-07-15_184605:740,-0.441803,-0.022858,-0.220123,-0.000521,0.002116,-0.001641,-37.560001,-21.5,-15.75,3b
2019-07-15_184605:760,-0.43774399999999997,-0.023895,-0.223694,-0.000124,0.002116,-0.00023700000000000001,-37.560001,-21.5,-15.75,3b
2019-07-15_184605:780,-0.43823199999999995,-0.025908999999999998,-0.223175,-0.000185,0.001628,0.000404,-37.369999,-20.68,-16.5,3b
2019-07-15_184605:800,-0.44027700000000003,-0.026427999999999997,-0.22521999999999998,-0.000124,0.0012619999999999999,0.000587,-37.369999,-20.68,-16.5,3b
2019-07-15_184605:820,-0.440796,-0.028442000000000002,-0.228271,-0.000124,0.0008039999999999999,0.000496,-37.369999,-20.68,-16.5,3b
2019-07-15_184605:840,-0.43823199999999995,-0.029480000000000003,-0.228271,-0.000185,0.000743,0.000343,-37.68,-20.68,-16.18,3b
2019-07-15_184605:860,-0.44638100000000003,-0.029480000000000003,-0.22879000000000002,-0.000246,0.00056,0.000404,-37.68,-20.68,-16.18,3b
2019-07-15_184605:880,-0.448425,-0.029968,-0.234375,-0.000277,0.001537,0.00016,-37.68,-21.5,-15.75,3b
2019-07-15_184605:900,-0.44638100000000003,-0.028442000000000002,-0.23486300000000002,-0.000338,0.002696,-0.00011499999999999999,-37.68,-21.5,-15.75,3b
2019-07-15_184605:920,-0.440796,-0.029968,-0.23791500000000002,-0.000582,0.003246,7.000000000000001e-06,-37.68,-21.5,-15.75,3b
2019-07-15_184605:940,-0.44232200000000005,-0.028961,-0.242004,-0.000734,0.003246,0.00016,-37.369999,-21.059998999999998,-16.18,3b
2019-07-15_184605:960,-0.42758199999999996,-0.030487,-0.220123,-0.00107,0.003703,0.00028199999999999997,-37.369999,-21.059998999999998,-16.18,3b
2019-07-15_184605:980,-0.427063,-0.030487,-0.220123,-0.000796,0.0017809999999999998,0.000648,-38.5,-20.68,-15.37,3b
2019-07-15_184606:000,-0.42758199999999996,-0.029480000000000003,-0.219635,-0.000734,-0.000172,0.000709,-38.5,-20.68,-15.37,3b
2019-07-15_184606:020,-0.42401099999999997,-0.028961,-0.22216799999999998,-0.001131,-0.002095,0.0007700000000000001,-38.5,-20.68,-15.37,3b
2019-07-15_184606:040,-0.42147799999999996,-0.028961,-0.227753,-0.001375,-0.004231,0.000221,-38.060001,-20.68,-15.75,3b
2019-07-15_184606:060,-0.421967,-0.025908999999999998,-0.22521999999999998,-0.001864,-0.0070079999999999995,-0.0013050000000000002,-38.060001,-20.68,-15.75,3b
2019-07-15_184606:080,-0.416901,-0.023895,-0.226746,-0.002199,-0.010152,-0.0013050000000000002,-37.560001,-21.059998999999998,-16.5,3b
2019-07-15_184606:100,-0.408752,-0.022858,-0.226746,-0.003176,-0.013509,-0.000573,-37.560001,-21.059998999999998,-16.5,3b
2019-07-15_184606:120,-0.39859,-0.021851,-0.23028600000000002,-0.00403,-0.017963999999999997,-0.000664,-37.560001,-21.059998999999998,-16.5,3b
2019-07-15_184606:140,-0.40011599999999997,-0.020325,-0.236389,-0.0051600000000000005,-0.023,-0.001,-38.060001,-21.059998999999998,-17.0,3b
2019-07-15_184606:160,-0.423004,-0.022858,-0.24758899999999998,-0.005953,-0.027516000000000002,-0.001458,-38.060001,-21.059998999999998,-17.0,3b
2019-07-15_184606:180,-0.44433599999999995,-0.025908999999999998,-0.251648,-0.006745999999999999,-0.028004,-0.0021899999999999997,-36.560001,-20.68,-18.5,3b
2019-07-15_184606:200,-0.461639,-0.028961,-0.262329,-0.006869,-0.024403,-0.0023120000000000003,-36.560001,-20.68,-18.5,3b
2019-07-15_184606:220,-0.461639,-0.029968,-0.269958,-0.0064719999999999995,-0.018636,-0.0019760000000000003,-36.560001,-20.68,-18.5,3b
2019-07-15_184606:240,-0.45095799999999997,-0.029968,-0.276062,-0.005678,-0.013538999999999999,-0.0011220000000000002,-36.560001,-21.059998999999998,-18.18,3b
2019-07-15_184606:260,-0.44384799999999996,-0.029968,-0.270966,-0.004549,-0.009541,0.000465,-36.560001,-21.059998999999998,-18.18,3b
2019-07-15_184606:280,-0.429596,-0.025421,-0.267914,-0.0034509999999999996,-0.006886,0.001167,-36.18,-21.5,-18.18,3b
2019-07-15_184606:300,-0.425018,-0.023895,-0.264374,-0.002932,-0.005696,0.0018989999999999999,-36.18,-21.5,-18.18,3b
2019-07-15_184606:320,-0.420959,-0.024902,-0.2659,-0.002993,-0.00536,0.002235,-36.18,-21.5,-18.18,3b
2019-07-15_184606:340,-0.42147799999999996,-0.024384,-0.269958,-0.003573,-0.0052380000000000005,0.001625,-36.060001,-21.5,-19.0,3b
2019-07-15_184606:360,-0.42147799999999996,-0.026427999999999997,-0.268951,-0.004213000000000001,-0.005177,0.001381,-36.060001,-21.5,-19.0,3b
2019-07-15_184606:380,-0.416382,-0.029480000000000003,-0.26944,-0.004946,-0.0045060000000000005,0.001167,-35.75,-21.5,-18.5,3b
2019-07-15_184606:400,-0.417389,-0.029968,-0.27301,-0.004824,-0.004231,0.000343,-35.75,-21.5,-18.5,3b
2019-07-15_184606:420,-0.417908,-0.030487,-0.272491,-0.00461,-0.0037119999999999996,0.000129,-35.75,-21.5,-18.5,3b
2019-07-15_184606:440,-0.42147799999999996,-0.030487,-0.275055,-0.004091,-0.003285,0.000129,-35.369999,-21.059998999999998,-19.0,3b
2019-07-15_184606:460,-0.41995200000000005,-0.029480000000000003,-0.279114,-0.003664,-0.002522,-5.4000000000000005e-05,-35.369999,-21.059998999999998,-19.0,3b
2019-07-15_184606:480,-0.417908,-0.027435,-0.280121,-0.0033280000000000002,-0.001912,6.8e-05,-35.0,-21.5,-19.0,3b
2019-07-15_184606:500,-0.417389,-0.026427999999999997,-0.280121,-0.00339,-0.001454,0.000465,-35.0,-21.5,-19.0,3b
2019-07-15_184606:520,-0.42147799999999996,-0.024902,-0.279633,-0.0032979999999999997,-0.001027,0.000496,-35.0,-21.5,-19.0,3b
2019-07-15_184606:540,-0.42147799999999996,-0.025421,-0.278595,-0.0034509999999999996,0.00022400000000000002,0.000404,-36.060001,-21.5,-19.370001000000002,3b
2019-07-15_184606:560,-0.417908,-0.026427999999999997,-0.278595,-0.00339,0.001415,7.000000000000001e-06,-36.060001,-21.5,-19.370001000000002,3b
2019-07-15_184606:580,-0.415375,-0.026917,-0.278595,-0.0032979999999999997,0.001994,7.000000000000001e-06,-35.75,-20.68,-19.0,3b
2019-07-15_184606:600,-0.411285,-0.026427999999999997,-0.276062,-0.003054,0.0024519999999999998,7.000000000000001e-06,-35.75,-20.68,-19.0,3b
2019-07-15_184606:620,-0.416901,-0.026427999999999997,-0.277588,-0.002779,0.002513,-5.4000000000000005e-05,-35.75,-20.68,-19.0,3b
2019-07-15_184606:640,-0.416901,-0.022858,-0.278595,-0.002657,0.003246,-0.00011499999999999999,-35.75,-21.75,-20.18,3b
2019-07-15_184606:660,-0.416901,-0.021851,-0.276062,-0.002779,0.003703,-0.000176,-35.75,-21.75,-20.18,3b
2019-07-15_184606:680,-0.417389,-0.020325,-0.275543,-0.003176,0.003917,0.000404,-35.369999,-21.5,-20.18,3b
2019-07-15_184606:700,-0.41842700000000005,-0.021851,-0.274017,-0.003664,0.0042829999999999995,0.0008619999999999999,-35.369999,-21.5,-20.18,3b
2019-07-15_184606:720,-0.41995200000000005,-0.023375999999999997,-0.273529,-0.004336,0.004771,0.00132,-35.369999,-21.5,-20.18,3b
2019-07-15_184606:740,-0.418915,-0.023375999999999997,-0.275055,-0.005007,0.004954999999999999,0.001564,-35.75,-21.5,-19.0,3b
2019-07-15_184606:760,-0.41995200000000005,-0.023895,-0.275055,-0.005678,0.005351,0.001716,-35.75,-21.5,-19.0,3b
2019-07-15_184606:780,-0.42248500000000005,-0.025908999999999998,-0.275543,-0.0058,0.005901,0.001777,-36.060001,-21.370001000000002,-19.68,3b
2019-07-15_184606:800,-0.423004,-0.027435,-0.272491,-0.005922,0.006572,0.000984,-36.060001,-21.370001000000002,-19.68,3b
2019-07-15_184606:820,-0.425537,-0.027954000000000003,-0.270477,-0.0058,0.007488,0.000465,-36.060001,-21.370001000000002,-19.68,3b
2019-07-15_184606:840,-0.429596,-0.028442000000000002,-0.271484,-0.005465,0.008891,0.000404,-35.75,-21.370001000000002,-18.18,3b
2019-07-15_184606:860,-0.434692,-0.027954000000000003,-0.272003,-0.005221,0.010997,0.000221,-35.75,-21.370001000000002,-18.18,3b
2019-07-15_184606:880,-0.432159,-0.025421,-0.268951,-0.005129,0.012737,0.000465,-36.060001,-21.68,-19.0,3b
2019-07-15_184606:900,-0.429596,-0.025421,-0.266388,-0.004793,0.014262,0.0007700000000000001,-36.060001,-21.68,-19.0,3b
2019-07-15_184606:920,-0.42858900000000005,-0.023895,-0.263855,-0.004488000000000001,0.015116999999999998,0.000343,-36.060001,-21.68,-19.0,3b
2019-07-15_184606:940,-0.42858900000000005,-0.024384,-0.260803,-0.004793,0.015788,0.0007700000000000001,-35.75,-21.370001000000002,-19.0,3b
2019-07-15_184606:960,-0.42807,-0.024902,-0.255707,-0.004824,0.015575,0.0021739999999999997,-35.75,-21.370001000000002,-19.0,3b
2019-07-15_184606:980,-0.43011499999999997,-0.025421,-0.254211,-0.005465,0.015727,0.001106,-36.060001,-22.059998999999998,-17.75,3b
2019-07-15_184607:000,-0.42758199999999996,-0.024902,-0.24758899999999998,-0.005221,0.01591,-0.0008470000000000001,-36.060001,-22.059998999999998,-17.75,3b
2019-07-15_184607:020,-0.421967,-0.025421,-0.245056,-0.004824,0.015575,-5.4000000000000005e-05,-36.060001,-22.059998999999998,-17.75,3b
2019-07-15_184607:040,-0.42401099999999997,-0.026427999999999997,-0.246063,-0.004793,0.014322999999999999,0.0007700000000000001,-36.869999,-21.370001000000002,-18.18,3b
2019-07-15_184607:060,-0.42858900000000005,-0.027435,-0.242004,-0.004336,0.013011000000000002,0.000496,-36.869999,-21.370001000000002,-18.18,3b
2019-07-15_184607:080,-0.42758199999999996,-0.029480000000000003,-0.23895300000000003,-0.003512,0.012279,0.000831,-38.0,-21.68,-16.5,3b
2019-07-15_184607:100,-0.430634,-0.026917,-0.23690799999999998,-0.0028399999999999996,0.011545999999999999,0.001258,-38.0,-21.68,-16.5,3b
2019-07-15_184607:120,-0.433655,-0.025421,-0.236389,-0.001986,0.011211,0.002113,-38.0,-21.68,-16.5,3b
2019-07-15_184607:140,-0.431122,-0.024902,-0.23284899999999997,-0.001467,0.010722,0.002784,-37.560001,-21.68,-16.5,3b
2019-07-15_184607:160,-0.43011499999999997,-0.023895,-0.231323,-0.001314,0.009623999999999999,0.0037,-37.560001,-21.68,-16.5,3b
2019-07-15_184607:180,-0.427063,-0.023895,-0.227753,-0.000918,0.008678,0.0043100000000000005,-36.869999,-21.5,-17.0,3b
2019-07-15_184607:200,-0.42401099999999997,-0.025421,-0.226746,-0.001375,0.00703,0.004036,-36.869999,-21.5,-17.0,3b
2019-07-15_184607:220,-0.426544,-0.026427999999999997,-0.22521999999999998,-0.0018030000000000001,0.004894,0.0043100000000000005,-36.869999,-21.5,-17.0,3b
2019-07-15_184607:240,-0.427063,-0.029968,-0.22164899999999998,-0.0021079999999999996,0.002849,0.003639,-36.5,-21.370001000000002,-16.18,3b
2019-07-15_184607:260,-0.426544,-0.032013,-0.21911599999999998,-0.002535,0.0012619999999999999,0.0021739999999999997,-36.5,-21.370001000000002,-16.18,3b
2019-07-15_184607:280,-0.42248500000000005,-0.036072,-0.217072,-0.002443,-0.0007830000000000001,0.001991,-37.560001,-21.370001000000002,-16.18,3b
2019-07-15_184607:300,-0.416382,-0.037598,-0.21759,-0.0021079999999999996,-0.0032240000000000003,0.00028199999999999997,-37.560001,-21.370001000000002,-16.18,3b
2019-07-15_184607:320,-0.423004,-0.034546,-0.230804,-0.001375,-0.006612000000000001,-0.0019760000000000003,-37.560001,-21.370001000000002,-16.18,3b
2019-07-15_184607:340,-0.410278,-0.039642000000000004,-0.21810900000000003,-0.000857,-0.009755,-0.003106,-37.560001,-20.18,-16.18,3b
2019-07-15_184607:360,-0.415375,-0.045745999999999995,-0.22164899999999998,0.000395,-0.014119,-0.004418,-37.560001,-20.18,-16.18,3b
2019-07-15_184607:380,-0.429108,-0.047791,-0.23690799999999998,0.0032630000000000003,-0.017842,-0.0064930000000000005,-36.869999,-20.18,-17.0,3b
2019-07-15_184607:400,-0.427063,-0.047791,-0.24096700000000001,0.006162,-0.019704,-0.009728,-36.869999,-20.18,-17.0,3b
2019-07-15_184607:420,-0.41485600000000006,-0.044739,-0.242493,0.009245,-0.020894,-0.011925,-36.869999,-20.18,-17.0,3b
2019-07-15_184607:440,-0.404175,-0.041687,-0.24963400000000002,0.012265999999999999,-0.022603,-0.013787,-36.5,-19.870001000000002,-17.370001000000002,3b
2019-07-15_184607:460,-0.382812,-0.037108999999999996,-0.250641,0.014524,-0.025868000000000002,-0.016777,-36.5,-19.870001000000002,-17.370001000000002,3b
2019-07-15_184607:480,-0.35943600000000003,-0.032532,-0.253693,0.016783000000000003,-0.030232,-0.019097,-36.5,-20.68,-18.5,3b
2019-07-15_184607:500,-0.35180700000000004,-0.026917,-0.278107,0.018705,-0.037831000000000004,-0.020043000000000002,-36.5,-20.68,-18.5,3b
2019-07-15_184607:520,-0.382324,-0.018799,-0.29895,0.019773,-0.047719,-0.020562,-36.5,-20.68,-18.5,3b
2019-07-15_184607:540,-0.418915,-0.011169,-0.308594,0.020597,-0.052022000000000006,-0.019097,-33.869999,-21.75,-19.370001000000002,3b
2019-07-15_184607:560,-0.429596,-0.005065999999999999,-0.310638,0.020444999999999998,-0.048573000000000005,-0.014794,-33.869999,-21.75,-19.370001000000002,3b
2019-07-15_184607:580,-0.434692,0.0,-0.316223,0.018308,-0.037404,-0.009331,-33.869999,-21.5,-22.870001000000002,3b
2019-07-15_184607:600,-0.42248500000000005,0.0,-0.321808,0.016538,-0.033253,-0.007744,-33.869999,-21.5,-22.870001000000002,3b
2019-07-15_184607:620,-0.395538,-0.0025329999999999997,-0.334534,0.010159999999999999,-0.0248,-0.004052,-33.869999,-21.5,-22.870001000000002,3b
2019-07-15_184607:640,-0.395538,-0.006592,-0.34368899999999997,0.005644,-0.022816,-0.00396,-33.060001,-21.75,-23.370001000000002,3b
2019-07-15_184607:660,-0.40823400000000004,-0.012177,-0.340118,0.0019210000000000002,-0.019948,-0.004418,-33.060001,-21.75,-23.370001000000002,3b
2019-07-15_184607:680,-0.411804,-0.016753999999999998,-0.345215,-0.000521,-0.014638,-0.004174000000000001,-32.0,-21.5,-25.68,3b
2019-07-15_184607:700,-0.401123,-0.024384,-0.344696,-0.002169,-0.009084,-0.004967,-32.0,-21.5,-25.68,3b
2019-07-15_184607:720,-0.39502,-0.025908999999999998,-0.34368899999999997,-0.0025960000000000002,-0.005818,-0.005303,-32.0,-21.5,-25.68,3b
2019-07-15_184607:740,-0.389435,-0.029480000000000003,-0.33605999999999997,-0.001772,-0.003834,-0.004509,-31.25,-21.059998999999998,-26.059998999999998,3b
2019-07-15_184607:760,-0.397583,-0.029480000000000003,-0.334534,-0.0006730000000000001,-0.001576,-0.003106,-31.25,-21.059998999999998,-26.059998999999998,3b
2019-07-15_184607:780,-0.395538,-0.027435,-0.326385,0.000608,0.001201,-0.000176,-31.0,-21.5,-26.059998999999998,3b
2019-07-15_184607:800,-0.386383,-0.024384,-0.317749,0.001524,0.00349,0.001442,-31.0,-21.5,-26.059998999999998,3b
2019-07-15_184607:820,-0.371643,-0.023375999999999997,-0.31369,0.001982,0.0041,0.001258,-31.0,-21.5,-26.059998999999998,3b
2019-07-15_184607:840,-0.367584,-0.021332,-0.312653,0.001737,0.0024519999999999998,0.0026320000000000002,-31.370001000000002,-21.75,-24.870001000000002,3b
2019-07-15_184607:860,-0.37112399999999995,-0.019806,-0.315704,0.001402,0.000468,0.004432,-31.370001000000002,-21.75,-24.870001000000002,3b
2019-07-15_184607:880,-0.378754,-0.01828,-0.313171,0.000395,-0.001179,0.005684000000000001,-31.559998999999998,-21.5,-25.370001000000002,3b
2019-07-15_184607:900,-0.35943600000000003,-0.016753999999999998,-0.311646,-0.000857,-0.001698,0.006813,-31.559998999999998,-21.5,-25.370001000000002,3b
2019-07-15_184607:920,-0.377228,-0.016753999999999998,-0.32486,-0.002779,-0.0037119999999999996,0.0061719999999999995,-31.559998999999998,-21.5,-25.370001000000002,3b
2019-07-15_184607:940,-0.37011700000000003,-0.014221000000000001,-0.327423,-0.005465,-0.0046890000000000005,0.0053479999999999995,-30.870001000000002,-21.0,-25.559998999999998,3b
2019-07-15_184607:960,-0.374695,-0.015747,-0.33300799999999997,-0.007784,-0.006154,0.004493,-30.870001000000002,-21.0,-25.559998999999998,3b
2019-07-15_184607:980,-0.40011599999999997,-0.022369,-0.330963,-0.009737,-0.005299,0.0038829999999999997,-30.870001000000002,-21.0,-26.059998999999998,3b
2019-07-15_184608:000,-0.40368699999999996,-0.022858,-0.339111,-0.011170999999999999,-0.001393,0.0043100000000000005,-30.870001000000002,-21.0,-26.059998999999998,3b
2019-07-15_184608:020,-0.37674,-0.028961,-0.340118,-0.011995,0.001537,0.004646,-30.870001000000002,-21.0,-26.059998999999998,3b
2019-07-15_184608:040,-0.369598,-0.031006,-0.33605999999999997,-0.01166,0.001628,0.0055,-30.559998999999998,-20.559998999999998,-26.5,3b
2019-07-15_184608:060,-0.380798,-0.028961,-0.327911,-0.011507,0.003093,0.005684000000000001,-30.559998999999998,-20.559998999999998,-26.5,3b
2019-07-15_184608:080,-0.381805,-0.025421,-0.325897,-0.012057,0.004375,0.005287,-32.0,-21.75,-24.870001000000002,3b
2019-07-15_184608:100,-0.37265,-0.028442000000000002,-0.330475,-0.012514,0.003825,0.004829,-32.0,-21.75,-24.870001000000002,3b
2019-07-15_184608:120,-0.364532,-0.028961,-0.331482,-0.012636,0.002574,0.003822,-32.0,-21.75,-24.870001000000002,3b
2019-07-15_184608:140,-0.370636,-0.030487,-0.33197,-0.012514,0.0014759999999999999,0.0033640000000000002,-30.75,-21.0,-25.18,3b
2019-07-15_184608:160,-0.375702,-0.030487,-0.336548,-0.012240000000000001,0.001018,0.003181,-30.75,-21.0,-25.18,3b
2019-07-15_184608:180,-0.374695,-0.029968,-0.34265100000000004,-0.011385,0.000865,0.00309,-31.5,-21.370001000000002,-25.25,3b
2019-07-15_184608:200,-0.377747,-0.029968,-0.338593,-0.010134,0.001537,0.002388,-31.5,-21.370001000000002,-25.25,3b
2019-07-15_184608:220,-0.375214,-0.029968,-0.335022,-0.009524,0.002513,0.002052,-31.5,-21.370001000000002,-25.25,3b
2019-07-15_184608:240,-0.375702,-0.029968,-0.334534,-0.009004999999999999,0.003032,0.0022960000000000003,-30.75,-21.0,-25.559998999999998,3b
2019-07-15_184608:260,-0.384338,-0.028961,-0.330963,-0.008791,0.003917,0.002388,-30.75,-21.0,-25.559998999999998,3b
2019-07-15_184608:280,-0.37674,-0.024902,-0.327911,-0.00873,0.00471,0.001503,-31.559998999999998,-21.0,-26.0,3b
2019-07-15_184608:300,-0.377747,-0.020844,-0.326904,-0.009004999999999999,0.006023,0.001228,-31.559998999999998,-21.0,-26.0,3b
2019-07-15_184608:320,-0.37674,-0.019318000000000002,-0.32995599999999997,-0.009646,0.006175,0.000923,-31.559998999999998,-21.0,-26.0,3b
2019-07-15_184608:340,-0.377228,-0.019318000000000002,-0.328949,-0.010439,0.005443,0.000709,-31.25,-21.68,-24.75,3b
2019-07-15_184608:360,-0.376221,-0.016266,-0.32486,-0.01111,0.005107,0.000831,-31.25,-21.68,-24.75,3b
2019-07-15_184608:380,-0.37674,-0.017273,-0.322845,-0.011995,0.004497,0.000465,-32.0,-21.370001000000002,-24.0,3b
2019-07-15_184608:400,-0.373688,-0.016266,-0.318268,-0.012697,0.003917,0.001625,-32.0,-21.370001000000002,-24.0,3b
2019-07-15_184608:420,-0.387909,-0.015747,-0.322845,-0.013368999999999999,0.005016,0.002571,-32.0,-21.370001000000002,-24.0,3b
2019-07-15_184608:440,-0.386902,-0.016266,-0.32843,-0.013765000000000001,0.00648,0.001838,-30.559998999999998,-22.059998999999998,-24.370001000000002,3b
2019-07-15_184608:460,-0.382812,-0.018799,-0.32995599999999997,-0.013643,0.007701,0.001625,-30.559998999999998,-22.059998999999998,-24.370001000000002,3b
2019-07-15_184608:480,-0.379791,-0.018799,-0.32995599999999997,-0.013308,0.008403,0.001716,-32.0,-22.5,-24.5,3b
2019-07-15_184608:500,-0.378265,-0.019318000000000002,-0.326385,-0.012758,0.008678,0.00196,-32.0,-22.5,-24.5,3b
2019-07-15_184608:520,-0.38385,-0.01828,-0.324371,-0.011904000000000001,0.009073999999999999,0.0026320000000000002,-32.0,-22.5,-24.5,3b
2019-07-15_184608:540,-0.381805,-0.018799,-0.322845,-0.011049,0.009349,0.0029059999999999997,-31.25,-22.5,-24.5,3b
2019-07-15_184608:560,-0.381317,-0.018799,-0.317749,-0.010317,0.009349,0.002754,-31.25,-22.5,-24.5,3b
2019-07-15_184608:580,-0.382324,-0.020325,-0.31723,-0.009127,0.0088,0.003151,-33.060001,-22.5,-23.370001000000002,3b
2019-07-15_184608:600,-0.381805,-0.025421,-0.309601,-0.007876000000000001,0.008434,0.002388,-33.060001,-22.5,-23.370001000000002,3b
2019-07-15_184608:620,-0.385864,-0.025908999999999998,-0.31012,-0.006258,0.007488,0.00028199999999999997,-33.060001,-22.5,-23.370001000000002,3b
2019-07-15_184608:640,-0.386383,-0.024902,-0.308075,-0.004336,0.0069689999999999995,-0.000267,-32.75,-22.5,-22.5,3b
2019-07-15_184608:660,-0.384338,-0.022369,-0.30249000000000004,-0.0025050000000000003,0.005901,0.001045,-32.75,-22.5,-22.5,3b
2019-07-15_184608:680,-0.378754,-0.020844,-0.304016,-0.00165,0.004161,0.001442,-33.060001,-22.059998999999998,-23.370001000000002,3b
2019-07-15_184608:700,-0.37112399999999995,-0.015747,-0.305054,-0.00107,0.001598,0.002113,-33.060001,-22.059998999999998,-23.370001000000002,3b
2019-07-15_184608:720,-0.374695,-0.012695,-0.306061,-0.0009789999999999998,-0.0008439999999999999,0.002754,-33.060001,-22.059998999999998,-23.370001000000002,3b
2019-07-15_184608:740,-0.381805,-0.012177,-0.311127,-0.00165,-0.002095,0.002754,-33.060001,-22.870001000000002,-22.5,3b
2019-07-15_184608:760,-0.386383,-0.012177,-0.311127,-0.001925,-0.0024920000000000003,0.002693,-33.060001,-22.870001000000002,-22.5,3b
2019-07-15_184608:780,-0.393005,-0.014221000000000001,-0.316223,-0.002443,-0.002034,0.0029059999999999997,-32.75,-22.870001000000002,-22.5,3b
2019-07-15_184608:800,-0.39502,-0.013213999999999998,-0.320282,-0.002779,-0.0008439999999999999,0.003517,-32.75,-22.870001000000002,-22.5,3b
2019-07-15_184608:820,-0.39502,-0.012177,-0.320801,-0.0031149999999999997,-0.000172,0.003822,-32.75,-22.870001000000002,-22.5,3b
2019-07-15_184608:840,-0.396545,-0.010651,-0.317749,-0.003237,0.000346,0.003913000000000001,-32.0,-22.5,-23.370001000000002,3b
2019-07-15_184608:860,-0.395538,-0.007111,-0.314178,-0.004275,0.0014759999999999999,0.005622,-32.0,-22.5,-23.370001000000002,3b
2019-07-15_184608:880,-0.392487,-0.006072999999999999,-0.314178,-0.005007,0.0017809999999999998,0.005958,-32.369999,-21.68,-23.68,3b
2019-07-15_184608:900,-0.389435,-0.0055850000000000006,-0.312653,-0.007601,0.001842,0.007484,-32.369999,-21.68,-23.68,3b
2019-07-15_184608:920,-0.386902,-0.006072999999999999,-0.311646,-0.009737,0.001353,0.008339,-32.369999,-21.68,-23.68,3b
2019-07-15_184608:940,-0.38739,-0.008118,-0.313171,-0.011781999999999999,0.001201,0.008551999999999999,-33.060001,-22.059998999999998,-23.68,3b
2019-07-15_184608:960,-0.388428,-0.011169,-0.312164,-0.013491,0.0014759999999999999,0.009132,-33.060001,-22.059998999999998,-23.68,3b
2019-07-15_184608:980,-0.388916,-0.016753999999999998,-0.314697,-0.014315000000000001,0.002239,0.008888,-32.369999,-21.68,-24.18,3b
2019-07-15_184609:000,-0.388428,-0.022369,-0.31723,-0.014223,0.002757,0.008461,-32.369999,-21.68,-24.18,3b
2019-07-15_184609:020,-0.384338,-0.023895,-0.31723,-0.013888,0.002757,0.0084,-32.369999,-21.68,-24.18,3b
2019-07-15_184609:040,-0.38385,-0.025421,-0.31723,-0.013308,0.002696,0.0084,-33.060001,-21.68,-22.870001000000002,3b
2019-07-15_184609:060,-0.381805,-0.023895,-0.315704,-0.011720999999999999,0.0024519999999999998,0.008278,-33.060001,-21.68,-22.870001000000002,3b
2019-07-15_184609:080,-0.38385,-0.023895,-0.317749,-0.011323999999999999,0.002177,0.008003,-33.060001,-22.5,-22.870001000000002,3b
2019-07-15_184609:100,-0.385864,-0.023895,-0.31723,-0.010103000000000001,0.001994,0.007698,-33.060001,-22.5,-22.870001000000002,3b
2019-07-15_184609:120,-0.386383,-0.021851,-0.31723,-0.009706999999999999,0.002055,0.0073620000000000005,-33.060001,-22.5,-22.870001000000002,3b
2019-07-15_184609:140,-0.386383,-0.020325,-0.31723,-0.009706999999999999,0.002116,0.007087,-34.25,-21.68,-22.870001000000002,3b
2019-07-15_184609:160,-0.382324,-0.023375999999999997,-0.312164,-0.009463,0.0019030000000000002,0.006874,-34.25,-21.68,-22.870001000000002,3b
2019-07-15_184609:180,-0.380798,-0.021851,-0.315216,-0.009585,0.001537,0.006813,-33.5,-21.68,-20.870001000000002,3b
2019-07-15_184609:200,-0.381805,-0.023375999999999997,-0.315704,-0.009401000000000001,0.001201,0.006294,-33.5,-21.68,-20.870001000000002,3b
2019-07-15_184609:220,-0.382812,-0.024384,-0.31723,-0.009524,0.0010789999999999999,0.005958,-33.5,-21.68,-20.870001000000002,3b
2019-07-15_184609:240,-0.382324,-0.025421,-0.318268,-0.009340000000000001,0.000865,0.005561,-33.869999,-21.370001000000002,-21.68,3b
2019-07-15_184609:260,-0.381805,-0.028442000000000002,-0.318756,-0.008851999999999999,0.000682,0.004219,-33.869999,-21.370001000000002,-21.68,3b
2019-07-15_184609:280,-0.388916,-0.025908999999999998,-0.322327,-0.00873,0.000621,0.003639,-33.5,-21.75,-22.5,3b
2019-07-15_184609:300,-0.391968,-0.028442000000000002,-0.322845,-0.007937,0.00172,0.002693,-33.5,-21.75,-22.5,3b
2019-07-15_184609:320,-0.388428,-0.026427999999999997,-0.320282,-0.007540000000000001,0.002696,0.00251,-33.5,-21.75,-22.5,3b
2019-07-15_184609:340,-0.385864,-0.025421,-0.321808,-0.007265000000000001,0.003124,0.002388,-33.5,-21.370001000000002,-21.68,3b
2019-07-15_184609:360,-0.38385,-0.025908999999999998,-0.318268,-0.006594,0.0031850000000000003,0.001655,-33.5,-21.370001000000002,-21.68,3b
2019-07-15_184609:380,-0.382324,-0.025421,-0.31723,-0.006533,0.0031850000000000003,0.001625,-33.869999,-21.68,-22.5,3b
2019-07-15_184609:400,-0.378265,-0.026917,-0.314697,-0.005953,0.0023,0.001716,-33.869999,-21.68,-22.5,3b
2019-07-15_184609:420,-0.37265,-0.026427999999999997,-0.316223,-0.005526,0.001292,0.001258,-33.869999,-21.68,-22.5,3b
2019-07-15_184609:440,-0.36911,-0.027435,-0.31723,-0.005129,0.000285,0.000709,-33.5,-21.0,-22.5,3b
2019-07-15_184609:460,-0.36654699999999996,-0.024384,-0.315704,-0.004152,-0.003163,-0.00023700000000000001,-33.5,-21.0,-22.5,3b
2019-07-15_184609:480,-0.369598,-0.022369,-0.314697,-0.003817,-0.004231,7.000000000000001e-06,-34.560001,-20.559998999999998,-20.5,3b
2019-07-15_184609:500,-0.374695,-0.022369,-0.312653,-0.0034509999999999996,-0.006490000000000001,-0.000176,-34.560001,-20.559998999999998,-20.5,3b
2019-07-15_184609:520,-0.384857,-0.019318000000000002,-0.314178,-0.003237,-0.007161,-0.000389,-34.560001,-20.559998999999998,-20.5,3b
2019-07-15_184609:540,-0.39859,-0.018799,-0.316742,-0.003237,-0.006490000000000001,-0.000634,-33.5,-21.75,-22.5,3b
2019-07-15_184609:560,-0.401642,-0.017273,-0.324371,-0.003573,-0.002156,-0.0010609999999999999,-33.5,-21.75,-22.5,3b
2019-07-15_184609:580,-0.40063499999999996,-0.01828,-0.326385,-0.003817,-0.0009050000000000001,-0.001183,-33.5,-21.75,-22.5,3b
2019-07-15_184609:600,-0.39502,-0.019806,-0.326904,-0.004397,0.002361,-0.0010609999999999999,-33.5,-22.059998999999998,-21.68,3b
2019-07-15_184609:620,-0.393494,-0.019806,-0.323853,-0.004671,0.003978,-0.001519,-33.5,-22.059998999999998,-21.68,3b
2019-07-15_184609:640,-0.390442,-0.019318000000000002,-0.322845,-0.004427,0.0045579999999999996,-0.00158,-33.5,-21.68,-21.68,3b
2019-07-15_184609:660,-0.38739,-0.019318000000000002,-0.319794,-0.003512,0.005686999999999999,-0.000389,-33.5,-21.68,-21.68,3b
2019-07-15_184609:680,-0.381805,-0.01828,-0.317749,-0.0033280000000000002,0.005779,-0.000512,-33.869999,-21.370001000000002,-22.18,3b
2019-07-15_184609:700,-0.384338,-0.015228,-0.319275,-0.002932,0.005412,-0.0011220000000000002,-33.869999,-21.370001000000002,-22.18,3b
2019-07-15_184609:720,-0.388916,-0.013702,-0.318756,-0.00339,0.005443,-0.000267,-33.869999,-21.370001000000002,-22.18,3b
2019-07-15_184609:740,-0.387909,-0.013213999999999998,-0.317749,-0.003664,0.00584,-0.000328,-33.869999,-22.059998999999998,-22.18,3b
2019-07-15_184609:760,-0.38739,-0.013702,-0.315704,-0.004091,0.006633,-0.000267,-33.869999,-22.059998999999998,-22.18,3b
2019-07-15_184609:780,-0.386383,-0.014221000000000001,-0.315216,-0.004336,0.006816,7.000000000000001e-06,-34.25,-21.370001000000002,-21.68,3b
2019-07-15_184609:800,-0.390442,-0.014221000000000001,-0.312653,-0.004732,0.0071519999999999995,0.00016,-34.25,-21.370001000000002,-21.68,3b
2019-07-15_184609:820,-0.388916,-0.015747,-0.311646,-0.004671,0.007091,0.000496,-34.25,-21.370001000000002,-21.68,3b
2019-07-15_184609:840,-0.38739,-0.015228,-0.312164,-0.00461,0.0071519999999999995,0.000526,-33.869999,-22.059998999999998,-22.18,3b
2019-07-15_184609:860,-0.388916,-0.016266,-0.307068,-0.004427,0.006541,0.0008619999999999999,-33.869999,-22.059998999999998,-22.18,3b
2019-07-15_184609:880,-0.385864,-0.016266,-0.308594,-0.004488000000000001,0.006175,0.0008619999999999999,-33.869999,-22.059998999999998,-22.18,3b
2019-07-15_184609:900,-0.384338,-0.017792,-0.31012,-0.004275,0.005107,0.001106,-34.25,-22.059998999999998,-22.18,3b
2019-07-15_184609:920,-0.384857,-0.017273,-0.308594,-0.004,0.004649,0.000923,-34.25,-22.059998999999998,-22.18,3b
2019-07-15_184609:940,-0.386902,-0.01828,-0.308594,-0.003939,0.004314,0.0008619999999999999,-33.869999,-22.059998999999998,-21.0,3b
2019-07-15_184609:960,-0.389954,-0.018799,-0.310638,-0.0036950000000000004,0.0036420000000000003,0.001106,-33.869999,-22.059998999999998,-21.0,3b
2019-07-15_184609:980,-0.389435,-0.017273,-0.310638,-0.003664,0.0036420000000000003,0.00132,-34.560001,-21.68,-21.68,3b
2019-07-15_184610:000,-0.388916,-0.01828,-0.311646,-0.003664,0.003307,0.001625,-34.560001,-21.68,-21.68,3b
2019-07-15_184610:020,-0.388916,-0.018799,-0.311646,-0.003664,0.002849,0.001625,-34.560001,-21.68,-21.68,3b
2019-07-15_184610:040,-0.394531,-0.01828,-0.320801,-0.003817,0.003032,0.001716,-33.869999,-21.68,-20.870001000000002,3b
2019-07-15_184610:060,-0.38739,-0.017792,-0.301483,-0.004397,0.003307,0.001777,-33.869999,-21.68,-20.870001000000002,3b
2019-07-15_184610:080,-0.388916,-0.018799,-0.301483,-0.00461,0.002696,0.001838,-33.869999,-21.68,-20.870001000000002,3b
2019-07-15_184610:100,-0.389435,-0.017792,-0.304016,-0.004549,0.0017809999999999998,0.00196,-34.25,-21.68,-21.370001000000002,3b
2019-07-15_184610:120,-0.391968,-0.01828,-0.307068,-0.0048850000000000005,0.001964,0.0022960000000000003,-34.25,-21.68,-21.370001000000002,3b
2019-07-15_184610:140,-0.393005,-0.017792,-0.307587,-0.005007,0.001964,0.003151,-34.25,-21.68,-21.68,3b
2019-07-15_184610:160,-0.387909,-0.020325,-0.30654899999999996,-0.0051600000000000005,0.001842,0.003181,-34.25,-21.68,-21.68,3b
2019-07-15_184610:180,-0.386902,-0.018799,-0.305542,-0.005556,0.0014759999999999999,0.002571,-34.25,-21.68,-21.68,3b
2019-07-15_184610:200,-0.385864,-0.018799,-0.305542,-0.005678,0.0009570000000000001,0.002967,-35.0,-21.370001000000002,-20.870001000000002,3b
2019-07-15_184610:220,-0.38385,-0.01828,-0.306061,-0.006014,0.000468,0.003761,-35.0,-21.370001000000002,-20.870001000000002,3b
2019-07-15_184610:240,-0.386383,-0.01828,-0.308594,-0.006594,-0.000172,0.003486,-35.0,-21.370001000000002,-20.870001000000002,3b
2019-07-15_184610:260,-0.385864,-0.017273,-0.308075,-0.006991,-0.0005690000000000001,0.0022960000000000003,-35.0,-21.370001000000002,-20.870001000000002,3b
2019-07-15_184610:280,-0.388428,-0.020844,-0.311646,-0.0069299999999999995,-0.0005690000000000001,0.002357,-35.0,-21.370001000000002,-20.870001000000002,3b
2019-07-15_184610:300,-0.388916,-0.021332,-0.314697,-0.007051999999999999,-0.00063,0.002388,-33.5,-21.68,-22.5,3b
2019-07-15_184610:320,-0.390442,-0.020844,-0.314697,-0.006869,-0.000233,0.002052,-33.5,-21.68,-22.5,3b
2019-07-15_184610:340,-0.390961,-0.019318000000000002,-0.314697,-0.006594,7.2e-05,0.001503,-34.25,-22.059998999999998,-21.68,3b
2019-07-15_184610:360,-0.391968,-0.018799,-0.314178,-0.006197,0.000865,0.00132,-34.25,-22.059998999999998,-21.68,3b
2019-07-15_184610:380,-0.391479,-0.017273,-0.313171,-0.006197,0.001353,0.00132,-34.25,-22.059998999999998,-21.68,3b
2019-07-15_184610:400,-0.391479,-0.017273,-0.31369,-0.006075,0.0016589999999999999,0.0008619999999999999,-35.0,-21.68,-20.5,3b
2019-07-15_184610:420,-0.392487,-0.017792,-0.315216,-0.006197,0.002116,0.001045,-35.0,-21.68,-20.5,3b
2019-07-15_184610:440,-0.394012,-0.019318000000000002,-0.314697,-0.006075,0.002574,0.000831,-34.25,-21.68,-20.5,3b
2019-07-15_184610:460,-0.393494,-0.017273,-0.309113,-0.005678,0.0031850000000000003,0.000709,-34.25,-21.68,-20.5,3b
2019-07-15_184610:480,-0.395538,-0.018799,-0.310638,-0.005068,0.0036420000000000003,0.001167,-34.25,-21.68,-20.5,3b
2019-07-15_184610:500,-0.39502,-0.017273,-0.311646,-0.004946,0.0041,0.0007700000000000001,-34.560001,-21.370001000000002,-21.370001000000002,3b
2019-07-15_184610:520,-0.39502,-0.016266,-0.311127,-0.004488000000000001,0.0042829999999999995,0.00132,-34.560001,-21.370001000000002,-21.370001000000002,3b
2019-07-15_184610:540,-0.395538,-0.017273,-0.311127,-0.004275,0.004436,0.002235,-34.25,-21.370001000000002,-22.5,3b
2019-07-15_184610:560,-0.391968,-0.016753999999999998,-0.305542,-0.004488000000000001,0.004833,0.0026320000000000002,-34.25,-21.370001000000002,-22.5,3b
2019-07-15_184610:580,-0.386902,-0.017273,-0.305054,-0.004732,0.004894,0.002784,-34.25,-21.370001000000002,-22.5,3b
2019-07-15_184610:600,-0.386383,-0.017792,-0.305054,-0.004946,0.004222,0.002784,-34.25,-21.68,-19.68,3b
2019-07-15_184610:620,-0.382812,-0.019806,-0.304016,-0.005343,0.00349,0.0026320000000000002,-34.25,-21.68,-19.68,3b
2019-07-15_184610:640,-0.38739,-0.020844,-0.306061,-0.005526,0.0023,0.002052,-35.369999,-21.370001000000002,-20.18,3b
2019-07-15_184610:660,-0.390442,-0.021851,-0.305542,-0.005739,0.001292,0.001106,-35.369999,-21.370001000000002,-20.18,3b
2019-07-15_184610:680,-0.394531,-0.022369,-0.304535,-0.0056170000000000005,0.0010789999999999999,0.000526,-35.369999,-21.370001000000002,-20.18,3b
2019-07-15_184610:700,-0.394012,-0.023375999999999997,-0.305542,-0.0051600000000000005,0.001537,0.000129,-33.869999,-21.0,-20.18,3b
2019-07-15_184610:720,-0.396545,-0.020325,-0.308075,-0.004488000000000001,0.001537,0.000343,-33.869999,-21.0,-20.18,3b
2019-07-15_184610:740,-0.394531,-0.017792,-0.308075,-0.004336,0.0016589999999999999,0.000587,-35.0,-21.68,-20.870001000000002,3b
2019-07-15_184610:760,-0.393005,-0.016266,-0.308594,-0.004275,0.0019030000000000002,0.000831,-35.0,-21.68,-20.870001000000002,3b
2019-07-15_184610:780,-0.390442,-0.016266,-0.309113,-0.004793,0.0014759999999999999,0.001716,-35.0,-21.68,-20.870001000000002,3b
2019-07-15_184610:800,-0.390442,-0.016753999999999998,-0.308075,-0.005007,0.001598,0.001991,-35.0,-21.370001000000002,-21.0,3b
2019-07-15_184610:820,-0.393494,-0.017273,-0.308594,-0.006075,0.0016589999999999999,0.002388,-35.0,-21.370001000000002,-21.0,3b
2019-07-15_184610:840,-0.393005,-0.017792,-0.307068,-0.006533,0.001994,0.002388,-34.560001,-21.68,-21.370001000000002,3b
2019-07-15_184610:860,-0.393005,-0.017273,-0.306061,-0.006869,0.002239,0.002449,-34.560001,-21.68,-21.370001000000002,3b
2019-07-15_184610:880,-0.393005,-0.015747,-0.307068,-0.007448000000000001,0.0023,0.0026320000000000002,-34.560001,-21.68,-21.370001000000002,3b
2019-07-15_184610:900,-0.391968,-0.016753999999999998,-0.306061,-0.007998,0.002177,0.002784,-33.869999,-21.0,-20.5,3b
2019-07-15_184610:920,-0.390961,-0.016266,-0.307068,-0.008333,0.001994,0.003151,-33.869999,-21.0,-20.5,3b
2019-07-15_184610:940,-0.394531,-0.01828,-0.305542,-0.008791,0.001537,0.003517,-35.0,-21.68,-20.5,3b
2019-07-15_184610:960,-0.394012,-0.018799,-0.305542,-0.009066,0.001994,0.0037,-35.0,-21.68,-20.5,3b
2019-07-15_184610:980,-0.394012,-0.018799,-0.308594,-0.009127,0.001964,0.003822,-35.0,-21.68,-20.5,3b
2019-07-15_184611:000,-0.39502,-0.019318000000000002,-0.308075,-0.008851999999999999,0.002574,0.003639,-36.060001,-21.370001000000002,-20.5,3b
2019-07-15_184611:020,-0.390961,-0.01828,-0.308075,-0.009249,0.002635,0.003425,-36.060001,-21.370001000000002,-20.5,3b
2019-07-15_184611:040,-0.388428,-0.016266,-0.308594,-0.009066,0.002177,0.004371,-35.75,-21.370001000000002,-19.75,3b
2019-07-15_184611:060,-0.38739,-0.016266,-0.30654899999999996,-0.009309999999999999,0.001628,0.004097,-35.75,-21.370001000000002,-19.75,3b
2019-07-15_184611:080,-0.390442,-0.017792,-0.309601,-0.009309999999999999,0.001201,0.002967,-35.75,-21.370001000000002,-19.75,3b
2019-07-15_184611:100,-0.391479,-0.018799,-0.309113,-0.008912999999999999,0.000346,0.002052,-34.560001,-22.18,-20.18,3b
2019-07-15_184611:120,-0.393494,-0.018799,-0.308594,-0.008181,0.000743,0.002754,-34.560001,-22.18,-20.18,3b
2019-07-15_184611:140,-0.397064,-0.017792,-0.306061,-0.007723000000000001,0.0010789999999999999,0.003425,-35.0,-21.370001000000002,-19.370001000000002,3b
2019-07-15_184611:160,-0.389435,-0.015747,-0.306061,-0.007265000000000001,0.001598,0.003517,-35.0,-21.370001000000002,-19.370001000000002,3b
2019-07-15_184611:180,-0.388916,-0.013213999999999998,-0.30654899999999996,-0.007326000000000001,0.001415,0.003822,-35.0,-21.370001000000002,-19.370001000000002,3b
2019-07-15_184611:200,-0.389954,-0.014740000000000001,-0.308594,-0.007815,0.0009570000000000001,0.004097,-35.0,-21.68,-19.0,3b
2019-07-15_184611:220,-0.390961,-0.015228,-0.307587,-0.00812,0.000682,0.004493,-35.0,-21.68,-19.0,3b
2019-07-15_184611:240,-0.390961,-0.016753999999999998,-0.309113,-0.008454999999999999,0.000621,0.004554,-35.0,-21.5,-19.75,3b
2019-07-15_184611:260,-0.39502,-0.019318000000000002,-0.31012,-0.008516,0.0008960000000000001,0.003975,-35.0,-21.5,-19.75,3b
2019-07-15_184611:280,-0.395538,-0.020325,-0.311646,-0.008394,0.001292,0.003425,-35.0,-21.5,-19.75,3b
2019-07-15_184611:300,-0.395538,-0.020844,-0.311127,-0.008272,0.0019030000000000002,0.00309,-35.369999,-21.5,-20.18,3b
2019-07-15_184611:320,-0.395538,-0.020844,-0.311127,-0.008059,0.0024519999999999998,0.002357,-35.369999,-21.5,-20.18,3b
2019-07-15_184611:340,-0.393005,-0.020844,-0.31012,-0.007876000000000001,0.003093,0.000923,-34.560001,-21.370001000000002,-20.18,3b
2019-07-15_184611:360,-0.391968,-0.019806,-0.309113,-0.007265000000000001,0.0029100000000000003,0.000648,-34.560001,-21.370001000000002,-20.18,3b
2019-07-15_184611:380,-0.389954,-0.019318000000000002,-0.307587,-0.006869,0.003368,0.000648,-34.560001,-21.370001000000002,-20.18,3b
2019-07-15_184611:400,-0.390442,-0.01828,-0.307587,-0.006807,0.003124,0.000221,-35.75,-21.0,-20.18,3b
2019-07-15_184611:420,-0.388916,-0.017273,-0.308075,-0.006533,0.003093,0.000129,-35.75,-21.0,-20.18,3b
2019-07-15_184611:440,-0.390442,-0.017792,-0.308075,-0.006014,0.002391,-0.000389,-34.25,-21.370001000000002,-20.18,3b
2019-07-15_184611:460,-0.393005,-0.016266,-0.308594,-0.0058,0.002116,-0.000908,-34.25,-21.370001000000002,-20.18,3b
2019-07-15_184611:480,-0.393494,-0.013702,-0.308075,-0.005556,0.002696,-0.0009689999999999999,-34.25,-21.370001000000002,-20.18,3b
2019-07-15_184611:500,-0.394012,-0.012695,-0.309113,-0.005404,0.002849,-0.000725,-35.369999,-21.370001000000002,-20.18,3b
2019-07-15_184611:520,-0.392487,-0.010651,-0.307587,-0.005221,0.0031850000000000003,-0.0011220000000000002,-35.369999,-21.370001000000002,-20.18,3b
2019-07-15_184611:540,-0.391968,-0.010162000000000001,-0.308075,-0.005282,0.003246,-0.001397,-35.0,-20.559998999999998,-19.370001000000002,3b
2019-07-15_184611:560,-0.391968,-0.009125,-0.307587,-0.0051600000000000005,0.0031850000000000003,-0.0013050000000000002,-35.0,-20.559998999999998,-19.370001000000002,3b
2019-07-15_184611:580,-0.393494,-0.008636,-0.308075,-0.005404,0.003246,-0.0013050000000000002,-35.0,-20.559998999999998,-19.370001000000002,3b
2019-07-15_184611:600,-0.393494,-0.008118,-0.30654899999999996,-0.005282,0.003032,-0.0012439999999999999,-35.369999,-22.059998999999998,-19.559998999999998,3b
2019-07-15_184611:620,-0.393494,-0.009125,-0.306061,-0.005343,0.003246,-0.000725,-35.369999,-22.059998999999998,-19.559998999999998,3b
2019-07-15_184611:640,-0.394531,-0.010651,-0.305542,-0.004946,0.003032,7.000000000000001e-06,-35.0,-21.370001000000002,-19.0,3b
2019-07-15_184611:660,-0.39502,-0.010651,-0.304016,-0.004549,0.0031850000000000003,0.000404,-35.0,-21.370001000000002,-19.0,3b
2019-07-15_184611:680,-0.393494,-0.010162000000000001,-0.306061,-0.004091,0.003093,0.0007700000000000001,-35.0,-21.370001000000002,-19.0,3b
2019-07-15_184611:700,-0.396057,-0.009644,-0.306061,-0.003817,0.003124,0.001045,-35.75,-22.059998999999998,-18.5,3b
2019-07-15_184611:720,-0.397064,-0.010651,-0.305542,-0.0037560000000000002,0.003124,0.001228,-35.75,-22.059998999999998,-18.5,3b
2019-07-15_184611:740,-0.395538,-0.011169,-0.306061,-0.003817,0.003703,0.001045,-35.75,-21.68,-19.0,3b
2019-07-15_184611:760,-0.397583,-0.010162000000000001,-0.305542,-0.003878,0.003764,0.000831,-35.75,-21.68,-19.0,3b
2019-07-15_184611:780,-0.398071,-0.010162000000000001,-0.304016,-0.004152,0.0041,0.000923,-35.75,-21.68,-19.0,3b
2019-07-15_184611:800,-0.39859,-0.010651,-0.30300900000000003,-0.004091,0.003978,0.000587,-34.560001,-21.370001000000002,-19.370001000000002,3b
2019-07-15_184611:820,-0.397583,-0.011169,-0.300476,-0.00403,0.004039,6.8e-05,-34.560001,-21.370001000000002,-19.370001000000002,3b
2019-07-15_184611:840,-0.396057,-0.010651,-0.29943800000000004,-0.00403,0.004161,0.001167,-35.0,-22.5,-19.75,3b
2019-07-15_184611:860,-0.398071,-0.012695,-0.298431,-0.004091,0.003978,0.001625,-35.0,-22.5,-19.75,3b
2019-07-15_184611:880,-0.398071,-0.011687999999999999,-0.300476,-0.004213000000000001,0.003825,0.000648,-35.0,-22.5,-19.75,3b
2019-07-15_184611:900,-0.399109,-0.013213999999999998,-0.301483,-0.003817,0.003886,-0.000634,-35.75,-21.370001000000002,-19.0,3b
2019-07-15_184611:920,-0.399597,-0.012177,-0.300964,-0.00339,0.0042829999999999995,-0.0008470000000000001,-35.75,-21.370001000000002,-19.0,3b
2019-07-15_184611:940,-0.39859,-0.012177,-0.301483,-0.0029010000000000004,0.0042829999999999995,-5.4000000000000005e-05,-35.0,-21.68,-18.5,3b
2019-07-15_184611:960,-0.40011599999999997,-0.011687999999999999,-0.29895,-0.002443,0.004619,7.000000000000001e-06,-35.0,-21.68,-18.5,3b
2019-07-15_184611:980,-0.399109,-0.008636,-0.297913,-0.002443,0.004833,-0.000176,-35.0,-21.68,-18.5,3b
2019-07-15_184612:000,-0.39859,-0.008118,-0.29895,-0.002535,0.005046,-0.00023700000000000001,-35.75,-21.68,-18.18,3b
2019-07-15_184612:020,-0.398071,-0.010162000000000001,-0.29742399999999997,-0.0029010000000000004,0.005046,6.8e-05,-35.75,-21.68,-18.18,3b
2019-07-15_184612:040,-0.398071,-0.009125,-0.296906,-0.002993,0.0045579999999999996,6.8e-05,-35.369999,-22.059998999999998,-19.370001000000002,3b
2019-07-15_184612:060,-0.40063499999999996,-0.011169,-0.29538000000000003,-0.002993,0.004161,7.000000000000001e-06,-35.369999,-22.059998999999998,-19.370001000000002,3b
2019-07-15_184612:080,-0.401642,-0.010651,-0.296387,-0.002932,0.004039,-0.000176,-35.369999,-22.059998999999998,-19.370001000000002,3b
2019-07-15_184612:100,-0.402649,-0.010651,-0.29538000000000003,-0.0029010000000000004,0.004314,0.00016,-35.0,-21.68,-18.5,3b
2019-07-15_184612:120,-0.40570100000000003,-0.010162000000000001,-0.294373,-0.0029010000000000004,0.004619,0.000526,-35.0,-21.68,-18.5,3b
2019-07-15_184612:140,-0.40063499999999996,-0.009644,-0.293854,-0.002993,0.004954999999999999,-0.00011499999999999999,-36.060001,-22.059998999999998,-17.370001000000002,3b
2019-07-15_184612:160,-0.40011599999999997,-0.008636,-0.293335,-0.0031149999999999997,0.0045579999999999996,-0.00011499999999999999,-36.060001,-22.059998999999998,-17.370001000000002,3b
2019-07-15_184612:180,-0.40063499999999996,-0.010651,-0.29284699999999997,-0.0031149999999999997,0.004161,0.000709,-36.060001,-22.059998999999998,-17.370001000000002,3b
2019-07-15_184612:200,-0.40063499999999996,-0.009644,-0.29486100000000004,-0.0033280000000000002,0.003978,0.000496,-36.5,-21.68,-19.0,3b
2019-07-15_184612:220,-0.40368699999999996,-0.009644,-0.29232800000000003,-0.003512,0.0036420000000000003,0.000496,-36.5,-21.68,-19.0,3b
2019-07-15_184612:240,-0.40368699999999996,-0.011169,-0.293335,-0.003573,0.003917,0.000648,-36.060001,-21.370001000000002,-18.18,3b
2019-07-15_184612:260,-0.402161,-0.011687999999999999,-0.290802,-0.0036950000000000004,0.004039,0.000984,-36.060001,-21.370001000000002,-18.18,3b
2019-07-15_184612:280,-0.402161,-0.012177,-0.293335,-0.0036950000000000004,0.003886,0.0007700000000000001,-36.060001,-21.370001000000002,-18.18,3b
2019-07-15_184612:300,-0.399109,-0.014221000000000001,-0.29180900000000004,-0.00339,0.0034289999999999998,0.000465,-36.5,-21.68,-18.18,3b
2019-07-15_184612:320,-0.399109,-0.012695,-0.291321,-0.002932,0.0029100000000000003,0.000343,-36.5,-21.68,-18.18,3b
2019-07-15_184612:340,-0.39859,-0.012695,-0.291321,-0.002443,0.002361,-5.4000000000000005e-05,-35.75,-21.68,-18.5,3b
2019-07-15_184612:360,-0.40063499999999996,-0.012177,-0.28927600000000003,-0.0021079999999999996,0.001598,-0.000267,-35.75,-21.68,-18.5,3b
2019-07-15_184612:380,-0.40368699999999996,-0.011169,-0.290802,-0.001864,0.001353,-0.00045099999999999996,-35.75,-21.68,-18.5,3b
2019-07-15_184612:400,-0.40368699999999996,-0.009125,-0.28979499999999997,-0.0018030000000000001,0.00114,-0.000512,-35.369999,-22.059998999999998,-18.5,3b
2019-07-15_184612:420,-0.40316799999999997,-0.007599,-0.28927600000000003,-0.001864,0.0010789999999999999,-0.000512,-35.369999,-22.059998999999998,-18.5,3b
2019-07-15_184612:440,-0.404175,-0.007111,-0.290802,-0.0021079999999999996,0.0008960000000000001,-0.000389,-36.869999,-21.370001000000002,-17.370001000000002,3b
2019-07-15_184612:460,-0.40316799999999997,-0.006072999999999999,-0.290283,-0.0022600000000000003,0.000499,7.000000000000001e-06,-36.869999,-21.370001000000002,-17.370001000000002,3b
2019-07-15_184612:480,-0.40316799999999997,-0.006072999999999999,-0.29232800000000003,-0.0028399999999999996,0.00022400000000000002,0.000709,-36.869999,-21.370001000000002,-17.370001000000002,3b
2019-07-15_184612:500,-0.404694,-0.006592,-0.293335,-0.0032979999999999997,0.00022400000000000002,0.00132,-35.75,-21.0,-17.75,3b
2019-07-15_184612:520,-0.405212,-0.007111,-0.293854,-0.003664,0.000407,0.001655,-35.75,-21.0,-17.75,3b
2019-07-15_184612:540,-0.40316799999999997,-0.009644,-0.293854,-0.004,0.000468,0.0021739999999999997,-35.0,-21.370001000000002,-17.75,3b
2019-07-15_184612:560,-0.40774499999999997,-0.010162000000000001,-0.293335,-0.00403,0.000682,0.002571,-35.0,-21.370001000000002,-17.75,3b
2019-07-15_184612:580,-0.408752,-0.011169,-0.293854,-0.004488000000000001,0.001353,0.002754,-35.0,-21.370001000000002,-17.75,3b
2019-07-15_184612:600,-0.406219,-0.011687999999999999,-0.29180900000000004,-0.00461,0.001842,0.0022960000000000003,-35.369999,-21.370001000000002,-18.18,3b
2019-07-15_184612:620,-0.405212,-0.009644,-0.28979499999999997,-0.005129,0.0024519999999999998,0.002693,-35.369999,-21.370001000000002,-18.18,3b
2019-07-15_184612:640,-0.401123,-0.013213999999999998,-0.291321,-0.005404,0.002361,0.003822,-35.75,-21.370001000000002,-19.0,3b
2019-07-15_184612:660,-0.399109,-0.015228,-0.290802,-0.0058,0.002055,0.0026320000000000002,-35.75,-21.370001000000002,-19.0,3b
2019-07-15_184612:680,-0.40011599999999997,-0.017792,-0.29232800000000003,-0.005861,0.001628,0.001655,-35.75,-21.370001000000002,-19.0,3b
2019-07-15_184612:700,-0.401123,-0.016753999999999998,-0.29284699999999997,-0.005221,0.001292,0.000984,-35.369999,-21.370001000000002,-18.18,3b
2019-07-15_184612:720,-0.40063499999999996,-0.017792,-0.291321,-0.004549,0.001415,0.001716,-35.369999,-21.370001000000002,-18.18,3b
2019-07-15_184612:740,-0.401642,-0.015747,-0.293854,-0.004,0.001292,0.0022960000000000003,-36.060001,-21.0,-18.18,3b
2019-07-15_184612:760,-0.40063499999999996,-0.015228,-0.29486100000000004,-0.0037560000000000002,0.001415,0.002113,-36.060001,-21.0,-18.18,3b
2019-07-15_184612:780,-0.40063499999999996,-0.015228,-0.295898,-0.003817,0.001292,0.001716,-36.060001,-21.0,-18.18,3b
2019-07-15_184612:800,-0.40316799999999997,-0.013702,-0.29538000000000003,-0.0037560000000000002,0.0012619999999999999,0.001442,-36.060001,-21.0,-18.18,3b
2019-07-15_184612:820,-0.40570100000000003,-0.014740000000000001,-0.29538000000000003,-0.004,0.001292,0.001503,-36.060001,-21.0,-18.18,3b
2019-07-15_184612:840,-0.407227,-0.016753999999999998,-0.295898,-0.004,0.001842,0.001655,-36.060001,-22.059998999999998,-19.370001000000002,3b
2019-07-15_184612:860,-0.407227,-0.017273,-0.29232800000000003,-0.004152,0.002574,0.001503,-36.060001,-22.059998999999998,-19.370001000000002,3b
2019-07-15_184612:880,-0.40368699999999996,-0.016753999999999998,-0.293335,-0.004,0.003124,0.001045,-36.060001,-22.059998999999998,-19.370001000000002,3b
2019-07-15_184612:900,-0.406219,-0.015747,-0.294373,-0.003664,0.003368,0.001503,-35.75,-21.370001000000002,-18.5,3b
2019-07-15_184612:920,-0.402161,-0.016266,-0.29180900000000004,-0.00339,0.003307,0.001167,-35.75,-21.370001000000002,-18.5,3b
2019-07-15_184612:940,-0.401123,-0.014740000000000001,-0.290802,-0.003054,0.003307,0.0007700000000000001,-35.0,-21.370001000000002,-18.5,3b
2019-07-15_184612:960,-0.40368699999999996,-0.013702,-0.28875700000000004,-0.0032979999999999997,0.0029100000000000003,0.001228,-35.0,-21.370001000000002,-18.5,3b
2019-07-15_184612:980,-0.404694,-0.013702,-0.28979499999999997,-0.00339,0.002971,0.001503,-35.0,-21.370001000000002,-18.5,3b
2019-07-15_184613:000,-0.404694,-0.013213999999999998,-0.29180900000000004,-0.004152,0.003124,0.001564,-35.75,-21.370001000000002,-17.75,3b
2019-07-15_184613:020,-0.406219,-0.014221000000000001,-0.290802,-0.004488000000000001,0.003246,0.0018989999999999999,-35.75,-21.370001000000002,-17.75,3b
2019-07-15_184613:040,-0.40774499999999997,-0.014740000000000001,-0.291321,-0.004824,0.0034289999999999998,0.001991,-35.369999,-21.0,-18.5,3b
2019-07-15_184613:060,-0.407227,-0.016753999999999998,-0.28875700000000004,-0.004732,0.003886,0.002052,-35.369999,-21.0,-18.5,3b
2019-07-15_184613:080,-0.40316799999999997,-0.017273,-0.290283,-0.004824,0.003978,0.002388,-35.369999,-21.0,-18.5,3b
2019-07-15_184613:100,-0.401123,-0.017273,-0.28875700000000004,-0.0048850000000000005,0.003917,0.002571,-36.060001,-21.68,-17.75,3b
2019-07-15_184613:120,-0.399109,-0.020325,-0.28875700000000004,-0.004732,0.002971,0.00251,-36.060001,-21.68,-17.75,3b
2019-07-15_184613:140,-0.402161,-0.018799,-0.28875700000000004,-0.004488000000000001,0.002055,0.0018989999999999999,-35.75,-21.370001000000002,-18.5,3b
2019-07-15_184613:160,-0.406219,-0.019318000000000002,-0.287231,-0.003878,0.00172,0.001777,-35.75,-21.370001000000002,-18.5,3b
2019-07-15_184613:180,-0.407227,-0.018799,-0.28674299999999997,-0.003664,0.002055,0.001716,-35.75,-21.370001000000002,-18.5,3b
2019-07-15_184613:200,-0.406738,-0.016753999999999998,-0.28775,-0.0034509999999999996,0.001964,0.001716,-35.75,-21.370001000000002,-16.5,3b
2019-07-15_184613:220,-0.40774499999999997,-0.01828,-0.28927600000000003,-0.003237,0.001994,0.001716,-35.75,-21.370001000000002,-16.5,3b
2019-07-15_184613:240,-0.40774499999999997,-0.016753999999999998,-0.28979499999999997,-0.0031149999999999997,0.002239,0.001625,-36.869999,-20.559998999999998,-17.75,3b
2019-07-15_184613:260,-0.40774499999999997,-0.01828,-0.28927600000000003,-0.003054,0.002513,0.001503,-36.869999,-20.559998999999998,-17.75,3b
2019-07-15_184613:280,-0.406219,-0.017273,-0.28875700000000004,-0.002932,0.002788,0.001564,-36.869999,-20.559998999999998,-17.75,3b
2019-07-15_184613:300,-0.404694,-0.01828,-0.28927600000000003,-0.003237,0.002788,0.001503,-36.5,-21.370001000000002,-18.5,3b
2019-07-15_184613:320,-0.404694,-0.019318000000000002,-0.28775,-0.0032979999999999997,0.002696,0.001503,-36.5,-21.370001000000002,-18.5,3b
2019-07-15_184613:340,-0.404694,-0.020844,-0.288269,-0.00339,0.002391,0.001258,-36.869999,-21.68,-18.18,3b
2019-07-15_184613:360,-0.404175,-0.021332,-0.286224,-0.0033280000000000002,0.002361,0.001106,-36.869999,-21.68,-18.18,3b
2019-07-15_184613:380,-0.406219,-0.020844,-0.28775,-0.003176,0.0024519999999999998,0.001045,-36.869999,-21.68,-18.18,3b
2019-07-15_184613:400,-0.406738,-0.020325,-0.28775,-0.003237,0.002391,0.000984,-36.869999,-21.370001000000002,-17.75,3b
2019-07-15_184613:420,-0.406219,-0.021851,-0.287231,-0.003176,0.0024519999999999998,0.000343,-36.869999,-21.370001000000002,-17.75,3b
2019-07-15_184613:440,-0.406738,-0.019318000000000002,-0.286224,-0.003237,0.002361,-0.00011499999999999999,-36.5,-21.0,-18.5,3b
2019-07-15_184613:460,-0.407227,-0.019806,-0.28674299999999997,-0.0033280000000000002,0.002361,0.001045,-36.5,-21.0,-18.5,3b
2019-07-15_184613:480,-0.407227,-0.019318000000000002,-0.288269,-0.003512,0.002239,0.001167,-36.5,-21.0,-18.5,3b
2019-07-15_184613:500,-0.408752,-0.019806,-0.28979499999999997,-0.003512,0.002635,7.000000000000001e-06,-36.5,-21.370001000000002,-17.370001000000002,3b
2019-07-15_184613:520,-0.406219,-0.020844,-0.288269,-0.0036340000000000005,0.0029100000000000003,-0.000908,-36.5,-21.370001000000002,-17.370001000000002,3b
2019-07-15_184613:540,-0.405212,-0.020844,-0.28979499999999997,-0.003573,0.002757,-0.000389,-36.869999,-20.559998999999998,-17.0,3b
2019-07-15_184613:560,-0.40774499999999997,-0.021851,-0.28875700000000004,-0.00339,0.002971,0.00016,-36.869999,-20.559998999999998,-17.0,3b
2019-07-15_184613:580,-0.407227,-0.020325,-0.28775,-0.003237,0.003093,-5.4000000000000005e-05,-36.869999,-20.559998999999998,-17.0,3b
2019-07-15_184613:600,-0.404694,-0.018799,-0.288269,-0.003176,0.003703,-0.00011499999999999999,-36.060001,-21.0,-17.68,3b
2019-07-15_184613:620,-0.404694,-0.01828,-0.28674299999999997,-0.003176,0.00352,7.000000000000001e-06,-36.060001,-21.0,-17.68,3b
2019-07-15_184613:640,-0.404694,-0.017792,-0.28674299999999997,-0.003512,0.003032,0.00016,-36.060001,-21.68,-18.18,3b
2019-07-15_184613:660,-0.404694,-0.018799,-0.286224,-0.004091,0.0024519999999999998,0.000465,-36.060001,-21.68,-18.18,3b
2019-07-15_184613:680,-0.409271,-0.018799,-0.28418000000000004,-0.003939,0.0019030000000000002,-0.00011499999999999999,-36.060001,-21.68,-18.18,3b
2019-07-15_184613:700,-0.410797,-0.021332,-0.284698,-0.003939,0.001628,-0.000573,-36.869999,-21.370001000000002,-17.75,3b
2019-07-15_184613:720,-0.410278,-0.019318000000000002,-0.283173,-0.003878,0.002239,-0.00011499999999999999,-36.869999,-21.370001000000002,-17.75,3b
2019-07-15_184613:740,-0.407227,-0.018799,-0.285217,-0.0037560000000000002,0.001994,0.00016,-36.869999,-21.0,-17.370001000000002,3b
2019-07-15_184613:760,-0.404175,-0.015747,-0.284698,-0.003817,0.0016589999999999999,-0.000389,-36.869999,-21.0,-17.370001000000002,3b
2019-07-15_184613:780,-0.406738,-0.014221000000000001,-0.285217,-0.003878,0.001353,0.00028199999999999997,-36.869999,-21.0,-17.370001000000002,3b
2019-07-15_184613:800,-0.40823400000000004,-0.014740000000000001,-0.285217,-0.004336,0.0010789999999999999,0.0007700000000000001,-36.5,-20.559998999999998,-17.370001000000002,3b
2019-07-15_184613:820,-0.409271,-0.013702,-0.28418000000000004,-0.004549,0.001201,0.0008619999999999999,-36.5,-20.559998999999998,-17.370001000000002,3b
2019-07-15_184613:840,-0.40976,-0.016266,-0.286224,-0.004946,0.0014759999999999999,0.00132,-36.5,-21.0,-18.18,3b
2019-07-15_184613:860,-0.408752,-0.017792,-0.286224,-0.005007,0.0017809999999999998,0.001655,-36.5,-21.0,-18.18,3b
2019-07-15_184613:880,-0.40570100000000003,-0.019806,-0.285706,-0.005282,0.001598,0.001564,-36.5,-21.0,-18.18,3b
2019-07-15_184613:900,-0.40570100000000003,-0.021851,-0.28674299999999997,-0.004946,0.001598,0.001167,-36.5,-21.0,-16.5,3b
2019-07-15_184613:920,-0.406219,-0.023895,-0.285217,-0.004275,0.001292,0.000343,-36.5,-21.0,-16.5,3b
2019-07-15_184613:940,-0.405212,-0.021851,-0.285217,-0.003054,0.0008039999999999999,-0.000573,-36.5,-21.0,-17.75,3b
2019-07-15_184613:960,-0.406738,-0.019806,-0.283173,-0.002657,0.000468,-0.000664,-36.5,-21.0,-17.75,3b
2019-07-15_184613:980,-0.40774499999999997,-0.016266,-0.285217,-0.002443,0.000285,-0.0011220000000000002,-36.5,-21.0,-17.75,3b
2019-07-15_184614:000,-0.407227,-0.013213999999999998,-0.283173,-0.002779,0.00022400000000000002,-0.0009689999999999999,-36.869999,-21.370001000000002,-17.75,3b
2019-07-15_184614:020,-0.40316799999999997,-0.012177,-0.284698,-0.003573,1.1e-05,-0.000176,-36.869999,-21.370001000000002,-17.75,3b
2019-07-15_184614:040,-0.402649,-0.012695,-0.285706,-0.004213000000000001,-0.00063,7.000000000000001e-06,-36.5,-21.370001000000002,-17.0,3b
2019-07-15_184614:060,-0.40316799999999997,-0.017273,-0.287231,-0.004549,-0.0009660000000000001,0.00016,-36.5,-21.370001000000002,-17.0,3b
2019-07-15_184614:080,-0.40316799999999997,-0.018799,-0.28875700000000004,-0.004793,-0.001454,0.000496,-36.5,-21.370001000000002,-17.0,3b
2019-07-15_184614:100,-0.405212,-0.021851,-0.28979499999999997,-0.004427,-0.001576,0.000404,-37.25,-21.370001000000002,-18.5,3b
2019-07-15_184614:120,-0.40774499999999997,-0.022369,-0.290802,-0.003573,-0.001179,7.000000000000001e-06,-37.25,-21.370001000000002,-18.5,3b
2019-07-15_184614:140,-0.410797,-0.020325,-0.29180900000000004,-0.0028399999999999996,-0.00044699999999999997,-0.00011499999999999999,-36.060001,-20.559998999999998,-17.75,3b
2019-07-15_184614:160,-0.40774499999999997,-0.01828,-0.290802,-0.002443,0.00022400000000000002,-5.4000000000000005e-05,-36.060001,-20.559998999999998,-17.75,3b
2019-07-15_184614:180,-0.407227,-0.01828,-0.293335,-0.002199,0.00056,-0.000512,-36.060001,-20.559998999999998,-17.75,3b
2019-07-15_184614:200,-0.404175,-0.016753999999999998,-0.290802,-0.002443,0.000865,-0.000786,-35.75,-21.68,-16.18,3b
2019-07-15_184614:220,-0.40570100000000003,-0.016266,-0.28979499999999997,-0.002718,0.000682,-0.0010609999999999999,-35.75,-21.68,-16.18,3b
2019-07-15_184614:240,-0.405212,-0.017273,-0.290802,-0.002932,0.0009570000000000001,-0.001,-36.060001,-21.370001000000002,-18.18,3b
2019-07-15_184614:260,-0.40570100000000003,-0.017792,-0.28875700000000004,-0.0028399999999999996,0.001018,-0.0010609999999999999,-36.060001,-21.370001000000002,-18.18,3b
2019-07-15_184614:280,-0.404694,-0.017792,-0.290283,-0.002535,0.00114,-0.001183,-36.060001,-21.370001000000002,-18.18,3b
2019-07-15_184614:300,-0.405212,-0.016753999999999998,-0.28875700000000004,-0.002169,0.0008960000000000001,-0.001519,-36.869999,-21.0,-18.5,3b
2019-07-15_184614:320,-0.404694,-0.014740000000000001,-0.288269,-0.0020469999999999998,0.0012619999999999999,-0.000267,-36.869999,-21.0,-18.5,3b
2019-07-15_184614:340,-0.404694,-0.012695,-0.29180900000000004,-0.0025050000000000003,0.0008960000000000001,0.00016,-36.060001,-21.0,-17.370001000000002,3b
2019-07-15_184614:360,-0.404694,-0.013213999999999998,-0.290802,-0.002993,0.001292,-0.000908,-36.060001,-21.0,-17.370001000000002,3b
2019-07-15_184614:380,-0.402649,-0.012695,-0.291321,-0.003573,0.0012619999999999999,-0.0017929999999999999,-36.060001,-21.0,-17.370001000000002,3b
2019-07-15_184614:400,-0.404175,-0.012695,-0.290802,-0.0036950000000000004,0.00114,-0.001,-36.060001,-21.370001000000002,-16.18,3b
2019-07-15_184614:420,-0.402649,-0.015228,-0.29180900000000004,-0.0036950000000000004,0.001415,-5.4000000000000005e-05,-36.060001,-21.370001000000002,-16.18,3b
2019-07-15_184614:440,-0.404694,-0.014740000000000001,-0.291321,-0.0036340000000000005,0.001292,-5.4000000000000005e-05,-36.869999,-21.0,-18.5,3b
2019-07-15_184614:460,-0.40316799999999997,-0.013702,-0.29180900000000004,-0.00339,0.0014759999999999999,7.000000000000001e-06,-36.869999,-21.0,-18.5,3b
2019-07-15_184614:480,-0.402649,-0.013702,-0.29284699999999997,-0.003237,0.001201,0.00028199999999999997,-36.869999,-21.0,-18.5,3b
2019-07-15_184614:500,-0.402649,-0.011687999999999999,-0.291321,-0.0034509999999999996,0.0012619999999999999,0.0007700000000000001,-36.5,-21.68,-18.18,3b
2019-07-15_184614:520,-0.404175,-0.013213999999999998,-0.293335,-0.003878,0.001018,0.000831,-36.5,-21.68,-18.18,3b
2019-07-15_184614:540,-0.406738,-0.014221000000000001,-0.29232800000000003,-0.004336,0.000743,0.000526,-35.369999,-21.370001000000002,-17.75,3b
2019-07-15_184614:560,-0.40570100000000003,-0.014740000000000001,-0.290802,-0.004427,0.0008960000000000001,0.00016,-35.369999,-21.370001000000002,-17.75,3b
2019-07-15_184614:580,-0.404694,-0.016266,-0.29180900000000004,-0.004397,0.001292,0.000404,-35.369999,-21.370001000000002,-17.75,3b
2019-07-15_184614:600,-0.40774499999999997,-0.016266,-0.29180900000000004,-0.004152,0.0017809999999999998,0.000648,-35.369999,-21.68,-19.0,3b
2019-07-15_184614:620,-0.405212,-0.016753999999999998,-0.29284699999999997,-0.00403,0.002055,-0.00011499999999999999,-35.369999,-21.68,-19.0,3b
2019-07-15_184614:640,-0.404175,-0.015747,-0.29232800000000003,-0.003512,0.002177,-0.00011499999999999999,-36.060001,-21.0,-17.75,3b
2019-07-15_184614:660,-0.404694,-0.016753999999999998,-0.29180900000000004,-0.003176,0.002239,0.000496,-36.060001,-21.0,-17.75,3b
2019-07-15_184614:680,-0.404694,-0.016266,-0.29180900000000004,-0.0032979999999999997,0.0023,0.00016,-36.060001,-21.0,-17.75,3b
2019-07-15_184614:700,-0.40570100000000003,-0.013702,-0.29180900000000004,-0.0032979999999999997,0.002361,-0.000176,-35.75,-21.68,-18.18,3b
2019-07-15_184614:720,-0.40570100000000003,-0.013702,-0.290283,-0.0033280000000000002,0.002788,0.000221,-35.75,-21.68,-18.18,3b
2019-07-15_184614:740,-0.40570100000000003,-0.013213999999999998,-0.29180900000000004,-0.0036950000000000004,0.0029100000000000003,0.000343,-36.869999,-21.68,-18.18,3b
2019-07-15_184614:760,-0.40316799999999997,-0.014740000000000001,-0.28979499999999997,-0.004,0.002849,0.00028199999999999997,-36.869999,-21.68,-18.18,3b
2019-07-15_184614:780,-0.40368699999999996,-0.019318000000000002,-0.290283,-0.003878,0.002849,-0.00011499999999999999,-36.869999,-21.68,-18.18,3b
2019-07-15_184614:800,-0.404694,-0.017273,-0.291321,-0.003878,0.002574,-0.000664,-35.369999,-21.370001000000002,-19.0,3b
2019-07-15_184614:820,-0.406219,-0.019318000000000002,-0.28927600000000003,-0.0032979999999999997,0.002391,-0.000664,-35.369999,-21.370001000000002,-19.0,3b
2019-07-15_184614:840,-0.40570100000000003,-0.017792,-0.28979499999999997,-0.002657,0.002513,-0.000786,-35.75,-21.68,-18.5,3b
2019-07-15_184614:860,-0.406219,-0.015228,-0.28775,-0.002321,0.002757,-0.0013050000000000002,-35.75,-21.68,-18.5,3b
2019-07-15_184614:880,-0.406219,-0.012695,-0.28875700000000004,-0.001986,0.002696,-0.0010609999999999999,-35.75,-21.68,-18.5,3b
2019-07-15_184614:900,-0.407227,-0.012177,-0.288269,-0.0025050000000000003,0.002971,-0.001,-36.060001,-21.68,-18.5,3b
2019-07-15_184614:920,-0.40570100000000003,-0.012695,-0.28875700000000004,-0.002718,0.002696,-0.0010609999999999999,-36.060001,-21.68,-18.5,3b
2019-07-15_184614:940,-0.40823400000000004,-0.012695,-0.28875700000000004,-0.0028399999999999996,0.002849,-0.000908,-36.869999,-21.68,-18.18,3b
2019-07-15_184614:960,-0.408752,-0.013213999999999998,-0.288269,-0.0028399999999999996,0.003093,-0.001,-36.869999,-21.68,-18.18,3b
2019-07-15_184614:980,-0.408752,-0.012695,-0.28875700000000004,-0.002779,0.003124,-0.000634,-36.869999,-21.68,-18.18,3b
2019-07-15_184615:000,-0.407227,-0.010162000000000001,-0.28674299999999997,-0.002779,0.003246,7.000000000000001e-06,-36.5,-21.68,-18.5,3b
2019-07-15_184615:020,-0.408752,-0.008636,-0.285217,-0.0031149999999999997,0.003368,0.00016,-36.5,-21.68,-18.5,3b
2019-07-15_184615:040,-0.40774499999999997,-0.009125,-0.285706,-0.0037560000000000002,0.0031850000000000003,0.000465,-36.5,-22.059998999999998,-18.18,3b
2019-07-15_184615:060,-0.407227,-0.008636,-0.28418000000000004,-0.00461,0.003093,0.000648,-36.5,-22.059998999999998,-18.18,3b
2019-07-15_184615:080,-0.40823400000000004,-0.010651,-0.285706,-0.005404,0.003032,0.001045,-36.5,-22.059998999999998,-18.18,3b
2019-07-15_184615:100,-0.406219,-0.013702,-0.285706,-0.005739,0.002788,0.001442,-36.060001,-21.68,-18.5,3b
2019-07-15_184615:120,-0.40368699999999996,-0.015747,-0.285706,-0.005526,0.002391,0.001381,-36.060001,-21.68,-18.5,3b
2019-07-15_184615:140,-0.404694,-0.01828,-0.286224,-0.004793,0.001994,0.001258,-36.5,-22.059998999999998,-17.370001000000002,3b
2019-07-15_184615:160,-0.405212,-0.01828,-0.28418000000000004,-0.004091,0.00172,0.001106,-36.5,-22.059998999999998,-17.370001000000002,3b
2019-07-15_184615:180,-0.406219,-0.016753999999999998,-0.285217,-0.003237,0.001537,0.000831,-36.5,-22.059998999999998,-17.370001000000002,3b
2019-07-15_184615:200,-0.40570100000000003,-0.01828,-0.28674299999999997,-0.002382,0.0014759999999999999,-0.000267,-35.369999,-21.0,-17.0,3b
2019-07-15_184615:220,-0.409271,-0.016266,-0.285217,-0.001925,0.001353,-0.000573,-35.369999,-21.0,-17.0,3b
2019-07-15_184615:240,-0.411804,-0.013213999999999998,-0.285706,-0.001772,0.0016589999999999999,0.000526,-36.060001,-21.370001000000002,-19.0,3b
2019-07-15_184615:260,-0.411285,-0.012177,-0.285217,-0.0020469999999999998,0.001964,0.000129,-36.060001,-21.370001000000002,-19.0,3b
2019-07-15_184615:280,-0.40823400000000004,-0.011169,-0.284698,-0.0025050000000000003,0.001994,-0.0010609999999999999,-36.060001,-21.370001000000002,-19.0,3b
2019-07-15_184615:300,-0.405212,-0.009644,-0.284698,-0.002993,0.0017809999999999998,-0.000725,-36.869999,-21.370001000000002,-19.0,3b
2019-07-15_184615:320,-0.404175,-0.011169,-0.284698,-0.003237,0.001353,0.000709,-36.869999,-21.370001000000002,-19.0,3b
2019-07-15_184615:340,-0.405212,-0.012695,-0.284698,-0.0033280000000000002,0.0008960000000000001,0.001045,-36.869999,-21.370001000000002,-17.370001000000002,3b
2019-07-15_184615:360,-0.406738,-0.012177,-0.283173,-0.003054,0.000499,0.0008619999999999999,-36.869999,-21.370001000000002,-17.370001000000002,3b
2019-07-15_184615:380,-0.40774499999999997,-0.011169,-0.28418000000000004,-0.0031149999999999997,0.0008960000000000001,0.001167,-36.869999,-21.370001000000002,-17.370001000000002,3b
2019-07-15_184615:400,-0.408752,-0.009125,-0.286224,-0.003573,0.0009570000000000001,0.00196,-36.5,-21.68,-19.68,3b
2019-07-15_184615:420,-0.408752,-0.010162000000000001,-0.285217,-0.004488000000000001,0.0008960000000000001,0.002235,-36.5,-21.68,-19.68,3b
2019-07-15_184615:440,-0.40823400000000004,-0.013702,-0.28674299999999997,-0.0051600000000000005,0.000743,0.00196,-36.5,-20.559998999999998,-17.75,3b
2019-07-15_184615:460,-0.40823400000000004,-0.014740000000000001,-0.286224,-0.005465,0.0009570000000000001,0.001716,-36.5,-20.559998999999998,-17.75,3b
2019-07-15_184615:480,-0.409271,-0.015747,-0.288269,-0.005068,0.001018,0.001655,-36.5,-20.559998999999998,-17.75,3b
2019-07-15_184615:500,-0.407227,-0.016266,-0.287231,-0.004732,0.001415,0.002754,-36.5,-21.370001000000002,-18.5,3b
2019-07-15_184615:520,-0.405212,-0.015228,-0.284698,-0.004336,0.001292,0.0030280000000000003,-36.5,-21.370001000000002,-18.5,3b
2019-07-15_184615:540,-0.406219,-0.014740000000000001,-0.28674299999999997,-0.004275,0.001201,0.001991,-36.5,-21.0,-17.0,3b
2019-07-15_184615:560,-0.40976,-0.012177,-0.287231,-0.004824,0.0010789999999999999,0.00251,-36.5,-21.0,-17.0,3b
2019-07-15_184615:580,-0.40976,-0.012177,-0.28674299999999997,-0.005556,0.0014759999999999999,0.003303,-36.5,-21.0,-17.0,3b
2019-07-15_184615:600,-0.40774499999999997,-0.015228,-0.28775,-0.006684999999999999,0.0016589999999999999,0.003151,-35.75,-21.370001000000002,-17.75,3b
2019-07-15_184615:620,-0.407227,-0.01828,-0.28775,-0.007051999999999999,0.001842,0.0026320000000000002,-35.75,-21.370001000000002,-17.75,3b
2019-07-15_184615:640,-0.406219,-0.023375999999999997,-0.28927600000000003,-0.0066549999999999995,0.001842,0.002357,-35.75,-22.059998999999998,-18.18,3b
2019-07-15_184615:660,-0.40570100000000003,-0.025421,-0.28875700000000004,-0.0056170000000000005,0.0019030000000000002,0.002052,-35.75,-22.059998999999998,-18.18,3b
2019-07-15_184615:680,-0.40368699999999996,-0.024384,-0.28775,-0.004397,0.0017809999999999998,0.001258,-35.75,-22.059998999999998,-18.18,3b
2019-07-15_184615:700,-0.402161,-0.023895,-0.28775,-0.002993,0.00172,0.0007700000000000001,-36.060001,-22.059998999999998,-16.18,3b
2019-07-15_184615:720,-0.402649,-0.021851,-0.287231,-0.001986,0.001353,7.000000000000001e-06,-36.060001,-22.059998999999998,-16.18,3b
2019-07-15_184615:740,-0.406738,-0.017792,-0.28875700000000004,-0.00165,0.001018,-0.000664,-35.75,-21.370001000000002,-19.0,3b
2019-07-15_184615:760,-0.407227,-0.014740000000000001,-0.28775,-0.0017109999999999998,0.0010789999999999999,-0.000908,-35.75,-21.370001000000002,-19.0,3b
2019-07-15_184615:780,-0.409271,-0.012695,-0.28875700000000004,-0.0021079999999999996,0.001353,-0.0009689999999999999,-35.75,-21.370001000000002,-19.0,3b
2019-07-15_184615:800,-0.410278,-0.011169,-0.288269,-0.0025960000000000002,0.001598,-0.000634,-36.5,-22.059998999999998,-17.370001000000002,3b
2019-07-15_184615:820,-0.409271,-0.012695,-0.287231,-0.0031149999999999997,0.001994,6.8e-05,-36.5,-22.059998999999998,-17.370001000000002,3b
2019-07-15_184615:840,-0.411285,-0.012695,-0.287231,-0.0032979999999999997,0.002361,0.000587,-36.75,-21.370001000000002,-18.18,3b
2019-07-15_184615:860,-0.41384899999999997,-0.012177,-0.28674299999999997,-0.003878,0.002971,0.001167,-36.75,-21.370001000000002,-18.18,3b
2019-07-15_184615:880,-0.410797,-0.012177,-0.28369099999999997,-0.004427,0.003032,0.0018989999999999999,-36.75,-21.370001000000002,-18.18,3b
2019-07-15_184615:900,-0.404175,-0.013213999999999998,-0.28369099999999997,-0.004946,0.002696,0.002113,-36.75,-21.370001000000002,-17.68,3b
2019-07-15_184615:920,-0.404694,-0.016266,-0.283173,-0.005282,0.002177,0.001838,-36.75,-21.370001000000002,-17.68,3b
2019-07-15_184615:940,-0.40368699999999996,-0.020325,-0.28369099999999997,-0.004732,0.001353,0.001838,-36.369999,-21.370001000000002,-18.18,3b
2019-07-15_184615:960,-0.404694,-0.019806,-0.28418000000000004,-0.004213000000000001,0.0010789999999999999,0.001777,-36.369999,-21.370001000000002,-18.18,3b
2019-07-15_184615:980,-0.406219,-0.020844,-0.28674299999999997,-0.003512,0.0008960000000000001,0.001503,-36.369999,-21.370001000000002,-18.18,3b
2019-07-15_184616:000,-0.405212,-0.019318000000000002,-0.28674299999999997,-0.003054,0.0008960000000000001,0.00132,-36.369999,-21.370001000000002,-16.5,3b
2019-07-15_184616:020,-0.40774499999999997,-0.017792,-0.28674299999999997,-0.002779,0.000865,0.001106,-36.369999,-21.370001000000002,-16.5,3b
2019-07-15_184616:040,-0.408752,-0.017792,-0.28875700000000004,-0.0031149999999999997,0.00114,0.000984,-35.25,-21.0,-17.370001000000002,3b
2019-07-15_184616:060,-0.406219,-0.017273,-0.288269,-0.003176,0.0014759999999999999,0.000831,-35.25,-21.0,-17.370001000000002,3b
2019-07-15_184616:080,-0.407227,-0.019318000000000002,-0.28674299999999997,-0.0036340000000000005,0.001415,0.000496,-35.25,-21.0,-17.370001000000002,3b
2019-07-15_184616:100,-0.40774499999999997,-0.019318000000000002,-0.288269,-0.0036340000000000005,0.001537,0.000343,-36.0,-21.0,-17.75,3b
2019-07-15_184616:120,-0.408752,-0.018799,-0.28674299999999997,-0.0032979999999999997,0.001628,6.8e-05,-36.0,-21.0,-17.75,3b
2019-07-15_184616:140,-0.408752,-0.018799,-0.285706,-0.003176,0.00172,-0.00023700000000000001,-36.0,-21.370001000000002,-17.68,3b
2019-07-15_184616:160,-0.40823400000000004,-0.016753999999999998,-0.285217,-0.003054,0.002055,0.001045,-36.0,-21.370001000000002,-17.68,3b
2019-07-15_184616:180,-0.406738,-0.01828,-0.286224,-0.0034509999999999996,0.001628,0.000831,-36.0,-21.370001000000002,-17.68,3b
2019-07-15_184616:200,-0.407227,-0.01828,-0.286224,-0.00403,0.001415,-0.000573,-36.369999,-21.0,-18.18,3b
2019-07-15_184616:220,-0.405212,-0.019318000000000002,-0.284698,-0.004091,0.0014759999999999999,-0.001366,-36.369999,-21.0,-18.18,3b
2019-07-15_184616:240,-0.40368699999999996,-0.019318000000000002,-0.28775,-0.003878,0.0008960000000000001,-0.000512,-36.369999,-21.0,-19.0,3b
2019-07-15_184616:260,-0.404694,-0.019806,-0.287231,-0.00339,0.000865,7.000000000000001e-06,-36.369999,-21.0,-19.0,3b
2019-07-15_184616:280,-0.406219,-0.018799,-0.28775,-0.0029010000000000004,0.000468,7.000000000000001e-06,-36.369999,-21.0,-19.0,3b
2019-07-15_184616:300,-0.407227,-0.016753999999999998,-0.288269,-0.002779,0.000468,7.000000000000001e-06,-35.68,-20.559998999999998,-17.370001000000002,3b
2019-07-15_184616:320,-0.40570100000000003,-0.014221000000000001,-0.288269,-0.002932,0.0009570000000000001,0.000587,-35.68,-20.559998999999998,-17.370001000000002,3b
2019-07-15_184616:340,-0.406219,-0.014740000000000001,-0.28979499999999997,-0.003573,0.001018,0.000831,-36.060001,-21.68,-18.5,3b
2019-07-15_184616:360,-0.406738,-0.015747,-0.28979499999999997,-0.004091,0.000865,0.001045,-36.060001,-21.68,-18.5,3b
2019-07-15_184616:380,-0.40570100000000003,-0.016753999999999998,-0.28927600000000003,-0.004549,0.0008039999999999999,0.000709,-36.060001,-21.68,-18.5,3b
2019-07-15_184616:400,-0.40774499999999997,-0.018799,-0.290283,-0.004549,0.001018,0.000465,-36.5,-21.370001000000002,-18.18,3b
2019-07-15_184616:420,-0.40823400000000004,-0.019318000000000002,-0.290283,-0.004488000000000001,0.001201,0.000831,-36.5,-21.370001000000002,-18.18,3b
2019-07-15_184616:440,-0.410797,-0.018799,-0.28979499999999997,-0.00403,0.001537,0.001228,-36.869999,-21.370001000000002,-18.5,3b
2019-07-15_184616:460,-0.406219,-0.018799,-0.290283,-0.00403,0.001842,0.000496,-36.869999,-21.370001000000002,-18.5,3b
2019-07-15_184616:480,-0.405212,-0.016753999999999998,-0.28927600000000003,-0.004275,0.001842,0.000496,-36.869999,-21.370001000000002,-18.5,3b
2019-07-15_184616:500,-0.404175,-0.016753999999999998,-0.28927600000000003,-0.004336,0.001842,0.001167,-35.75,-21.370001000000002,-18.5,3b
2019-07-15_184616:520,-0.40368699999999996,-0.017792,-0.28775,-0.00461,0.001537,0.000831,-35.75,-21.370001000000002,-18.5,3b
2019-07-15_184616:540,-0.406219,-0.017792,-0.288269,-0.004671,0.0014759999999999999,0.000587,-36.060001,-21.370001000000002,-17.75,3b
2019-07-15_184616:560,-0.407227,-0.019318000000000002,-0.28775,-0.004397,0.001415,0.000587,-36.060001,-21.370001000000002,-17.75,3b
2019-07-15_184616:580,-0.407227,-0.01828,-0.288269,-0.004336,0.0017809999999999998,0.000343,-36.060001,-21.370001000000002,-17.75,3b
2019-07-15_184616:600,-0.406738,-0.015747,-0.28875700000000004,-0.003939,0.001964,0.000709,-36.5,-21.370001000000002,-17.370001000000002,3b
2019-07-15_184616:620,-0.40570100000000003,-0.015747,-0.287231,-0.00403,0.001842,0.001045,-36.5,-21.370001000000002,-17.370001000000002,3b
2019-07-15_184616:640,-0.404175,-0.016753999999999998,-0.28927600000000003,-0.004091,0.00172,0.001106,-35.75,-21.0,-17.0,3b
2019-07-15_184616:660,-0.404175,-0.017273,-0.290283,-0.004,0.0014759999999999999,0.001167,-35.75,-21.0,-17.0,3b
2019-07-15_184616:680,-0.406219,-0.016753999999999998,-0.28875700000000004,-0.004152,0.00114,0.0007700000000000001,-35.75,-21.0,-17.0,3b
2019-07-15_184616:700,-0.406219,-0.017792,-0.28927600000000003,-0.004,0.0014759999999999999,0.0008619999999999999,-37.25,-22.059998999999998,-17.75,3b
2019-07-15_184616:720,-0.406219,-0.017273,-0.288269,-0.003878,0.0014759999999999999,0.0008619999999999999,-37.25,-22.059998999999998,-17.75,3b
2019-07-15_184616:740,-0.404694,-0.016753999999999998,-0.28979499999999997,-0.0037560000000000002,0.0016589999999999999,0.000984,-36.5,-21.370001000000002,-18.18,3b
2019-07-15_184616:760,-0.40570100000000003,-0.016266,-0.28927600000000003,-0.003817,0.0017809999999999998,0.001167,-36.5,-21.370001000000002,-18.18,3b
2019-07-15_184616:780,-0.40774499999999997,-0.015747,-0.288269,-0.00403,0.001415,0.0008619999999999999,-36.5,-21.370001000000002,-18.18,3b
2019-07-15_184616:800,-0.409271,-0.014221000000000001,-0.28875700000000004,-0.004213000000000001,0.001292,0.001045,-36.060001,-21.0,-17.75,3b
2019-07-15_184616:820,-0.40774499999999997,-0.013702,-0.287231,-0.004793,0.002055,0.001442,-36.060001,-21.0,-17.75,3b
2019-07-15_184616:840,-0.406219,-0.015228,-0.288269,-0.004824,0.001994,0.001716,-36.060001,-21.0,-17.75,3b
2019-07-15_184616:860,-0.404694,-0.017273,-0.28875700000000004,-0.005404,0.00172,0.001716,-35.75,-21.370001000000002,-18.5,3b
2019-07-15_184616:880,-0.404175,-0.020325,-0.288269,-0.005404,0.0016589999999999999,0.001716,-35.75,-21.370001000000002,-18.5,3b
2019-07-15_184616:900,-0.40570100000000003,-0.020844,-0.28875700000000004,-0.004946,0.001628,0.001838,-36.5,-20.559998999999998,-17.370001000000002,3b
2019-07-15_184616:920,-0.40823400000000004,-0.021332,-0.28775,-0.004488000000000001,0.0016589999999999999,0.001625,-36.5,-20.559998999999998,-17.370001000000002,3b
2019-07-15_184616:940,-0.409271,-0.01828,-0.288269,-0.00403,0.001964,0.001716,-36.5,-20.559998999999998,-17.370001000000002,3b
2019-07-15_184616:960,-0.40823400000000004,-0.017792,-0.28875700000000004,-0.004,0.002635,0.001838,-36.5,-21.68,-18.18,3b
2019-07-15_184616:980,-0.40774499999999997,-0.01828,-0.28979499999999997,-0.004397,0.002757,0.00196,-36.5,-21.68,-18.18,3b
2019-07-15_184617:000,-0.40570100000000003,-0.020325,-0.28875700000000004,-0.00461,0.0029100000000000003,0.0018989999999999999,-37.25,-21.0,-17.370001000000002,3b
2019-07-15_184617:020,-0.40570100000000003,-0.021851,-0.287231,-0.004793,0.002849,0.001564,-37.25,-21.0,-17.370001000000002,3b
2019-07-15_184617:040,-0.405212,-0.023895,-0.28775,-0.004671,0.002788,0.001564,-36.75,-21.0,-18.18,3b
2019-07-15_184617:060,-0.406219,-0.023375999999999997,-0.28674299999999997,-0.0036340000000000005,0.002177,0.0007700000000000001,-36.75,-21.0,-18.18,3b
2019-07-15_184617:080,-0.40774499999999997,-0.022858,-0.28775,-0.00339,0.002116,0.000404,-36.75,-21.0,-18.18,3b
2019-07-15_184617:100,-0.407227,-0.019318000000000002,-0.284698,-0.002718,0.002116,0.001381,-36.369999,-20.559998999999998,-18.18,3b
2019-07-15_184617:120,-0.40570100000000003,-0.020325,-0.28674299999999997,-0.002779,0.001994,0.001442,-36.369999,-20.559998999999998,-18.18,3b
2019-07-15_184617:140,-0.40570100000000003,-0.01828,-0.28674299999999997,-0.0032979999999999997,0.0017809999999999998,-0.000328,-37.5,-21.0,-17.75,3b
2019-07-15_184617:160,-0.40570100000000003,-0.01828,-0.286224,-0.003176,0.00172,-0.000664,-37.5,-21.0,-17.75,3b
2019-07-15_184617:180,-0.406738,-0.018799,-0.286224,-0.0033280000000000002,0.001628,0.000129,-37.5,-21.0,-17.75,3b
2019-07-15_184617:200,-0.40570100000000003,-0.021332,-0.287231,-0.002993,0.001598,0.000404,-36.0,-21.0,-18.18,3b
2019-07-15_184617:220,-0.40774499999999997,-0.018799,-0.286224,-0.002657,0.001598,0.000465,-36.0,-21.0,-18.18,3b
2019-07-15_184617:240,-0.407227,-0.017273,-0.287231,-0.002321,0.001628,0.00028199999999999997,-36.0,-21.0,-18.18,3b
2019-07-15_184617:260,-0.407227,-0.017792,-0.28775,-0.002657,0.001964,0.0008619999999999999,-36.369999,-21.0,-19.0,3b
2019-07-15_184617:280,-0.406219,-0.018799,-0.28775,-0.003176,0.00172,0.001167,-36.369999,-21.0,-19.0,3b
2019-07-15_184617:300,-0.40570100000000003,-0.017273,-0.28875700000000004,-0.0036340000000000005,0.001842,0.00132,-36.0,-21.0,-17.370001000000002,3b
2019-07-15_184617:320,-0.406219,-0.020325,-0.287231,-0.003939,0.00172,0.001045,-36.0,-21.0,-17.370001000000002,3b
2019-07-15_184617:340,-0.408752,-0.020844,-0.288269,-0.00403,0.001598,0.000587,-36.75,-21.68,-17.68,3b
2019-07-15_184617:360,-0.409271,-0.021851,-0.288269,-0.00403,0.001842,0.0007700000000000001,-36.75,-21.68,-17.68,3b
2019-07-15_184617:380,-0.40774499999999997,-0.021851,-0.287231,-0.003878,0.0023,0.001442,-36.75,-21.68,-17.68,3b
2019-07-15_184617:400,-0.406738,-0.020844,-0.287231,-0.003939,0.002788,0.000984,-36.0,-21.370001000000002,-18.5,3b
2019-07-15_184617:420,-0.404694,-0.019318000000000002,-0.285217,-0.003939,0.002391,0.000526,-36.0,-21.370001000000002,-18.5,3b
2019-07-15_184617:440,-0.406738,-0.019806,-0.286224,-0.004336,0.002055,0.000923,-35.68,-21.0,-17.370001000000002,3b
2019-07-15_184617:460,-0.40823400000000004,-0.020325,-0.28674299999999997,-0.004549,0.001964,0.000648,-35.68,-21.0,-17.370001000000002,3b
2019-07-15_184617:480,-0.407227,-0.020844,-0.286224,-0.004488000000000001,0.001964,0.000404,-35.68,-21.0,-17.370001000000002,3b
2019-07-15_184617:500,-0.408752,-0.020325,-0.286224,-0.00461,0.001964,0.000648,-36.0,-20.559998999999998,-18.5,3b
2019-07-15_184617:520,-0.407227,-0.021851,-0.286224,-0.004397,0.002116,0.000465,-36.0,-20.559998999999998,-18.5,3b
2019-07-15_184617:540,-0.406738,-0.019806,-0.28674299999999997,-0.004213000000000001,0.002361,0.000526,-36.0,-20.559998999999998,-18.5,3b
2019-07-15_184617:560,-0.406738,-0.018799,-0.286224,-0.004152,0.002116,0.000343,-36.0,-21.0,-18.5,3b
2019-07-15_184617:580,-0.406738,-0.019318000000000002,-0.285706,-0.004213000000000001,0.001842,0.000404,-36.0,-21.0,-18.5,3b
2019-07-15_184617:600,-0.407227,-0.018799,-0.286224,-0.004152,0.00172,0.000465,-36.369999,-20.18,-17.0,3b
2019-07-15_184617:620,-0.40823400000000004,-0.019806,-0.28418000000000004,-0.004213000000000001,0.0016589999999999999,0.000343,-36.369999,-20.18,-17.0,3b
2019-07-15_184617:640,-0.409271,-0.019318000000000002,-0.287231,-0.004,0.001842,0.000496,-36.0,-20.559998999999998,-17.68,3b
2019-07-15_184617:660,-0.40823400000000004,-0.019318000000000002,-0.287231,-0.004152,0.0019030000000000002,0.000404,-36.0,-20.559998999999998,-17.68,3b
2019-07-15_184617:680,-0.409271,-0.019806,-0.285706,-0.003817,0.002116,0.000465,-36.0,-20.559998999999998,-17.68,3b
2019-07-15_184617:700,-0.40823400000000004,-0.020325,-0.28674299999999997,-0.0036340000000000005,0.002239,0.000404,-37.18,-21.0,-17.75,3b
2019-07-15_184617:720,-0.409271,-0.019318000000000002,-0.285217,-0.003512,0.002513,0.000129,-37.18,-21.0,-17.75,3b
2019-07-15_184617:740,-0.40774499999999997,-0.020325,-0.285217,-0.0033280000000000002,0.002391,0.000221,-37.18,-21.0,-17.75,3b
2019-07-15_184617:760,-0.406738,-0.020325,-0.286224,-0.0031149999999999997,0.0024519999999999998,0.00016,-36.0,-21.370001000000002,-19.370001000000002,3b
2019-07-15_184617:780,-0.40976,-0.019318000000000002,-0.286224,-0.002779,0.002513,-0.00011499999999999999,-36.0,-21.370001000000002,-19.370001000000002,3b
2019-07-15_184617:800,-0.410797,-0.017273,-0.285217,-0.002657,0.002513,-0.00023700000000000001,-36.75,-21.370001000000002,-17.0,3b
2019-07-15_184617:820,-0.410797,-0.015747,-0.28369099999999997,-0.0028399999999999996,0.002757,0.00016,-36.75,-21.370001000000002,-17.0,3b
2019-07-15_184617:840,-0.408752,-0.015747,-0.28369099999999997,-0.0032979999999999997,0.0029100000000000003,0.000465,-36.75,-21.370001000000002,-17.0,3b
2019-07-15_184617:860,-0.404175,-0.017273,-0.282654,-0.004,0.002635,0.000984,-36.0,-21.0,-17.75,3b
2019-07-15_184617:880,-0.40368699999999996,-0.018799,-0.283173,-0.004549,0.002239,0.0008619999999999999,-36.0,-21.0,-17.75,3b
2019-07-15_184617:900,-0.40570100000000003,-0.023895,-0.28369099999999997,-0.004397,0.00172,0.000587,-36.369999,-21.0,-17.68,3b
2019-07-15_184617:920,-0.406219,-0.025908999999999998,-0.282654,-0.004,0.0012619999999999999,0.000343,-36.369999,-21.0,-17.68,3b
2019-07-15_184617:940,-0.40823400000000004,-0.024902,-0.28369099999999997,-0.0031149999999999997,0.0012619999999999999,-5.4000000000000005e-05,-36.369999,-21.0,-17.68,3b
2019-07-15_184617:960,-0.408752,-0.023895,-0.28418000000000004,-0.0022600000000000003,0.001201,-0.00023700000000000001,-36.369999,-21.68,-17.75,3b
2019-07-15_184617:980,-0.40774499999999997,-0.022858,-0.284698,-0.00165,0.001628,-0.000664,-36.369999,-21.68,-17.75,3b
2019-07-15_184618:000,-0.408752,-0.020844,-0.286224,-0.001314,0.001415,-0.0010609999999999999,-36.75,-21.0,-18.18,3b
2019-07-15_184618:020,-0.411804,-0.020325,-0.28418000000000004,-0.001375,0.0012619999999999999,-0.001,-36.75,-21.0,-18.18,3b
2019-07-15_184618:040,-0.410797,-0.01828,-0.285217,-0.0015890000000000001,0.0017809999999999998,-0.001854,-36.75,-21.0,-18.18,3b
2019-07-15_184618:060,-0.41333000000000003,-0.016753999999999998,-0.284698,-0.001864,0.0023,-0.0017629999999999998,-36.369999,-20.559998999999998,-17.370001000000002,3b
2019-07-15_184618:080,-0.41333000000000003,-0.017792,-0.284698,-0.001864,0.002696,0.000129,-36.369999,-20.559998999999998,-17.370001000000002,3b
2019-07-15_184618:100,-0.412811,-0.016266,-0.282654,-0.0022600000000000003,0.003246,-0.00023700000000000001,-36.369999,-19.870001000000002,-17.370001000000002,3b
2019-07-15_184618:120,-0.411285,-0.016266,-0.28112800000000004,-0.002779,0.00349,-0.001,-36.369999,-19.870001000000002,-17.370001000000002,3b
2019-07-15_184618:140,-0.40823400000000004,-0.016266,-0.28369099999999997,-0.002993,0.00349,-0.0012439999999999999,-36.369999,-19.870001000000002,-17.370001000000002,3b
2019-07-15_184618:160,-0.40823400000000004,-0.016753999999999998,-0.282654,-0.003237,0.003093,-0.00045099999999999996,-36.369999,-21.370001000000002,-16.5,3b
2019-07-15_184618:180,-0.40976,-0.019318000000000002,-0.281647,-0.0033280000000000002,0.0029100000000000003,7.000000000000001e-06,-36.369999,-21.370001000000002,-16.5,3b
2019-07-15_184618:200,-0.408752,-0.018799,-0.282654,-0.0032979999999999997,0.002696,-0.000267,-36.5,-21.370001000000002,-17.75,3b
2019-07-15_184618:220,-0.40774499999999997,-0.017792,-0.282166,-0.003176,0.002757,7.000000000000001e-06,-36.5,-21.370001000000002,-17.75,3b
2019-07-15_184618:240,-0.40774499999999997,-0.018799,-0.283173,-0.0031149999999999997,0.002513,0.000465,-36.5,-21.370001000000002,-17.75,3b
2019-07-15_184618:260,-0.40976,-0.018799,-0.282166,-0.003176,0.002116,0.00028199999999999997,-37.25,-21.0,-17.0,3b
2019-07-15_184618:280,-0.411285,-0.018799,-0.283173,-0.0029010000000000004,0.0019030000000000002,0.00016,-37.25,-21.0,-17.0,3b
2019-07-15_184618:300,-0.41333000000000003,-0.016266,-0.282166,-0.0028399999999999996,0.0023,-5.4000000000000005e-05,-36.5,-21.370001000000002,-18.5,3b
2019-07-15_184618:320,-0.41232299999999994,-0.013702,-0.28064,-0.0031149999999999997,0.002696,7.000000000000001e-06,-36.5,-21.370001000000002,-18.5,3b
2019-07-15_184618:340,-0.40976,-0.014740000000000001,-0.281647,-0.003573,0.0029100000000000003,0.001106,-36.5,-21.370001000000002,-18.5,3b
2019-07-15_184618:360,-0.410797,-0.015228,-0.28112800000000004,-0.004336,0.003093,0.0018989999999999999,-36.869999,-21.370001000000002,-17.0,3b
2019-07-15_184618:380,-0.40774499999999997,-0.019318000000000002,-0.282166,-0.005007,0.002635,0.0008619999999999999,-36.869999,-21.370001000000002,-17.0,3b
2019-07-15_184618:400,-0.40774499999999997,-0.019806,-0.28112800000000004,-0.005221,0.001994,0.000526,-36.5,-20.559998999999998,-17.75,3b
2019-07-15_184618:420,-0.40823400000000004,-0.022369,-0.279633,-0.004549,0.0019030000000000002,0.000923,-36.5,-20.559998999999998,-17.75,3b
2019-07-15_184618:440,-0.407227,-0.021851,-0.28112800000000004,-0.003878,0.001598,0.000831,-36.5,-20.559998999999998,-17.75,3b
2019-07-15_184618:460,-0.40823400000000004,-0.020325,-0.282166,-0.00339,0.0012619999999999999,0.000404,-35.369999,-20.18,-17.0,3b
2019-07-15_184618:480,-0.410797,-0.019318000000000002,-0.281647,-0.002932,0.001018,0.000343,-35.369999,-20.18,-17.0,3b
2019-07-15_184618:500,-0.414337,-0.017273,-0.283173,-0.003176,0.001292,7.000000000000001e-06,-37.560001,-20.559998999999998,-18.18,3b
2019-07-15_184618:520,-0.415375,-0.016753999999999998,-0.280121,-0.0031149999999999997,0.001842,0.00016,-37.560001,-20.559998999999998,-18.18,3b
2019-07-15_184618:540,-0.416382,-0.014740000000000001,-0.281647,-0.00339,0.002361,-0.00011499999999999999,-37.560001,-20.559998999999998,-18.18,3b
2019-07-15_184618:560,-0.414337,-0.013702,-0.282166,-0.003817,0.003093,0.00016,-35.369999,-21.0,-17.75,3b
2019-07-15_184618:580,-0.412811,-0.016266,-0.279633,-0.004152,0.003093,0.000465,-35.369999,-21.0,-17.75,3b
2019-07-15_184618:600,-0.414337,-0.016266,-0.279114,-0.00461,0.0031850000000000003,0.000465,-35.75,-21.0,-16.18,3b
2019-07-15_184618:620,-0.41232299999999994,-0.017792,-0.278107,-0.004732,0.00352,0.000709,-35.75,-21.0,-16.18,3b
2019-07-15_184618:640,-0.408752,-0.019806,-0.278107,-0.004824,0.003307,0.000496,-35.75,-21.0,-16.18,3b
2019-07-15_184618:660,-0.40823400000000004,-0.022858,-0.278595,-0.004275,0.002849,0.00028199999999999997,-36.869999,-21.370001000000002,-17.0,3b
2019-07-15_184618:680,-0.409271,-0.022858,-0.277588,-0.0036340000000000005,0.002361,0.000343,-36.869999,-21.370001000000002,-17.0,3b
2019-07-15_184618:700,-0.410797,-0.021332,-0.279633,-0.0029010000000000004,0.002055,0.000404,-36.869999,-20.559998999999998,-17.370001000000002,3b
2019-07-15_184618:720,-0.412811,-0.019806,-0.278595,-0.002443,0.001994,0.00028199999999999997,-36.869999,-20.559998999999998,-17.370001000000002,3b
2019-07-15_184618:740,-0.41384899999999997,-0.020844,-0.278595,-0.002169,0.002055,0.000129,-36.869999,-20.559998999999998,-17.370001000000002,3b
2019-07-15_184618:760,-0.414337,-0.017792,-0.279114,-0.002199,0.0024519999999999998,-0.00023700000000000001,-35.75,-21.0,-17.370001000000002,3b
2019-07-15_184618:780,-0.41333000000000003,-0.017273,-0.278595,-0.002382,0.002696,-0.00023700000000000001,-35.75,-21.0,-17.370001000000002,3b
2019-07-15_184618:800,-0.410797,-0.018799,-0.278107,-0.002657,0.002757,-0.000389,-36.5,-20.559998999999998,-17.0,3b
2019-07-15_184618:820,-0.412811,-0.01828,-0.277069,-0.0029010000000000004,0.0024519999999999998,-0.000328,-36.5,-20.559998999999998,-17.0,3b
2019-07-15_184618:840,-0.412811,-0.018799,-0.277588,-0.003176,0.002513,7.000000000000001e-06,-36.5,-20.559998999999998,-17.0,3b
2019-07-15_184618:860,-0.411804,-0.019806,-0.277588,-0.00339,0.002391,6.8e-05,-36.869999,-21.68,-18.18,3b
2019-07-15_184618:880,-0.41232299999999994,-0.020325,-0.277069,-0.0033280000000000002,0.002391,7.000000000000001e-06,-36.869999,-21.68,-18.18,3b
2019-07-15_184618:900,-0.41333000000000003,-0.018799,-0.278107,-0.0034509999999999996,0.002361,-5.4000000000000005e-05,-35.75,-21.0,-18.18,3b
2019-07-15_184618:920,-0.41384899999999997,-0.018799,-0.276581,-0.003176,0.0023,0.000129,-35.75,-21.0,-18.18,3b
2019-07-15_184618:940,-0.414337,-0.016753999999999998,-0.274536,-0.0031149999999999997,0.002177,0.000343,-35.75,-21.0,-18.18,3b
2019-07-15_184618:960,-0.415375,-0.016266,-0.277069,-0.0034509999999999996,0.002116,0.000923,-36.869999,-21.0,-17.68,3b
2019-07-15_184618:980,-0.418915,-0.016266,-0.283173,-0.003664,0.002055,0.001045,-36.869999,-21.0,-17.68,3b
2019-07-15_184619:000,-0.410797,-0.01828,-0.269958,-0.004,0.0031850000000000003,0.001045,-37.25,-21.370001000000002,-17.370001000000002,3b
2019-07-15_184619:020,-0.41232299999999994,-0.017792,-0.270966,-0.004213000000000001,0.0023,0.0021739999999999997,-37.25,-21.370001000000002,-17.370001000000002,3b
2019-07-15_184619:040,-0.41384899999999997,-0.020844,-0.275055,-0.004427,0.00172,0.002967,-37.25,-21.370001000000002,-17.370001000000002,3b
2019-07-15_184619:060,-0.41333000000000003,-0.021851,-0.275543,-0.004671,0.001537,0.001503,-36.060001,-20.559998999999998,-17.0,3b
2019-07-15_184619:080,-0.41485600000000006,-0.021851,-0.282654,-0.004336,0.001292,0.000526,-36.060001,-20.559998999999998,-17.0,3b
2019-07-15_184619:100,-0.411804,-0.021851,-0.279114,-0.00403,0.0014759999999999999,0.0008619999999999999,-36.5,-21.370001000000002,-17.370001000000002,3b
2019-07-15_184619:120,-0.41333000000000003,-0.023895,-0.278107,-0.003878,0.001415,0.002052,-36.5,-21.370001000000002,-17.370001000000002,3b
2019-07-15_184619:140,-0.412811,-0.023375999999999997,-0.277588,-0.0031149999999999997,0.001598,0.0021739999999999997,-36.5,-21.370001000000002,-17.370001000000002,3b
2019-07-15_184619:160,-0.411285,-0.019806,-0.277588,-0.002657,0.0016589999999999999,0.000648,-36.5,-21.0,-18.18,3b
2019-07-15_184619:180,-0.412811,-0.019318000000000002,-0.279114,-0.0020469999999999998,0.0014759999999999999,0.000129,-36.5,-21.0,-18.18,3b
2019-07-15_184619:200,-0.412811,-0.017273,-0.278107,-0.001864,0.0014759999999999999,-5.4000000000000005e-05,-36.869999,-21.0,-18.18,3b
2019-07-15_184619:220,-0.414337,-0.014740000000000001,-0.278595,-0.002321,0.001292,-5.4000000000000005e-05,-36.869999,-21.0,-18.18,3b
2019-07-15_184619:240,-0.41586300000000004,-0.014740000000000001,-0.279633,-0.0028399999999999996,0.001628,0.00028199999999999997,-36.869999,-21.0,-18.18,3b
2019-07-15_184619:260,-0.41586300000000004,-0.016266,-0.277588,-0.003573,0.0019030000000000002,7.000000000000001e-06,-37.18,-21.0,-16.5,3b
2019-07-15_184619:280,-0.41333000000000003,-0.01828,-0.28112800000000004,-0.004152,0.002116,0.000343,-37.18,-21.0,-16.5,3b
2019-07-15_184619:300,-0.417908,-0.018799,-0.28064,-0.004397,0.002116,0.0008619999999999999,-37.18,-21.370001000000002,-17.370001000000002,3b
2019-07-15_184619:320,-0.40774499999999997,-0.021851,-0.270477,-0.004549,0.002574,0.000496,-37.18,-21.370001000000002,-17.370001000000002,3b
2019-07-15_184619:340,-0.410278,-0.019806,-0.272491,-0.004488000000000001,0.001994,0.000221,-37.18,-21.370001000000002,-17.370001000000002,3b
2019-07-15_184619:360,-0.416382,-0.020325,-0.274017,-0.004152,0.001415,0.000923,-36.75,-20.559998999999998,-17.75,3b
2019-07-15_184619:380,-0.412811,-0.021332,-0.271484,-0.004091,0.001598,0.001442,-36.75,-20.559998999999998,-17.75,3b
2019-07-15_184619:400,-0.417908,-0.022369,-0.278107,-0.004336,0.001353,0.001167,-36.369999,-21.0,-17.75,3b
2019-07-15_184619:420,-0.41485600000000006,-0.021851,-0.27301,-0.004336,0.001415,0.001106,-36.369999,-21.0,-17.75,3b
2019-07-15_184619:440,-0.41333000000000003,-0.023375999999999997,-0.275055,-0.004336,0.001537,0.001045,-36.369999,-21.0,-17.75,3b
2019-07-15_184619:460,-0.412811,-0.022858,-0.274536,-0.004336,0.0012619999999999999,0.000526,-37.18,-21.370001000000002,-17.0,3b
2019-07-15_184619:480,-0.411285,-0.021332,-0.274017,-0.004275,0.001018,0.000465,-37.18,-21.370001000000002,-17.0,3b
2019-07-15_184619:500,-0.410797,-0.021851,-0.273529,-0.004275,0.000621,0.000404,-36.75,-21.370001000000002,-18.18,3b
2019-07-15_184619:520,-0.410278,-0.021851,-0.274536,-0.00403,-0.000172,0.000343,-36.75,-21.370001000000002,-18.18,3b
2019-07-15_184619:540,-0.412811,-0.023895,-0.276581,-0.003664,-0.0005690000000000001,0.000343,-36.75,-21.370001000000002,-18.18,3b
2019-07-15_184619:560,-0.41485600000000006,-0.021851,-0.278595,-0.003573,-0.000722,6.8e-05,-36.75,-21.370001000000002,-17.75,3b
2019-07-15_184619:580,-0.41485600000000006,-0.020844,-0.278107,-0.003176,-0.00044699999999999997,-0.00011499999999999999,-36.75,-21.370001000000002,-17.75,3b
2019-07-15_184619:600,-0.41333000000000003,-0.018799,-0.279114,-0.003054,1.1e-05,0.000129,-37.18,-20.559998999999998,-17.0,3b
2019-07-15_184619:620,-0.41232299999999994,-0.018799,-0.278595,-0.003237,-0.000172,6.8e-05,-37.18,-20.559998999999998,-17.0,3b
2019-07-15_184619:640,-0.411285,-0.01828,-0.281647,-0.0037560000000000002,-0.000386,7.000000000000001e-06,-37.18,-20.559998999999998,-17.0,3b
2019-07-15_184619:660,-0.411285,-0.019318000000000002,-0.279633,-0.004,-0.000233,-0.00023700000000000001,-37.18,-21.68,-17.0,3b
2019-07-15_184619:680,-0.41232299999999994,-0.019806,-0.28064,-0.00403,-0.000325,-0.000725,-37.18,-21.68,-17.0,3b
2019-07-15_184619:700,-0.414337,-0.019806,-0.282166,-0.0037560000000000002,-0.000172,-0.000634,-36.0,-21.0,-16.5,3b
2019-07-15_184619:720,-0.412811,-0.018799,-0.282166,-0.003573,0.00022400000000000002,-0.000328,-36.0,-21.0,-16.5,3b
2019-07-15_184619:740,-0.410797,-0.017792,-0.284698,-0.0031149999999999997,0.000743,6.8e-05,-36.0,-21.0,-16.5,3b
2019-07-15_184619:760,-0.408752,-0.017273,-0.282654,-0.003054,0.0009570000000000001,0.000404,-37.5,-21.0,-17.75,3b
2019-07-15_184619:780,-0.409271,-0.017273,-0.282654,-0.0031149999999999997,0.000621,0.000648,-37.5,-21.0,-17.75,3b
2019-07-15_184619:800,-0.410797,-0.017792,-0.284698,-0.00339,0.000621,0.000831,-36.369999,-21.370001000000002,-18.18,3b
2019-07-15_184619:820,-0.409271,-0.016753999999999998,-0.285217,-0.003817,0.0008960000000000001,0.0008619999999999999,-36.369999,-21.370001000000002,-18.18,3b
2019-07-15_184619:840,-0.410797,-0.019806,-0.284698,-0.004213000000000001,0.000743,0.000831,-36.369999,-21.370001000000002,-18.18,3b
2019-07-15_184619:860,-0.411285,-0.022369,-0.284698,-0.004275,0.0010789999999999999,0.000221,-36.0,-21.0,-17.370001000000002,3b
2019-07-15_184619:880,-0.410278,-0.024384,-0.285217,-0.00403,0.0012619999999999999,6.8e-05,-36.0,-21.0,-17.370001000000002,3b
2019-07-15_184619:900,-0.410278,-0.024384,-0.283173,-0.003573,0.001598,-0.000328,-36.75,-21.0,-17.370001000000002,3b
2019-07-15_184619:920,-0.409271,-0.024384,-0.282654,-0.002932,0.00172,-0.000908,-36.75,-21.0,-17.370001000000002,3b
2019-07-15_184619:940,-0.40774499999999997,-0.024384,-0.282654,-0.002382,0.0016589999999999999,-0.0013050000000000002,-36.75,-21.0,-17.370001000000002,3b
2019-07-15_184619:960,-0.410797,-0.022858,-0.281647,-0.001772,0.001292,-0.002251,-37.5,-21.370001000000002,-17.75,3b
2019-07-15_184619:980,-0.409271,-0.022369,-0.28112800000000004,-0.001467,0.001292,-0.00216,-37.5,-21.370001000000002,-17.75,3b
2019-07-15_184620:000,-0.406738,-0.020325,-0.280121,-0.00107,0.0009570000000000001,-0.002587,-36.369999,-20.559998999999998,-17.75,3b
2019-07-15_184620:020,-0.40976,-0.020844,-0.279114,-0.0009789999999999998,0.000621,-0.003899,-36.369999,-20.559998999999998,-17.75,3b
2019-07-15_184620:040,-0.40976,-0.019318000000000002,-0.28064,-0.000643,0.000346,-0.005303,-36.369999,-20.559998999999998,-17.75,3b
2019-07-15_184620:060,-0.411285,-0.016266,-0.28064,-0.000338,7.2e-05,-0.005822,-36.369999,-21.0,-17.370001000000002,3b
2019-07-15_184620:080,-0.411285,-0.015228,-0.281647,0.00011999999999999999,-5e-05,-0.004021,-36.369999,-21.0,-17.370001000000002,3b
2019-07-15_184620:100,-0.40823400000000004,-0.015228,-0.283173,0.00011999999999999999,0.000133,-0.002373,-36.0,-21.68,-18.18,3b
2019-07-15_184620:120,-0.40823400000000004,-0.015228,-0.281647,0.00048600000000000005,1.1e-05,-0.001397,-36.0,-21.68,-18.18,3b
2019-07-15_184620:140,-0.407227,-0.014740000000000001,-0.28369099999999997,0.000669,-0.00011100000000000001,-0.00045099999999999996,-36.0,-21.68,-18.18,3b
2019-07-15_184620:160,-0.406219,-0.016266,-0.285217,0.000669,-0.000386,-5.4000000000000005e-05,-36.0,-21.370001000000002,-16.18,3b
2019-07-15_184620:180,-0.404175,-0.014221000000000001,-0.285217,0.00045599999999999997,-0.000722,-0.000786,-36.0,-21.370001000000002,-16.18,3b
2019-07-15_184620:200,-0.40570100000000003,-0.014740000000000001,-0.286224,-0.000338,-0.001637,-0.00158,-36.75,-21.0,-18.18,3b
2019-07-15_184620:220,-0.407227,-0.014221000000000001,-0.285217,-0.00045999999999999996,-0.001698,-0.0017929999999999999,-36.75,-21.0,-18.18,3b
2019-07-15_184620:240,-0.40774499999999997,-0.015228,-0.284698,-0.001009,-0.001576,-0.0019760000000000003,-36.75,-21.0,-18.18,3b
2019-07-15_184620:260,-0.40823400000000004,-0.015747,-0.28674299999999997,-0.001253,-0.001515,-0.002037,-36.0,-21.68,-17.0,3b
2019-07-15_184620:280,-0.406738,-0.017273,-0.284698,-0.001467,-0.001576,-0.002648,-36.0,-21.68,-17.0,3b
2019-07-15_184620:300,-0.406738,-0.014740000000000001,-0.285217,-0.001375,-0.001698,-0.001702,-36.75,-21.68,-18.18,3b
2019-07-15_184620:320,-0.404175,-0.015228,-0.286224,-0.0015890000000000001,-0.001973,-0.000634,-36.75,-21.68,-18.18,3b
2019-07-15_184620:340,-0.410797,-0.014740000000000001,-0.28775,-0.001864,-0.001912,-0.00023700000000000001,-36.75,-21.68,-18.18,3b
2019-07-15_184620:360,-0.410797,-0.015228,-0.291321,-0.0021079999999999996,-0.001179,0.000343,-36.0,-21.0,-17.68,3b
2019-07-15_184620:380,-0.411804,-0.013702,-0.29232800000000003,-0.0025960000000000002,1.1e-05,0.0007700000000000001,-36.0,-21.0,-17.68,3b
2019-07-15_184620:400,-0.40823400000000004,-0.015228,-0.29180900000000004,-0.003176,0.000499,0.000404,-35.25,-21.68,-19.0,3b
2019-07-15_184620:420,-0.408752,-0.013702,-0.290802,-0.003573,0.0008960000000000001,0.000496,-35.25,-21.68,-19.0,3b
2019-07-15_184620:440,-0.405212,-0.016266,-0.28875700000000004,-0.00403,0.001292,0.000648,-35.25,-21.68,-19.0,3b
2019-07-15_184620:460,-0.401642,-0.017273,-0.288269,-0.004397,0.000865,0.00016,-35.68,-21.68,-19.370001000000002,3b
2019-07-15_184620:480,-0.397064,-0.018799,-0.286224,-0.004275,0.00022400000000000002,0.000129,-35.68,-21.68,-19.370001000000002,3b
2019-07-15_184620:500,-0.399109,-0.019806,-0.286224,-0.004213000000000001,-0.0008439999999999999,7.000000000000001e-06,-35.68,-21.370001000000002,-18.5,3b
2019-07-15_184620:520,-0.397064,-0.019318000000000002,-0.285706,-0.003664,-0.002248,-0.00011499999999999999,-35.68,-21.370001000000002,-18.5,3b
2019-07-15_184620:540,-0.40011599999999997,-0.017792,-0.28875700000000004,-0.003573,-0.003285,0.000129,-35.68,-21.370001000000002,-18.5,3b
2019-07-15_184620:560,-0.406219,-0.018799,-0.29180900000000004,-0.0033280000000000002,-0.0037119999999999996,0.000129,-36.0,-21.370001000000002,-18.5,3b
2019-07-15_184620:580,-0.411804,-0.017273,-0.291321,-0.0031149999999999997,-0.003041,0.000465,-36.0,-21.370001000000002,-18.5,3b
2019-07-15_184620:600,-0.414337,-0.016753999999999998,-0.295898,-0.003176,-0.001759,0.00028199999999999997,-36.369999,-21.370001000000002,-19.370001000000002,3b
2019-07-15_184620:620,-0.411804,-0.015747,-0.296387,-0.0033280000000000002,-0.000172,0.000587,-36.369999,-21.370001000000002,-19.370001000000002,3b
2019-07-15_184620:640,-0.409271,-0.016266,-0.297913,-0.003664,0.0008039999999999999,0.000831,-36.369999,-21.370001000000002,-19.370001000000002,3b
2019-07-15_184620:660,-0.406219,-0.016266,-0.296906,-0.003878,0.00172,0.000465,-34.869999,-21.370001000000002,-17.68,3b
2019-07-15_184620:680,-0.406219,-0.016753999999999998,-0.296906,-0.003939,0.002635,0.000526,-34.869999,-21.370001000000002,-17.68,3b
2019-07-15_184620:700,-0.406738,-0.01828,-0.295898,-0.004,0.003032,0.000831,-35.25,-21.370001000000002,-19.68,3b
2019-07-15_184620:720,-0.404694,-0.017792,-0.294373,-0.003939,0.003703,0.000343,-35.25,-21.370001000000002,-19.68,3b
2019-07-15_184620:740,-0.40316799999999997,-0.017273,-0.29232800000000003,-0.004,0.003917,0.000343,-35.25,-21.370001000000002,-19.68,3b
2019-07-15_184620:760,-0.401642,-0.016753999999999998,-0.291321,-0.003939,0.00352,6.8e-05,-35.25,-21.0,-19.370001000000002,3b
2019-07-15_184620:780,-0.401123,-0.014740000000000001,-0.28875700000000004,-0.004213000000000001,0.003307,6.8e-05,-35.25,-21.0,-19.370001000000002,3b
2019-07-15_184620:800,-0.402161,-0.013702,-0.28927600000000003,-0.004427,0.002757,0.000404,-36.5,-21.68,-18.5,3b
2019-07-15_184620:820,-0.404694,-0.014221000000000001,-0.28875700000000004,-0.004549,0.0024519999999999998,0.00028199999999999997,-36.5,-21.68,-18.5,3b
2019-07-15_184620:840,-0.404694,-0.016266,-0.290802,-0.004549,0.002574,-5.4000000000000005e-05,-36.5,-21.68,-18.5,3b
2019-07-15_184620:860,-0.40570100000000003,-0.016753999999999998,-0.293854,-0.004488000000000001,0.002757,0.000343,-35.369999,-21.68,-18.5,3b
2019-07-15_184620:880,-0.405212,-0.01828,-0.293854,-0.004275,0.0029100000000000003,7.000000000000001e-06,-35.369999,-21.68,-18.5,3b
2019-07-15_184620:900,-0.40774499999999997,-0.015228,-0.290802,-0.004,0.003307,6.8e-05,-35.369999,-21.68,-19.0,3b
2019-07-15_184620:920,-0.40976,-0.016266,-0.29180900000000004,-0.0033280000000000002,0.003703,0.001838,-35.369999,-21.68,-19.0,3b
2019-07-15_184620:940,-0.405212,-0.016266,-0.29180900000000004,-0.0033280000000000002,0.004222,0.000923,-35.369999,-21.68,-19.0,3b
2019-07-15_184620:960,-0.404694,-0.015228,-0.290283,-0.0033280000000000002,0.00471,6.8e-05,-35.75,-22.5,-18.5,3b
2019-07-15_184620:980,-0.40316799999999997,-0.015747,-0.28927600000000003,-0.00339,0.004436,-0.0009689999999999999,-35.75,-22.5,-18.5,3b
2019-07-15_184621:000,-0.40368699999999996,-0.013702,-0.28927600000000003,-0.00339,0.0041,-0.000634,-35.369999,-22.059998999999998,-19.0,3b
2019-07-15_184621:020,-0.405212,-0.014221000000000001,-0.287231,-0.0034509999999999996,0.003886,0.000343,-35.369999,-22.059998999999998,-19.0,3b
2019-07-15_184621:040,-0.407227,-0.014221000000000001,-0.287231,-0.003512,0.004039,0.00016,-35.369999,-22.059998999999998,-19.0,3b
2019-07-15_184621:060,-0.405212,-0.012695,-0.28674299999999997,-0.003664,0.0042829999999999995,0.00016,-35.75,-21.68,-17.370001000000002,3b
2019-07-15_184621:080,-0.40570100000000003,-0.012695,-0.286224,-0.003817,0.004222,0.000709,-35.75,-21.68,-17.370001000000002,3b
2019-07-15_184621:100,-0.406219,-0.014740000000000001,-0.28775,-0.003939,0.004039,0.000648,-35.75,-21.68,-18.18,3b
2019-07-15_184621:120,-0.406219,-0.016266,-0.28775,-0.003939,0.003703,0.000831,-35.75,-21.68,-18.18,3b
2019-07-15_184621:140,-0.404694,-0.016753999999999998,-0.288269,-0.003939,0.00352,0.000343,-35.75,-21.68,-18.18,3b
2019-07-15_184621:160,-0.406738,-0.018799,-0.288269,-0.003817,0.00349,-0.000267,-36.060001,-22.5,-18.18,3b
2019-07-15_184621:180,-0.40570100000000003,-0.017273,-0.287231,-0.003176,0.0035810000000000004,0.00028199999999999997,-36.060001,-22.5,-18.18,3b
2019-07-15_184621:200,-0.406219,-0.016753999999999998,-0.288269,-0.002932,0.0034289999999999998,0.0007700000000000001,-36.5,-21.68,-17.370001000000002,3b
2019-07-15_184621:220,-0.407227,-0.015228,-0.286224,-0.0025960000000000002,0.003307,0.00016,-36.5,-21.68,-17.370001000000002,3b
2019-07-15_184621:240,-0.40823400000000004,-0.013213999999999998,-0.286224,-0.002382,0.003307,6.8e-05,-36.5,-21.68,-17.370001000000002,3b
2019-07-15_184621:260,-0.411285,-0.014221000000000001,-0.285217,-0.0025960000000000002,0.003368,0.000923,-35.75,-21.0,-17.68,3b
2019-07-15_184621:280,-0.410278,-0.013213999999999998,-0.28418000000000004,-0.0029010000000000004,0.0035810000000000004,0.0008619999999999999,-35.75,-21.0,-17.68,3b
2019-07-15_184621:300,-0.410278,-0.014740000000000001,-0.28369099999999997,-0.003054,0.003703,0.000923,-36.5,-21.370001000000002,-17.68,3b
2019-07-15_184621:320,-0.410278,-0.014221000000000001,-0.282654,-0.003054,0.0036420000000000003,0.001106,-36.5,-21.370001000000002,-17.68,3b
2019-07-15_184621:340,-0.409271,-0.015228,-0.28112800000000004,-0.0032979999999999997,0.00352,0.001167,-36.5,-21.370001000000002,-17.68,3b
2019-07-15_184621:360,-0.410797,-0.014221000000000001,-0.28112800000000004,-0.0034509999999999996,0.003307,0.00132,-36.060001,-21.68,-17.68,3b
2019-07-15_184621:380,-0.408752,-0.014740000000000001,-0.279633,-0.003573,0.00349,0.001716,-36.060001,-21.68,-17.68,3b
2019-07-15_184621:400,-0.40976,-0.014740000000000001,-0.280121,-0.003878,0.002849,0.001442,-36.060001,-21.370001000000002,-17.0,3b
2019-07-15_184621:420,-0.41232299999999994,-0.015747,-0.279633,-0.00403,0.002696,0.001564,-36.060001,-21.370001000000002,-17.0,3b
2019-07-15_184621:440,-0.414337,-0.014740000000000001,-0.28112800000000004,-0.004397,0.002696,0.001625,-36.060001,-21.370001000000002,-17.0,3b
2019-07-15_184621:460,-0.411285,-0.016753999999999998,-0.280121,-0.004549,0.002788,0.001625,-36.060001,-21.370001000000002,-19.0,3b
2019-07-15_184621:480,-0.411285,-0.017273,-0.279114,-0.004671,0.002849,0.001991,-36.060001,-21.370001000000002,-19.0,3b
2019-07-15_184621:500,-0.410278,-0.017792,-0.279114,-0.004549,0.002757,0.00251,-36.5,-21.68,-17.0,3b
2019-07-15_184621:520,-0.411285,-0.016753999999999998,-0.278595,-0.004427,0.0024519999999999998,0.002449,-36.5,-21.68,-17.0,3b
2019-07-15_184621:540,-0.411285,-0.017273,-0.279114,-0.004549,0.0023,0.002693,-36.5,-21.68,-17.0,3b
2019-07-15_184621:560,-0.410797,-0.017792,-0.279114,-0.004549,0.002391,0.002693,-36.060001,-21.0,-18.5,3b
2019-07-15_184621:580,-0.410797,-0.019318000000000002,-0.278107,-0.004732,0.0024519999999999998,0.0026320000000000002,-36.060001,-21.0,-18.5,3b
2019-07-15_184621:600,-0.40774499999999997,-0.020325,-0.279114,-0.004732,0.002239,0.0021739999999999997,-36.060001,-21.68,-19.0,3b
2019-07-15_184621:620,-0.40823400000000004,-0.021332,-0.277069,-0.004549,0.0016589999999999999,0.001564,-36.060001,-21.68,-19.0,3b
2019-07-15_184621:640,-0.408752,-0.022858,-0.277588,-0.004213000000000001,0.0014759999999999999,0.001258,-36.060001,-21.68,-19.0,3b
2019-07-15_184621:660,-0.411285,-0.020325,-0.278595,-0.004,0.0009570000000000001,0.000923,-35.75,-20.559998999999998,-18.18,3b
2019-07-15_184621:680,-0.408752,-0.01828,-0.28064,-0.00403,0.001018,0.000984,-35.75,-20.559998999999998,-18.18,3b
2019-07-15_184621:700,-0.41485600000000006,-0.020325,-0.28775,-0.004213000000000001,0.000682,0.000984,-36.5,-21.68,-18.18,3b
2019-07-15_184621:720,-0.416382,-0.018799,-0.28112800000000004,-0.004488000000000001,0.001292,0.000465,-36.5,-21.68,-18.18,3b
2019-07-15_184621:740,-0.412811,-0.020325,-0.28064,-0.003939,0.0014759999999999999,0.000709,-36.5,-21.68,-18.18,3b
2019-07-15_184621:760,-0.411285,-0.020844,-0.279114,-0.0034509999999999996,0.001842,0.000709,-36.869999,-21.68,-18.18,3b
2019-07-15_184621:780,-0.41384899999999997,-0.019318000000000002,-0.283173,-0.00339,0.00172,0.000923,-36.869999,-21.68,-18.18,3b
2019-07-15_184621:800,-0.411285,-0.020325,-0.283173,-0.003237,0.002116,0.00132,-36.869999,-20.559998999999998,-18.5,3b
2019-07-15_184621:820,-0.40976,-0.021332,-0.282166,-0.0033280000000000002,0.002116,0.0007700000000000001,-36.869999,-20.559998999999998,-18.5,3b
2019-07-15_184621:840,-0.408752,-0.019806,-0.28064,-0.0033280000000000002,0.0023,0.000404,-36.869999,-20.559998999999998,-18.5,3b
2019-07-15_184621:860,-0.408752,-0.020844,-0.278595,-0.0033280000000000002,0.001964,0.001442,-35.75,-21.370001000000002,-18.5,3b
2019-07-15_184621:880,-0.406219,-0.022369,-0.28064,-0.003512,0.001353,0.000831,-35.75,-21.370001000000002,-18.5,3b
2019-07-15_184621:900,-0.41384899999999997,-0.020844,-0.288269,-0.0033280000000000002,0.000407,-0.000512,-36.5,-21.68,-17.370001000000002,3b
2019-07-15_184621:920,-0.40570100000000003,-0.022369,-0.279633,-0.003176,0.000407,-0.001519,-36.5,-21.68,-17.370001000000002,3b
2019-07-15_184621:940,-0.410797,-0.018799,-0.276581,-0.0028399999999999996,-0.000264,-0.001366,-36.5,-21.68,-17.370001000000002,3b
2019-07-15_184621:960,-0.406738,-0.018799,-0.280121,-0.001986,-0.000172,-0.000267,-36.869999,-22.059998999999998,-17.68,3b
2019-07-15_184621:980,-0.410797,-0.016753999999999998,-0.279114,-0.002169,1.1e-05,7.000000000000001e-06,-36.869999,-22.059998999999998,-17.68,3b
2019-07-15_184622:000,-0.414337,-0.016266,-0.284698,-0.002443,-0.00011100000000000001,0.000221,-36.869999,-21.370001000000002,-17.370001000000002,3b
2019-07-15_184622:020,-0.41384899999999997,-0.017792,-0.285217,-0.003054,0.000865,0.000984,-36.869999,-21.370001000000002,-17.370001000000002,3b
2019-07-15_184622:040,-0.412811,-0.017273,-0.285217,-0.003878,0.0012619999999999999,0.001503,-36.869999,-21.370001000000002,-17.370001000000002,3b
2019-07-15_184622:060,-0.410797,-0.020844,-0.284698,-0.004336,0.001537,0.001777,-35.369999,-21.68,-18.18,3b
2019-07-15_184622:080,-0.410797,-0.023375999999999997,-0.28418000000000004,-0.004732,0.001842,0.001503,-35.369999,-21.68,-18.18,3b
2019-07-15_184622:100,-0.411285,-0.024384,-0.28369099999999997,-0.004732,0.00172,0.001106,-36.5,-20.559998999999998,-18.18,3b
2019-07-15_184622:120,-0.40976,-0.024384,-0.28369099999999997,-0.00461,0.001994,0.000984,-36.5,-20.559998999999998,-18.18,3b
2019-07-15_184622:140,-0.40976,-0.023375999999999997,-0.28418000000000004,-0.004152,0.002116,0.001167,-36.5,-20.559998999999998,-18.18,3b
2019-07-15_184622:160,-0.40976,-0.025421,-0.285217,-0.0037560000000000002,0.002177,0.00028199999999999997,-36.869999,-21.0,-19.0,3b
2019-07-15_184622:180,-0.409271,-0.021851,-0.285217,-0.0037560000000000002,0.0019030000000000002,-0.000725,-36.869999,-21.0,-19.0,3b
2019-07-15_184622:200,-0.410797,-0.022858,-0.284698,-0.003512,0.002239,-0.00045099999999999996,-36.5,-20.18,-19.0,3b
2019-07-15_184622:220,-0.409271,-0.021851,-0.28418000000000004,-0.003512,0.002177,-0.000664,-36.5,-20.18,-19.0,3b
2019-07-15_184622:240,-0.410797,-0.020844,-0.284698,-0.003512,0.0024519999999999998,-0.0008470000000000001,-36.5,-20.18,-19.0,3b
2019-07-15_184622:260,-0.40976,-0.018799,-0.282166,-0.003512,0.0023,-0.000725,-36.060001,-21.68,-17.68,3b
2019-07-15_184622:280,-0.410797,-0.018799,-0.283173,-0.003573,0.002513,-0.000389,-36.060001,-21.68,-17.68,3b
2019-07-15_184622:300,-0.410278,-0.017273,-0.282166,-0.003817,0.002574,-0.000267,-36.869999,-21.370001000000002,-18.5,3b
2019-07-15_184622:320,-0.40976,-0.01828,-0.28112800000000004,-0.004091,0.002635,-5.4000000000000005e-05,-36.869999,-21.370001000000002,-18.5,3b
2019-07-15_184622:340,-0.40976,-0.017792,-0.282654,-0.004336,0.002391,6.8e-05,-36.869999,-21.370001000000002,-18.5,3b
2019-07-15_184622:360,-0.408752,-0.017273,-0.282654,-0.004488000000000001,0.002055,6.8e-05,-36.5,-21.0,-18.870001000000002,3b
2019-07-15_184622:380,-0.408752,-0.019318000000000002,-0.28112800000000004,-0.004427,0.001994,7.000000000000001e-06,-36.5,-21.0,-18.870001000000002,3b
2019-07-15_184622:400,-0.411285,-0.019806,-0.282166,-0.004397,0.002055,7.000000000000001e-06,-36.869999,-22.059998999999998,-18.18,3b
2019-07-15_184622:420,-0.410797,-0.01828,-0.282654,-0.004275,0.002177,7.000000000000001e-06,-36.869999,-22.059998999999998,-18.18,3b
2019-07-15_184622:440,-0.409271,-0.01828,-0.282654,-0.004091,0.001842,-0.00011499999999999999,-36.869999,-22.059998999999998,-18.18,3b
2019-07-15_184622:460,-0.40976,-0.018799,-0.282654,-0.003817,0.0017809999999999998,-0.000176,-35.75,-21.370001000000002,-17.370001000000002,3b
2019-07-15_184622:480,-0.410797,-0.01828,-0.281647,-0.0036340000000000005,0.0019030000000000002,-0.00011499999999999999,-35.75,-21.370001000000002,-17.370001000000002,3b
2019-07-15_184622:500,-0.410797,-0.016753999999999998,-0.282166,-0.0036340000000000005,0.0019030000000000002,-0.000176,-37.25,-21.370001000000002,-18.18,3b
2019-07-15_184622:520,-0.411804,-0.016266,-0.281647,-0.003573,0.001628,6.8e-05,-37.25,-21.370001000000002,-18.18,3b
2019-07-15_184622:540,-0.410278,-0.016753999999999998,-0.28064,-0.0034509999999999996,0.001628,0.000343,-37.25,-21.370001000000002,-18.18,3b
2019-07-15_184622:560,-0.410797,-0.016753999999999998,-0.281647,-0.0036950000000000004,0.0017809999999999998,0.000404,-36.060001,-21.0,-18.18,3b
2019-07-15_184622:580,-0.410278,-0.016266,-0.277588,-0.0037560000000000002,0.0016589999999999999,0.000465,-36.060001,-21.0,-18.18,3b
2019-07-15_184622:600,-0.40823400000000004,-0.016753999999999998,-0.279633,-0.003939,0.001292,0.000526,-36.060001,-21.68,-17.68,3b
2019-07-15_184622:620,-0.408752,-0.017273,-0.28064,-0.003939,0.0009570000000000001,0.0007700000000000001,-36.060001,-21.68,-17.68,3b
2019-07-15_184622:640,-0.410797,-0.017792,-0.281647,-0.004213000000000001,0.000865,0.000831,-36.060001,-21.68,-17.68,3b
2019-07-15_184622:660,-0.411804,-0.019318000000000002,-0.282166,-0.003939,0.000865,0.000648,-36.5,-20.18,-17.68,3b
2019-07-15_184622:680,-0.41333000000000003,-0.018799,-0.28112800000000004,-0.003939,0.0012619999999999999,0.000465,-36.5,-20.18,-17.68,3b
2019-07-15_184622:700,-0.41384899999999997,-0.019806,-0.283173,-0.0037560000000000002,0.001628,0.00028199999999999997,-36.060001,-21.370001000000002,-18.18,3b
2019-07-15_184622:720,-0.415375,-0.020325,-0.28369099999999997,-0.00339,0.001994,0.000221,-36.060001,-21.370001000000002,-18.18,3b
2019-07-15_184622:740,-0.412811,-0.018799,-0.28369099999999997,-0.003237,0.0024519999999999998,6.8e-05,-36.060001,-21.370001000000002,-18.18,3b
2019-07-15_184622:760,-0.411285,-0.01828,-0.28418000000000004,-0.002932,0.002788,6.8e-05,-36.060001,-20.559998999999998,-17.370001000000002,3b
2019-07-15_184622:780,-0.40976,-0.016753999999999998,-0.282654,-0.0032979999999999997,0.002788,6.8e-05,-36.060001,-20.559998999999998,-17.370001000000002,3b
2019-07-15_184622:800,-0.411804,-0.016266,-0.28112800000000004,-0.003237,0.002971,0.00028199999999999997,-35.75,-21.370001000000002,-17.0,3b
2019-07-15_184622:820,-0.410278,-0.01828,-0.279114,-0.0034509999999999996,0.0029100000000000003,0.00016,-35.75,-21.370001000000002,-17.0,3b
2019-07-15_184622:840,-0.410797,-0.014740000000000001,-0.277588,-0.0036340000000000005,0.0029100000000000003,0.0008619999999999999,-35.75,-21.370001000000002,-17.0,3b
