timestamp,AccX,AccY,AccZ,GyroX,GyroY,GyroZ,MagX,MagY,MagZ,Activity
2019-07-15_185551:840,-0.414337,-0.020844,-0.298431,0.009977,-0.004903,-0.002373,-29.25,-24.18,-18.059998999999998,2d
2019-07-15_185551:860,-0.42401099999999997,-0.012695,-0.296387,0.014158,-0.002888,-0.0037159999999999997,-29.25,-23.870001000000002,-18.870001000000002,2d
2019-07-15_185551:880,-0.42401099999999997,0.004059,-0.29284699999999997,0.015928,0.000285,-0.00515,-29.25,-23.870001000000002,-18.870001000000002,2d
2019-07-15_185551:900,-0.415375,0.008636,-0.290283,0.015013,0.002361,-0.004052,-29.25,-23.870001000000002,-18.870001000000002,2d
2019-07-15_185551:920,-0.409271,0.012695,-0.285217,0.013028999999999999,0.00352,-0.002983,-28.18,-23.870001000000002,-18.870001000000002,2d
2019-07-15_185551:940,-0.406219,0.017273,-0.282166,0.009214,0.00349,-0.003655,-28.18,-23.870001000000002,-18.870001000000002,2d
2019-07-15_185551:960,-0.40368699999999996,0.017273,-0.28418000000000004,0.004301,0.002788,-0.0008470000000000001,-28.5,-23.870001000000002,-18.870001000000002,2d
2019-07-15_185551:980,-0.40316799999999997,0.011169,-0.284698,-0.0009789999999999998,0.001842,0.001106,-28.5,-23.870001000000002,-18.870001000000002,2d
2019-07-15_185552:000,-0.40316799999999997,0.007599,-0.28775,-0.005922,0.001353,0.001106,-28.5,-23.870001000000002,-18.870001000000002,2d
2019-07-15_185552:020,-0.394012,0.001007,-0.293854,-0.009859,0.0010789999999999999,0.001564,-28.870001000000002,-23.5,-17.25,2d
2019-07-15_185552:040,-0.405212,-0.005065999999999999,-0.293335,-0.011965,-0.00011100000000000001,0.000465,-28.870001000000002,-23.5,-17.25,2d
2019-07-15_185552:060,-0.41586300000000004,-0.004059,-0.285706,-0.012789,7.2e-05,-0.001366,-27.75,-23.870001000000002,-19.25,2d
2019-07-15_185552:080,-0.408752,-0.0030210000000000002,-0.283173,-0.012758,0.000865,-0.00045099999999999996,-27.75,-23.870001000000002,-19.25,2d
2019-07-15_185552:100,-0.404175,-0.002014,-0.284698,-0.012514,0.0012619999999999999,7.000000000000001e-06,-27.75,-23.870001000000002,-19.25,2d
2019-07-15_185552:120,-0.40368699999999996,0.000488,-0.28369099999999997,-0.011965,0.000621,-0.000389,-28.5,-24.559998999999998,-19.68,2d
2019-07-15_185552:140,-0.406738,0.0,-0.28369099999999997,-0.011446,0.000285,0.000648,-28.5,-24.559998999999998,-19.68,2d
2019-07-15_185552:160,-0.408752,-0.002014,-0.286224,-0.010927,0.000468,0.0029059999999999997,-28.5,-23.5,-18.5,2d
2019-07-15_185552:180,-0.399597,-0.001007,-0.287231,-0.010714,0.000682,0.004707,-28.5,-23.5,-18.5,2d
2019-07-15_185552:200,-0.397064,-0.001495,-0.28979499999999997,-0.010927,0.000285,0.004951,-28.5,-23.5,-18.5,2d
2019-07-15_185552:220,-0.393005,-0.0030210000000000002,-0.290802,-0.010714,-5e-05,0.004646,-28.870001000000002,-24.18,-18.5,2d
2019-07-15_185552:240,-0.392487,-0.000488,-0.294373,-0.009585,-0.001057,0.003242,-28.870001000000002,-24.18,-18.5,2d
2019-07-15_185552:260,-0.397064,0.005065999999999999,-0.291321,-0.009524,-0.002187,0.001655,-28.5,-24.559998999999998,-20.059998999999998,2d
2019-07-15_185552:280,-0.390442,0.007599,-0.290283,-0.009463,-0.002522,0.0021739999999999997,-28.5,-24.559998999999998,-20.059998999999998,2d
2019-07-15_185552:300,-0.38739,0.008636,-0.290802,-0.010439,-0.004109000000000001,0.002967,-28.5,-24.559998999999998,-20.059998999999998,2d
2019-07-15_185552:320,-0.379791,0.008636,-0.293854,-0.010714,-0.006551,0.00251,-28.870001000000002,-24.559998999999998,-18.5,2d
2019-07-15_185552:340,-0.374695,0.009644,-0.294373,-0.010775,-0.009145,0.001625,-28.870001000000002,-24.559998999999998,-18.5,2d
2019-07-15_185552:360,-0.388428,0.009644,-0.295898,-0.010439,-0.012013,0.000404,-28.870001000000002,-24.559998999999998,-18.059998999999998,2d
2019-07-15_185552:380,-0.392487,0.014221000000000001,-0.28927600000000003,-0.010256,-0.013112,0.001381,-28.870001000000002,-24.559998999999998,-18.059998999999998,2d
2019-07-15_185552:400,-0.374695,0.007111,-0.295898,-0.010134,-0.015858,0.004554,-28.870001000000002,-24.559998999999998,-18.059998999999998,2d
2019-07-15_185552:420,-0.367584,0.008118,-0.297913,-0.009737,-0.019612,0.007148000000000001,-29.25,-25.0,-19.68,2d
2019-07-15_185552:440,-0.36554000000000003,0.007111,-0.296387,-0.009798000000000001,-0.023488,0.009590000000000001,-29.25,-25.0,-19.68,2d
2019-07-15_185552:460,-0.365021,0.006592,-0.293854,-0.010134,-0.027516000000000002,0.011726,-27.5,-25.0,-18.870001000000002,2d
2019-07-15_185552:480,-0.368591,0.009644,-0.29538000000000003,-0.011323999999999999,-0.031361,0.013374,-27.5,-25.0,-18.870001000000002,2d
2019-07-15_185552:500,-0.385864,0.008636,-0.311646,-0.013247,-0.032307,0.014656,-27.5,-25.0,-18.870001000000002,2d
2019-07-15_185552:520,-0.38385,0.006592,-0.333496,-0.016085,-0.030719999999999997,0.014656,-28.18,-24.18,-18.870001000000002,2d
2019-07-15_185552:540,-0.385864,0.005065999999999999,-0.342163,-0.018099,-0.029102999999999997,0.013923,-28.18,-24.18,-18.870001000000002,2d
2019-07-15_185552:560,-0.409271,0.002014,-0.358429,-0.018801,-0.024342,0.011787,-27.75,-23.870001000000002,-20.370001000000002,2d
2019-07-15_185552:580,-0.416382,0.002014,-0.36911,-0.018801,-0.016896,0.0073620000000000005,-27.75,-23.870001000000002,-20.370001000000002,2d
2019-07-15_185552:600,-0.40011599999999997,0.004059,-0.374176,-0.018343,-0.009267000000000001,0.005043,-27.75,-23.870001000000002,-20.370001000000002,2d
2019-07-15_185552:620,-0.393494,0.004059,-0.370636,-0.016939,-0.0033159999999999995,0.005622,-26.68,-23.5,-20.059998999999998,2d
2019-07-15_185552:640,-0.382324,0.002014,-0.36349499999999996,-0.015169,0.00056,0.005409000000000001,-26.68,-23.5,-20.059998999999998,2d
2019-07-15_185552:660,-0.378754,0.0,-0.359955,-0.013247,0.003764,0.0055,-27.5,-25.0,-20.370001000000002,2d
2019-07-15_185552:680,-0.365021,-0.002014,-0.349274,-0.01111,0.005748,0.007087,-27.5,-25.0,-20.370001000000002,2d
2019-07-15_185552:700,-0.366058,-0.0035399999999999997,-0.344696,-0.00873,0.00584,0.008154999999999999,-27.5,-25.0,-20.370001000000002,2d
2019-07-15_185552:720,-0.37316900000000003,-0.0055850000000000006,-0.34317,-0.007081999999999999,0.006236,0.008461,-27.059998999999998,-24.559998999999998,-19.25,2d
2019-07-15_185552:740,-0.370636,-0.006592,-0.344177,-0.0056170000000000005,0.0069689999999999995,0.00782,-27.059998999999998,-24.559998999999998,-19.25,2d
2019-07-15_185552:760,-0.382324,-0.006592,-0.342163,-0.004824,0.008006000000000001,0.00663,-27.059998999999998,-24.18,-20.059998999999998,2d
2019-07-15_185552:780,-0.380798,-0.007111,-0.340118,-0.004336,0.009593,0.005836,-27.059998999999998,-24.18,-20.059998999999998,2d
2019-07-15_185552:800,-0.378754,-0.006072999999999999,-0.338074,-0.003878,0.010661,0.004707,-27.059998999999998,-24.18,-20.059998999999998,2d
2019-07-15_185552:820,-0.379272,-0.007111,-0.33300799999999997,-0.00339,0.011852,0.002967,-27.75,-24.18,-19.68,2d
2019-07-15_185552:840,-0.379791,-0.0055850000000000006,-0.33300799999999997,-0.003237,0.01292,0.002235,-27.75,-24.18,-19.68,2d
2019-07-15_185552:860,-0.381317,-0.0035399999999999997,-0.33197,-0.0033280000000000002,0.013987999999999999,0.002784,-28.18,-23.870001000000002,-20.5,2d
2019-07-15_185552:880,-0.388428,-0.004059,-0.324371,-0.0036950000000000004,0.015636,0.0033640000000000002,-28.18,-23.870001000000002,-20.5,2d
2019-07-15_185552:900,-0.389954,-0.0035399999999999997,-0.32486,-0.004397,0.017588999999999997,0.0037,-28.18,-23.870001000000002,-20.5,2d
2019-07-15_185552:920,-0.382812,-0.0055850000000000006,-0.321808,-0.005007,0.018290999999999998,0.003975,-28.18,-24.18,-18.870001000000002,2d
2019-07-15_185552:940,-0.379791,-0.007111,-0.317749,-0.005282,0.017986000000000002,0.003639,-28.18,-24.18,-18.870001000000002,2d
2019-07-15_185552:960,-0.389954,-0.009125,-0.314697,-0.005068,0.01823,0.00251,-28.5,-23.870001000000002,-19.68,2d
2019-07-15_185552:980,-0.389435,-0.008118,-0.311127,-0.004549,0.01884,0.0018989999999999999,-28.5,-23.870001000000002,-19.68,2d
2019-07-15_185553:000,-0.382324,-0.008118,-0.305542,-0.003664,0.019022999999999998,0.002113,-28.5,-23.870001000000002,-19.68,2d
2019-07-15_185553:020,-0.382324,-0.006072999999999999,-0.298431,-0.0025960000000000002,0.018382,0.002235,-29.25,-23.870001000000002,-19.25,2d
2019-07-15_185553:040,-0.38385,-0.006592,-0.293854,-0.0014060000000000001,0.017925,0.0018989999999999999,-29.25,-23.870001000000002,-19.25,2d
2019-07-15_185553:060,-0.384857,-0.002014,-0.29284699999999997,-0.000796,0.017253,0.0018989999999999999,-29.25,-23.5,-18.5,2d
2019-07-15_185553:080,-0.381317,-0.004059,-0.28775,-0.001009,0.016307,0.002845,-29.25,-23.5,-18.5,2d
2019-07-15_185553:100,-0.374695,-0.001007,-0.288269,-0.001467,0.014719999999999999,0.003181,-29.25,-23.5,-18.5,2d
2019-07-15_185553:120,-0.375702,-0.002014,-0.293854,-0.002199,0.012859,0.003151,-29.25,-23.5,-17.68,2d
2019-07-15_185553:140,-0.377228,-0.0055850000000000006,-0.29742399999999997,-0.003054,0.010020000000000001,0.001655,-29.25,-23.5,-17.68,2d
2019-07-15_185553:160,-0.38028,-0.007111,-0.296906,-0.0037560000000000002,0.00703,0.000923,-29.68,-23.5,-17.75,2d
2019-07-15_185553:180,-0.390442,-0.010651,-0.300476,-0.004,0.005168,0.001045,-29.68,-23.5,-17.75,2d
2019-07-15_185553:200,-0.386383,-0.011687999999999999,-0.306061,-0.00403,0.004039,-0.001183,-29.68,-23.5,-17.75,2d
2019-07-15_185553:220,-0.378754,-0.009644,-0.308594,-0.004152,0.002239,-0.003167,-29.68,-23.5,-15.37,2d
2019-07-15_185553:240,-0.386383,-0.010651,-0.311127,-0.0036950000000000004,-0.001027,-0.00396,-29.68,-23.5,-15.37,2d
2019-07-15_185553:260,-0.395538,-0.009125,-0.313171,-0.00339,-0.003621,-0.004692,-29.68,-23.5,-15.75,2d
2019-07-15_185553:280,-0.40976,-0.008118,-0.313171,-0.002932,-0.0045060000000000005,-0.004357,-29.68,-23.5,-15.75,2d
2019-07-15_185553:300,-0.43621800000000005,-0.008636,-0.312164,-0.002321,-0.002888,-0.003106,-29.68,-23.5,-15.75,2d
2019-07-15_185553:320,-0.388428,-0.0035399999999999997,-0.312653,-0.0017109999999999998,0.001415,-0.0011220000000000002,-29.25,-24.18,-16.559998999999998,2d
2019-07-15_185553:340,-0.393494,-0.004059,-0.313171,-0.000918,0.001353,0.000496,-29.25,-24.18,-16.559998999999998,2d
2019-07-15_185553:360,-0.397583,-0.001495,-0.314697,-0.000796,0.001018,0.000465,-30.370001000000002,-23.5,-16.870001000000002,2d
2019-07-15_185553:380,-0.394531,0.000488,-0.307587,-0.001375,0.000743,0.0018989999999999999,-30.370001000000002,-23.5,-16.870001000000002,2d
2019-07-15_185553:400,-0.397583,-0.000488,-0.30654899999999996,-0.001986,0.001018,0.002449,-30.370001000000002,-23.5,-16.870001000000002,2d
2019-07-15_185553:420,-0.39502,-0.001007,-0.304016,-0.0029010000000000004,0.0014759999999999999,0.001564,-29.68,-23.5,-17.25,2d
2019-07-15_185553:440,-0.393005,-0.004059,-0.30300900000000003,-0.003573,0.001201,0.001777,-29.68,-23.5,-17.25,2d
2019-07-15_185553:460,-0.387909,-0.007599,-0.304016,-0.004152,0.00022400000000000002,0.0029059999999999997,-30.370001000000002,-23.059998999999998,-16.059998999999998,2d
2019-07-15_185553:480,-0.389954,-0.008118,-0.29995700000000003,-0.004549,-0.001515,0.0026320000000000002,-30.370001000000002,-23.059998999999998,-16.059998999999998,2d
2019-07-15_185553:500,-0.399109,-0.010162000000000001,-0.302002,-0.004152,-0.001973,0.001716,-30.370001000000002,-23.059998999999998,-16.059998999999998,2d
2019-07-15_185553:520,-0.396057,-0.010162000000000001,-0.304016,-0.004,-0.001759,0.000709,-29.68,-23.5,-17.25,2d
2019-07-15_185553:540,-0.389954,-0.009125,-0.30654899999999996,-0.003512,-0.002034,0.000465,-29.68,-23.5,-17.25,2d
2019-07-15_185553:560,-0.389435,-0.009644,-0.30654899999999996,-0.0028399999999999996,-0.002919,0.000343,-29.25,-22.68,-16.870001000000002,2d
2019-07-15_185553:580,-0.397583,-0.006072999999999999,-0.307068,-0.002382,-0.0034990000000000004,-0.000328,-29.25,-22.68,-16.870001000000002,2d
2019-07-15_185553:600,-0.397064,-0.005065999999999999,-0.309601,-0.002321,-0.003163,-0.0009689999999999999,-29.25,-22.68,-16.870001000000002,2d
2019-07-15_185553:620,-0.39859,-0.002014,-0.31012,-0.002718,-0.002034,-0.0017629999999999998,-29.25,-23.5,-17.25,2d
2019-07-15_185553:640,-0.391968,-0.002014,-0.310638,-0.0031149999999999997,-0.001637,-0.002251,-29.25,-23.5,-17.25,2d
2019-07-15_185553:660,-0.393005,-0.0035399999999999997,-0.318268,-0.0034509999999999996,-0.001576,-0.002037,-29.68,-23.5,-17.75,2d
2019-07-15_185553:680,-0.388428,-0.0025329999999999997,-0.315704,-0.003817,-0.001057,-0.001641,-29.68,-23.5,-17.75,2d
2019-07-15_185553:700,-0.375702,-0.006072999999999999,-0.29995700000000003,-0.003664,-0.0009050000000000001,-0.000634,-29.68,-23.5,-17.75,2d
2019-07-15_185553:720,-0.380798,-0.009125,-0.31012,-0.002169,-0.002705,6.8e-05,-29.68,-24.559998999999998,-17.68,2d
2019-07-15_185553:740,-0.378754,-0.009125,-0.313171,-0.001375,-0.003773,7.000000000000001e-06,-29.68,-24.559998999999998,-17.68,2d
2019-07-15_185553:760,-0.394531,-0.010162000000000001,-0.322327,-2e-06,-0.004842,0.000526,-28.870001000000002,-23.5,-17.25,2d
2019-07-15_185553:780,-0.399109,-0.007111,-0.322327,0.000395,-0.00298,6.8e-05,-28.870001000000002,-23.5,-17.25,2d
2019-07-15_185553:800,-0.396545,-0.006072999999999999,-0.322327,5.9e-05,-0.001393,-0.00023700000000000001,-28.870001000000002,-23.5,-17.25,2d
2019-07-15_185553:820,-0.390961,-0.007111,-0.320801,-6.3e-05,-0.000325,6.8e-05,-28.870001000000002,-23.5,-17.25,2d
2019-07-15_185553:840,-0.388428,-0.006072999999999999,-0.319275,-0.0009789999999999998,-0.000264,0.000129,-28.870001000000002,-23.5,-17.25,2d
2019-07-15_185553:860,-0.397064,-0.004059,-0.326385,-0.0015890000000000001,-0.000325,0.00016,-29.25,-23.059998999999998,-18.059998999999998,2d
2019-07-15_185553:880,-0.385864,-0.005065999999999999,-0.31012,-0.002718,0.000865,-0.000634,-29.25,-23.059998999999998,-18.059998999999998,2d
2019-07-15_185553:900,-0.382324,-0.007111,-0.300964,-0.002535,-0.000386,-0.000725,-29.25,-23.059998999999998,-18.059998999999998,2d
2019-07-15_185553:920,-0.393494,-0.006592,-0.312653,-0.001864,-0.00124,-0.001,-30.0,-23.059998999999998,-19.25,2d
2019-07-15_185553:940,-0.380798,-0.008118,-0.306061,-0.001925,-0.00124,-0.0017629999999999998,-30.0,-23.059998999999998,-19.25,2d
2019-07-15_185553:960,-0.385864,-0.006072999999999999,-0.317749,-0.0009789999999999998,-0.002248,-0.001702,-28.870001000000002,-23.5,-18.5,2d
2019-07-15_185553:980,-0.385376,-0.004059,-0.311127,-0.001192,-0.002095,-0.000908,-28.870001000000002,-23.5,-18.5,2d
2019-07-15_185554:000,-0.387909,-0.004059,-0.315704,-0.001009,-0.0018510000000000002,0.001228,-28.870001000000002,-23.5,-18.5,2d
2019-07-15_185554:020,-0.389435,-0.006072999999999999,-0.320801,-0.00107,-0.001393,0.001381,-29.25,-23.059998999999998,-18.870001000000002,2d
2019-07-15_185554:040,-0.396545,-0.007111,-0.322845,-0.001009,-0.00063,0.00028199999999999997,-29.25,-23.059998999999998,-18.870001000000002,2d
2019-07-15_185554:060,-0.397064,-0.007111,-0.32486,-0.000643,0.001018,7.000000000000001e-06,-28.5,-23.059998999999998,-19.25,2d
2019-07-15_185554:080,-0.393494,-0.0055850000000000006,-0.321808,-0.000521,0.002696,6.8e-05,-28.5,-23.059998999999998,-19.25,2d
2019-07-15_185554:100,-0.387909,-0.006592,-0.317749,-6.3e-05,0.0035810000000000004,0.000648,-28.5,-23.059998999999998,-19.25,2d
2019-07-15_185554:120,-0.384857,-0.005065999999999999,-0.315704,-0.000124,0.0035810000000000004,0.000587,-28.18,-22.68,-18.5,2d
2019-07-15_185554:140,-0.378265,-0.0030210000000000002,-0.31369,-0.000246,0.003032,0.0008619999999999999,-28.18,-22.68,-18.5,2d
2019-07-15_185554:160,-0.376221,-0.0035399999999999997,-0.31369,-0.000857,0.00172,0.001625,-28.5,-23.870001000000002,-19.68,2d
2019-07-15_185554:180,-0.375702,-0.004547,-0.314178,-0.001925,-0.00011100000000000001,0.0018989999999999999,-28.5,-23.870001000000002,-19.68,2d
2019-07-15_185554:200,-0.374176,-0.006072999999999999,-0.315216,-0.0028399999999999996,-0.00179,0.001991,-28.5,-23.870001000000002,-19.68,2d
2019-07-15_185554:220,-0.372162,-0.008636,-0.318756,-0.003512,-0.0035600000000000002,0.001838,-28.5,-23.5,-18.059998999999998,2d
2019-07-15_185554:240,-0.373688,-0.011169,-0.318268,-0.0036950000000000004,-0.005696,0.00132,-28.5,-23.5,-18.059998999999998,2d
2019-07-15_185554:260,-0.389435,-0.012177,-0.318268,-0.0036950000000000004,-0.006947,0.00028199999999999997,-29.68,-23.059998999999998,-19.68,2d
2019-07-15_185554:280,-0.399109,-0.010651,-0.320801,-0.003664,-0.005696,0.00028199999999999997,-29.68,-23.059998999999998,-19.68,2d
2019-07-15_185554:300,-0.401642,-0.012695,-0.323853,-0.003237,-0.0024920000000000003,0.0007700000000000001,-29.68,-23.059998999999998,-19.68,2d
2019-07-15_185554:320,-0.391479,-0.011687999999999999,-0.323334,-0.003054,0.000743,0.000404,-28.870001000000002,-22.68,-18.870001000000002,2d
2019-07-15_185554:340,-0.385864,-0.012177,-0.322845,-0.002657,0.003032,0.000923,-28.870001000000002,-22.68,-18.870001000000002,2d
2019-07-15_185554:360,-0.38028,-0.009644,-0.32132,-0.002535,0.004314,0.001777,-27.5,-23.5,-19.25,2d
2019-07-15_185554:380,-0.37674,-0.011687999999999999,-0.320282,-0.002932,0.0045579999999999996,0.002693,-27.5,-23.5,-19.25,2d
2019-07-15_185554:400,-0.377747,-0.013213999999999998,-0.318756,-0.0031149999999999997,0.004222,0.002784,-27.5,-23.5,-19.25,2d
2019-07-15_185554:420,-0.379272,-0.014221000000000001,-0.317749,-0.003237,0.003703,0.0021739999999999997,-27.5,-23.059998999999998,-20.059998999999998,2d
2019-07-15_185554:440,-0.379791,-0.017273,-0.317749,-0.0034509999999999996,0.003246,0.001625,-27.5,-23.059998999999998,-20.059998999999998,2d
2019-07-15_185554:460,-0.377747,-0.017792,-0.318756,-0.003664,0.0029100000000000003,0.001381,-28.870001000000002,-23.870001000000002,-19.25,2d
2019-07-15_185554:480,-0.38028,-0.01828,-0.318756,-0.003817,0.002239,0.001045,-28.870001000000002,-23.870001000000002,-19.25,2d
2019-07-15_185554:500,-0.38385,-0.018799,-0.320801,-0.0037560000000000002,0.001842,0.001106,-28.870001000000002,-23.870001000000002,-19.25,2d
2019-07-15_185554:520,-0.384857,-0.019806,-0.322845,-0.003878,0.0019030000000000002,0.000709,-28.870001000000002,-23.059998999999998,-18.5,2d
2019-07-15_185554:540,-0.385376,-0.019318000000000002,-0.32132,-0.0037560000000000002,0.0024519999999999998,0.000587,-28.870001000000002,-23.059998999999998,-18.5,2d
2019-07-15_185554:560,-0.388428,-0.014740000000000001,-0.323334,-0.0036950000000000004,0.002788,0.000404,-27.75,-23.5,-20.5,2d
2019-07-15_185554:580,-0.390442,-0.012695,-0.322845,-0.003939,0.00349,0.000984,-27.75,-23.5,-20.5,2d
2019-07-15_185554:600,-0.390961,-0.012695,-0.322845,-0.004671,0.004375,0.001442,-27.75,-23.5,-20.5,2d
2019-07-15_185554:620,-0.388916,-0.013213999999999998,-0.321808,-0.005282,0.005504,0.00132,-29.25,-22.68,-18.870001000000002,2d
2019-07-15_185554:640,-0.384338,-0.015228,-0.317749,-0.005861,0.006358,0.001045,-29.25,-22.68,-18.870001000000002,2d
2019-07-15_185554:660,-0.380798,-0.016753999999999998,-0.315704,-0.006075,0.006297,0.001106,-29.25,-23.059998999999998,-18.059998999999998,2d
2019-07-15_185554:680,-0.377228,-0.019318000000000002,-0.311127,-0.006197,0.005626,0.000923,-29.25,-23.059998999999998,-18.059998999999998,2d
2019-07-15_185554:700,-0.37674,-0.01828,-0.312164,-0.005861,0.004375,0.00028199999999999997,-29.25,-23.059998999999998,-18.059998999999998,2d
2019-07-15_185554:720,-0.37674,-0.018799,-0.311127,-0.005404,0.002635,-5.4000000000000005e-05,-28.870001000000002,-23.059998999999998,-18.870001000000002,2d
2019-07-15_185554:740,-0.376221,-0.019318000000000002,-0.31012,-0.00461,0.001415,7.000000000000001e-06,-28.870001000000002,-23.059998999999998,-18.870001000000002,2d
2019-07-15_185554:760,-0.372162,-0.01828,-0.311127,-0.003939,-0.000172,7.000000000000001e-06,-29.25,-23.5,-19.25,2d
2019-07-15_185554:780,-0.374176,-0.017273,-0.311127,-0.0032979999999999997,-0.001973,0.000129,-29.25,-23.5,-19.25,2d
2019-07-15_185554:800,-0.379791,-0.013213999999999998,-0.311127,-0.0029010000000000004,-0.0039570000000000004,0.000465,-29.25,-23.5,-19.25,2d
2019-07-15_185554:820,-0.381805,-0.013702,-0.316223,-0.0029010000000000004,-0.005086,0.0008619999999999999,-29.25,-23.059998999999998,-19.25,2d
2019-07-15_185554:840,-0.367584,-0.014740000000000001,-0.323853,-0.0036340000000000005,-0.006093,0.000129,-29.25,-23.059998999999998,-19.25,2d
2019-07-15_185554:860,-0.36554000000000003,-0.016753999999999998,-0.325378,-0.003817,-0.008199,-0.000389,-29.25,-23.059998999999998,-18.5,2d
2019-07-15_185554:880,-0.368073,-0.016753999999999998,-0.322845,-0.0037560000000000002,-0.011006,-0.0011220000000000002,-29.25,-23.059998999999998,-18.5,2d
2019-07-15_185554:900,-0.375214,-0.016753999999999998,-0.322845,-0.0037560000000000002,-0.013142,-0.001397,-29.25,-23.059998999999998,-18.5,2d
2019-07-15_185554:920,-0.383331,-0.017792,-0.322845,-0.003664,-0.013509,-0.00158,-28.870001000000002,-23.059998999999998,-18.5,2d
2019-07-15_185554:940,-0.386383,-0.015747,-0.323334,-0.00339,-0.012318,-0.00216,-28.870001000000002,-23.059998999999998,-18.5,2d
2019-07-15_185554:960,-0.378754,-0.016266,-0.32486,-0.0031149999999999997,-0.010152,-0.0021899999999999997,-28.18,-23.059998999999998,-18.870001000000002,2d
2019-07-15_185554:980,-0.376221,-0.013213999999999998,-0.32132,-0.0028399999999999996,-0.008534,-0.002098,-28.18,-23.059998999999998,-18.870001000000002,2d
2019-07-15_185555:000,-0.382812,-0.013702,-0.325378,-0.002993,-0.007344,-0.001702,-28.18,-23.059998999999998,-18.870001000000002,2d
2019-07-15_185555:020,-0.381317,-0.013213999999999998,-0.331482,-0.002657,-0.005025,-0.0013050000000000002,-28.5,-22.68,-19.68,2d
2019-07-15_185555:040,-0.377747,-0.012695,-0.337067,-0.0028399999999999996,-0.0032240000000000003,-0.001,-28.5,-22.68,-19.68,2d
2019-07-15_185555:060,-0.372162,-0.011169,-0.340118,-0.0028399999999999996,-0.001912,-0.000573,-26.68,-23.059998999999998,-20.5,2d
2019-07-15_185555:080,-0.371643,-0.007111,-0.339111,-0.002779,-0.00179,-0.0009689999999999999,-26.68,-23.059998999999998,-20.5,2d
2019-07-15_185555:100,-0.373688,-0.006072999999999999,-0.340118,-0.002993,-0.001454,-0.001,-26.68,-23.059998999999998,-20.5,2d
2019-07-15_185555:120,-0.371643,-0.0030210000000000002,-0.341644,-0.004,-0.001363,-0.0010609999999999999,-28.18,-23.870001000000002,-20.059998999999998,2d
2019-07-15_185555:140,-0.375214,-0.004059,-0.34265100000000004,-0.005221,-0.0007830000000000001,-0.0008470000000000001,-28.18,-23.870001000000002,-20.059998999999998,2d
2019-07-15_185555:160,-0.368591,-0.0055850000000000006,-0.34368899999999997,-0.006533,-0.0007830000000000001,-0.001458,-27.059998999999998,-23.5,-20.370001000000002,2d
2019-07-15_185555:180,-0.364532,-0.0055850000000000006,-0.34265100000000004,-0.006991,-0.001363,-0.0010609999999999999,-27.059998999999998,-23.5,-20.370001000000002,2d
2019-07-15_185555:200,-0.35739099999999996,-0.007111,-0.334015,-0.007265000000000001,-0.002095,-0.0009689999999999999,-27.059998999999998,-23.5,-20.370001000000002,2d
2019-07-15_185555:220,-0.354858,-0.007599,-0.335022,-0.0069299999999999995,-0.003621,-0.0009689999999999999,-27.5,-23.5,-20.870001000000002,2d
2019-07-15_185555:240,-0.36349499999999996,-0.008636,-0.338074,-0.00635,-0.004811,-0.001,-27.5,-23.5,-20.870001000000002,2d
2019-07-15_185555:260,-0.36554000000000003,-0.008118,-0.338593,-0.006014,-0.004811,-0.001641,-27.75,-23.5,-20.370001000000002,2d
2019-07-15_185555:280,-0.367584,-0.006072999999999999,-0.350281,-0.005465,-0.004353,-0.002495,-27.75,-23.5,-20.370001000000002,2d
2019-07-15_185555:300,-0.36554000000000003,-0.006072999999999999,-0.3508,-0.004793,-0.0034990000000000004,-0.0028309999999999997,-27.75,-23.5,-20.370001000000002,2d
2019-07-15_185555:320,-0.365021,-0.0035399999999999997,-0.347748,-0.00403,-0.002705,-0.002587,-27.75,-23.870001000000002,-20.059998999999998,2d
2019-07-15_185555:340,-0.36248800000000003,-0.002014,-0.347748,-0.0034509999999999996,-0.002095,-0.002495,-27.75,-23.870001000000002,-20.059998999999998,2d
2019-07-15_185555:360,-0.360962,-0.000488,-0.350281,-0.0029010000000000004,-0.002034,-0.001854,-27.75,-23.5,-20.059998999999998,2d
2019-07-15_185555:380,-0.355896,-0.001007,-0.349274,-0.0025960000000000002,-0.0024920000000000003,-0.000908,-27.75,-23.5,-20.059998999999998,2d
2019-07-15_185555:400,-0.34875500000000004,0.000488,-0.34674099999999997,-0.002443,-0.003285,-0.000176,-27.75,-23.5,-20.059998999999998,2d
2019-07-15_185555:420,-0.347229,0.002014,-0.347229,-0.002718,-0.004964,0.000465,-27.059998999999998,-23.5,-20.059998999999998,2d
2019-07-15_185555:440,-0.344177,0.004059,-0.34875500000000004,-0.0034509999999999996,-0.0062759999999999995,0.000923,-27.059998999999998,-23.5,-20.059998999999998,2d
2019-07-15_185555:460,-0.34368899999999997,0.0030210000000000002,-0.348267,-0.004091,-0.008351,0.00132,-26.68,-24.559998999999998,-20.870001000000002,2d
2019-07-15_185555:480,-0.342163,0.002014,-0.3508,-0.00461,-0.010334999999999999,0.001625,-26.68,-24.559998999999998,-20.870001000000002,2d
2019-07-15_185555:500,-0.341644,0.0025329999999999997,-0.352844,-0.005129,-0.011342,0.002113,-26.68,-24.559998999999998,-20.870001000000002,2d
2019-07-15_185555:520,-0.3508,0.0,-0.36044299999999996,-0.005129,-0.011342,0.003425,-27.059998999999998,-23.5,-22.0,2d
2019-07-15_185555:540,-0.3508,-0.000488,-0.359955,-0.005068,-0.010884,0.004493,-27.059998999999998,-23.5,-22.0,2d
2019-07-15_185555:560,-0.34674099999999997,-0.001495,-0.36349499999999996,-0.00461,-0.010609,0.005439,-26.68,-23.059998999999998,-20.059998999999998,2d
2019-07-15_185555:580,-0.353333,-0.001007,-0.36654699999999996,-0.004397,-0.009541,0.006141,-26.68,-23.059998999999998,-20.059998999999998,2d
2019-07-15_185555:600,-0.356903,-0.001495,-0.37265,-0.00461,-0.007405,0.00663,-26.68,-23.059998999999998,-20.059998999999998,2d
2019-07-15_185555:620,-0.354858,-0.002014,-0.372162,-0.004946,-0.005482,0.007423000000000001,-25.559998999999998,-24.559998999999998,-21.25,2d
2019-07-15_185555:640,-0.340118,-0.001495,-0.366058,-0.005404,-0.004567,0.007942,-25.559998999999998,-24.559998999999998,-21.25,2d
2019-07-15_185555:660,-0.337067,-0.001495,-0.363007,-0.005953,-0.005086,0.008064,-26.25,-23.059998999999998,-21.25,2d
2019-07-15_185555:680,-0.324371,-0.005065999999999999,-0.358917,-0.006319,-0.006490000000000001,0.008094,-26.25,-23.059998999999998,-21.25,2d
2019-07-15_185555:700,-0.32132,-0.007111,-0.35739099999999996,-0.006684999999999999,-0.009145,0.007423000000000001,-26.25,-23.059998999999998,-21.25,2d
2019-07-15_185555:720,-0.316223,-0.007599,-0.353333,-0.006869,-0.010334999999999999,0.007484,-26.0,-23.5,-21.25,2d
2019-07-15_185555:740,-0.310638,-0.006072999999999999,-0.3508,-0.0069299999999999995,-0.015706,0.009346,-26.0,-23.5,-21.25,2d
2019-07-15_185555:760,-0.315704,-0.006072999999999999,-0.361481,-0.007143000000000001,-0.017567,0.009925,-26.25,-23.5,-22.059998999999998,2d
2019-07-15_185555:780,-0.326385,-0.006072999999999999,-0.36654699999999996,-0.007601,-0.02068,0.010322,-26.25,-23.5,-22.059998999999998,2d
2019-07-15_185555:800,-0.335022,-0.006592,-0.369598,-0.008454999999999999,-0.020283000000000002,0.009925,-26.25,-23.5,-22.059998999999998,2d
2019-07-15_185555:820,-0.33300799999999997,-0.007111,-0.368591,-0.009249,-0.019551,0.009956,-26.0,-23.059998999999998,-22.059998999999998,2d
2019-07-15_185555:840,-0.333496,-0.009644,-0.376221,-0.009859,-0.019429,0.009742,-26.0,-23.059998999999998,-22.059998999999998,2d
2019-07-15_185555:860,-0.340118,-0.012177,-0.385864,-0.010256,-0.017963999999999997,0.008735,-26.68,-23.5,-22.370001000000002,2d
2019-07-15_185555:880,-0.340118,-0.014221000000000001,-0.38739,-0.00992,-0.015125999999999999,0.0084,-26.68,-23.5,-22.370001000000002,2d
2019-07-15_185555:900,-0.342163,-0.014740000000000001,-0.386383,-0.009646,-0.012013,0.008339,-26.68,-23.5,-22.370001000000002,2d
2019-07-15_185555:920,-0.330475,-0.015747,-0.39502,-0.00992,-0.010457,0.008154999999999999,-25.18,-23.059998999999998,-23.18,2d
2019-07-15_185555:940,-0.32486,-0.01828,-0.393005,-0.009524,-0.008015000000000001,0.007026,-25.18,-23.059998999999998,-23.18,2d
2019-07-15_185555:960,-0.311127,-0.017792,-0.390961,-0.009066,-0.00829,0.006294,-26.0,-23.870001000000002,-21.559998999999998,2d
2019-07-15_185555:980,-0.307587,-0.017273,-0.391968,-0.008211,-0.009663,0.004158,-26.0,-23.870001000000002,-21.559998999999998,2d
2019-07-15_185556:000,-0.304535,-0.016753999999999998,-0.389435,-0.007601,-0.010854,0.002845,-26.0,-23.870001000000002,-21.559998999999998,2d
2019-07-15_185556:020,-0.309113,-0.017273,-0.393494,-0.007081999999999999,-0.011067,0.002754,-25.18,-23.5,-24.0,2d
2019-07-15_185556:040,-0.32843,-0.020325,-0.409271,-0.005953,-0.009816,0.0026320000000000002,-25.18,-23.5,-24.0,2d
2019-07-15_185556:060,-0.330475,-0.018799,-0.409271,-0.005953,-0.008351,0.00251,-24.059998999999998,-23.059998999999998,-23.18,2d
2019-07-15_185556:080,-0.322845,-0.020844,-0.402649,-0.004946,-0.004018,0.001655,-24.059998999999998,-23.059998999999998,-23.18,2d
2019-07-15_185556:100,-0.312653,-0.019318000000000002,-0.40316799999999997,-0.004549,-0.002583,0.0007700000000000001,-24.059998999999998,-23.059998999999998,-23.18,2d
2019-07-15_185556:120,-0.304016,-0.017792,-0.401123,-0.004427,-0.002431,0.00028199999999999997,-24.75,-22.68,-22.370001000000002,2d
2019-07-15_185556:140,-0.29995700000000003,-0.016753999999999998,-0.397583,-0.003939,-0.0032240000000000003,-0.0012439999999999999,-24.75,-22.68,-22.370001000000002,2d
2019-07-15_185556:160,-0.300964,-0.015747,-0.398071,-0.00403,-0.003896,-0.0017629999999999998,-25.18,-23.5,-22.370001000000002,2d
2019-07-15_185556:180,-0.305542,-0.016266,-0.401123,-0.0036950000000000004,-0.004018,-0.002495,-25.18,-23.5,-22.370001000000002,2d
2019-07-15_185556:200,-0.307068,-0.017273,-0.405212,-0.0032979999999999997,-0.0035600000000000002,-0.003106,-25.18,-23.5,-22.370001000000002,2d
2019-07-15_185556:220,-0.304016,-0.015747,-0.406219,-0.003237,-0.003102,-0.0033799999999999998,-23.559998999999998,-23.059998999999998,-22.75,2d
2019-07-15_185556:240,-0.306061,-0.013213999999999998,-0.406738,-0.002382,-0.002309,-0.003899,-23.559998999999998,-23.059998999999998,-22.75,2d
2019-07-15_185556:260,-0.307068,-0.012177,-0.40823400000000004,-0.002443,-0.00179,-0.004021,-24.370001000000002,-22.0,-23.559998999999998,2d
2019-07-15_185556:280,-0.305054,-0.011687999999999999,-0.409271,-0.0020469999999999998,-0.000264,-0.005028,-24.370001000000002,-22.0,-23.559998999999998,2d
2019-07-15_185556:300,-0.304016,-0.010651,-0.409271,-0.001925,0.00056,-0.005577,-24.370001000000002,-22.0,-23.559998999999998,2d
2019-07-15_185556:320,-0.300476,-0.007111,-0.410278,-0.001925,0.00056,-0.005364,-24.370001000000002,-23.5,-24.370001000000002,2d
2019-07-15_185556:340,-0.294373,-0.007111,-0.409271,-0.002169,0.000743,-0.00457,-24.370001000000002,-23.5,-24.370001000000002,2d
2019-07-15_185556:360,-0.294373,-0.004547,-0.408752,-0.002382,0.000346,-0.004509,-22.5,-23.5,-23.18,2d
2019-07-15_185556:380,-0.29895,-0.0055850000000000006,-0.40823400000000004,-0.0025050000000000003,0.00056,-0.0037159999999999997,-22.5,-23.5,-23.18,2d
2019-07-15_185556:400,-0.29943800000000004,-0.0035399999999999997,-0.406738,-0.002932,0.001292,-0.0034409999999999996,-22.5,-23.5,-23.18,2d
2019-07-15_185556:420,-0.294373,-0.0030210000000000002,-0.40570100000000003,-0.003237,0.0012619999999999999,-0.003106,-24.0,-23.059998999999998,-23.68,2d
2019-07-15_185556:440,-0.293854,-0.005065999999999999,-0.40316799999999997,-0.00339,0.001415,-0.002526,-24.0,-23.059998999999998,-23.68,2d
2019-07-15_185556:460,-0.28775,-0.0055850000000000006,-0.40570100000000003,-0.003573,0.0012619999999999999,-0.002587,-24.0,-23.059998999999998,-23.68,2d
2019-07-15_185556:480,-0.28418000000000004,-0.006072999999999999,-0.404175,-0.003176,-0.000264,-0.001397,-24.0,-24.18,-23.68,2d
2019-07-15_185556:500,-0.281647,-0.007599,-0.402649,-0.003054,-0.001118,-0.0013050000000000002,-24.0,-24.18,-23.68,2d
2019-07-15_185556:520,-0.282166,-0.009644,-0.402649,-0.002779,-0.00298,-0.00216,-23.559998999999998,-23.870001000000002,-24.0,2d
2019-07-15_185556:540,-0.29538000000000003,-0.007599,-0.404175,-0.002382,-0.004018,-0.0035020000000000003,-23.559998999999998,-23.870001000000002,-24.0,2d
2019-07-15_185556:560,-0.29486100000000004,-0.004059,-0.40774499999999997,-0.0021079999999999996,-0.003682,-0.004052,-23.559998999999998,-23.870001000000002,-24.0,2d
2019-07-15_185556:580,-0.291321,-0.002014,-0.40823400000000004,-0.002321,-0.003163,-0.003655,-23.18,-24.559998999999998,-24.0,2d
2019-07-15_185556:600,-0.287231,-0.000488,-0.40823400000000004,-0.0032979999999999997,-0.0033159999999999995,-0.001702,-23.18,-24.559998999999998,-24.0,2d
2019-07-15_185556:620,-0.28927600000000003,-0.000488,-0.40823400000000004,-0.0036340000000000005,-0.003438,-0.001183,-23.559998999999998,-24.18,-25.18,2d
2019-07-15_185556:640,-0.282166,-0.001007,-0.406738,-0.004336,-0.004109000000000001,-0.0009689999999999999,-23.559998999999998,-24.18,-25.18,2d
2019-07-15_185556:660,-0.282166,0.0,-0.404694,-0.004427,-0.004842,-0.000573,-23.559998999999998,-24.18,-25.18,2d
2019-07-15_185556:680,-0.293335,-0.002014,-0.407227,-0.004427,-0.005635,0.001228,-23.68,-23.5,-25.18,2d
2019-07-15_185556:700,-0.295898,-0.0035399999999999997,-0.411285,-0.004397,-0.005086,0.001381,-23.68,-23.5,-25.18,2d
2019-07-15_185556:720,-0.295898,-0.004547,-0.412811,-0.00403,-0.0035600000000000002,0.001258,-23.68,-24.18,-24.75,2d
2019-07-15_185556:740,-0.296387,-0.0055850000000000006,-0.410797,-0.003878,-0.002034,0.001167,-23.68,-24.18,-24.75,2d
2019-07-15_185556:760,-0.300476,-0.006592,-0.414337,-0.0036340000000000005,0.000285,0.0018989999999999999,-23.68,-24.18,-24.75,2d
2019-07-15_185556:780,-0.28775,-0.007599,-0.416901,-0.003664,0.002177,0.00196,-23.68,-23.870001000000002,-25.18,2d
2019-07-15_185556:800,-0.28369099999999997,-0.008118,-0.417389,-0.003237,0.002849,0.000648,-23.68,-23.870001000000002,-25.18,2d
2019-07-15_185556:820,-0.285706,-0.008118,-0.417389,-0.0032979999999999997,0.003032,-0.00045099999999999996,-23.0,-23.5,-24.370001000000002,2d
2019-07-15_185556:840,-0.28674299999999997,-0.008636,-0.416382,-0.002993,0.0031850000000000003,-0.00023700000000000001,-23.0,-23.5,-24.370001000000002,2d
2019-07-15_185556:860,-0.28875700000000004,-0.009125,-0.41586300000000004,-0.0028399999999999996,0.0041,-0.000512,-23.0,-23.5,-24.370001000000002,2d
2019-07-15_185556:880,-0.28775,-0.008636,-0.414337,-0.0028399999999999996,0.005046,-0.000786,-22.559998999999998,-24.18,-24.370001000000002,2d
2019-07-15_185556:900,-0.28064,-0.008118,-0.411804,-0.002443,0.004894,-0.000786,-22.559998999999998,-24.18,-24.370001000000002,2d
2019-07-15_185556:920,-0.28064,-0.007599,-0.40976,-0.0025960000000000002,0.004771,-0.0009689999999999999,-22.559998999999998,-23.870001000000002,-24.370001000000002,2d
2019-07-15_185556:940,-0.281647,-0.007111,-0.408752,-0.002535,0.004161,-0.000573,-22.559998999999998,-23.870001000000002,-24.370001000000002,2d
2019-07-15_185556:960,-0.280121,-0.006592,-0.40976,-0.0028399999999999996,0.00352,-0.001,-22.559998999999998,-23.870001000000002,-24.370001000000002,2d
2019-07-15_185556:980,-0.281647,-0.006072999999999999,-0.411804,-0.0034509999999999996,0.002788,-0.0017929999999999999,-23.25,-23.870001000000002,-24.0,2d
2019-07-15_185557:000,-0.282654,-0.0055850000000000006,-0.40976,-0.003817,0.001842,-0.0021899999999999997,-23.25,-23.870001000000002,-24.0,2d
2019-07-15_185557:020,-0.285217,-0.005065999999999999,-0.411285,-0.003878,0.0012619999999999999,-0.0021899999999999997,-22.559998999999998,-23.870001000000002,-24.0,2d
2019-07-15_185557:040,-0.28927600000000003,-0.005065999999999999,-0.410278,-0.003878,0.0009570000000000001,-0.0017629999999999998,-22.559998999999998,-23.870001000000002,-24.0,2d
2019-07-15_185557:060,-0.290283,-0.005065999999999999,-0.415375,-0.00403,0.0012619999999999999,-0.0012439999999999999,-22.559998999999998,-23.870001000000002,-24.0,2d
2019-07-15_185557:080,-0.286224,-0.005065999999999999,-0.415375,-0.004091,0.001628,-0.00023700000000000001,-23.25,-23.870001000000002,-23.559998999999998,2d
2019-07-15_185557:100,-0.287231,-0.005065999999999999,-0.416382,-0.004336,0.00172,-0.000786,-23.25,-23.870001000000002,-23.559998999999998,2d
2019-07-15_185557:120,-0.290802,-0.0025329999999999997,-0.41384899999999997,-0.004397,0.001628,-0.001,-23.0,-23.5,-24.370001000000002,2d
2019-07-15_185557:140,-0.293335,-0.0030210000000000002,-0.415375,-0.004427,0.002635,-0.00023700000000000001,-23.0,-23.5,-24.370001000000002,2d
2019-07-15_185557:160,-0.29486100000000004,-0.001007,-0.41485600000000006,-0.00461,0.00349,-0.000328,-23.0,-23.5,-24.370001000000002,2d
2019-07-15_185557:180,-0.29232800000000003,-0.001495,-0.41333000000000003,-0.004671,0.004497,-0.000328,-23.25,-23.059998999999998,-24.0,2d
2019-07-15_185557:200,-0.29538000000000003,-0.001495,-0.411285,-0.004671,0.005046,-5.4000000000000005e-05,-23.25,-23.059998999999998,-24.0,2d
2019-07-15_185557:220,-0.296906,0.000488,-0.409271,-0.005129,0.00584,7.000000000000001e-06,-23.68,-23.5,-24.75,2d
2019-07-15_185557:240,-0.29943800000000004,0.0,-0.409271,-0.005282,0.006358,0.00016,-23.68,-23.5,-24.75,2d
2019-07-15_185557:260,-0.29232800000000003,0.001007,-0.407227,-0.005343,0.006755,6.8e-05,-23.68,-23.5,-24.75,2d
2019-07-15_185557:280,-0.29538000000000003,0.0,-0.407227,-0.005526,0.006541,-0.000176,-23.18,-24.18,-24.0,2d
2019-07-15_185557:300,-0.298431,-0.000488,-0.406738,-0.0051600000000000005,0.006876999999999999,0.00028199999999999997,-23.18,-24.18,-24.0,2d
2019-07-15_185557:320,-0.29943800000000004,-0.000488,-0.406738,-0.004946,0.0071519999999999995,0.000648,-22.870001000000002,-24.18,-24.75,2d
2019-07-15_185557:340,-0.29895,-0.000488,-0.40774499999999997,-0.00461,0.007701,0.000984,-22.870001000000002,-24.18,-24.75,2d
2019-07-15_185557:360,-0.29538000000000003,-0.0030210000000000002,-0.406738,-0.004275,0.008159,0.0008619999999999999,-22.870001000000002,-24.18,-24.75,2d
2019-07-15_185557:380,-0.30249000000000004,-0.0025329999999999997,-0.408752,-0.003817,0.007762000000000001,6.8e-05,-24.68,-24.18,-23.559998999999998,2d
2019-07-15_185557:400,-0.307587,-0.004547,-0.410278,-0.0034509999999999996,0.008434,-0.0013050000000000002,-24.68,-24.18,-23.559998999999998,2d
2019-07-15_185557:420,-0.306061,-0.007599,-0.41232299999999994,-0.002993,0.009746,-0.002983,-23.559998999999998,-24.18,-23.25,2d
2019-07-15_185557:440,-0.306061,-0.007599,-0.409271,-0.002169,0.010936,-0.004174000000000001,-23.559998999999998,-24.18,-23.25,2d
2019-07-15_185557:460,-0.30300900000000003,-0.005065999999999999,-0.404694,-0.001314,0.011607,-0.005303,-23.559998999999998,-24.18,-23.25,2d
2019-07-15_185557:480,-0.297913,0.0,-0.399109,-0.000582,0.011729,-0.006371,-23.25,-24.18,-24.75,2d
2019-07-15_185557:500,-0.29895,0.0055850000000000006,-0.394531,-0.000277,0.011089,-0.005883,-23.25,-24.18,-24.75,2d
2019-07-15_185557:520,-0.300476,0.007599,-0.393494,-0.000643,0.010081999999999999,-0.004753,-23.559998999999998,-23.870001000000002,-24.0,2d
2019-07-15_185557:540,-0.306061,0.009644,-0.390961,-0.001192,0.00941,-0.003167,-23.559998999999998,-23.870001000000002,-24.0,2d
2019-07-15_185557:560,-0.31012,0.010651,-0.391968,-0.001864,0.009288,-0.001854,-23.559998999999998,-23.870001000000002,-24.0,2d
2019-07-15_185557:580,-0.310638,0.011687999999999999,-0.391479,-0.003054,0.009013,-0.001183,-24.0,-24.18,-24.0,2d
2019-07-15_185557:600,-0.307068,0.007599,-0.391479,-0.003939,0.008617,-0.00023700000000000001,-24.0,-24.18,-24.0,2d
2019-07-15_185557:620,-0.307068,0.007111,-0.389435,-0.00461,0.007548999999999999,0.000129,-23.559998999999998,-24.18,-24.0,2d
2019-07-15_185557:640,-0.307068,0.007111,-0.385864,-0.005007,0.006816,0.000129,-23.559998999999998,-24.18,-24.0,2d
2019-07-15_185557:660,-0.311646,0.007111,-0.384857,-0.005556,0.005901,0.0007700000000000001,-23.559998999999998,-24.18,-24.0,2d
2019-07-15_185557:680,-0.311646,0.005065999999999999,-0.385376,-0.005922,0.005748,0.001625,-24.370001000000002,-24.18,-23.25,2d
2019-07-15_185557:700,-0.308594,0.006072999999999999,-0.385376,-0.006594,0.004954999999999999,0.001442,-24.370001000000002,-24.18,-23.25,2d
2019-07-15_185557:720,-0.311127,0.004547,-0.387909,-0.006684999999999999,0.003825,0.001045,-24.0,-23.870001000000002,-23.25,2d
2019-07-15_185557:740,-0.314697,0.004547,-0.385376,-0.006684999999999999,0.003093,6.8e-05,-24.0,-23.870001000000002,-23.25,2d
2019-07-15_185557:760,-0.314178,0.004547,-0.385864,-0.006594,0.002788,0.000923,-24.0,-23.870001000000002,-23.25,2d
2019-07-15_185557:780,-0.315704,0.004059,-0.386383,-0.006197,0.002635,0.001991,-23.559998999999998,-24.18,-22.059998999999998,2d
2019-07-15_185557:800,-0.314178,0.004547,-0.386383,-0.006136,0.002574,0.001564,-23.559998999999998,-24.18,-22.059998999999998,2d
2019-07-15_185557:820,-0.314697,0.004059,-0.388428,-0.005556,0.002239,0.001625,-24.68,-24.559998999999998,-22.370001000000002,2d
2019-07-15_185557:840,-0.315704,0.005065999999999999,-0.389435,-0.005221,0.002391,0.001625,-24.68,-24.559998999999998,-22.370001000000002,2d
2019-07-15_185557:860,-0.311646,0.0055850000000000006,-0.389954,-0.005129,0.002361,0.001716,-24.68,-24.559998999999998,-22.370001000000002,2d
2019-07-15_185557:880,-0.311646,0.004547,-0.386902,-0.004824,0.001964,0.002357,-23.559998999999998,-24.559998999999998,-22.370001000000002,2d
2019-07-15_185557:900,-0.313171,0.006592,-0.387909,-0.004793,0.001353,0.0018989999999999999,-23.559998999999998,-24.559998999999998,-22.370001000000002,2d
2019-07-15_185557:920,-0.31369,0.005065999999999999,-0.389435,-0.004671,0.0012619999999999999,0.001442,-24.370001000000002,-24.559998999999998,-22.75,2d
2019-07-15_185557:940,-0.312653,0.005065999999999999,-0.389954,-0.00461,0.000865,0.001228,-24.370001000000002,-24.559998999999998,-22.75,2d
2019-07-15_185557:960,-0.313171,0.0055850000000000006,-0.390961,-0.004671,0.000865,0.000831,-24.370001000000002,-24.559998999999998,-22.75,2d
2019-07-15_185557:980,-0.315704,0.0055850000000000006,-0.391968,-0.004549,0.000743,0.001258,-24.0,-24.559998999999998,-22.059998999999998,2d
2019-07-15_185558:000,-0.316223,0.004547,-0.391968,-0.004427,0.001018,0.00132,-24.0,-24.559998999999998,-22.059998999999998,2d
2019-07-15_185558:020,-0.313171,0.004547,-0.391968,-0.004397,0.0012619999999999999,0.000221,-24.370001000000002,-25.0,-23.559998999999998,2d
2019-07-15_185558:040,-0.313171,0.006072999999999999,-0.390961,-0.004213000000000001,0.001201,0.000404,-24.370001000000002,-25.0,-23.559998999999998,2d
2019-07-15_185558:060,-0.31369,0.004547,-0.394012,-0.004091,0.001353,0.000343,-24.370001000000002,-25.0,-23.559998999999998,2d
2019-07-15_185558:080,-0.312653,0.005065999999999999,-0.392487,-0.003939,0.0014759999999999999,7.000000000000001e-06,-24.370001000000002,-23.870001000000002,-22.75,2d
2019-07-15_185558:100,-0.314697,0.0035399999999999997,-0.392487,-0.003817,0.0016589999999999999,0.00028199999999999997,-24.370001000000002,-23.870001000000002,-22.75,2d
2019-07-15_185558:120,-0.315704,0.004059,-0.392487,-0.003939,0.001842,-0.000389,-24.370001000000002,-24.559998999999998,-22.75,2d
2019-07-15_185558:140,-0.315216,0.004059,-0.393494,-0.0036340000000000005,0.002116,-0.000634,-24.370001000000002,-24.559998999999998,-22.75,2d
2019-07-15_185558:160,-0.318756,0.0035399999999999997,-0.397583,-0.003878,0.0024519999999999998,-0.000725,-24.370001000000002,-24.559998999999998,-22.75,2d
2019-07-15_185558:180,-0.312653,0.0025329999999999997,-0.388428,-0.0036340000000000005,0.003093,-0.0009689999999999999,-24.370001000000002,-25.0,-22.75,2d
2019-07-15_185558:200,-0.309113,0.005065999999999999,-0.385376,-0.0028399999999999996,0.002757,-0.001,-24.370001000000002,-25.0,-22.75,2d
2019-07-15_185558:220,-0.314178,0.006592,-0.386383,-0.0022600000000000003,0.002513,-0.001397,-23.559998999999998,-24.18,-22.75,2d
2019-07-15_185558:240,-0.316742,0.006072999999999999,-0.394531,-0.001986,0.002361,-0.0013050000000000002,-23.559998999999998,-24.18,-22.75,2d
2019-07-15_185558:260,-0.314697,0.006592,-0.393494,-0.0020469999999999998,0.002391,-0.0013050000000000002,-23.559998999999998,-24.18,-22.75,2d
2019-07-15_185558:280,-0.312653,0.007111,-0.393005,-0.0021079999999999996,0.002239,-0.0012439999999999999,-23.559998999999998,-24.18,-22.75,2d
2019-07-15_185558:300,-0.312653,0.007111,-0.390961,-0.0022600000000000003,0.002177,-0.000664,-23.559998999999998,-24.18,-22.75,2d
2019-07-15_185558:320,-0.31369,0.006592,-0.390961,-0.002321,0.002239,7.000000000000001e-06,-24.0,-24.18,-23.25,2d
2019-07-15_185558:340,-0.314697,0.007599,-0.389435,-0.002382,0.002116,0.000496,-24.0,-24.18,-23.25,2d
2019-07-15_185558:360,-0.315216,0.006592,-0.390961,-0.0022600000000000003,0.001964,0.000984,-24.0,-24.18,-23.25,2d
2019-07-15_185558:380,-0.312164,0.006592,-0.390442,-0.002199,0.002116,0.001442,-24.0,-24.559998999999998,-22.059998999999998,2d
2019-07-15_185558:400,-0.313171,0.004547,-0.388916,-0.0021079999999999996,0.0017809999999999998,0.00196,-24.0,-24.559998999999998,-22.059998999999998,2d
2019-07-15_185558:420,-0.316742,0.0055850000000000006,-0.388428,-0.001925,0.0017809999999999998,0.0022960000000000003,-24.370001000000002,-24.18,-22.370001000000002,2d
2019-07-15_185558:440,-0.315704,0.004547,-0.389435,-0.001925,0.002116,0.002235,-24.370001000000002,-24.18,-22.370001000000002,2d
2019-07-15_185558:460,-0.315216,0.004059,-0.388916,-0.0020469999999999998,0.002177,0.0018989999999999999,-24.370001000000002,-24.18,-22.370001000000002,2d
2019-07-15_185558:480,-0.311646,0.004059,-0.38739,-0.002321,0.001842,0.001564,-24.0,-24.18,-22.370001000000002,2d
2019-07-15_185558:500,-0.311127,0.004547,-0.385864,-0.002779,0.001353,0.001258,-24.0,-24.18,-22.370001000000002,2d
2019-07-15_185558:520,-0.311646,0.004059,-0.38739,-0.0032979999999999997,0.000743,0.001045,-24.68,-25.0,-22.75,2d
2019-07-15_185558:540,-0.311646,0.004059,-0.386383,-0.003573,7.2e-05,0.000984,-24.68,-25.0,-22.75,2d
2019-07-15_185558:560,-0.31369,0.0025329999999999997,-0.389954,-0.003878,-0.000233,0.000831,-24.68,-25.0,-22.75,2d
2019-07-15_185558:580,-0.317749,0.004059,-0.388428,-0.00403,-0.000233,0.0007700000000000001,-24.68,-24.559998999999998,-22.75,2d
2019-07-15_185558:600,-0.319275,0.0030210000000000002,-0.389954,-0.004152,0.000499,0.0007700000000000001,-24.68,-24.559998999999998,-22.75,2d
2019-07-15_185558:620,-0.317749,0.0035399999999999997,-0.391968,-0.004275,0.0009570000000000001,0.000709,-23.18,-23.870001000000002,-24.0,2d
2019-07-15_185558:640,-0.315704,0.0025329999999999997,-0.389954,-0.004488000000000001,0.001292,0.001167,-23.18,-23.870001000000002,-24.0,2d
2019-07-15_185558:660,-0.315704,0.0025329999999999997,-0.387909,-0.00461,0.001292,0.002235,-23.18,-23.870001000000002,-24.0,2d
2019-07-15_185558:680,-0.312653,0.001007,-0.386902,-0.004824,0.001353,0.00196,-23.559998999999998,-23.870001000000002,-24.0,2d
2019-07-15_185558:700,-0.314697,0.001495,-0.388916,-0.0048850000000000005,0.001201,0.001106,-23.559998999999998,-23.870001000000002,-24.0,2d
2019-07-15_185558:720,-0.315216,0.001495,-0.389435,-0.0048850000000000005,0.0009570000000000001,-5.4000000000000005e-05,-24.0,-24.559998999999998,-23.25,2d
2019-07-15_185558:740,-0.31369,0.002014,-0.390442,-0.004793,0.001201,0.000129,-24.0,-24.559998999999998,-23.25,2d
2019-07-15_185558:760,-0.314697,0.0,-0.390961,-0.004488000000000001,0.0010789999999999999,0.00028199999999999997,-24.0,-24.559998999999998,-23.25,2d
2019-07-15_185558:780,-0.314697,0.0,-0.389435,-0.004,0.000865,-0.000267,-24.370001000000002,-23.5,-22.370001000000002,2d
2019-07-15_185558:800,-0.315704,0.0035399999999999997,-0.389435,-0.0036340000000000005,0.001353,-0.00023700000000000001,-24.370001000000002,-23.5,-22.370001000000002,2d
2019-07-15_185558:820,-0.31369,0.004547,-0.390442,-0.003512,0.001415,0.000404,-24.0,-24.559998999999998,-23.25,2d
2019-07-15_185558:840,-0.311646,0.004059,-0.388916,-0.003512,0.001292,0.000587,-24.0,-24.559998999999998,-23.25,2d
2019-07-15_185558:860,-0.313171,0.006072999999999999,-0.389954,-0.0036950000000000004,0.001415,0.001106,-24.0,-24.559998999999998,-23.25,2d
2019-07-15_185558:880,-0.315216,0.006592,-0.392487,-0.00403,0.0012619999999999999,0.001106,-24.0,-25.370001000000002,-22.75,2d
2019-07-15_185558:900,-0.314178,0.006072999999999999,-0.390442,-0.004427,0.001353,0.001258,-24.0,-25.370001000000002,-22.75,2d
2019-07-15_185558:920,-0.31369,0.005065999999999999,-0.394012,-0.004732,0.00172,0.001503,-23.18,-24.18,-22.370001000000002,2d
2019-07-15_185558:940,-0.312164,0.004547,-0.390961,-0.004946,0.001415,0.001625,-23.18,-24.18,-22.370001000000002,2d
2019-07-15_185558:960,-0.313171,0.004059,-0.391479,-0.005068,0.001292,0.001716,-23.18,-24.18,-22.370001000000002,2d
2019-07-15_185558:980,-0.311646,0.004059,-0.389954,-0.005129,0.001292,0.0022960000000000003,-24.0,-24.559998999999998,-22.370001000000002,2d
2019-07-15_185559:000,-0.310638,0.0035399999999999997,-0.389954,-0.005282,0.00114,0.002052,-24.0,-24.559998999999998,-22.370001000000002,2d
2019-07-15_185559:020,-0.311127,0.0035399999999999997,-0.390442,-0.005526,0.000743,0.001716,-24.370001000000002,-24.18,-23.25,2d
2019-07-15_185559:040,-0.309601,0.0035399999999999997,-0.388428,-0.005526,0.000468,0.0021739999999999997,-24.370001000000002,-24.18,-23.25,2d
2019-07-15_185559:060,-0.311127,0.002014,-0.391479,-0.0056170000000000005,-5e-05,0.001991,-24.370001000000002,-24.18,-23.25,2d
2019-07-15_185559:080,-0.312164,0.001495,-0.390961,-0.005465,-0.00011100000000000001,0.001777,-24.0,-25.0,-22.75,2d
2019-07-15_185559:100,-0.310638,0.0,-0.391968,-0.005068,-5e-05,0.001625,-24.0,-25.0,-22.75,2d
2019-07-15_185559:120,-0.310638,-0.000488,-0.393005,-0.00461,-5e-05,0.001503,-24.370001000000002,-24.18,-21.25,2d
2019-07-15_185559:140,-0.312164,0.0,-0.394012,-0.004152,7.2e-05,0.001228,-24.370001000000002,-24.18,-21.25,2d
2019-07-15_185559:160,-0.312653,-0.001495,-0.395538,-0.003512,0.000133,0.001045,-24.370001000000002,-24.18,-21.25,2d
2019-07-15_185559:180,-0.31369,0.0,-0.395538,-0.0031149999999999997,0.000621,0.000984,-24.370001000000002,-24.559998999999998,-23.25,2d
2019-07-15_185559:200,-0.313171,0.001007,-0.395538,-0.002657,0.0012619999999999999,0.000831,-24.370001000000002,-24.559998999999998,-23.25,2d
2019-07-15_185559:220,-0.313171,0.0025329999999999997,-0.39502,-0.0025050000000000003,0.001598,0.000343,-24.370001000000002,-23.870001000000002,-22.370001000000002,2d
2019-07-15_185559:240,-0.312164,0.0030210000000000002,-0.39502,-0.002382,0.001994,0.00028199999999999997,-24.370001000000002,-23.870001000000002,-22.370001000000002,2d
2019-07-15_185559:260,-0.312164,0.004059,-0.39502,-0.002657,0.002361,0.00016,-24.370001000000002,-23.870001000000002,-22.370001000000002,2d
2019-07-15_185559:280,-0.313171,0.0025329999999999997,-0.39502,-0.002932,0.002757,0.000221,-23.559998999999998,-24.18,-22.75,2d
2019-07-15_185559:300,-0.311127,0.002014,-0.391968,-0.003176,0.003032,0.00028199999999999997,-23.559998999999998,-24.18,-22.75,2d
2019-07-15_185559:320,-0.309601,0.0030210000000000002,-0.393005,-0.003573,0.003124,0.00028199999999999997,-24.370001000000002,-25.370001000000002,-22.75,2d
2019-07-15_185559:340,-0.309601,0.0,-0.392487,-0.0034509999999999996,0.002696,0.000496,-24.370001000000002,-25.370001000000002,-22.75,2d
2019-07-15_185559:360,-0.31012,0.001007,-0.393005,-0.0036340000000000005,0.002513,0.000343,-24.370001000000002,-25.370001000000002,-22.75,2d
2019-07-15_185559:380,-0.313171,0.002014,-0.393005,-0.003664,0.0023,0.000343,-23.559998999999998,-24.18,-22.75,2d
2019-07-15_185559:400,-0.311646,0.001007,-0.391479,-0.0036950000000000004,0.002177,0.000648,-23.559998999999998,-24.18,-22.75,2d
2019-07-15_185559:420,-0.314178,0.002014,-0.391968,-0.0037560000000000002,0.0024519999999999998,0.000404,-24.0,-23.059998999999998,-23.559998999999998,2d
2019-07-15_185559:440,-0.312653,0.001007,-0.391968,-0.0036340000000000005,0.002757,0.00028199999999999997,-24.0,-23.059998999999998,-23.559998999999998,2d
2019-07-15_185559:460,-0.313171,0.0,-0.393005,-0.003664,0.002696,7.000000000000001e-06,-24.0,-23.059998999999998,-23.559998999999998,2d
2019-07-15_185559:480,-0.313171,0.000488,-0.393494,-0.003512,0.002757,-0.00011499999999999999,-23.559998999999998,-24.18,-23.559998999999998,2d
2019-07-15_185559:500,-0.31369,0.000488,-0.391479,-0.00339,0.002849,-5.4000000000000005e-05,-23.559998999999998,-24.18,-23.559998999999998,2d
2019-07-15_185559:520,-0.313171,0.0030210000000000002,-0.391968,-0.0033280000000000002,0.002788,-0.00011499999999999999,-24.68,-24.559998999999998,-23.25,2d
2019-07-15_185559:540,-0.316742,0.0035399999999999997,-0.391479,-0.0034509999999999996,0.003093,0.000221,-24.68,-24.559998999999998,-23.25,2d
2019-07-15_185559:560,-0.315216,0.0030210000000000002,-0.389954,-0.0033280000000000002,0.0034289999999999998,0.000831,-24.68,-24.559998999999998,-23.25,2d
2019-07-15_185559:580,-0.315216,0.0025329999999999997,-0.388428,-0.003664,0.003825,0.000831,-24.370001000000002,-24.18,-23.25,2d
2019-07-15_185559:600,-0.313171,0.0025329999999999997,-0.389435,-0.0037560000000000002,0.003703,0.0008619999999999999,-24.370001000000002,-24.18,-23.25,2d
2019-07-15_185559:620,-0.314178,0.002014,-0.388916,-0.003664,0.0036420000000000003,0.000496,-24.370001000000002,-25.0,-22.75,2d
2019-07-15_185559:640,-0.315216,0.0030210000000000002,-0.387909,-0.003878,0.00352,-0.00023700000000000001,-24.370001000000002,-25.0,-22.75,2d
2019-07-15_185559:660,-0.316223,0.0035399999999999997,-0.387909,-0.003664,0.003368,-0.000512,-24.370001000000002,-25.0,-22.75,2d
2019-07-15_185559:680,-0.316223,0.004059,-0.389954,-0.0036340000000000005,0.00349,-0.00023700000000000001,-24.68,-24.18,-22.75,2d
2019-07-15_185559:700,-0.312653,0.0030210000000000002,-0.388916,-0.0036340000000000005,0.003307,-5.4000000000000005e-05,-24.68,-24.18,-22.75,2d
2019-07-15_185559:720,-0.316742,0.005065999999999999,-0.386383,-0.003512,0.002849,-0.00023700000000000001,-24.68,-24.559998999999998,-23.25,2d
2019-07-15_185559:740,-0.316223,0.004059,-0.386383,-0.003512,0.003124,0.000984,-24.68,-24.559998999999998,-23.25,2d
2019-07-15_185559:760,-0.31369,0.0055850000000000006,-0.386383,-0.0037560000000000002,0.002635,0.000923,-24.68,-24.559998999999998,-23.25,2d
2019-07-15_185559:780,-0.314697,0.0030210000000000002,-0.388428,-0.004,0.002391,0.000587,-24.370001000000002,-24.559998999999998,-22.370001000000002,2d
2019-07-15_185559:800,-0.317749,0.0025329999999999997,-0.387909,-0.004213000000000001,0.0017809999999999998,-0.0011220000000000002,-24.370001000000002,-24.559998999999998,-22.370001000000002,2d
2019-07-15_185559:820,-0.318756,0.0025329999999999997,-0.387909,-0.004275,0.0019030000000000002,-0.0008470000000000001,-24.370001000000002,-23.870001000000002,-23.25,2d
2019-07-15_185559:840,-0.320282,0.0,-0.386383,-0.004213000000000001,0.002177,-0.000389,-24.370001000000002,-23.870001000000002,-23.25,2d
2019-07-15_185559:860,-0.319794,0.001007,-0.388428,-0.003817,0.002513,-0.001519,-24.370001000000002,-23.870001000000002,-23.25,2d
2019-07-15_185559:880,-0.319794,0.001495,-0.386383,-0.003237,0.002696,-0.001397,-24.370001000000002,-24.18,-21.559998999999998,2d
2019-07-15_185559:900,-0.318268,0.0035399999999999997,-0.384857,-0.002535,0.0031850000000000003,-0.001397,-24.370001000000002,-24.18,-21.559998999999998,2d
2019-07-15_185559:920,-0.317749,0.005065999999999999,-0.383331,-0.002382,0.002849,-0.0011220000000000002,-24.68,-24.18,-22.75,2d
2019-07-15_185559:940,-0.317749,0.006592,-0.384338,-0.002199,0.002696,-0.000634,-24.68,-24.18,-22.75,2d
2019-07-15_185559:960,-0.317749,0.0055850000000000006,-0.382324,-0.002321,0.002574,-0.000786,-24.68,-24.18,-22.75,2d
2019-07-15_185559:980,-0.314697,0.0055850000000000006,-0.384338,-0.002657,0.002177,-0.000512,-24.68,-24.18,-22.75,2d
2019-07-15_185600:000,-0.312653,0.006072999999999999,-0.38385,-0.0028399999999999996,0.001598,-0.000176,-24.68,-24.18,-22.75,2d
2019-07-15_185600:020,-0.318756,0.0055850000000000006,-0.385376,-0.003176,0.000865,0.000221,-24.370001000000002,-24.18,-22.370001000000002,2d
2019-07-15_185600:040,-0.322845,0.0035399999999999997,-0.38385,-0.003237,0.0008039999999999999,0.000526,-24.370001000000002,-24.18,-22.370001000000002,2d
2019-07-15_185600:060,-0.320801,0.004059,-0.385864,-0.003664,0.001201,0.001167,-24.370001000000002,-24.18,-22.370001000000002,2d
2019-07-15_185600:080,-0.31723,0.004059,-0.388428,-0.003817,0.001598,0.000923,-24.370001000000002,-24.18,-22.059998999999998,2d
2019-07-15_185600:100,-0.316742,0.006072999999999999,-0.38739,-0.004336,0.001628,0.000496,-24.370001000000002,-24.18,-22.059998999999998,2d
2019-07-15_185600:120,-0.31723,0.005065999999999999,-0.387909,-0.004427,0.0014759999999999999,0.001258,-24.68,-24.18,-23.25,2d
2019-07-15_185600:140,-0.318268,0.004059,-0.386902,-0.005068,0.00114,0.001106,-24.68,-24.18,-23.25,2d
2019-07-15_185600:160,-0.319794,0.002014,-0.388916,-0.005404,0.0010789999999999999,0.001258,-24.68,-24.18,-23.25,2d
2019-07-15_185600:180,-0.319794,0.001495,-0.388428,-0.005404,0.001292,0.000587,-24.0,-23.870001000000002,-22.370001000000002,2d
2019-07-15_185600:200,-0.319275,0.001495,-0.38739,-0.0051600000000000005,0.0016589999999999999,0.000221,-24.0,-23.870001000000002,-22.370001000000002,2d
2019-07-15_185600:220,-0.317749,0.002014,-0.388916,-0.0048850000000000005,0.001842,0.000709,-24.0,-24.559998999999998,-22.75,2d
2019-07-15_185600:240,-0.316742,0.0035399999999999997,-0.38739,-0.004488000000000001,0.001964,0.000496,-24.0,-24.559998999999998,-22.75,2d
2019-07-15_185600:260,-0.316223,0.0035399999999999997,-0.387909,-0.004,0.0019030000000000002,0.000465,-24.0,-24.559998999999998,-22.75,2d
2019-07-15_185600:280,-0.318268,0.004059,-0.385864,-0.0037560000000000002,0.0017809999999999998,0.00016,-24.68,-24.18,-22.75,2d
2019-07-15_185600:300,-0.318268,0.005065999999999999,-0.38739,-0.003817,0.001994,0.000496,-24.68,-24.18,-22.75,2d
2019-07-15_185600:320,-0.318268,0.004547,-0.386902,-0.0036340000000000005,0.001842,0.000709,-24.68,-24.559998999999998,-22.370001000000002,2d
2019-07-15_185600:340,-0.316742,0.007599,-0.384338,-0.0037560000000000002,0.0017809999999999998,0.000709,-24.68,-24.559998999999998,-22.370001000000002,2d
2019-07-15_185600:360,-0.316742,0.008636,-0.386902,-0.00403,0.0017809999999999998,0.000526,-24.68,-24.559998999999998,-22.370001000000002,2d
2019-07-15_185600:380,-0.319275,0.008636,-0.387909,-0.004336,0.001598,0.001045,-24.370001000000002,-24.559998999999998,-23.25,2d
2019-07-15_185600:400,-0.320282,0.006072999999999999,-0.385864,-0.005007,0.001842,0.001258,-24.370001000000002,-24.559998999999998,-23.25,2d
2019-07-15_185600:420,-0.319794,0.004547,-0.386383,-0.0051600000000000005,0.001994,0.001106,-24.370001000000002,-25.0,-23.559998999999998,2d
2019-07-15_185600:440,-0.317749,0.0035399999999999997,-0.386383,-0.005465,0.002239,0.0008619999999999999,-24.370001000000002,-25.0,-23.559998999999998,2d
2019-07-15_185600:460,-0.316742,0.004547,-0.385864,-0.005404,0.0024519999999999998,0.000587,-24.370001000000002,-25.0,-23.559998999999998,2d
2019-07-15_185600:480,-0.316223,0.005065999999999999,-0.385864,-0.005404,0.002177,0.000648,-24.68,-25.0,-22.75,2d
2019-07-15_185600:500,-0.316223,0.005065999999999999,-0.38739,-0.005282,0.002116,0.000587,-24.68,-25.0,-22.75,2d
2019-07-15_185600:520,-0.31723,0.005065999999999999,-0.38739,-0.0051600000000000005,0.0019030000000000002,0.000343,-24.68,-24.559998999999998,-22.059998999999998,2d
2019-07-15_185600:540,-0.316742,0.005065999999999999,-0.386902,-0.005068,0.001994,0.000496,-24.68,-24.559998999999998,-22.059998999999998,2d
2019-07-15_185600:560,-0.316223,0.004059,-0.387909,-0.004946,0.002116,0.0007700000000000001,-24.68,-24.559998999999998,-22.059998999999998,2d
2019-07-15_185600:580,-0.31723,0.0030210000000000002,-0.38739,-0.004793,0.0017809999999999998,0.0007700000000000001,-24.68,-24.559998999999998,-22.370001000000002,2d
2019-07-15_185600:600,-0.317749,0.0035399999999999997,-0.385864,-0.004427,0.0019030000000000002,0.000343,-24.68,-24.559998999999998,-22.370001000000002,2d
2019-07-15_185600:620,-0.317749,0.0055850000000000006,-0.387909,-0.004091,0.001994,0.000129,-24.0,-25.68,-22.370001000000002,2d
2019-07-15_185600:640,-0.316223,0.007111,-0.385864,-0.003939,0.001842,0.000221,-24.0,-25.68,-22.370001000000002,2d
2019-07-15_185600:660,-0.316742,0.007111,-0.386383,-0.0037560000000000002,0.001353,0.000465,-24.0,-25.68,-22.370001000000002,2d
2019-07-15_185600:680,-0.317749,0.0055850000000000006,-0.385864,-0.0036340000000000005,0.0012619999999999999,0.000465,-24.370001000000002,-24.559998999999998,-23.18,2d
2019-07-15_185600:700,-0.320801,0.008118,-0.384338,-0.0036340000000000005,0.001292,0.0007700000000000001,-24.370001000000002,-24.559998999999998,-23.18,2d
2019-07-15_185600:720,-0.320801,0.0035399999999999997,-0.38739,-0.0037560000000000002,0.001598,0.001503,-24.370001000000002,-24.559998999999998,-22.059998999999998,2d
2019-07-15_185600:740,-0.318756,0.004059,-0.38739,-0.0036340000000000005,0.001598,0.001228,-24.370001000000002,-24.559998999999998,-22.059998999999998,2d
2019-07-15_185600:760,-0.318268,0.0055850000000000006,-0.386383,-0.0036950000000000004,0.0012619999999999999,-0.00023700000000000001,-24.370001000000002,-24.559998999999998,-22.059998999999998,2d
2019-07-15_185600:780,-0.319794,0.0025329999999999997,-0.388428,-0.003664,0.001353,-0.000786,-24.0,-23.870001000000002,-22.370001000000002,2d
2019-07-15_185600:800,-0.320282,0.004547,-0.385864,-0.0036340000000000005,0.001598,6.8e-05,-24.0,-23.870001000000002,-22.370001000000002,2d
2019-07-15_185600:820,-0.32132,0.006072999999999999,-0.388916,-0.0033280000000000002,0.0019030000000000002,-5.4000000000000005e-05,-24.68,-24.559998999999998,-22.370001000000002,2d
2019-07-15_185600:840,-0.321808,0.006072999999999999,-0.38739,-0.0033280000000000002,0.002513,-0.000267,-24.68,-24.559998999999998,-22.370001000000002,2d
2019-07-15_185600:860,-0.319275,0.008118,-0.385864,-0.003573,0.002849,0.000129,-24.68,-24.559998999999998,-22.370001000000002,2d
2019-07-15_185600:880,-0.317749,0.007599,-0.387909,-0.003817,0.0029100000000000003,0.000404,-24.370001000000002,-25.370001000000002,-24.0,2d
2019-07-15_185600:900,-0.316223,0.007111,-0.385864,-0.00403,0.002635,0.000496,-24.370001000000002,-25.370001000000002,-24.0,2d
2019-07-15_185600:920,-0.318268,0.007599,-0.385864,-0.004213000000000001,0.0023,0.000526,-24.0,-25.370001000000002,-22.75,2d
2019-07-15_185600:940,-0.318756,0.007111,-0.385376,-0.004397,0.002361,0.000648,-24.0,-25.370001000000002,-22.75,2d
2019-07-15_185600:960,-0.319794,0.007111,-0.38385,-0.004427,0.002177,0.0008619999999999999,-24.0,-25.370001000000002,-22.75,2d
2019-07-15_185600:980,-0.319275,0.008118,-0.384338,-0.00461,0.002239,0.000984,-24.0,-24.18,-23.25,2d
2019-07-15_185601:000,-0.319794,0.009125,-0.382324,-0.004824,0.002513,0.001106,-24.0,-24.18,-23.25,2d
2019-07-15_185601:020,-0.32132,0.009125,-0.385376,-0.005068,0.002239,0.002357,-24.68,-24.559998999999998,-22.370001000000002,2d
2019-07-15_185601:040,-0.322327,0.011687999999999999,-0.38385,-0.0058,0.0024519999999999998,0.003517,-24.68,-24.559998999999998,-22.370001000000002,2d
2019-07-15_185601:060,-0.32486,0.014740000000000001,-0.385864,-0.006869,0.002757,0.003761,-24.68,-24.559998999999998,-22.370001000000002,2d
2019-07-15_185601:080,-0.323853,0.016266,-0.386902,-0.00812,0.003124,0.005012,-24.68,-24.559998999999998,-22.059998999999998,2d
2019-07-15_185601:100,-0.323334,0.014221000000000001,-0.385376,-0.009004999999999999,0.0034289999999999998,0.006934999999999999,-24.68,-24.559998999999998,-22.059998999999998,2d
2019-07-15_185601:120,-0.320282,0.012177,-0.382812,-0.009859,0.0035810000000000004,0.007484,-24.370001000000002,-24.559998999999998,-22.059998999999998,2d
2019-07-15_185601:140,-0.319275,0.008636,-0.380798,-0.010378,0.003368,0.007423000000000001,-24.370001000000002,-24.559998999999998,-22.059998999999998,2d
2019-07-15_185601:160,-0.31723,0.0055850000000000006,-0.380798,-0.010531,0.0029100000000000003,0.007209,-24.370001000000002,-24.559998999999998,-22.059998999999998,2d
2019-07-15_185601:180,-0.315216,0.004059,-0.380798,-0.010317,0.002116,0.006294,-24.370001000000002,-24.18,-22.370001000000002,2d
2019-07-15_185601:200,-0.31723,0.001495,-0.380798,-0.009798000000000001,0.001598,0.0053479999999999995,-24.370001000000002,-24.18,-22.370001000000002,2d
2019-07-15_185601:220,-0.315704,0.001495,-0.382324,-0.009249,0.001292,0.004768,-24.68,-23.870001000000002,-21.25,2d
2019-07-15_185601:240,-0.315704,-0.001007,-0.38028,-0.007326000000000001,0.000285,0.003486,-24.68,-23.870001000000002,-21.25,2d
2019-07-15_185601:260,-0.31723,-0.001495,-0.380798,-0.0058,-0.000172,0.00196,-24.68,-23.870001000000002,-21.25,2d
2019-07-15_185601:280,-0.316742,-0.000488,-0.381317,-0.004275,-0.000233,0.001045,-25.059998999999998,-25.0,-22.059998999999998,2d
2019-07-15_185601:300,-0.318756,0.0,-0.382812,-0.002932,-0.00063,0.000129,-25.059998999999998,-25.0,-22.059998999999998,2d
2019-07-15_185601:320,-0.320801,0.0035399999999999997,-0.387909,-0.0020469999999999998,-0.0009050000000000001,-0.000328,-25.870001000000002,-24.18,-23.18,2d
2019-07-15_185601:340,-0.32132,0.004547,-0.389435,-0.001772,-0.000172,-0.000328,-25.870001000000002,-24.18,-23.18,2d
2019-07-15_185601:360,-0.323853,0.009644,-0.388428,-0.001864,0.000407,-0.000267,-25.870001000000002,-24.18,-23.18,2d
2019-07-15_185601:380,-0.324371,0.011169,-0.390442,-0.001986,0.000743,-0.000176,-24.370001000000002,-25.0,-21.559998999999998,2d
2019-07-15_185601:400,-0.323853,0.010651,-0.388916,-0.002993,0.0016589999999999999,-5.4000000000000005e-05,-24.370001000000002,-25.0,-21.559998999999998,2d
2019-07-15_185601:420,-0.324371,0.009644,-0.389435,-0.0034509999999999996,0.002361,0.000129,-24.68,-24.18,-22.370001000000002,2d
2019-07-15_185601:440,-0.324371,0.007599,-0.388428,-0.003664,0.003032,0.000221,-24.68,-24.18,-22.370001000000002,2d
2019-07-15_185601:460,-0.323334,0.006072999999999999,-0.386902,-0.0036950000000000004,0.0031850000000000003,0.000221,-24.68,-24.18,-22.370001000000002,2d
2019-07-15_185601:480,-0.32132,0.004547,-0.385864,-0.0031149999999999997,0.0034289999999999998,0.00016,-24.370001000000002,-25.370001000000002,-21.559998999999998,2d
2019-07-15_185601:500,-0.320282,0.006592,-0.383331,-0.0028399999999999996,0.003764,-5.4000000000000005e-05,-24.370001000000002,-25.370001000000002,-21.559998999999998,2d
2019-07-15_185601:520,-0.318756,0.007111,-0.382324,-0.002779,0.00349,-0.00011499999999999999,-24.68,-23.870001000000002,-21.25,2d
2019-07-15_185601:540,-0.318756,0.007111,-0.382324,-0.002718,0.002757,-0.000176,-24.68,-23.870001000000002,-21.25,2d
2019-07-15_185601:560,-0.319794,0.010162000000000001,-0.381317,-0.002993,0.0024519999999999998,-0.000328,-24.68,-23.870001000000002,-21.25,2d
2019-07-15_185601:580,-0.318756,0.010651,-0.381805,-0.00339,0.002391,-0.00023700000000000001,-25.5,-24.559998999999998,-22.75,2d
2019-07-15_185601:600,-0.318756,0.009125,-0.380798,-0.003573,0.001994,-0.000389,-25.5,-24.559998999999998,-22.75,2d
2019-07-15_185601:620,-0.319794,0.008118,-0.382812,-0.00339,0.00172,-0.00045099999999999996,-25.059998999999998,-24.559998999999998,-22.370001000000002,2d
2019-07-15_185601:640,-0.320282,0.006592,-0.382812,-0.0031149999999999997,0.001842,-0.000389,-25.059998999999998,-24.559998999999998,-22.370001000000002,2d
2019-07-15_185601:660,-0.32132,0.008118,-0.384338,-0.002718,0.00172,0.000221,-25.059998999999998,-24.559998999999998,-22.370001000000002,2d
2019-07-15_185601:680,-0.319794,0.008118,-0.383331,-0.0025050000000000003,0.001964,0.00028199999999999997,-24.68,-24.559998999999998,-22.059998999999998,2d
2019-07-15_185601:700,-0.321808,0.009125,-0.382324,-0.002779,0.00172,0.000526,-24.68,-24.559998999999998,-22.059998999999998,2d
2019-07-15_185601:720,-0.319275,0.011169,-0.382812,-0.002779,0.00172,0.00132,-24.68,-24.559998999999998,-22.059998999999998,2d
2019-07-15_185601:740,-0.322845,0.010162000000000001,-0.385864,-0.0037560000000000002,0.001628,0.001716,-24.68,-24.559998999999998,-22.75,2d
2019-07-15_185601:760,-0.322327,0.010162000000000001,-0.38385,-0.004152,0.001415,0.001228,-24.68,-24.559998999999998,-22.75,2d
2019-07-15_185601:780,-0.324371,0.008636,-0.385376,-0.004793,0.001537,0.00028199999999999997,-24.68,-24.559998999999998,-21.25,2d
2019-07-15_185601:800,-0.323334,0.007111,-0.38385,-0.004946,0.001964,0.000648,-24.68,-24.559998999999998,-21.25,2d
2019-07-15_185601:820,-0.323853,0.006072999999999999,-0.386383,-0.005068,0.001994,0.001045,-24.0,-24.18,-21.559998999999998,2d
2019-07-15_185601:840,-0.323334,0.004547,-0.38385,-0.004336,0.002757,0.000465,-24.0,-24.18,-21.559998999999998,2d
2019-07-15_185601:860,-0.323334,0.006072999999999999,-0.382812,-0.004,0.0029100000000000003,0.000648,-24.0,-24.18,-21.559998999999998,2d
2019-07-15_185601:880,-0.321808,0.006072999999999999,-0.383331,-0.00403,0.0031850000000000003,0.000984,-25.059998999999998,-24.559998999999998,-21.559998999999998,2d
2019-07-15_185601:900,-0.318268,0.008118,-0.38028,-0.003939,0.002788,0.001258,-25.059998999999998,-24.559998999999998,-21.559998999999998,2d
2019-07-15_185601:920,-0.317749,0.008636,-0.381317,-0.004091,0.0023,0.001228,-25.5,-24.559998999999998,-22.059998999999998,2d
2019-07-15_185601:940,-0.320282,0.008636,-0.382324,-0.004336,0.001628,0.0007700000000000001,-25.5,-24.559998999999998,-22.059998999999998,2d
2019-07-15_185601:960,-0.323334,0.007599,-0.382324,-0.004488000000000001,0.001842,0.000831,-25.5,-24.559998999999998,-22.059998999999998,2d
2019-07-15_185601:980,-0.321808,0.007599,-0.38385,-0.004732,0.00172,0.000831,-24.370001000000002,-24.559998999999998,-22.75,2d
2019-07-15_185602:000,-0.32132,0.010162000000000001,-0.383331,-0.004946,0.0017809999999999998,0.000923,-24.370001000000002,-24.559998999999998,-22.75,2d
2019-07-15_185602:020,-0.323334,0.011687999999999999,-0.385376,-0.005129,0.001964,0.001625,-24.370001000000002,-24.559998999999998,-22.75,2d
2019-07-15_185602:040,-0.32486,0.012695,-0.384857,-0.005221,0.0023,0.00251,-25.059998999999998,-23.870001000000002,-22.059998999999998,2d
2019-07-15_185602:060,-0.323334,0.011687999999999999,-0.385376,-0.005861,0.002757,0.003242,-25.059998999999998,-23.870001000000002,-22.059998999999998,2d
2019-07-15_185602:080,-0.320282,0.007111,-0.384338,-0.006075,0.002574,0.002845,-25.5,-24.559998999999998,-22.059998999999998,2d
2019-07-15_185602:100,-0.321808,0.007111,-0.382812,-0.00635,0.002391,0.00251,-25.5,-24.559998999999998,-22.059998999999998,2d
2019-07-15_185602:120,-0.322845,0.0025329999999999997,-0.382812,-0.006014,0.002361,0.002357,-25.5,-24.559998999999998,-22.059998999999998,2d
2019-07-15_185602:140,-0.322327,0.0025329999999999997,-0.382812,-0.005282,0.002361,0.001381,-25.5,-23.870001000000002,-21.559998999999998,2d
2019-07-15_185602:160,-0.323334,0.001007,-0.381317,-0.004946,0.0023,0.001167,-25.5,-23.870001000000002,-21.559998999999998,2d
2019-07-15_185602:180,-0.324371,0.0030210000000000002,-0.380798,-0.00403,0.002635,0.000343,-25.5,-24.18,-21.559998999999998,2d
2019-07-15_185602:200,-0.322327,0.0035399999999999997,-0.379272,-0.0036950000000000004,0.002696,0.00016,-25.5,-24.18,-21.559998999999998,2d
2019-07-15_185602:220,-0.323853,0.005065999999999999,-0.380798,-0.0033280000000000002,0.003032,-0.000176,-25.5,-24.18,-21.559998999999998,2d
2019-07-15_185602:240,-0.325897,0.007111,-0.379791,-0.0031149999999999997,0.003032,-0.00045099999999999996,-25.870001000000002,-24.18,-20.870001000000002,2d
2019-07-15_185602:260,-0.324371,0.006592,-0.38028,-0.002932,0.002971,-0.00045099999999999996,-25.870001000000002,-24.18,-20.870001000000002,2d
2019-07-15_185602:280,-0.32486,0.007599,-0.38028,-0.002779,0.0029100000000000003,-0.000573,-25.870001000000002,-24.559998999999998,-21.559998999999998,2d
2019-07-15_185602:300,-0.323334,0.008118,-0.378754,-0.0025960000000000002,0.002849,-0.001,-25.870001000000002,-24.559998999999998,-21.559998999999998,2d
2019-07-15_185602:320,-0.32486,0.009644,-0.379791,-0.002443,0.0023,-0.000664,-25.870001000000002,-24.559998999999998,-21.559998999999998,2d
2019-07-15_185602:340,-0.327423,0.010651,-0.378265,-0.002443,0.002513,-0.00023700000000000001,-25.870001000000002,-24.559998999999998,-20.5,2d
2019-07-15_185602:360,-0.328949,0.010651,-0.379272,-0.002657,0.002635,0.000221,-25.870001000000002,-24.559998999999998,-20.5,2d
2019-07-15_185602:380,-0.326385,0.010651,-0.378265,-0.002993,0.003307,0.000465,-25.5,-24.559998999999998,-20.870001000000002,2d
2019-07-15_185602:400,-0.326385,0.009644,-0.37674,-0.003176,0.003246,0.000496,-25.5,-24.559998999999998,-20.870001000000002,2d
2019-07-15_185602:420,-0.32486,0.009125,-0.377228,-0.0033280000000000002,0.003032,0.000221,-25.5,-24.559998999999998,-20.870001000000002,2d
2019-07-15_185602:440,-0.325378,0.008636,-0.377747,-0.0033280000000000002,0.002788,0.00016,-25.5,-24.559998999999998,-22.75,2d
2019-07-15_185602:460,-0.324371,0.009125,-0.377228,-0.0033280000000000002,0.0023,0.00016,-25.5,-24.559998999999998,-22.75,2d
2019-07-15_185602:480,-0.322845,0.009644,-0.377747,-0.00339,0.001842,0.00028199999999999997,-26.18,-24.18,-21.559998999999998,2d
2019-07-15_185602:500,-0.323853,0.008636,-0.377228,-0.0032979999999999997,0.001628,0.000404,-26.18,-24.18,-21.559998999999998,2d
2019-07-15_185602:520,-0.322845,0.006592,-0.377228,-0.003176,0.001018,0.00028199999999999997,-25.5,-25.0,-21.559998999999998,2d
2019-07-15_185602:540,-0.325897,0.007599,-0.378754,-0.0031149999999999997,0.0009570000000000001,0.000343,-25.5,-25.0,-21.559998999999998,2d
2019-07-15_185602:560,-0.327911,0.007111,-0.377747,-0.003176,0.0009570000000000001,0.000129,-25.5,-25.0,-21.559998999999998,2d
2019-07-15_185602:580,-0.327423,0.007111,-0.38028,-0.0032979999999999997,0.0009570000000000001,-0.000267,-25.870001000000002,-23.870001000000002,-20.870001000000002,2d
2019-07-15_185602:600,-0.325897,0.006072999999999999,-0.377747,-0.003237,0.00114,-0.00045099999999999996,-25.870001000000002,-23.870001000000002,-20.870001000000002,2d
2019-07-15_185602:620,-0.324371,0.007599,-0.379272,-0.003054,0.0012619999999999999,-0.000664,-25.870001000000002,-23.870001000000002,-20.870001000000002,2d
2019-07-15_185602:640,-0.325378,0.006592,-0.38028,-0.002932,0.000865,-0.000512,-26.18,-24.18,-22.059998999999998,2d
2019-07-15_185602:660,-0.326904,0.009125,-0.379272,-0.0029010000000000004,0.0008039999999999999,-0.000573,-26.18,-24.18,-22.059998999999998,2d
2019-07-15_185602:680,-0.326904,0.007111,-0.38028,-0.0029010000000000004,0.0008960000000000001,-0.000573,-24.370001000000002,-24.18,-23.25,2d
2019-07-15_185602:700,-0.327911,0.008118,-0.379272,-0.0029010000000000004,0.001292,-0.000512,-24.370001000000002,-24.18,-23.25,2d
2019-07-15_185602:720,-0.325897,0.009644,-0.379791,-0.0028399999999999996,0.001537,-5.4000000000000005e-05,-24.370001000000002,-24.18,-23.25,2d
2019-07-15_185602:740,-0.32843,0.010162000000000001,-0.38028,-0.002932,0.001353,0.000129,-24.68,-23.870001000000002,-21.559998999999998,2d
2019-07-15_185602:760,-0.32486,0.010162000000000001,-0.37674,-0.003176,0.00172,0.000587,-24.68,-23.870001000000002,-21.559998999999998,2d
2019-07-15_185602:780,-0.322845,0.008118,-0.38028,-0.0033280000000000002,0.001628,0.001442,-24.68,-24.559998999999998,-22.059998999999998,2d
2019-07-15_185602:800,-0.320801,0.009644,-0.379272,-0.004,0.0010789999999999999,0.001503,-24.68,-24.559998999999998,-22.059998999999998,2d
2019-07-15_185602:820,-0.321808,0.005065999999999999,-0.381317,-0.00403,0.00022400000000000002,0.000587,-24.68,-24.559998999999998,-22.059998999999998,2d
2019-07-15_185602:840,-0.323853,0.0055850000000000006,-0.38028,-0.004213000000000001,-0.000325,-0.000573,-25.5,-23.870001000000002,-22.059998999999998,2d
2019-07-15_185602:860,-0.326904,0.006592,-0.384338,-0.0037560000000000002,-0.000172,0.000465,-25.5,-23.870001000000002,-22.059998999999998,2d
2019-07-15_185602:880,-0.326385,0.0055850000000000006,-0.383331,-0.003512,0.000499,0.000465,-25.5,-24.559998999999998,-21.68,2d
2019-07-15_185602:900,-0.325378,0.007599,-0.382812,-0.003176,0.0010789999999999999,0.000496,-25.5,-24.559998999999998,-21.68,2d
2019-07-15_185602:920,-0.32486,0.007599,-0.382324,-0.0029010000000000004,0.001598,0.0007700000000000001,-25.5,-24.559998999999998,-21.68,2d
2019-07-15_185602:940,-0.321808,0.008636,-0.380798,-0.003176,0.001842,0.0008619999999999999,-25.5,-23.870001000000002,-21.559998999999998,2d
2019-07-15_185602:960,-0.322845,0.007599,-0.38028,-0.00339,0.001964,0.0008619999999999999,-25.5,-23.870001000000002,-21.559998999999998,2d
2019-07-15_185602:980,-0.320801,0.006592,-0.379791,-0.0036950000000000004,0.00172,0.000587,-25.870001000000002,-24.18,-22.059998999999998,2d
2019-07-15_185603:000,-0.322327,0.004547,-0.38028,-0.0037560000000000002,0.0016589999999999999,0.00028199999999999997,-25.870001000000002,-24.18,-22.059998999999998,2d
2019-07-15_185603:020,-0.320282,0.0035399999999999997,-0.380798,-0.00339,0.00114,0.000404,-25.870001000000002,-24.18,-22.059998999999998,2d
2019-07-15_185603:040,-0.321808,0.0035399999999999997,-0.384338,-0.003237,0.000682,6.8e-05,-25.5,-23.870001000000002,-21.559998999999998,2d
2019-07-15_185603:060,-0.322845,0.0055850000000000006,-0.381805,-0.0029010000000000004,0.000743,0.00028199999999999997,-25.5,-23.870001000000002,-21.559998999999998,2d
2019-07-15_185603:080,-0.323334,0.0055850000000000006,-0.38028,-0.002932,0.000621,0.000496,-24.68,-24.559998999999998,-22.370001000000002,2d
2019-07-15_185603:100,-0.320801,0.006072999999999999,-0.378754,-0.0029010000000000004,0.000621,0.0007700000000000001,-24.68,-24.559998999999998,-22.370001000000002,2d
2019-07-15_185603:120,-0.317749,0.005065999999999999,-0.381805,-0.002932,-0.000172,-0.00023700000000000001,-24.68,-24.559998999999998,-22.370001000000002,2d
2019-07-15_185603:140,-0.319794,0.0055850000000000006,-0.382812,-0.003054,-0.0005690000000000001,-0.000908,-24.68,-23.870001000000002,-22.370001000000002,2d
2019-07-15_185603:160,-0.323334,0.001007,-0.38385,-0.002779,-0.00124,-0.000634,-24.68,-23.870001000000002,-22.370001000000002,2d
2019-07-15_185603:180,-0.325378,0.0025329999999999997,-0.385864,-0.002199,-0.001027,-0.00158,-25.5,-24.559998999999998,-22.370001000000002,2d
2019-07-15_185603:200,-0.327423,0.0030210000000000002,-0.384338,-0.0018030000000000001,-0.00044699999999999997,-0.00158,-25.5,-24.559998999999998,-22.370001000000002,2d
2019-07-15_185603:220,-0.324371,0.004547,-0.386383,-0.00107,0.000346,-0.001641,-25.5,-24.559998999999998,-22.370001000000002,2d
2019-07-15_185603:240,-0.323334,0.004547,-0.38385,-0.000796,0.000743,-0.001702,-25.059998999999998,-24.18,-21.559998999999998,2d
2019-07-15_185603:260,-0.32132,0.006592,-0.38385,-0.000521,0.0009570000000000001,-0.001519,-25.059998999999998,-24.18,-21.559998999999998,2d
2019-07-15_185603:280,-0.317749,0.007111,-0.383331,-0.000643,0.0010789999999999999,-0.00158,-25.870001000000002,-23.870001000000002,-22.370001000000002,2d
2019-07-15_185603:300,-0.318268,0.0055850000000000006,-0.38028,-0.000734,0.000499,-0.001854,-25.870001000000002,-23.870001000000002,-22.370001000000002,2d
2019-07-15_185603:320,-0.320801,0.004547,-0.382812,-0.000734,0.000285,-0.0019149999999999998,-25.870001000000002,-23.870001000000002,-22.370001000000002,2d
2019-07-15_185603:340,-0.322845,0.005065999999999999,-0.385864,-0.0006730000000000001,0.000407,-0.0019760000000000003,-25.5,-24.559998999999998,-22.059998999999998,2d
2019-07-15_185603:360,-0.322327,0.006072999999999999,-0.385376,-0.000582,0.000407,-0.0019149999999999998,-25.5,-24.559998999999998,-22.059998999999998,2d
2019-07-15_185603:380,-0.323334,0.006592,-0.38385,-0.000521,0.000865,-0.001702,-24.68,-24.559998999999998,-23.25,2d
2019-07-15_185603:400,-0.324371,0.007599,-0.38385,-0.000521,0.0009570000000000001,-0.001458,-24.68,-24.559998999999998,-23.25,2d
2019-07-15_185603:420,-0.323334,0.008636,-0.386383,-0.0009789999999999998,0.0012619999999999999,-0.0011220000000000002,-24.68,-24.559998999999998,-23.25,2d
2019-07-15_185603:440,-0.320282,0.007599,-0.385864,-0.001131,0.001628,-0.0008470000000000001,-25.059998999999998,-24.18,-22.370001000000002,2d
2019-07-15_185603:460,-0.320801,0.008636,-0.382812,-0.001467,0.001292,-0.000664,-25.059998999999998,-24.18,-22.370001000000002,2d
2019-07-15_185603:480,-0.319794,0.009125,-0.382812,-0.002199,0.001201,-0.000389,-24.68,-24.559998999999998,-21.559998999999998,2d
2019-07-15_185603:500,-0.321808,0.007599,-0.38028,-0.002321,0.001018,-0.000328,-24.68,-24.559998999999998,-21.559998999999998,2d
2019-07-15_185603:520,-0.319275,0.007111,-0.381805,-0.002657,0.00114,7.000000000000001e-06,-24.68,-24.559998999999998,-21.559998999999998,2d
2019-07-15_185603:540,-0.318268,0.007111,-0.383331,-0.0032979999999999997,0.000682,0.000465,-24.68,-23.870001000000002,-23.559998999999998,2d
2019-07-15_185603:560,-0.31723,0.006072999999999999,-0.382324,-0.004213000000000001,-0.00011100000000000001,0.000984,-24.68,-23.870001000000002,-23.559998999999998,2d
2019-07-15_185603:580,-0.319275,0.005065999999999999,-0.382324,-0.00461,-0.00063,0.001228,-25.059998999999998,-23.870001000000002,-22.059998999999998,2d
2019-07-15_185603:600,-0.323853,0.004059,-0.383331,-0.004732,-0.00063,0.001228,-25.059998999999998,-23.870001000000002,-22.059998999999998,2d
2019-07-15_185603:620,-0.323853,0.0025329999999999997,-0.384338,-0.004946,7.2e-05,0.000984,-25.059998999999998,-23.870001000000002,-22.059998999999998,2d
2019-07-15_185603:640,-0.320801,0.001495,-0.385864,-0.004824,0.0008960000000000001,0.00132,-25.5,-25.0,-21.25,2d
2019-07-15_185603:660,-0.321808,0.0,-0.389435,-0.00461,0.0008960000000000001,0.001991,-25.5,-25.0,-21.25,2d
2019-07-15_185603:680,-0.32486,0.0,-0.389435,-0.004336,0.001598,0.001625,-25.059998999999998,-24.18,-22.370001000000002,2d
2019-07-15_185603:700,-0.322327,-0.000488,-0.386902,-0.003939,0.002116,0.000831,-25.059998999999998,-24.18,-22.370001000000002,2d
2019-07-15_185603:720,-0.320801,0.001495,-0.384338,-0.0036340000000000005,0.002757,0.001106,-25.059998999999998,-24.18,-22.370001000000002,2d
2019-07-15_185603:740,-0.318268,0.000488,-0.38385,-0.003512,0.0029100000000000003,0.001228,-24.370001000000002,-24.18,-22.75,2d
2019-07-15_185603:760,-0.315704,0.0025329999999999997,-0.385864,-0.003573,0.002361,0.000465,-24.370001000000002,-24.18,-22.75,2d
2019-07-15_185603:780,-0.314697,0.002014,-0.385864,-0.0033280000000000002,0.001598,-0.000176,-24.68,-23.870001000000002,-22.370001000000002,2d
2019-07-15_185603:800,-0.319794,0.0025329999999999997,-0.385864,-0.0036950000000000004,0.00114,-0.0013050000000000002,-24.68,-23.870001000000002,-22.370001000000002,2d
2019-07-15_185603:820,-0.32132,0.006072999999999999,-0.385376,-0.0036340000000000005,0.001201,-0.000573,-24.68,-23.870001000000002,-22.370001000000002,2d
2019-07-15_185603:840,-0.319794,0.005065999999999999,-0.384338,-0.0036950000000000004,0.001353,0.00016,-25.5,-24.559998999999998,-22.75,2d
2019-07-15_185603:860,-0.318756,0.005065999999999999,-0.385376,-0.003878,0.00172,-0.00011499999999999999,-25.5,-24.559998999999998,-22.75,2d
2019-07-15_185603:880,-0.318756,0.004547,-0.386902,-0.003817,0.0017809999999999998,0.00028199999999999997,-25.5,-25.0,-22.75,2d
2019-07-15_185603:900,-0.31723,0.0030210000000000002,-0.384338,-0.00403,0.0016589999999999999,0.000404,-25.5,-25.0,-22.75,2d
2019-07-15_185603:920,-0.317749,0.004059,-0.386383,-0.004,0.001537,0.000404,-25.5,-25.0,-22.75,2d
2019-07-15_185603:940,-0.319275,0.0035399999999999997,-0.386902,-0.003878,0.001628,0.000709,-24.0,-24.559998999999998,-23.25,2d
2019-07-15_185603:960,-0.320282,0.004547,-0.386902,-0.0036950000000000004,0.001628,0.000496,-24.0,-24.559998999999998,-23.25,2d
2019-07-15_185603:980,-0.320282,0.004547,-0.388916,-0.003878,0.00172,0.000587,-24.68,-24.559998999999998,-23.25,2d
2019-07-15_185604:000,-0.322845,0.006592,-0.385376,-0.003878,0.001964,0.000496,-24.68,-24.559998999999998,-23.25,2d
2019-07-15_185604:020,-0.319275,0.006592,-0.385864,-0.00403,0.0023,0.000587,-24.68,-24.559998999999998,-23.25,2d
2019-07-15_185604:040,-0.318756,0.007599,-0.385376,-0.004213000000000001,0.002361,0.001655,-24.68,-24.559998999999998,-22.75,2d
2019-07-15_185604:060,-0.319794,0.006592,-0.384857,-0.004549,0.002361,0.001564,-24.68,-24.559998999999998,-22.75,2d
2019-07-15_185604:080,-0.319275,0.007111,-0.385864,-0.0048850000000000005,0.002361,0.0007700000000000001,-24.370001000000002,-24.559998999999998,-23.559998999999998,2d
2019-07-15_185604:100,-0.319275,0.004547,-0.384338,-0.005068,0.002391,0.00132,-24.370001000000002,-24.559998999999998,-23.559998999999998,2d
2019-07-15_185604:120,-0.319275,0.004059,-0.386383,-0.005221,0.002361,0.001503,-24.370001000000002,-24.559998999999998,-23.559998999999998,2d
2019-07-15_185604:140,-0.318268,0.0025329999999999997,-0.386383,-0.005129,0.0024519999999999998,0.001381,-25.5,-23.870001000000002,-22.059998999999998,2d
2019-07-15_185604:160,-0.318756,0.002014,-0.384857,-0.004793,0.002116,0.001381,-25.5,-23.870001000000002,-22.059998999999998,2d
2019-07-15_185604:180,-0.319794,0.0025329999999999997,-0.386902,-0.004397,0.0019030000000000002,0.0007700000000000001,-24.370001000000002,-24.18,-22.059998999999998,2d
2019-07-15_185604:200,-0.320282,0.001495,-0.38385,-0.0037560000000000002,0.0017809999999999998,0.000526,-24.370001000000002,-24.18,-22.059998999999998,2d
2019-07-15_185604:220,-0.320282,0.0025329999999999997,-0.384857,-0.00339,0.002239,0.00016,-24.370001000000002,-24.18,-22.059998999999998,2d
2019-07-15_185604:240,-0.318756,0.005065999999999999,-0.385864,-0.003237,0.002177,-0.00011499999999999999,-25.870001000000002,-23.870001000000002,-22.059998999999998,2d
2019-07-15_185604:260,-0.318756,0.004059,-0.385376,-0.002993,0.001994,-0.00045099999999999996,-25.870001000000002,-23.870001000000002,-22.059998999999998,2d
2019-07-15_185604:280,-0.321808,0.007111,-0.386383,-0.0028399999999999996,0.002116,-0.000512,-23.559998999999998,-24.559998999999998,-22.75,2d
2019-07-15_185604:300,-0.319794,0.008636,-0.384857,-0.002932,0.002177,-0.00045099999999999996,-23.559998999999998,-24.559998999999998,-22.75,2d
2019-07-15_185604:320,-0.318756,0.008118,-0.385376,-0.002993,0.001994,-0.00023700000000000001,-23.559998999999998,-24.559998999999998,-22.75,2d
2019-07-15_185604:340,-0.318756,0.009125,-0.385376,-0.00339,0.0019030000000000002,6.8e-05,-24.68,-23.870001000000002,-22.75,2d
2019-07-15_185604:360,-0.320282,0.008636,-0.385376,-0.003878,0.001964,0.00016,-24.68,-23.870001000000002,-22.75,2d
2019-07-15_185604:380,-0.319794,0.008118,-0.386902,-0.004275,0.0017809999999999998,0.00016,-24.68,-24.559998999999998,-22.75,2d
2019-07-15_185604:400,-0.32132,0.007111,-0.384338,-0.004427,0.001964,0.000221,-24.68,-24.559998999999998,-22.75,2d
2019-07-15_185604:420,-0.32132,0.007111,-0.385864,-0.004397,0.002239,0.000465,-24.68,-24.559998999999998,-22.75,2d
2019-07-15_185604:440,-0.320801,0.0055850000000000006,-0.386902,-0.004275,0.002513,0.0007700000000000001,-24.68,-24.559998999999998,-22.75,2d
2019-07-15_185604:460,-0.320801,0.005065999999999999,-0.386383,-0.004213000000000001,0.002696,0.000923,-24.68,-24.559998999999998,-22.75,2d
2019-07-15_185604:480,-0.320282,0.006592,-0.385864,-0.004213000000000001,0.003032,0.001167,-25.059998999999998,-24.559998999999998,-22.370001000000002,2d
2019-07-15_185604:500,-0.319794,0.006592,-0.38385,-0.004336,0.003032,0.001442,-25.059998999999998,-24.559998999999998,-22.370001000000002,2d
2019-07-15_185604:520,-0.319794,0.006072999999999999,-0.38385,-0.004488000000000001,0.002849,0.001442,-25.059998999999998,-24.559998999999998,-22.370001000000002,2d
2019-07-15_185604:540,-0.321808,0.006592,-0.382812,-0.004488000000000001,0.002849,0.001442,-25.059998999999998,-24.18,-22.370001000000002,2d
2019-07-15_185604:560,-0.32132,0.004059,-0.38385,-0.00461,0.003032,0.001503,-25.059998999999998,-24.18,-22.370001000000002,2d
2019-07-15_185604:580,-0.320282,0.004059,-0.384857,-0.00461,0.0029100000000000003,0.000984,-25.5,-25.0,-21.559998999999998,2d
2019-07-15_185604:600,-0.320801,0.0025329999999999997,-0.382324,-0.004275,0.002788,0.001045,-25.5,-25.0,-21.559998999999998,2d
2019-07-15_185604:620,-0.322845,0.002014,-0.384338,-0.003664,0.0029100000000000003,0.001228,-25.5,-25.0,-21.559998999999998,2d
2019-07-15_185604:640,-0.322327,0.0030210000000000002,-0.38385,-0.0031149999999999997,0.003032,0.001167,-25.5,-24.18,-22.370001000000002,2d
2019-07-15_185604:660,-0.324371,0.004547,-0.382812,-0.003054,0.002971,0.0008619999999999999,-25.5,-24.18,-22.370001000000002,2d
2019-07-15_185604:680,-0.323853,0.007111,-0.380798,-0.003237,0.003246,0.001716,-25.5,-24.559998999999998,-22.059998999999998,2d
2019-07-15_185604:700,-0.322845,0.004547,-0.38028,-0.003573,0.003246,0.0018989999999999999,-25.5,-24.559998999999998,-22.059998999999998,2d
2019-07-15_185604:720,-0.322845,0.0055850000000000006,-0.380798,-0.004275,0.002757,0.001503,-25.5,-24.559998999999998,-22.059998999999998,2d
2019-07-15_185604:740,-0.321808,0.0055850000000000006,-0.381317,-0.004824,0.002239,0.0008619999999999999,-25.870001000000002,-25.68,-21.25,2d
2019-07-15_185604:760,-0.324371,0.005065999999999999,-0.380798,-0.005343,0.002116,6.8e-05,-25.870001000000002,-25.68,-21.25,2d
2019-07-15_185604:780,-0.326904,0.0025329999999999997,-0.38028,-0.005221,0.002361,0.000831,-25.059998999999998,-24.559998999999998,-22.059998999999998,2d
2019-07-15_185604:800,-0.325378,0.000488,-0.378265,-0.0048850000000000005,0.0023,0.000648,-25.059998999999998,-24.559998999999998,-22.059998999999998,2d
2019-07-15_185604:820,-0.322845,0.0035399999999999997,-0.379791,-0.00461,0.002574,0.000526,-25.059998999999998,-24.559998999999998,-22.059998999999998,2d
2019-07-15_185604:840,-0.32132,0.004059,-0.379791,-0.004091,0.002361,0.000923,-24.370001000000002,-25.0,-22.059998999999998,2d
2019-07-15_185604:860,-0.320801,0.005065999999999999,-0.378265,-0.00403,0.001994,0.0007700000000000001,-24.370001000000002,-25.0,-22.059998999999998,2d
2019-07-15_185604:880,-0.320801,0.0055850000000000006,-0.379272,-0.004091,0.001537,0.001167,-25.5,-24.559998999999998,-22.059998999999998,2d
2019-07-15_185604:900,-0.323853,0.006072999999999999,-0.379272,-0.004275,0.001201,0.001045,-25.5,-24.559998999999998,-22.059998999999998,2d
2019-07-15_185604:920,-0.32132,0.006072999999999999,-0.378265,-0.004427,0.001201,0.000831,-25.5,-24.559998999999998,-22.059998999999998,2d
2019-07-15_185604:940,-0.321808,0.006592,-0.378754,-0.004397,0.000621,0.001228,-25.059998999999998,-23.870001000000002,-22.370001000000002,2d
2019-07-15_185604:960,-0.322327,0.005065999999999999,-0.381317,-0.004336,0.000133,0.001716,-25.059998999999998,-23.870001000000002,-22.370001000000002,2d
2019-07-15_185604:980,-0.323853,0.0055850000000000006,-0.381317,-0.004488000000000001,1.1e-05,0.00196,-24.68,-24.18,-23.559998999999998,2d
2019-07-15_185605:000,-0.325897,0.004547,-0.381805,-0.004397,-0.000172,0.002235,-24.68,-24.18,-23.559998999999998,2d
2019-07-15_185605:020,-0.324371,0.0055850000000000006,-0.38385,-0.00461,1.1e-05,0.0029059999999999997,-24.68,-24.18,-23.559998999999998,2d
2019-07-15_185605:040,-0.323334,0.0055850000000000006,-0.384338,-0.005007,0.00022400000000000002,0.00251,-25.5,-25.0,-20.870001000000002,2d
2019-07-15_185605:060,-0.325378,0.006072999999999999,-0.384857,-0.005678,0.000407,0.002113,-25.5,-25.0,-20.870001000000002,2d
2019-07-15_185605:080,-0.322845,0.0025329999999999997,-0.385864,-0.006319,0.0009570000000000001,0.002449,-26.18,-24.559998999999998,-22.059998999999998,2d
2019-07-15_185605:100,-0.325378,0.001007,-0.384857,-0.006684999999999999,0.0012619999999999999,0.001991,-26.18,-24.559998999999998,-22.059998999999998,2d
2019-07-15_185605:120,-0.327911,-0.000488,-0.385864,-0.00635,0.001628,0.001442,-26.18,-24.559998999999998,-22.059998999999998,2d
2019-07-15_185605:140,-0.325378,0.002014,-0.385376,-0.005922,0.002574,0.001106,-25.5,-23.5,-21.25,2d
2019-07-15_185605:160,-0.329437,0.001495,-0.384338,-0.005465,0.003246,0.000648,-25.5,-23.5,-21.25,2d
2019-07-15_185605:180,-0.326904,0.001007,-0.382324,-0.005007,0.003703,0.000496,-25.5,-24.559998999999998,-22.370001000000002,2d
2019-07-15_185605:200,-0.325897,0.0035399999999999997,-0.381805,-0.00461,0.004039,0.000496,-25.5,-24.559998999999998,-22.370001000000002,2d
2019-07-15_185605:220,-0.324371,0.004059,-0.379791,-0.004397,0.004436,0.000465,-25.5,-24.559998999999998,-22.370001000000002,2d
2019-07-15_185605:240,-0.322327,0.006592,-0.379791,-0.004336,0.004314,0.000343,-25.059998999999998,-24.18,-22.059998999999998,2d
2019-07-15_185605:260,-0.32132,0.008118,-0.378754,-0.004213000000000001,0.003917,0.000465,-25.059998999999998,-24.18,-22.059998999999998,2d
2019-07-15_185605:280,-0.323334,0.009125,-0.38028,-0.003878,0.003246,0.000496,-25.5,-24.18,-20.870001000000002,2d
2019-07-15_185605:300,-0.32486,0.009125,-0.377747,-0.00403,0.002757,0.000404,-25.5,-24.18,-20.870001000000002,2d
2019-07-15_185605:320,-0.323853,0.010162000000000001,-0.378265,-0.00403,0.0023,0.0007700000000000001,-25.5,-24.18,-20.870001000000002,2d
2019-07-15_185605:340,-0.325897,0.008636,-0.378265,-0.004091,0.002239,0.000709,-24.370001000000002,-25.0,-22.370001000000002,2d
2019-07-15_185605:360,-0.325378,0.009125,-0.376221,-0.004,0.002239,0.000465,-24.370001000000002,-25.0,-22.370001000000002,2d
2019-07-15_185605:380,-0.323853,0.010651,-0.378265,-0.003878,0.001964,0.000709,-25.5,-24.18,-22.059998999999998,2d
2019-07-15_185605:400,-0.323853,0.009644,-0.376221,-0.00403,0.0016589999999999999,0.000923,-25.5,-24.18,-22.059998999999998,2d
2019-07-15_185605:420,-0.323334,0.010162000000000001,-0.377228,-0.004213000000000001,0.0014759999999999999,0.001228,-25.5,-24.18,-22.059998999999998,2d
2019-07-15_185605:440,-0.326385,0.009125,-0.379791,-0.004488000000000001,0.001201,0.001442,-25.059998999999998,-24.18,-22.059998999999998,2d
2019-07-15_185605:460,-0.32843,0.006592,-0.379272,-0.00461,0.001415,0.001655,-25.059998999999998,-24.18,-22.059998999999998,2d
2019-07-15_185605:480,-0.32995599999999997,0.006072999999999999,-0.38028,-0.004671,0.0014759999999999999,0.001503,-25.5,-24.559998999999998,-21.559998999999998,2d
2019-07-15_185605:500,-0.328949,0.004547,-0.379791,-0.004549,0.0017809999999999998,0.001228,-25.5,-24.559998999999998,-21.559998999999998,2d
2019-07-15_185605:520,-0.32843,0.004059,-0.380798,-0.004488000000000001,0.002177,0.0008619999999999999,-25.5,-24.559998999999998,-21.559998999999998,2d
2019-07-15_185605:540,-0.329437,0.004547,-0.380798,-0.004427,0.002513,0.0007700000000000001,-25.5,-25.0,-21.559998999999998,2d
2019-07-15_185605:560,-0.326904,0.005065999999999999,-0.379272,-0.004427,0.002788,0.0007700000000000001,-25.5,-25.0,-21.559998999999998,2d
2019-07-15_185605:580,-0.326904,0.006072999999999999,-0.379272,-0.004427,0.002971,0.000587,-26.18,-24.559998999999998,-22.059998999999998,2d
2019-07-15_185605:600,-0.325897,0.007599,-0.378754,-0.004427,0.002635,0.000709,-26.18,-24.559998999999998,-22.059998999999998,2d
2019-07-15_185605:620,-0.325897,0.007599,-0.378265,-0.004397,0.002696,0.000831,-26.18,-24.559998999999998,-22.059998999999998,2d
2019-07-15_185605:640,-0.325897,0.007111,-0.377228,-0.004427,0.002513,0.000496,-25.5,-25.0,-20.870001000000002,2d
2019-07-15_185605:660,-0.327423,0.008636,-0.378754,-0.004427,0.002513,0.000587,-25.5,-25.0,-20.870001000000002,2d
2019-07-15_185605:680,-0.326385,0.010162000000000001,-0.379272,-0.004732,0.002513,0.000587,-25.5,-23.870001000000002,-20.5,2d
2019-07-15_185605:700,-0.327423,0.011687999999999999,-0.37674,-0.004671,0.002635,0.00016,-25.5,-23.870001000000002,-20.5,2d
2019-07-15_185605:720,-0.325378,0.014221000000000001,-0.37674,-0.005465,0.002635,0.00028199999999999997,-25.5,-23.870001000000002,-20.5,2d
2019-07-15_185605:740,-0.330963,0.014221000000000001,-0.379272,-0.006594,0.002757,0.000587,-24.68,-24.559998999999998,-21.68,2d
2019-07-15_185605:760,-0.327423,0.013702,-0.37674,-0.007784,0.003032,-5.4000000000000005e-05,-24.68,-24.559998999999998,-21.68,2d
2019-07-15_185605:780,-0.32995599999999997,0.011169,-0.378754,-0.008669,0.0029100000000000003,-0.000176,-25.5,-25.0,-20.5,2d
2019-07-15_185605:800,-0.329437,0.011169,-0.38028,-0.009249,0.002788,-0.001458,-25.5,-25.0,-20.5,2d
2019-07-15_185605:820,-0.326904,0.008636,-0.38028,-0.009401000000000001,0.0029100000000000003,-0.001641,-25.5,-25.0,-20.5,2d
2019-07-15_185605:840,-0.32843,0.008636,-0.38028,-0.008974,0.002788,-0.001641,-25.059998999999998,-25.0,-21.25,2d
2019-07-15_185605:860,-0.327911,0.006072999999999999,-0.377228,-0.007937,0.002757,-0.0019760000000000003,-25.059998999999998,-25.0,-21.25,2d
2019-07-15_185605:880,-0.32843,0.007111,-0.376221,-0.006594,0.002788,-0.0019760000000000003,-25.870001000000002,-24.559998999999998,-20.5,2d
2019-07-15_185605:900,-0.329437,0.009644,-0.375702,-0.005282,0.002788,-0.0017629999999999998,-25.870001000000002,-24.559998999999998,-20.5,2d
2019-07-15_185605:920,-0.32995599999999997,0.011169,-0.375702,-0.003939,0.003124,-0.0008470000000000001,-25.870001000000002,-24.559998999999998,-20.5,2d
2019-07-15_185605:940,-0.328949,0.011169,-0.375702,-0.003054,0.003032,7.000000000000001e-06,-24.370001000000002,-24.559998999999998,-20.870001000000002,2d
2019-07-15_185605:960,-0.327423,0.013213999999999998,-0.376221,-0.002321,0.002971,0.000129,-24.370001000000002,-24.559998999999998,-20.870001000000002,2d
2019-07-15_185605:980,-0.325897,0.014221000000000001,-0.376221,-0.001772,0.002757,0.000526,-26.18,-25.370001000000002,-21.25,2d
2019-07-15_185606:000,-0.324371,0.014740000000000001,-0.37674,-0.0015890000000000001,0.002239,0.0007700000000000001,-26.18,-25.370001000000002,-21.25,2d
2019-07-15_185606:020,-0.327911,0.014740000000000001,-0.375214,-0.001772,0.001598,0.001106,-26.18,-25.370001000000002,-21.25,2d
2019-07-15_185606:040,-0.330963,0.015228,-0.37674,-0.0018030000000000001,0.001628,0.001106,-26.18,-25.0,-21.25,2d
2019-07-15_185606:060,-0.33197,0.014740000000000001,-0.37674,-0.002199,0.0016589999999999999,0.001381,-26.18,-25.0,-21.25,2d
2019-07-15_185606:080,-0.328949,0.013702,-0.377747,-0.0025960000000000002,0.002239,0.002052,-26.18,-25.0,-20.059998999999998,2d
2019-07-15_185606:100,-0.32995599999999997,0.013213999999999998,-0.377228,-0.003054,0.002635,0.000831,-26.18,-25.0,-20.059998999999998,2d
2019-07-15_185606:120,-0.330475,0.012695,-0.37674,-0.0034509999999999996,0.002391,0.000129,-26.18,-25.0,-20.059998999999998,2d
2019-07-15_185606:140,-0.327911,0.010162000000000001,-0.377747,-0.0033280000000000002,0.002391,6.8e-05,-25.059998999999998,-25.0,-20.059998999999998,2d
2019-07-15_185606:160,-0.33300799999999997,0.012177,-0.37674,-0.00339,0.002513,-0.00045099999999999996,-25.059998999999998,-25.0,-20.059998999999998,2d
2019-07-15_185606:180,-0.333496,0.011687999999999999,-0.376221,-0.003176,0.002574,-0.000512,-26.18,-25.0,-21.25,2d
2019-07-15_185606:200,-0.333496,0.013213999999999998,-0.374176,-0.002718,0.003032,-0.000725,-26.18,-25.0,-21.25,2d
2019-07-15_185606:220,-0.332489,0.014740000000000001,-0.374695,-0.002535,0.003703,-0.000725,-26.18,-25.0,-21.25,2d
2019-07-15_185606:240,-0.32995599999999997,0.015228,-0.373688,-0.0022600000000000003,0.003764,-0.000725,-25.5,-24.559998999999998,-20.870001000000002,2d
2019-07-15_185606:260,-0.329437,0.015228,-0.373688,-0.002169,0.0034289999999999998,-0.000573,-25.5,-24.559998999999998,-20.870001000000002,2d
2019-07-15_185606:280,-0.331482,0.015747,-0.37265,-0.002321,0.0035810000000000004,-0.000786,-25.059998999999998,-25.370001000000002,-20.5,2d
2019-07-15_185606:300,-0.33300799999999997,0.016266,-0.373688,-0.002169,0.00352,-0.000786,-25.059998999999998,-25.370001000000002,-20.5,2d
2019-07-15_185606:320,-0.33300799999999997,0.015228,-0.373688,-0.002321,0.003978,-0.000664,-25.059998999999998,-25.370001000000002,-20.5,2d
2019-07-15_185606:340,-0.332489,0.015747,-0.374176,-0.002382,0.003917,-0.000328,-25.870001000000002,-24.559998999999998,-20.5,2d
2019-07-15_185606:360,-0.332489,0.015747,-0.37316900000000003,-0.002169,0.003886,-0.000664,-25.870001000000002,-24.559998999999998,-20.5,2d
2019-07-15_185606:380,-0.33300799999999997,0.017273,-0.37265,-0.0022600000000000003,0.003703,-0.000267,-26.559998999999998,-24.559998999999998,-19.68,2d
2019-07-15_185606:400,-0.33300799999999997,0.017273,-0.370636,-0.002382,0.00349,-0.00023700000000000001,-26.559998999999998,-24.559998999999998,-19.68,2d
2019-07-15_185606:420,-0.332489,0.015747,-0.371643,-0.002535,0.0031850000000000003,6.8e-05,-26.559998999999998,-24.559998999999998,-19.68,2d
2019-07-15_185606:440,-0.332489,0.015228,-0.37011700000000003,-0.002779,0.002971,0.000526,-25.059998999999998,-23.870001000000002,-21.559998999999998,2d
2019-07-15_185606:460,-0.338593,0.015228,-0.379791,-0.0033280000000000002,0.0036420000000000003,0.000496,-25.059998999999998,-23.870001000000002,-21.559998999999998,2d
2019-07-15_185606:480,-0.334534,0.014221000000000001,-0.37112399999999995,-0.00339,0.003703,0.000465,-25.870001000000002,-24.18,-20.5,2d
2019-07-15_185606:500,-0.32995599999999997,0.011169,-0.36248800000000003,-0.002321,0.0024519999999999998,6.8e-05,-25.870001000000002,-24.18,-20.5,2d
2019-07-15_185606:520,-0.330963,0.008636,-0.366058,-0.0020469999999999998,0.0019030000000000002,6.8e-05,-25.870001000000002,-24.18,-20.5,2d
2019-07-15_185606:540,-0.33300799999999997,0.010162000000000001,-0.372162,-0.0014060000000000001,0.001415,0.000587,-26.18,-24.559998999999998,-20.059998999999998,2d
2019-07-15_185606:560,-0.33300799999999997,0.009644,-0.373688,-0.0009789999999999998,0.001628,0.000404,-26.18,-24.559998999999998,-20.059998999999998,2d
2019-07-15_185606:580,-0.333496,0.010651,-0.374695,-0.000734,0.0012619999999999999,0.000496,-25.5,-25.370001000000002,-21.25,2d
2019-07-15_185606:600,-0.33300799999999997,0.009644,-0.372162,-0.000246,0.001292,0.000831,-25.5,-25.370001000000002,-21.25,2d
2019-07-15_185606:620,-0.33300799999999997,0.009644,-0.37316900000000003,-0.000185,0.00114,0.000709,-25.5,-25.370001000000002,-21.25,2d
2019-07-15_185606:640,-0.334015,0.006592,-0.37316900000000003,0.000212,0.001018,0.000831,-25.059998999999998,-24.559998999999998,-21.25,2d
2019-07-15_185606:660,-0.333496,0.006592,-0.372162,0.00048600000000000005,0.001292,0.000709,-25.059998999999998,-24.559998999999998,-21.25,2d
2019-07-15_185606:680,-0.33197,0.0025329999999999997,-0.374695,0.001127,0.0010789999999999999,0.000984,-25.059998999999998,-25.0,-20.870001000000002,2d
2019-07-15_185606:700,-0.332489,0.0030210000000000002,-0.37316900000000003,0.001982,0.000743,0.000923,-25.059998999999998,-25.0,-20.870001000000002,2d
2019-07-15_185606:720,-0.33605999999999997,0.001495,-0.374176,0.002653,0.0008960000000000001,0.000343,-25.059998999999998,-25.0,-20.870001000000002,2d
2019-07-15_185606:740,-0.33605999999999997,0.0,-0.374176,0.0032630000000000003,0.0012619999999999999,-0.000786,-25.870001000000002,-25.0,-20.870001000000002,2d
2019-07-15_185606:760,-0.340118,0.001495,-0.369598,0.003904,0.001994,-0.000725,-25.870001000000002,-25.0,-20.870001000000002,2d
2019-07-15_185606:780,-0.340118,0.002014,-0.37011700000000003,0.0041789999999999996,0.002574,-0.0010609999999999999,-26.18,-23.870001000000002,-20.870001000000002,2d
2019-07-15_185606:800,-0.335022,0.000488,-0.37316900000000003,0.00424,0.002849,-0.002587,-26.18,-23.870001000000002,-20.870001000000002,2d
2019-07-15_185606:820,-0.331482,0.001495,-0.37316900000000003,0.00424,0.002391,-0.0032890000000000003,-26.18,-23.870001000000002,-20.870001000000002,2d
2019-07-15_185606:840,-0.33300799999999997,0.000488,-0.372162,0.0041789999999999996,0.002055,-0.0034409999999999996,-25.5,-25.0,-20.5,2d
2019-07-15_185606:860,-0.332489,-0.001495,-0.370636,0.003996,0.00172,-0.004113,-25.5,-25.0,-20.5,2d
2019-07-15_185606:880,-0.332489,-0.000488,-0.372162,0.003843,0.0016589999999999999,-0.004509,-25.870001000000002,-24.18,-21.559998999999998,2d
2019-07-15_185606:900,-0.330963,-0.000488,-0.37112399999999995,0.003721,0.0017809999999999998,-0.004692,-25.870001000000002,-24.18,-21.559998999999998,2d
2019-07-15_185606:920,-0.328949,0.000488,-0.370636,0.003141,0.0014759999999999999,-0.004174000000000001,-25.870001000000002,-24.18,-21.559998999999998,2d
2019-07-15_185606:940,-0.325897,0.0030210000000000002,-0.36911,0.002775,0.000743,-0.003899,-25.870001000000002,-24.559998999999998,-21.25,2d
2019-07-15_185606:960,-0.323853,0.008118,-0.37011700000000003,0.001585,-0.0005690000000000001,-0.003655,-25.870001000000002,-24.559998999999998,-21.25,2d
2019-07-15_185606:980,-0.323853,0.009125,-0.37112399999999995,0.000334,-0.001698,-0.0029219999999999997,-25.5,-25.0,-22.059998999999998,2d
2019-07-15_185607:000,-0.324371,0.009125,-0.36911,-0.000857,-0.002644,-0.002648,-25.5,-25.0,-22.059998999999998,2d
2019-07-15_185607:020,-0.325378,0.008636,-0.369598,-0.001986,-0.003285,-0.00158,-25.5,-25.0,-22.059998999999998,2d
2019-07-15_185607:040,-0.32843,0.0055850000000000006,-0.372162,-0.002382,-0.003896,-0.001183,-25.5,-23.870001000000002,-22.370001000000002,2d
2019-07-15_185607:060,-0.327911,0.0025329999999999997,-0.37316900000000003,-0.0033280000000000002,-0.003682,-0.000389,-25.5,-23.870001000000002,-22.370001000000002,2d
2019-07-15_185607:080,-0.32843,0.002014,-0.376221,-0.00339,-0.0039570000000000004,0.000129,-24.68,-24.18,-22.75,2d
2019-07-15_185607:100,-0.325378,0.001495,-0.377228,-0.00339,-0.004292,0.001777,-24.68,-24.18,-22.75,2d
2019-07-15_185607:120,-0.32486,0.0,-0.37674,-0.0036340000000000005,-0.00475,0.001106,-24.68,-24.18,-22.75,2d
2019-07-15_185607:140,-0.32995599999999997,0.000488,-0.378754,-0.0036950000000000004,-0.004567,0.001106,-24.0,-23.5,-22.059998999999998,2d
2019-07-15_185607:160,-0.328949,-0.000488,-0.38028,-0.004152,-0.004353,0.002113,-24.0,-23.5,-22.059998999999998,2d
2019-07-15_185607:180,-0.327911,-0.001007,-0.383331,-0.004427,-0.004231,0.001655,-25.059998999999998,-23.870001000000002,-22.75,2d
2019-07-15_185607:200,-0.333496,-0.001007,-0.384338,-0.004549,-0.003163,0.001381,-25.059998999999998,-23.870001000000002,-22.75,2d
2019-07-15_185607:220,-0.33300799999999997,-0.001007,-0.381805,-0.004793,-0.001912,0.001381,-25.059998999999998,-23.870001000000002,-22.75,2d
2019-07-15_185607:240,-0.33605999999999997,-0.002014,-0.383331,-0.00461,-0.001454,0.00132,-24.68,-23.870001000000002,-21.25,2d
2019-07-15_185607:260,-0.33300799999999997,-0.002014,-0.383331,-0.004427,0.000133,0.00132,-24.68,-23.870001000000002,-21.25,2d
2019-07-15_185607:280,-0.327911,-0.002014,-0.381317,-0.004,0.0008039999999999999,0.00132,-24.370001000000002,-23.5,-21.559998999999998,2d
2019-07-15_185607:300,-0.325897,-0.0035399999999999997,-0.380798,-0.003664,0.00056,0.000984,-24.370001000000002,-23.5,-21.559998999999998,2d
2019-07-15_185607:320,-0.325897,-0.001495,-0.379791,-0.0031149999999999997,0.000621,0.000465,-24.370001000000002,-23.5,-21.559998999999998,2d
2019-07-15_185607:340,-0.326904,-0.001495,-0.381317,-0.0028399999999999996,0.00056,0.000709,-24.68,-25.0,-23.25,2d
2019-07-15_185607:360,-0.326385,0.0,-0.38028,-0.002443,0.0008039999999999999,0.001258,-24.68,-25.0,-23.25,2d
2019-07-15_185607:380,-0.327911,0.0,-0.381317,-0.002443,0.001018,0.001442,-25.5,-24.559998999999998,-22.370001000000002,2d
2019-07-15_185607:400,-0.330475,0.0,-0.383331,-0.002718,0.0019030000000000002,0.001381,-25.5,-24.559998999999998,-22.370001000000002,2d
2019-07-15_185607:420,-0.330963,-0.000488,-0.383331,-0.0031149999999999997,0.0029100000000000003,0.001167,-25.5,-24.559998999999998,-22.370001000000002,2d
2019-07-15_185607:440,-0.325378,-0.001007,-0.38385,-0.003176,0.003246,0.001106,-24.68,-23.870001000000002,-24.370001000000002,2d
2019-07-15_185607:460,-0.322327,-0.001007,-0.381317,-0.003939,0.003246,0.000648,-24.68,-23.870001000000002,-24.370001000000002,2d
2019-07-15_185607:480,-0.320282,-0.0025329999999999997,-0.38028,-0.003878,0.003032,0.0007700000000000001,-24.68,-23.870001000000002,-22.370001000000002,2d
2019-07-15_185607:500,-0.322845,-0.005065999999999999,-0.378754,-0.0036950000000000004,0.0024519999999999998,0.000465,-24.68,-23.870001000000002,-22.370001000000002,2d
2019-07-15_185607:520,-0.324371,-0.005065999999999999,-0.378265,-0.0036340000000000005,0.0023,0.00028199999999999997,-24.68,-23.870001000000002,-22.370001000000002,2d
2019-07-15_185607:540,-0.325378,-0.004547,-0.379272,-0.00339,0.0023,0.000465,-25.5,-23.5,-22.75,2d
2019-07-15_185607:560,-0.322845,-0.004547,-0.378754,-0.0032979999999999997,0.002513,0.000587,-25.5,-23.5,-22.75,2d
2019-07-15_185607:580,-0.322327,-0.004059,-0.379791,-0.0032979999999999997,0.002239,0.000526,-24.68,-24.559998999999998,-23.25,2d
2019-07-15_185607:600,-0.318756,-0.004059,-0.379791,-0.0034509999999999996,0.001628,0.000465,-24.68,-24.559998999999998,-23.25,2d
2019-07-15_185607:620,-0.320282,-0.0035399999999999997,-0.379272,-0.003573,0.001201,0.000465,-24.68,-24.559998999999998,-23.25,2d
2019-07-15_185607:640,-0.324371,-0.0035399999999999997,-0.381805,-0.003817,0.000682,0.00028199999999999997,-25.059998999999998,-23.870001000000002,-22.75,2d
2019-07-15_185607:660,-0.325897,-0.0030210000000000002,-0.38028,-0.003817,0.000682,0.000404,-25.059998999999998,-23.870001000000002,-22.75,2d
2019-07-15_185607:680,-0.32486,-0.0025329999999999997,-0.382324,-0.003939,0.0012619999999999999,0.000496,-25.059998999999998,-23.5,-22.75,2d
2019-07-15_185607:700,-0.324371,-0.004059,-0.382812,-0.003664,0.0012619999999999999,0.000404,-25.059998999999998,-23.5,-22.75,2d
2019-07-15_185607:720,-0.322327,-0.004059,-0.382812,-0.003664,0.0014759999999999999,0.000404,-25.059998999999998,-23.5,-22.75,2d
2019-07-15_185607:740,-0.325378,-0.004547,-0.382324,-0.0036950000000000004,0.0014759999999999999,0.000129,-24.68,-23.5,-22.059998999999998,2d
2019-07-15_185607:760,-0.324371,-0.004059,-0.38028,-0.0037560000000000002,0.0016589999999999999,0.0008619999999999999,-24.68,-23.5,-22.059998999999998,2d
2019-07-15_185607:780,-0.326904,-0.004059,-0.382324,-0.003817,0.001842,0.001228,-24.370001000000002,-23.870001000000002,-22.75,2d
2019-07-15_185607:800,-0.325897,-0.002014,-0.381317,-0.004397,0.002116,0.001106,-24.370001000000002,-23.870001000000002,-22.75,2d
2019-07-15_185607:820,-0.322327,-0.0035399999999999997,-0.382324,-0.00461,0.002116,0.000496,-24.370001000000002,-23.870001000000002,-22.75,2d
2019-07-15_185607:840,-0.323853,-0.002014,-0.383331,-0.005007,0.001842,-0.000634,-25.5,-24.18,-22.059998999999998,2d
2019-07-15_185607:860,-0.32486,-0.0030210000000000002,-0.382812,-0.0051600000000000005,0.002055,-0.00011499999999999999,-25.5,-24.18,-22.059998999999998,2d
2019-07-15_185607:880,-0.325897,-0.004059,-0.385376,-0.005007,0.002239,-0.000328,-25.5,-24.18,-22.059998999999998,2d
2019-07-15_185607:900,-0.324371,-0.004547,-0.382324,-0.00461,0.002574,-0.000512,-25.870001000000002,-24.18,-22.370001000000002,2d
2019-07-15_185607:920,-0.319794,-0.0025329999999999997,-0.379272,-0.00403,0.002757,-0.00023700000000000001,-25.870001000000002,-24.18,-22.370001000000002,2d
2019-07-15_185607:940,-0.315216,-0.001007,-0.379272,-0.0037560000000000002,0.002239,-0.00011499999999999999,-24.68,-23.870001000000002,-22.75,2d
2019-07-15_185607:960,-0.312653,0.000488,-0.375214,-0.0034509999999999996,0.000743,0.000343,-24.68,-23.870001000000002,-22.75,2d
2019-07-15_185607:980,-0.311646,0.001495,-0.375702,-0.0036950000000000004,-0.0009050000000000001,0.000465,-24.68,-23.870001000000002,-22.75,2d
2019-07-15_185608:000,-0.311646,0.002014,-0.374176,-0.004152,-0.0027660000000000002,0.00028199999999999997,-25.059998999999998,-24.18,-22.75,2d
2019-07-15_185608:020,-0.314697,0.000488,-0.377747,-0.004427,-0.004567,0.000465,-25.059998999999998,-24.18,-22.75,2d
2019-07-15_185608:040,-0.325378,0.001007,-0.382812,-0.004824,-0.005574,0.000526,-24.68,-23.5,-22.75,2d
2019-07-15_185608:060,-0.330963,-0.000488,-0.389954,-0.004946,-0.004811,-0.00011499999999999999,-24.68,-23.5,-22.75,2d
2019-07-15_185608:080,-0.329437,-0.001495,-0.391479,-0.005007,-0.0032240000000000003,-0.000328,-24.68,-23.5,-22.75,2d
2019-07-15_185608:100,-0.330475,-0.001495,-0.391479,-0.004671,-0.001454,0.000587,-24.370001000000002,-24.18,-23.559998999999998,2d
2019-07-15_185608:120,-0.334534,-0.0025329999999999997,-0.392487,-0.004275,0.000621,0.00028199999999999997,-24.370001000000002,-24.18,-23.559998999999998,2d
2019-07-15_185608:140,-0.324371,0.001007,-0.39502,-0.004275,0.002971,-0.000786,-24.0,-23.5,-23.559998999999998,2d
2019-07-15_185608:160,-0.320801,0.001007,-0.392487,-0.004427,0.0036420000000000003,-0.00023700000000000001,-24.0,-23.5,-23.559998999999998,2d
2019-07-15_185608:180,-0.325378,0.000488,-0.391968,-0.00461,0.003886,-5.4000000000000005e-05,-24.0,-23.5,-23.559998999999998,2d
2019-07-15_185608:200,-0.327423,-0.001495,-0.390442,-0.004488000000000001,0.00471,-0.000512,-24.68,-24.18,-22.059998999999998,2d
2019-07-15_185608:220,-0.327911,-0.0035399999999999997,-0.389435,-0.004275,0.005504,-0.000664,-24.68,-24.18,-22.059998999999998,2d
2019-07-15_185608:240,-0.326904,-0.002014,-0.389954,-0.0036340000000000005,0.00648,-0.001183,-25.059998999999998,-25.0,-23.559998999999998,2d
2019-07-15_185608:260,-0.324371,-0.0030210000000000002,-0.385864,-0.0029010000000000004,0.00703,-0.00158,-25.059998999999998,-25.0,-23.559998999999998,2d
2019-07-15_185608:280,-0.324371,-0.000488,-0.384857,-0.0018030000000000001,0.007548999999999999,-0.001366,-25.059998999999998,-25.0,-23.559998999999998,2d
2019-07-15_185608:300,-0.322327,0.0035399999999999997,-0.380798,-0.001192,0.007762000000000001,-0.0010609999999999999,-24.68,-24.559998999999998,-22.75,2d
2019-07-15_185608:320,-0.32132,0.005065999999999999,-0.380798,-0.00107,0.007670999999999999,-0.000725,-24.68,-24.559998999999998,-22.75,2d
2019-07-15_185608:340,-0.318756,0.007599,-0.377228,-0.0014060000000000001,0.0071519999999999995,-0.000512,-24.68,-23.870001000000002,-23.25,2d
2019-07-15_185608:360,-0.320801,0.007111,-0.375702,-0.002199,0.006358,-0.00011499999999999999,-24.68,-23.870001000000002,-23.25,2d
2019-07-15_185608:380,-0.32132,0.006072999999999999,-0.375214,-0.0028399999999999996,0.005686999999999999,0.000465,-24.68,-23.870001000000002,-23.25,2d
2019-07-15_185608:400,-0.323334,0.004059,-0.375702,-0.0036950000000000004,0.004771,0.000465,-25.059998999999998,-24.18,-22.059998999999998,2d
2019-07-15_185608:420,-0.325897,0.004547,-0.375214,-0.004091,0.004314,0.0008619999999999999,-25.059998999999998,-24.18,-22.059998999999998,2d
2019-07-15_185608:440,-0.32843,0.004059,-0.374695,-0.004549,0.004039,0.001167,-24.370001000000002,-23.870001000000002,-22.059998999999998,2d
2019-07-15_185608:460,-0.323853,0.0025329999999999997,-0.373688,-0.004946,0.003978,0.001258,-24.370001000000002,-23.870001000000002,-22.059998999999998,2d
2019-07-15_185608:480,-0.324371,0.001007,-0.376221,-0.004946,0.003368,0.001503,-24.370001000000002,-23.870001000000002,-22.059998999999998,2d
2019-07-15_185608:500,-0.323853,-0.001007,-0.375214,-0.00461,0.002574,0.001777,-24.370001000000002,-24.559998999999998,-22.75,2d
2019-07-15_185608:520,-0.325378,-0.001495,-0.375214,-0.004152,0.00172,0.00196,-24.370001000000002,-24.559998999999998,-22.75,2d
2019-07-15_185608:540,-0.326904,-0.000488,-0.375702,-0.003817,0.001353,0.001991,-25.5,-24.18,-22.370001000000002,2d
2019-07-15_185608:560,-0.329437,-0.000488,-0.374695,-0.00339,0.001353,0.002052,-25.5,-24.18,-22.370001000000002,2d
2019-07-15_185608:580,-0.330963,0.002014,-0.376221,-0.003512,0.001628,0.002052,-25.5,-24.18,-22.370001000000002,2d
2019-07-15_185608:600,-0.330963,0.000488,-0.379272,-0.0036340000000000005,0.0017809999999999998,0.001991,-24.68,-24.559998999999998,-22.370001000000002,2d
2019-07-15_185608:620,-0.32995599999999997,0.0,-0.377228,-0.004,0.001964,0.002052,-24.68,-24.559998999999998,-22.370001000000002,2d
2019-07-15_185608:640,-0.32995599999999997,-0.000488,-0.37674,-0.004397,0.001964,0.001991,-25.059998999999998,-23.870001000000002,-21.68,2d
2019-07-15_185608:660,-0.32995599999999997,-0.001007,-0.377747,-0.00461,0.0017809999999999998,0.001655,-25.059998999999998,-23.870001000000002,-21.68,2d
2019-07-15_185608:680,-0.333496,-0.001007,-0.37674,-0.004732,0.002116,0.001777,-25.059998999999998,-23.870001000000002,-21.68,2d
2019-07-15_185608:700,-0.33197,-0.001495,-0.37674,-0.004488000000000001,0.002239,0.00196,-25.059998999999998,-23.870001000000002,-21.559998999999998,2d
2019-07-15_185608:720,-0.331482,-0.001007,-0.375702,-0.004549,0.002361,0.001991,-25.059998999999998,-23.870001000000002,-21.559998999999998,2d
2019-07-15_185608:740,-0.32995599999999997,-0.000488,-0.37674,-0.00461,0.002574,0.002052,-24.68,-24.18,-22.370001000000002,2d
2019-07-15_185608:760,-0.328949,0.001007,-0.374176,-0.004793,0.002513,0.0021739999999999997,-24.68,-24.18,-22.370001000000002,2d
2019-07-15_185608:780,-0.326385,0.000488,-0.374176,-0.005007,0.002361,0.001838,-24.68,-24.18,-22.370001000000002,2d
2019-07-15_185608:800,-0.326385,0.000488,-0.37316900000000003,-0.005068,0.00172,0.002113,-24.68,-24.18,-21.559998999999998,2d
2019-07-15_185608:820,-0.327911,0.0,-0.374176,-0.0051600000000000005,0.0010789999999999999,0.002449,-24.68,-24.18,-21.559998999999998,2d
2019-07-15_185608:840,-0.334015,0.000488,-0.373688,-0.005282,0.000621,0.002449,-25.5,-24.559998999999998,-22.75,2d
2019-07-15_185608:860,-0.330475,-0.001007,-0.374176,-0.005556,0.00114,0.003303,-25.5,-24.559998999999998,-22.75,2d
2019-07-15_185608:880,-0.327423,-0.001007,-0.375214,-0.005739,0.001018,0.003913000000000001,-25.5,-24.559998999999998,-22.75,2d
2019-07-15_185608:900,-0.330475,-0.001007,-0.377228,-0.005861,0.00056,0.003639,-25.5,-24.559998999999998,-22.059998999999998,2d
2019-07-15_185608:920,-0.330963,-0.002014,-0.37674,-0.006136,0.000407,0.002388,-25.5,-24.559998999999998,-22.059998999999998,2d
2019-07-15_185608:940,-0.32995599999999997,-0.0030210000000000002,-0.379791,-0.006136,0.00056,0.001045,-25.870001000000002,-23.5,-22.059998999999998,2d
2019-07-15_185608:960,-0.33197,-0.0055850000000000006,-0.378754,-0.0058,0.0009570000000000001,0.001564,-25.870001000000002,-23.5,-22.059998999999998,2d
2019-07-15_185608:980,-0.334015,-0.005065999999999999,-0.378754,-0.005343,0.00114,0.001625,-25.870001000000002,-23.5,-22.059998999999998,2d
2019-07-15_185609:000,-0.332489,-0.005065999999999999,-0.377747,-0.004946,0.001842,0.001045,-25.870001000000002,-24.18,-22.370001000000002,2d
2019-07-15_185609:020,-0.32995599999999997,-0.004547,-0.377747,-0.004397,0.002177,0.0007700000000000001,-25.870001000000002,-24.18,-22.370001000000002,2d
2019-07-15_185609:040,-0.326904,-0.002014,-0.37674,-0.003939,0.002513,0.000526,-25.059998999999998,-23.870001000000002,-22.059998999999998,2d
2019-07-15_185609:060,-0.32843,-0.0030210000000000002,-0.377228,-0.003573,0.002116,0.000465,-25.059998999999998,-23.870001000000002,-22.059998999999998,2d
2019-07-15_185609:080,-0.328949,-0.002014,-0.377228,-0.0032979999999999997,0.002361,0.000496,-25.059998999999998,-23.870001000000002,-22.059998999999998,2d
2019-07-15_185609:100,-0.328949,-0.0030210000000000002,-0.375702,-0.002993,0.002116,0.000465,-25.059998999999998,-24.559998999999998,-22.059998999999998,2d
2019-07-15_185609:120,-0.327423,-0.0025329999999999997,-0.37674,-0.0028399999999999996,0.001964,0.00016,-25.059998999999998,-24.559998999999998,-22.059998999999998,2d
2019-07-15_185609:140,-0.326904,-0.001495,-0.376221,-0.002657,0.001598,0.000648,-24.68,-24.18,-21.68,2d
2019-07-15_185609:160,-0.330475,-0.0030210000000000002,-0.376221,-0.0028399999999999996,0.0017809999999999998,0.000465,-24.68,-24.18,-21.68,2d
2019-07-15_185609:180,-0.331482,0.000488,-0.375702,-0.0031149999999999997,0.001842,0.000709,-24.68,-24.18,-21.68,2d
2019-07-15_185609:200,-0.327911,-0.001495,-0.374176,-0.003512,0.0014759999999999999,0.001045,-25.870001000000002,-24.18,-22.059998999999998,2d
2019-07-15_185609:220,-0.326385,-0.0025329999999999997,-0.375214,-0.004091,0.001628,-0.000267,-25.870001000000002,-24.18,-22.059998999999998,2d
2019-07-15_185609:240,-0.329437,-0.001495,-0.376221,-0.00403,0.001018,-0.000176,-25.059998999999998,-24.18,-23.559998999999998,2d
2019-07-15_185609:260,-0.32995599999999997,-0.0035399999999999997,-0.375214,-0.004091,0.00114,0.00028199999999999997,-25.059998999999998,-24.18,-23.559998999999998,2d
2019-07-15_185609:280,-0.33300799999999997,-0.0035399999999999997,-0.376221,-0.004,0.001201,-0.00011499999999999999,-25.059998999999998,-24.18,-23.559998999999998,2d
2019-07-15_185609:300,-0.33300799999999997,-0.002014,-0.376221,-0.003664,0.001537,6.8e-05,-25.5,-24.18,-22.059998999999998,2d
2019-07-15_185609:320,-0.330475,-0.002014,-0.37674,-0.0036340000000000005,0.002239,-0.000512,-25.5,-24.18,-22.059998999999998,2d
2019-07-15_185609:340,-0.327423,-0.001495,-0.377228,-0.0033280000000000002,0.001994,-0.001,-24.370001000000002,-24.559998999999998,-23.25,2d
2019-07-15_185609:360,-0.324371,-0.001495,-0.375214,-0.003237,0.001415,-0.0008470000000000001,-24.370001000000002,-24.559998999999998,-23.25,2d
2019-07-15_185609:380,-0.324371,-0.0030210000000000002,-0.374176,-0.003054,0.000743,-0.0008470000000000001,-24.370001000000002,-24.559998999999998,-23.25,2d
2019-07-15_185609:400,-0.325378,-0.000488,-0.37265,-0.002657,1.1e-05,-0.0013050000000000002,-25.870001000000002,-23.5,-21.25,2d
