timestamp,AccX,AccY,AccZ,GyroX,GyroY,GyroZ,MagX,MagY,MagZ,Activity
2019-07-15_182922:080,-0.296387,0.038635,-0.45043900000000003,0.013394999999999999,0.016643,-0.008873,-29.18,-24.75,-24.370001000000002,3a
2019-07-15_182922:100,-0.314697,0.042694,-0.447906,0.014463,0.017253,-0.007622,-30.0,-24.059998999999998,-24.75,3a
2019-07-15_182922:120,-0.326385,0.040649,-0.446899,0.017179,0.022289,-0.006371,-30.0,-24.059998999999998,-24.75,3a
2019-07-15_182922:140,-0.335541,0.035583,-0.434692,0.018338999999999998,0.02708,-0.005639,-30.0,-24.059998999999998,-24.75,3a
2019-07-15_182922:160,-0.323334,0.032532,-0.420959,0.018583000000000002,0.029307999999999997,-0.004631000000000001,-29.870001000000002,-24.5,-24.0,3a
2019-07-15_182922:180,-0.312164,0.023895,-0.390442,0.018247,0.032237,-0.0010609999999999999,-29.870001000000002,-24.5,-24.0,3a
2019-07-15_182922:200,-0.29742399999999997,0.019318000000000002,-0.369598,0.017606999999999998,0.031963,0.000221,-30.25,-24.059998999999998,-23.559998999999998,3a
2019-07-15_182922:220,-0.28112800000000004,0.011687999999999999,-0.342163,0.016935,0.029186,0.002571,-30.25,-24.059998999999998,-23.559998999999998,3a
2019-07-15_182922:240,-0.285217,0.0035399999999999997,-0.326904,0.014799000000000001,0.019022999999999998,0.004097,-30.25,-24.059998999999998,-23.559998999999998,3a
2019-07-15_182922:260,-0.302002,-0.0025329999999999997,-0.315704,0.014402000000000002,0.015849000000000002,0.003517,-32.060001,-23.68,-24.0,3a
2019-07-15_182922:280,-0.322845,-0.006072999999999999,-0.31369,0.012602,0.009134999999999999,0.001228,-32.060001,-23.68,-24.0,3a
2019-07-15_182922:300,-0.348267,-0.011169,-0.312164,0.012297,0.008434,-0.00011499999999999999,-32.060001,-23.68,-24.0,3a
2019-07-15_182922:320,-0.36911,-0.014221000000000001,-0.322327,0.012083,0.011484999999999999,-0.004692,-32.060001,-23.0,-22.059998999999998,3a
2019-07-15_182922:340,-0.398071,-0.014221000000000001,-0.333496,0.012265999999999999,0.013713,-0.00515,-32.060001,-23.0,-22.059998999999998,3a
2019-07-15_182922:360,-0.402649,-0.017273,-0.340118,0.012083,0.019756,-0.004174000000000001,-32.18,-22.18,-23.0,3a
2019-07-15_182922:380,-0.384338,-0.019806,-0.334015,0.0119,0.026256,-0.002251,-32.18,-22.18,-23.0,3a
2019-07-15_182922:400,-0.36554000000000003,-0.017792,-0.329437,0.012144,0.029460000000000004,-0.001519,-31.75,-22.559998999999998,-22.059998999999998,3a
2019-07-15_182922:420,-0.361481,-0.016266,-0.316223,0.0119,0.029704,-0.0013050000000000002,-31.75,-22.559998999999998,-22.059998999999998,3a
2019-07-15_182922:440,-0.355377,-0.014740000000000001,-0.30654899999999996,0.012083,0.027141000000000002,-0.002434,-31.75,-22.559998999999998,-22.059998999999998,3a
2019-07-15_182922:460,-0.35180700000000004,-0.008118,-0.301483,0.011503,0.025401,-0.0037159999999999997,-32.18,-21.370001000000002,-21.75,3a
2019-07-15_182922:480,-0.352325,-0.004547,-0.30249000000000004,0.008573,0.018626,-0.004418,-32.18,-21.370001000000002,-21.75,3a
2019-07-15_182922:500,-0.36248800000000003,-0.0055850000000000006,-0.306061,0.0073219999999999995,0.016916999999999998,-0.003624,-32.18,-21.370001000000002,-21.75,3a
2019-07-15_182922:520,-0.375214,-0.009125,-0.309113,0.0032630000000000003,0.013987999999999999,-0.0019760000000000003,-33.0,-22.059998999999998,-22.559998999999998,3a
2019-07-15_182922:540,-0.372162,-0.010162000000000001,-0.311127,0.0022559999999999998,0.013987999999999999,-0.001702,-33.0,-22.059998999999998,-22.559998999999998,3a
2019-07-15_182922:560,-0.374695,-0.016266,-0.323853,0.000395,0.013744,-0.0012439999999999999,-34.369999,-22.059998999999998,-22.559998999999998,3a
2019-07-15_182922:580,-0.383331,-0.018799,-0.325897,-0.001467,0.01353,-0.001458,-34.369999,-22.059998999999998,-22.559998999999998,3a
2019-07-15_182922:600,-0.40063499999999996,-0.024384,-0.328949,-0.0022600000000000003,0.013713,-0.00023700000000000001,-34.369999,-22.059998999999998,-22.559998999999998,3a
2019-07-15_182922:620,-0.412811,-0.029480000000000003,-0.314697,-0.002657,0.015788,0.000496,-34.060001,-21.370001000000002,-22.559998999999998,3a
2019-07-15_182922:640,-0.404694,-0.034546,-0.291321,-0.0009789999999999998,0.020824000000000002,-0.0008470000000000001,-34.060001,-21.370001000000002,-22.559998999999998,3a
2019-07-15_182922:660,-0.401642,-0.033539,-0.290802,-0.000338,0.020975999999999998,-0.001397,-33.68,-21.75,-21.370001000000002,3a
2019-07-15_182922:680,-0.417908,-0.03302,-0.290802,0.001524,0.020946,-0.002526,-33.68,-21.75,-21.370001000000002,3a
2019-07-15_182922:700,-0.429108,-0.034058,-0.279633,0.002073,0.021769999999999998,-0.0033799999999999998,-33.68,-21.75,-21.370001000000002,3a
2019-07-15_182922:720,-0.42147799999999996,-0.032532,-0.277588,0.002867,0.025127,-0.0033799999999999998,-34.369999,-21.059998999999998,-21.870001000000002,3a
2019-07-15_182922:740,-0.40823400000000004,-0.031006,-0.276581,0.003935,0.02708,-0.002098,-34.369999,-21.059998999999998,-21.870001000000002,3a
2019-07-15_182922:760,-0.411804,-0.025908999999999998,-0.280121,0.005705,0.025951,-0.004815,-34.75,-22.18,-20.18,3a
2019-07-15_182922:780,-0.40774499999999997,-0.018799,-0.278595,0.006314999999999999,0.024272,-0.008019,-34.75,-22.18,-20.18,3a
2019-07-15_182922:800,-0.415375,-0.020844,-0.273529,0.006986,0.023875,-0.004692,-34.75,-22.18,-20.18,3a
2019-07-15_182922:820,-0.420959,-0.019318000000000002,-0.266907,0.006498,0.024333,0.000221,-34.75,-21.059998999999998,-21.059998999999998,3a
2019-07-15_182922:840,-0.41943400000000003,-0.022369,-0.25317399999999995,0.005461,0.02476,0.004951,-34.75,-21.059998999999998,-21.059998999999998,3a
2019-07-15_182922:860,-0.417389,-0.024384,-0.248596,0.004667,0.025401,0.006141,-35.5,-21.059998999999998,-19.870001000000002,3a
2019-07-15_182922:880,-0.408752,-0.028961,-0.23895300000000003,0.003507,0.024211,0.0029059999999999997,-35.5,-21.059998999999998,-19.870001000000002,3a
2019-07-15_182922:900,-0.412811,-0.039642000000000004,-0.236389,0.00366,0.02122,-0.00045099999999999996,-35.5,-21.059998999999998,-19.870001000000002,3a
2019-07-15_182922:920,-0.42758199999999996,-0.049316000000000006,-0.235382,0.005857,0.019634,-0.005974,-36.18,-21.059998999999998,-17.870001000000002,3a
2019-07-15_182922:940,-0.41384899999999997,-0.048279,-0.23233,0.008573,0.019572,-0.013451,-36.18,-21.059998999999998,-17.870001000000002,3a
2019-07-15_182922:960,-0.408752,-0.048798,-0.234375,0.011747,0.018504,-0.018456,-36.68,-20.25,-17.370001000000002,3a
2019-07-15_182922:980,-0.404175,-0.050842,-0.23690799999999998,0.015347999999999999,0.016307,-0.019982,-36.68,-20.25,-17.370001000000002,3a
2019-07-15_182923:000,-0.40063499999999996,-0.041687,-0.248596,0.019712,0.013011000000000002,-0.022484,-36.68,-20.25,-17.370001000000002,3a
2019-07-15_182923:020,-0.412811,-0.029480000000000003,-0.253693,0.023558000000000003,0.008403,-0.026879000000000004,-35.560001,-21.059998999999998,-18.68,3a
2019-07-15_182923:040,-0.43518100000000004,-0.010651,-0.253693,0.025968,0.006023,-0.028588,-35.560001,-21.059998999999998,-18.68,3a
2019-07-15_182923:060,-0.446899,-0.002014,-0.24963400000000002,0.02667,0.005901,-0.02575,-35.869999,-21.5,-18.68,3a
2019-07-15_182923:080,-0.44384799999999996,0.008118,-0.24096700000000001,0.024748,0.007488,-0.019829,-35.869999,-21.5,-18.68,3a
2019-07-15_182923:100,-0.441803,0.008636,-0.238434,0.021177,0.009013,-0.013999999999999999,-35.869999,-21.5,-18.68,3a
2019-07-15_182923:120,-0.425537,0.0055850000000000006,-0.23590100000000003,0.016599000000000003,0.010020000000000001,-0.009545,-35.5,-22.18,-17.370001000000002,3a
2019-07-15_182923:140,-0.417389,0.000488,-0.23486300000000002,0.012631999999999999,0.008617,-0.005364,-35.5,-22.18,-17.370001000000002,3a
2019-07-15_182923:160,-0.410797,-0.0025329999999999997,-0.231323,0.009367,0.005686999999999999,-0.004631000000000001,-34.369999,-21.5,-19.059998999999998,3a
2019-07-15_182923:180,-0.416382,-0.0035399999999999997,-0.227264,0.0073219999999999995,0.003032,-0.004845,-34.369999,-21.5,-19.059998999999998,3a
2019-07-15_182923:200,-0.41943400000000003,-0.006072999999999999,-0.227753,0.006101,0.0016589999999999999,-0.004967,-34.369999,-21.5,-19.059998999999998,3a
2019-07-15_182923:220,-0.414337,-0.004547,-0.23233,0.004911,0.000133,-0.004906000000000001,-35.560001,-21.75,-18.559998999999998,3a
2019-07-15_182923:240,-0.410278,0.001007,-0.23995999999999998,0.003904,-0.002309,-0.0037159999999999997,-35.560001,-21.75,-18.559998999999998,3a
2019-07-15_182923:260,-0.414337,0.0030210000000000002,-0.245544,0.002378,-0.004811,-0.0032890000000000003,-35.18,-21.5,-18.68,3a
2019-07-15_182923:280,-0.42758199999999996,0.006072999999999999,-0.253693,0.000608,-0.005818,-0.004692,-35.18,-21.5,-18.68,3a
2019-07-15_182923:300,-0.434174,0.0035399999999999997,-0.25827,-0.001864,-0.005299,-0.003106,-35.18,-21.5,-18.68,3a
2019-07-15_182923:320,-0.438751,-0.0025329999999999997,-0.258759,-0.004091,-0.0037119999999999996,0.001228,-34.369999,-22.559998999999998,-19.870001000000002,3a
2019-07-15_182923:340,-0.44433599999999995,-0.005065999999999999,-0.258759,-0.006014,-0.0018510000000000002,0.0033640000000000002,-34.369999,-22.559998999999998,-19.870001000000002,3a
2019-07-15_182923:360,-0.44433599999999995,-0.009644,-0.257233,-0.007876000000000001,0.000346,0.004646,-34.75,-22.18,-20.18,3a
2019-07-15_182923:380,-0.440796,-0.012695,-0.25317399999999995,-0.009401000000000001,0.002635,0.005561,-34.75,-22.18,-20.18,3a
2019-07-15_182923:400,-0.438751,-0.017273,-0.24963400000000002,-0.010775,0.003917,0.006294,-34.75,-22.18,-20.18,3a
2019-07-15_182923:420,-0.434692,-0.020844,-0.24758899999999998,-0.011720999999999999,0.005016,0.006874,-35.869999,-22.18,-20.559998999999998,3a
2019-07-15_182923:440,-0.43670699999999996,-0.022369,-0.24453699999999998,-0.012392,0.004894,0.006569,-35.869999,-22.18,-20.559998999999998,3a
2019-07-15_182923:460,-0.43927,-0.024902,-0.24453699999999998,-0.012911,0.0052899999999999996,0.005836,-35.18,-23.0,-19.059998999999998,3a
2019-07-15_182923:480,-0.438751,-0.026427999999999997,-0.242004,-0.012972,0.0052899999999999996,0.005043,-35.18,-23.0,-19.059998999999998,3a
2019-07-15_182923:500,-0.44027700000000003,-0.029480000000000003,-0.240479,-0.012179,0.005351,0.004554,-35.18,-23.0,-19.059998999999998,3a
2019-07-15_182923:520,-0.445862,-0.029480000000000003,-0.238434,-0.010865999999999999,0.005779,0.00309,-35.869999,-21.75,-19.059998999999998,3a
2019-07-15_182923:540,-0.437225,-0.028442000000000002,-0.23791500000000002,-0.008851999999999999,0.006297,0.00028199999999999997,-35.869999,-21.75,-19.059998999999998,3a
2019-07-15_182923:560,-0.425537,-0.021851,-0.23791500000000002,-0.0056170000000000005,0.006358,-0.002434,-35.869999,-21.5,-18.68,3a
2019-07-15_182923:580,-0.420441,-0.017792,-0.237427,-0.00403,0.005016,-0.002892,-35.869999,-21.5,-18.68,3a
2019-07-15_182923:600,-0.421967,-0.012177,-0.238434,-0.0025960000000000002,0.003124,-0.003106,-35.869999,-21.5,-18.68,3a
2019-07-15_182923:620,-0.42147799999999996,-0.011169,-0.24096700000000001,-0.001253,0.001201,-0.003563,-35.560001,-21.75,-18.68,3a
2019-07-15_182923:640,-0.42453,-0.006592,-0.243011,-0.0006730000000000001,-0.000172,-0.0032890000000000003,-35.560001,-21.75,-18.68,3a
2019-07-15_182923:660,-0.431641,-0.002014,-0.246063,-0.000643,-0.0008439999999999999,-0.001854,-35.560001,-22.559998999999998,-18.68,3a
2019-07-15_182923:680,-0.440796,0.001007,-0.248108,-0.002382,1.1e-05,-0.001458,-35.560001,-22.559998999999998,-18.68,3a
2019-07-15_182923:700,-0.44433599999999995,0.000488,-0.248596,-0.004427,0.001598,-0.000786,-35.560001,-22.559998999999998,-18.68,3a
2019-07-15_182923:720,-0.441803,0.0,-0.248596,-0.006411,0.003246,0.000343,-35.18,-21.75,-19.370001000000002,3a
2019-07-15_182923:740,-0.439758,-0.005065999999999999,-0.244019,-0.00873,0.004161,0.001442,-35.18,-21.75,-19.370001000000002,3a
2019-07-15_182923:760,-0.432159,-0.010162000000000001,-0.24096700000000001,-0.010256,0.004771,0.002113,-35.18,-22.18,-18.68,3a
2019-07-15_182923:780,-0.432648,-0.013702,-0.23791500000000002,-0.01111,0.004375,0.002571,-35.18,-22.18,-18.68,3a
2019-07-15_182923:800,-0.432648,-0.017792,-0.236389,-0.011385,0.003825,0.002754,-35.18,-22.18,-18.68,3a
2019-07-15_182923:820,-0.435699,-0.017792,-0.236389,-0.011446,0.003703,0.002754,-35.869999,-22.559998999999998,-19.870001000000002,3a
2019-07-15_182923:840,-0.431122,-0.020844,-0.235382,-0.011385,0.003368,0.00309,-35.869999,-22.559998999999998,-19.870001000000002,3a
2019-07-15_182923:860,-0.429596,-0.019806,-0.234375,-0.010988,0.002849,0.00309,-35.560001,-22.559998999999998,-17.870001000000002,3a
2019-07-15_182923:880,-0.42758199999999996,-0.021332,-0.233856,-0.010317,0.002513,0.00251,-35.560001,-22.559998999999998,-17.870001000000002,3a
2019-07-15_182923:900,-0.42858900000000005,-0.020844,-0.235382,-0.009309999999999999,0.001964,0.002571,-35.560001,-22.559998999999998,-17.870001000000002,3a
2019-07-15_182923:920,-0.431122,-0.019806,-0.239441,-0.00812,0.001353,0.002754,-35.560001,-21.75,-18.68,3a
2019-07-15_182923:940,-0.430634,-0.020844,-0.239441,-0.006745999999999999,0.0008039999999999999,0.00309,-35.560001,-21.75,-18.68,3a
2019-07-15_182923:960,-0.432159,-0.020325,-0.242004,-0.005404,0.00022400000000000002,0.00309,-35.560001,-22.18,-17.870001000000002,3a
2019-07-15_182923:980,-0.43621800000000005,-0.016753999999999998,-0.242493,-0.004336,-0.000172,0.003517,-35.560001,-22.18,-17.870001000000002,3a
2019-07-15_182924:000,-0.43927,-0.017792,-0.244019,-0.00339,0.000346,0.003975,-35.560001,-22.18,-17.870001000000002,3a
2019-07-15_182924:020,-0.43774399999999997,-0.014740000000000001,-0.242004,-0.003054,0.000468,0.004219,-36.25,-23.0,-17.370001000000002,3a
2019-07-15_182924:040,-0.43621800000000005,-0.013702,-0.243011,-0.002993,0.000468,0.004646,-36.25,-23.0,-17.370001000000002,3a
2019-07-15_182924:060,-0.434174,-0.014740000000000001,-0.242004,-0.0031149999999999997,0.000621,0.003975,-34.75,-22.559998999999998,-19.059998999999998,3a
2019-07-15_182924:080,-0.43518100000000004,-0.012695,-0.23895300000000003,-0.0032979999999999997,0.000621,0.003913000000000001,-34.75,-22.559998999999998,-19.059998999999998,3a
2019-07-15_182924:100,-0.42858900000000005,-0.014740000000000001,-0.23895300000000003,-0.003878,0.0008039999999999999,0.0051649999999999995,-34.75,-22.559998999999998,-19.059998999999998,3a
2019-07-15_182924:120,-0.427063,-0.015747,-0.239441,-0.004549,0.000468,0.004707,-35.869999,-22.18,-19.059998999999998,3a
2019-07-15_182924:140,-0.427063,-0.017792,-0.239441,-0.004427,-5e-05,0.002967,-35.869999,-22.18,-19.059998999999998,3a
2019-07-15_182924:160,-0.426544,-0.018799,-0.241486,-0.004213000000000001,-0.00063,0.0022960000000000003,-35.869999,-21.75,-17.059998999999998,3a
2019-07-15_182924:180,-0.42807,-0.020844,-0.239441,-0.004,-0.000661,0.002754,-35.869999,-21.75,-17.059998999999998,3a
2019-07-15_182924:200,-0.432159,-0.020325,-0.242004,-0.003237,-0.00063,0.00309,-35.869999,-21.75,-17.059998999999998,3a
2019-07-15_182924:220,-0.43823199999999995,-0.019318000000000002,-0.244019,-0.0028399999999999996,1.1e-05,0.002754,-35.18,-21.75,-18.559998999999998,3a
2019-07-15_182924:240,-0.438751,-0.017273,-0.24453699999999998,-0.002382,0.0009570000000000001,0.002784,-35.18,-21.75,-18.559998999999998,3a
2019-07-15_182924:260,-0.438751,-0.01828,-0.24658200000000002,-0.002535,0.001842,0.002784,-35.560001,-22.18,-18.68,3a
2019-07-15_182924:280,-0.437225,-0.017792,-0.24453699999999998,-0.002779,0.002574,0.002235,-35.560001,-22.18,-18.68,3a
2019-07-15_182924:300,-0.435699,-0.019318000000000002,-0.245056,-0.003176,0.003093,0.001991,-35.560001,-22.18,-18.68,3a
2019-07-15_182924:320,-0.434174,-0.019318000000000002,-0.245056,-0.003512,0.003307,0.002235,-35.869999,-21.75,-17.370001000000002,3a
2019-07-15_182924:340,-0.441284,-0.020844,-0.24453699999999998,-0.00403,0.003307,0.00196,-35.869999,-21.75,-17.370001000000002,3a
2019-07-15_182924:360,-0.438751,-0.019806,-0.244019,-0.0048850000000000005,0.004314,0.001777,-36.68,-22.18,-17.370001000000002,3a
2019-07-15_182924:380,-0.43670699999999996,-0.023375999999999997,-0.241486,-0.005343,0.005351,0.001838,-36.68,-22.18,-17.370001000000002,3a
2019-07-15_182924:400,-0.433167,-0.023375999999999997,-0.242004,-0.006014,0.005504,0.000587,-36.68,-22.18,-17.370001000000002,3a
2019-07-15_182924:420,-0.42605600000000005,-0.023375999999999997,-0.238434,-0.006319,0.005168,-0.000328,-36.25,-21.75,-18.68,3a
2019-07-15_182924:440,-0.423004,-0.024384,-0.238434,-0.006319,0.0041,-5.4000000000000005e-05,-36.25,-21.75,-18.68,3a
2019-07-15_182924:460,-0.427063,-0.024902,-0.238434,-0.005953,0.003246,7.000000000000001e-06,-35.869999,-22.18,-19.370001000000002,3a
2019-07-15_182924:480,-0.429108,-0.024902,-0.23895300000000003,-0.005556,0.002788,-0.000664,-35.869999,-22.18,-19.370001000000002,3a
2019-07-15_182924:500,-0.42758199999999996,-0.024902,-0.240479,-0.00461,0.002361,-0.0010609999999999999,-35.869999,-22.18,-19.370001000000002,3a
2019-07-15_182924:520,-0.42858900000000005,-0.024902,-0.241486,-0.003817,0.001994,-0.001183,-36.25,-21.75,-18.68,3a
2019-07-15_182924:540,-0.432159,-0.020325,-0.240479,-0.0031149999999999997,0.001353,-0.0012439999999999999,-36.25,-21.75,-18.68,3a
2019-07-15_182924:560,-0.43621800000000005,-0.01828,-0.240479,-0.0025960000000000002,0.001415,-0.0009689999999999999,-35.5,-21.75,-17.870001000000002,3a
2019-07-15_182924:580,-0.441284,-0.017792,-0.242004,-0.002718,0.002055,-0.0009689999999999999,-35.5,-21.75,-17.870001000000002,3a
2019-07-15_182924:600,-0.439758,-0.016266,-0.242004,-0.002993,0.002757,-0.000664,-35.5,-21.75,-17.870001000000002,3a
2019-07-15_182924:620,-0.443329,-0.017273,-0.240479,-0.003573,0.003124,-0.000328,-36.25,-21.5,-18.18,3a
2019-07-15_182924:640,-0.44638100000000003,-0.017792,-0.242004,-0.003878,0.0042829999999999995,-0.001,-36.25,-21.5,-18.18,3a
2019-07-15_182924:660,-0.441803,-0.019318000000000002,-0.242004,-0.004,0.005748,-0.0017929999999999999,-35.560001,-21.5,-19.370001000000002,3a
2019-07-15_182924:680,-0.440796,-0.020325,-0.23995999999999998,-0.0036340000000000005,0.006572,-0.0021899999999999997,-35.560001,-21.5,-19.370001000000002,3a
2019-07-15_182924:700,-0.441284,-0.020325,-0.239441,-0.002932,0.006938,-0.0021899999999999997,-35.560001,-21.5,-19.370001000000002,3a
2019-07-15_182924:720,-0.43823199999999995,-0.017792,-0.23590100000000003,-0.002382,0.007548999999999999,-0.002251,-36.18,-22.18,-17.370001000000002,3a
2019-07-15_182924:740,-0.435699,-0.017273,-0.235382,-0.0018030000000000001,0.007426,-0.001519,-36.18,-22.18,-17.370001000000002,3a
2019-07-15_182924:760,-0.43823199999999995,-0.014740000000000001,-0.235382,-0.0018030000000000001,0.007488,-0.00158,-35.869999,-21.75,-16.68,3a
2019-07-15_182924:780,-0.42401099999999997,-0.011169,-0.21554600000000002,-0.0015279999999999998,0.007304000000000001,-0.0019760000000000003,-35.869999,-21.75,-16.68,3a
2019-07-15_182924:800,-0.42758199999999996,-0.009644,-0.220642,-0.002169,0.0045579999999999996,-0.001519,-35.869999,-21.75,-16.68,3a
2019-07-15_182924:820,-0.42401099999999997,-0.011687999999999999,-0.223694,-0.003176,0.002239,-0.000634,-35.869999,-22.559998999999998,-17.870001000000002,3a
2019-07-15_182924:840,-0.42807,-0.012177,-0.225739,-0.0033280000000000002,0.00022400000000000002,-0.000634,-35.869999,-22.559998999999998,-17.870001000000002,3a
2019-07-15_182924:860,-0.437225,-0.012177,-0.23486300000000002,-0.0034509999999999996,-0.001759,-0.000725,-36.68,-22.559998999999998,-17.370001000000002,3a
2019-07-15_182924:880,-0.44638100000000003,-0.011687999999999999,-0.23895300000000003,-0.003573,-0.00237,-0.001183,-36.68,-22.559998999999998,-17.370001000000002,3a
2019-07-15_182924:900,-0.455017,-0.012177,-0.238434,-0.003512,-0.00124,-0.00158,-36.68,-22.559998999999998,-17.370001000000002,3a
2019-07-15_182924:920,-0.45605500000000004,-0.011169,-0.234375,-0.0034509999999999996,0.00114,-0.000634,-36.68,-21.75,-16.68,3a
2019-07-15_182924:940,-0.45907600000000004,-0.011687999999999999,-0.233856,-0.0034509999999999996,0.004039,0.000587,-36.68,-21.75,-16.68,3a
2019-07-15_182924:960,-0.45706199999999997,-0.011687999999999999,-0.23590100000000003,-0.0037560000000000002,0.00761,0.00028199999999999997,-35.869999,-22.559998999999998,-17.059998999999998,3a
2019-07-15_182924:980,-0.445374,-0.015228,-0.234375,-0.0036950000000000004,0.010143000000000001,-0.001397,-35.869999,-22.559998999999998,-17.059998999999998,3a
2019-07-15_182925:000,-0.440796,-0.013702,-0.23233,-0.003512,0.010753,-0.001183,-35.869999,-22.559998999999998,-17.059998999999998,3a
2019-07-15_182925:020,-0.454529,-0.016753999999999998,-0.228271,-0.002932,0.011607,-0.00023700000000000001,-35.869999,-22.559998999999998,-17.059998999999998,3a
2019-07-15_182925:040,-0.462128,-0.015747,-0.23028600000000002,-0.002657,0.014537000000000001,-0.0008470000000000001,-35.869999,-22.559998999999998,-17.059998999999998,3a
2019-07-15_182925:060,-0.45654300000000003,-0.013213999999999998,-0.22879000000000002,-0.002321,0.017588999999999997,-0.0011220000000000002,-37.060001,-22.559998999999998,-17.5,3a
2019-07-15_182925:080,-0.44232200000000005,-0.015228,-0.220123,-0.001925,0.019969,-0.001,-37.060001,-22.559998999999998,-17.5,3a
2019-07-15_182925:100,-0.430634,-0.011687999999999999,-0.21148699999999998,-0.0020469999999999998,0.020305,-0.001,-37.060001,-22.559998999999998,-17.5,3a
2019-07-15_182925:120,-0.437225,-0.009644,-0.216583,-0.0028399999999999996,0.018443,-0.000176,-35.869999,-22.559998999999998,-17.5,3a
2019-07-15_182925:140,-0.43621800000000005,-0.009125,-0.212006,-0.0031149999999999997,0.016765000000000002,0.0007700000000000001,-35.869999,-22.559998999999998,-17.5,3a
2019-07-15_182925:160,-0.43774399999999997,-0.008636,-0.209961,-0.003664,0.015513999999999998,0.000984,-37.0,-22.18,-16.18,3a
2019-07-15_182925:180,-0.433655,-0.010162000000000001,-0.203369,-0.004152,0.013805000000000001,0.001228,-37.0,-22.18,-16.18,3a
2019-07-15_182925:200,-0.431122,-0.008636,-0.204376,-0.004427,0.011484999999999999,0.001716,-37.0,-22.18,-16.18,3a
2019-07-15_182925:220,-0.435699,-0.009644,-0.200317,-0.004793,0.008556,0.002388,-36.18,-23.25,-15.87,3a
2019-07-15_182925:240,-0.43621800000000005,-0.010651,-0.201843,-0.0051600000000000005,0.006084,0.00251,-36.18,-23.25,-15.87,3a
2019-07-15_182925:260,-0.43823199999999995,-0.011169,-0.19927999999999998,-0.005526,0.003703,0.00251,-37.0,-22.559998999999998,-16.18,3a
2019-07-15_182925:280,-0.444855,-0.012177,-0.197266,-0.0058,0.001964,0.003181,-37.0,-22.559998999999998,-16.18,3a
2019-07-15_182925:300,-0.452484,-0.014740000000000001,-0.197266,-0.005861,0.001353,0.003639,-37.0,-22.559998999999998,-16.18,3a
2019-07-15_182925:320,-0.457581,-0.014221000000000001,-0.197266,-0.005861,0.001628,0.003242,-37.68,-22.559998999999998,-15.5,3a
2019-07-15_182925:340,-0.45907600000000004,-0.015228,-0.20080599999999998,-0.005861,0.002757,0.0029059999999999997,-37.68,-22.559998999999998,-15.5,3a
2019-07-15_182925:360,-0.45401,-0.017273,-0.20285,-0.005739,0.003703,0.002845,-37.0,-21.75,-15.5,3a
2019-07-15_182925:380,-0.452484,-0.016753999999999998,-0.200317,-0.005404,0.004039,0.002571,-37.0,-21.75,-15.5,3a
2019-07-15_182925:400,-0.45095799999999997,-0.017273,-0.199799,-0.005068,0.003886,0.0022960000000000003,-37.0,-21.75,-15.5,3a
2019-07-15_182925:420,-0.453491,-0.016266,-0.199799,-0.004793,0.003307,0.001991,-38.060001,-21.75,-15.06,3a
2019-07-15_182925:440,-0.454529,-0.019318000000000002,-0.19775399999999999,-0.004336,0.003307,0.001777,-38.060001,-21.75,-15.06,3a
2019-07-15_182925:460,-0.45605500000000004,-0.01828,-0.198792,-0.004397,0.00352,0.001258,-37.68,-22.18,-14.68,3a
2019-07-15_182925:480,-0.449432,-0.020325,-0.196747,-0.00403,0.003764,0.000923,-37.68,-22.18,-14.68,3a
2019-07-15_182925:500,-0.44891400000000004,-0.018799,-0.198792,-0.003878,0.003368,0.000587,-37.68,-22.18,-14.68,3a
2019-07-15_182925:520,-0.448425,-0.01828,-0.19574,-0.0037560000000000002,0.0029100000000000003,7.000000000000001e-06,-38.060001,-21.75,-15.06,3a
2019-07-15_182925:540,-0.44995100000000005,-0.017792,-0.19622799999999999,-0.00339,0.0024519999999999998,-0.000389,-38.060001,-21.75,-15.06,3a
2019-07-15_182925:560,-0.45196499999999995,-0.016753999999999998,-0.196747,-0.0031149999999999997,0.002177,-0.000908,-37.68,-22.18,-14.25,3a
2019-07-15_182925:580,-0.455017,-0.014221000000000001,-0.19927999999999998,-0.002993,0.002055,-0.000908,-37.68,-22.18,-14.25,3a
2019-07-15_182925:600,-0.46060200000000007,-0.013213999999999998,-0.199799,-0.003054,0.0023,-0.000725,-37.68,-22.18,-14.25,3a
2019-07-15_182925:620,-0.460114,-0.012177,-0.200317,-0.0032979999999999997,0.002971,-0.0008470000000000001,-37.25,-22.18,-15.06,3a
2019-07-15_182925:640,-0.45806899999999995,-0.012695,-0.197266,-0.003573,0.0035810000000000004,-0.0009689999999999999,-37.25,-22.18,-15.06,3a
2019-07-15_182925:660,-0.45654300000000003,-0.015228,-0.197266,-0.003512,0.004619,-0.001,-37.25,-22.18,-14.18,3a
2019-07-15_182925:680,-0.454529,-0.016753999999999998,-0.194214,-0.0034509999999999996,0.005107,-0.0008470000000000001,-37.25,-22.18,-14.18,3a
2019-07-15_182925:700,-0.455017,-0.016753999999999998,-0.19622799999999999,-0.0031149999999999997,0.005046,-0.000725,-37.25,-22.18,-14.18,3a
2019-07-15_182925:720,-0.45401,-0.01828,-0.194702,-0.002535,0.005107,-0.0008470000000000001,-37.68,-22.18,-13.5,3a
2019-07-15_182925:740,-0.45196499999999995,-0.015747,-0.192169,-0.0020469999999999998,0.004894,-0.0011220000000000002,-37.68,-22.18,-13.5,3a
2019-07-15_182925:760,-0.452484,-0.016266,-0.193176,-0.001772,0.004314,-0.000267,-37.25,-22.559998999999998,-13.87,3a
2019-07-15_182925:780,-0.449432,-0.014740000000000001,-0.192169,-0.001772,0.003825,0.000709,-37.25,-22.559998999999998,-13.87,3a
2019-07-15_182925:800,-0.457581,-0.014740000000000001,-0.19622799999999999,-0.0017109999999999998,0.0034289999999999998,0.000465,-37.25,-22.559998999999998,-13.87,3a
2019-07-15_182925:820,-0.45654300000000003,-0.016266,-0.196747,-0.001864,0.00349,-0.001,-37.25,-22.18,-13.87,3a
2019-07-15_182925:840,-0.45605500000000004,-0.017273,-0.19622799999999999,-0.0020469999999999998,0.004039,-0.0012439999999999999,-37.25,-22.18,-13.87,3a
2019-07-15_182925:860,-0.45605500000000004,-0.017792,-0.19622799999999999,-0.0018030000000000001,0.0041,-0.000725,-38.18,-22.559998999999998,-13.5,3a
2019-07-15_182925:880,-0.45605500000000004,-0.017792,-0.194702,-0.0017109999999999998,0.0042829999999999995,-0.000786,-38.18,-22.559998999999998,-13.5,3a
2019-07-15_182925:900,-0.45706199999999997,-0.016266,-0.193176,-0.0015279999999999998,0.004375,-0.000725,-38.18,-22.559998999999998,-13.5,3a
2019-07-15_182925:920,-0.45654300000000003,-0.015747,-0.19574,-0.001314,0.004894,-0.000267,-38.18,-23.0,-13.87,3a
2019-07-15_182925:940,-0.455017,-0.016266,-0.194214,-0.001314,0.005168,-0.000176,-38.18,-23.0,-13.87,3a
2019-07-15_182925:960,-0.44995100000000005,-0.014740000000000001,-0.193695,-0.001253,0.005229,0.000709,-38.18,-22.559998999999998,-15.06,3a
2019-07-15_182925:980,-0.447388,-0.016266,-0.193176,-0.001375,0.0045579999999999996,0.00132,-38.18,-22.559998999999998,-15.06,3a
2019-07-15_182926:000,-0.444855,-0.014221000000000001,-0.191162,-0.0014060000000000001,0.003093,0.001625,-38.18,-22.559998999999998,-15.06,3a
2019-07-15_182926:020,-0.44638100000000003,-0.015747,-0.190643,-0.00165,0.001415,0.002235,-37.0,-22.18,-13.87,3a
2019-07-15_182926:040,-0.449432,-0.014740000000000001,-0.189636,-0.002199,-0.000172,0.002388,-37.0,-22.18,-13.87,3a
2019-07-15_182926:060,-0.45553599999999994,-0.015228,-0.192169,-0.0028399999999999996,-0.0007830000000000001,0.002754,-37.25,-21.75,-15.06,3a
2019-07-15_182926:080,-0.45401,-0.018799,-0.193176,-0.003512,-0.0007830000000000001,0.001991,-37.25,-21.75,-15.06,3a
2019-07-15_182926:100,-0.45605500000000004,-0.019806,-0.194702,-0.0036950000000000004,-0.000722,0.001564,-37.25,-21.75,-15.06,3a
2019-07-15_182926:120,-0.461639,-0.021851,-0.19622799999999999,-0.003878,-0.00044699999999999997,0.001625,-37.25,-22.559998999999998,-13.87,3a
2019-07-15_182926:140,-0.46417200000000003,-0.023375999999999997,-0.19622799999999999,-0.003878,0.0008039999999999999,0.001167,-37.25,-22.559998999999998,-13.87,3a
2019-07-15_182926:160,-0.459595,-0.022858,-0.198792,-0.003878,0.0019030000000000002,0.000648,-38.369999,-21.5,-13.87,3a
2019-07-15_182926:180,-0.457581,-0.020844,-0.198792,-0.003664,0.002757,0.000587,-38.369999,-21.5,-13.87,3a
2019-07-15_182926:200,-0.462646,-0.021332,-0.19775399999999999,-0.0036340000000000005,0.003703,6.8e-05,-38.369999,-21.5,-13.87,3a
2019-07-15_182926:220,-0.46316499999999994,-0.018799,-0.19574,-0.003878,0.004954999999999999,-0.001183,-37.0,-21.75,-15.5,3a
2019-07-15_182926:240,-0.45605500000000004,-0.018799,-0.193695,-0.004427,0.006084,-0.00216,-37.0,-21.75,-15.5,3a
2019-07-15_182926:260,-0.45095799999999997,-0.017792,-0.193695,-0.004824,0.006023,-0.003106,-37.68,-21.5,-15.5,3a
2019-07-15_182926:280,-0.451477,-0.016753999999999998,-0.190125,-0.004946,0.0052899999999999996,-0.0037770000000000004,-37.68,-21.5,-15.5,3a
2019-07-15_182926:300,-0.455017,-0.014221000000000001,-0.188599,-0.004824,0.004375,-0.0032890000000000003,-37.68,-21.5,-15.5,3a
2019-07-15_182926:320,-0.45806899999999995,-0.014221000000000001,-0.187073,-0.004671,0.003764,-0.0028309999999999997,-37.25,-21.75,-14.18,3a
2019-07-15_182926:340,-0.459595,-0.011169,-0.185547,-0.004275,0.00352,-0.0019149999999999998,-37.25,-21.75,-14.18,3a
2019-07-15_182926:360,-0.45907600000000004,-0.009125,-0.18454,-0.00403,0.003703,-0.0009689999999999999,-37.68,-23.0,-13.87,3a
2019-07-15_182926:380,-0.46417200000000003,-0.009644,-0.185059,-0.004152,0.003886,-0.000573,-37.68,-23.0,-13.87,3a
2019-07-15_182926:400,-0.46316499999999994,-0.010162000000000001,-0.186066,-0.004336,0.004497,-0.00023700000000000001,-37.68,-23.0,-13.87,3a
2019-07-15_182926:420,-0.460114,-0.011687999999999999,-0.185547,-0.004732,0.005016,-0.000176,-37.68,-22.18,-14.18,3a
2019-07-15_182926:440,-0.46670500000000004,-0.012695,-0.183533,-0.005068,0.005046,-0.000328,-37.68,-22.18,-14.18,3a
2019-07-15_182926:460,-0.470276,-0.014221000000000001,-0.18454,-0.004824,0.006418999999999999,-0.000786,-37.0,-22.559998999999998,-13.06,3a
2019-07-15_182926:480,-0.46875,-0.014221000000000001,-0.18454,-0.004824,0.007945,-0.0017929999999999999,-37.0,-22.559998999999998,-13.06,3a
2019-07-15_182926:500,-0.46469099999999997,-0.015747,-0.185059,-0.004488000000000001,0.009288,-0.002526,-37.0,-22.559998999999998,-13.06,3a
2019-07-15_182926:520,-0.46316499999999994,-0.015747,-0.180481,-0.004152,0.009746,-0.003228,-37.68,-22.18,-13.06,3a
2019-07-15_182926:540,-0.46670500000000004,-0.013702,-0.178955,-0.0034509999999999996,0.010326,-0.004052,-37.68,-22.18,-13.06,3a
2019-07-15_182926:560,-0.46926899999999994,-0.011169,-0.177429,-0.002779,0.011271999999999999,-0.004174000000000001,-37.75,-23.0,-13.5,3a
2019-07-15_182926:580,-0.46926899999999994,-0.009644,-0.17538499999999999,-0.0021079999999999996,0.012401,-0.004174000000000001,-37.75,-23.0,-13.5,3a
2019-07-15_182926:600,-0.46875,-0.007599,-0.172852,-0.0018030000000000001,0.013011000000000002,-0.004845,-37.75,-23.0,-13.5,3a
2019-07-15_182926:620,-0.465179,-0.004547,-0.167267,-0.001314,0.013744,-0.004692,-37.369999,-23.25,-13.5,3a
2019-07-15_182926:640,-0.45706199999999997,-0.0025329999999999997,-0.166229,-0.001375,0.013590999999999999,-0.003563,-37.369999,-23.25,-13.5,3a
2019-07-15_182926:660,-0.457581,-0.0035399999999999997,-0.164703,-0.001772,0.011668000000000001,-0.002648,-37.25,-22.559998999999998,-12.68,3a
2019-07-15_182926:680,-0.45553599999999994,0.0,-0.161652,-0.001986,0.010814,-0.0028309999999999997,-37.25,-22.559998999999998,-12.68,3a
2019-07-15_182926:700,-0.45654300000000003,0.000488,-0.160126,-0.002321,0.0088,-0.002983,-37.25,-22.559998999999998,-12.68,3a
2019-07-15_182926:720,-0.461121,0.0,-0.160126,-0.002443,0.007365000000000001,-0.001854,-37.25,-23.25,-11.87,3a
2019-07-15_182926:740,-0.46875,-0.000488,-0.160126,-0.002932,0.007488,-0.001519,-37.25,-23.25,-11.87,3a
2019-07-15_182926:760,-0.46875,-0.000488,-0.16217,-0.0032979999999999997,0.008281,-0.001702,-38.18,-23.0,-12.68,3a
2019-07-15_182926:780,-0.46875,-0.002014,-0.160645,-0.0031149999999999997,0.008617,-0.001366,-38.18,-23.0,-12.68,3a
2019-07-15_182926:800,-0.46823100000000006,-0.001007,-0.1586,-0.0031149999999999997,0.008495,-0.0008470000000000001,-38.18,-23.0,-12.68,3a
2019-07-15_182926:820,-0.470276,-0.001007,-0.158112,-0.002993,0.008556,-0.00023700000000000001,-38.060001,-22.559998999999998,-12.25,3a
2019-07-15_182926:840,-0.47079499999999996,-0.0025329999999999997,-0.15506,-0.0029010000000000004,0.008495,-0.000328,-38.060001,-22.559998999999998,-12.25,3a
2019-07-15_182926:860,-0.47280900000000003,-0.0030210000000000002,-0.154541,-0.002993,0.009134999999999999,-0.000634,-37.68,-23.25,-12.25,3a
2019-07-15_182926:880,-0.475861,-0.0030210000000000002,-0.152527,-0.0029010000000000004,0.00941,-0.000512,-37.68,-23.25,-12.25,3a
2019-07-15_182926:900,-0.47689799999999993,-0.0025329999999999997,-0.151001,-0.002657,0.010539,0.00016,-37.68,-23.25,-12.25,3a
2019-07-15_182926:920,-0.47689799999999993,-0.004059,-0.149475,-0.002718,0.011607,0.00016,-37.68,-23.25,-11.5,3a
2019-07-15_182926:940,-0.470276,-0.0025329999999999997,-0.14843800000000001,-0.0028399999999999996,0.012004,-0.000176,-37.68,-23.25,-11.5,3a
2019-07-15_182926:960,-0.46823100000000006,-0.0030210000000000002,-0.146912,-0.002779,0.011394,-0.000176,-38.369999,-23.68,-11.06,3a
2019-07-15_182926:980,-0.470276,-0.0025329999999999997,-0.142334,-0.002932,0.010753,7.000000000000001e-06,-38.369999,-23.68,-11.06,3a
2019-07-15_182927:000,-0.471283,-0.0030210000000000002,-0.141846,-0.002993,0.010326,0.000221,-38.369999,-23.68,-11.06,3a
2019-07-15_182927:020,-0.46926899999999994,-0.0030210000000000002,-0.138794,-0.0028399999999999996,0.009868,0.000129,-38.060001,-23.0,-11.87,3a
2019-07-15_182927:040,-0.466217,-0.0025329999999999997,-0.135742,-0.002718,0.009134999999999999,0.000465,-38.060001,-23.0,-11.87,3a
2019-07-15_182927:060,-0.46823100000000006,-0.004059,-0.134216,-0.002657,0.007488,0.000404,-38.060001,-23.68,-9.87,3a
2019-07-15_182927:080,-0.46875,-0.0035399999999999997,-0.134705,-0.0025050000000000003,0.006145,0.000343,-38.060001,-23.68,-9.87,3a
2019-07-15_182927:100,-0.47280900000000003,-0.002014,-0.133698,-0.002382,0.005351,0.000648,-38.060001,-23.68,-9.87,3a
2019-07-15_182927:120,-0.47332799999999997,-0.0035399999999999997,-0.133179,-0.0025050000000000003,0.004954999999999999,0.000587,-38.060001,-23.25,-10.25,3a
2019-07-15_182927:140,-0.475861,-0.002014,-0.13269,-0.002657,0.004833,0.000404,-38.060001,-23.25,-10.25,3a
2019-07-15_182927:160,-0.47433500000000006,-0.001495,-0.132172,-0.002779,0.004894,0.000404,-38.75,-23.25,-9.87,3a
2019-07-15_182927:180,-0.47433500000000006,-0.0030210000000000002,-0.13269,-0.003054,0.004894,0.000404,-38.75,-23.25,-9.87,3a
2019-07-15_182927:200,-0.47280900000000003,-0.001007,-0.13269,-0.003176,0.004375,0.000831,-38.75,-23.25,-9.87,3a
2019-07-15_182927:220,-0.471283,-0.002014,-0.13269,-0.00339,0.003917,0.001228,-38.369999,-23.0,-9.87,3a
2019-07-15_182927:240,-0.473846,-0.001495,-0.131653,-0.003512,0.0035810000000000004,0.001228,-38.369999,-23.0,-9.87,3a
2019-07-15_182927:260,-0.474854,-0.002014,-0.131165,-0.0036340000000000005,0.00349,0.001381,-38.369999,-24.059998999999998,-9.87,3a
2019-07-15_182927:280,-0.475372,-0.0025329999999999997,-0.128601,-0.003878,0.00349,0.001442,-38.369999,-24.059998999999998,-9.87,3a
2019-07-15_182927:300,-0.473846,-0.0025329999999999997,-0.130646,-0.004091,0.0031850000000000003,0.001381,-38.369999,-24.059998999999998,-9.87,3a
2019-07-15_182927:320,-0.473846,-0.002014,-0.130127,-0.004336,0.002757,0.001258,-38.18,-23.0,-9.87,3a
2019-07-15_182927:340,-0.47332799999999997,-0.0030210000000000002,-0.129639,-0.004336,0.002239,0.001564,-38.18,-23.0,-9.87,3a
2019-07-15_182927:360,-0.473846,-0.0035399999999999997,-0.12912,-0.004549,0.001994,0.001655,-38.869999,-23.25,-9.06,3a
2019-07-15_182927:380,-0.474854,-0.0025329999999999997,-0.128113,-0.004824,0.001842,0.001716,-38.869999,-23.25,-9.06,3a
2019-07-15_182927:400,-0.473846,-0.0025329999999999997,-0.129639,-0.0051600000000000005,0.00172,0.001655,-38.869999,-23.25,-9.06,3a
2019-07-15_182927:420,-0.47332799999999997,-0.001495,-0.131165,-0.0058,0.0014759999999999999,0.00132,-39.18,-23.0,-9.87,3a
2019-07-15_182927:440,-0.47280900000000003,-0.0035399999999999997,-0.132172,-0.005953,0.0008039999999999999,0.00132,-39.18,-23.0,-9.87,3a
2019-07-15_182927:460,-0.47332799999999997,-0.005065999999999999,-0.131653,-0.005922,0.000499,0.001045,-38.5,-23.0,-10.25,3a
2019-07-15_182927:480,-0.475861,-0.006072999999999999,-0.130127,-0.005953,7.2e-05,0.000526,-38.5,-23.0,-10.25,3a
2019-07-15_182927:500,-0.476379,-0.0055850000000000006,-0.130646,-0.005739,-5e-05,0.000343,-38.5,-23.0,-10.25,3a
2019-07-15_182927:520,-0.478912,-0.007599,-0.131653,-0.005282,0.00022400000000000002,-0.000328,-38.869999,-22.559998999999998,-9.87,3a
2019-07-15_182927:540,-0.478912,-0.006072999999999999,-0.130646,-0.004946,0.00056,-0.0008470000000000001,-38.869999,-22.559998999999998,-9.87,3a
2019-07-15_182927:560,-0.48095699999999997,-0.006592,-0.13269,-0.004488000000000001,0.001018,-5.4000000000000005e-05,-38.869999,-22.18,-10.25,3a
2019-07-15_182927:580,-0.477905,-0.0055850000000000006,-0.132172,-0.004275,0.001415,-0.000573,-38.869999,-22.18,-10.25,3a
2019-07-15_182927:600,-0.477386,-0.006072999999999999,-0.134705,-0.0037560000000000002,0.0016589999999999999,-0.0019760000000000003,-38.869999,-22.18,-10.25,3a
2019-07-15_182927:620,-0.475861,-0.004059,-0.13269,-0.00339,0.0014759999999999999,-0.003045,-38.5,-21.75,-10.25,3a
2019-07-15_182927:640,-0.475372,-0.004059,-0.13269,-0.002993,0.001598,-0.002709,-38.5,-21.75,-10.25,3a
2019-07-15_182927:660,-0.476379,-0.0035399999999999997,-0.13269,-0.002657,0.00172,-0.002526,-38.18,-23.25,-10.25,3a
2019-07-15_182927:680,-0.476379,-0.001495,-0.131653,-0.002321,0.001964,-0.002495,-38.18,-23.25,-10.25,3a
2019-07-15_182927:700,-0.476379,0.0,-0.13269,-0.001986,0.002361,-0.002251,-38.18,-23.25,-10.25,3a
2019-07-15_182927:720,-0.475372,0.001495,-0.133179,-0.002169,0.002361,-0.001854,-38.369999,-23.68,-10.25,3a
2019-07-15_182927:740,-0.47332799999999997,0.0025329999999999997,-0.131653,-0.002169,0.002177,-0.0013050000000000002,-38.369999,-23.68,-10.25,3a
2019-07-15_182927:760,-0.47433500000000006,0.0030210000000000002,-0.132172,-0.002718,0.001964,-0.000512,-38.18,-22.559998999999998,-10.68,3a
2019-07-15_182927:780,-0.472321,0.001495,-0.130646,-0.002993,0.001537,-0.000328,-38.18,-22.559998999999998,-10.68,3a
2019-07-15_182927:800,-0.47180200000000005,0.001495,-0.130646,-0.0031149999999999997,0.001201,-0.000176,-38.18,-22.559998999999998,-10.68,3a
2019-07-15_182927:820,-0.47332799999999997,0.001007,-0.133179,-0.0034509999999999996,0.000743,0.000404,-38.060001,-23.25,-10.25,3a
2019-07-15_182927:840,-0.47079499999999996,0.001495,-0.133698,-0.0036340000000000005,0.000133,0.001503,-38.060001,-23.25,-10.25,3a
2019-07-15_182927:860,-0.471283,0.0,-0.134705,-0.0037560000000000002,-0.000386,0.002113,-38.5,-23.0,-10.25,3a
2019-07-15_182927:880,-0.469757,-0.001495,-0.136749,-0.003878,-0.0009050000000000001,0.001564,-38.5,-23.0,-10.25,3a
2019-07-15_182927:900,-0.477386,-0.002014,-0.144379,-0.0036950000000000004,-0.001302,0.001503,-38.5,-23.0,-10.25,3a
2019-07-15_182927:920,-0.477905,-0.0035399999999999997,-0.139282,-0.0034509999999999996,-0.00063,0.0018989999999999999,-38.369999,-22.559998999999998,-9.87,3a
2019-07-15_182927:940,-0.477386,-0.004547,-0.139801,-0.002993,-0.000722,0.001503,-38.369999,-22.559998999999998,-9.87,3a
2019-07-15_182927:960,-0.477386,-0.005065999999999999,-0.139801,-0.0025960000000000002,-0.00063,0.001381,-38.369999,-23.0,-9.5,3a
2019-07-15_182927:980,-0.476379,-0.0035399999999999997,-0.136749,-0.001986,-0.00063,0.001167,-38.369999,-23.0,-9.5,3a
2019-07-15_182928:000,-0.476379,-0.0035399999999999997,-0.137268,-0.001864,-0.000264,0.0008619999999999999,-38.369999,-23.0,-9.5,3a
2019-07-15_182928:020,-0.478912,-0.0035399999999999997,-0.14032,-0.00165,0.000346,0.000648,-38.060001,-23.68,-10.25,3a
2019-07-15_182928:040,-0.47689799999999993,-0.001495,-0.138275,-0.0018030000000000001,0.000865,0.000587,-38.060001,-23.68,-10.25,3a
2019-07-15_182928:060,-0.47332799999999997,-0.001495,-0.137756,-0.001986,0.0008960000000000001,0.000526,-38.060001,-23.25,-9.5,3a
2019-07-15_182928:080,-0.47280900000000003,-0.001007,-0.138794,-0.002199,0.0008039999999999999,0.000465,-38.060001,-23.25,-9.5,3a
2019-07-15_182928:100,-0.47180200000000005,-0.000488,-0.139282,-0.002443,0.000468,0.000496,-38.060001,-23.25,-9.5,3a
2019-07-15_182928:120,-0.47332799999999997,0.0,-0.138275,-0.002443,0.000468,0.000496,-38.369999,-23.0,-10.68,3a
2019-07-15_182928:140,-0.475861,-0.001007,-0.137756,-0.0028399999999999996,0.000407,0.0007700000000000001,-38.369999,-23.0,-10.68,3a
2019-07-15_182928:160,-0.475372,-0.001495,-0.138794,-0.0032979999999999997,0.000682,0.000709,-38.060001,-23.25,-10.68,3a
2019-07-15_182928:180,-0.474854,-0.002014,-0.137756,-0.00339,0.000865,0.000709,-38.060001,-23.25,-10.68,3a
2019-07-15_182928:200,-0.47433500000000006,-0.002014,-0.13623,-0.0033280000000000002,0.000621,0.000709,-38.060001,-23.25,-10.68,3a
2019-07-15_182928:220,-0.47332799999999997,-0.0030210000000000002,-0.137268,-0.0034509999999999996,0.000346,0.0008619999999999999,-38.369999,-23.25,-12.25,3a
2019-07-15_182928:240,-0.47280900000000003,-0.0025329999999999997,-0.135223,-0.003237,0.000346,0.000709,-38.369999,-23.25,-12.25,3a
2019-07-15_182928:260,-0.47280900000000003,-0.004547,-0.138275,-0.00339,0.000285,0.000648,-38.5,-23.68,-9.87,3a
2019-07-15_182928:280,-0.47180200000000005,-0.004547,-0.139282,-0.003176,-0.00011100000000000001,-0.000176,-38.5,-23.68,-9.87,3a
2019-07-15_182928:300,-0.47332799999999997,-0.0035399999999999997,-0.139282,-0.003176,-0.00044699999999999997,-0.000573,-38.5,-23.68,-9.87,3a
2019-07-15_182928:320,-0.47433500000000006,-0.0035399999999999997,-0.139801,-0.003054,-0.00044699999999999997,-0.000725,-38.060001,-23.25,-11.06,3a
2019-07-15_182928:340,-0.475861,-0.001007,-0.139282,-0.0029010000000000004,-5e-05,-0.001,-38.060001,-23.25,-11.06,3a
2019-07-15_182928:360,-0.47433500000000006,-0.0025329999999999997,-0.139801,-0.003054,7.2e-05,-0.0011220000000000002,-37.68,-23.25,-11.5,3a
2019-07-15_182928:380,-0.473846,-0.001007,-0.141327,-0.002993,0.000133,-0.001183,-37.68,-23.25,-11.5,3a
2019-07-15_182928:400,-0.474854,0.0,-0.141327,-0.0031149999999999997,0.000468,-0.0012439999999999999,-37.68,-23.25,-11.5,3a
2019-07-15_182928:420,-0.474854,0.000488,-0.143372,-0.003237,0.00056,-0.0011220000000000002,-38.18,-22.559998999999998,-11.5,3a
2019-07-15_182928:440,-0.472321,0.0025329999999999997,-0.142853,-0.00339,0.000621,-0.000786,-38.18,-22.559998999999998,-11.5,3a
2019-07-15_182928:460,-0.47079499999999996,0.0025329999999999997,-0.142853,-0.0037560000000000002,0.000621,-0.00045099999999999996,-38.869999,-23.68,-11.06,3a
2019-07-15_182928:480,-0.471283,0.0030210000000000002,-0.14386,-0.004275,0.000499,-0.000725,-38.869999,-23.68,-11.06,3a
2019-07-15_182928:500,-0.474854,0.004059,-0.141846,-0.004793,0.000407,-0.000573,-38.869999,-23.68,-11.06,3a
2019-07-15_182928:520,-0.477905,0.004547,-0.141327,-0.0048850000000000005,0.000621,6.8e-05,-37.369999,-23.0,-11.5,3a
2019-07-15_182928:540,-0.47079499999999996,0.0025329999999999997,-0.141327,-0.005953,0.000468,0.001167,-37.369999,-23.0,-11.5,3a
2019-07-15_182928:560,-0.47433500000000006,0.001495,-0.141846,-0.006014,0.000346,0.000923,-38.5,-23.25,-11.5,3a
2019-07-15_182928:580,-0.473846,0.000488,-0.142853,-0.006319,0.00016299999999999998,-0.000908,-38.5,-23.25,-11.5,3a
2019-07-15_182928:600,-0.47180200000000005,0.0,-0.142334,-0.006197,0.00022400000000000002,-0.000512,-38.5,-23.25,-11.5,3a
2019-07-15_182928:620,-0.47332799999999997,-0.001007,-0.142334,-0.006075,-0.000172,-5.4000000000000005e-05,-37.75,-23.25,-11.5,3a
2019-07-15_182928:640,-0.473846,-0.000488,-0.141846,-0.005526,0.000285,0.000587,-37.75,-23.25,-11.5,3a
2019-07-15_182928:660,-0.473846,0.0,-0.142334,-0.005129,0.000407,0.000831,-38.869999,-23.68,-9.5,3a
2019-07-15_182928:680,-0.472321,0.0025329999999999997,-0.143372,-0.005282,0.00022400000000000002,0.001503,-38.869999,-23.68,-9.5,3a
2019-07-15_182928:700,-0.470276,0.0025329999999999997,-0.142334,-0.005465,-0.000233,0.002052,-38.869999,-23.68,-9.5,3a
2019-07-15_182928:720,-0.470276,0.0035399999999999997,-0.14386,-0.005861,-0.000508,0.002235,-38.75,-24.75,-12.25,3a
2019-07-15_182928:740,-0.470276,0.0,-0.145905,-0.006319,-0.0008439999999999999,0.0021739999999999997,-38.75,-24.75,-12.25,3a
2019-07-15_182928:760,-0.472321,-0.000488,-0.146912,-0.006197,-0.0009660000000000001,0.00196,-38.75,-24.75,-12.25,3a
2019-07-15_182928:780,-0.47280900000000003,-0.0030210000000000002,-0.147949,-0.005922,-0.001057,0.001655,-37.369999,-22.559998999999998,-10.68,3a
2019-07-15_182928:800,-0.473846,-0.004547,-0.148956,-0.005129,-0.00063,0.0018989999999999999,-37.369999,-22.559998999999998,-10.68,3a
2019-07-15_182928:820,-0.476379,-0.004547,-0.149475,-0.00461,-0.000386,0.001991,-37.75,-23.68,-11.06,3a
2019-07-15_182928:840,-0.475372,-0.005065999999999999,-0.149475,-0.00339,0.000285,0.001503,-37.75,-23.68,-11.06,3a
2019-07-15_182928:860,-0.475861,-0.0025329999999999997,-0.151001,-0.002535,0.001292,0.00132,-38.5,-23.25,-11.87,3a
2019-07-15_182928:880,-0.477905,-0.001007,-0.149475,-0.0020469999999999998,0.001994,0.001381,-38.5,-23.25,-11.87,3a
2019-07-15_182928:900,-0.474854,0.0,-0.147949,-0.0020469999999999998,0.002757,0.001381,-38.5,-23.25,-11.87,3a
2019-07-15_182928:920,-0.473846,0.001495,-0.146423,-0.0022600000000000003,0.003032,0.001258,-37.75,-23.25,-11.5,3a
2019-07-15_182928:940,-0.471283,0.0025329999999999997,-0.144379,-0.0028399999999999996,0.003368,0.001045,-37.75,-23.25,-11.5,3a
2019-07-15_182928:960,-0.46926899999999994,0.0025329999999999997,-0.143372,-0.0032979999999999997,0.0031850000000000003,0.001045,-37.75,-23.25,-11.5,3a
2019-07-15_182928:980,-0.47079499999999996,0.000488,-0.144897,-0.004091,0.002849,0.000709,-38.869999,-23.25,-10.25,3a
2019-07-15_182929:000,-0.47079499999999996,0.000488,-0.143372,-0.004397,0.002574,0.000496,-38.869999,-23.25,-10.25,3a
2019-07-15_182929:020,-0.47079499999999996,-0.001007,-0.144897,-0.004488000000000001,0.0023,0.0007700000000000001,-37.68,-23.25,-9.87,3a
2019-07-15_182929:040,-0.46926899999999994,-0.002014,-0.14386,-0.004336,0.001964,0.000984,-37.68,-23.25,-9.87,3a
2019-07-15_182929:060,-0.472321,-0.002014,-0.144897,-0.004336,0.001964,0.001167,-37.68,-24.059998999999998,-10.25,3a
2019-07-15_182929:080,-0.475861,-0.002014,-0.144897,-0.004091,0.002239,0.001381,-37.68,-24.059998999999998,-10.25,3a
2019-07-15_182929:100,-0.47689799999999993,-0.001495,-0.146423,-0.003939,0.002513,0.001777,-37.68,-24.059998999999998,-10.25,3a
2019-07-15_182929:120,-0.47689799999999993,-0.001007,-0.146423,-0.00403,0.003093,0.0018989999999999999,-38.060001,-23.25,-11.5,3a
2019-07-15_182929:140,-0.477905,-0.0025329999999999997,-0.144379,-0.004213000000000001,0.003703,0.001838,-38.060001,-23.25,-11.5,3a
2019-07-15_182929:160,-0.476379,-0.0025329999999999997,-0.142853,-0.004397,0.003886,0.001777,-38.060001,-23.25,-11.5,3a
2019-07-15_182929:180,-0.47332799999999997,-0.0035399999999999997,-0.142334,-0.004793,0.0042829999999999995,0.00196,-38.75,-23.25,-11.5,3a
2019-07-15_182929:200,-0.469757,-0.004547,-0.141327,-0.004732,0.004314,0.001777,-38.75,-23.25,-11.5,3a
2019-07-15_182929:220,-0.47079499999999996,-0.0035399999999999997,-0.141327,-0.004793,0.004039,0.001838,-38.060001,-23.0,-10.68,3a
2019-07-15_182929:240,-0.471283,-0.004059,-0.139282,-0.004793,0.0036420000000000003,0.002052,-38.060001,-23.0,-10.68,3a
2019-07-15_182929:260,-0.47332799999999997,-0.004547,-0.14032,-0.004793,0.003124,0.002052,-38.060001,-23.0,-10.68,3a
2019-07-15_182929:280,-0.47280900000000003,-0.005065999999999999,-0.139801,-0.004732,0.002788,0.002113,-38.060001,-23.25,-11.06,3a
2019-07-15_182929:300,-0.47280900000000003,-0.004547,-0.140808,-0.004946,0.002788,0.0022960000000000003,-38.060001,-23.25,-11.06,3a
2019-07-15_182929:320,-0.474854,-0.004547,-0.142853,-0.004946,0.002513,0.0022960000000000003,-37.68,-23.0,-11.06,3a
2019-07-15_182929:340,-0.475372,-0.0055850000000000006,-0.14032,-0.005282,0.002757,0.002449,-37.68,-23.0,-11.06,3a
2019-07-15_182929:360,-0.473846,-0.006072999999999999,-0.14032,-0.005343,0.0029100000000000003,0.002388,-37.68,-23.0,-11.06,3a
2019-07-15_182929:380,-0.47280900000000003,-0.008118,-0.141846,-0.005221,0.002849,0.0018989999999999999,-38.18,-23.68,-10.25,3a
2019-07-15_182929:400,-0.47332799999999997,-0.008636,-0.140808,-0.004824,0.0029100000000000003,0.00132,-38.18,-23.68,-10.25,3a
2019-07-15_182929:420,-0.474854,-0.009125,-0.14032,-0.004427,0.002971,0.001258,-38.369999,-22.559998999999998,-10.68,3a
2019-07-15_182929:440,-0.47280900000000003,-0.007599,-0.138794,-0.004152,0.002574,0.0007700000000000001,-38.369999,-22.559998999999998,-10.68,3a
2019-07-15_182929:460,-0.475372,-0.007599,-0.139801,-0.003512,0.002696,0.000496,-38.869999,-23.25,-9.87,3a
2019-07-15_182929:480,-0.474854,-0.004547,-0.13623,-0.0029010000000000004,0.002513,0.000709,-38.869999,-23.25,-9.87,3a
2019-07-15_182929:500,-0.475861,-0.006072999999999999,-0.138275,-0.002932,0.002635,0.001381,-38.869999,-23.25,-9.87,3a
2019-07-15_182929:520,-0.47180200000000005,-0.004059,-0.138275,-0.00339,0.002635,0.001625,-38.5,-23.68,-10.25,3a
2019-07-15_182929:540,-0.47280900000000003,-0.006072999999999999,-0.136749,-0.003878,0.002239,0.001228,-38.5,-23.68,-10.25,3a
2019-07-15_182929:560,-0.47180200000000005,-0.0055850000000000006,-0.138275,-0.00403,0.0019030000000000002,0.00016,-38.18,-22.559998999999998,-11.5,3a
2019-07-15_182929:580,-0.47180200000000005,-0.0055850000000000006,-0.138275,-0.00403,0.0014759999999999999,-0.000176,-38.18,-22.559998999999998,-11.5,3a
2019-07-15_182929:600,-0.47332799999999997,-0.006592,-0.139282,-0.003939,0.001415,0.000465,-38.18,-22.559998999999998,-11.5,3a
2019-07-15_182929:620,-0.473846,-0.006592,-0.139282,-0.0037560000000000002,0.001201,0.000831,-38.5,-22.559998999999998,-10.68,3a
2019-07-15_182929:640,-0.47332799999999997,-0.006592,-0.139801,-0.003664,0.001292,0.0007700000000000001,-38.5,-22.559998999999998,-10.68,3a
2019-07-15_182929:660,-0.473846,-0.006072999999999999,-0.14032,-0.0036340000000000005,0.001353,0.000831,-38.5,-23.25,-10.25,3a
2019-07-15_182929:680,-0.47280900000000003,-0.005065999999999999,-0.140808,-0.0036950000000000004,0.001415,0.000648,-38.5,-23.25,-10.25,3a
2019-07-15_182929:700,-0.472321,-0.005065999999999999,-0.139801,-0.0037560000000000002,0.001353,0.000709,-38.5,-23.25,-10.25,3a
2019-07-15_182929:720,-0.47280900000000003,-0.006592,-0.141846,-0.00403,0.001201,0.000984,-38.5,-23.0,-10.68,3a
2019-07-15_182929:740,-0.47280900000000003,-0.007599,-0.139282,-0.003939,0.0009570000000000001,0.000923,-38.5,-23.0,-10.68,3a
2019-07-15_182929:760,-0.47332799999999997,-0.007111,-0.141327,-0.00403,0.0009570000000000001,0.000648,-38.5,-23.0,-10.68,3a
2019-07-15_182929:780,-0.47180200000000005,-0.006072999999999999,-0.138275,-0.00403,0.00114,0.001167,-38.060001,-22.559998999999998,-9.5,3a
2019-07-15_182929:800,-0.47332799999999997,-0.006072999999999999,-0.14032,-0.00403,0.000865,0.000923,-38.060001,-22.559998999999998,-9.5,3a
2019-07-15_182929:820,-0.47433500000000006,-0.006592,-0.141327,-0.004,0.0012619999999999999,-0.000328,-37.75,-23.0,-9.87,3a
2019-07-15_182929:840,-0.475372,-0.007599,-0.139801,-0.0036950000000000004,0.001292,-0.00011499999999999999,-37.75,-23.0,-9.87,3a
2019-07-15_182929:860,-0.47280900000000003,-0.006592,-0.142853,-0.003573,0.0014759999999999999,-0.00045099999999999996,-38.5,-23.0,-11.06,3a
2019-07-15_182929:880,-0.47180200000000005,-0.006072999999999999,-0.143372,-0.0028399999999999996,0.001201,-0.00023700000000000001,-38.5,-23.0,-11.06,3a
2019-07-15_182929:900,-0.47180200000000005,-0.004059,-0.142853,-0.002535,0.000621,-0.000267,-38.5,-23.0,-11.06,3a
2019-07-15_182929:920,-0.475372,-0.0025329999999999997,-0.143372,-0.002199,0.000621,6.8e-05,-38.5,-23.0,-11.06,3a
2019-07-15_182929:940,-0.476379,-0.001007,-0.142334,-0.0025050000000000003,0.00114,0.00028199999999999997,-38.5,-23.0,-11.06,3a
2019-07-15_182929:960,-0.476379,-0.0025329999999999997,-0.142334,-0.0029010000000000004,0.0016589999999999999,0.000221,-38.5,-23.0,-11.06,3a
2019-07-15_182929:980,-0.473846,-0.000488,-0.142853,-0.0033280000000000002,0.001964,0.000465,-38.369999,-23.0,-10.68,3a
2019-07-15_182930:000,-0.47280900000000003,-0.002014,-0.14032,-0.0037560000000000002,0.002177,0.000526,-38.369999,-23.0,-10.68,3a
2019-07-15_182930:020,-0.473846,-0.0035399999999999997,-0.142334,-0.004152,0.002116,0.000526,-38.369999,-22.559998999999998,-11.06,3a
2019-07-15_182930:040,-0.47332799999999997,-0.006072999999999999,-0.138794,-0.004152,0.001842,0.000648,-38.369999,-22.559998999999998,-11.06,3a
2019-07-15_182930:060,-0.47180200000000005,-0.006072999999999999,-0.14032,-0.004213000000000001,0.0016589999999999999,0.000923,-38.369999,-22.559998999999998,-11.06,3a
2019-07-15_182930:080,-0.47332799999999997,-0.006072999999999999,-0.139282,-0.004091,0.0016589999999999999,0.001258,-38.75,-23.0,-11.87,3a
2019-07-15_182930:100,-0.47280900000000003,-0.006592,-0.139282,-0.003939,0.0014759999999999999,0.001228,-38.75,-23.0,-11.87,3a
2019-07-15_182930:120,-0.47332799999999997,-0.006072999999999999,-0.14032,-0.003878,0.001415,0.00132,-38.75,-22.559998999999998,-11.5,3a
2019-07-15_182930:140,-0.47280900000000003,-0.006592,-0.139801,-0.004,0.001018,0.001228,-38.75,-22.559998999999998,-11.5,3a
2019-07-15_182930:160,-0.473846,-0.007111,-0.141327,-0.004,0.001201,0.000923,-38.75,-22.559998999999998,-11.5,3a
2019-07-15_182930:180,-0.47433500000000006,-0.006592,-0.14032,-0.004,0.0012619999999999999,0.0007700000000000001,-38.369999,-22.559998999999998,-10.68,3a
2019-07-15_182930:200,-0.47433500000000006,-0.007111,-0.140808,-0.003878,0.001537,0.000587,-38.369999,-22.559998999999998,-10.68,3a
2019-07-15_182930:220,-0.47433500000000006,-0.008118,-0.139801,-0.003817,0.001292,0.000587,-38.369999,-23.0,-10.25,3a
2019-07-15_182930:240,-0.477386,-0.007111,-0.141327,-0.003817,0.0016589999999999999,0.0008619999999999999,-38.369999,-23.0,-10.25,3a
2019-07-15_182930:260,-0.477386,-0.006592,-0.140808,-0.003878,0.002177,0.000984,-38.369999,-23.0,-10.25,3a
2019-07-15_182930:280,-0.476379,-0.006072999999999999,-0.139801,-0.0036950000000000004,0.002391,0.000923,-38.060001,-23.68,-11.06,3a
2019-07-15_182930:300,-0.47433500000000006,-0.008118,-0.138794,-0.003939,0.002635,0.001045,-38.060001,-23.68,-11.06,3a
2019-07-15_182930:320,-0.471283,-0.007599,-0.138275,-0.004152,0.002391,0.001045,-38.369999,-23.0,-11.87,3a
2019-07-15_182930:340,-0.471283,-0.007111,-0.13623,-0.004275,0.002361,0.000923,-38.369999,-23.0,-11.87,3a
2019-07-15_182930:360,-0.47280900000000003,-0.007599,-0.138794,-0.004549,0.001964,0.000709,-38.369999,-23.0,-11.87,3a
2019-07-15_182930:380,-0.47332799999999997,-0.008636,-0.138794,-0.004397,0.0014759999999999999,0.000404,-37.25,-23.0,-11.5,3a
2019-07-15_182930:400,-0.47280900000000003,-0.008636,-0.137756,-0.004275,0.001537,-0.00011499999999999999,-37.25,-23.0,-11.5,3a
2019-07-15_182930:420,-0.475861,-0.008118,-0.138794,-0.004,0.001292,-0.000389,-39.060001,-23.0,-9.87,3a
2019-07-15_182930:440,-0.476379,-0.008118,-0.138275,-0.003573,0.001415,-0.000725,-39.060001,-23.0,-9.87,3a
2019-07-15_182930:460,-0.475861,-0.006072999999999999,-0.13623,-0.003237,0.001842,-0.000176,-39.060001,-23.0,-9.87,3a
2019-07-15_182930:480,-0.477386,-0.006072999999999999,-0.137756,-0.0033280000000000002,0.001964,0.0007700000000000001,-38.369999,-23.25,-11.06,3a
2019-07-15_182930:500,-0.469757,-0.0035399999999999997,-0.138794,-0.0034509999999999996,0.001994,0.000465,-38.369999,-23.25,-11.06,3a
2019-07-15_182930:520,-0.47079499999999996,-0.004547,-0.139801,-0.0037560000000000002,0.001537,-0.00011499999999999999,-37.68,-23.0,-12.25,3a
2019-07-15_182930:540,-0.471283,-0.002014,-0.139282,-0.004549,0.0008960000000000001,-0.0008470000000000001,-37.68,-23.0,-12.25,3a
2019-07-15_182930:560,-0.471283,-0.005065999999999999,-0.139282,-0.004397,0.000468,-0.000176,-37.68,-23.0,-12.25,3a
2019-07-15_182930:580,-0.472321,-0.006072999999999999,-0.139801,-0.004488000000000001,0.000499,-5.4000000000000005e-05,-38.75,-23.0,-11.06,3a
2019-07-15_182930:600,-0.472321,-0.006592,-0.141327,-0.004213000000000001,0.000865,0.00016,-38.75,-23.0,-11.06,3a
2019-07-15_182930:620,-0.472321,-0.006592,-0.142334,-0.004,0.000865,0.00016,-38.75,-22.559998999999998,-10.68,3a
2019-07-15_182930:640,-0.472321,-0.007111,-0.142334,-0.003878,0.000499,-0.000176,-38.75,-22.559998999999998,-10.68,3a
2019-07-15_182930:660,-0.47079499999999996,-0.007111,-0.144379,-0.003512,0.00022400000000000002,-0.00023700000000000001,-38.75,-22.559998999999998,-10.68,3a
2019-07-15_182930:680,-0.472321,-0.007599,-0.14386,-0.0033280000000000002,1.1e-05,-0.000389,-38.0,-23.0,-11.5,3a
2019-07-15_182930:700,-0.47180200000000005,-0.007599,-0.144897,-0.002779,0.00022400000000000002,-0.000725,-38.0,-23.0,-11.5,3a
2019-07-15_182930:720,-0.47180200000000005,-0.007111,-0.143372,-0.002657,0.000133,-0.001,-38.75,-23.0,-10.25,3a
2019-07-15_182930:740,-0.472321,-0.006072999999999999,-0.146423,-0.002321,0.00016299999999999998,-0.0010609999999999999,-38.75,-23.0,-10.25,3a
2019-07-15_182930:760,-0.47332799999999997,-0.0030210000000000002,-0.146423,-0.002321,0.000346,0.000129,-38.75,-23.0,-10.25,3a
2019-07-15_182930:780,-0.474854,-0.0030210000000000002,-0.144897,-0.0025050000000000003,0.00056,0.00028199999999999997,-38.369999,-24.059998999999998,-10.25,3a
2019-07-15_182930:800,-0.475372,-0.001495,-0.146912,-0.0033280000000000002,0.0008039999999999999,-0.000664,-38.369999,-24.059998999999998,-10.25,3a
2019-07-15_182930:820,-0.477386,-0.002014,-0.14743,-0.00403,0.001292,-0.00011499999999999999,-38.75,-23.0,-10.68,3a
2019-07-15_182930:840,-0.474854,-0.0035399999999999997,-0.145905,-0.004793,0.001598,0.00028199999999999997,-38.75,-23.0,-10.68,3a
2019-07-15_182930:860,-0.473846,-0.0035399999999999997,-0.144379,-0.005007,0.002116,6.8e-05,-38.75,-23.0,-10.68,3a
2019-07-15_182930:880,-0.47332799999999997,-0.0055850000000000006,-0.145905,-0.005129,0.002055,0.000221,-38.060001,-23.0,-10.68,3a
2019-07-15_182930:900,-0.473846,-0.007111,-0.143372,-0.005007,0.002177,6.8e-05,-38.060001,-23.0,-10.68,3a
2019-07-15_182930:920,-0.47280900000000003,-0.0055850000000000006,-0.144379,-0.004549,0.0024519999999999998,0.00028199999999999997,-38.369999,-23.25,-11.06,3a
2019-07-15_182930:940,-0.473846,-0.004547,-0.141327,-0.004213000000000001,0.002513,0.000465,-38.369999,-23.25,-11.06,3a
2019-07-15_182930:960,-0.47332799999999997,-0.004547,-0.143372,-0.00403,0.002574,0.000465,-38.369999,-23.25,-11.06,3a
2019-07-15_182930:980,-0.47332799999999997,-0.002014,-0.142853,-0.00403,0.002391,0.000496,-38.0,-23.0,-10.68,3a
2019-07-15_182931:000,-0.473846,-0.002014,-0.141846,-0.00403,0.0024519999999999998,0.0008619999999999999,-38.0,-23.0,-10.68,3a
2019-07-15_182931:020,-0.47433500000000006,-0.002014,-0.142334,-0.004213000000000001,0.002361,0.001045,-37.68,-22.18,-10.68,3a
2019-07-15_182931:040,-0.472321,-0.0030210000000000002,-0.140808,-0.004427,0.002391,0.000984,-37.68,-22.18,-10.68,3a
2019-07-15_182931:060,-0.472321,-0.0025329999999999997,-0.142334,-0.004732,0.002177,0.001167,-37.68,-22.18,-10.68,3a
2019-07-15_182931:080,-0.47433500000000006,-0.0035399999999999997,-0.142853,-0.004793,0.002177,0.001625,-38.0,-23.25,-10.68,3a
2019-07-15_182931:100,-0.474854,-0.001495,-0.142334,-0.004946,0.002055,0.0018989999999999999,-38.0,-23.25,-10.68,3a
2019-07-15_182931:120,-0.475372,-0.0035399999999999997,-0.143372,-0.005221,0.002391,0.00196,-38.369999,-23.0,-11.06,3a
2019-07-15_182931:140,-0.476379,-0.0030210000000000002,-0.141327,-0.0056170000000000005,0.002574,0.002113,-38.369999,-23.0,-11.06,3a
2019-07-15_182931:160,-0.475861,-0.004547,-0.139801,-0.005861,0.002757,0.002113,-38.369999,-23.0,-11.06,3a
2019-07-15_182931:180,-0.47332799999999997,-0.006072999999999999,-0.141327,-0.006075,0.0031850000000000003,0.0018989999999999999,-38.75,-23.25,-10.25,3a
2019-07-15_182931:200,-0.47332799999999997,-0.006592,-0.138794,-0.006258,0.003246,0.00132,-38.75,-23.25,-10.25,3a
2019-07-15_182931:220,-0.47180200000000005,-0.007599,-0.138275,-0.0058,0.002788,0.001228,-39.060001,-22.559998999999998,-9.5,3a
2019-07-15_182931:240,-0.47332799999999997,-0.007111,-0.138275,-0.005465,0.002788,0.0007700000000000001,-39.060001,-22.559998999999998,-9.5,3a
2019-07-15_182931:260,-0.47180200000000005,-0.007111,-0.138275,-0.004946,0.002635,0.000587,-39.060001,-22.559998999999998,-9.5,3a
2019-07-15_182931:280,-0.47433500000000006,-0.007111,-0.138794,-0.004549,0.002788,0.000526,-38.369999,-23.0,-10.25,3a
2019-07-15_182931:300,-0.47433500000000006,-0.006072999999999999,-0.138275,-0.004336,0.002391,0.00028199999999999997,-38.369999,-23.0,-10.25,3a
2019-07-15_182931:320,-0.47433500000000006,-0.004547,-0.137756,-0.004213000000000001,0.002513,0.000129,-38.75,-23.25,-9.87,3a
2019-07-15_182931:340,-0.475861,-0.0030210000000000002,-0.138275,-0.004336,0.002361,0.00016,-38.75,-23.25,-9.87,3a
2019-07-15_182931:360,-0.475372,-0.0025329999999999997,-0.137756,-0.004549,0.002361,0.000221,-38.75,-23.25,-9.87,3a
2019-07-15_182931:380,-0.47689799999999993,-0.0035399999999999997,-0.136749,-0.004824,0.002696,0.000404,-38.75,-23.0,-10.25,3a
2019-07-15_182931:400,-0.476379,-0.006072999999999999,-0.136749,-0.004671,0.003124,0.00028199999999999997,-38.75,-23.0,-10.25,3a
2019-07-15_182931:420,-0.475372,-0.005065999999999999,-0.13623,-0.004549,0.002757,-0.00011499999999999999,-39.060001,-23.0,-9.87,3a
2019-07-15_182931:440,-0.475372,-0.0055850000000000006,-0.13269,-0.004336,0.0031850000000000003,0.000587,-39.060001,-23.0,-9.87,3a
2019-07-15_182931:460,-0.473846,-0.006072999999999999,-0.133179,-0.003817,0.0029100000000000003,0.001258,-39.060001,-23.0,-9.87,3a
2019-07-15_182931:480,-0.471283,-0.006072999999999999,-0.133698,-0.003878,0.0024519999999999998,0.001228,-38.0,-23.0,-10.25,3a
2019-07-15_182931:500,-0.470276,-0.0055850000000000006,-0.13623,-0.0036340000000000005,0.001994,0.000221,-38.0,-23.0,-10.25,3a
2019-07-15_182931:520,-0.47180200000000005,-0.005065999999999999,-0.136749,-0.003512,0.001537,-0.000267,-38.75,-22.559998999999998,-10.68,3a
2019-07-15_182931:540,-0.47180200000000005,-0.005065999999999999,-0.136749,-0.0033280000000000002,0.0010789999999999999,0.000648,-38.75,-22.559998999999998,-10.68,3a
2019-07-15_182931:560,-0.475372,-0.005065999999999999,-0.136749,-0.0032979999999999997,0.000865,0.001167,-38.75,-22.559998999999998,-10.68,3a
2019-07-15_182931:580,-0.475861,-0.0030210000000000002,-0.137756,-0.003512,0.001201,0.00132,-39.5,-23.0,-9.87,3a
2019-07-15_182931:600,-0.475861,-0.0035399999999999997,-0.138794,-0.003573,0.0014759999999999999,0.001564,-39.5,-23.0,-9.87,3a
2019-07-15_182931:620,-0.47332799999999997,-0.004547,-0.14032,-0.003939,0.0016589999999999999,0.001655,-38.75,-23.68,-10.25,3a
2019-07-15_182931:640,-0.475372,-0.0055850000000000006,-0.138275,-0.004397,0.001628,0.001625,-38.75,-23.68,-10.25,3a
2019-07-15_182931:660,-0.47689799999999993,-0.006592,-0.140808,-0.004671,0.00172,0.001777,-38.75,-23.68,-10.25,3a
2019-07-15_182931:680,-0.477905,-0.008636,-0.139801,-0.004427,0.002116,0.0018989999999999999,-38.369999,-22.18,-9.5,3a
2019-07-15_182931:700,-0.47842399999999996,-0.008636,-0.137756,-0.004152,0.002757,0.00196,-38.369999,-22.18,-9.5,3a
2019-07-15_182931:720,-0.478912,-0.008636,-0.141327,-0.0036340000000000005,0.0031850000000000003,0.001991,-38.75,-22.559998999999998,-9.5,3a
2019-07-15_182931:740,-0.476379,-0.006072999999999999,-0.13623,-0.003237,0.0036420000000000003,0.00251,-38.75,-22.559998999999998,-9.5,3a
2019-07-15_182931:760,-0.47433500000000006,-0.006072999999999999,-0.137756,-0.0029010000000000004,0.004161,0.002784,-38.75,-22.559998999999998,-9.5,3a
2019-07-15_182931:780,-0.47079499999999996,-0.004059,-0.135223,-0.00339,0.003917,0.001838,-39.060001,-23.0,-9.06,3a
2019-07-15_182931:800,-0.47180200000000005,-0.004547,-0.13269,-0.003939,0.00352,0.001777,-39.060001,-23.0,-9.06,3a
2019-07-15_182931:820,-0.472321,-0.006072999999999999,-0.134216,-0.004427,0.0029100000000000003,0.001503,-38.369999,-22.559998999999998,-9.06,3a
2019-07-15_182931:840,-0.473846,-0.008118,-0.133179,-0.004824,0.002788,0.001258,-38.369999,-22.559998999999998,-9.06,3a
2019-07-15_182931:860,-0.474854,-0.009125,-0.134705,-0.004732,0.002574,0.001167,-38.369999,-22.559998999999998,-9.06,3a
2019-07-15_182931:880,-0.473846,-0.009125,-0.134705,-0.004549,0.0024519999999999998,0.000923,-38.869999,-23.0,-8.68,3a
2019-07-15_182931:900,-0.476379,-0.008636,-0.13623,-0.004213000000000001,0.002757,0.000831,-38.869999,-23.0,-8.68,3a
2019-07-15_182931:920,-0.478912,-0.009125,-0.138275,-0.0036950000000000004,0.002788,0.0008619999999999999,-38.060001,-22.559998999999998,-9.87,3a
2019-07-15_182931:940,-0.478912,-0.008118,-0.134216,-0.003664,0.00349,0.00132,-38.060001,-22.559998999999998,-9.87,3a
2019-07-15_182931:960,-0.47689799999999993,-0.009125,-0.135223,-0.00339,0.003703,0.001381,-38.060001,-22.559998999999998,-9.87,3a
2019-07-15_182931:980,-0.475861,-0.008118,-0.135742,-0.003512,0.0042829999999999995,0.001503,-38.5,-22.559998999999998,-9.5,3a
2019-07-15_182932:000,-0.475861,-0.006072999999999999,-0.133698,-0.0036950000000000004,0.0045579999999999996,0.001625,-38.5,-22.559998999999998,-9.5,3a
2019-07-15_182932:020,-0.477905,-0.006592,-0.133698,-0.003939,0.0045579999999999996,0.0021739999999999997,-38.5,-23.68,-8.68,3a
2019-07-15_182932:040,-0.477905,-0.006592,-0.131653,-0.004336,0.004833,0.0022960000000000003,-38.5,-23.68,-8.68,3a
2019-07-15_182932:060,-0.477905,-0.007599,-0.131165,-0.005068,0.005016,0.002845,-38.5,-23.68,-8.68,3a
2019-07-15_182932:080,-0.47433500000000006,-0.008636,-0.130127,-0.005068,0.005229,0.003181,-38.5,-23.0,-9.06,3a
2019-07-15_182932:100,-0.47332799999999997,-0.010162000000000001,-0.128113,-0.0056170000000000005,0.00471,0.0030280000000000003,-38.5,-23.0,-9.06,3a
2019-07-15_182932:120,-0.47180200000000005,-0.010651,-0.129639,-0.005465,0.004039,0.002784,-38.5,-22.559998999999998,-9.5,3a
2019-07-15_182932:140,-0.467743,-0.016266,-0.128601,-0.005526,0.0031850000000000003,0.002693,-38.5,-22.559998999999998,-9.5,3a
2019-07-15_182932:160,-0.47280900000000003,-0.013213999999999998,-0.127106,-0.004427,0.002361,0.00196,-38.5,-22.559998999999998,-9.5,3a
2019-07-15_182932:180,-0.47689799999999993,-0.014740000000000001,-0.128113,-0.004152,0.0023,0.002388,-38.75,-22.559998999999998,-8.68,3a
2019-07-15_182932:200,-0.476379,-0.012177,-0.127594,-0.003939,0.002239,0.002052,-38.75,-22.559998999999998,-8.68,3a
2019-07-15_182932:220,-0.476379,-0.012695,-0.128113,-0.003878,0.0023,0.001106,-39.18,-22.18,-9.06,3a
2019-07-15_182932:240,-0.475372,-0.012695,-0.127106,-0.00403,0.002239,0.000709,-39.18,-22.18,-9.06,3a
2019-07-15_182932:260,-0.476379,-0.012177,-0.127106,-0.00403,0.001964,7.000000000000001e-06,-39.18,-22.18,-9.06,3a
2019-07-15_182932:280,-0.475861,-0.013702,-0.124054,-0.0036340000000000005,0.0019030000000000002,-0.000634,-39.560001,-21.75,-9.06,3a
2019-07-15_182932:300,-0.475372,-0.014221000000000001,-0.12506099999999998,-0.00339,0.001598,-0.0010609999999999999,-39.560001,-21.75,-9.06,3a
2019-07-15_182932:320,-0.475861,-0.014740000000000001,-0.12506099999999998,-0.002932,0.001353,-0.0013050000000000002,-38.869999,-22.559998999999998,-10.68,3a
2019-07-15_182932:340,-0.47689799999999993,-0.013702,-0.12454200000000001,-0.002169,0.001537,-0.001183,-38.869999,-22.559998999999998,-10.68,3a
2019-07-15_182932:360,-0.475861,-0.012177,-0.12506099999999998,-0.0015890000000000001,0.001292,-0.0013050000000000002,-38.869999,-22.559998999999998,-10.68,3a
2019-07-15_182932:380,-0.475372,-0.009644,-0.129639,-0.001009,0.00114,-0.0012439999999999999,-39.869999,-21.75,-8.25,3a
2019-07-15_182932:400,-0.47842399999999996,-0.007599,-0.128113,-0.000918,0.000865,-0.0009689999999999999,-39.869999,-21.75,-8.25,3a
2019-07-15_182932:420,-0.48043800000000003,-0.007111,-0.128601,-0.000857,0.0008960000000000001,-0.000664,-38.75,-22.559998999999998,-9.87,3a
2019-07-15_182932:440,-0.48300200000000004,-0.006072999999999999,-0.128601,-0.001375,0.001201,-0.0008470000000000001,-38.75,-22.559998999999998,-9.87,3a
2019-07-15_182932:460,-0.48300200000000004,-0.006072999999999999,-0.128601,-0.002199,0.001964,-0.000634,-38.75,-22.559998999999998,-9.87,3a
2019-07-15_182932:480,-0.478912,-0.008636,-0.128601,-0.0025960000000000002,0.002391,0.000496,-39.060001,-21.75,-9.5,3a
2019-07-15_182932:500,-0.477905,-0.008636,-0.12658699999999998,-0.0032979999999999997,0.002696,0.000648,-39.060001,-21.75,-9.5,3a
2019-07-15_182932:520,-0.475372,-0.011687999999999999,-0.127106,-0.003512,0.0024519999999999998,0.000129,-39.060001,-22.18,-9.5,3a
2019-07-15_182932:540,-0.47433500000000006,-0.009644,-0.12506099999999998,-0.0036340000000000005,0.002361,-0.001397,-39.060001,-22.18,-9.5,3a
2019-07-15_182932:560,-0.474854,-0.011169,-0.12506099999999998,-0.0032979999999999997,0.002055,-0.0008470000000000001,-39.060001,-22.18,-9.5,3a
2019-07-15_182932:580,-0.473846,-0.011687999999999999,-0.12558,-0.0029010000000000004,0.001628,-0.000389,-39.060001,-23.0,-9.87,3a
2019-07-15_182932:600,-0.475372,-0.007111,-0.126068,-0.0025960000000000002,0.001537,-0.000512,-39.060001,-23.0,-9.87,3a
2019-07-15_182932:620,-0.47433500000000006,-0.006072999999999999,-0.126068,-0.002443,0.00114,-0.000389,-38.75,-22.559998999999998,-9.87,3a
2019-07-15_182932:640,-0.475372,-0.006072999999999999,-0.12658699999999998,-0.002932,0.001201,-0.000267,-38.75,-22.559998999999998,-9.87,3a
2019-07-15_182932:660,-0.474854,-0.006072999999999999,-0.128113,-0.0034509999999999996,0.000865,-0.000176,-38.75,-22.559998999999998,-9.87,3a
2019-07-15_182932:680,-0.478912,-0.006592,-0.128113,-0.003939,0.000499,6.8e-05,-38.75,-22.559998999999998,-9.87,3a
2019-07-15_182932:700,-0.477905,-0.009644,-0.129639,-0.004427,0.000499,-5.4000000000000005e-05,-38.75,-22.559998999999998,-9.87,3a
2019-07-15_182932:720,-0.47842399999999996,-0.008118,-0.132172,-0.004671,0.000682,-0.000389,-39.060001,-22.559998999999998,-8.25,3a
2019-07-15_182932:740,-0.48196400000000006,-0.008636,-0.130646,-0.004336,0.0009570000000000001,-0.000267,-39.060001,-22.559998999999998,-8.25,3a
2019-07-15_182932:760,-0.481476,-0.010162000000000001,-0.129639,-0.004091,0.001537,0.000129,-39.060001,-22.559998999999998,-8.25,3a
2019-07-15_182932:780,-0.47995,-0.010162000000000001,-0.12912,-0.0036950000000000004,0.001964,0.000465,-39.869999,-23.0,-9.87,3a
2019-07-15_182932:800,-0.477905,-0.008636,-0.126068,-0.003512,0.002391,-0.00023700000000000001,-39.869999,-23.0,-9.87,3a
2019-07-15_182932:820,-0.47689799999999993,-0.008118,-0.12506099999999998,-0.003573,0.002239,-0.00045099999999999996,-39.5,-23.0,-9.5,3a
2019-07-15_182932:840,-0.475372,-0.008636,-0.12200899999999999,-0.0036340000000000005,0.002239,-0.000267,-39.5,-23.0,-9.5,3a
2019-07-15_182932:860,-0.472321,-0.008118,-0.12301600000000001,-0.0037560000000000002,0.001537,-0.000786,-39.5,-23.0,-9.5,3a
2019-07-15_182932:880,-0.471283,-0.008636,-0.122528,-0.003878,0.000743,-0.0008470000000000001,-39.060001,-22.559998999999998,-10.25,3a
2019-07-15_182932:900,-0.47079499999999996,-0.009644,-0.124054,-0.004,-0.00063,-0.001183,-39.060001,-22.559998999999998,-10.25,3a
2019-07-15_182932:920,-0.47433500000000006,-0.009644,-0.127106,-0.003664,-0.00124,-0.001641,-39.869999,-23.0,-8.68,3a
2019-07-15_182932:940,-0.477386,-0.009125,-0.128113,-0.003054,-0.001576,-0.0017629999999999998,-39.869999,-23.0,-8.68,3a
2019-07-15_182932:960,-0.48043800000000003,-0.007599,-0.132172,-0.002535,-0.001302,-0.001641,-39.869999,-23.0,-8.68,3a
2019-07-15_182932:980,-0.47995,-0.007111,-0.134216,-0.002169,-0.0009050000000000001,-0.001366,-38.75,-23.0,-8.68,3a
2019-07-15_182933:000,-0.48043800000000003,-0.0055850000000000006,-0.134705,-0.001986,-0.000172,-0.000908,-38.75,-23.0,-8.68,3a
2019-07-15_182933:020,-0.48043800000000003,-0.0030210000000000002,-0.133698,-0.002199,0.000468,-0.000512,-38.75,-23.0,-9.06,3a
2019-07-15_182933:040,-0.47943100000000005,-0.001495,-0.133179,-0.002779,0.00114,-5.4000000000000005e-05,-38.75,-23.0,-9.06,3a
2019-07-15_182933:060,-0.477386,-0.001007,-0.134705,-0.0036950000000000004,0.001598,0.000129,-38.75,-23.0,-9.06,3a
2019-07-15_182933:080,-0.476379,-0.001495,-0.134705,-0.004793,0.00172,0.00028199999999999997,-38.369999,-22.559998999999998,-9.87,3a
2019-07-15_182933:100,-0.475861,-0.0035399999999999997,-0.131653,-0.005343,0.001598,0.000221,-38.369999,-22.559998999999998,-9.87,3a
2019-07-15_182933:120,-0.477386,-0.006072999999999999,-0.133179,-0.005404,0.0016589999999999999,0.00028199999999999997,-38.75,-23.25,-10.68,3a
2019-07-15_182933:140,-0.476379,-0.007599,-0.132172,-0.005282,0.001964,0.000343,-38.75,-23.25,-10.68,3a
2019-07-15_182933:160,-0.476379,-0.007599,-0.131653,-0.004793,0.0017809999999999998,0.000496,-38.75,-23.25,-10.68,3a
2019-07-15_182933:180,-0.475372,-0.008636,-0.13269,-0.004091,0.002116,0.000465,-38.75,-23.0,-9.5,3a
2019-07-15_182933:200,-0.475372,-0.007111,-0.13269,-0.0036340000000000005,0.001994,0.00028199999999999997,-38.75,-23.0,-9.5,3a
2019-07-15_182933:220,-0.47433500000000006,-0.006592,-0.132172,-0.003237,0.001964,0.00016,-38.369999,-23.68,-10.25,3a
2019-07-15_182933:240,-0.475372,-0.0055850000000000006,-0.131165,-0.003176,0.0014759999999999999,6.8e-05,-38.369999,-23.68,-10.25,3a
2019-07-15_182933:260,-0.475861,-0.004059,-0.131653,-0.003237,0.001628,-5.4000000000000005e-05,-38.369999,-23.68,-10.25,3a
2019-07-15_182933:280,-0.476379,-0.004059,-0.13269,-0.00339,0.001537,-0.000176,-38.369999,-22.559998999999998,-9.06,3a
2019-07-15_182933:300,-0.475861,-0.0030210000000000002,-0.131653,-0.003512,0.001537,7.000000000000001e-06,-38.369999,-22.559998999999998,-9.06,3a
2019-07-15_182933:320,-0.474854,-0.0030210000000000002,-0.131165,-0.003664,0.0016589999999999999,0.000221,-38.369999,-23.0,-9.5,3a
2019-07-15_182933:340,-0.475861,-0.0035399999999999997,-0.130127,-0.0036950000000000004,0.001415,0.000343,-38.369999,-23.0,-9.5,3a
2019-07-15_182933:360,-0.475861,-0.0035399999999999997,-0.131653,-0.004,0.001598,0.00028199999999999997,-38.369999,-23.0,-9.5,3a
2019-07-15_182933:380,-0.475372,-0.004059,-0.132172,-0.004,0.001628,0.00016,-38.369999,-22.559998999999998,-9.87,3a
2019-07-15_182933:400,-0.474854,-0.0035399999999999997,-0.131653,-0.00403,0.001598,0.000221,-38.369999,-22.559998999999998,-9.87,3a
2019-07-15_182933:420,-0.476379,-0.004547,-0.132172,-0.004,0.001415,0.00028199999999999997,-38.369999,-23.25,-9.5,3a
2019-07-15_182933:440,-0.47689799999999993,-0.0055850000000000006,-0.130127,-0.0036340000000000005,0.001598,6.8e-05,-38.369999,-23.25,-9.5,3a
2019-07-15_182933:460,-0.47689799999999993,-0.0025329999999999997,-0.12912,-0.0033280000000000002,0.0017809999999999998,-0.00023700000000000001,-38.369999,-23.25,-9.5,3a
2019-07-15_182933:480,-0.47842399999999996,-0.004059,-0.131165,-0.0033280000000000002,0.0019030000000000002,0.000984,-39.869999,-23.0,-11.06,3a
2019-07-15_182933:500,-0.47280900000000003,-0.0030210000000000002,-0.130127,-0.0036340000000000005,0.0017809999999999998,0.001381,-39.869999,-23.0,-11.06,3a
2019-07-15_182933:520,-0.476379,-0.004547,-0.131653,-0.0033280000000000002,0.0012619999999999999,0.0008619999999999999,-38.369999,-23.68,-9.87,3a
2019-07-15_182933:540,-0.476379,-0.0025329999999999997,-0.130127,-0.003664,0.00114,-0.000634,-38.369999,-23.68,-9.87,3a
2019-07-15_182933:560,-0.475861,-0.001495,-0.130646,-0.0037560000000000002,0.0008960000000000001,-0.000267,-38.369999,-23.68,-9.87,3a
2019-07-15_182933:580,-0.47689799999999993,-0.004547,-0.12912,-0.0037560000000000002,0.0010789999999999999,0.000526,-39.5,-23.68,-9.87,3a
2019-07-15_182933:600,-0.476379,-0.0035399999999999997,-0.130646,-0.0036340000000000005,0.001201,0.000648,-39.5,-23.68,-9.87,3a
2019-07-15_182933:620,-0.47689799999999993,-0.0030210000000000002,-0.13269,-0.0032979999999999997,0.001415,0.000587,-39.869999,-23.25,-10.68,3a
2019-07-15_182933:640,-0.476379,-0.004059,-0.130646,-0.0033280000000000002,0.001628,0.000709,-39.869999,-23.25,-10.68,3a
2019-07-15_182933:660,-0.47689799999999993,-0.004059,-0.132172,-0.0034509999999999996,0.001537,0.000831,-39.869999,-23.25,-10.68,3a
2019-07-15_182933:680,-0.475861,-0.002014,-0.131653,-0.0036340000000000005,0.0014759999999999999,0.0007700000000000001,-39.060001,-22.18,-9.06,3a
2019-07-15_182933:700,-0.474854,-0.005065999999999999,-0.132172,-0.003878,0.001537,0.000648,-39.060001,-22.18,-9.06,3a
2019-07-15_182933:720,-0.475372,-0.004547,-0.131653,-0.004152,0.001415,0.000404,-39.060001,-23.0,-9.5,3a
2019-07-15_182933:740,-0.478912,-0.006072999999999999,-0.133179,-0.0037560000000000002,0.0012619999999999999,0.000465,-39.060001,-23.0,-9.5,3a
2019-07-15_182933:760,-0.47689799999999993,-0.004547,-0.13269,-0.003573,0.00172,0.000648,-39.060001,-23.0,-9.5,3a
2019-07-15_182933:780,-0.475861,-0.0055850000000000006,-0.13269,-0.0032979999999999997,0.001994,0.000465,-37.68,-22.559998999999998,-9.06,3a
2019-07-15_182933:800,-0.475861,-0.0055850000000000006,-0.131653,-0.003176,0.001842,0.000221,-37.68,-22.559998999999998,-9.06,3a
2019-07-15_182933:820,-0.47689799999999993,-0.004059,-0.13269,-0.002932,0.001842,0.000465,-38.75,-23.0,-9.5,3a
2019-07-15_182933:840,-0.477386,-0.0055850000000000006,-0.130646,-0.0029010000000000004,0.001842,0.000404,-38.75,-23.0,-9.5,3a
2019-07-15_182933:860,-0.475861,-0.0025329999999999997,-0.131165,-0.002993,0.0017809999999999998,0.00028199999999999997,-38.75,-23.0,-9.5,3a
2019-07-15_182933:880,-0.475861,-0.0030210000000000002,-0.131653,-0.002993,0.0016589999999999999,0.000526,-38.75,-23.0,-9.87,3a
2019-07-15_182933:900,-0.475372,-0.0035399999999999997,-0.131653,-0.0033280000000000002,0.00172,0.00028199999999999997,-38.75,-23.0,-9.87,3a
2019-07-15_182933:920,-0.475861,-0.0025329999999999997,-0.131165,-0.003512,0.001842,0.000343,-38.369999,-22.559998999999998,-10.25,3a
2019-07-15_182933:940,-0.475372,-0.004547,-0.130127,-0.0036340000000000005,0.001598,0.000221,-38.369999,-22.559998999999998,-10.25,3a
2019-07-15_182933:960,-0.473846,-0.0035399999999999997,-0.131165,-0.0036340000000000005,0.001628,6.8e-05,-38.369999,-22.559998999999998,-10.25,3a
2019-07-15_182933:980,-0.47689799999999993,-0.005065999999999999,-0.130646,-0.003573,0.0016589999999999999,0.000129,-38.369999,-23.25,-9.06,3a
2019-07-15_182934:000,-0.477386,-0.004547,-0.129639,-0.0032979999999999997,0.001537,0.00016,-38.369999,-23.25,-9.06,3a
2019-07-15_182934:020,-0.47689799999999993,-0.0055850000000000006,-0.132172,-0.0029010000000000004,0.001598,-0.00011499999999999999,-38.75,-23.0,-10.25,3a
2019-07-15_182934:040,-0.477386,-0.0035399999999999997,-0.130127,-0.002718,0.0019030000000000002,-0.000176,-38.75,-23.0,-10.25,3a
2019-07-15_182934:060,-0.475372,-0.0035399999999999997,-0.132172,-0.0025050000000000003,0.001628,6.8e-05,-38.75,-23.0,-10.25,3a
2019-07-15_182934:080,-0.477386,-0.002014,-0.131653,-0.0025050000000000003,0.001537,0.00016,-37.68,-23.0,-9.87,3a
2019-07-15_182934:100,-0.47842399999999996,-0.001007,-0.12912,-0.0028399999999999996,0.00172,0.000343,-37.68,-23.0,-9.87,3a
2019-07-15_182934:120,-0.47995,-0.001495,-0.130127,-0.0031149999999999997,0.002239,0.0007700000000000001,-38.369999,-23.68,-9.5,3a
2019-07-15_182934:140,-0.477386,-0.0025329999999999997,-0.128113,-0.003573,0.002513,0.000648,-38.369999,-23.68,-9.5,3a
2019-07-15_182934:160,-0.47689799999999993,-0.0025329999999999997,-0.12912,-0.003878,0.002635,0.000923,-38.369999,-23.68,-9.5,3a
2019-07-15_182934:180,-0.47433500000000006,-0.004059,-0.128113,-0.004,0.002513,0.001045,-39.060001,-23.0,-10.68,3a
2019-07-15_182934:200,-0.47433500000000006,-0.004547,-0.127594,-0.004152,0.0019030000000000002,0.0008619999999999999,-39.060001,-23.0,-10.68,3a
2019-07-15_182934:220,-0.475861,-0.006072999999999999,-0.130127,-0.003939,0.00172,0.000984,-39.060001,-22.559998999999998,-10.25,3a
2019-07-15_182934:240,-0.47995,-0.006072999999999999,-0.127106,-0.0036950000000000004,0.001628,0.000831,-39.060001,-22.559998999999998,-10.25,3a
2019-07-15_182934:260,-0.48196400000000006,-0.007111,-0.128601,-0.0034509999999999996,0.002361,0.000648,-39.060001,-22.559998999999998,-10.25,3a
2019-07-15_182934:280,-0.49823,-0.008118,-0.12506099999999998,-0.002993,0.002788,0.000526,-38.75,-22.18,-11.06,3a
2019-07-15_182934:300,-0.471283,-0.004547,-0.12658699999999998,-0.002993,0.003307,6.8e-05,-38.75,-22.18,-11.06,3a
2019-07-15_182934:320,-0.47433500000000006,-0.004547,-0.127106,-0.003176,0.002849,7.000000000000001e-06,-38.369999,-23.25,-8.68,3a
2019-07-15_182934:340,-0.47433500000000006,-0.004547,-0.127106,-0.0033280000000000002,0.002788,-0.000634,-38.369999,-23.25,-8.68,3a
2019-07-15_182934:360,-0.47943100000000005,-0.004547,-0.12658699999999998,-0.0033280000000000002,0.002239,-0.0008470000000000001,-38.369999,-23.25,-8.68,3a
2019-07-15_182934:380,-0.47180200000000005,-0.006072999999999999,-0.12658699999999998,-0.0032979999999999997,0.002239,-0.000634,-38.369999,-22.559998999999998,-9.06,3a
2019-07-15_182934:400,-0.46417200000000003,-0.004547,-0.129639,-0.003054,0.0014759999999999999,-0.000908,-38.369999,-22.559998999999998,-9.06,3a
2019-07-15_182934:420,-0.47433500000000006,-0.005065999999999999,-0.129639,-0.002779,0.000346,-0.000664,-37.68,-23.0,-9.5,3a
2019-07-15_182934:440,-0.47079499999999996,-0.005065999999999999,-0.128601,-0.0025050000000000003,7.2e-05,-0.00045099999999999996,-37.68,-23.0,-9.5,3a
2019-07-15_182934:460,-0.48095699999999997,-0.0025329999999999997,-0.131653,-0.002535,-0.000264,-0.000573,-37.68,-23.0,-9.5,3a
2019-07-15_182934:480,-0.48043800000000003,-0.000488,-0.132172,-0.0025050000000000003,7.2e-05,0.000709,-38.75,-23.25,-9.06,3a
2019-07-15_182934:500,-0.477905,-0.000488,-0.13269,-0.0031149999999999997,0.000133,0.001381,-38.75,-23.25,-9.06,3a
2019-07-15_182934:520,-0.484497,-0.001495,-0.128601,-0.0034509999999999996,0.0009570000000000001,0.00132,-39.060001,-23.0,-8.68,3a
2019-07-15_182934:540,-0.47433500000000006,0.000488,-0.131165,-0.0036950000000000004,0.0017809999999999998,0.001045,-39.060001,-23.0,-8.68,3a
2019-07-15_182934:560,-0.47842399999999996,-0.001495,-0.131653,-0.004,0.0009570000000000001,0.001228,-39.060001,-23.0,-8.68,3a
2019-07-15_182934:580,-0.478912,-0.002014,-0.13269,-0.004336,0.001628,0.0021739999999999997,-38.369999,-23.0,-9.06,3a
2019-07-15_182934:600,-0.484009,-0.002014,-0.131165,-0.004275,0.002055,0.002235,-38.369999,-23.0,-9.06,3a
2019-07-15_182934:620,-0.472321,-0.0025329999999999997,-0.131653,-0.004488000000000001,0.002391,0.002235,-38.0,-22.559998999999998,-10.25,3a
2019-07-15_182934:640,-0.473846,-0.005065999999999999,-0.131653,-0.004488000000000001,0.0016589999999999999,0.002052,-38.0,-22.559998999999998,-10.25,3a
2019-07-15_182934:660,-0.47280900000000003,-0.004547,-0.131165,-0.004397,0.001537,0.00196,-38.0,-22.559998999999998,-10.25,3a
2019-07-15_182934:680,-0.481476,-0.007111,-0.131165,-0.004275,0.002391,0.00196,-39.5,-23.25,-9.87,3a
2019-07-15_182934:700,-0.473846,-0.005065999999999999,-0.129639,-0.004549,0.0029100000000000003,0.001991,-39.5,-23.25,-9.87,3a
2019-07-15_182934:720,-0.478912,-0.005065999999999999,-0.13269,-0.004671,0.002757,0.001777,-38.369999,-23.25,-9.5,3a
2019-07-15_182934:740,-0.47943100000000005,-0.007111,-0.130646,-0.004946,0.0023,0.001228,-38.369999,-23.25,-9.5,3a
2019-07-15_182934:760,-0.470276,-0.008636,-0.128113,-0.004671,0.0019030000000000002,0.001716,-38.369999,-23.25,-9.5,3a
2019-07-15_182934:780,-0.46926899999999994,-0.010162000000000001,-0.128113,-0.004488000000000001,0.0017809999999999998,0.001167,-38.0,-22.559998999999998,-9.06,3a
2019-07-15_182934:800,-0.46823100000000006,-0.010162000000000001,-0.128601,-0.004213000000000001,0.0010789999999999999,0.00016,-38.0,-22.559998999999998,-9.06,3a
2019-07-15_182934:820,-0.477905,-0.010162000000000001,-0.129639,-0.0037560000000000002,0.0010789999999999999,0.00016,-39.060001,-23.25,-8.68,3a
2019-07-15_182934:840,-0.490112,-0.010651,-0.12912,-0.0031149999999999997,0.002361,0.00028199999999999997,-39.060001,-23.25,-8.68,3a
2019-07-15_182934:860,-0.476379,-0.009644,-0.131653,-0.002657,0.002055,0.000221,-39.060001,-23.25,-8.68,3a
2019-07-15_182934:880,-0.48858599999999996,-0.008118,-0.128601,-0.002321,0.002239,0.000129,-38.0,-23.0,-9.5,3a
2019-07-15_182934:900,-0.47332799999999997,-0.005065999999999999,-0.133698,-0.002321,0.002696,0.000221,-38.0,-23.0,-9.5,3a
2019-07-15_182934:920,-0.47943100000000005,-0.006072999999999999,-0.132172,-0.002535,0.002116,0.00028199999999999997,-39.060001,-23.25,-9.5,3a
2019-07-15_182934:940,-0.477905,-0.004059,-0.127594,-0.0031149999999999997,0.0024519999999999998,0.000496,-39.060001,-23.25,-9.5,3a
2019-07-15_182934:960,-0.478912,-0.0035399999999999997,-0.13269,-0.0036950000000000004,0.002971,0.000343,-39.060001,-23.25,-9.5,3a
2019-07-15_182934:980,-0.47433500000000006,-0.004547,-0.131165,-0.004275,0.003368,0.000648,-39.5,-23.0,-9.5,3a
2019-07-15_182935:000,-0.477905,-0.006072999999999999,-0.127106,-0.00461,0.003368,0.000709,-39.5,-23.0,-9.5,3a
2019-07-15_182935:020,-0.47332799999999997,-0.007599,-0.128113,-0.004427,0.003307,0.001228,-39.5,-22.559998999999998,-8.25,3a
2019-07-15_182935:040,-0.47943100000000005,-0.009125,-0.127106,-0.00403,0.002696,0.001442,-39.5,-22.559998999999998,-8.25,3a
2019-07-15_182935:060,-0.471283,-0.007111,-0.12558,-0.003817,0.002361,0.001716,-39.5,-22.559998999999998,-8.25,3a
2019-07-15_182935:080,-0.47433500000000006,-0.006592,-0.128113,-0.003817,0.001628,0.001564,-38.0,-23.0,-8.68,3a
2019-07-15_182935:100,-0.47332799999999997,-0.007599,-0.12658699999999998,-0.003939,0.000865,0.001625,-38.0,-23.0,-8.68,3a
2019-07-15_182935:120,-0.47180200000000005,-0.006072999999999999,-0.128113,-0.003878,0.00056,0.001442,-39.060001,-22.559998999999998,-8.25,3a
2019-07-15_182935:140,-0.476379,-0.006072999999999999,-0.128113,-0.004427,-0.000233,0.001564,-39.060001,-22.559998999999998,-8.25,3a
2019-07-15_182935:160,-0.47689799999999993,-0.007111,-0.128113,-0.004946,-0.000233,0.001228,-39.060001,-22.559998999999998,-8.25,3a
2019-07-15_182935:180,-0.478912,-0.007599,-0.128113,-0.005221,-0.000172,0.001258,-39.5,-22.559998999999998,-9.5,3a
2019-07-15_182935:200,-0.475861,-0.009644,-0.127594,-0.0051600000000000005,-5e-05,0.001167,-39.5,-22.559998999999998,-9.5,3a
2019-07-15_182935:220,-0.47943100000000005,-0.010651,-0.129639,-0.005129,0.000133,0.000984,-38.75,-22.18,-10.25,3a
2019-07-15_182935:240,-0.47689799999999993,-0.010162000000000001,-0.129639,-0.004732,0.000621,0.000984,-38.75,-22.18,-10.25,3a
2019-07-15_182935:260,-0.48349,-0.011169,-0.12912,-0.004275,0.001292,0.000587,-38.75,-22.18,-10.25,3a
2019-07-15_182935:280,-0.471283,-0.008118,-0.131165,-0.003817,0.001292,0.000526,-39.060001,-22.18,-9.06,3a
2019-07-15_182935:300,-0.47689799999999993,-0.008636,-0.128601,-0.003664,0.001598,0.000465,-39.060001,-22.18,-9.06,3a
2019-07-15_182935:320,-0.477905,-0.007111,-0.12912,-0.00339,0.001628,0.000496,-38.75,-23.25,-9.87,3a
2019-07-15_182935:340,-0.47689799999999993,-0.008636,-0.130646,-0.003664,0.0016589999999999999,0.000587,-38.75,-23.25,-9.87,3a
2019-07-15_182935:360,-0.475861,-0.007599,-0.130646,-0.0034509999999999996,0.0017809999999999998,0.000343,-38.75,-23.25,-9.87,3a
2019-07-15_182935:380,-0.47689799999999993,-0.008636,-0.129639,-0.003512,0.0016589999999999999,0.000404,-39.060001,-22.559998999999998,-10.68,3a
2019-07-15_182935:400,-0.475861,-0.009644,-0.128601,-0.0034509999999999996,0.001628,-0.000267,-39.060001,-22.559998999999998,-10.68,3a
2019-07-15_182935:420,-0.47689799999999993,-0.007599,-0.128113,-0.003176,0.001628,-0.00023700000000000001,-38.75,-22.18,-9.06,3a
2019-07-15_182935:440,-0.48043800000000003,-0.006592,-0.128601,-0.003054,0.001292,0.000526,-38.75,-22.18,-9.06,3a
2019-07-15_182935:460,-0.47943100000000005,-0.007599,-0.12912,-0.0032979999999999997,0.001018,0.000343,-38.75,-22.18,-9.06,3a
2019-07-15_182935:480,-0.48095699999999997,-0.007111,-0.129639,-0.0033280000000000002,0.001018,-0.00023700000000000001,-38.75,-22.559998999999998,-8.68,3a
2019-07-15_182935:500,-0.47842399999999996,-0.007599,-0.128113,-0.0037560000000000002,0.001292,-0.000512,-38.75,-22.559998999999998,-8.68,3a
2019-07-15_182935:520,-0.475861,-0.008118,-0.130127,-0.003664,0.001994,-0.00011499999999999999,-38.75,-22.559998999999998,-9.87,3a
2019-07-15_182935:540,-0.472321,-0.008636,-0.129639,-0.003573,0.002177,-0.000267,-38.75,-22.559998999999998,-9.87,3a
2019-07-15_182935:560,-0.47280900000000003,-0.009125,-0.127594,-0.003054,0.002116,-0.000389,-38.75,-22.559998999999998,-9.87,3a
2019-07-15_182935:580,-0.47332799999999997,-0.008636,-0.128113,-0.002657,0.00172,-0.00011499999999999999,-38.369999,-22.559998999999998,-8.68,3a
2019-07-15_182935:600,-0.473846,-0.0055850000000000006,-0.126068,-0.0025050000000000003,0.001353,0.000496,-38.369999,-22.559998999999998,-8.68,3a
2019-07-15_182935:620,-0.47433500000000006,-0.0055850000000000006,-0.128113,-0.0028399999999999996,0.0008960000000000001,0.001045,-39.060001,-22.559998999999998,-10.25,3a
2019-07-15_182935:640,-0.47180200000000005,-0.0055850000000000006,-0.127106,-0.0036340000000000005,0.0008039999999999999,0.001258,-39.060001,-22.559998999999998,-10.25,3a
2019-07-15_182935:660,-0.46926899999999994,-0.005065999999999999,-0.129639,-0.004427,-0.000233,0.0007700000000000001,-39.060001,-22.559998999999998,-10.25,3a
2019-07-15_182935:680,-0.47079499999999996,-0.006592,-0.131653,-0.0048850000000000005,-0.00063,0.00028199999999999997,-38.369999,-22.559998999999998,-9.5,3a
2019-07-15_182935:700,-0.47079499999999996,-0.009125,-0.132172,-0.005343,-0.001515,-0.000908,-38.369999,-22.559998999999998,-9.5,3a
2019-07-15_182935:720,-0.47689799999999993,-0.009125,-0.134705,-0.0051600000000000005,-0.001698,-0.000908,-38.369999,-22.559998999999998,-9.5,3a
2019-07-15_182935:740,-0.47943100000000005,-0.008636,-0.135742,-0.004275,-0.001576,-0.000634,-38.369999,-22.559998999999998,-9.06,3a
2019-07-15_182935:760,-0.484009,-0.009125,-0.135742,-0.004,-0.001363,-0.0009689999999999999,-38.369999,-22.559998999999998,-9.06,3a
2019-07-15_182935:780,-0.48349,-0.007599,-0.137756,-0.003054,-0.000172,-0.000634,-38.369999,-22.559998999999998,-8.68,3a
2019-07-15_182935:800,-0.48095699999999997,-0.005065999999999999,-0.135223,-0.002199,0.0008039999999999999,-5.4000000000000005e-05,-38.369999,-22.559998999999998,-8.68,3a
2019-07-15_182935:820,-0.478912,-0.0055850000000000006,-0.135223,-0.0018030000000000001,0.0016589999999999999,0.000343,-38.369999,-22.559998999999998,-8.68,3a
2019-07-15_182935:840,-0.477905,-0.0035399999999999997,-0.134705,-0.0017109999999999998,0.002116,0.000648,-38.369999,-23.0,-9.5,3a
2019-07-15_182935:860,-0.476379,-0.0025329999999999997,-0.13269,-0.0018030000000000001,0.002849,0.001045,-38.369999,-23.0,-9.5,3a
2019-07-15_182935:880,-0.47689799999999993,-0.004059,-0.13269,-0.0020469999999999998,0.002849,0.000923,-37.0,-23.0,-10.25,3a
2019-07-15_182935:900,-0.47433500000000006,-0.0025329999999999997,-0.130646,-0.002779,0.002849,0.000709,-37.0,-23.0,-10.25,3a
2019-07-15_182935:920,-0.475372,-0.004547,-0.132172,-0.002932,0.002757,0.000587,-38.0,-23.25,-9.87,3a
2019-07-15_182935:940,-0.476379,-0.005065999999999999,-0.130646,-0.003512,0.002574,0.000496,-38.0,-23.25,-9.87,3a
2019-07-15_182935:960,-0.476379,-0.007111,-0.129639,-0.0036340000000000005,0.002513,0.000648,-38.0,-23.25,-9.87,3a
2019-07-15_182935:980,-0.47689799999999993,-0.007111,-0.131165,-0.0033280000000000002,0.0024519999999999998,0.000587,-38.75,-22.559998999999998,-11.06,3a
2019-07-15_182936:000,-0.477386,-0.007111,-0.128113,-0.0034509999999999996,0.002513,0.000709,-38.75,-22.559998999999998,-11.06,3a
2019-07-15_182936:020,-0.47689799999999993,-0.007599,-0.12912,-0.003176,0.002391,0.001045,-38.0,-23.0,-10.25,3a
2019-07-15_182936:040,-0.475372,-0.007111,-0.128113,-0.003054,0.002177,0.000923,-38.0,-23.0,-10.25,3a
2019-07-15_182936:060,-0.475372,-0.007111,-0.12912,-0.00339,0.0019030000000000002,0.000526,-38.0,-23.0,-10.25,3a
2019-07-15_182936:080,-0.475372,-0.007599,-0.128601,-0.0034509999999999996,0.001598,0.000343,-38.369999,-22.18,-9.87,3a
2019-07-15_182936:100,-0.477386,-0.007111,-0.127106,-0.0034509999999999996,0.001201,0.00016,-38.369999,-22.18,-9.87,3a
2019-07-15_182936:120,-0.48043800000000003,-0.008118,-0.129639,-0.003237,0.000682,0.000129,-38.369999,-22.18,-9.87,3a
2019-07-15_182936:140,-0.47943100000000005,-0.007599,-0.13269,-0.0031149999999999997,1.1e-05,-0.000512,-39.060001,-23.0,-9.87,3a
2019-07-15_182936:160,-0.47943100000000005,-0.006592,-0.134216,-0.0032979999999999997,-0.000172,-0.000634,-39.060001,-23.0,-9.87,3a
2019-07-15_182936:180,-0.485016,-0.007111,-0.135742,-0.003512,0.000407,0.000526,-37.68,-23.0,-9.87,3a
2019-07-15_182936:200,-0.484009,-0.008636,-0.12912,-0.0037560000000000002,0.001598,0.0008619999999999999,-37.68,-23.0,-9.87,3a
2019-07-15_182936:220,-0.48095699999999997,-0.008118,-0.130646,-0.003878,0.0029100000000000003,0.000587,-37.68,-23.0,-9.87,3a
2019-07-15_182936:240,-0.473846,-0.007111,-0.12558,-0.003664,0.003764,0.0007700000000000001,-38.5,-22.559998999999998,-8.68,3a
2019-07-15_182936:260,-0.46469099999999997,-0.006072999999999999,-0.127106,-0.003817,0.003307,0.001045,-38.5,-22.559998999999998,-8.68,3a
2019-07-15_182936:280,-0.459595,-0.004547,-0.127106,-0.004275,0.0016589999999999999,0.001655,-38.75,-22.18,-9.87,3a
2019-07-15_182936:300,-0.46316499999999994,-0.0055850000000000006,-0.127106,-0.0051600000000000005,-0.000386,0.001655,-38.75,-22.18,-9.87,3a
2019-07-15_182936:320,-0.47689799999999993,-0.008636,-0.130127,-0.005678,-0.001912,0.000984,-38.75,-22.18,-9.87,3a
2019-07-15_182936:340,-0.47332799999999997,-0.008118,-0.129639,-0.005739,-0.002309,0.000465,-38.369999,-23.25,-9.5,3a
2019-07-15_182936:360,-0.47689799999999993,-0.010651,-0.135223,-0.005739,-0.001973,-0.0008470000000000001,-38.369999,-23.25,-9.5,3a
2019-07-15_182936:380,-0.476379,-0.009125,-0.134705,-0.005526,-0.001759,-0.0021899999999999997,-38.369999,-23.0,-9.87,3a
2019-07-15_182936:400,-0.47332799999999997,-0.008118,-0.139801,-0.00461,-0.00179,-0.001641,-38.369999,-23.0,-9.87,3a
2019-07-15_182936:420,-0.47079499999999996,-0.006072999999999999,-0.138275,-0.003878,-0.0018510000000000002,-0.001519,-38.369999,-23.0,-9.87,3a
2019-07-15_182936:440,-0.48095699999999997,-0.0030210000000000002,-0.138275,-0.0033280000000000002,-0.002187,-0.0017629999999999998,-38.75,-22.559998999999998,-10.25,3a
2019-07-15_182936:460,-0.47943100000000005,-0.0035399999999999997,-0.140808,-0.0029010000000000004,-0.001302,-0.001458,-38.75,-22.559998999999998,-10.25,3a
2019-07-15_182936:480,-0.477905,-0.001007,-0.137756,-0.0025050000000000003,0.000346,-0.00045099999999999996,-37.68,-23.68,-10.68,3a
2019-07-15_182936:500,-0.47433500000000006,-0.001007,-0.138275,-0.0025050000000000003,0.0010789999999999999,0.000526,-37.68,-23.68,-10.68,3a
2019-07-15_182936:520,-0.470276,-0.000488,-0.138794,-0.002321,0.0017809999999999998,0.001228,-38.060001,-22.559998999999998,-8.68,3a
2019-07-15_182936:540,-0.471283,-0.000488,-0.140808,-0.002779,0.001353,0.001258,-38.060001,-22.559998999999998,-8.68,3a
2019-07-15_182936:560,-0.47842399999999996,-0.0025329999999999997,-0.14032,-0.003054,0.0017809999999999998,0.001381,-38.060001,-22.559998999999998,-8.68,3a
2019-07-15_182936:580,-0.481476,-0.002014,-0.139282,-0.003939,0.002116,0.001167,-37.75,-22.18,-10.68,3a
2019-07-15_182936:600,-0.482483,-0.004059,-0.137268,-0.004091,0.002788,0.00132,-37.75,-22.18,-10.68,3a
2019-07-15_182936:620,-0.484009,-0.006072999999999999,-0.137268,-0.004152,0.004161,0.001442,-37.75,-22.18,-10.68,3a
2019-07-15_182936:640,-0.48349,-0.007111,-0.13623,-0.003939,0.005565,0.001503,-38.060001,-22.559998999999998,-10.25,3a
2019-07-15_182936:660,-0.47180200000000005,-0.009125,-0.135223,-0.003664,0.00648,0.0007700000000000001,-38.060001,-22.559998999999998,-10.25,3a
2019-07-15_182936:680,-0.48706099999999997,-0.012695,-0.130127,-0.002779,0.006236,0.001045,-38.869999,-23.0,-10.68,3a
2019-07-15_182936:700,-0.45553599999999994,-0.007599,-0.131165,-0.001986,0.004436,0.001106,-38.869999,-23.0,-10.68,3a
2019-07-15_182936:720,-0.46316499999999994,-0.006592,-0.131653,-0.001467,0.001842,-5.4000000000000005e-05,-38.869999,-23.0,-10.68,3a
2019-07-15_182936:740,-0.46469099999999997,-0.004059,-0.133698,-0.001467,0.00016299999999999998,-0.000176,-39.18,-23.0,-8.68,3a
2019-07-15_182936:760,-0.48043800000000003,-0.005065999999999999,-0.136749,-0.00165,-0.0008439999999999999,0.00016,-39.18,-23.0,-8.68,3a
2019-07-15_182936:780,-0.47995,-0.004547,-0.136749,-0.0020469999999999998,-0.000508,6.8e-05,-38.18,-23.0,-9.87,3a
2019-07-15_182936:800,-0.488068,-0.0035399999999999997,-0.138275,-0.002169,0.00016299999999999998,-5.4000000000000005e-05,-38.18,-23.0,-9.87,3a
2019-07-15_182936:820,-0.49517799999999995,-0.0055850000000000006,-0.135742,-0.002443,0.002177,6.8e-05,-38.18,-23.0,-9.87,3a
2019-07-15_182936:840,-0.489075,-0.0035399999999999997,-0.130646,-0.002779,0.004619,0.000465,-38.869999,-22.559998999999998,-9.87,3a
2019-07-15_182936:860,-0.48043800000000003,-0.0035399999999999997,-0.12658699999999998,-0.0029010000000000004,0.005779,0.001228,-38.869999,-22.559998999999998,-9.87,3a
2019-07-15_182936:880,-0.47842399999999996,-0.0055850000000000006,-0.128113,-0.002657,0.005748,0.001503,-38.869999,-23.0,-9.87,3a
2019-07-15_182936:900,-0.46469099999999997,-0.005065999999999999,-0.122528,-0.002535,0.005107,0.001381,-38.869999,-23.0,-9.87,3a
2019-07-15_182936:920,-0.46569799999999995,-0.001495,-0.12149000000000001,-0.002657,0.004375,0.001106,-38.869999,-23.0,-9.87,3a
2019-07-15_182936:940,-0.467224,0.0,-0.124054,-0.0032979999999999997,0.003886,0.001167,-37.75,-23.0,-9.5,3a
2019-07-15_182936:960,-0.46316499999999994,0.0035399999999999997,-0.12558,-0.004671,0.0024519999999999998,0.000984,-37.75,-23.0,-9.5,3a
2019-07-15_182936:980,-0.46060200000000007,0.001007,-0.12912,-0.006197,0.000346,0.001258,-39.560001,-22.559998999999998,-9.87,3a
2019-07-15_182937:000,-0.47689799999999993,-0.001007,-0.130646,-0.007448000000000001,-0.000661,0.001991,-39.560001,-22.559998999999998,-9.87,3a
2019-07-15_182937:020,-0.482483,-0.005065999999999999,-0.137268,-0.008608,-0.000722,0.003151,-39.560001,-22.559998999999998,-9.87,3a
2019-07-15_182937:040,-0.491638,-0.007599,-0.138275,-0.008912999999999999,0.000468,0.003975,-38.869999,-21.75,-9.87,3a
2019-07-15_182937:060,-0.49722299999999997,-0.012177,-0.134705,-0.009127,0.003124,0.003822,-38.869999,-21.75,-9.87,3a
2019-07-15_182937:080,-0.482483,-0.014740000000000001,-0.133179,-0.008333,0.006023,0.003761,-38.869999,-22.18,-8.68,3a
2019-07-15_182937:100,-0.467224,-0.017273,-0.130646,-0.007387,0.005901,0.003517,-38.869999,-22.18,-8.68,3a
2019-07-15_182937:120,-0.458588,-0.015228,-0.12912,-0.006319,0.0035810000000000004,0.003151,-38.869999,-22.18,-8.68,3a
2019-07-15_182937:140,-0.46569799999999995,-0.013213999999999998,-0.127106,-0.0058,0.002116,0.001838,-38.869999,-22.559998999999998,-9.06,3a
2019-07-15_182937:160,-0.463654,-0.017273,-0.12658699999999998,-0.005404,0.0008039999999999999,0.0007700000000000001,-38.869999,-22.559998999999998,-9.06,3a
2019-07-15_182937:180,-0.46417200000000003,-0.015747,-0.12454200000000001,-0.00461,-0.001454,-0.000512,-38.5,-22.559998999999998,-8.25,3a
2019-07-15_182937:200,-0.467224,-0.015747,-0.130646,-0.003176,-0.003285,-0.000664,-38.5,-22.559998999999998,-8.25,3a
2019-07-15_182937:220,-0.49316400000000005,-0.012695,-0.127594,-0.002535,-0.0033770000000000002,-0.001366,-38.5,-22.559998999999998,-8.25,3a
2019-07-15_182937:240,-0.474854,-0.013702,-0.128601,-0.001772,-0.000661,-0.0011220000000000002,-39.18,-21.75,-9.5,3a
2019-07-15_182937:260,-0.484009,-0.011169,-0.130127,-0.001009,-0.000386,-0.001366,-39.18,-21.75,-9.5,3a
2019-07-15_182937:280,-0.477386,-0.009125,-0.127106,-0.0006730000000000001,0.00022400000000000002,-0.000267,-37.75,-22.18,-9.06,3a
2019-07-15_182937:300,-0.47689799999999993,-0.008118,-0.127106,-0.000796,7.2e-05,0.000404,-37.75,-22.18,-9.06,3a
2019-07-15_182937:320,-0.477386,-0.006592,-0.129639,-0.001192,0.000407,0.000343,-37.75,-22.18,-9.06,3a
2019-07-15_182937:340,-0.469757,-0.008636,-0.13269,-0.0015279999999999998,0.000743,-0.00023700000000000001,-38.5,-23.0,-9.06,3a
2019-07-15_182937:360,-0.47433500000000006,-0.007111,-0.134216,-0.001986,-0.000233,-0.0013050000000000002,-38.5,-23.0,-9.06,3a
2019-07-15_182937:380,-0.47332799999999997,-0.009644,-0.134216,-0.002199,-0.0005690000000000001,-0.000512,-38.5,-23.0,-9.5,3a
2019-07-15_182937:400,-0.475372,-0.008636,-0.134216,-0.0022600000000000003,-0.00063,-0.000786,-38.5,-23.0,-9.5,3a
2019-07-15_182937:420,-0.47842399999999996,-0.008636,-0.134705,-0.001864,-0.000172,-0.0011220000000000002,-38.5,-23.0,-9.5,3a
2019-07-15_182937:440,-0.47842399999999996,-0.008118,-0.133698,-0.0015890000000000001,7.2e-05,-0.000573,-38.869999,-23.0,-8.68,3a
2019-07-15_182937:460,-0.472321,-0.005065999999999999,-0.134705,-0.001375,0.000499,0.00016,-38.869999,-23.0,-8.68,3a
2019-07-15_182937:480,-0.47842399999999996,-0.006072999999999999,-0.133698,-0.0018030000000000001,1.1e-05,0.000526,-38.5,-22.559998999999998,-9.87,3a
2019-07-15_182937:500,-0.47280900000000003,-0.004547,-0.131653,-0.002321,0.00056,0.000831,-38.5,-22.559998999999998,-9.87,3a
2019-07-15_182937:520,-0.471283,-0.004547,-0.134216,-0.002993,0.000346,0.000465,-38.5,-22.559998999999998,-9.87,3a
2019-07-15_182937:540,-0.46823100000000006,-0.005065999999999999,-0.13623,-0.003878,-0.0007830000000000001,7.000000000000001e-06,-38.060001,-22.18,-9.5,3a
2019-07-15_182937:560,-0.47433500000000006,-0.007111,-0.133698,-0.004213000000000001,-0.0018510000000000002,0.00016,-38.060001,-22.18,-9.5,3a
2019-07-15_182937:580,-0.46875,-0.007599,-0.138275,-0.004488000000000001,-0.001637,-0.000176,-38.060001,-22.18,-10.25,3a
2019-07-15_182937:600,-0.482483,-0.006072999999999999,-0.137756,-0.004213000000000001,-0.00179,-0.00011499999999999999,-38.060001,-22.18,-10.25,3a
2019-07-15_182937:620,-0.47943100000000005,-0.011169,-0.143372,-0.00339,-0.00237,0.00028199999999999997,-38.060001,-22.18,-10.25,3a
2019-07-15_182937:640,-0.47842399999999996,-0.007599,-0.145386,-0.0028399999999999996,-0.002522,0.0007700000000000001,-38.5,-23.0,-9.87,3a
2019-07-15_182937:660,-0.481476,-0.008118,-0.143372,-0.0022600000000000003,-0.001759,0.000923,-38.5,-23.0,-9.87,3a
2019-07-15_182937:680,-0.47995,-0.006592,-0.142334,-0.002199,-0.00063,0.001564,-38.869999,-23.0,-10.25,3a
2019-07-15_182937:700,-0.475861,-0.006072999999999999,-0.141327,-0.002382,0.000133,0.002052,-38.869999,-23.0,-10.25,3a
2019-07-15_182937:720,-0.47332799999999997,-0.006592,-0.142853,-0.003176,0.000499,0.001167,-38.869999,-23.0,-10.25,3a
2019-07-15_182937:740,-0.475372,-0.007111,-0.142853,-0.0036950000000000004,0.00022400000000000002,0.001045,-38.060001,-23.25,-10.68,3a
2019-07-15_182937:760,-0.47433500000000006,-0.009125,-0.142853,-0.004213000000000001,0.000743,0.000709,-38.060001,-23.25,-10.68,3a
2019-07-15_182937:780,-0.474854,-0.010651,-0.141846,-0.004549,0.001201,0.000984,-38.869999,-23.0,-10.25,3a
2019-07-15_182937:800,-0.47332799999999997,-0.013702,-0.141846,-0.004,0.001292,0.001106,-38.869999,-23.0,-10.25,3a
2019-07-15_182937:820,-0.46926899999999994,-0.011169,-0.141846,-0.003664,0.001292,0.001228,-38.869999,-23.0,-10.25,3a
2019-07-15_182937:840,-0.46926899999999994,-0.012177,-0.143372,-0.0029010000000000004,0.0008960000000000001,0.001564,-38.5,-23.0,-11.87,3a
2019-07-15_182937:860,-0.469757,-0.010651,-0.145386,-0.002535,0.000468,0.001442,-38.5,-23.0,-11.87,3a
2019-07-15_182937:880,-0.471283,-0.010162000000000001,-0.146423,-0.002535,0.000346,0.001625,-38.869999,-22.559998999999998,-11.06,3a
2019-07-15_182937:900,-0.473846,-0.009125,-0.147949,-0.0029010000000000004,0.000468,0.001381,-38.869999,-22.559998999999998,-11.06,3a
2019-07-15_182937:920,-0.47332799999999997,-0.010162000000000001,-0.14843800000000001,-0.003237,0.000682,0.001106,-38.869999,-22.559998999999998,-11.06,3a
2019-07-15_182937:940,-0.476379,-0.011687999999999999,-0.148956,-0.0033280000000000002,0.0008960000000000001,0.0007700000000000001,-38.869999,-23.0,-11.5,3a
2019-07-15_182937:960,-0.474854,-0.010651,-0.146423,-0.0036340000000000005,0.0012619999999999999,0.0007700000000000001,-38.869999,-23.0,-11.5,3a
2019-07-15_182937:980,-0.47689799999999993,-0.011169,-0.14743,-0.0036340000000000005,0.002116,0.000404,-38.869999,-22.559998999999998,-11.5,3a
2019-07-15_182938:000,-0.474854,-0.011687999999999999,-0.145905,-0.0037560000000000002,0.002696,0.000526,-38.869999,-22.559998999999998,-11.5,3a
2019-07-15_182938:020,-0.47332799999999997,-0.010651,-0.145386,-0.0036950000000000004,0.003124,0.000221,-38.869999,-22.559998999999998,-11.5,3a
2019-07-15_182938:040,-0.472321,-0.011169,-0.144379,-0.003573,0.00349,7.000000000000001e-06,-38.5,-22.559998999999998,-11.87,3a
2019-07-15_182938:060,-0.47079499999999996,-0.011169,-0.143372,-0.00339,0.003368,-5.4000000000000005e-05,-38.5,-22.559998999999998,-11.87,3a
2019-07-15_182938:080,-0.470276,-0.010651,-0.14386,-0.0032979999999999997,0.0031850000000000003,-5.4000000000000005e-05,-38.5,-23.0,-11.06,3a
2019-07-15_182938:100,-0.471283,-0.009644,-0.142334,-0.003054,0.002757,6.8e-05,-38.5,-23.0,-11.06,3a
2019-07-15_182938:120,-0.47180200000000005,-0.009125,-0.142334,-0.003054,0.0024519999999999998,-0.000512,-38.5,-23.0,-11.06,3a
2019-07-15_182938:140,-0.472321,-0.008118,-0.140808,-0.003176,0.002574,7.000000000000001e-06,-38.5,-22.559998999999998,-10.68,3a
2019-07-15_182938:160,-0.475372,-0.008636,-0.141327,-0.003054,0.002391,0.001167,-38.5,-22.559998999999998,-10.68,3a
2019-07-15_182938:180,-0.47180200000000005,-0.008118,-0.140808,-0.003573,0.0024519999999999998,0.000648,-38.18,-22.559998999999998,-11.87,3a
2019-07-15_182938:200,-0.47332799999999997,-0.009125,-0.140808,-0.003664,0.0023,0.000709,-38.18,-22.559998999999998,-11.87,3a
2019-07-15_182938:220,-0.47180200000000005,-0.008636,-0.141327,-0.003878,0.001994,-0.000176,-38.18,-22.559998999999998,-11.87,3a
2019-07-15_182938:240,-0.47332799999999997,-0.009125,-0.142334,-0.004,0.0017809999999999998,7.000000000000001e-06,-38.5,-23.0,-10.68,3a
2019-07-15_182938:260,-0.474854,-0.009125,-0.140808,-0.003939,0.001842,0.000648,-38.5,-23.0,-10.68,3a
2019-07-15_182938:280,-0.475372,-0.011169,-0.142334,-0.00403,0.0023,0.0007700000000000001,-38.869999,-22.559998999999998,-9.87,3a
2019-07-15_182938:300,-0.47433500000000006,-0.010162000000000001,-0.14032,-0.004275,0.002635,0.000587,-38.869999,-22.559998999999998,-9.87,3a
2019-07-15_182938:320,-0.47332799999999997,-0.010651,-0.141846,-0.004397,0.002574,0.000465,-38.869999,-22.559998999999998,-9.87,3a
2019-07-15_182938:340,-0.47433500000000006,-0.010162000000000001,-0.14032,-0.004427,0.002361,0.000526,-38.869999,-22.559998999999998,-10.25,3a
2019-07-15_182938:360,-0.475372,-0.011169,-0.138275,-0.004793,0.002361,0.000587,-38.869999,-22.559998999999998,-10.25,3a
2019-07-15_182938:380,-0.47332799999999997,-0.012695,-0.138275,-0.004671,0.0024519999999999998,0.000465,-38.5,-23.0,-9.87,3a
2019-07-15_182938:400,-0.474854,-0.013213999999999998,-0.138794,-0.004336,0.002391,-5.4000000000000005e-05,-38.5,-23.0,-9.87,3a
2019-07-15_182938:420,-0.47180200000000005,-0.012177,-0.137756,-0.004152,0.002391,7.000000000000001e-06,-38.5,-23.0,-9.87,3a
2019-07-15_182938:440,-0.47332799999999997,-0.011169,-0.138794,-0.003817,0.0023,6.8e-05,-39.18,-22.18,-10.68,3a
2019-07-15_182938:460,-0.475372,-0.009644,-0.137268,-0.0032979999999999997,0.002177,-0.000786,-39.18,-22.18,-10.68,3a
2019-07-15_182938:480,-0.473846,-0.009125,-0.138275,-0.002993,0.002055,-0.000512,-39.18,-22.18,-10.68,3a
2019-07-15_182938:500,-0.475861,-0.008118,-0.137756,-0.0025960000000000002,0.002116,-0.000328,-39.18,-22.18,-10.68,3a
2019-07-15_182938:520,-0.475372,-0.006072999999999999,-0.138275,-0.002718,0.002239,0.00016,-39.18,-22.18,-10.68,3a
2019-07-15_182938:540,-0.474854,-0.006592,-0.138275,-0.002932,0.002239,0.00028199999999999997,-38.060001,-22.18,-10.25,3a
2019-07-15_182938:560,-0.476379,-0.0055850000000000006,-0.137756,-0.0034509999999999996,0.002177,0.000221,-38.060001,-22.18,-10.25,3a
2019-07-15_182938:580,-0.476379,-0.006592,-0.137268,-0.0037560000000000002,0.002391,0.000221,-38.5,-23.0,-10.25,3a
2019-07-15_182938:600,-0.473846,-0.008118,-0.135742,-0.004213000000000001,0.002757,0.000221,-38.5,-23.0,-10.25,3a
2019-07-15_182938:620,-0.47433500000000006,-0.008118,-0.135223,-0.004213000000000001,0.002574,0.00028199999999999997,-38.5,-23.0,-10.25,3a
2019-07-15_182938:640,-0.47433500000000006,-0.007599,-0.135742,-0.004275,0.002239,0.000709,-38.060001,-22.559998999999998,-11.5,3a
2019-07-15_182938:660,-0.473846,-0.008118,-0.13623,-0.004275,0.0023,0.000709,-38.060001,-22.559998999999998,-11.5,3a
2019-07-15_182938:680,-0.475372,-0.008636,-0.135223,-0.004336,0.002055,0.000648,-38.5,-23.0,-10.25,3a
2019-07-15_182938:700,-0.476379,-0.009644,-0.133698,-0.004213000000000001,0.002177,0.000709,-38.5,-23.0,-10.25,3a
2019-07-15_182938:720,-0.477905,-0.010162000000000001,-0.135742,-0.003939,0.002239,0.000465,-38.5,-23.0,-10.25,3a
2019-07-15_182938:740,-0.475861,-0.008118,-0.135223,-0.003878,0.002391,0.000465,-38.060001,-22.18,-10.25,3a
2019-07-15_182938:760,-0.47332799999999997,-0.008636,-0.135223,-0.003817,0.002055,0.000404,-38.060001,-22.18,-10.25,3a
2019-07-15_182938:780,-0.477386,-0.008118,-0.134705,-0.0036340000000000005,0.001598,0.000709,-38.060001,-22.559998999999998,-10.68,3a
2019-07-15_182938:800,-0.481476,-0.007599,-0.133179,-0.0036950000000000004,0.002116,0.00028199999999999997,-38.060001,-22.559998999999998,-10.68,3a
2019-07-15_182938:820,-0.472321,-0.007599,-0.134216,-0.004152,0.002757,0.000404,-38.060001,-22.559998999999998,-10.68,3a
2019-07-15_182938:840,-0.46823100000000006,-0.009644,-0.137756,-0.004427,0.002788,0.0007700000000000001,-39.18,-23.0,-10.25,3a
2019-07-15_182938:860,-0.46569799999999995,-0.008118,-0.138275,-0.004793,0.002239,0.000648,-39.18,-23.0,-10.25,3a
2019-07-15_182938:880,-0.47433500000000006,-0.010162000000000001,-0.137756,-0.005007,0.0009570000000000001,0.00016,-38.869999,-23.0,-12.25,3a
2019-07-15_182938:900,-0.47433500000000006,-0.010651,-0.135223,-0.005221,0.0008039999999999999,-0.000328,-38.869999,-23.0,-12.25,3a
2019-07-15_182938:920,-0.477905,-0.012177,-0.13623,-0.004824,0.0008960000000000001,0.000221,-38.869999,-23.0,-12.25,3a
2019-07-15_182938:940,-0.47689799999999993,-0.011687999999999999,-0.13623,-0.004336,0.001353,0.000404,-39.18,-22.559998999999998,-9.87,3a
2019-07-15_182938:960,-0.475861,-0.009125,-0.13623,-0.003664,0.0019030000000000002,-5.4000000000000005e-05,-39.18,-22.559998999999998,-9.87,3a
2019-07-15_182938:980,-0.47180200000000005,-0.007111,-0.137268,-0.003237,0.001598,-5.4000000000000005e-05,-39.560001,-23.0,-10.68,3a
2019-07-15_182939:000,-0.47433500000000006,-0.008118,-0.138794,-0.0029010000000000004,0.0009570000000000001,0.000984,-39.560001,-23.0,-10.68,3a
2019-07-15_182939:020,-0.473846,-0.007111,-0.135223,-0.003176,0.0010789999999999999,0.0008619999999999999,-39.560001,-23.0,-10.68,3a
2019-07-15_182939:040,-0.478912,-0.006072999999999999,-0.139282,-0.0034509999999999996,0.0012619999999999999,0.000404,-38.5,-22.559998999999998,-10.68,3a
2019-07-15_182939:060,-0.47689799999999993,-0.006072999999999999,-0.138275,-0.0036950000000000004,0.001537,-0.00045099999999999996,-38.5,-22.559998999999998,-10.68,3a
2019-07-15_182939:080,-0.477386,-0.006072999999999999,-0.139282,-0.004,0.002055,0.000221,-37.75,-23.0,-9.87,3a
2019-07-15_182939:100,-0.475372,-0.007599,-0.138794,-0.004152,0.002757,0.000709,-37.75,-23.0,-9.87,3a
2019-07-15_182939:120,-0.473846,-0.0055850000000000006,-0.136749,-0.004091,0.0029100000000000003,0.001045,-37.75,-23.0,-9.87,3a
2019-07-15_182939:140,-0.47433500000000006,-0.006592,-0.135742,-0.00403,0.0024519999999999998,0.000984,-38.869999,-22.559998999999998,-10.68,3a
2019-07-15_182939:160,-0.47332799999999997,-0.006072999999999999,-0.135742,-0.004549,0.002391,0.000587,-38.869999,-22.559998999999998,-10.68,3a
2019-07-15_182939:180,-0.472321,-0.006592,-0.137268,-0.004824,0.001964,0.000709,-39.560001,-23.0,-9.5,3a
2019-07-15_182939:200,-0.471283,-0.008636,-0.136749,-0.004946,0.001292,0.000221,-39.560001,-23.0,-9.5,3a
2019-07-15_182939:220,-0.474854,-0.008118,-0.137756,-0.004427,0.001292,-0.00023700000000000001,-39.560001,-23.0,-9.5,3a
2019-07-15_182939:240,-0.476379,-0.011687999999999999,-0.14032,-0.004336,0.0012619999999999999,-0.000725,-38.5,-23.0,-9.87,3a
2019-07-15_182939:260,-0.488068,-0.011169,-0.13623,-0.0036340000000000005,0.002391,-0.000267,-38.5,-23.0,-9.87,3a
2019-07-15_182939:280,-0.478912,-0.008118,-0.138275,-0.0031149999999999997,0.004039,0.000129,-38.5,-22.559998999999998,-11.06,3a
2019-07-15_182939:300,-0.462128,-0.008118,-0.138275,-0.0028399999999999996,0.003093,-0.00045099999999999996,-38.5,-22.559998999999998,-11.06,3a
2019-07-15_182939:320,-0.47079499999999996,-0.005065999999999999,-0.133698,-0.0025050000000000003,0.0023,0.00028199999999999997,-38.5,-22.559998999999998,-11.06,3a
2019-07-15_182939:340,-0.473846,-0.005065999999999999,-0.135223,-0.0031149999999999997,0.001964,0.000221,-38.869999,-22.559998999999998,-10.68,3a
2019-07-15_182939:360,-0.474854,-0.004547,-0.133698,-0.0037560000000000002,0.00172,0.00028199999999999997,-38.869999,-22.559998999999998,-10.68,3a
2019-07-15_182939:380,-0.47689799999999993,-0.005065999999999999,-0.134705,-0.004427,0.002239,0.000465,-38.5,-22.18,-10.68,3a
2019-07-15_182939:400,-0.47280900000000003,-0.006072999999999999,-0.133698,-0.004671,0.002361,0.00016,-38.5,-22.18,-10.68,3a
2019-07-15_182939:420,-0.474854,-0.006072999999999999,-0.13623,-0.004793,0.001994,0.000465,-38.5,-22.18,-10.68,3a
2019-07-15_182939:440,-0.477386,-0.008118,-0.135223,-0.00461,0.001842,0.00016,-38.5,-22.559998999999998,-10.25,3a
2019-07-15_182939:460,-0.48043800000000003,-0.007599,-0.133179,-0.004275,0.002391,0.00028199999999999997,-38.5,-22.559998999999998,-10.25,3a
2019-07-15_182939:480,-0.478912,-0.009644,-0.134216,-0.0037560000000000002,0.002971,0.000587,-38.869999,-22.559998999999998,-9.5,3a
2019-07-15_182939:500,-0.477386,-0.008636,-0.133179,-0.00339,0.002971,0.000587,-38.869999,-22.559998999999998,-9.5,3a
2019-07-15_182939:520,-0.475861,-0.006072999999999999,-0.134216,-0.003054,0.003032,0.000831,-38.869999,-22.559998999999998,-9.5,3a
2019-07-15_182939:540,-0.474854,-0.006592,-0.133179,-0.0029010000000000004,0.002971,0.000709,-38.18,-23.25,-9.5,3a
2019-07-15_182939:560,-0.47332799999999997,-0.005065999999999999,-0.13269,-0.003237,0.0029100000000000003,0.0007700000000000001,-38.18,-23.25,-9.5,3a
2019-07-15_182939:580,-0.473846,-0.005065999999999999,-0.131653,-0.003664,0.002757,0.0008619999999999999,-38.5,-23.0,-9.5,3a
2019-07-15_182939:600,-0.46926899999999994,-0.006072999999999999,-0.131165,-0.004336,0.002696,0.000648,-38.5,-23.0,-9.5,3a
2019-07-15_182939:620,-0.472321,-0.007111,-0.13269,-0.00461,0.001994,0.000587,-38.5,-23.0,-9.5,3a
2019-07-15_182939:640,-0.47332799999999997,-0.008118,-0.130127,-0.0048850000000000005,0.001628,0.0008619999999999999,-38.869999,-22.559998999999998,-9.87,3a
2019-07-15_182939:660,-0.47332799999999997,-0.009644,-0.130127,-0.0048850000000000005,0.00114,0.000831,-38.869999,-22.559998999999998,-9.87,3a
2019-07-15_182939:680,-0.47433500000000006,-0.010162000000000001,-0.133698,-0.00461,0.0008039999999999999,0.0008619999999999999,-38.869999,-23.0,-9.87,3a
2019-07-15_182939:700,-0.474854,-0.010162000000000001,-0.13269,-0.004213000000000001,0.000865,0.000709,-38.869999,-23.0,-9.87,3a
2019-07-15_182939:720,-0.476379,-0.009125,-0.135742,-0.004152,0.000682,0.000648,-38.869999,-23.0,-9.87,3a
2019-07-15_182939:740,-0.477386,-0.009125,-0.134705,-0.003664,0.000865,0.000526,-38.5,-23.25,-9.87,3a
2019-07-15_182939:760,-0.47689799999999993,-0.009125,-0.135742,-0.0036340000000000005,0.001353,0.000465,-38.5,-23.25,-9.87,3a
2019-07-15_182939:780,-0.476379,-0.008118,-0.13623,-0.003237,0.0012619999999999999,0.000404,-39.18,-22.559998999999998,-10.68,3a
2019-07-15_182939:800,-0.475861,-0.008636,-0.135742,-0.003237,0.0014759999999999999,7.000000000000001e-06,-39.18,-22.559998999999998,-10.68,3a
2019-07-15_182939:820,-0.475861,-0.006592,-0.134705,-0.002932,0.001598,0.00016,-39.18,-22.559998999999998,-10.68,3a
2019-07-15_182939:840,-0.477386,-0.006072999999999999,-0.134216,-0.003054,0.001598,0.001258,-38.5,-23.0,-10.68,3a
2019-07-15_182939:860,-0.47332799999999997,-0.0055850000000000006,-0.134216,-0.0036950000000000004,0.001598,0.001258,-38.5,-23.0,-10.68,3a
2019-07-15_182939:880,-0.475372,-0.006592,-0.13623,-0.003878,0.0014759999999999999,0.000587,-38.5,-22.559998999999998,-10.25,3a
2019-07-15_182939:900,-0.47332799999999997,-0.008636,-0.135223,-0.004336,0.001201,-0.000389,-38.5,-22.559998999999998,-10.25,3a
2019-07-15_182939:920,-0.474854,-0.007599,-0.134705,-0.004275,0.001201,-5.4000000000000005e-05,-38.5,-22.559998999999998,-10.25,3a
2019-07-15_182939:940,-0.475372,-0.009644,-0.13623,-0.004,0.0010789999999999999,0.000526,-38.869999,-22.559998999999998,-9.87,3a
2019-07-15_182939:960,-0.474854,-0.009644,-0.134216,-0.003512,0.0010789999999999999,0.000465,-38.869999,-22.559998999999998,-9.87,3a
2019-07-15_182939:980,-0.477386,-0.007599,-0.13623,-0.003237,0.001598,0.000221,-38.060001,-23.25,-10.68,3a
2019-07-15_182940:000,-0.474854,-0.007599,-0.13623,-0.0032979999999999997,0.0017809999999999998,0.00028199999999999997,-38.060001,-23.25,-10.68,3a
2019-07-15_182940:020,-0.47689799999999993,-0.006592,-0.13623,-0.0034509999999999996,0.001628,0.000465,-38.060001,-23.25,-10.68,3a
2019-07-15_182940:040,-0.47332799999999997,-0.005065999999999999,-0.136749,-0.0037560000000000002,0.0016589999999999999,0.000648,-39.18,-22.559998999999998,-9.87,3a
2019-07-15_182940:060,-0.47433500000000006,-0.007599,-0.134216,-0.003939,0.0014759999999999999,0.0008619999999999999,-39.18,-22.559998999999998,-9.87,3a
2019-07-15_182940:080,-0.47332799999999997,-0.007111,-0.135742,-0.004213000000000001,0.001415,0.000831,-38.869999,-22.18,-9.87,3a
2019-07-15_182940:100,-0.47433500000000006,-0.006072999999999999,-0.134705,-0.004488000000000001,0.00114,0.0007700000000000001,-38.869999,-22.18,-9.87,3a
2019-07-15_182940:120,-0.473846,-0.008636,-0.134216,-0.004549,0.001018,0.000984,-38.869999,-22.18,-9.87,3a
2019-07-15_182940:140,-0.472321,-0.008636,-0.134216,-0.004732,0.001292,0.00028199999999999997,-38.869999,-22.18,-10.25,3a
2019-07-15_182940:160,-0.475372,-0.008636,-0.136749,-0.004427,0.001018,0.000496,-38.869999,-22.18,-10.25,3a
2019-07-15_182940:180,-0.476379,-0.008636,-0.137268,-0.004336,0.0009570000000000001,0.000526,-38.869999,-22.18,-11.06,3a
2019-07-15_182940:200,-0.48095699999999997,-0.008118,-0.135223,-0.004,0.001537,0.000496,-38.869999,-22.18,-11.06,3a
2019-07-15_182940:220,-0.476379,-0.008636,-0.137756,-0.0036950000000000004,0.002239,0.000465,-38.869999,-22.18,-11.06,3a
2019-07-15_182940:240,-0.475372,-0.006592,-0.135742,-0.0037560000000000002,0.0023,0.000526,-38.869999,-22.559998999999998,-10.68,3a
2019-07-15_182940:260,-0.47433500000000006,-0.0055850000000000006,-0.134705,-0.003817,0.002177,0.000404,-38.869999,-22.559998999999998,-10.68,3a
2019-07-15_182940:280,-0.475861,-0.006072999999999999,-0.135223,-0.004,0.0023,0.000831,-38.060001,-23.0,-9.87,3a
2019-07-15_182940:300,-0.47842399999999996,-0.008118,-0.133179,-0.00403,0.002361,0.000709,-38.060001,-23.0,-9.87,3a
2019-07-15_182940:320,-0.474854,-0.008636,-0.133179,-0.004152,0.002239,0.000465,-38.060001,-23.0,-9.87,3a
2019-07-15_182940:340,-0.47689799999999993,-0.006592,-0.133698,-0.003939,0.0023,0.000526,-38.5,-23.0,-11.06,3a
2019-07-15_182940:360,-0.477386,-0.007599,-0.133698,-0.0037560000000000002,0.002574,0.000526,-38.5,-23.0,-11.06,3a
2019-07-15_182940:380,-0.47689799999999993,-0.0055850000000000006,-0.134705,-0.003664,0.0024519999999999998,0.0007700000000000001,-38.5,-23.25,-9.87,3a
2019-07-15_182940:400,-0.47689799999999993,-0.005065999999999999,-0.131165,-0.003512,0.002757,0.000831,-38.5,-23.25,-9.87,3a
2019-07-15_182940:420,-0.475372,-0.007111,-0.131653,-0.0037560000000000002,0.002849,0.000923,-38.5,-23.25,-9.87,3a
2019-07-15_182940:440,-0.477386,-0.006072999999999999,-0.13269,-0.003817,0.002788,0.0008619999999999999,-38.869999,-22.559998999999998,-9.87,3a
2019-07-15_182940:460,-0.474854,-0.007599,-0.131165,-0.004152,0.002788,0.000831,-38.869999,-22.559998999999998,-9.87,3a
2019-07-15_182940:480,-0.47433500000000006,-0.007599,-0.131165,-0.00403,0.002574,0.000709,-39.18,-22.559998999999998,-9.87,3a
2019-07-15_182940:500,-0.473846,-0.008636,-0.130127,-0.004152,0.002391,0.0008619999999999999,-39.18,-22.559998999999998,-9.87,3a
2019-07-15_182940:520,-0.475372,-0.008636,-0.131165,-0.004,0.001994,0.000648,-39.18,-22.559998999999998,-9.87,3a
2019-07-15_182940:540,-0.47433500000000006,-0.008636,-0.131165,-0.003939,0.0019030000000000002,0.000709,-38.5,-23.0,-10.25,3a
