timestamp,AccX,AccY,AccZ,GyroX,GyroY,GyroZ,MagX,MagY,MagZ,Activity
2019-07-15_181628:240,-0.420959,-0.024902,-0.26181,-0.006136,0.000133,0.00016,-43.0,1.0,-4.56,2d
2019-07-15_181628:260,-0.43518100000000004,-0.021851,-0.259796,-0.004275,0.000133,-0.0017629999999999998,-43.369999,1.37,-5.0,2d
2019-07-15_181628:280,-0.44638100000000003,-0.015747,-0.253693,-0.0029010000000000004,0.0016589999999999999,-0.00277,-43.369999,1.37,-5.0,2d
2019-07-15_181628:300,-0.438751,-0.006592,-0.248108,-0.003237,0.0042829999999999995,-0.001397,-43.369999,1.37,-5.37,2d
2019-07-15_181628:320,-0.420441,-0.009125,-0.24758899999999998,-0.004152,0.005351,0.003181,-43.369999,1.37,-5.37,2d
2019-07-15_181628:340,-0.411804,-0.011687999999999999,-0.248108,-0.005556,0.004314,0.004158,-43.369999,1.37,-5.37,2d
2019-07-15_181628:360,-0.41943400000000003,-0.01828,-0.248596,-0.0064719999999999995,0.002361,0.003517,-42.25,1.75,-4.56,2d
2019-07-15_181628:380,-0.40570100000000003,-0.020325,-0.25317399999999995,-0.0064719999999999995,0.000407,0.002754,-42.25,1.75,-4.56,2d
2019-07-15_181628:400,-0.42147799999999996,-0.018799,-0.25827,-0.006319,-0.001027,0.000709,-42.560001,1.75,-4.56,2d
2019-07-15_181628:420,-0.427063,-0.019806,-0.256744,-0.006014,-0.000722,-0.000176,-42.560001,1.75,-4.56,2d
2019-07-15_181628:440,-0.433655,-0.018799,-0.260803,-0.004671,0.000133,-0.000664,-42.560001,1.75,-4.56,2d
2019-07-15_181628:460,-0.434692,-0.014740000000000001,-0.259796,-0.003817,0.0019030000000000002,-0.0009689999999999999,-43.75,1.0,-3.37,2d
2019-07-15_181628:480,-0.433655,-0.012177,-0.259277,-0.003054,0.003368,-0.00023700000000000001,-43.75,1.0,-3.37,2d
2019-07-15_181628:500,-0.42858900000000005,-0.008636,-0.25827,-0.003054,0.004619,0.0008619999999999999,-43.0,1.0,-5.37,2d
2019-07-15_181628:520,-0.427063,-0.0055850000000000006,-0.256226,-0.003664,0.005412,0.002052,-43.0,1.0,-5.37,2d
2019-07-15_181628:540,-0.42401099999999997,-0.006592,-0.25317399999999995,-0.004824,0.005626,0.0029059999999999997,-43.0,1.0,-5.37,2d
2019-07-15_181628:560,-0.417908,-0.008118,-0.25116,-0.00635,0.005351,0.003486,-43.75,1.0,-5.0,2d
2019-07-15_181628:580,-0.417389,-0.009644,-0.250641,-0.007815,0.004314,0.003975,-43.75,1.0,-5.0,2d
2019-07-15_181628:600,-0.420959,-0.006592,-0.250641,-0.008912999999999999,0.002635,0.004615,-42.560001,1.0,-4.18,2d
2019-07-15_181628:620,-0.43621800000000005,-0.0035399999999999997,-0.248596,-0.010653,0.002361,0.005684000000000001,-42.560001,1.0,-4.18,2d
2019-07-15_181628:640,-0.445374,-0.004059,-0.252686,-0.013033000000000001,0.003825,0.007087,-42.560001,1.0,-4.18,2d
2019-07-15_181628:660,-0.440796,-0.005065999999999999,-0.25012199999999996,-0.015413,0.006297,0.007698,-43.0,1.37,-4.18,2d
2019-07-15_181628:680,-0.42807,-0.0055850000000000006,-0.250641,-0.018007,0.007945,0.008216,-43.0,1.37,-4.18,2d
2019-07-15_181628:700,-0.426544,-0.007599,-0.250641,-0.020083,0.008403,0.008339,-43.0,1.0,-4.56,2d
2019-07-15_181628:720,-0.42453,-0.009644,-0.24758899999999998,-0.021792,0.007945,0.008491,-43.0,1.0,-4.56,2d
2019-07-15_181628:740,-0.42453,-0.013702,-0.248108,-0.022738,0.007091,0.008827,-43.0,1.0,-4.56,2d
2019-07-15_181628:760,-0.42453,-0.017273,-0.245544,-0.022799,0.006572,0.007942,-43.369999,1.37,-3.37,2d
2019-07-15_181628:780,-0.425018,-0.016266,-0.244019,-0.022188,0.005748,0.007087,-43.369999,1.37,-3.37,2d
2019-07-15_181628:800,-0.427063,-0.013702,-0.244019,-0.021731,0.005229,0.006965000000000001,-42.560001,2.5,-3.37,2d
2019-07-15_181628:820,-0.42858900000000005,-0.012695,-0.242004,-0.021212,0.004649,0.006874,-42.560001,2.5,-3.37,2d
2019-07-15_181628:840,-0.42758199999999996,-0.013213999999999998,-0.239441,-0.020418000000000002,0.004436,0.00663,-42.560001,2.5,-3.37,2d
2019-07-15_181628:860,-0.431122,-0.013702,-0.23895300000000003,-0.019961000000000003,0.003825,0.0061719999999999995,-43.369999,2.06,-3.75,2d
2019-07-15_181628:880,-0.431641,-0.012695,-0.235382,-0.019076,0.0035810000000000004,0.005836,-43.369999,2.06,-3.75,2d
2019-07-15_181628:900,-0.432159,-0.010162000000000001,-0.23590100000000003,-0.018892,0.0035810000000000004,0.0055,-43.369999,2.5,-3.37,2d
2019-07-15_181628:920,-0.429596,-0.010162000000000001,-0.235382,-0.018618,0.002788,0.005622,-43.369999,2.5,-3.37,2d
2019-07-15_181628:940,-0.430634,-0.011169,-0.23895300000000003,-0.018221,0.001628,0.0061719999999999995,-43.369999,2.5,-3.37,2d
2019-07-15_181628:960,-0.42758199999999996,-0.011169,-0.236389,-0.018007,0.001018,0.006569,-43.0,3.18,-2.56,2d
2019-07-15_181628:980,-0.42605600000000005,-0.012177,-0.236389,-0.017611,0.000468,0.006416,-43.0,3.18,-2.56,2d
2019-07-15_181629:000,-0.429596,-0.012177,-0.237427,-0.016817,0.00022400000000000002,0.00663,-43.369999,3.18,-4.18,2d
2019-07-15_181629:020,-0.426544,-0.011687999999999999,-0.237427,-0.016482,0.00016299999999999998,0.006233,-43.369999,3.18,-4.18,2d
2019-07-15_181629:040,-0.42758199999999996,-0.010651,-0.243011,-0.016298,-0.000386,0.005958,-43.369999,3.18,-4.18,2d
2019-07-15_181629:060,-0.43011499999999997,-0.012695,-0.243011,-0.015902,-0.0008439999999999999,0.006476999999999999,-41.869999,3.56,-3.75,2d
2019-07-15_181629:080,-0.432648,-0.013702,-0.24353000000000002,-0.015749000000000003,-0.0008439999999999999,0.006476999999999999,-41.869999,3.56,-3.75,2d
2019-07-15_181629:100,-0.43823199999999995,-0.014740000000000001,-0.24453699999999998,-0.015627000000000002,-0.000661,0.006934999999999999,-43.75,3.56,-3.37,2d
2019-07-15_181629:120,-0.44027700000000003,-0.017273,-0.24453699999999998,-0.01523,0.000468,0.00727,-43.75,3.56,-3.37,2d
2019-07-15_181629:140,-0.432648,-0.018799,-0.246063,-0.014559,0.0016589999999999999,0.00663,-43.75,3.56,-3.37,2d
2019-07-15_181629:160,-0.42758199999999996,-0.019806,-0.248596,-0.013308,0.002055,0.004829,-43.0,3.18,-3.37,2d
2019-07-15_181629:180,-0.429108,-0.015747,-0.248596,-0.012057,0.0016589999999999999,0.002967,-43.0,3.18,-3.37,2d
2019-07-15_181629:200,-0.426544,-0.014740000000000001,-0.24758899999999998,-0.010988,0.0017809999999999998,0.002449,-42.25,4.0,-4.18,2d
2019-07-15_181629:220,-0.427063,-0.015228,-0.246063,-0.010531,0.0019030000000000002,0.003578,-42.25,4.0,-4.18,2d
2019-07-15_181629:240,-0.42453,-0.016266,-0.24658200000000002,-0.009646,0.002116,0.004707,-42.25,4.0,-4.18,2d
2019-07-15_181629:260,-0.42453,-0.015228,-0.24658200000000002,-0.009066,0.001842,0.005012,-42.25,4.0,-3.37,2d
2019-07-15_181629:280,-0.43011499999999997,-0.018799,-0.24658200000000002,-0.008211,0.0019030000000000002,0.006019,-42.25,4.0,-3.37,2d
2019-07-15_181629:300,-0.433655,-0.019318000000000002,-0.24758899999999998,-0.007204,0.0023,0.005561,-43.0,4.68,-4.18,2d
2019-07-15_181629:320,-0.432159,-0.016266,-0.239441,-0.006869,0.002788,0.005409000000000001,-43.0,4.68,-4.18,2d
2019-07-15_181629:340,-0.429596,-0.014221000000000001,-0.23995999999999998,-0.0069299999999999995,0.002788,0.005622,-43.0,4.68,-4.18,2d
2019-07-15_181629:360,-0.418915,-0.012695,-0.230804,-0.007815,0.0023,0.005287,-42.25,4.25,-3.75,2d
2019-07-15_181629:380,-0.423492,-0.011687999999999999,-0.245544,-0.009585,0.00022400000000000002,0.00489,-42.25,4.25,-3.75,2d
2019-07-15_181629:400,-0.411804,-0.014221000000000001,-0.245056,-0.011507,-0.001973,0.004371,-43.0,4.25,-4.56,2d
2019-07-15_181629:420,-0.411804,-0.017273,-0.24453699999999998,-0.013033000000000001,-0.0046890000000000005,0.002388,-43.0,4.25,-4.56,2d
2019-07-15_181629:440,-0.410278,-0.017792,-0.245056,-0.013827,-0.007069,0.001167,-43.0,4.25,-4.56,2d
2019-07-15_181629:460,-0.416901,-0.018799,-0.249115,-0.014100999999999999,-0.008809,-0.00045099999999999996,-43.0,4.0,-5.0,2d
2019-07-15_181629:480,-0.42453,-0.01828,-0.25317399999999995,-0.013918,-0.00948,-0.003624,-43.0,4.0,-5.0,2d
2019-07-15_181629:500,-0.426544,-0.012695,-0.2547,-0.013430000000000001,-0.009145,-0.006096,-42.560001,4.25,-5.75,2d
2019-07-15_181629:520,-0.42605600000000005,-0.009125,-0.257233,-0.012758,-0.008473,-0.0066760000000000005,-42.560001,4.25,-5.75,2d
2019-07-15_181629:540,-0.42758199999999996,-0.0055850000000000006,-0.258759,-0.012697,-0.007679999999999999,-0.00689,-42.560001,4.25,-5.75,2d
2019-07-15_181629:560,-0.429108,-0.001495,-0.259796,-0.012758,-0.006551,-0.006371,-42.25,4.68,-5.37,2d
2019-07-15_181629:580,-0.425018,0.000488,-0.25827,-0.012118,-0.005482,-0.006371,-42.25,4.68,-5.37,2d
2019-07-15_181629:600,-0.423004,0.0035399999999999997,-0.260803,-0.011446,-0.004842,-0.0066760000000000005,-42.560001,3.56,-5.75,2d
2019-07-15_181629:620,-0.41842700000000005,0.005065999999999999,-0.261322,-0.010714,-0.004842,-0.006096,-42.560001,3.56,-5.75,2d
2019-07-15_181629:640,-0.416901,0.010162000000000001,-0.262329,-0.009706999999999999,-0.0054210000000000005,-0.004692,-42.560001,3.56,-5.75,2d
2019-07-15_181629:660,-0.417908,0.008636,-0.266388,-0.009249,-0.005574,-0.003167,-41.5,3.56,-5.37,2d
2019-07-15_181629:680,-0.416901,0.010651,-0.267426,-0.009309999999999999,-0.00536,-0.00216,-41.5,3.56,-5.37,2d
2019-07-15_181629:700,-0.420959,0.008118,-0.272003,-0.009066,-0.005299,-0.000725,-44.060001,3.18,-5.75,2d
2019-07-15_181629:720,-0.42401099999999997,0.009644,-0.26944,-0.008791,-0.00475,-0.000634,-44.060001,3.18,-5.75,2d
2019-07-15_181629:740,-0.425018,0.008118,-0.267914,-0.00812,-0.0027660000000000002,0.000709,-44.060001,3.18,-5.75,2d
2019-07-15_181629:760,-0.420959,0.005065999999999999,-0.26944,-0.007051999999999999,-0.0008439999999999999,0.001228,-42.25,3.18,-6.56,2d
2019-07-15_181629:780,-0.41995200000000005,0.008118,-0.26944,-0.0064719999999999995,0.000499,0.000221,-42.25,3.18,-6.56,2d
2019-07-15_181629:800,-0.416382,0.010162000000000001,-0.266907,-0.005526,0.001018,0.001381,-42.560001,3.18,-7.0,2d
2019-07-15_181629:820,-0.416382,0.008636,-0.267426,-0.005007,0.000621,0.002571,-42.560001,3.18,-7.0,2d
2019-07-15_181629:840,-0.41485600000000006,0.009125,-0.267426,-0.004793,-0.000386,0.002449,-42.560001,3.18,-7.0,2d
2019-07-15_181629:860,-0.423004,0.010162000000000001,-0.268951,-0.004275,-0.001576,0.003517,-43.369999,3.56,-6.56,2d
2019-07-15_181629:880,-0.427063,0.010651,-0.268433,-0.004091,-0.00179,0.00428,-43.369999,3.56,-6.56,2d
2019-07-15_181629:900,-0.42858900000000005,0.010651,-0.268433,-0.004213000000000001,-0.00044699999999999997,0.003975,-42.560001,3.18,-6.18,2d
2019-07-15_181629:920,-0.429108,0.009125,-0.2659,-0.004336,0.0012619999999999999,0.004158,-42.560001,3.18,-6.18,2d
2019-07-15_181629:940,-0.423004,0.006592,-0.266907,-0.004671,0.002635,0.002754,-42.560001,3.18,-6.18,2d
2019-07-15_181629:960,-0.42147799999999996,0.006592,-0.263855,-0.004427,0.0035810000000000004,0.0007700000000000001,-42.25,2.75,-7.0,2d
2019-07-15_181629:980,-0.421967,0.007111,-0.26181,-0.004275,0.004039,-0.000634,-42.25,2.75,-7.0,2d
2019-07-15_181630:000,-0.417908,0.006592,-0.258759,-0.004,0.004161,-0.001641,-42.560001,4.0,-7.0,2d
2019-07-15_181630:020,-0.410797,0.010162000000000001,-0.259277,-0.003817,0.003978,-0.0028309999999999997,-42.560001,4.0,-7.0,2d
2019-07-15_181630:040,-0.40976,0.010162000000000001,-0.261322,-0.0037560000000000002,0.0024519999999999998,-0.002648,-42.560001,4.0,-7.0,2d
2019-07-15_181630:060,-0.410797,0.012177,-0.260284,-0.0036950000000000004,0.000682,-0.001519,-42.25,4.0,-7.0,2d
2019-07-15_181630:080,-0.412811,0.013702,-0.26181,-0.0034509999999999996,-0.0005690000000000001,-0.0008470000000000001,-42.25,4.0,-7.0,2d
2019-07-15_181630:100,-0.411285,0.015747,-0.264862,-0.003573,-0.0007830000000000001,-0.000512,-42.560001,3.56,-6.18,2d
2019-07-15_181630:120,-0.411285,0.017273,-0.265381,-0.0032979999999999997,-0.001393,0.000343,-42.560001,3.56,-6.18,2d
2019-07-15_181630:140,-0.410797,0.01828,-0.270477,-0.003817,-0.001912,0.001564,-42.560001,3.56,-6.18,2d
2019-07-15_181630:160,-0.412811,0.016266,-0.270966,-0.004336,-0.002522,0.00251,-42.25,3.56,-6.56,2d
2019-07-15_181630:180,-0.416382,0.012695,-0.273529,-0.004671,-0.00237,0.0033640000000000002,-42.25,3.56,-6.56,2d
2019-07-15_181630:200,-0.416901,0.007599,-0.274536,-0.004671,-0.002156,0.003303,-41.869999,3.56,-6.56,2d
2019-07-15_181630:220,-0.416382,0.006592,-0.272003,-0.004671,-0.001302,0.002754,-41.869999,3.56,-6.56,2d
2019-07-15_181630:240,-0.41485600000000006,0.005065999999999999,-0.275055,-0.0034509999999999996,-0.000386,0.004554,-41.869999,3.56,-6.56,2d
2019-07-15_181630:260,-0.41485600000000006,0.0030210000000000002,-0.277588,-0.003054,-0.000508,0.003913000000000001,-41.5,3.18,-7.37,2d
2019-07-15_181630:280,-0.414337,0.0025329999999999997,-0.275055,-0.002321,-0.001057,0.002571,-41.5,3.18,-7.37,2d
2019-07-15_181630:300,-0.417389,0.0030210000000000002,-0.273529,-0.0018030000000000001,-0.001393,0.002845,-42.560001,3.18,-7.37,2d
2019-07-15_181630:320,-0.416382,0.006072999999999999,-0.274536,-0.0017109999999999998,-0.0009660000000000001,0.0030280000000000003,-42.560001,3.18,-7.37,2d
2019-07-15_181630:340,-0.41384899999999997,0.004059,-0.277588,-0.001986,1.1e-05,0.003151,-42.560001,3.18,-7.37,2d
2019-07-15_181630:360,-0.41333000000000003,0.004547,-0.28064,-0.002199,0.000743,0.00309,-43.0,4.0,-6.56,2d
2019-07-15_181630:380,-0.40774499999999997,0.004059,-0.277588,-0.002321,0.0012619999999999999,0.002357,-43.0,4.0,-6.56,2d
2019-07-15_181630:400,-0.407227,0.006592,-0.276062,-0.0022600000000000003,0.001628,0.001167,-42.25,4.25,-6.56,2d
2019-07-15_181630:420,-0.406738,0.007599,-0.274017,-0.002382,0.001598,0.00016,-42.25,4.25,-6.56,2d
2019-07-15_181630:440,-0.40976,0.007111,-0.274536,-0.002169,0.001018,0.000343,-42.25,4.25,-6.56,2d
2019-07-15_181630:460,-0.415375,0.0055850000000000006,-0.275055,-0.001925,0.000682,0.001106,-42.25,3.56,-7.0,2d
2019-07-15_181630:480,-0.418915,0.005065999999999999,-0.274536,-0.0018030000000000001,0.000743,0.001564,-42.25,3.56,-7.0,2d
2019-07-15_181630:500,-0.416901,0.0035399999999999997,-0.275055,-0.001375,0.001018,0.0021739999999999997,-41.869999,3.56,-6.56,2d
2019-07-15_181630:520,-0.41586300000000004,0.0035399999999999997,-0.272491,-0.001314,0.001201,0.0033640000000000002,-41.869999,3.56,-6.56,2d
2019-07-15_181630:540,-0.41485600000000006,0.000488,-0.275055,-0.0014060000000000001,0.0010789999999999999,0.004646,-41.869999,3.56,-6.56,2d
2019-07-15_181630:560,-0.41384899999999997,-0.001007,-0.274017,-0.0015279999999999998,0.00114,0.0038829999999999997,-41.869999,3.56,-6.18,2d
2019-07-15_181630:580,-0.41232299999999994,-0.001495,-0.270477,-0.0017109999999999998,0.0012619999999999999,0.001991,-41.869999,3.56,-6.18,2d
2019-07-15_181630:600,-0.40976,-0.0035399999999999997,-0.272491,-0.002169,0.001353,0.003181,-42.25,4.25,-7.75,2d
2019-07-15_181630:620,-0.40774499999999997,-0.006592,-0.276581,-0.002382,0.00114,0.003517,-42.25,4.25,-7.75,2d
2019-07-15_181630:640,-0.40823400000000004,-0.008118,-0.279633,-0.002657,0.00056,0.0033640000000000002,-42.25,4.25,-7.75,2d
2019-07-15_181630:660,-0.411804,-0.008118,-0.277069,-0.002779,-5e-05,0.002754,-42.25,4.25,-7.75,2d
2019-07-15_181630:680,-0.41232299999999994,-0.008636,-0.270966,-0.002535,0.000285,-0.001,-42.25,4.25,-7.75,2d
2019-07-15_181630:700,-0.414337,-0.0055850000000000006,-0.265381,-0.002535,0.0010789999999999999,-0.002709,-42.560001,4.0,-7.37,2d
2019-07-15_181630:720,-0.416382,-0.005065999999999999,-0.276062,-0.0028399999999999996,0.001415,-0.0019760000000000003,-42.560001,4.0,-7.37,2d
2019-07-15_181630:740,-0.41485600000000006,-0.0055850000000000006,-0.277588,-0.0029010000000000004,0.00172,-0.001702,-42.560001,4.0,-7.37,2d
2019-07-15_181630:760,-0.416382,-0.0025329999999999997,-0.275543,-0.003054,0.001964,-0.0017929999999999999,-43.0,4.0,-7.37,2d
2019-07-15_181630:780,-0.414337,-0.001007,-0.272003,-0.002993,0.002574,-0.000786,-43.0,4.0,-7.37,2d
2019-07-15_181630:800,-0.40976,0.0,-0.270966,-0.003573,0.002361,6.8e-05,-42.560001,4.25,-7.37,2d
2019-07-15_181630:820,-0.406738,0.0,-0.27301,-0.003664,0.00172,0.00016,-42.560001,4.25,-7.37,2d
2019-07-15_181630:840,-0.40774499999999997,0.0,-0.273529,-0.0036950000000000004,0.0009570000000000001,0.000526,-42.560001,4.25,-7.37,2d
2019-07-15_181630:860,-0.406219,-0.001007,-0.272491,-0.003817,0.000133,0.0007700000000000001,-42.25,4.25,-7.75,2d
2019-07-15_181630:880,-0.408752,-0.002014,-0.275055,-0.003817,-0.00063,0.000343,-42.25,4.25,-7.75,2d
2019-07-15_181630:900,-0.409271,-0.001495,-0.275543,-0.0036340000000000005,-0.001179,0.00028199999999999997,-42.560001,4.68,-8.56,2d
2019-07-15_181630:920,-0.40976,-0.0025329999999999997,-0.275543,-0.003054,-0.001393,0.000465,-42.560001,4.68,-8.56,2d
2019-07-15_181630:940,-0.414337,-0.0025329999999999997,-0.276062,-0.002199,-0.001179,0.0007700000000000001,-42.560001,4.68,-8.56,2d
2019-07-15_181630:960,-0.414337,-0.002014,-0.277588,-0.00165,-0.000386,0.001106,-42.560001,4.0,-8.18,2d
2019-07-15_181630:980,-0.410797,-0.001007,-0.277588,-0.001375,0.00016299999999999998,0.000923,-42.560001,4.0,-8.18,2d
2019-07-15_181631:000,-0.409271,-0.000488,-0.279633,-0.001772,0.000133,0.000526,-42.560001,4.68,-7.0,2d
2019-07-15_181631:020,-0.406219,-0.000488,-0.279633,-0.0018030000000000001,-0.00011100000000000001,7.000000000000001e-06,-42.560001,4.68,-7.0,2d
2019-07-15_181631:040,-0.407227,-0.000488,-0.28064,-0.0022600000000000003,-0.000172,7.000000000000001e-06,-42.560001,4.68,-7.0,2d
2019-07-15_181631:060,-0.40976,-0.000488,-0.28112800000000004,-0.0028399999999999996,-0.000325,-0.00045099999999999996,-43.75,4.0,-7.37,2d
2019-07-15_181631:080,-0.409271,0.001007,-0.279633,-0.0028399999999999996,-0.000264,-0.000267,-43.75,4.0,-7.37,2d
2019-07-15_181631:100,-0.410797,-0.000488,-0.287231,-0.002993,1.1e-05,0.000465,-43.0,4.0,-7.75,2d
2019-07-15_181631:120,-0.410797,0.0,-0.28369099999999997,-0.00339,0.000346,0.000404,-43.0,4.0,-7.75,2d
2019-07-15_181631:140,-0.406738,-0.001007,-0.28112800000000004,-0.0033280000000000002,0.000407,0.0007700000000000001,-43.0,4.0,-7.75,2d
2019-07-15_181631:160,-0.406219,-0.000488,-0.280121,-0.003237,0.000743,0.001258,-42.560001,5.06,-8.18,2d
2019-07-15_181631:180,-0.408752,0.0,-0.280121,-0.003512,0.00056,0.001442,-42.560001,5.06,-8.18,2d
2019-07-15_181631:200,-0.41232299999999994,-0.001495,-0.282654,-0.003664,0.000743,0.001777,-42.560001,4.25,-8.18,2d
2019-07-15_181631:220,-0.41333000000000003,-0.001495,-0.283173,-0.0036950000000000004,0.001201,0.002357,-42.560001,4.25,-8.18,2d
2019-07-15_181631:240,-0.411804,-0.0030210000000000002,-0.28112800000000004,-0.003939,0.00114,0.003181,-42.560001,4.25,-8.18,2d
2019-07-15_181631:260,-0.411804,-0.0030210000000000002,-0.280121,-0.004213000000000001,0.001537,0.0033640000000000002,-43.369999,4.25,-7.37,2d
2019-07-15_181631:280,-0.408752,-0.0055850000000000006,-0.28112800000000004,-0.004275,0.0016589999999999999,0.002449,-43.369999,4.25,-7.37,2d
2019-07-15_181631:300,-0.40774499999999997,-0.0055850000000000006,-0.281647,-0.004397,0.001353,0.000923,-43.0,4.68,-8.18,2d
2019-07-15_181631:320,-0.410278,-0.005065999999999999,-0.280121,-0.004275,0.001292,0.000648,-43.0,4.68,-8.18,2d
2019-07-15_181631:340,-0.409271,-0.006592,-0.28064,-0.004,0.001598,0.000526,-43.0,4.68,-8.18,2d
2019-07-15_181631:360,-0.411285,-0.0055850000000000006,-0.28112800000000004,-0.003573,0.001994,0.000343,-42.25,4.25,-8.18,2d
2019-07-15_181631:380,-0.410797,-0.0055850000000000006,-0.28064,-0.00339,0.002391,0.000587,-42.25,4.25,-8.18,2d
2019-07-15_181631:400,-0.406738,-0.006072999999999999,-0.279633,-0.003237,0.002574,0.000984,-42.25,5.06,-8.18,2d
2019-07-15_181631:420,-0.40774499999999997,-0.0055850000000000006,-0.278107,-0.002993,0.002696,0.001167,-42.25,5.06,-8.18,2d
2019-07-15_181631:440,-0.40774499999999997,-0.0035399999999999997,-0.278595,-0.002932,0.0023,0.001381,-42.25,5.06,-8.18,2d
2019-07-15_181631:460,-0.40823400000000004,-0.004059,-0.280121,-0.002993,0.002116,0.001655,-42.25,5.5,-7.75,2d
2019-07-15_181631:480,-0.408752,-0.005065999999999999,-0.278595,-0.0031149999999999997,0.0019030000000000002,0.001381,-42.25,5.5,-7.75,2d
2019-07-15_181631:500,-0.407227,-0.004059,-0.279114,-0.003237,0.001628,0.001503,-42.25,4.25,-8.18,2d
2019-07-15_181631:520,-0.412811,-0.004547,-0.279114,-0.00339,0.001537,0.001228,-42.25,4.25,-8.18,2d
2019-07-15_181631:540,-0.41232299999999994,-0.005065999999999999,-0.278595,-0.0037560000000000002,0.001598,0.001228,-42.25,4.25,-8.18,2d
2019-07-15_181631:560,-0.412811,-0.004547,-0.276062,-0.003939,0.002055,0.001442,-43.75,4.68,-6.18,2d
2019-07-15_181631:580,-0.414337,-0.004547,-0.276062,-0.004152,0.002635,0.001625,-43.75,4.68,-6.18,2d
2019-07-15_181631:600,-0.40823400000000004,-0.005065999999999999,-0.278107,-0.004397,0.002696,0.001258,-43.369999,4.0,-8.18,2d
2019-07-15_181631:620,-0.40823400000000004,-0.004547,-0.278595,-0.004671,0.0023,0.000923,-43.369999,4.0,-8.18,2d
2019-07-15_181631:640,-0.40823400000000004,-0.006592,-0.278107,-0.004793,0.002055,0.001167,-43.369999,4.0,-8.18,2d
2019-07-15_181631:660,-0.407227,-0.006592,-0.278107,-0.005007,0.001994,0.001258,-42.25,4.25,-7.75,2d
2019-07-15_181631:680,-0.40774499999999997,-0.007599,-0.280121,-0.004793,0.0019030000000000002,0.001167,-42.25,4.25,-7.75,2d
2019-07-15_181631:700,-0.406738,-0.006072999999999999,-0.280121,-0.0048850000000000005,0.001628,0.000709,-42.25,4.25,-9.0,2d
2019-07-15_181631:720,-0.408752,-0.006592,-0.28064,-0.00461,0.00172,0.000648,-42.25,4.25,-9.0,2d
2019-07-15_181631:740,-0.40976,-0.006592,-0.279633,-0.004213000000000001,0.001964,0.000709,-42.25,4.25,-9.0,2d
2019-07-15_181631:760,-0.40976,-0.007599,-0.28112800000000004,-0.003939,0.001842,0.000648,-42.25,4.25,-7.37,2d
2019-07-15_181631:780,-0.410278,-0.007599,-0.278595,-0.0037560000000000002,0.001964,0.000587,-42.25,4.25,-7.37,2d
2019-07-15_181631:800,-0.409271,-0.008118,-0.280121,-0.003512,0.001964,0.000587,-41.869999,4.68,-8.18,2d
2019-07-15_181631:820,-0.409271,-0.006592,-0.280121,-0.003573,0.001994,0.000648,-41.869999,4.68,-8.18,2d
2019-07-15_181631:840,-0.40823400000000004,-0.0055850000000000006,-0.279114,-0.003237,0.001994,0.000709,-41.869999,4.68,-8.18,2d
2019-07-15_181631:860,-0.409271,-0.006072999999999999,-0.280121,-0.0033280000000000002,0.001842,0.000831,-42.560001,4.68,-7.0,2d
2019-07-15_181631:880,-0.409271,-0.006072999999999999,-0.277588,-0.00339,0.001842,0.0007700000000000001,-42.560001,4.68,-7.0,2d
2019-07-15_181631:900,-0.40976,-0.0055850000000000006,-0.278595,-0.003512,0.0019030000000000002,0.000709,-42.560001,4.68,-7.75,2d
2019-07-15_181631:920,-0.410797,-0.006592,-0.278107,-0.003664,0.001994,0.0007700000000000001,-42.560001,4.68,-7.75,2d
2019-07-15_181631:940,-0.410278,-0.006592,-0.280121,-0.0037560000000000002,0.002055,0.000648,-42.560001,4.68,-7.75,2d
2019-07-15_181631:960,-0.411804,-0.007111,-0.279633,-0.0036340000000000005,0.002239,0.000343,-42.560001,4.68,-8.56,2d
2019-07-15_181631:980,-0.410797,-0.007111,-0.277588,-0.003664,0.002391,0.000404,-42.560001,4.68,-8.56,2d
2019-07-15_181632:000,-0.410278,-0.007599,-0.278107,-0.0034509999999999996,0.002177,0.00028199999999999997,-41.5,4.0,-8.18,2d
2019-07-15_181632:020,-0.40976,-0.007111,-0.278107,-0.003237,0.0024519999999999998,0.000343,-41.5,4.0,-8.18,2d
2019-07-15_181632:040,-0.411285,-0.006592,-0.277588,-0.0031149999999999997,0.002696,0.000465,-41.5,4.0,-8.18,2d
2019-07-15_181632:060,-0.40976,-0.0055850000000000006,-0.277069,-0.002993,0.0024519999999999998,0.00028199999999999997,-41.869999,5.06,-8.56,2d
2019-07-15_181632:080,-0.410278,-0.005065999999999999,-0.276062,-0.003512,0.002696,0.000343,-41.869999,5.06,-8.56,2d
2019-07-15_181632:100,-0.410797,-0.0055850000000000006,-0.278107,-0.003573,0.002361,0.000496,-42.25,4.0,-7.75,2d
2019-07-15_181632:120,-0.412811,-0.0055850000000000006,-0.277069,-0.0037560000000000002,0.002574,0.00028199999999999997,-42.25,4.0,-7.75,2d
2019-07-15_181632:140,-0.41232299999999994,-0.006592,-0.275543,-0.003939,0.002757,0.000343,-42.25,4.0,-7.75,2d
2019-07-15_181632:160,-0.41232299999999994,-0.0055850000000000006,-0.276581,-0.004,0.002849,0.000343,-42.560001,4.68,-8.56,2d
2019-07-15_181632:180,-0.41384899999999997,-0.006592,-0.275055,-0.004152,0.0029100000000000003,0.000343,-42.560001,4.68,-8.56,2d
2019-07-15_181632:200,-0.412811,-0.006072999999999999,-0.277069,-0.004152,0.002971,0.000404,-43.0,4.0,-8.56,2d
2019-07-15_181632:220,-0.41232299999999994,-0.007599,-0.277069,-0.004275,0.002849,0.00028199999999999997,-43.0,4.0,-8.56,2d
2019-07-15_181632:240,-0.41333000000000003,-0.007599,-0.275543,-0.004152,0.003124,6.8e-05,-43.0,4.0,-8.56,2d
2019-07-15_181632:260,-0.412811,-0.006592,-0.276062,-0.004275,0.003124,-0.000267,-42.560001,4.25,-8.56,2d
2019-07-15_181632:280,-0.411285,-0.006072999999999999,-0.275543,-0.004213000000000001,0.0035810000000000004,-0.000512,-42.560001,4.25,-8.56,2d
2019-07-15_181632:300,-0.410278,-0.0055850000000000006,-0.275543,-0.004275,0.0035810000000000004,-0.000786,-42.25,5.06,-7.0,2d
2019-07-15_181632:320,-0.410278,-0.006592,-0.274536,-0.004213000000000001,0.0034289999999999998,-0.0011220000000000002,-42.25,5.06,-7.0,2d
2019-07-15_181632:340,-0.411804,-0.006072999999999999,-0.274017,-0.00403,0.00349,-0.000908,-42.25,5.06,-7.0,2d
2019-07-15_181632:360,-0.410278,-0.006592,-0.274536,-0.0036950000000000004,0.003246,-0.000908,-42.25,4.68,-8.56,2d
2019-07-15_181632:380,-0.414337,-0.005065999999999999,-0.274017,-0.003176,0.003307,-0.000573,-42.25,4.68,-8.56,2d
2019-07-15_181632:400,-0.410797,-0.004059,-0.271484,-0.0031149999999999997,0.0035810000000000004,-0.000176,-42.560001,4.25,-7.75,2d
2019-07-15_181632:420,-0.410278,-0.0035399999999999997,-0.27301,-0.003176,0.003246,0.0008619999999999999,-42.560001,4.25,-7.75,2d
2019-07-15_181632:440,-0.412811,-0.0030210000000000002,-0.27301,-0.00339,0.002788,0.000496,-42.560001,4.25,-7.75,2d
2019-07-15_181632:460,-0.411804,-0.005065999999999999,-0.274017,-0.0036340000000000005,0.0023,-0.000664,-42.560001,5.06,-7.0,2d
2019-07-15_181632:480,-0.411804,-0.004059,-0.272491,-0.003664,0.002116,-0.00011499999999999999,-42.560001,5.06,-7.0,2d
2019-07-15_181632:500,-0.411285,-0.006592,-0.27301,-0.0036340000000000005,0.0019030000000000002,0.000648,-42.25,4.68,-8.18,2d
2019-07-15_181632:520,-0.411804,-0.007599,-0.272491,-0.0033280000000000002,0.001994,-0.000176,-42.25,4.68,-8.18,2d
2019-07-15_181632:540,-0.41333000000000003,-0.007599,-0.27301,-0.002657,0.002177,-0.00045099999999999996,-42.25,4.68,-8.18,2d
2019-07-15_181632:560,-0.41842700000000005,-0.007111,-0.274536,-0.0025050000000000003,0.0023,-0.00045099999999999996,-41.869999,3.56,-8.18,2d
2019-07-15_181632:580,-0.417908,-0.006072999999999999,-0.27301,-0.002199,0.003246,-5.4000000000000005e-05,-41.869999,3.56,-8.18,2d
2019-07-15_181632:600,-0.416382,-0.004547,-0.272491,-0.002321,0.00349,0.000129,-43.0,4.0,-7.0,2d
2019-07-15_181632:620,-0.415375,-0.004547,-0.270966,-0.002535,0.00349,-0.000176,-43.0,4.0,-7.0,2d
2019-07-15_181632:640,-0.41333000000000003,-0.0035399999999999997,-0.270477,-0.0029010000000000004,0.00349,-0.000389,-43.0,4.0,-7.0,2d
2019-07-15_181632:660,-0.41384899999999997,-0.004547,-0.271484,-0.002993,0.003124,-0.00045099999999999996,-41.060001,4.25,-6.18,2d
2019-07-15_181632:680,-0.410278,-0.005065999999999999,-0.26944,-0.003573,0.002757,-0.000573,-41.060001,4.25,-6.18,2d
2019-07-15_181632:700,-0.414337,-0.005065999999999999,-0.270966,-0.0036340000000000005,0.002391,-0.000389,-42.25,4.25,-7.37,2d
2019-07-15_181632:720,-0.416901,-0.004547,-0.269958,-0.0034509999999999996,0.002177,-0.00045099999999999996,-42.25,4.25,-7.37,2d
2019-07-15_181632:740,-0.41384899999999997,-0.0030210000000000002,-0.267426,-0.0034509999999999996,0.002635,6.8e-05,-42.25,4.25,-7.37,2d
2019-07-15_181632:760,-0.410797,-0.0030210000000000002,-0.270477,-0.0034509999999999996,0.002574,0.000343,-42.25,4.0,-7.37,2d
2019-07-15_181632:780,-0.41232299999999994,-0.002014,-0.268951,-0.0037560000000000002,0.001964,0.000129,-42.25,4.0,-7.37,2d
2019-07-15_181632:800,-0.414337,-0.001007,-0.269958,-0.003817,0.001628,0.000404,-43.369999,4.25,-7.37,2d
2019-07-15_181632:820,-0.415375,-0.0025329999999999997,-0.270477,-0.004091,0.001598,0.000587,-43.369999,4.25,-7.37,2d
2019-07-15_181632:840,-0.41586300000000004,-0.001495,-0.271484,-0.004275,0.00172,0.000496,-43.369999,4.25,-7.37,2d
2019-07-15_181632:860,-0.41485600000000006,-0.001495,-0.271484,-0.00461,0.0019030000000000002,6.8e-05,-43.0,4.0,-7.0,2d
2019-07-15_181632:880,-0.416901,-0.002014,-0.272491,-0.004488000000000001,0.00172,-5.4000000000000005e-05,-43.0,4.0,-7.0,2d
2019-07-15_181632:900,-0.416382,-0.001495,-0.272491,-0.00461,0.002116,-0.00045099999999999996,-41.869999,4.0,-7.37,2d
2019-07-15_181632:920,-0.417389,-0.002014,-0.272491,-0.004336,0.002635,0.000343,-41.869999,4.0,-7.37,2d
2019-07-15_181632:940,-0.416382,-0.0025329999999999997,-0.271484,-0.00403,0.0029100000000000003,-0.000267,-41.869999,4.0,-7.37,2d
2019-07-15_181632:960,-0.41485600000000006,-0.0030210000000000002,-0.272491,-0.003817,0.003032,-0.000573,-41.5,4.25,-7.37,2d
2019-07-15_181632:980,-0.415375,-0.001007,-0.269958,-0.0032979999999999997,0.003368,-0.000267,-41.5,4.25,-7.37,2d
2019-07-15_181633:000,-0.417908,0.0,-0.270966,-0.0032979999999999997,0.003368,-0.000267,-41.5,4.25,-7.37,2d
2019-07-15_181633:020,-0.41943400000000003,-0.000488,-0.269958,-0.0033280000000000002,0.003978,0.000404,-43.0,4.25,-7.0,2d
2019-07-15_181633:040,-0.417389,0.0,-0.268951,-0.003176,0.004161,0.000587,-43.0,4.25,-7.0,2d
2019-07-15_181633:060,-0.416382,-0.000488,-0.267426,-0.0034509999999999996,0.004436,0.000923,-43.0,3.18,-6.56,2d
2019-07-15_181633:080,-0.41485600000000006,-0.000488,-0.263336,-0.003512,0.004314,0.00132,-43.0,3.18,-6.56,2d
2019-07-15_181633:100,-0.414337,-0.001007,-0.263855,-0.003573,0.004039,0.001503,-42.25,4.25,-6.56,2d
2019-07-15_181633:120,-0.41586300000000004,-0.002014,-0.262848,-0.003939,0.003368,0.001716,-42.25,4.25,-6.56,2d
2019-07-15_181633:140,-0.417908,-0.0035399999999999997,-0.263336,-0.00403,0.002971,0.001838,-42.25,4.25,-6.56,2d
2019-07-15_181633:160,-0.41995200000000005,-0.005065999999999999,-0.264374,-0.004213000000000001,0.002757,0.001777,-43.0,4.68,-7.75,2d
2019-07-15_181633:180,-0.417908,-0.006072999999999999,-0.263336,-0.004,0.002574,0.001564,-43.0,4.68,-7.75,2d
2019-07-15_181633:200,-0.41842700000000005,-0.007111,-0.263855,-0.003878,0.002849,0.001564,-42.25,4.0,-6.56,2d
2019-07-15_181633:220,-0.416901,-0.006592,-0.264374,-0.0036340000000000005,0.002757,0.001503,-42.25,4.0,-6.56,2d
2019-07-15_181633:240,-0.41842700000000005,-0.006072999999999999,-0.261322,-0.003237,0.0024519999999999998,0.001045,-42.25,4.0,-6.56,2d
2019-07-15_181633:260,-0.41842700000000005,-0.004547,-0.262848,-0.0028399999999999996,0.0024519999999999998,0.001167,-42.560001,4.0,-6.56,2d
2019-07-15_181633:280,-0.418915,-0.0055850000000000006,-0.261322,-0.002718,0.002696,0.001625,-42.560001,4.0,-6.56,2d
2019-07-15_181633:300,-0.416382,-0.0055850000000000006,-0.263336,-0.0028399999999999996,0.002361,0.001716,-42.560001,4.0,-6.56,2d
2019-07-15_181633:320,-0.41485600000000006,-0.006072999999999999,-0.262848,-0.002932,0.001994,0.001991,-41.869999,5.06,-7.37,2d
2019-07-15_181633:340,-0.414337,-0.007599,-0.263336,-0.003176,0.0014759999999999999,0.0018989999999999999,-41.869999,5.06,-7.37,2d
2019-07-15_181633:360,-0.41485600000000006,-0.007111,-0.263336,-0.0033280000000000002,0.000621,0.001625,-43.0,4.68,-5.37,2d
2019-07-15_181633:380,-0.41842700000000005,-0.007599,-0.263336,-0.003176,7.2e-05,0.001503,-43.0,4.68,-5.37,2d
2019-07-15_181633:400,-0.423492,-0.006592,-0.264862,-0.0033280000000000002,-0.00011100000000000001,0.001258,-43.0,4.68,-5.37,2d
2019-07-15_181633:420,-0.423004,-0.0055850000000000006,-0.2659,-0.003573,0.000743,0.001228,-42.25,4.0,-6.56,2d
2019-07-15_181633:440,-0.42147799999999996,-0.006592,-0.2659,-0.003878,0.00114,0.001045,-42.25,4.0,-6.56,2d
2019-07-15_181633:460,-0.420959,-0.006592,-0.267426,-0.00403,0.0014759999999999999,0.0008619999999999999,-42.25,4.0,-5.75,2d
2019-07-15_181633:480,-0.416901,-0.007599,-0.2659,-0.004,0.0017809999999999998,0.001106,-42.25,4.0,-5.75,2d
2019-07-15_181633:500,-0.41485600000000006,-0.008118,-0.266907,-0.003878,0.0017809999999999998,0.001442,-42.25,4.0,-5.75,2d
2019-07-15_181633:520,-0.414337,-0.008636,-0.267914,-0.0036950000000000004,0.0014759999999999999,0.002113,-43.0,4.68,-6.18,2d
2019-07-15_181633:540,-0.41485600000000006,-0.009644,-0.267426,-0.0033280000000000002,0.000865,0.002693,-43.0,4.68,-6.18,2d
2019-07-15_181633:560,-0.420959,-0.009125,-0.268951,-0.0032979999999999997,0.000682,0.001564,-42.560001,5.5,-7.37,2d
2019-07-15_181633:580,-0.41995200000000005,-0.008118,-0.266907,-0.0033280000000000002,0.00114,0.001442,-42.560001,5.5,-7.37,2d
2019-07-15_181633:600,-0.420441,-0.007599,-0.268433,-0.0032979999999999997,0.00172,0.00196,-42.560001,5.5,-7.37,2d
2019-07-15_181633:620,-0.41943400000000003,-0.006072999999999999,-0.267426,-0.0037560000000000002,0.001842,0.001777,-43.369999,5.06,-6.18,2d
2019-07-15_181633:640,-0.415375,-0.008118,-0.265381,-0.003878,0.001964,0.001258,-43.369999,5.06,-6.18,2d
2019-07-15_181633:660,-0.417389,-0.007111,-0.264862,-0.004213000000000001,0.0017809999999999998,0.00028199999999999997,-43.0,5.06,-6.18,2d
2019-07-15_181633:680,-0.41842700000000005,-0.007111,-0.263855,-0.004275,0.0017809999999999998,0.001106,-43.0,5.06,-6.18,2d
2019-07-15_181633:700,-0.41586300000000004,-0.006592,-0.265381,-0.004488000000000001,0.002055,0.001381,-42.25,5.06,-7.0,2d
2019-07-15_181633:720,-0.416901,-0.007111,-0.264862,-0.004671,0.001994,0.000404,-42.25,5.06,-7.0,2d
2019-07-15_181633:740,-0.416382,-0.007599,-0.264862,-0.00461,0.001994,0.000923,-42.25,5.06,-7.0,2d
2019-07-15_181633:760,-0.417908,-0.008636,-0.2659,-0.00461,0.001537,0.000984,-42.560001,4.25,-7.0,2d
2019-07-15_181633:780,-0.420959,-0.008118,-0.264862,-0.004549,0.001353,0.0007700000000000001,-42.560001,4.25,-7.0,2d
2019-07-15_181633:800,-0.421967,-0.008118,-0.266388,-0.004336,0.001628,0.000709,-42.560001,4.25,-7.0,2d
2019-07-15_181633:820,-0.418915,-0.008636,-0.264862,-0.004091,0.001994,0.000496,-42.560001,4.0,-7.37,2d
2019-07-15_181633:840,-0.418915,-0.009125,-0.2659,-0.0036950000000000004,0.002116,0.000587,-42.560001,4.0,-7.37,2d
2019-07-15_181633:860,-0.41586300000000004,-0.008118,-0.266388,-0.00339,0.002177,0.000587,-42.25,4.68,-6.18,2d
2019-07-15_181633:880,-0.417389,-0.007599,-0.264374,-0.003237,0.002177,0.000648,-42.25,4.68,-6.18,2d
2019-07-15_181633:900,-0.41943400000000003,-0.006592,-0.263855,-0.0033280000000000002,0.002055,0.001106,-42.25,4.68,-6.18,2d
2019-07-15_181633:920,-0.417389,-0.0055850000000000006,-0.264374,-0.003878,0.001964,0.001564,-43.0,4.0,-7.0,2d
2019-07-15_181633:940,-0.41485600000000006,-0.007111,-0.262329,-0.004336,0.001994,0.000587,-43.0,4.0,-7.0,2d
2019-07-15_181633:960,-0.41485600000000006,-0.007111,-0.263336,-0.004427,0.001537,0.000526,-42.560001,5.06,-6.56,2d
2019-07-15_181633:980,-0.416901,-0.009644,-0.263336,-0.004732,0.00114,0.001503,-42.560001,5.06,-6.56,2d
2019-07-15_181634:000,-0.417389,-0.009644,-0.264374,-0.004824,0.000682,0.0008619999999999999,-42.560001,5.06,-6.56,2d
2019-07-15_181634:020,-0.417389,-0.010651,-0.266388,-0.004671,0.00056,0.001228,-43.369999,4.68,-5.75,2d
2019-07-15_181634:040,-0.416901,-0.010651,-0.264374,-0.004549,0.000499,0.0008619999999999999,-43.369999,4.68,-5.75,2d
2019-07-15_181634:060,-0.41842700000000005,-0.012177,-0.266388,-0.004488000000000001,0.000407,0.000129,-42.560001,5.06,-5.37,2d
2019-07-15_181634:080,-0.41842700000000005,-0.011169,-0.267426,-0.004275,0.000621,-0.000176,-42.560001,5.06,-5.37,2d
2019-07-15_181634:100,-0.41943400000000003,-0.011687999999999999,-0.266388,-0.004,0.0009570000000000001,-0.000573,-42.560001,5.06,-5.37,2d
2019-07-15_181634:120,-0.418915,-0.010651,-0.2659,-0.003512,0.0009570000000000001,-0.000786,-41.869999,5.5,-7.37,2d
2019-07-15_181634:140,-0.416901,-0.010651,-0.265381,-0.002932,0.0012619999999999999,-0.000664,-41.869999,5.5,-7.37,2d
2019-07-15_181634:160,-0.416382,-0.007599,-0.265381,-0.0029010000000000004,0.0009570000000000001,-0.000176,-41.869999,4.68,-7.0,2d
2019-07-15_181634:180,-0.414337,-0.006072999999999999,-0.264374,-0.002718,0.000621,0.00016,-41.869999,4.68,-7.0,2d
2019-07-15_181634:200,-0.416382,-0.005065999999999999,-0.266907,-0.0031149999999999997,0.00022400000000000002,6.8e-05,-41.869999,4.68,-7.0,2d
2019-07-15_181634:220,-0.416382,-0.004547,-0.267426,-0.003573,0.00016299999999999998,0.000221,-41.869999,4.25,-7.0,2d
2019-07-15_181634:240,-0.415375,-0.005065999999999999,-0.267426,-0.00403,0.00022400000000000002,0.000587,-41.869999,4.25,-7.0,2d
2019-07-15_181634:260,-0.417389,-0.0055850000000000006,-0.268433,-0.004549,0.00016299999999999998,0.000831,-41.869999,4.68,-5.75,2d
2019-07-15_181634:280,-0.415375,-0.007111,-0.266388,-0.004732,7.2e-05,0.000984,-41.869999,4.68,-5.75,2d
2019-07-15_181634:300,-0.416382,-0.007111,-0.268951,-0.004946,0.000407,0.001106,-41.869999,4.68,-5.75,2d
2019-07-15_181634:320,-0.416901,-0.008636,-0.26944,-0.0048850000000000005,0.000346,0.000984,-42.25,4.68,-7.37,2d
2019-07-15_181634:340,-0.416382,-0.009125,-0.268433,-0.004793,7.2e-05,0.0007700000000000001,-42.25,4.68,-7.37,2d
2019-07-15_181634:360,-0.41586300000000004,-0.009644,-0.270477,-0.00461,7.2e-05,0.000404,-42.25,4.25,-7.75,2d
2019-07-15_181634:380,-0.41943400000000003,-0.010162000000000001,-0.26944,-0.004275,0.00022400000000000002,0.00028199999999999997,-42.25,4.25,-7.75,2d
2019-07-15_181634:400,-0.418915,-0.008636,-0.270477,-0.004,0.0008039999999999999,7.000000000000001e-06,-42.25,4.25,-7.75,2d
2019-07-15_181634:420,-0.416901,-0.008636,-0.271484,-0.0036950000000000004,0.001201,-0.000176,-42.25,4.25,-7.37,2d
2019-07-15_181634:440,-0.416382,-0.007599,-0.270477,-0.0034509999999999996,0.001537,-5.4000000000000005e-05,-42.25,4.25,-7.37,2d
2019-07-15_181634:460,-0.41384899999999997,-0.007599,-0.270477,-0.00339,0.001292,-0.000176,-42.560001,5.06,-7.37,2d
2019-07-15_181634:480,-0.412811,-0.006592,-0.267914,-0.0032979999999999997,0.00114,-5.4000000000000005e-05,-42.560001,5.06,-7.37,2d
2019-07-15_181634:500,-0.41384899999999997,-0.005065999999999999,-0.270477,-0.00339,0.0009570000000000001,-5.4000000000000005e-05,-42.560001,5.06,-7.37,2d
2019-07-15_181634:520,-0.417389,-0.0055850000000000006,-0.26944,-0.003664,0.00114,-0.00023700000000000001,-42.560001,5.06,-7.0,2d
2019-07-15_181634:540,-0.417908,-0.006072999999999999,-0.26944,-0.003939,0.001292,-0.00011499999999999999,-42.560001,5.06,-7.0,2d
2019-07-15_181634:560,-0.417389,-0.006592,-0.271484,-0.004091,0.0014759999999999999,0.000129,-42.25,4.68,-6.56,2d
2019-07-15_181634:580,-0.41485600000000006,-0.006592,-0.268951,-0.004397,0.001537,6.8e-05,-42.25,4.68,-6.56,2d
2019-07-15_181634:600,-0.41485600000000006,-0.006592,-0.270477,-0.004213000000000001,0.001353,0.00028199999999999997,-42.25,4.68,-6.56,2d
2019-07-15_181634:620,-0.415375,-0.006592,-0.270477,-0.004275,0.0014759999999999999,0.000129,-42.560001,4.68,-7.0,2d
2019-07-15_181634:640,-0.416382,-0.007599,-0.269958,-0.004152,0.0017809999999999998,-5.4000000000000005e-05,-42.560001,4.68,-7.0,2d
2019-07-15_181634:660,-0.416382,-0.0055850000000000006,-0.270966,-0.003939,0.001842,-5.4000000000000005e-05,-42.560001,4.25,-6.56,2d
2019-07-15_181634:680,-0.416901,-0.007599,-0.268951,-0.0036950000000000004,0.00172,7.000000000000001e-06,-42.560001,4.25,-6.56,2d
2019-07-15_181634:700,-0.41485600000000006,-0.0055850000000000006,-0.266388,-0.003512,0.001353,0.000404,-42.560001,4.25,-6.56,2d
2019-07-15_181634:720,-0.417389,-0.006072999999999999,-0.267914,-0.0036340000000000005,0.001628,0.001167,-42.25,4.68,-7.0,2d
2019-07-15_181634:740,-0.41333000000000003,-0.004059,-0.266907,-0.003939,0.0014759999999999999,0.000923,-42.25,4.68,-7.0,2d
2019-07-15_181634:760,-0.41232299999999994,-0.005065999999999999,-0.268433,-0.004091,0.0012619999999999999,0.000587,-41.869999,5.06,-7.75,2d
2019-07-15_181634:780,-0.41485600000000006,-0.004547,-0.268951,-0.00461,0.000621,-0.000786,-41.869999,5.06,-7.75,2d
2019-07-15_181634:800,-0.412811,-0.006072999999999999,-0.269958,-0.00461,0.00056,-0.000267,-41.869999,5.06,-7.75,2d
2019-07-15_181634:820,-0.412811,-0.007111,-0.270477,-0.004549,0.00016299999999999998,0.000343,-42.560001,5.5,-7.37,2d
2019-07-15_181634:840,-0.416382,-0.007111,-0.270477,-0.004152,0.000407,-0.000176,-42.560001,5.5,-7.37,2d
2019-07-15_181634:860,-0.417389,-0.006592,-0.272003,-0.003664,0.000621,-5.4000000000000005e-05,-42.560001,4.68,-7.0,2d
2019-07-15_181634:880,-0.416901,-0.005065999999999999,-0.270477,-0.003573,0.001415,-5.4000000000000005e-05,-42.560001,4.68,-7.0,2d
2019-07-15_181634:900,-0.417389,-0.004059,-0.270966,-0.0034509999999999996,0.0019030000000000002,0.00028199999999999997,-42.560001,4.68,-7.0,2d
2019-07-15_181634:920,-0.41485600000000006,-0.004547,-0.270966,-0.0036340000000000005,0.001842,0.000648,-41.869999,4.0,-8.18,2d
2019-07-15_181634:940,-0.41586300000000004,-0.004547,-0.269958,-0.0037560000000000002,0.0019030000000000002,0.000648,-41.869999,4.0,-8.18,2d
2019-07-15_181634:960,-0.416382,-0.005065999999999999,-0.26944,-0.003878,0.0019030000000000002,0.000587,-41.869999,5.06,-8.18,2d
2019-07-15_181634:980,-0.41384899999999997,-0.004547,-0.268433,-0.004,0.001964,0.000648,-41.869999,5.06,-8.18,2d
2019-07-15_181635:000,-0.41384899999999997,-0.0055850000000000006,-0.26944,-0.004,0.0016589999999999999,0.000709,-41.869999,5.06,-8.18,2d
2019-07-15_181635:020,-0.416382,-0.005065999999999999,-0.268951,-0.004,0.001415,0.000648,-42.560001,5.06,-7.0,2d
2019-07-15_181635:040,-0.41995200000000005,-0.004059,-0.267426,-0.004,0.001628,0.000648,-42.560001,5.06,-7.0,2d
2019-07-15_181635:060,-0.416382,-0.0030210000000000002,-0.267914,-0.004488000000000001,0.002239,0.001258,-43.0,4.0,-6.18,2d
2019-07-15_181635:080,-0.41384899999999997,-0.0035399999999999997,-0.267426,-0.004824,0.002055,0.00132,-43.0,4.0,-6.18,2d
2019-07-15_181635:100,-0.41384899999999997,-0.005065999999999999,-0.270477,-0.005282,0.001598,0.0008619999999999999,-43.0,4.0,-6.18,2d
2019-07-15_181635:120,-0.41485600000000006,-0.008118,-0.268951,-0.005129,0.0012619999999999999,0.001167,-42.560001,5.06,-8.56,2d
2019-07-15_181635:140,-0.412811,-0.004547,-0.270477,-0.0051600000000000005,0.0012619999999999999,0.001045,-42.560001,5.06,-8.56,2d
2019-07-15_181635:160,-0.41333000000000003,-0.006072999999999999,-0.272003,-0.005282,0.0009570000000000001,0.000923,-43.0,4.25,-7.37,2d
2019-07-15_181635:180,-0.41485600000000006,-0.007599,-0.269958,-0.005129,0.000499,0.000343,-43.0,4.25,-7.37,2d
2019-07-15_181635:200,-0.416901,-0.007599,-0.270477,-0.004671,0.0008039999999999999,0.00028199999999999997,-43.0,4.25,-7.37,2d
2019-07-15_181635:220,-0.414337,-0.007599,-0.27301,-0.003878,0.0010789999999999999,6.8e-05,-42.25,4.68,-6.56,2d
2019-07-15_181635:240,-0.41384899999999997,-0.008118,-0.276581,-0.0036340000000000005,0.0008039999999999999,-0.000389,-42.25,4.68,-6.56,2d
2019-07-15_181635:260,-0.41995200000000005,-0.006592,-0.279633,-0.002932,0.000743,-0.0008470000000000001,-42.560001,4.25,-7.75,2d
2019-07-15_181635:280,-0.410278,-0.004059,-0.262848,-0.002657,0.001598,-0.000664,-42.560001,4.25,-7.75,2d
2019-07-15_181635:300,-0.416382,-0.0035399999999999997,-0.268433,-0.001772,0.00114,-0.000389,-42.560001,4.25,-7.75,2d
2019-07-15_181635:320,-0.41333000000000003,-0.0025329999999999997,-0.272491,-0.0015890000000000001,0.001598,-0.00011499999999999999,-41.869999,4.25,-6.18,2d
2019-07-15_181635:340,-0.41995200000000005,-0.002014,-0.278107,-0.001864,0.0016589999999999999,0.000343,-41.869999,4.25,-6.18,2d
2019-07-15_181635:360,-0.41485600000000006,-0.0030210000000000002,-0.273529,-0.002169,0.002116,0.000526,-42.25,4.68,-7.0,2d
2019-07-15_181635:380,-0.417908,-0.0030210000000000002,-0.270966,-0.002718,0.002513,0.000526,-42.25,4.68,-7.0,2d
2019-07-15_181635:400,-0.412811,-0.0030210000000000002,-0.270477,-0.0028399999999999996,0.002513,0.000831,-42.25,4.68,-7.0,2d
2019-07-15_181635:420,-0.410278,-0.004547,-0.269958,-0.003176,0.002239,0.001167,-42.560001,4.68,-7.37,2d
2019-07-15_181635:440,-0.412811,-0.0055850000000000006,-0.268951,-0.0033280000000000002,0.001598,0.001045,-42.560001,4.68,-7.37,2d
2019-07-15_181635:460,-0.41943400000000003,-0.006072999999999999,-0.26944,-0.003512,0.001353,0.000923,-42.560001,4.68,-7.37,2d
2019-07-15_181635:480,-0.417389,-0.007111,-0.268433,-0.003573,0.001537,0.000709,-42.560001,4.68,-7.37,2d
2019-07-15_181635:500,-0.415375,-0.007111,-0.26944,-0.003573,0.001994,0.0008619999999999999,-42.560001,4.68,-7.37,2d
2019-07-15_181635:520,-0.412811,-0.006072999999999999,-0.26944,-0.003237,0.001598,0.000831,-43.0,4.25,-7.75,2d
2019-07-15_181635:540,-0.41485600000000006,-0.004547,-0.26944,-0.0031149999999999997,0.001201,0.000709,-43.0,4.25,-7.75,2d
2019-07-15_181635:560,-0.41485600000000006,-0.0055850000000000006,-0.269958,-0.003176,0.001292,0.0008619999999999999,-42.560001,4.68,-7.37,2d
2019-07-15_181635:580,-0.414337,-0.004547,-0.26944,-0.0034509999999999996,0.001353,0.000923,-42.560001,4.68,-7.37,2d
2019-07-15_181635:600,-0.41485600000000006,-0.0055850000000000006,-0.272003,-0.0036340000000000005,0.001353,0.000526,-42.560001,4.68,-7.37,2d
2019-07-15_181635:620,-0.415375,-0.007111,-0.272491,-0.003664,0.0012619999999999999,0.000587,-42.25,4.68,-6.18,2d
2019-07-15_181635:640,-0.41333000000000003,-0.006592,-0.270477,-0.003664,0.0016589999999999999,0.0007700000000000001,-42.25,4.68,-6.18,2d
2019-07-15_181635:660,-0.41485600000000006,-0.006592,-0.271484,-0.0034509999999999996,0.0014759999999999999,0.000984,-42.25,5.06,-7.0,2d
2019-07-15_181635:680,-0.414337,-0.008636,-0.270477,-0.00339,0.0010789999999999999,0.0008619999999999999,-42.25,5.06,-7.0,2d
2019-07-15_181635:700,-0.41384899999999997,-0.008118,-0.270966,-0.003176,0.00056,0.000831,-42.25,5.06,-7.0,2d
2019-07-15_181635:720,-0.417389,-0.009125,-0.270477,-0.002993,0.0008039999999999999,0.001045,-42.25,4.0,-7.37,2d
2019-07-15_181635:740,-0.420441,-0.008636,-0.270477,-0.002657,0.001415,0.000831,-42.25,4.0,-7.37,2d
2019-07-15_181635:760,-0.417908,-0.007111,-0.272003,-0.002535,0.0019030000000000002,0.000587,-42.560001,4.68,-6.56,2d
2019-07-15_181635:780,-0.416901,-0.008636,-0.268433,-0.002657,0.002513,0.000923,-42.560001,4.68,-6.56,2d
2019-07-15_181635:800,-0.41485600000000006,-0.007599,-0.272491,-0.002779,0.002849,0.000526,-42.560001,4.68,-6.56,2d
2019-07-15_181635:820,-0.41333000000000003,-0.008636,-0.272003,-0.0025960000000000002,0.002757,0.000221,-41.869999,4.25,-7.0,2d
2019-07-15_181635:840,-0.41384899999999997,-0.006592,-0.270477,-0.0028399999999999996,0.002177,-0.000634,-41.869999,4.25,-7.0,2d
2019-07-15_181635:860,-0.414337,-0.006072999999999999,-0.269958,-0.0031149999999999997,0.0017809999999999998,-0.0008470000000000001,-42.560001,5.06,-7.37,2d
2019-07-15_181635:880,-0.411804,-0.006592,-0.26944,-0.003237,0.001598,-0.000664,-42.560001,5.06,-7.37,2d
2019-07-15_181635:900,-0.411804,-0.005065999999999999,-0.270966,-0.0037560000000000002,0.001201,-0.000908,-42.560001,5.06,-7.37,2d
2019-07-15_181635:920,-0.416901,-0.0055850000000000006,-0.27301,-0.003939,0.0009570000000000001,-0.000176,-42.560001,4.25,-6.18,2d
2019-07-15_181635:940,-0.415375,-0.0055850000000000006,-0.271484,-0.004091,0.00114,0.00016,-42.560001,4.25,-6.18,2d
2019-07-15_181635:960,-0.414337,-0.006592,-0.27301,-0.004,0.001292,6.8e-05,-42.560001,4.25,-8.18,2d
2019-07-15_181635:980,-0.41232299999999994,-0.006072999999999999,-0.272003,-0.003939,0.001292,-0.0013050000000000002,-42.560001,4.25,-8.18,2d
2019-07-15_181636:000,-0.41232299999999994,-0.005065999999999999,-0.27301,-0.003878,0.0012619999999999999,-0.0008470000000000001,-42.560001,4.25,-8.18,2d
2019-07-15_181636:020,-0.41384899999999997,-0.006072999999999999,-0.272003,-0.0036340000000000005,0.0014759999999999999,6.8e-05,-41.060001,5.06,-7.75,2d
2019-07-15_181636:040,-0.416901,-0.004059,-0.269958,-0.003573,0.001628,-0.000267,-41.060001,5.06,-7.75,2d
2019-07-15_181636:060,-0.41943400000000003,-0.0055850000000000006,-0.270966,-0.0036340000000000005,0.0024519999999999998,-0.00023700000000000001,-42.25,4.68,-6.56,2d
2019-07-15_181636:080,-0.411804,-0.0035399999999999997,-0.271484,-0.0033280000000000002,0.0031850000000000003,6.8e-05,-42.25,4.68,-6.56,2d
2019-07-15_181636:100,-0.41485600000000006,-0.004547,-0.26944,-0.0033280000000000002,0.003246,0.000587,-42.25,4.68,-6.56,2d
2019-07-15_181636:120,-0.416382,-0.0055850000000000006,-0.269958,-0.003176,0.003032,0.000831,-43.369999,4.0,-6.56,2d
2019-07-15_181636:140,-0.417389,-0.006592,-0.267426,-0.003176,0.003124,0.000831,-43.369999,4.0,-6.56,2d
2019-07-15_181636:160,-0.416901,-0.006072999999999999,-0.264862,-0.0033280000000000002,0.003246,0.000587,-42.25,4.0,-6.56,2d
2019-07-15_181636:180,-0.416382,-0.006592,-0.266388,-0.00339,0.003093,0.000587,-42.25,4.0,-6.56,2d
2019-07-15_181636:200,-0.412811,-0.006072999999999999,-0.265381,-0.003512,0.002574,0.000526,-42.25,4.0,-6.56,2d
2019-07-15_181636:220,-0.41485600000000006,-0.0055850000000000006,-0.264862,-0.00339,0.002116,0.000526,-41.869999,5.06,-6.56,2d
2019-07-15_181636:240,-0.415375,-0.006072999999999999,-0.263855,-0.00339,0.0019030000000000002,0.000496,-41.869999,5.06,-6.56,2d
2019-07-15_181636:260,-0.415375,-0.006072999999999999,-0.264862,-0.003573,0.001994,0.0007700000000000001,-41.869999,4.0,-6.18,2d
2019-07-15_181636:280,-0.412811,-0.006592,-0.266388,-0.003664,0.001628,0.000984,-41.869999,4.0,-6.18,2d
2019-07-15_181636:300,-0.415375,-0.006592,-0.266388,-0.003878,0.001537,0.000648,-41.869999,4.0,-6.18,2d
2019-07-15_181636:320,-0.41586300000000004,-0.007599,-0.268951,-0.003939,0.0012619999999999999,0.000587,-41.869999,4.68,-7.0,2d
2019-07-15_181636:340,-0.41485600000000006,-0.007111,-0.267426,-0.004152,0.001201,0.000526,-41.869999,4.68,-7.0,2d
2019-07-15_181636:360,-0.41333000000000003,-0.006592,-0.269958,-0.004091,0.0008960000000000001,0.000526,-43.0,5.06,-7.75,2d
2019-07-15_181636:380,-0.41384899999999997,-0.007111,-0.26944,-0.004152,0.00056,0.000526,-43.0,5.06,-7.75,2d
2019-07-15_181636:400,-0.415375,-0.007599,-0.26944,-0.004213000000000001,0.000499,0.00016,-43.0,5.06,-7.75,2d
2019-07-15_181636:420,-0.416382,-0.008636,-0.270477,-0.003878,0.00056,-0.000328,-43.0,3.56,-6.18,2d
2019-07-15_181636:440,-0.415375,-0.007599,-0.26944,-0.0034509999999999996,0.000682,-0.000664,-43.0,3.56,-6.18,2d
2019-07-15_181636:460,-0.414337,-0.008118,-0.270966,-0.0031149999999999997,0.000682,-0.000725,-41.869999,5.06,-7.0,2d
2019-07-15_181636:480,-0.414337,-0.006592,-0.26944,-0.002657,0.00056,-0.000725,-41.869999,5.06,-7.0,2d
2019-07-15_181636:500,-0.415375,-0.004547,-0.276062,-0.002382,0.000621,-0.000634,-41.869999,5.06,-7.0,2d
2019-07-15_181636:520,-0.415375,-0.0030210000000000002,-0.27301,-0.002535,0.000346,-0.000389,-41.869999,4.68,-7.0,2d
2019-07-15_181636:540,-0.414337,-0.001495,-0.263336,-0.0029010000000000004,0.000468,-5.4000000000000005e-05,-41.869999,4.68,-7.0,2d
2019-07-15_181636:560,-0.41586300000000004,-0.000488,-0.267914,-0.0031149999999999997,0.00016299999999999998,0.00028199999999999997,-42.560001,5.5,-7.37,2d
2019-07-15_181636:580,-0.41333000000000003,-0.0025329999999999997,-0.268433,-0.0036950000000000004,0.000133,0.000221,-42.560001,5.5,-7.37,2d
2019-07-15_181636:600,-0.41842700000000005,-0.0030210000000000002,-0.272003,-0.004213000000000001,7.2e-05,0.000343,-42.560001,5.5,-7.37,2d
2019-07-15_181636:620,-0.416382,-0.0055850000000000006,-0.273529,-0.004549,0.000621,0.000465,-41.060001,3.56,-6.18,2d
2019-07-15_181636:640,-0.417908,-0.0055850000000000006,-0.27301,-0.004793,0.0009570000000000001,0.000343,-41.060001,3.56,-6.18,2d
2019-07-15_181636:660,-0.417389,-0.005065999999999999,-0.273529,-0.004549,0.001292,0.000465,-42.560001,4.68,-7.75,2d
2019-07-15_181636:680,-0.41485600000000006,-0.006072999999999999,-0.272003,-0.004336,0.001628,0.000404,-42.560001,4.68,-7.75,2d
2019-07-15_181636:700,-0.411804,-0.004547,-0.272491,-0.004213000000000001,0.001598,0.000465,-42.560001,4.68,-7.75,2d
2019-07-15_181636:720,-0.410797,-0.005065999999999999,-0.27301,-0.003817,0.001598,0.000587,-42.25,4.25,-7.75,2d
2019-07-15_181636:740,-0.414337,-0.004059,-0.270966,-0.0036950000000000004,0.001201,0.000587,-42.25,4.25,-7.75,2d
2019-07-15_181636:760,-0.41586300000000004,-0.004547,-0.27301,-0.0036340000000000005,0.0009570000000000001,0.000343,-42.25,4.25,-6.56,2d
2019-07-15_181636:780,-0.41485600000000006,-0.0035399999999999997,-0.272003,-0.0036340000000000005,0.001598,0.00028199999999999997,-42.25,4.25,-6.56,2d
2019-07-15_181636:800,-0.412811,-0.0030210000000000002,-0.273529,-0.0036950000000000004,0.0016589999999999999,0.00028199999999999997,-42.25,4.25,-6.56,2d
2019-07-15_181636:820,-0.41232299999999994,-0.004059,-0.272003,-0.0037560000000000002,0.001598,0.0007700000000000001,-42.25,4.68,-8.18,2d
2019-07-15_181636:840,-0.412811,-0.0030210000000000002,-0.270477,-0.0036950000000000004,0.00114,0.000923,-42.25,4.68,-8.18,2d
2019-07-15_181636:860,-0.41232299999999994,-0.0030210000000000002,-0.272491,-0.003878,0.0010789999999999999,0.001045,-42.25,4.68,-7.0,2d
2019-07-15_181636:880,-0.40976,-0.0035399999999999997,-0.272491,-0.003817,0.000621,0.001625,-42.25,4.68,-7.0,2d
2019-07-15_181636:900,-0.410278,-0.0035399999999999997,-0.27301,-0.003878,0.000346,0.001503,-42.25,4.68,-7.0,2d
2019-07-15_181636:920,-0.411804,-0.0035399999999999997,-0.27301,-0.003878,-0.000172,0.00132,-41.869999,4.25,-7.75,2d
2019-07-15_181636:940,-0.40976,-0.0030210000000000002,-0.272491,-0.004275,-0.000264,0.00132,-41.869999,4.25,-7.75,2d
2019-07-15_181636:960,-0.40570100000000003,-0.004059,-0.276062,-0.004336,-0.0005690000000000001,0.001503,-42.25,4.25,-8.18,2d
2019-07-15_181636:980,-0.402161,-0.0055850000000000006,-0.280121,-0.00403,-0.001759,0.0021739999999999997,-42.25,4.25,-8.18,2d
2019-07-15_181637:000,-0.40976,-0.004547,-0.28064,-0.004,-0.003163,0.002235,-42.25,4.25,-8.18,2d
2019-07-15_181637:020,-0.407227,-0.0035399999999999997,-0.282166,-0.00403,-0.003163,0.003181,-42.560001,4.25,-8.18,2d
2019-07-15_181637:040,-0.407227,-0.006592,-0.277069,-0.004671,-0.003438,0.0043100000000000005,-42.560001,4.25,-8.18,2d
2019-07-15_181637:060,-0.401123,-0.008636,-0.279114,-0.004824,-0.0045060000000000005,0.003517,-42.560001,5.06,-7.75,2d
2019-07-15_181637:080,-0.40368699999999996,-0.008636,-0.276062,-0.0048850000000000005,-0.005818,0.002052,-42.560001,5.06,-7.75,2d
2019-07-15_181637:100,-0.414337,-0.009125,-0.28112800000000004,-0.00461,-0.0052380000000000005,0.002052,-42.560001,5.06,-7.75,2d
2019-07-15_181637:120,-0.418915,-0.009644,-0.281647,-0.0048850000000000005,-0.003682,0.001838,-43.0,4.0,-7.37,2d
2019-07-15_181637:140,-0.420441,-0.009125,-0.278595,-0.0048850000000000005,-0.001698,0.00196,-43.0,4.0,-7.37,2d
2019-07-15_181637:160,-0.421967,-0.010162000000000001,-0.280121,-0.0048850000000000005,0.000621,0.002113,-42.25,4.0,-8.56,2d
2019-07-15_181637:180,-0.417389,-0.009644,-0.278107,-0.005068,0.001964,0.001777,-42.25,4.0,-8.56,2d
2019-07-15_181637:200,-0.410797,-0.010162000000000001,-0.278107,-0.004671,0.002513,0.001838,-42.25,4.0,-8.56,2d
2019-07-15_181637:220,-0.411804,-0.010651,-0.276581,-0.004275,0.0024519999999999998,0.001503,-42.560001,5.06,-7.75,2d
2019-07-15_181637:240,-0.414337,-0.011169,-0.275055,-0.003939,0.002757,0.001442,-42.560001,5.06,-7.75,2d
2019-07-15_181637:260,-0.410797,-0.008118,-0.276062,-0.0036950000000000004,0.002971,0.001777,-41.869999,4.68,-6.56,2d
2019-07-15_181637:280,-0.404175,-0.009644,-0.276062,-0.0036340000000000005,0.002849,0.002052,-41.869999,4.68,-6.56,2d
2019-07-15_181637:300,-0.40368699999999996,-0.009125,-0.275543,-0.0036340000000000005,0.001842,0.00196,-41.869999,4.68,-6.56,2d
2019-07-15_181637:320,-0.40823400000000004,-0.008636,-0.27301,-0.0036950000000000004,0.001415,0.001625,-42.560001,4.68,-7.37,2d
2019-07-15_181637:340,-0.40976,-0.009644,-0.276581,-0.004,0.0010789999999999999,0.001442,-42.560001,4.68,-7.37,2d
2019-07-15_181637:360,-0.408752,-0.009644,-0.278107,-0.004152,0.00114,0.001442,-42.25,5.5,-7.0,2d
2019-07-15_181637:380,-0.407227,-0.009644,-0.278595,-0.004213000000000001,0.0008960000000000001,0.000404,-42.25,5.5,-7.0,2d
2019-07-15_181637:400,-0.40823400000000004,-0.010162000000000001,-0.279114,-0.003939,0.000407,0.000648,-42.25,5.5,-7.0,2d
2019-07-15_181637:420,-0.410797,-0.009644,-0.279633,-0.0036950000000000004,0.000499,0.000465,-41.869999,4.68,-7.75,2d
2019-07-15_181637:440,-0.414337,-0.007599,-0.28112800000000004,-0.003878,0.000865,0.000648,-41.869999,4.68,-7.75,2d
2019-07-15_181637:460,-0.411804,-0.005065999999999999,-0.282654,-0.003939,0.001415,0.000465,-41.869999,5.06,-8.18,2d
2019-07-15_181637:480,-0.406738,-0.006592,-0.281647,-0.004427,0.002055,0.00028199999999999997,-41.869999,5.06,-8.18,2d
2019-07-15_181637:500,-0.40570100000000003,-0.008636,-0.28369099999999997,-0.004427,0.0017809999999999998,0.000709,-41.869999,5.06,-8.18,2d
2019-07-15_181637:520,-0.40316799999999997,-0.008636,-0.28112800000000004,-0.004397,0.001415,0.000496,-41.869999,4.68,-8.56,2d
2019-07-15_181637:540,-0.40368699999999996,-0.010162000000000001,-0.28064,-0.00403,0.0008960000000000001,0.000221,-41.869999,4.68,-8.56,2d
2019-07-15_181637:560,-0.40774499999999997,-0.010162000000000001,-0.282166,-0.0034509999999999996,0.00056,0.00016,-43.369999,5.06,-8.18,2d
2019-07-15_181637:580,-0.40823400000000004,-0.009125,-0.28112800000000004,-0.0029010000000000004,0.000499,-0.000328,-43.369999,5.06,-8.18,2d
2019-07-15_181637:600,-0.41232299999999994,-0.007111,-0.283173,-0.0025050000000000003,0.0008039999999999999,0.00016,-43.369999,5.06,-8.18,2d
2019-07-15_181637:620,-0.409271,-0.006592,-0.281647,-0.0022600000000000003,0.0014759999999999999,0.000648,-42.25,4.68,-8.18,2d
2019-07-15_181637:640,-0.40823400000000004,-0.005065999999999999,-0.282654,-0.002443,0.0014759999999999999,0.001106,-42.25,4.68,-8.18,2d
2019-07-15_181637:660,-0.40976,-0.006072999999999999,-0.281647,-0.002779,0.0014759999999999999,0.001564,-41.869999,5.06,-7.0,2d
2019-07-15_181637:680,-0.410278,-0.006072999999999999,-0.28112800000000004,-0.003176,0.001842,0.001716,-41.869999,5.06,-7.0,2d
2019-07-15_181637:700,-0.409271,-0.006592,-0.282166,-0.0036340000000000005,0.0019030000000000002,0.001716,-41.869999,5.06,-7.0,2d
2019-07-15_181637:720,-0.40774499999999997,-0.009125,-0.279114,-0.003878,0.0023,0.001655,-42.25,5.06,-7.37,2d
2019-07-15_181637:740,-0.40976,-0.009644,-0.281647,-0.00403,0.002239,0.001564,-42.25,5.06,-7.37,2d
2019-07-15_181637:760,-0.40976,-0.011687999999999999,-0.28112800000000004,-0.00403,0.002239,0.001991,-42.560001,5.06,-8.18,2d
2019-07-15_181637:780,-0.40570100000000003,-0.013213999999999998,-0.282166,-0.00403,0.0024519999999999998,0.0018989999999999999,-42.560001,5.06,-8.18,2d
2019-07-15_181637:800,-0.406738,-0.014221000000000001,-0.28418000000000004,-0.004,0.0023,0.001503,-42.560001,5.06,-8.18,2d
2019-07-15_181637:820,-0.406219,-0.012695,-0.28369099999999997,-0.0036950000000000004,0.002116,0.000831,-42.560001,5.5,-7.75,2d
2019-07-15_181637:840,-0.40774499999999997,-0.014740000000000001,-0.284698,-0.003512,0.002055,0.000496,-42.560001,5.5,-7.75,2d
2019-07-15_181637:860,-0.40823400000000004,-0.015228,-0.284698,-0.002932,0.002239,0.00016,-42.25,5.06,-7.37,2d
2019-07-15_181637:880,-0.410797,-0.015228,-0.283173,-0.002657,0.002513,-0.00011499999999999999,-42.25,5.06,-7.37,2d
2019-07-15_181637:900,-0.411804,-0.013213999999999998,-0.28112800000000004,-0.002169,0.003032,-0.00045099999999999996,-42.25,5.06,-7.37,2d
2019-07-15_181637:920,-0.411804,-0.012177,-0.281647,-0.001864,0.0035810000000000004,-0.000725,-42.560001,5.75,-8.18,2d
2019-07-15_181637:940,-0.411285,-0.011687999999999999,-0.281647,-0.0017109999999999998,0.0041,-0.001183,-42.560001,5.75,-8.18,2d
2019-07-15_181637:960,-0.41333000000000003,-0.010162000000000001,-0.279114,-0.0014060000000000001,0.004375,-0.001397,-42.560001,4.68,-8.18,2d
2019-07-15_181637:980,-0.412811,-0.008636,-0.277588,-0.0015279999999999998,0.004619,-0.0011220000000000002,-42.560001,4.68,-8.18,2d
2019-07-15_181638:000,-0.411285,-0.006592,-0.276581,-0.0015890000000000001,0.005168,-0.000725,-42.560001,4.68,-8.18,2d
2019-07-15_181638:020,-0.411285,-0.006592,-0.275543,-0.002199,0.005412,-0.000267,-42.25,4.68,-9.0,2d
2019-07-15_181638:040,-0.408752,-0.0055850000000000006,-0.274536,-0.0029010000000000004,0.005168,0.000587,-42.25,4.68,-9.0,2d
2019-07-15_181638:060,-0.408752,-0.006072999999999999,-0.275543,-0.0032979999999999997,0.004771,0.000984,-42.560001,5.5,-7.75,2d
2019-07-15_181638:080,-0.410278,-0.0055850000000000006,-0.272003,-0.004275,0.004436,0.000984,-42.560001,5.5,-7.75,2d
2019-07-15_181638:100,-0.412811,-0.007111,-0.273529,-0.004824,0.0041,0.001167,-42.560001,5.5,-7.75,2d
2019-07-15_181638:120,-0.412811,-0.009644,-0.272491,-0.005404,0.004222,0.000831,-42.560001,4.68,-8.18,2d
2019-07-15_181638:140,-0.41384899999999997,-0.010162000000000001,-0.271484,-0.005526,0.004375,0.001167,-42.560001,4.68,-8.18,2d
2019-07-15_181638:160,-0.41485600000000006,-0.012177,-0.274017,-0.005465,0.0042829999999999995,0.00251,-42.560001,5.06,-7.75,2d
2019-07-15_181638:180,-0.411804,-0.015747,-0.272003,-0.005343,0.004436,0.002113,-42.560001,5.06,-7.75,2d
2019-07-15_181638:200,-0.411285,-0.016266,-0.272003,-0.004946,0.003825,0.001564,-42.560001,5.06,-7.75,2d
2019-07-15_181638:220,-0.40976,-0.01828,-0.272491,-0.004427,0.003307,0.000496,-41.869999,5.06,-6.56,2d
2019-07-15_181638:240,-0.410278,-0.015228,-0.272491,-0.0036950000000000004,0.002635,-5.4000000000000005e-05,-41.869999,5.06,-6.56,2d
2019-07-15_181638:260,-0.410278,-0.015228,-0.272491,-0.002993,0.002391,0.000648,-42.25,5.5,-7.37,2d
2019-07-15_181638:280,-0.411804,-0.015228,-0.272003,-0.0028399999999999996,0.0023,0.000404,-42.25,5.5,-7.37,2d
2019-07-15_181638:300,-0.410278,-0.013702,-0.27301,-0.0025960000000000002,0.001994,7.000000000000001e-06,-42.25,5.5,-7.37,2d
2019-07-15_181638:320,-0.41384899999999997,-0.013213999999999998,-0.273529,-0.0025960000000000002,0.002239,0.000129,-42.560001,4.68,-7.75,2d
2019-07-15_181638:340,-0.414337,-0.012177,-0.27301,-0.002718,0.002391,-0.000512,-42.560001,4.68,-7.75,2d
2019-07-15_181638:360,-0.41485600000000006,-0.011687999999999999,-0.273529,-0.0028399999999999996,0.002513,-0.000176,-43.0,5.75,-7.75,2d
2019-07-15_181638:380,-0.41485600000000006,-0.011169,-0.272491,-0.0031149999999999997,0.002635,-0.00011499999999999999,-43.0,5.75,-7.75,2d
2019-07-15_181638:400,-0.41485600000000006,-0.010162000000000001,-0.272003,-0.0032979999999999997,0.0024519999999999998,0.000221,-43.0,5.75,-7.75,2d
2019-07-15_181638:420,-0.41333000000000003,-0.010162000000000001,-0.270477,-0.003573,0.002513,0.000648,-43.0,5.06,-7.75,2d
2019-07-15_181638:440,-0.414337,-0.011169,-0.268951,-0.004,0.002391,0.001167,-43.0,5.06,-7.75,2d
2019-07-15_181638:460,-0.414337,-0.012177,-0.26944,-0.004488000000000001,0.002239,0.00132,-42.25,4.25,-6.18,2d
2019-07-15_181638:480,-0.41333000000000003,-0.012177,-0.270477,-0.0048850000000000005,0.0023,0.001625,-42.25,4.25,-6.18,2d
2019-07-15_181638:500,-0.41485600000000006,-0.014221000000000001,-0.272491,-0.005129,0.002239,0.000923,-42.25,4.25,-6.18,2d
2019-07-15_181638:520,-0.41485600000000006,-0.016266,-0.27301,-0.005068,0.002177,-0.000725,-42.25,5.5,-7.0,2d
2019-07-15_181638:540,-0.412811,-0.015747,-0.270966,-0.004549,0.002116,-0.000725,-42.25,5.5,-7.0,2d
2019-07-15_181638:560,-0.41586300000000004,-0.015228,-0.272491,-0.004,0.002361,6.8e-05,-42.25,4.25,-7.0,2d
2019-07-15_181638:580,-0.41485600000000006,-0.014221000000000001,-0.270966,-0.0036950000000000004,0.002513,-0.00011499999999999999,-42.25,4.25,-7.0,2d
2019-07-15_181638:600,-0.41485600000000006,-0.012695,-0.270966,-0.00339,0.002696,-5.4000000000000005e-05,-42.25,4.25,-7.0,2d
2019-07-15_181638:620,-0.414337,-0.011169,-0.271484,-0.0036340000000000005,0.002391,-0.000664,-42.560001,4.68,-7.0,2d
2019-07-15_181638:640,-0.41384899999999997,-0.009644,-0.26944,-0.003878,0.002788,-0.0009689999999999999,-42.560001,4.68,-7.0,2d
2019-07-15_181638:660,-0.414337,-0.009644,-0.271484,-0.00403,0.002635,-0.001,-43.0,5.5,-8.18,2d
2019-07-15_181638:680,-0.41485600000000006,-0.012177,-0.270477,-0.004091,0.002391,-0.001397,-43.0,5.5,-8.18,2d
2019-07-15_181638:700,-0.416901,-0.011169,-0.270477,-0.003939,0.002635,-0.0017929999999999999,-43.0,5.5,-8.18,2d
2019-07-15_181638:720,-0.416382,-0.011169,-0.270477,-0.0036340000000000005,0.003032,-0.002037,-42.560001,4.68,-7.37,2d
2019-07-15_181638:740,-0.41586300000000004,-0.010162000000000001,-0.270477,-0.003237,0.003032,-0.002251,-42.560001,4.68,-7.37,2d
2019-07-15_181638:760,-0.414337,-0.008636,-0.270966,-0.003054,0.0029100000000000003,-0.0021899999999999997,-42.25,4.68,-5.75,2d
2019-07-15_181638:780,-0.414337,-0.008636,-0.268951,-0.002718,0.0029100000000000003,-0.0019760000000000003,-42.25,4.68,-5.75,2d
2019-07-15_181638:800,-0.41232299999999994,-0.006072999999999999,-0.267426,-0.002657,0.002696,-0.0017929999999999999,-42.25,4.68,-5.75,2d
2019-07-15_181638:820,-0.414337,-0.007599,-0.268433,-0.0025050000000000003,0.0024519999999999998,-0.002098,-42.25,5.06,-6.56,2d
2019-07-15_181638:840,-0.41586300000000004,-0.004547,-0.267426,-0.002657,0.002391,-0.00216,-42.25,5.06,-6.56,2d
2019-07-15_181638:860,-0.41586300000000004,-0.004547,-0.266907,-0.0029010000000000004,0.0023,-0.002037,-42.560001,4.25,-7.0,2d
2019-07-15_181638:880,-0.416382,-0.004059,-0.266907,-0.003054,0.002513,-0.001854,-42.560001,4.25,-7.0,2d
2019-07-15_181638:900,-0.416382,-0.004059,-0.266388,-0.0031149999999999997,0.002239,-0.0013050000000000002,-42.560001,4.25,-7.0,2d
2019-07-15_181638:920,-0.416382,-0.0035399999999999997,-0.266907,-0.0031149999999999997,0.002055,-0.0012439999999999999,-42.25,4.25,-8.18,2d
2019-07-15_181638:940,-0.416901,-0.0030210000000000002,-0.265381,-0.003512,0.001994,-0.0008470000000000001,-42.25,4.25,-8.18,2d
2019-07-15_181638:960,-0.416901,-0.0030210000000000002,-0.266907,-0.003512,0.001994,-0.000786,-42.25,4.68,-6.56,2d
2019-07-15_181638:980,-0.415375,-0.0030210000000000002,-0.2659,-0.0036950000000000004,0.00172,-0.000634,-42.25,4.68,-6.56,2d
2019-07-15_181639:000,-0.41586300000000004,-0.0025329999999999997,-0.264862,-0.003878,0.0014759999999999999,-0.000389,-42.25,4.68,-6.56,2d
2019-07-15_181639:020,-0.415375,-0.004059,-0.265381,-0.003878,0.0014759999999999999,-0.000267,-41.5,4.68,-7.0,2d
2019-07-15_181639:040,-0.41586300000000004,-0.004059,-0.2659,-0.004,0.001018,-0.000512,-41.5,4.68,-7.0,2d
2019-07-15_181639:060,-0.416382,-0.004547,-0.265381,-0.003664,0.0010789999999999999,-0.000634,-42.25,4.68,-6.56,2d
2019-07-15_181639:080,-0.416901,-0.005065999999999999,-0.266907,-0.003176,0.00114,-5.4000000000000005e-05,-42.25,4.68,-6.56,2d
2019-07-15_181639:100,-0.417389,-0.004547,-0.267426,-0.002993,0.001415,6.8e-05,-42.25,4.68,-6.56,2d
2019-07-15_181639:120,-0.416382,-0.004547,-0.268433,-0.002657,0.001292,0.000221,-43.0,4.0,-7.0,2d
2019-07-15_181639:140,-0.416901,-0.0035399999999999997,-0.266907,-0.002657,0.001353,0.000343,-43.0,4.0,-7.0,2d
2019-07-15_181639:160,-0.415375,-0.001495,-0.266907,-0.0031149999999999997,0.0016589999999999999,0.000709,-43.369999,4.25,-7.0,2d
2019-07-15_181639:180,-0.41485600000000006,-0.001495,-0.267426,-0.0037560000000000002,0.001292,0.000984,-43.369999,4.25,-7.0,2d
2019-07-15_181639:200,-0.41586300000000004,-0.0025329999999999997,-0.268951,-0.004275,0.001201,0.001381,-43.369999,4.25,-7.0,2d
2019-07-15_181639:220,-0.41485600000000006,-0.005065999999999999,-0.270477,-0.004824,0.0010789999999999999,0.001258,-42.560001,4.68,-6.18,2d
2019-07-15_181639:240,-0.41485600000000006,-0.0055850000000000006,-0.268951,-0.005129,0.0009570000000000001,0.00132,-42.560001,4.68,-6.18,2d
2019-07-15_181639:260,-0.41842700000000005,-0.007599,-0.26944,-0.005068,0.0008039999999999999,0.001045,-42.25,4.25,-7.0,2d
2019-07-15_181639:280,-0.41943400000000003,-0.008118,-0.270477,-0.004671,0.001537,0.000465,-42.25,4.25,-7.0,2d
2019-07-15_181639:300,-0.41586300000000004,-0.008636,-0.270477,-0.004213000000000001,0.002177,0.000526,-42.25,4.25,-7.0,2d
2019-07-15_181639:320,-0.41586300000000004,-0.008636,-0.270477,-0.003573,0.00172,0.000343,-43.0,4.68,-5.75,2d
2019-07-15_181639:340,-0.415375,-0.006072999999999999,-0.265381,-0.0031149999999999997,0.001994,0.000831,-43.0,4.68,-5.75,2d
2019-07-15_181639:360,-0.416901,-0.006592,-0.268433,-0.002993,0.002055,0.001258,-43.0,4.68,-6.56,2d
2019-07-15_181639:380,-0.41485600000000006,-0.004547,-0.266907,-0.0033280000000000002,0.0016589999999999999,0.001167,-43.0,4.68,-6.56,2d
2019-07-15_181639:400,-0.41384899999999997,-0.004059,-0.266388,-0.003512,0.0012619999999999999,0.000129,-43.0,4.68,-6.56,2d
2019-07-15_181639:420,-0.41485600000000006,-0.0055850000000000006,-0.268433,-0.004,0.0010789999999999999,-0.000512,-42.560001,4.68,-7.75,2d
2019-07-15_181639:440,-0.415375,-0.006072999999999999,-0.266388,-0.004152,0.0010789999999999999,0.000465,-42.560001,4.68,-7.75,2d
2019-07-15_181639:460,-0.41586300000000004,-0.006592,-0.268951,-0.004213000000000001,0.0012619999999999999,0.000526,-43.0,4.25,-7.37,2d
2019-07-15_181639:480,-0.416901,-0.006072999999999999,-0.268951,-0.004,0.001353,6.8e-05,-43.0,4.25,-7.37,2d
2019-07-15_181639:500,-0.416382,-0.006592,-0.269958,-0.003664,0.001598,0.000221,-43.0,4.25,-7.37,2d
2019-07-15_181639:520,-0.41842700000000005,-0.005065999999999999,-0.26944,-0.0034509999999999996,0.0019030000000000002,0.000221,-42.25,4.0,-7.37,2d
2019-07-15_181639:540,-0.41842700000000005,-0.004547,-0.268433,-0.0032979999999999997,0.002239,0.000343,-42.25,4.0,-7.37,2d
2019-07-15_181639:560,-0.418915,-0.004547,-0.268433,-0.0032979999999999997,0.002513,0.000343,-42.560001,4.68,-6.18,2d
2019-07-15_181639:580,-0.41842700000000005,-0.0030210000000000002,-0.267426,-0.0032979999999999997,0.002849,0.000129,-42.560001,4.68,-6.18,2d
2019-07-15_181639:600,-0.417389,-0.004059,-0.268433,-0.003573,0.002635,0.00016,-42.560001,4.68,-6.18,2d
2019-07-15_181639:620,-0.41485600000000006,-0.004059,-0.268951,-0.0036340000000000005,0.002696,-5.4000000000000005e-05,-43.369999,4.25,-7.0,2d
2019-07-15_181639:640,-0.41485600000000006,-0.004059,-0.267426,-0.0037560000000000002,0.002391,0.00016,-43.369999,4.25,-7.0,2d
2019-07-15_181639:660,-0.416901,-0.004547,-0.267426,-0.003817,0.0024519999999999998,0.00028199999999999997,-42.560001,4.0,-6.18,2d
2019-07-15_181639:680,-0.418915,-0.004059,-0.265381,-0.00403,0.002849,0.000526,-42.560001,4.0,-6.18,2d
2019-07-15_181639:700,-0.416901,-0.0035399999999999997,-0.2659,-0.004213000000000001,0.002788,0.000984,-42.560001,4.0,-6.18,2d
2019-07-15_181639:720,-0.414337,-0.004059,-0.266388,-0.004213000000000001,0.002849,0.000648,-42.25,4.25,-6.18,2d
2019-07-15_181639:740,-0.41485600000000006,-0.004059,-0.264862,-0.004488000000000001,0.002177,-5.4000000000000005e-05,-42.25,4.25,-6.18,2d
2019-07-15_181639:760,-0.41485600000000006,-0.006072999999999999,-0.265381,-0.004488000000000001,0.001964,0.00028199999999999997,-42.25,4.0,-7.0,2d
2019-07-15_181639:780,-0.414337,-0.006592,-0.266388,-0.004,0.001415,0.000465,-42.25,4.0,-7.0,2d
2019-07-15_181639:800,-0.416382,-0.006072999999999999,-0.265381,-0.003817,0.001201,0.000526,-42.25,4.0,-7.0,2d
2019-07-15_181639:820,-0.416901,-0.0025329999999999997,-0.267914,-0.0034509999999999996,0.00114,6.8e-05,-42.560001,4.25,-7.37,2d
2019-07-15_181639:840,-0.416901,-0.0025329999999999997,-0.266388,-0.0033280000000000002,0.0012619999999999999,7.000000000000001e-06,-42.560001,4.25,-7.37,2d
2019-07-15_181639:860,-0.41586300000000004,-0.0030210000000000002,-0.2659,-0.0036340000000000005,0.001201,0.00028199999999999997,-42.25,4.0,-7.0,2d
2019-07-15_181639:880,-0.41485600000000006,-0.004059,-0.266907,-0.0036340000000000005,0.00114,0.000221,-42.25,4.0,-7.0,2d
2019-07-15_181639:900,-0.415375,-0.004547,-0.266388,-0.0032979999999999997,0.000865,0.000343,-42.25,4.0,-7.0,2d
2019-07-15_181639:920,-0.416382,-0.005065999999999999,-0.2659,-0.003176,0.0008039999999999999,0.00028199999999999997,-42.25,4.68,-7.0,2d
2019-07-15_181639:940,-0.417908,-0.004059,-0.266907,-0.002932,0.000682,0.000404,-42.25,4.68,-7.0,2d
2019-07-15_181639:960,-0.416382,-0.004059,-0.267914,-0.002932,0.000865,0.000648,-42.25,4.25,-7.0,2d
2019-07-15_181639:980,-0.414337,-0.0035399999999999997,-0.269958,-0.002993,0.000468,0.000648,-42.25,4.25,-7.0,2d
2019-07-15_181640:000,-0.41586300000000004,-0.0035399999999999997,-0.268951,-0.002932,0.000468,0.000709,-42.25,4.25,-7.0,2d
2019-07-15_181640:020,-0.418915,-0.004059,-0.26944,-0.0031149999999999997,0.000285,0.000526,-42.25,4.25,-7.75,2d
2019-07-15_181640:040,-0.41842700000000005,-0.0030210000000000002,-0.268951,-0.0032979999999999997,0.000743,0.000496,-42.25,4.25,-7.75,2d
2019-07-15_181640:060,-0.417389,-0.004547,-0.269958,-0.0033280000000000002,0.0014759999999999999,0.000984,-43.0,4.68,-7.37,2d
2019-07-15_181640:080,-0.415375,-0.004547,-0.26944,-0.003573,0.0016589999999999999,0.001106,-43.0,4.68,-7.37,2d
2019-07-15_181640:100,-0.417389,-0.004059,-0.268433,-0.0036340000000000005,0.0017809999999999998,0.001106,-43.0,4.68,-7.37,2d
2019-07-15_181640:120,-0.41842700000000005,-0.0055850000000000006,-0.26944,-0.0037560000000000002,0.001842,0.000984,-42.25,5.06,-8.18,2d
2019-07-15_181640:140,-0.416901,-0.006072999999999999,-0.267914,-0.003878,0.001964,0.000984,-42.25,5.06,-8.18,2d
2019-07-15_181640:160,-0.416901,-0.006072999999999999,-0.268951,-0.003878,0.00172,0.000984,-43.0,5.06,-6.56,2d
2019-07-15_181640:180,-0.415375,-0.006592,-0.268951,-0.003664,0.001842,0.000831,-43.0,5.06,-6.56,2d
2019-07-15_181640:200,-0.417908,-0.006592,-0.267426,-0.0034509999999999996,0.0019030000000000002,0.000496,-43.0,5.06,-6.56,2d
2019-07-15_181640:220,-0.417389,-0.0055850000000000006,-0.267426,-0.003512,0.001994,0.000709,-42.560001,4.25,-7.0,2d
2019-07-15_181640:240,-0.41485600000000006,-0.005065999999999999,-0.266388,-0.0033280000000000002,0.0019030000000000002,0.000923,-42.560001,4.25,-7.0,2d
2019-07-15_181640:260,-0.41485600000000006,-0.006072999999999999,-0.268433,-0.003573,0.0016589999999999999,0.000709,-42.560001,4.25,-7.0,2d
2019-07-15_181640:280,-0.41333000000000003,-0.006592,-0.267426,-0.0033280000000000002,0.001353,0.000526,-42.560001,5.06,-7.75,2d
2019-07-15_181640:300,-0.41333000000000003,-0.006072999999999999,-0.265381,-0.0033280000000000002,0.00114,0.000709,-42.560001,5.06,-7.75,2d
2019-07-15_181640:320,-0.41485600000000006,-0.0055850000000000006,-0.266388,-0.0032979999999999997,0.001018,0.000648,-42.25,4.0,-7.0,2d
2019-07-15_181640:340,-0.417908,-0.006072999999999999,-0.267914,-0.003512,0.000499,0.000831,-42.25,4.0,-7.0,2d
2019-07-15_181640:360,-0.417908,-0.007111,-0.268951,-0.003512,0.000743,0.000831,-42.25,4.25,-7.75,2d
2019-07-15_181640:380,-0.417389,-0.007111,-0.267914,-0.003817,0.001018,0.000831,-42.25,4.25,-7.75,2d
2019-07-15_181640:400,-0.41485600000000006,-0.007111,-0.266388,-0.0036950000000000004,0.0008960000000000001,0.0008619999999999999,-42.25,4.25,-7.75,2d
2019-07-15_181640:420,-0.41586300000000004,-0.006592,-0.268951,-0.0037560000000000002,0.0009570000000000001,0.000465,-42.25,5.06,-7.75,2d
2019-07-15_181640:440,-0.41586300000000004,-0.006592,-0.268433,-0.0036340000000000005,0.001018,0.000129,-42.25,5.06,-7.75,2d
2019-07-15_181640:460,-0.415375,-0.006072999999999999,-0.268951,-0.003573,0.0008039999999999999,0.000404,-42.25,5.06,-7.75,2d
2019-07-15_181640:480,-0.414337,-0.006592,-0.26944,-0.003573,0.000743,0.000221,-43.369999,4.25,-6.56,2d
2019-07-15_181640:500,-0.416382,-0.0055850000000000006,-0.268951,-0.00339,0.000743,-0.00011499999999999999,-43.369999,4.25,-6.56,2d
2019-07-15_181640:520,-0.416382,-0.004547,-0.270477,-0.003054,0.000865,-0.000176,-42.560001,4.68,-7.0,2d
2019-07-15_181640:540,-0.41842700000000005,-0.004059,-0.268433,-0.002932,0.001018,-0.000725,-42.560001,4.68,-7.0,2d
2019-07-15_181640:560,-0.414337,-0.0030210000000000002,-0.267914,-0.002932,0.0014759999999999999,0.000496,-43.0,3.56,-6.56,2d
2019-07-15_181640:580,-0.41333000000000003,-0.0030210000000000002,-0.270477,-0.0033280000000000002,0.001353,0.001045,-43.0,3.56,-6.56,2d
2019-07-15_181640:600,-0.41485600000000006,-0.004547,-0.26944,-0.0036340000000000005,0.0008960000000000001,0.0008619999999999999,-43.0,3.56,-6.56,2d
2019-07-15_181640:620,-0.41586300000000004,-0.006072999999999999,-0.270477,-0.0037560000000000002,0.000468,-0.000176,-42.560001,4.68,-5.75,2d
2019-07-15_181640:640,-0.415375,-0.0055850000000000006,-0.269958,-0.003817,0.00056,-0.000328,-42.560001,4.68,-5.75,2d
2019-07-15_181640:660,-0.41586300000000004,-0.008636,-0.270477,-0.0036340000000000005,0.000743,0.0008619999999999999,-42.560001,4.68,-5.75,2d
2019-07-15_181640:680,-0.41485600000000006,-0.007599,-0.270477,-0.00339,0.0009570000000000001,0.000526,-42.560001,4.0,-7.0,2d
2019-07-15_181640:700,-0.41485600000000006,-0.006072999999999999,-0.26944,-0.0029010000000000004,0.001415,0.000404,-42.560001,4.0,-7.0,2d
2019-07-15_181640:720,-0.414337,-0.005065999999999999,-0.272003,-0.0029010000000000004,0.001415,0.000831,-42.560001,4.68,-6.56,2d
2019-07-15_181640:740,-0.41384899999999997,-0.0030210000000000002,-0.268433,-0.0029010000000000004,0.0014759999999999999,0.0007700000000000001,-42.560001,4.68,-6.56,2d
2019-07-15_181640:760,-0.414337,-0.004547,-0.269958,-0.0032979999999999997,0.0014759999999999999,0.000923,-42.560001,4.68,-6.56,2d
2019-07-15_181640:780,-0.415375,-0.004547,-0.269958,-0.003878,0.001292,0.0008619999999999999,-42.25,4.25,-7.37,2d
2019-07-15_181640:800,-0.41384899999999997,-0.006592,-0.26944,-0.004213000000000001,0.000743,0.0007700000000000001,-42.25,4.25,-7.37,2d
2019-07-15_181640:820,-0.41232299999999994,-0.008118,-0.268951,-0.004488000000000001,0.000285,0.0007700000000000001,-42.560001,4.68,-7.0,2d
2019-07-15_181640:840,-0.412811,-0.008636,-0.268433,-0.004275,-0.000172,0.000587,-42.560001,4.68,-7.0,2d
2019-07-15_181640:860,-0.41333000000000003,-0.007111,-0.269958,-0.004213000000000001,-0.000172,0.000648,-42.560001,4.68,-7.0,2d
2019-07-15_181640:880,-0.415375,-0.006592,-0.270477,-0.004213000000000001,-0.00063,0.000587,-41.869999,4.25,-6.56,2d
2019-07-15_181640:900,-0.414337,-0.006592,-0.268951,-0.004,-0.000661,0.000923,-41.869999,4.25,-6.56,2d
2019-07-15_181640:920,-0.412811,-0.007599,-0.270477,-0.004275,-0.000508,0.000221,-43.0,4.25,-8.18,2d
2019-07-15_181640:940,-0.409271,-0.006592,-0.271484,-0.004213000000000001,-0.001057,-0.000328,-43.0,4.25,-8.18,2d
2019-07-15_181640:960,-0.410278,-0.006592,-0.273529,-0.004091,-0.001637,0.000587,-43.0,4.25,-8.18,2d
2019-07-15_181640:980,-0.40976,-0.006592,-0.27301,-0.004397,-0.002034,-5.4000000000000005e-05,-43.0,4.25,-6.18,2d
2019-07-15_181641:000,-0.40774499999999997,-0.004547,-0.274536,-0.004336,-0.0027660000000000002,-5.4000000000000005e-05,-43.0,4.25,-6.18,2d
2019-07-15_181641:020,-0.40823400000000004,-0.004547,-0.276581,-0.004732,-0.003438,-0.000176,-42.25,4.68,-7.75,2d
2019-07-15_181641:040,-0.41333000000000003,-0.001007,-0.276581,-0.005465,-0.003621,-0.000786,-42.25,4.68,-7.75,2d
2019-07-15_181641:060,-0.41586300000000004,-0.000488,-0.277588,-0.0064719999999999995,-0.0032240000000000003,-0.0008470000000000001,-42.25,4.68,-7.75,2d
2019-07-15_181641:080,-0.40976,-0.0025329999999999997,-0.277069,-0.007479,-0.002431,-0.000908,-42.560001,4.25,-7.75,2d
2019-07-15_181641:100,-0.40570100000000003,-0.0035399999999999997,-0.278595,-0.007998,-0.002095,-0.0009689999999999999,-42.560001,4.25,-7.75,2d
2019-07-15_181641:120,-0.410278,-0.0035399999999999997,-0.279114,-0.008181,-0.002919,-0.001641,-42.25,4.68,-7.37,2d
2019-07-15_181641:140,-0.416901,-0.0025329999999999997,-0.278107,-0.008059,-0.00237,-0.002526,-42.25,4.68,-7.37,2d
2019-07-15_181641:160,-0.421967,-0.0035399999999999997,-0.280121,-0.007815,-0.000386,-0.003045,-42.25,4.68,-7.37,2d
2019-07-15_181641:180,-0.416901,-0.004547,-0.283173,-0.007387,0.0014759999999999999,-0.0033799999999999998,-42.25,4.25,-7.75,2d
2019-07-15_181641:200,-0.410797,-0.0035399999999999997,-0.279633,-0.006594,0.002055,-0.003228,-42.25,4.25,-7.75,2d
2019-07-15_181641:220,-0.41485600000000006,-0.001007,-0.279633,-0.005922,0.002239,-0.002709,-41.869999,4.68,-7.75,2d
2019-07-15_181641:240,-0.411804,-0.000488,-0.279114,-0.005282,0.003093,-0.002495,-41.869999,4.68,-7.75,2d
2019-07-15_181641:260,-0.40774499999999997,0.0,-0.279633,-0.004793,0.00352,-0.001854,-41.869999,4.68,-7.75,2d
2019-07-15_181641:280,-0.404694,0.0,-0.277069,-0.004213000000000001,0.003093,-0.0011220000000000002,-41.869999,4.0,-9.75,2d
2019-07-15_181641:300,-0.40570100000000003,0.0025329999999999997,-0.274536,-0.003878,0.002635,-0.000725,-41.869999,4.0,-9.75,2d
2019-07-15_181641:320,-0.405212,0.001495,-0.276062,-0.0034509999999999996,0.002116,-0.000573,-43.0,4.25,-7.75,2d
2019-07-15_181641:340,-0.409271,0.0025329999999999997,-0.276581,-0.003237,0.001628,-0.001,-43.0,4.25,-7.75,2d
2019-07-15_181641:360,-0.407227,0.002014,-0.276062,-0.002932,0.001292,-0.000786,-43.0,4.25,-7.75,2d
2019-07-15_181641:380,-0.406219,0.0025329999999999997,-0.278107,-0.0028399999999999996,0.000865,-0.000573,-43.0,4.0,-8.56,2d
2019-07-15_181641:400,-0.40823400000000004,0.004059,-0.277069,-0.002657,0.000133,-0.000573,-43.0,4.0,-8.56,2d
2019-07-15_181641:420,-0.411804,0.004547,-0.277588,-0.0022600000000000003,-0.00011100000000000001,-0.000634,-42.560001,4.25,-7.37,2d
2019-07-15_181641:440,-0.411804,0.005065999999999999,-0.278107,-0.002169,0.000468,-0.00045099999999999996,-42.560001,4.25,-7.37,2d
2019-07-15_181641:460,-0.409271,0.0035399999999999997,-0.278595,-0.001772,0.000743,-0.00011499999999999999,-42.560001,4.25,-7.37,2d
2019-07-15_181641:480,-0.40774499999999997,0.0030210000000000002,-0.277588,-0.001467,0.000682,0.00028199999999999997,-42.25,4.0,-7.75,2d
2019-07-15_181641:500,-0.407227,0.0035399999999999997,-0.279114,-0.00107,0.000346,0.0008619999999999999,-42.25,4.0,-7.75,2d
2019-07-15_181641:520,-0.407227,0.004547,-0.278107,-0.001009,0.00056,0.001228,-42.560001,3.56,-7.37,2d
2019-07-15_181641:540,-0.410278,0.005065999999999999,-0.277588,-0.001192,0.000468,0.001381,-42.560001,3.56,-7.37,2d
2019-07-15_181641:560,-0.409271,0.004547,-0.279114,-0.0017109999999999998,0.000682,0.001381,-42.560001,3.56,-7.37,2d
2019-07-15_181641:580,-0.409271,0.006592,-0.281647,-0.002321,0.0008960000000000001,0.001503,-41.869999,4.0,-7.75,2d
2019-07-15_181641:600,-0.410278,0.006592,-0.281647,-0.0032979999999999997,0.0008039999999999999,0.001381,-41.869999,4.0,-7.75,2d
2019-07-15_181641:620,-0.40823400000000004,0.006072999999999999,-0.28064,-0.004091,0.001018,0.001167,-42.25,4.0,-8.18,2d
2019-07-15_181641:640,-0.408752,0.004059,-0.28064,-0.004793,0.0008960000000000001,0.00132,-42.25,4.0,-8.18,2d
2019-07-15_181641:660,-0.409271,0.004059,-0.282166,-0.005007,0.0008960000000000001,0.001228,-42.25,4.0,-8.18,2d
2019-07-15_181641:680,-0.410278,0.006592,-0.278107,-0.005526,0.0010789999999999999,0.001991,-42.25,3.56,-9.0,2d
2019-07-15_181641:700,-0.410797,0.006072999999999999,-0.28064,-0.005861,0.001353,0.003975,-42.25,3.56,-9.0,2d
2019-07-15_181641:720,-0.406219,0.0055850000000000006,-0.282654,-0.006991,0.001353,0.004951,-43.0,4.0,-8.18,2d
2019-07-15_181641:740,-0.40976,0.004059,-0.285217,-0.007601,0.001415,0.005043,-43.0,4.0,-8.18,2d
2019-07-15_181641:760,-0.40316799999999997,-0.000488,-0.276062,-0.008333,0.0014759999999999999,0.004036,-43.0,4.0,-8.18,2d
2019-07-15_181641:780,-0.40316799999999997,-0.002014,-0.274536,-0.008181,0.0008960000000000001,0.0037,-40.75,4.25,-8.56,2d
2019-07-15_181641:800,-0.402649,-0.007111,-0.279114,-0.007540000000000001,0.000468,0.004097,-40.75,4.25,-8.56,2d
2019-07-15_181641:820,-0.40570100000000003,-0.009644,-0.283173,-0.0066549999999999995,-0.000172,0.00309,-41.869999,4.25,-8.56,2d
2019-07-15_181641:840,-0.40774499999999997,-0.010651,-0.282166,-0.005465,-0.000233,0.001381,-41.869999,4.25,-8.56,2d
2019-07-15_181641:860,-0.40823400000000004,-0.008636,-0.282166,-0.003878,1.1e-05,0.000404,-41.869999,4.25,-8.56,2d
2019-07-15_181641:880,-0.40774499999999997,-0.008118,-0.282654,-0.002993,0.00016299999999999998,-0.00045099999999999996,-41.869999,5.06,-8.18,2d
2019-07-15_181641:900,-0.406738,-0.007111,-0.282654,-0.001925,0.000285,-0.0013050000000000002,-41.869999,5.06,-8.18,2d
2019-07-15_181641:920,-0.406738,-0.006072999999999999,-0.284698,-0.001009,-0.000172,-0.0019149999999999998,-42.25,4.25,-7.75,2d
2019-07-15_181641:940,-0.40570100000000003,-0.0055850000000000006,-0.282654,-0.000185,-0.000172,-0.0021899999999999997,-42.25,4.25,-7.75,2d
2019-07-15_181641:960,-0.404175,-0.0055850000000000006,-0.28418000000000004,0.000791,-0.000233,-0.0023120000000000003,-42.25,4.25,-7.75,2d
2019-07-15_181641:980,-0.404175,-0.007111,-0.28674299999999997,0.0016760000000000002,-0.00044699999999999997,-0.002098,-41.869999,4.0,-7.75,2d
2019-07-15_181642:000,-0.407227,-0.006592,-0.286224,0.002775,-0.000661,-0.002495,-41.869999,4.0,-7.75,2d
2019-07-15_181642:020,-0.410797,-0.007599,-0.28875700000000004,0.003782,-0.000172,-0.002648,-41.869999,4.68,-9.37,2d
2019-07-15_181642:040,-0.411804,-0.008118,-0.288269,0.004637,0.000865,-0.002892,-41.869999,4.68,-9.37,2d
2019-07-15_181642:060,-0.40976,-0.001495,-0.28927600000000003,0.005522,0.001994,-0.0033799999999999998,-41.869999,4.68,-9.37,2d
2019-07-15_181642:080,-0.41333000000000003,0.0,-0.290802,0.005796,0.0029100000000000003,-0.0037770000000000004,-42.560001,4.25,-8.18,2d
2019-07-15_181642:100,-0.410797,0.006592,-0.288269,0.005033,0.0041,-0.0034409999999999996,-42.560001,4.25,-8.18,2d
2019-07-15_181642:120,-0.409271,0.009125,-0.287231,0.003904,0.005046,-0.002251,-42.560001,4.0,-9.0,2d
2019-07-15_181642:140,-0.408752,0.012695,-0.285217,0.002012,0.005748,-0.000786,-42.560001,4.0,-9.0,2d
2019-07-15_181642:160,-0.40823400000000004,0.013213999999999998,-0.283173,0.000151,0.006236,0.0008619999999999999,-42.560001,4.0,-9.0,2d
2019-07-15_181642:180,-0.406219,0.011169,-0.282654,-0.0021079999999999996,0.005961999999999999,0.001503,-41.869999,4.25,-8.56,2d
2019-07-15_181642:200,-0.406738,0.010651,-0.282166,-0.004397,0.006023,0.001564,-41.869999,4.25,-8.56,2d
2019-07-15_181642:220,-0.409271,0.008636,-0.28064,-0.006319,0.005443,0.002052,-41.869999,3.56,-7.75,2d
2019-07-15_181642:240,-0.409271,0.005065999999999999,-0.277069,-0.007876000000000001,0.005351,0.002693,-41.869999,3.56,-7.75,2d
2019-07-15_181642:260,-0.40976,0.002014,-0.277588,-0.008578,0.0052899999999999996,0.003151,-41.869999,3.56,-7.75,2d
2019-07-15_181642:280,-0.41232299999999994,0.004059,-0.278107,-0.00873,0.005046,0.003517,-41.869999,4.25,-6.56,2d
2019-07-15_181642:300,-0.41333000000000003,0.005065999999999999,-0.276062,-0.009004999999999999,0.004954999999999999,0.004768,-41.869999,4.25,-6.56,2d
2019-07-15_181642:320,-0.41384899999999997,0.001495,-0.275055,-0.009188,0.005686999999999999,0.0060799999999999995,-41.869999,4.68,-8.18,2d
2019-07-15_181642:340,-0.411285,0.0,-0.272491,-0.009309999999999999,0.005748,0.006476999999999999,-41.869999,4.68,-8.18,2d
2019-07-15_181642:360,-0.409271,-0.0025329999999999997,-0.274536,-0.009188,0.005504,0.006813,-41.869999,4.68,-8.18,2d
2019-07-15_181642:380,-0.40823400000000004,-0.0035399999999999997,-0.27301,-0.008912999999999999,0.005016,0.006294,-42.25,4.25,-7.37,2d
2019-07-15_181642:400,-0.410797,-0.0055850000000000006,-0.271484,-0.00873,0.004497,0.005622,-42.25,4.25,-7.37,2d
2019-07-15_181642:420,-0.409271,-0.008636,-0.272491,-0.008211,0.0042829999999999995,0.005439,-41.869999,4.68,-8.18,2d
2019-07-15_181642:440,-0.410797,-0.010162000000000001,-0.272003,-0.007387,0.003917,0.004768,-41.869999,4.68,-8.18,2d
2019-07-15_181642:460,-0.41333000000000003,-0.009644,-0.272491,-0.00635,0.00349,0.004493,-41.869999,4.68,-8.18,2d
2019-07-15_181642:480,-0.411285,-0.008636,-0.272003,-0.005404,0.0034289999999999998,0.004371,-42.25,4.25,-7.75,2d
2019-07-15_181642:500,-0.410278,-0.009644,-0.272003,-0.004671,0.0034289999999999998,0.004036,-42.25,4.25,-7.75,2d
2019-07-15_181642:520,-0.40976,-0.008636,-0.272491,-0.004213000000000001,0.003246,0.003761,-41.060001,4.68,-6.18,2d
2019-07-15_181642:540,-0.412811,-0.006072999999999999,-0.270966,-0.003939,0.002513,0.003578,-41.060001,4.68,-6.18,2d
2019-07-15_181642:560,-0.41333000000000003,-0.006072999999999999,-0.272003,-0.00403,0.0024519999999999998,0.003486,-41.060001,4.68,-6.18,2d
2019-07-15_181642:580,-0.41232299999999994,-0.006592,-0.271484,-0.004152,0.002177,0.003151,-42.560001,4.68,-7.37,2d
2019-07-15_181642:600,-0.414337,-0.007111,-0.271484,-0.004732,0.002391,0.002967,-42.560001,4.68,-7.37,2d
2019-07-15_181642:620,-0.41485600000000006,-0.008636,-0.275055,-0.0051600000000000005,0.0024519999999999998,0.002967,-41.869999,4.68,-7.75,2d
2019-07-15_181642:640,-0.414337,-0.009125,-0.274536,-0.005282,0.002757,0.003242,-41.869999,4.68,-7.75,2d
2019-07-15_181642:660,-0.41384899999999997,-0.010651,-0.275543,-0.005678,0.002757,0.003242,-41.869999,4.68,-7.75,2d
2019-07-15_181642:680,-0.412811,-0.009644,-0.272003,-0.005739,0.0031850000000000003,0.002845,-41.060001,5.06,-7.75,2d
2019-07-15_181642:700,-0.41333000000000003,-0.010162000000000001,-0.272491,-0.005739,0.0029100000000000003,0.002845,-41.060001,5.06,-7.75,2d
2019-07-15_181642:720,-0.41586300000000004,-0.009644,-0.274017,-0.006014,0.002849,0.002571,-42.25,5.5,-7.0,2d
2019-07-15_181642:740,-0.416901,-0.009125,-0.270966,-0.006319,0.003032,0.002784,-42.25,5.5,-7.0,2d
2019-07-15_181642:760,-0.415375,-0.010162000000000001,-0.271484,-0.006684999999999999,0.003246,0.0030280000000000003,-42.25,5.5,-7.0,2d
2019-07-15_181642:780,-0.412811,-0.010162000000000001,-0.271484,-0.007143000000000001,0.0029100000000000003,0.0022960000000000003,-42.560001,5.06,-7.37,2d
2019-07-15_181642:800,-0.41384899999999997,-0.010162000000000001,-0.275055,-0.007540000000000001,0.002757,0.001716,-42.560001,5.06,-7.37,2d
2019-07-15_181642:820,-0.410278,-0.011169,-0.2659,-0.00812,0.002635,0.001716,-41.5,5.06,-6.18,2d
2019-07-15_181642:840,-0.40976,-0.012695,-0.267426,-0.008181,0.002177,0.001258,-41.5,5.06,-6.18,2d
2019-07-15_181642:860,-0.411285,-0.014221000000000001,-0.267426,-0.007876000000000001,0.001415,0.0008619999999999999,-41.5,5.06,-6.18,2d
2019-07-15_181642:880,-0.411804,-0.016266,-0.2659,-0.007387,0.0008039999999999999,-5.4000000000000005e-05,-42.560001,6.18,-6.56,2d
2019-07-15_181642:900,-0.41842700000000005,-0.015228,-0.269958,-0.006594,0.000621,-0.0009689999999999999,-42.560001,6.18,-6.56,2d
2019-07-15_181642:920,-0.41485600000000006,-0.016753999999999998,-0.268951,-0.005556,0.0008960000000000001,-0.000512,-42.560001,5.06,-7.0,2d
2019-07-15_181642:940,-0.411804,-0.014740000000000001,-0.270477,-0.004397,0.0008039999999999999,-0.000573,-42.560001,5.06,-7.0,2d
2019-07-15_181642:960,-0.410797,-0.015228,-0.269958,-0.0032979999999999997,0.00022400000000000002,-5.4000000000000005e-05,-42.560001,5.06,-7.0,2d
2019-07-15_181642:980,-0.414337,-0.012177,-0.270477,-0.001986,-0.000386,-0.001397,-41.060001,5.5,-7.37,2d
2019-07-15_181643:000,-0.415375,-0.010162000000000001,-0.272003,-0.0014060000000000001,-0.000661,-0.002373,-41.060001,5.5,-7.37,2d
2019-07-15_181643:020,-0.41384899999999997,-0.007599,-0.274017,-0.000734,-0.00044699999999999997,-0.001397,-42.560001,5.5,-7.75,2d
2019-07-15_181643:040,-0.41586300000000004,-0.007111,-0.272491,-0.000857,-5e-05,-0.001641,-42.560001,5.5,-7.75,2d
2019-07-15_181643:060,-0.416901,-0.004547,-0.27301,-0.001131,0.000499,-0.0021899999999999997,-42.560001,5.5,-7.75,2d
2019-07-15_181643:080,-0.41485600000000006,-0.006592,-0.27301,-0.0014060000000000001,0.0010789999999999999,-0.0019149999999999998,-41.869999,6.18,-7.0,2d
2019-07-15_181643:100,-0.414337,-0.0055850000000000006,-0.272003,-0.0015890000000000001,0.00114,-0.001854,-41.869999,6.18,-7.0,2d
2019-07-15_181643:120,-0.41586300000000004,-0.006592,-0.270966,-0.0017109999999999998,0.001415,-0.001641,-42.25,5.75,-7.37,2d
2019-07-15_181643:140,-0.416901,-0.0055850000000000006,-0.270966,-0.0015890000000000001,0.0016589999999999999,-0.001366,-42.25,5.75,-7.37,2d
2019-07-15_181643:160,-0.415375,-0.004547,-0.272003,-0.001864,0.001994,-0.001366,-42.25,5.75,-7.37,2d
2019-07-15_181643:180,-0.41485600000000006,-0.004547,-0.270966,-0.001986,0.002055,-0.0009689999999999999,-42.25,5.06,-7.0,2d
2019-07-15_181643:200,-0.41485600000000006,-0.0035399999999999997,-0.270477,-0.002199,0.001964,-0.0008470000000000001,-42.25,5.06,-7.0,2d
2019-07-15_181643:220,-0.41485600000000006,-0.004059,-0.269958,-0.0025050000000000003,0.0017809999999999998,-0.00045099999999999996,-42.560001,5.5,-8.18,2d
2019-07-15_181643:240,-0.41384899999999997,-0.0055850000000000006,-0.268433,-0.0025960000000000002,0.00172,7.000000000000001e-06,-42.560001,5.5,-8.18,2d
2019-07-15_181643:260,-0.41333000000000003,-0.004547,-0.268951,-0.0029010000000000004,0.0019030000000000002,0.000648,-42.560001,5.5,-8.18,2d
2019-07-15_181643:280,-0.41232299999999994,-0.006072999999999999,-0.270477,-0.0032979999999999997,0.0019030000000000002,0.000923,-42.25,5.06,-7.0,2d
2019-07-15_181643:300,-0.412811,-0.006072999999999999,-0.272003,-0.0036340000000000005,0.001537,0.000129,-42.25,5.06,-7.0,2d
2019-07-15_181643:320,-0.41232299999999994,-0.006592,-0.271484,-0.0036340000000000005,0.0010789999999999999,0.000496,-42.25,4.0,-7.0,2d
2019-07-15_181643:340,-0.412811,-0.006592,-0.270966,-0.003664,0.00056,0.000129,-42.25,4.0,-7.0,2d
2019-07-15_181643:360,-0.41384899999999997,-0.007111,-0.272003,-0.003573,0.000682,0.000343,-42.25,4.0,-7.0,2d
2019-07-15_181643:380,-0.41384899999999997,-0.006592,-0.272003,-0.0034509999999999996,0.000682,0.000129,-42.560001,4.68,-8.18,2d
2019-07-15_181643:400,-0.41333000000000003,-0.006592,-0.27301,-0.0032979999999999997,0.00056,-0.000267,-42.560001,4.68,-8.18,2d
2019-07-15_181643:420,-0.41333000000000003,-0.006072999999999999,-0.274536,-0.0033280000000000002,0.000743,7.000000000000001e-06,-42.560001,5.5,-7.37,2d
2019-07-15_181643:440,-0.41384899999999997,-0.007111,-0.273529,-0.0031149999999999997,0.0008039999999999999,-0.000176,-42.560001,5.5,-7.37,2d
2019-07-15_181643:460,-0.412811,-0.005065999999999999,-0.274017,-0.003176,0.0010789999999999999,-0.000267,-42.560001,5.5,-7.37,2d
2019-07-15_181643:480,-0.414337,-0.004547,-0.275543,-0.003054,0.0009570000000000001,-0.00011499999999999999,-41.869999,5.06,-7.37,2d
2019-07-15_181643:500,-0.412811,-0.004547,-0.274536,-0.0031149999999999997,0.0010789999999999999,-0.00011499999999999999,-41.869999,5.06,-7.37,2d
2019-07-15_181643:520,-0.41333000000000003,-0.005065999999999999,-0.274017,-0.0033280000000000002,0.0012619999999999999,0.000221,-41.869999,4.68,-8.18,2d
2019-07-15_181643:540,-0.41384899999999997,-0.004059,-0.272003,-0.0032979999999999997,0.0012619999999999999,0.000465,-41.869999,4.68,-8.18,2d
2019-07-15_181643:560,-0.412811,-0.0035399999999999997,-0.274017,-0.0034509999999999996,0.0008960000000000001,0.000587,-41.869999,4.68,-8.18,2d
2019-07-15_181643:580,-0.410797,-0.002014,-0.27301,-0.003664,0.000865,0.001106,-42.25,5.06,-8.18,2d
2019-07-15_181643:600,-0.410797,-0.004059,-0.275543,-0.003878,0.000621,0.001228,-42.25,5.06,-8.18,2d
2019-07-15_181643:620,-0.411804,-0.004547,-0.276062,-0.004336,0.000346,0.000984,-43.0,4.68,-7.37,2d
2019-07-15_181643:640,-0.414337,-0.005065999999999999,-0.275055,-0.004488000000000001,0.000468,0.000923,-43.0,4.68,-7.37,2d
2019-07-15_181643:660,-0.412811,-0.006592,-0.275055,-0.004549,0.000682,0.001228,-43.0,4.68,-7.37,2d
2019-07-15_181643:680,-0.412811,-0.008118,-0.275543,-0.004427,0.0009570000000000001,0.001167,-42.560001,4.0,-7.37,2d
2019-07-15_181643:700,-0.411804,-0.007599,-0.273529,-0.004152,0.0009570000000000001,0.000984,-42.560001,4.0,-7.37,2d
2019-07-15_181643:720,-0.41384899999999997,-0.007111,-0.276581,-0.0037560000000000002,0.001018,0.000923,-42.25,4.25,-8.56,2d
2019-07-15_181643:740,-0.411804,-0.006592,-0.274017,-0.0036340000000000005,0.001201,0.000923,-42.25,4.25,-8.56,2d
2019-07-15_181643:760,-0.41384899999999997,-0.0055850000000000006,-0.276062,-0.003817,0.00114,0.0008619999999999999,-42.25,4.25,-8.56,2d
2019-07-15_181643:780,-0.41384899999999997,-0.006592,-0.276581,-0.0037560000000000002,0.0012619999999999999,0.0007700000000000001,-41.869999,4.25,-8.18,2d
2019-07-15_181643:800,-0.412811,-0.006592,-0.275055,-0.004,0.001353,0.000709,-41.869999,4.25,-8.18,2d
2019-07-15_181643:820,-0.411804,-0.006592,-0.274017,-0.004152,0.001537,0.000984,-42.560001,4.68,-8.18,2d
2019-07-15_181643:840,-0.411804,-0.006072999999999999,-0.274536,-0.0036950000000000004,0.0014759999999999999,0.0008619999999999999,-42.560001,4.68,-8.18,2d
2019-07-15_181643:860,-0.410797,-0.006592,-0.274017,-0.0036950000000000004,0.0012619999999999999,0.0007700000000000001,-42.560001,4.68,-8.18,2d
2019-07-15_181643:880,-0.411285,-0.005065999999999999,-0.275543,-0.003817,0.001415,0.001258,-42.560001,5.06,-7.37,2d
2019-07-15_181643:900,-0.411285,-0.006072999999999999,-0.274536,-0.003939,0.0009570000000000001,0.001258,-42.560001,5.06,-7.37,2d
2019-07-15_181643:920,-0.411285,-0.006072999999999999,-0.274536,-0.004091,0.0008960000000000001,0.001381,-42.25,5.75,-9.0,2d
2019-07-15_181643:940,-0.410797,-0.007111,-0.274536,-0.004427,0.0008039999999999999,0.001381,-42.25,5.75,-9.0,2d
2019-07-15_181643:960,-0.410797,-0.008118,-0.275543,-0.004427,0.00056,0.001167,-42.25,5.75,-9.0,2d
2019-07-15_181643:980,-0.411804,-0.009125,-0.276062,-0.004336,0.00056,0.001045,-42.25,4.25,-7.75,2d
2019-07-15_181644:000,-0.412811,-0.008636,-0.277069,-0.004,0.000682,0.001167,-42.25,4.25,-7.75,2d
2019-07-15_181644:020,-0.410797,-0.009125,-0.274536,-0.0036340000000000005,0.0008039999999999999,0.001045,-43.369999,5.5,-7.75,2d
2019-07-15_181644:040,-0.414337,-0.007111,-0.275543,-0.0036340000000000005,0.0008039999999999999,0.0007700000000000001,-43.369999,5.5,-7.75,2d
2019-07-15_181644:060,-0.412811,-0.006592,-0.277069,-0.003512,0.001415,0.00196,-43.369999,5.5,-7.75,2d
2019-07-15_181644:080,-0.409271,-0.007111,-0.275055,-0.0037560000000000002,0.001598,0.001777,-42.25,4.68,-8.18,2d
2019-07-15_181644:100,-0.40823400000000004,-0.006592,-0.274536,-0.003878,0.0012619999999999999,0.001655,-42.25,4.68,-8.18,2d
2019-07-15_181644:120,-0.40774499999999997,-0.009125,-0.276581,-0.00403,0.000743,0.000923,-42.560001,4.68,-6.56,2d
2019-07-15_181644:140,-0.40823400000000004,-0.009644,-0.276581,-0.004336,0.000285,0.000404,-42.560001,4.68,-6.56,2d
2019-07-15_181644:160,-0.412811,-0.009125,-0.279114,-0.004091,0.000285,0.000923,-42.560001,4.68,-6.56,2d
2019-07-15_181644:180,-0.41333000000000003,-0.010162000000000001,-0.280121,-0.003878,0.00056,0.000526,-41.869999,5.06,-8.18,2d
2019-07-15_181644:200,-0.411804,-0.009644,-0.280121,-0.00339,0.001201,0.00016,-41.869999,5.06,-8.18,2d
2019-07-15_181644:220,-0.412811,-0.009125,-0.278107,-0.002932,0.001628,0.000221,-41.869999,4.68,-8.18,2d
2019-07-15_181644:240,-0.41485600000000006,-0.008118,-0.278107,-0.002932,0.002177,-0.00011499999999999999,-41.869999,4.68,-8.18,2d
2019-07-15_181644:260,-0.411285,-0.007111,-0.279633,-0.003176,0.002635,0.000343,-41.869999,4.68,-8.18,2d
2019-07-15_181644:280,-0.411285,-0.008118,-0.279633,-0.0033280000000000002,0.002574,0.000221,-42.560001,5.5,-7.0,2d
2019-07-15_181644:300,-0.411285,-0.008636,-0.277588,-0.003512,0.002574,0.000129,-42.560001,5.5,-7.0,2d
2019-07-15_181644:320,-0.411804,-0.008118,-0.277588,-0.003512,0.002574,0.000221,-41.869999,4.68,-7.75,2d
2019-07-15_181644:340,-0.411285,-0.007599,-0.276062,-0.003512,0.0029100000000000003,-5.4000000000000005e-05,-41.869999,4.68,-7.75,2d
2019-07-15_181644:360,-0.411804,-0.007599,-0.276062,-0.00339,0.002635,-5.4000000000000005e-05,-41.869999,4.68,-7.75,2d
2019-07-15_181644:380,-0.41384899999999997,-0.007599,-0.276581,-0.003664,0.002696,0.00016,-43.0,5.06,-8.18,2d
2019-07-15_181644:400,-0.41232299999999994,-0.006592,-0.271484,-0.004,0.003093,0.000984,-43.0,5.06,-8.18,2d
2019-07-15_181644:420,-0.409271,-0.008636,-0.273529,-0.004336,0.003246,0.0008619999999999999,-41.5,5.06,-8.18,2d
2019-07-15_181644:440,-0.40976,-0.007599,-0.271484,-0.004671,0.002757,-0.00023700000000000001,-41.5,5.06,-8.18,2d
2019-07-15_181644:460,-0.410278,-0.008636,-0.270966,-0.004732,0.0023,0.000404,-41.5,5.06,-8.18,2d
2019-07-15_181644:480,-0.409271,-0.009644,-0.272491,-0.00461,0.0019030000000000002,0.0007700000000000001,-42.25,5.06,-7.37,2d
2019-07-15_181644:500,-0.410278,-0.010651,-0.274536,-0.004427,0.0016589999999999999,0.000404,-42.25,5.06,-7.37,2d
2019-07-15_181644:520,-0.41232299999999994,-0.009644,-0.276581,-0.004,0.00114,6.8e-05,-43.0,6.18,-8.18,2d
2019-07-15_181644:540,-0.41384899999999997,-0.009125,-0.275055,-0.0037560000000000002,0.001292,-0.000512,-43.0,6.18,-8.18,2d
2019-07-15_181644:560,-0.414337,-0.007599,-0.276581,-0.0036340000000000005,0.0017809999999999998,-0.0008470000000000001,-43.0,6.18,-8.18,2d
2019-07-15_181644:580,-0.414337,-0.008118,-0.275543,-0.0033280000000000002,0.002177,-0.0009689999999999999,-43.0,5.06,-8.56,2d
2019-07-15_181644:600,-0.41232299999999994,-0.007599,-0.274536,-0.0032979999999999997,0.002513,-0.0009689999999999999,-43.0,5.06,-8.56,2d
2019-07-15_181644:620,-0.410797,-0.007111,-0.275543,-0.002993,0.002635,-0.001,-42.560001,4.68,-7.75,2d
2019-07-15_181644:640,-0.410278,-0.005065999999999999,-0.274017,-0.002779,0.002391,-0.0009689999999999999,-42.560001,4.68,-7.75,2d
2019-07-15_181644:660,-0.40976,-0.0035399999999999997,-0.275543,-0.002779,0.002239,-0.000908,-42.560001,4.68,-7.75,2d
2019-07-15_181644:680,-0.41333000000000003,-0.002014,-0.274017,-0.003176,0.002055,-0.00045099999999999996,-42.560001,5.75,-7.0,2d
2019-07-15_181644:700,-0.41232299999999994,-0.0030210000000000002,-0.273529,-0.003512,0.002177,-0.000267,-42.560001,5.75,-7.0,2d
2019-07-15_181644:720,-0.41333000000000003,-0.004059,-0.274536,-0.004091,0.002055,-5.4000000000000005e-05,-43.0,5.06,-8.18,2d
2019-07-15_181644:740,-0.41333000000000003,-0.006072999999999999,-0.273529,-0.004549,0.002177,0.000129,-43.0,5.06,-8.18,2d
2019-07-15_181644:760,-0.41384899999999997,-0.006072999999999999,-0.275055,-0.004549,0.0019030000000000002,0.00016,-43.0,5.06,-8.18,2d
2019-07-15_181644:780,-0.41586300000000004,-0.007111,-0.273529,-0.004336,0.002116,7.000000000000001e-06,-42.25,4.68,-7.75,2d
2019-07-15_181644:800,-0.414337,-0.006592,-0.272491,-0.003878,0.0023,7.000000000000001e-06,-42.25,4.68,-7.75,2d
2019-07-15_181644:820,-0.41333000000000003,-0.0055850000000000006,-0.273529,-0.003573,0.0023,6.8e-05,-42.25,4.68,-6.18,2d
2019-07-15_181644:840,-0.41232299999999994,-0.0055850000000000006,-0.271484,-0.003237,0.002391,0.000129,-42.25,4.68,-6.18,2d
2019-07-15_181644:860,-0.411285,-0.0035399999999999997,-0.273529,-0.0033280000000000002,0.0023,7.000000000000001e-06,-42.25,4.68,-6.18,2d
2019-07-15_181644:880,-0.41232299999999994,-0.0035399999999999997,-0.274017,-0.00339,0.002177,7.000000000000001e-06,-42.560001,4.68,-7.37,2d
2019-07-15_181644:900,-0.411285,-0.001007,-0.274017,-0.004,0.001994,0.000129,-42.560001,4.68,-7.37,2d
2019-07-15_181644:920,-0.409271,-0.0030210000000000002,-0.27301,-0.004488000000000001,0.0016589999999999999,0.000221,-42.25,4.68,-8.18,2d
2019-07-15_181644:940,-0.411804,-0.005065999999999999,-0.272491,-0.004671,0.001415,0.000221,-42.25,4.68,-8.18,2d
2019-07-15_181644:960,-0.41384899999999997,-0.0055850000000000006,-0.273529,-0.004275,0.001201,6.8e-05,-42.25,4.68,-8.18,2d
2019-07-15_181644:980,-0.41485600000000006,-0.004547,-0.272491,-0.003817,0.001353,0.000221,-42.560001,4.68,-7.37,2d
2019-07-15_181645:000,-0.414337,-0.004059,-0.272491,-0.0034509999999999996,0.001598,0.000648,-42.560001,4.68,-7.37,2d
2019-07-15_181645:020,-0.41384899999999997,-0.0025329999999999997,-0.273529,-0.0033280000000000002,0.001598,0.000831,-41.869999,4.68,-7.37,2d
2019-07-15_181645:040,-0.411285,-0.0030210000000000002,-0.27301,-0.0034509999999999996,0.001598,0.001228,-41.869999,4.68,-7.37,2d
2019-07-15_181645:060,-0.41384899999999997,-0.0030210000000000002,-0.275543,-0.0037560000000000002,0.0014759999999999999,0.001167,-41.869999,4.68,-7.37,2d
2019-07-15_181645:080,-0.41333000000000003,-0.0035399999999999997,-0.27301,-0.004213000000000001,0.0019030000000000002,0.000984,-41.869999,5.06,-9.0,2d
2019-07-15_181645:100,-0.412811,-0.004547,-0.273529,-0.004336,0.001964,0.000496,-41.869999,5.06,-9.0,2d
2019-07-15_181645:120,-0.412811,-0.0055850000000000006,-0.274017,-0.00403,0.001628,0.0008619999999999999,-42.25,5.06,-6.18,2d
2019-07-15_181645:140,-0.41333000000000003,-0.006592,-0.271484,-0.0037560000000000002,0.001415,0.001228,-42.25,5.06,-6.18,2d
2019-07-15_181645:160,-0.414337,-0.006072999999999999,-0.27301,-0.00339,0.0014759999999999999,0.001381,-42.25,5.06,-6.18,2d
2019-07-15_181645:180,-0.41384899999999997,-0.0055850000000000006,-0.272491,-0.003237,0.001415,0.00196,-42.560001,4.68,-7.37,2d
2019-07-15_181645:200,-0.41384899999999997,-0.0055850000000000006,-0.271484,-0.0034509999999999996,0.001628,0.001564,-42.560001,4.68,-7.37,2d
2019-07-15_181645:220,-0.412811,-0.005065999999999999,-0.272491,-0.003817,0.001628,0.001381,-42.560001,4.68,-7.75,2d
2019-07-15_181645:240,-0.41384899999999997,-0.006072999999999999,-0.27301,-0.003939,0.0014759999999999999,0.001564,-42.560001,4.68,-7.75,2d
2019-07-15_181645:260,-0.41384899999999997,-0.006592,-0.272491,-0.003939,0.001537,0.000923,-42.560001,4.68,-7.75,2d
2019-07-15_181645:280,-0.41485600000000006,-0.008636,-0.273529,-0.003878,0.001598,0.000648,-43.0,5.06,-7.37,2d
2019-07-15_181645:300,-0.410797,-0.009644,-0.272003,-0.0034509999999999996,0.00172,0.0007700000000000001,-43.0,5.06,-7.37,2d
2019-07-15_181645:320,-0.415375,-0.009125,-0.273529,-0.002932,0.001353,0.000343,-42.25,5.06,-7.75,2d
2019-07-15_181645:340,-0.414337,-0.006592,-0.271484,-0.002779,0.0016589999999999999,0.001503,-42.25,5.06,-7.75,2d
2019-07-15_181645:360,-0.41384899999999997,-0.0055850000000000006,-0.272491,-0.0031149999999999997,0.0017809999999999998,0.001777,-42.25,5.06,-7.75,2d
2019-07-15_181645:380,-0.411804,-0.0055850000000000006,-0.274017,-0.00339,0.0014759999999999999,0.001655,-42.560001,5.06,-7.37,2d
2019-07-15_181645:400,-0.410278,-0.008636,-0.273529,-0.003817,0.0008960000000000001,-0.00023700000000000001,-42.560001,5.06,-7.37,2d
2019-07-15_181645:420,-0.412811,-0.008118,-0.275055,-0.00403,0.000621,-0.00045099999999999996,-42.560001,5.06,-7.0,2d
2019-07-15_181645:440,-0.41384899999999997,-0.008636,-0.276062,-0.003664,0.000865,0.0007700000000000001,-42.560001,5.06,-7.0,2d
2019-07-15_181645:460,-0.412811,-0.008118,-0.275543,-0.0034509999999999996,0.00114,7.000000000000001e-06,-42.560001,5.06,-7.0,2d
2019-07-15_181645:480,-0.41384899999999997,-0.007599,-0.276062,-0.0032979999999999997,0.001415,0.000221,-42.560001,4.25,-8.56,2d
2019-07-15_181645:500,-0.41384899999999997,-0.008118,-0.275055,-0.002993,0.001537,0.000404,-42.560001,4.25,-8.56,2d
2019-07-15_181645:520,-0.411285,-0.007599,-0.274017,-0.002993,0.001628,-0.000267,-42.25,5.06,-7.75,2d
2019-07-15_181645:540,-0.41333000000000003,-0.006592,-0.276062,-0.0029010000000000004,0.001537,0.000129,-42.25,5.06,-7.75,2d
2019-07-15_181645:560,-0.412811,-0.007599,-0.272491,-0.003054,0.001628,0.000404,-42.25,5.06,-7.75,2d
2019-07-15_181645:580,-0.41485600000000006,-0.005065999999999999,-0.274017,-0.003176,0.0014759999999999999,-5.4000000000000005e-05,-42.560001,4.68,-7.75,2d
2019-07-15_181645:600,-0.41485600000000006,-0.0055850000000000006,-0.272491,-0.0032979999999999997,0.001598,0.000221,-42.560001,4.68,-7.75,2d
2019-07-15_181645:620,-0.41485600000000006,-0.006072999999999999,-0.274536,-0.0033280000000000002,0.001842,0.00028199999999999997,-43.0,4.68,-7.75,2d
2019-07-15_181645:640,-0.414337,-0.007111,-0.274017,-0.00339,0.0019030000000000002,0.00016,-43.0,4.68,-7.75,2d
2019-07-15_181645:660,-0.414337,-0.006592,-0.272003,-0.0033280000000000002,0.002177,0.000343,-43.0,4.68,-7.75,2d
2019-07-15_181645:680,-0.41384899999999997,-0.006592,-0.272491,-0.003512,0.002361,0.000465,-42.560001,5.06,-8.18,2d
2019-07-15_181645:700,-0.40976,-0.007111,-0.27301,-0.00339,0.002116,6.8e-05,-42.560001,5.06,-8.18,2d
2019-07-15_181645:720,-0.409271,-0.006592,-0.272491,-0.0034509999999999996,0.001628,-0.000328,-43.0,5.5,-7.0,2d
2019-07-15_181645:740,-0.41232299999999994,-0.006592,-0.274017,-0.0034509999999999996,0.001415,6.8e-05,-43.0,5.5,-7.0,2d
2019-07-15_181645:760,-0.41232299999999994,-0.006592,-0.274017,-0.0032979999999999997,0.0012619999999999999,7.000000000000001e-06,-43.0,5.5,-7.0,2d
2019-07-15_181645:780,-0.41232299999999994,-0.004547,-0.274536,-0.0031149999999999997,0.0010789999999999999,6.8e-05,-42.560001,5.5,-8.56,2d
2019-07-15_181645:800,-0.41485600000000006,-0.006072999999999999,-0.275543,-0.0033280000000000002,0.0014759999999999999,7.000000000000001e-06,-42.560001,5.5,-8.56,2d
2019-07-15_181645:820,-0.415375,-0.004547,-0.275543,-0.003573,0.001842,-0.000176,-43.369999,5.75,-7.0,2d
2019-07-15_181645:840,-0.416382,-0.004547,-0.276062,-0.003939,0.0023,0.000404,-43.369999,5.75,-7.0,2d
2019-07-15_181645:860,-0.41384899999999997,-0.006592,-0.274536,-0.004,0.002696,0.000343,-43.369999,5.75,-7.0,2d
2019-07-15_181645:880,-0.412811,-0.006592,-0.273529,-0.003878,0.002757,0.000343,-41.869999,4.68,-7.75,2d
2019-07-15_181645:900,-0.41485600000000006,-0.006072999999999999,-0.269958,-0.0033280000000000002,0.002696,0.000526,-41.869999,4.68,-7.75,2d
2019-07-15_181645:920,-0.414337,-0.006592,-0.272491,-0.003237,0.002849,0.000587,-43.0,5.5,-7.37,2d
2019-07-15_181645:940,-0.414337,-0.0055850000000000006,-0.272003,-0.0031149999999999997,0.002757,0.000923,-43.0,5.5,-7.37,2d
2019-07-15_181645:960,-0.41232299999999994,-0.005065999999999999,-0.270477,-0.003237,0.002788,0.001106,-43.0,5.5,-7.37,2d
2019-07-15_181645:980,-0.412811,-0.0055850000000000006,-0.270966,-0.0033280000000000002,0.002177,0.001106,-42.560001,5.06,-8.18,2d
2019-07-15_181646:000,-0.414337,-0.0055850000000000006,-0.268433,-0.0037560000000000002,0.002116,0.001045,-42.560001,5.06,-8.18,2d
2019-07-15_181646:020,-0.41232299999999994,-0.006592,-0.26944,-0.003878,0.001994,0.001045,-42.560001,5.5,-6.18,2d
2019-07-15_181646:040,-0.41232299999999994,-0.006592,-0.270966,-0.00403,0.001598,0.001228,-42.560001,5.5,-6.18,2d
2019-07-15_181646:060,-0.41232299999999994,-0.007111,-0.269958,-0.00403,0.001292,0.00132,-42.560001,5.5,-6.18,2d
2019-07-15_181646:080,-0.414337,-0.007111,-0.271484,-0.00403,0.001018,0.001228,-42.25,5.75,-6.18,2d
2019-07-15_181646:100,-0.41586300000000004,-0.007599,-0.272003,-0.004336,0.0012619999999999999,0.001045,-42.25,5.75,-6.18,2d
2019-07-15_181646:120,-0.41485600000000006,-0.007111,-0.272491,-0.004275,0.0016589999999999999,0.001045,-42.25,5.75,-7.75,2d
2019-07-15_181646:140,-0.411285,-0.008636,-0.272003,-0.004213000000000001,0.0014759999999999999,0.001045,-42.25,5.75,-7.75,2d
2019-07-15_181646:160,-0.412811,-0.009644,-0.272003,-0.004152,0.00114,0.001106,-42.25,5.75,-7.75,2d
2019-07-15_181646:180,-0.41333000000000003,-0.009644,-0.273529,-0.003878,0.0008039999999999999,0.0007700000000000001,-42.25,4.25,-8.18,2d
2019-07-15_181646:200,-0.41333000000000003,-0.008636,-0.270966,-0.0036340000000000005,0.001018,0.000709,-42.25,4.25,-8.18,2d
2019-07-15_181646:220,-0.41485600000000006,-0.009125,-0.273529,-0.003573,0.0009570000000000001,0.00028199999999999997,-43.0,5.06,-7.0,2d
2019-07-15_181646:240,-0.415375,-0.008118,-0.274017,-0.00339,0.0012619999999999999,0.00028199999999999997,-43.0,5.06,-7.0,2d
2019-07-15_181646:260,-0.414337,-0.007599,-0.274017,-0.0033280000000000002,0.0014759999999999999,0.000526,-43.0,5.06,-7.0,2d
2019-07-15_181646:280,-0.411804,-0.007599,-0.274017,-0.0032979999999999997,0.001598,0.000404,-41.869999,5.06,-8.18,2d
2019-07-15_181646:300,-0.41333000000000003,-0.007599,-0.27301,-0.003512,0.001201,0.000221,-41.869999,5.06,-8.18,2d
2019-07-15_181646:320,-0.41485600000000006,-0.006592,-0.274017,-0.003512,0.001292,0.000496,-41.869999,4.68,-7.0,2d
2019-07-15_181646:340,-0.414337,-0.007111,-0.273529,-0.003573,0.0014759999999999999,0.000587,-41.869999,4.68,-7.0,2d
2019-07-15_181646:360,-0.41485600000000006,-0.007599,-0.271484,-0.003878,0.0016589999999999999,0.000923,-41.869999,4.68,-7.0,2d
2019-07-15_181646:380,-0.41333000000000003,-0.007599,-0.271484,-0.003939,0.001598,0.000984,-41.869999,5.06,-7.75,2d
2019-07-15_181646:400,-0.410278,-0.008636,-0.270966,-0.004091,0.00114,0.000343,-41.869999,5.06,-7.75,2d
2019-07-15_181646:420,-0.41384899999999997,-0.009125,-0.273529,-0.00403,0.0012619999999999999,0.000221,-42.25,4.68,-8.18,2d
2019-07-15_181646:440,-0.41485600000000006,-0.008636,-0.272491,-0.0036340000000000005,0.001964,0.000221,-42.25,4.68,-8.18,2d
2019-07-15_181646:460,-0.415375,-0.008636,-0.274017,-0.00339,0.0019030000000000002,6.8e-05,-42.25,4.68,-8.18,2d
2019-07-15_181646:480,-0.415375,-0.008636,-0.272003,-0.0029010000000000004,0.002239,0.00016,-43.0,5.06,-7.75,2d
2019-07-15_181646:500,-0.412811,-0.006072999999999999,-0.269958,-0.002932,0.002239,0.000343,-43.0,5.06,-7.75,2d
2019-07-15_181646:520,-0.41384899999999997,-0.006072999999999999,-0.270477,-0.00339,0.002239,0.001106,-42.25,5.06,-7.75,2d
2019-07-15_181646:540,-0.411804,-0.0055850000000000006,-0.270966,-0.0036340000000000005,0.0023,0.0008619999999999999,-42.25,5.06,-7.75,2d
2019-07-15_181646:560,-0.412811,-0.006072999999999999,-0.27301,-0.004152,0.00172,0.000221,-42.25,5.06,-7.75,2d
2019-07-15_181646:580,-0.412811,-0.007599,-0.274536,-0.004397,0.001598,-0.000328,-42.25,5.06,-7.0,2d
2019-07-15_181646:600,-0.411804,-0.006592,-0.272491,-0.004213000000000001,0.001201,0.000709,-42.25,5.06,-7.0,2d
2019-07-15_181646:620,-0.40976,-0.008636,-0.274017,-0.00403,0.001201,0.000984,-42.560001,5.06,-7.75,2d
2019-07-15_181646:640,-0.412811,-0.007111,-0.271484,-0.0036340000000000005,0.001353,0.000526,-42.560001,5.06,-7.75,2d
2019-07-15_181646:660,-0.414337,-0.007111,-0.272003,-0.0036340000000000005,0.001353,0.000496,-42.560001,5.06,-7.75,2d
2019-07-15_181646:680,-0.41485600000000006,-0.007599,-0.274017,-0.0036340000000000005,0.001628,0.000709,-42.560001,5.06,-7.75,2d
2019-07-15_181646:700,-0.41485600000000006,-0.008636,-0.274017,-0.00339,0.0016589999999999999,0.0007700000000000001,-42.560001,5.06,-7.75,2d
2019-07-15_181646:720,-0.416901,-0.007599,-0.27301,-0.003512,0.001994,0.000587,-42.25,4.68,-8.56,2d
2019-07-15_181646:740,-0.41485600000000006,-0.007599,-0.273529,-0.0034509999999999996,0.002239,0.0007700000000000001,-42.25,4.68,-8.56,2d
2019-07-15_181646:760,-0.415375,-0.007599,-0.271484,-0.0036340000000000005,0.0024519999999999998,0.000984,-42.25,4.68,-8.56,2d
2019-07-15_181646:780,-0.41485600000000006,-0.007599,-0.272003,-0.003817,0.002513,0.000984,-42.560001,5.5,-7.75,2d
2019-07-15_181646:800,-0.412811,-0.008118,-0.271484,-0.0036950000000000004,0.002574,0.001045,-42.560001,5.5,-7.75,2d
2019-07-15_181646:820,-0.41232299999999994,-0.009125,-0.269958,-0.004,0.002239,0.001167,-42.560001,4.25,-7.37,2d
2019-07-15_181646:840,-0.41384899999999997,-0.009644,-0.269958,-0.004091,0.001994,0.00132,-42.560001,4.25,-7.37,2d
2019-07-15_181646:860,-0.412811,-0.010651,-0.268951,-0.004152,0.002116,0.0018989999999999999,-42.560001,4.25,-7.37,2d
2019-07-15_181646:880,-0.410278,-0.011687999999999999,-0.270477,-0.003878,0.0017809999999999998,0.000526,-42.25,5.5,-7.37,2d
2019-07-15_181646:900,-0.412811,-0.011169,-0.26944,-0.003939,0.0014759999999999999,-0.000176,-42.25,5.5,-7.37,2d
2019-07-15_181646:920,-0.41485600000000006,-0.009644,-0.272491,-0.003817,0.0010789999999999999,0.000709,-41.869999,5.5,-7.37,2d
2019-07-15_181646:940,-0.41485600000000006,-0.010162000000000001,-0.272003,-0.003817,0.0008960000000000001,0.000465,-41.869999,5.5,-7.37,2d
2019-07-15_181646:960,-0.41333000000000003,-0.009125,-0.27301,-0.0036950000000000004,0.0008039999999999999,0.000343,-41.869999,5.5,-7.37,2d
2019-07-15_181646:980,-0.41384899999999997,-0.009644,-0.273529,-0.003817,0.00114,0.00028199999999999997,-42.560001,4.68,-7.0,2d
2019-07-15_181647:000,-0.41485600000000006,-0.008118,-0.271484,-0.003878,0.0012619999999999999,-0.000328,-42.560001,4.68,-7.0,2d
2019-07-15_181647:020,-0.41485600000000006,-0.008636,-0.273529,-0.003939,0.001292,-0.000512,-43.0,4.68,-7.37,2d
2019-07-15_181647:040,-0.414337,-0.008118,-0.274017,-0.0037560000000000002,0.0014759999999999999,-0.000512,-43.0,4.68,-7.37,2d
2019-07-15_181647:060,-0.41333000000000003,-0.009125,-0.273529,-0.003573,0.001537,-0.00045099999999999996,-43.0,4.68,-7.37,2d
2019-07-15_181647:080,-0.412811,-0.008118,-0.273529,-0.003176,0.001628,-0.000267,-42.25,5.06,-7.37,2d
2019-07-15_181647:100,-0.41232299999999994,-0.008636,-0.271484,-0.002993,0.001598,-0.000267,-42.25,5.06,-7.37,2d
2019-07-15_181647:120,-0.414337,-0.006072999999999999,-0.272491,-0.002779,0.001292,6.8e-05,-42.25,5.06,-7.37,2d
2019-07-15_181647:140,-0.414337,-0.005065999999999999,-0.273529,-0.002993,0.001537,0.000343,-41.869999,5.5,-7.75,2d
2019-07-15_181647:160,-0.415375,-0.006072999999999999,-0.272003,-0.003176,0.0017809999999999998,0.000496,-41.869999,5.5,-7.75,2d
2019-07-15_181647:180,-0.416901,-0.006072999999999999,-0.270966,-0.0036340000000000005,0.001964,0.0007700000000000001,-42.560001,5.5,-6.56,2d
2019-07-15_181647:200,-0.415375,-0.0055850000000000006,-0.272003,-0.003939,0.002391,0.000709,-42.560001,5.5,-6.56,2d
2019-07-15_181647:220,-0.414337,-0.0055850000000000006,-0.271484,-0.004275,0.002239,0.000587,-42.560001,5.5,-6.56,2d
2019-07-15_181647:240,-0.41333000000000003,-0.007111,-0.271484,-0.004671,0.002574,0.000709,-43.369999,5.06,-7.37,2d
2019-07-15_181647:260,-0.41384899999999997,-0.007599,-0.270477,-0.004549,0.002635,0.000923,-43.369999,5.06,-7.37,2d
2019-07-15_181647:280,-0.41232299999999994,-0.008118,-0.273529,-0.004427,0.0023,0.000923,-42.560001,5.5,-7.75,2d
2019-07-15_181647:300,-0.41384899999999997,-0.009125,-0.270477,-0.004336,0.001994,0.000648,-42.560001,5.5,-7.75,2d
2019-07-15_181647:320,-0.41485600000000006,-0.009125,-0.272003,-0.003878,0.0019030000000000002,0.000465,-42.560001,5.5,-7.75,2d
2019-07-15_181647:340,-0.415375,-0.008118,-0.270966,-0.003664,0.0019030000000000002,0.000404,-42.25,5.75,-7.0,2d
2019-07-15_181647:360,-0.415375,-0.007599,-0.270477,-0.0034509999999999996,0.002055,0.000831,-42.25,5.75,-7.0,2d
2019-07-15_181647:380,-0.418915,-0.006592,-0.26944,-0.003176,0.001964,0.000831,-42.25,5.75,-7.75,2d
2019-07-15_181647:400,-0.410797,-0.0055850000000000006,-0.267426,-0.003573,0.002361,0.000343,-42.25,5.75,-7.75,2d
2019-07-15_181647:420,-0.40823400000000004,-0.004547,-0.26944,-0.00403,0.0023,0.000648,-42.25,5.75,-7.75,2d
2019-07-15_181647:440,-0.411804,-0.0055850000000000006,-0.272491,-0.004488000000000001,0.0016589999999999999,0.0008619999999999999,-41.869999,4.68,-7.75,2d
2019-07-15_181647:460,-0.41333000000000003,-0.006072999999999999,-0.270477,-0.004946,0.0008039999999999999,0.001106,-41.869999,4.68,-7.75,2d
2019-07-15_181647:480,-0.417908,-0.008636,-0.272003,-0.004946,0.000621,0.001381,-42.560001,5.06,-6.56,2d
2019-07-15_181647:500,-0.420441,-0.010162000000000001,-0.270477,-0.004946,0.001018,0.001381,-42.560001,5.06,-6.56,2d
2019-07-15_181647:520,-0.420441,-0.010651,-0.272003,-0.004549,0.001628,0.001106,-42.560001,5.06,-6.56,2d
2019-07-15_181647:540,-0.41842700000000005,-0.011169,-0.272003,-0.004213000000000001,0.002361,0.001167,-41.869999,5.06,-7.37,2d
2019-07-15_181647:560,-0.41384899999999997,-0.010162000000000001,-0.272003,-0.003939,0.0029100000000000003,0.001045,-41.869999,5.06,-7.37,2d
2019-07-15_181647:580,-0.40976,-0.009644,-0.269958,-0.003664,0.002696,0.000984,-43.0,5.5,-7.0,2d
2019-07-15_181647:600,-0.40976,-0.009125,-0.268951,-0.0037560000000000002,0.0023,0.000648,-43.0,5.5,-7.0,2d
2019-07-15_181647:620,-0.411285,-0.008636,-0.270966,-0.0037560000000000002,0.0019030000000000002,0.000129,-43.0,5.5,-7.0,2d
2019-07-15_181647:640,-0.414337,-0.008636,-0.271484,-0.0037560000000000002,0.001842,-5.4000000000000005e-05,-42.560001,5.06,-8.56,2d
2019-07-15_181647:660,-0.416382,-0.008636,-0.270477,-0.0036340000000000005,0.00172,0.00028199999999999997,-42.560001,5.06,-8.56,2d
2019-07-15_181647:680,-0.41995200000000005,-0.007111,-0.270966,-0.003512,0.00172,-0.000176,-42.25,4.68,-7.0,2d
2019-07-15_181647:700,-0.415375,-0.006072999999999999,-0.266907,-0.0034509999999999996,0.002361,0.000831,-42.25,4.68,-7.0,2d
2019-07-15_181647:720,-0.414337,-0.006592,-0.270477,-0.003878,0.002391,0.00196,-42.25,4.68,-7.0,2d
2019-07-15_181647:740,-0.41232299999999994,-0.004547,-0.269958,-0.004671,0.0023,0.001564,-42.25,5.06,-7.37,2d
2019-07-15_181647:760,-0.41586300000000004,-0.006072999999999999,-0.268433,-0.005068,0.00172,0.0007700000000000001,-42.25,5.06,-7.37,2d
2019-07-15_181647:780,-0.41586300000000004,-0.006592,-0.269958,-0.005556,0.00172,0.00028199999999999997,-42.25,5.06,-8.18,2d
2019-07-15_181647:800,-0.414337,-0.009125,-0.267426,-0.0056170000000000005,0.0016589999999999999,0.001228,-42.25,5.06,-8.18,2d
2019-07-15_181647:820,-0.41384899999999997,-0.011687999999999999,-0.267426,-0.005343,0.001537,0.001442,-42.25,5.06,-8.18,2d
2019-07-15_181647:840,-0.411804,-0.009644,-0.268951,-0.0048850000000000005,0.001598,0.0008619999999999999,-42.560001,4.68,-7.37,2d
2019-07-15_181647:860,-0.41232299999999994,-0.008636,-0.268433,-0.004336,0.0012619999999999999,0.000831,-42.560001,4.68,-7.37,2d
2019-07-15_181647:880,-0.412811,-0.008636,-0.271484,-0.003878,0.000865,0.000648,-41.5,5.75,-6.56,2d
2019-07-15_181647:900,-0.417908,-0.008636,-0.269958,-0.003573,0.000468,0.000648,-41.5,5.75,-6.56,2d
2019-07-15_181647:920,-0.417908,-0.007599,-0.270477,-0.00339,0.000743,0.00028199999999999997,-41.5,5.75,-6.56,2d
2019-07-15_181647:940,-0.416382,-0.008118,-0.26944,-0.003176,0.001292,0.000343,-43.369999,5.06,-7.75,2d
2019-07-15_181647:960,-0.41485600000000006,-0.007111,-0.269958,-0.002993,0.00172,0.0007700000000000001,-43.369999,5.06,-7.75,2d
