timestamp,AccX,AccY,AccZ,GyroX,GyroY,GyroZ,MagX,MagY,MagZ,Activity
2019-07-15_173343:720,-0.43518100000000004,-0.013213999999999998,-0.263855,0.091612,0.016704,-0.022026,-26.18,-18.370001000000002,-33.75,1b
2019-07-15_173343:740,-0.42758199999999996,-0.024384,-0.25521900000000003,0.079374,0.01942,-0.025353,-26.18,-15.0,-34.869999,1b
2019-07-15_173343:760,-0.410797,-0.020844,-0.242493,0.06829600000000001,0.018687,-0.024406999999999998,-26.18,-15.0,-34.869999,1b
2019-07-15_173343:780,-0.40063499999999996,-0.037598,-0.230804,0.059873,0.016184999999999998,-0.026146,-27.25,-12.0,-36.060001,1b
2019-07-15_173343:800,-0.410797,-0.049316000000000006,-0.226227,0.055082000000000006,0.014719999999999999,-0.028923,-27.25,-12.0,-36.060001,1b
2019-07-15_173343:820,-0.42248500000000005,-0.053375,-0.220123,0.051695000000000005,0.014995,-0.02694,-27.25,-12.0,-36.060001,1b
2019-07-15_173343:840,-0.432159,-0.056915,-0.21402,0.048338,0.015238999999999999,-0.020836,-26.559998999999998,-9.68,-36.369999,1b
2019-07-15_173343:860,-0.417389,-0.063538,-0.21249400000000002,0.04373,0.01353,-0.015709,-26.559998999999998,-9.68,-36.369999,1b
2019-07-15_173343:880,-0.416382,-0.067108,-0.20639000000000002,0.039182999999999996,0.011211,-0.012719,-27.68,-8.56,-36.869999,1b
2019-07-15_173343:900,-0.42807,-0.072693,-0.199799,0.034451999999999997,0.010265,-0.012871,-27.68,-8.56,-36.869999,1b
2019-07-15_173343:920,-0.443329,-0.08081100000000001,-0.19775399999999999,0.030393,0.011729,-0.014641,-27.68,-8.56,-36.869999,1b
2019-07-15_173343:940,-0.449432,-0.094055,-0.193695,0.027555,0.014385,-0.016564,-27.68,-7.5,-36.869999,1b
2019-07-15_173343:960,-0.446899,-0.101685,-0.190125,0.027616,0.01646,-0.017785,-27.68,-7.5,-36.869999,1b
2019-07-15_173343:980,-0.42807,-0.09811399999999999,-0.192169,0.027951999999999998,0.015971,-0.017785,-27.68,-7.06,-37.68,1b
2019-07-15_173344:000,-0.42147799999999996,-0.089478,-0.194214,0.027799,0.013713,-0.016594,-27.68,-7.06,-37.68,1b
2019-07-15_173344:020,-0.445862,-0.082336,-0.190643,0.027006,0.01115,-0.015648,-27.68,-7.06,-37.68,1b
2019-07-15_173344:040,-0.536377,-0.07775900000000001,-0.184021,0.025480000000000003,0.006358,-0.013848,-28.5,-5.68,-36.75,1b
2019-07-15_173344:060,-0.514496,-0.07016,-0.191162,0.022093,0.0029100000000000003,-0.007897,-28.5,-5.68,-36.75,1b
2019-07-15_173344:080,-0.5272220000000001,-0.063538,-0.192688,0.022244999999999997,0.002849,-0.006768000000000001,-29.18,-6.06,-37.18,1b
2019-07-15_173344:100,-0.44384799999999996,-0.055389,-0.21453899999999998,0.023374000000000002,0.002513,-0.017693,-29.18,-6.06,-37.18,1b
2019-07-15_173344:120,-0.441803,-0.039642000000000004,-0.22216799999999998,0.025144,-0.002156,-0.026879000000000004,-29.18,-6.06,-37.18,1b
2019-07-15_173344:140,-0.41384899999999997,-0.020325,-0.23995999999999998,0.027219999999999998,-0.006551,-0.02343,-29.18,-4.68,-36.75,1b
2019-07-15_173344:160,-0.420959,-0.018799,-0.239441,0.030789999999999998,-0.0054210000000000005,-0.0187,-29.18,-4.68,-36.75,1b
2019-07-15_173344:180,-0.441284,-0.010651,-0.242493,0.03253,-0.002187,-0.017327000000000002,-30.0,-3.87,-37.18,1b
2019-07-15_173344:200,-0.43670699999999996,-0.000488,-0.233856,0.037382,0.009197,-0.015709,-30.0,-3.87,-37.18,1b
2019-07-15_173344:220,-0.42401099999999997,0.015228,-0.219635,0.037779,0.012981,-0.014336000000000002,-30.0,-3.87,-37.18,1b
2019-07-15_173344:240,-0.41384899999999997,0.020325,-0.21249400000000002,0.037382,0.012187,-0.013207,-30.0,-3.75,-36.869999,1b
2019-07-15_173344:260,-0.421967,0.016266,-0.21402,0.035977999999999996,0.003703,-0.011986,-30.0,-3.75,-36.869999,1b
2019-07-15_173344:280,-0.434174,0.013702,-0.21859699999999999,0.035704,0.000865,-0.01278,-30.68,-3.06,-36.060001,1b
2019-07-15_173344:300,-0.462128,0.010162000000000001,-0.226227,0.034513,-0.005818,-0.016106,-30.68,-3.06,-36.060001,1b
2019-07-15_173344:320,-0.462646,0.009644,-0.223694,0.033201,-0.007802,-0.017113,-30.68,-3.06,-36.060001,1b
2019-07-15_173344:340,-0.47280900000000003,0.006592,-0.22164899999999998,0.031278,-0.006367,-0.016594,-30.0,-2.18,-37.68,1b
2019-07-15_173344:360,-0.475861,0.0035399999999999997,-0.213531,0.029081,-0.003041,-0.015252000000000002,-30.0,-2.18,-37.68,1b
2019-07-15_173344:380,-0.47180200000000005,-0.000488,-0.20486500000000002,0.026823000000000003,0.001964,-0.012473999999999999,-29.18,-0.68,-36.060001,1b
2019-07-15_173344:400,-0.447906,-0.009644,-0.18811,0.024626,0.00648,-0.00988,-29.18,-0.68,-36.060001,1b
2019-07-15_173344:420,-0.432159,-0.013213999999999998,-0.183014,0.022642,0.007762000000000001,-0.008751,-29.18,-0.68,-36.060001,1b
2019-07-15_173344:440,-0.41232299999999994,-0.019318000000000002,-0.183014,0.021513,0.007091,-0.008477,-29.559998999999998,-0.37,-38.060001,1b
2019-07-15_173344:460,-0.427063,-0.018799,-0.188599,0.019528999999999998,0.003246,-0.010277,-29.559998999999998,-0.37,-38.060001,1b
2019-07-15_173344:480,-0.431641,-0.017273,-0.19165,0.018705,0.002574,-0.011284,-29.18,0.68,-37.68,1b
2019-07-15_173344:500,-0.44027700000000003,-0.016753999999999998,-0.185059,0.016874,0.002696,-0.012657999999999999,-29.18,0.68,-37.68,1b
2019-07-15_173344:520,-0.44027700000000003,-0.019806,-0.185059,0.01547,0.003093,-0.012597,-29.18,0.68,-37.68,1b
2019-07-15_173344:540,-0.431641,-0.021851,-0.184021,0.014555000000000002,0.002696,-0.012261,-29.559998999999998,1.06,-37.18,1b
2019-07-15_173344:560,-0.448425,-0.017273,-0.182007,0.013028999999999999,0.0017809999999999998,-0.011009999999999999,-29.559998999999998,1.06,-37.18,1b
2019-07-15_173344:580,-0.45043900000000003,-0.013702,-0.18249500000000002,0.012297,0.001994,-0.010735,-30.68,1.06,-36.060001,1b
2019-07-15_173344:600,-0.445862,-0.013213999999999998,-0.182007,0.010954,0.00471,-0.009545,-30.68,1.06,-36.060001,1b
2019-07-15_173344:620,-0.44384799999999996,-0.015747,-0.180481,0.010832,0.0071519999999999995,-0.008629000000000001,-30.68,1.06,-36.060001,1b
2019-07-15_173344:640,-0.441284,-0.021332,-0.1698,0.010832,0.00822,-0.008598999999999999,-31.0,1.5,-36.869999,1b
2019-07-15_173344:660,-0.433655,-0.023375999999999997,-0.163696,0.012419,0.009073999999999999,-0.006554000000000001,-31.0,1.5,-36.869999,1b
2019-07-15_173344:680,-0.431641,-0.028961,-0.160126,0.013487,0.007426,-0.0063100000000000005,-30.68,1.75,-37.25,1b
2019-07-15_173344:700,-0.432648,-0.032013,-0.153015,0.017332,-0.00044699999999999997,-0.008537999999999999,-30.68,1.75,-37.25,1b
2019-07-15_173344:720,-0.45095799999999997,-0.029480000000000003,-0.1586,0.020231,-0.009022,-0.009728,-30.68,1.75,-37.25,1b
2019-07-15_173344:740,-0.467743,-0.025908999999999998,-0.167267,0.021757,-0.013386000000000002,-0.009819,-30.68,1.5,-35.68,1b
2019-07-15_173344:760,-0.506897,-0.022369,-0.177429,0.025907,-0.016438,-0.010154999999999999,-30.68,1.5,-35.68,1b
2019-07-15_173344:780,-0.514008,-0.017273,-0.194702,0.027281,-0.015125999999999999,-0.010338,-30.68,1.5,-35.68,1b
2019-07-15_173344:800,-0.510437,-0.011687999999999999,-0.212006,0.03021,-0.009084,-0.01281,-31.0,1.75,-36.5,1b
2019-07-15_173344:820,-0.511444,-0.007111,-0.21402,0.030607,-0.0062759999999999995,-0.013328999999999999,-31.0,1.75,-36.5,1b
2019-07-15_173344:840,-0.595856,-0.0030210000000000002,-0.21911599999999998,0.030943000000000002,-0.0035600000000000002,-0.01339,-30.25,2.68,-38.369999,1b
2019-07-15_173344:860,-0.52774,-0.006592,-0.223175,0.030393,-0.003102,-0.012139,-30.25,2.68,-38.369999,1b
2019-07-15_173344:880,-0.52417,-0.012177,-0.242493,0.029722000000000002,0.003124,-0.011986,-30.0,3.0,-37.18,1b
2019-07-15_173344:900,-0.494171,-0.021332,-0.246063,0.029325,0.00822,-0.010856999999999999,-30.0,3.0,-37.18,1b
2019-07-15_173344:920,-0.458588,-0.029480000000000003,-0.242493,0.026304,0.013377000000000002,-0.008812,-30.0,3.0,-37.18,1b
2019-07-15_173344:940,-0.441803,-0.040649,-0.241486,0.024961,0.014995,-0.006157,-30.25,3.75,-37.68,1b
2019-07-15_173344:960,-0.404694,-0.057434000000000006,-0.22421300000000002,0.021452000000000002,0.018687,-0.0017929999999999999,-30.25,3.75,-37.68,1b
2019-07-15_173344:980,-0.40368699999999996,-0.06149299999999999,-0.21606399999999998,0.020506,0.017833,-0.002983,-30.25,3.75,-37.68,1b
2019-07-15_173345:000,-0.386383,-0.063538,-0.21759,0.019255,0.010478,-0.009423,-31.0,4.87,-37.18,1b
2019-07-15_173345:020,-0.36554000000000003,-0.063538,-0.219635,0.019528999999999998,0.006816,-0.012322,-31.0,4.87,-37.18,1b
2019-07-15_173345:040,-0.391479,-0.048798,-0.23233,0.019987,-0.0009050000000000001,-0.018119999999999997,-31.370001000000002,5.25,-37.18,1b
2019-07-15_173345:060,-0.414337,-0.044739,-0.23690799999999998,0.020444999999999998,-0.007558,-0.019584999999999998,-31.370001000000002,5.25,-37.18,1b
2019-07-15_173345:080,-0.469757,-0.035065,-0.23895300000000003,0.020719,-0.012471,-0.018119999999999997,-32.869999,5.18,-34.75,1b
2019-07-15_173345:100,-0.46060200000000007,-0.029968,-0.240479,0.020322999999999997,-0.01125,-0.017327000000000002,-32.869999,5.18,-34.75,1b
2019-07-15_173345:120,-0.476379,-0.020844,-0.219635,0.019041,-0.004353,-0.011254,-32.869999,5.18,-34.75,1b
2019-07-15_173345:140,-0.453491,-0.023375999999999997,-0.20080599999999998,0.018338999999999998,-0.001027,-0.009819,-31.870001000000002,6.06,-36.75,1b
2019-07-15_173345:160,-0.42453,-0.018799,-0.183014,0.015806,0.004375,-0.010856999999999999,-31.870001000000002,6.06,-36.75,1b
2019-07-15_173345:180,-0.410797,-0.015228,-0.167267,0.014677,0.004771,-0.011254,-31.870001000000002,6.06,-36.75,1b
2019-07-15_173345:200,-0.394012,-0.017792,-0.1586,0.011625,0.000743,-0.011742,-32.560001,6.37,-37.060001,1b
2019-07-15_173345:220,-0.389435,-0.017792,-0.154022,0.010679000000000001,-0.001363,-0.0122,-32.560001,6.37,-37.060001,1b
2019-07-15_173345:240,-0.398071,-0.022858,-0.160126,0.009489000000000001,-0.005574,-0.012931999999999999,-32.25,6.37,-36.369999,1b
2019-07-15_173345:260,-0.404694,-0.022369,-0.169281,0.009245,-0.009358,-0.014061,-32.25,6.37,-36.369999,1b
2019-07-15_173345:280,-0.41232299999999994,-0.017792,-0.181488,0.009031,-0.012256999999999999,-0.014641,-32.25,6.37,-36.369999,1b
2019-07-15_173345:300,-0.42758199999999996,-0.015747,-0.19165,0.009214,-0.013386000000000002,-0.013054,-32.25,6.75,-36.25,1b
2019-07-15_173345:320,-0.438751,-0.013213999999999998,-0.20285,0.008512,-0.011861,-0.011284,-32.25,6.75,-36.25,1b
2019-07-15_173345:340,-0.443329,-0.012695,-0.20843499999999998,0.007444,-0.009145,-0.008751,-32.560001,6.06,-37.060001,1b
2019-07-15_173345:360,-0.446899,-0.012695,-0.20080599999999998,0.00543,-0.0046890000000000005,-0.006706999999999999,-32.560001,6.06,-37.060001,1b
2019-07-15_173345:380,-0.455017,-0.013213999999999998,-0.19927999999999998,0.003141,7.2e-05,-0.004509,-32.560001,6.06,-37.060001,1b
2019-07-15_173345:400,-0.46060200000000007,-0.016753999999999998,-0.196747,0.000883,0.0024519999999999998,-0.002495,-31.059998999999998,6.37,-35.560001,1b
2019-07-15_173345:420,-0.465179,-0.01828,-0.195221,-0.0018030000000000001,0.003093,-0.000267,-31.059998999999998,6.37,-35.560001,1b
2019-07-15_173345:440,-0.497742,-0.024384,-0.19574,-0.004091,0.0035810000000000004,0.002388,-31.870001000000002,6.37,-36.75,1b
2019-07-15_173345:460,-0.498749,-0.026427999999999997,-0.188599,-0.006594,0.005626,0.003822,-31.870001000000002,6.37,-36.75,1b
2019-07-15_173345:480,-0.49468999999999996,-0.022369,-0.187073,-0.008608,0.008434,0.00309,-31.870001000000002,6.37,-36.75,1b
2019-07-15_173345:500,-0.485016,-0.017273,-0.189636,-0.010592,0.010356,0.001167,-31.5,7.06,-36.75,1b
2019-07-15_173345:520,-0.48858599999999996,-0.012177,-0.19574,-0.013125,0.009623999999999999,0.002357,-31.5,7.06,-36.75,1b
2019-07-15_173345:540,-0.500793,-0.012177,-0.193176,-0.015413,0.009134999999999999,0.007942,-32.560001,6.06,-37.060001,1b
2019-07-15_173345:560,-0.6512760000000001,-0.019318000000000002,-0.192169,-0.018678999999999998,0.009134999999999999,0.014137,-32.560001,6.06,-37.060001,1b
2019-07-15_173345:580,-0.535858,-0.015747,-0.22116100000000002,-0.022524000000000002,0.0045579999999999996,0.019844,-32.560001,6.06,-37.060001,1b
2019-07-15_173345:600,-0.536377,-0.026427999999999997,-0.213531,-0.02698,0.003917,0.02433,-33.369999,6.06,-36.369999,1b
2019-07-15_173345:620,-0.495697,-0.027435,-0.22927899999999998,-0.027651,0.000285,0.020149,-33.369999,6.06,-36.369999,1b
2019-07-15_173345:640,-0.45196499999999995,-0.015747,-0.22164899999999998,-0.028322000000000003,-0.00124,0.009132,-31.870001000000002,5.68,-36.75,1b
2019-07-15_173345:660,-0.43518100000000004,-0.006072999999999999,-0.225739,-0.026766,0.00172,0.001564,-31.870001000000002,5.68,-36.75,1b
2019-07-15_173345:680,-0.423004,0.010162000000000001,-0.212006,-0.024508000000000002,0.007213,-0.0028309999999999997,-31.870001000000002,5.68,-36.75,1b
2019-07-15_173345:700,-0.391968,0.01828,-0.220642,-0.02228,0.006541,-0.005364,-33.369999,5.25,-36.369999,1b
2019-07-15_173345:720,-0.40823400000000004,0.022369,-0.220642,-0.019961000000000003,0.001964,-0.002983,-33.369999,5.25,-36.369999,1b
2019-07-15_173345:740,-0.40316799999999997,0.023375999999999997,-0.23895300000000003,-0.017366999999999997,-0.001515,0.003517,-32.25,4.56,-37.060001,1b
2019-07-15_173345:760,-0.391479,0.023375999999999997,-0.253693,-0.016085,-0.007558,0.012336,-32.25,4.56,-37.060001,1b
2019-07-15_173345:780,-0.401642,0.020844,-0.263336,-0.016634,-0.013722,0.022102,-32.25,4.56,-37.060001,1b
2019-07-15_173345:800,-0.429108,0.0035399999999999997,-0.274017,-0.017672,-0.017506,0.029060000000000002,-33.369999,4.18,-35.560001,1b
2019-07-15_173345:820,-0.452484,-0.011169,-0.267914,-0.019686000000000002,-0.015522999999999999,0.029060000000000002,-33.369999,4.18,-35.560001,1b
2019-07-15_173345:840,-0.45196499999999995,-0.026917,-0.253693,-0.021273,-0.008351,0.02555,-32.25,4.18,-36.75,1b
2019-07-15_173345:860,-0.43621800000000005,-0.038635,-0.238434,-0.022402000000000002,0.000621,0.022285,-32.25,4.18,-36.75,1b
2019-07-15_173345:880,-0.41586300000000004,-0.053863999999999995,-0.219635,-0.022402000000000002,0.006816,0.01844,-32.25,4.18,-36.75,1b
2019-07-15_173345:900,-0.388428,-0.061005,-0.19775399999999999,-0.020815,0.008952,0.014259,-31.870001000000002,3.75,-38.0,1b
2019-07-15_173345:920,-0.374695,-0.05996699999999999,-0.189117,-0.017672,0.00822,0.010536,-31.870001000000002,3.75,-38.0,1b
2019-07-15_173345:940,-0.385864,-0.052338,-0.18454,-0.013978999999999998,0.004619,0.006019,-32.18,4.18,-37.060001,1b
2019-07-15_173345:960,-0.388916,-0.043213,-0.186066,-0.01111,0.000621,0.003578,-32.18,4.18,-37.060001,1b
2019-07-15_173345:980,-0.389435,-0.035065,-0.189117,-0.008912999999999999,-0.00298,0.0043100000000000005,-32.18,4.18,-37.060001,1b
2019-07-15_173346:000,-0.40774499999999997,-0.031494,-0.193176,-0.008211,-0.007069,0.004646,-31.370001000000002,3.37,-36.75,1b
2019-07-15_173346:020,-0.41842700000000005,-0.027435,-0.20385699999999998,-0.008211,-0.008473,0.005226,-31.370001000000002,3.37,-36.75,1b
2019-07-15_173346:040,-0.425018,-0.025421,-0.205902,-0.007815,-0.007741,0.005226,-31.0,4.18,-36.369999,1b
2019-07-15_173346:060,-0.434174,-0.022858,-0.201324,-0.007265000000000001,-0.005025,0.0037,-31.0,4.18,-36.369999,1b
2019-07-15_173346:080,-0.44281000000000004,-0.021332,-0.194702,-0.006136,-0.001118,0.00132,-31.0,4.18,-36.369999,1b
2019-07-15_173346:100,-0.46417200000000003,-0.017792,-0.186584,-0.004427,0.002971,-0.0010609999999999999,-31.370001000000002,3.37,-37.060001,1b
2019-07-15_173346:120,-0.47079499999999996,-0.017273,-0.17944300000000002,-0.001864,0.007091,-0.004113,-31.370001000000002,3.37,-37.060001,1b
2019-07-15_173346:140,-0.467743,-0.011169,-0.178955,-0.000185,0.006816,-0.003624,-32.18,3.06,-36.75,1b
2019-07-15_173346:160,-0.48043800000000003,-0.014740000000000001,-0.18096900000000002,0.00128,0.003886,-0.002648,-32.18,3.06,-36.75,1b
2019-07-15_173346:180,-0.48553500000000005,-0.016266,-0.188599,0.002653,0.000621,-0.001702,-32.18,3.06,-36.75,1b
2019-07-15_173346:200,-0.49111899999999997,-0.017273,-0.196747,0.003935,-0.000172,0.000129,-31.0,3.37,-36.75,1b
2019-07-15_173346:220,-0.501282,-0.022369,-0.209961,0.005247,1.1e-05,0.001045,-31.0,3.37,-36.75,1b
2019-07-15_173346:240,-0.5185850000000001,-0.028442000000000002,-0.22164899999999998,0.006498,7.2e-05,0.000526,-32.18,4.18,-38.0,1b
2019-07-15_173346:260,-0.640594,-0.027435,-0.248108,0.007719,-0.003285,0.000923,-32.18,4.18,-38.0,1b
2019-07-15_173346:280,-0.533325,-0.041168,-0.23233,0.009245,-0.0018510000000000002,0.001258,-32.18,4.18,-38.0,1b
2019-07-15_173346:300,-0.5343319999999999,-0.033539,-0.256744,0.009092,0.00349,-0.00011499999999999999,-31.75,4.56,-36.75,1b
2019-07-15_173346:320,-0.49468999999999996,-0.039642000000000004,-0.23791500000000002,0.008298999999999999,0.0069689999999999995,0.0033640000000000002,-31.75,4.56,-36.75,1b
2019-07-15_173346:340,-0.416382,-0.044219999999999995,-0.24453699999999998,0.006314999999999999,0.009685,0.0033640000000000002,-31.75,4.18,-36.75,1b
2019-07-15_173346:360,-0.379791,-0.047272,-0.23486300000000002,0.002928,0.011394,0.004158,-31.75,4.18,-36.75,1b
2019-07-15_173346:380,-0.393494,-0.055908000000000006,-0.24758899999999998,0.00048600000000000005,0.008098000000000001,0.005287,-31.75,4.18,-36.75,1b
2019-07-15_173346:400,-0.373688,-0.06253099999999999,-0.244019,-0.0018030000000000001,0.003246,0.0026320000000000002,-32.18,4.87,-35.18,1b
2019-07-15_173346:420,-0.398071,-0.058441,-0.260803,-0.0031149999999999997,-0.0018510000000000002,-0.000664,-32.18,4.87,-35.18,1b
2019-07-15_173346:440,-0.389954,-0.056427,-0.266388,-0.002993,-0.006154,-0.001519,-32.869999,4.87,-36.0,1b
2019-07-15_173346:460,-0.399109,-0.045745999999999995,-0.276062,-0.0029010000000000004,-0.010548,-0.005181,-32.869999,4.87,-36.0,1b
2019-07-15_173346:480,-0.410797,-0.035583,-0.285217,-0.0033280000000000002,-0.013722,-0.008294,-32.869999,4.87,-36.0,1b
2019-07-15_173346:500,-0.434174,-0.025421,-0.287231,-0.0036950000000000004,-0.014790000000000001,-0.006829000000000001,-31.75,5.25,-36.369999,1b
2019-07-15_173346:520,-0.44638100000000003,-0.019318000000000002,-0.28064,-0.005068,-0.011281,-0.00457,-31.75,5.25,-36.369999,1b
2019-07-15_173346:540,-0.439758,-0.008636,-0.259796,-0.007143000000000001,-0.005177,-0.0017629999999999998,-31.75,4.56,-36.0,1b
2019-07-15_173346:560,-0.42401099999999997,-0.007599,-0.241486,-0.009340000000000001,0.001628,6.8e-05,-31.75,4.56,-36.0,1b
2019-07-15_173346:580,-0.405212,-0.0025329999999999997,-0.217072,-0.012697,0.006572,-0.000512,-31.75,4.56,-36.0,1b
2019-07-15_173346:600,-0.393494,0.0,-0.201324,-0.015962999999999998,0.009349,0.0007700000000000001,-31.370001000000002,4.87,-36.0,1b
2019-07-15_173346:620,-0.38028,-0.001007,-0.183014,-0.019747,0.009197,0.004158,-31.370001000000002,4.87,-36.0,1b
2019-07-15_173346:640,-0.382812,-0.004547,-0.17385899999999999,-0.023409,0.007365000000000001,0.006416,-31.370001000000002,4.87,-36.369999,1b
2019-07-15_173346:660,-0.397583,-0.009644,-0.17538499999999999,-0.0264,0.005107,0.008216,-31.370001000000002,4.87,-36.369999,1b
2019-07-15_173346:680,-0.411804,-0.012177,-0.181488,-0.028505000000000003,0.0042829999999999995,0.010017,-31.370001000000002,4.87,-36.369999,1b
2019-07-15_173346:700,-0.41842700000000005,-0.019806,-0.191162,-0.029908999999999998,0.004649,0.011543000000000001,-31.75,3.37,-36.369999,1b
2019-07-15_173346:720,-0.41995200000000005,-0.023375999999999997,-0.19775399999999999,-0.030702999999999998,0.005412,0.011329,-31.75,3.37,-36.369999,1b
2019-07-15_173346:740,-0.425018,-0.024902,-0.197266,-0.031161,0.006633,0.01139,-31.75,2.68,-36.75,1b
2019-07-15_173346:760,-0.425018,-0.028961,-0.19622799999999999,-0.031374,0.007304000000000001,0.013252000000000002,-31.75,2.68,-36.75,1b
2019-07-15_173346:780,-0.44232200000000005,-0.036591000000000005,-0.187592,-0.03174,0.00883,0.014838999999999998,-31.75,2.68,-36.75,1b
2019-07-15_173346:800,-0.44891400000000004,-0.042694,-0.18454,-0.031618,0.011545999999999999,0.016028999999999998,-31.75,2.25,-36.25,1b
2019-07-15_173346:820,-0.46060200000000007,-0.048279,-0.190125,-0.031495999999999996,0.013011000000000002,0.016121,-31.75,2.25,-36.25,1b
2019-07-15_173346:840,-0.475861,-0.050323,-0.194702,-0.031771,0.011791,0.015907,-32.18,1.87,-35.560001,1b
2019-07-15_173346:860,-0.488068,-0.051330999999999995,-0.19574,-0.032351,0.010539,0.015571000000000002,-32.18,1.87,-35.560001,1b
2019-07-15_173346:880,-0.501801,-0.052338,-0.19927999999999998,-0.032412,0.009623999999999999,0.01371,-32.18,1.87,-35.560001,1b
2019-07-15_173346:900,-0.522644,-0.046752999999999996,-0.20639000000000002,-0.032808,0.010936,0.011146,-32.5,2.25,-36.0,1b
2019-07-15_173346:920,-0.59433,-0.046265,-0.20843499999999998,-0.0329,0.011791,0.009803000000000001,-32.5,2.25,-36.0,1b
2019-07-15_173346:940,-0.563812,-0.035583,-0.25827,-0.033632,0.005229,0.012275,-33.25,0.75,-35.560001,1b
2019-07-15_173346:960,-0.607544,-0.034546,-0.195221,-0.035463,0.0069689999999999995,0.017189,-33.25,0.75,-35.560001,1b
2019-07-15_173346:980,-0.554688,-0.029480000000000003,-0.235382,-0.03467,0.009288,0.016426,-33.25,0.75,-35.560001,1b
2019-07-15_173347:000,-0.445374,-0.017273,-0.23590100000000003,-0.033602,0.01115,0.0073620000000000005,-34.0,0.75,-35.18,1b
2019-07-15_173347:020,-0.40774499999999997,0.0025329999999999997,-0.236389,-0.029024,0.011089,-0.00216,-34.0,0.75,-35.18,1b
2019-07-15_173347:040,-0.37011700000000003,0.017273,-0.21759,-0.024508000000000002,0.012401,-0.010125,-32.869999,0.06,-35.560001,1b
2019-07-15_173347:060,-0.38739,0.038635,-0.22116100000000002,-0.020876,0.007762000000000001,-0.011925,-32.869999,0.06,-35.560001,1b
2019-07-15_173347:080,-0.36349499999999996,0.048798,-0.22879000000000002,-0.018831,-0.0008439999999999999,-0.004753,-32.869999,0.06,-35.560001,1b
2019-07-15_173347:100,-0.375214,0.049316000000000006,-0.230804,-0.017611,-0.009602,0.001625,-34.0,0.06,-34.369999,1b
2019-07-15_173347:120,-0.40570100000000003,0.050323,-0.24096700000000001,-0.017763,-0.01656,0.006569,-34.0,0.06,-34.369999,1b
2019-07-15_173347:140,-0.415375,0.042175,-0.249115,-0.018557,-0.020955,0.017189,-33.68,-0.56,-34.0,1b
2019-07-15_173347:160,-0.42807,0.026427999999999997,-0.259796,-0.019686000000000002,-0.022144999999999998,0.024482,-33.68,-0.56,-34.0,1b
2019-07-15_173347:180,-0.44027700000000003,0.011687999999999999,-0.259796,-0.021456,-0.018849,0.024391,-33.68,-0.56,-34.0,1b
2019-07-15_173347:200,-0.44232200000000005,0.001495,-0.251648,-0.022677000000000003,-0.011342,0.023536,-32.18,-1.0,-35.560001,1b
2019-07-15_173347:220,-0.42453,-0.011687999999999999,-0.233337,-0.024141,-0.002644,0.024086,-32.18,-1.0,-35.560001,1b
2019-07-15_173347:240,-0.41384899999999997,-0.019806,-0.22927899999999998,-0.025332,0.0029100000000000003,0.02433,-32.5,-1.0,-36.369999,1b
2019-07-15_173347:260,-0.384857,-0.028961,-0.203369,-0.02585,0.004833,0.023201,-32.5,-1.0,-36.369999,1b
2019-07-15_173347:280,-0.385864,-0.033539,-0.20080599999999998,-0.024721,0.003246,0.020149,-32.5,-1.0,-36.369999,1b
2019-07-15_173347:300,-0.394012,-0.035065,-0.199799,-0.023653,0.0017809999999999998,0.017372,-31.0,-0.25,-35.869999,1b
2019-07-15_173347:320,-0.40063499999999996,-0.037108999999999996,-0.19775399999999999,-0.021792,0.001353,0.016456000000000002,-31.0,-0.25,-35.869999,1b
2019-07-15_173347:340,-0.406738,-0.040161,-0.206909,-0.020266,0.00114,0.014656,-31.370001000000002,-1.0,-36.68,1b
2019-07-15_173347:360,-0.408752,-0.040161,-0.21402,-0.018343,0.000682,0.012001000000000001,-31.370001000000002,-1.0,-36.68,1b
2019-07-15_173347:380,-0.416901,-0.039642000000000004,-0.21859699999999999,-0.015841,-5e-05,0.009285,-31.370001000000002,-1.0,-36.68,1b
2019-07-15_173347:400,-0.431122,-0.036072,-0.21911599999999998,-0.013368999999999999,0.0010789999999999999,0.007148000000000001,-32.18,-1.0,-35.869999,1b
2019-07-15_173347:420,-0.461639,-0.033539,-0.212006,-0.010653,0.005016,0.005836,-32.18,-1.0,-35.869999,1b
2019-07-15_173347:440,-0.463654,-0.029480000000000003,-0.208954,-0.007479,0.010661,0.003486,-31.75,-1.37,-36.68,1b
2019-07-15_173347:460,-0.463654,-0.023895,-0.206909,-0.004732,0.015238999999999999,6.8e-05,-31.75,-1.37,-36.68,1b
2019-07-15_173347:480,-0.47689799999999993,-0.019806,-0.200317,-0.0021079999999999996,0.017436,-0.0013050000000000002,-31.75,-1.37,-36.68,1b
2019-07-15_173347:500,-0.47995,-0.015228,-0.19775399999999999,-0.000185,0.017925,-0.002587,-32.18,-1.37,-35.060001,1b
2019-07-15_173347:520,-0.48196400000000006,-0.011169,-0.19622799999999999,0.001341,0.017375,-0.003655,-32.18,-1.37,-35.060001,1b
2019-07-15_173347:540,-0.48095699999999997,-0.012695,-0.201843,0.002928,0.017375,-0.0035020000000000003,-32.869999,-1.75,-35.060001,1b
2019-07-15_173347:560,-0.47842399999999996,-0.016266,-0.209961,0.004515,0.017986000000000002,-0.004815,-32.869999,-1.75,-35.060001,1b
2019-07-15_173347:580,-0.508423,-0.018799,-0.21554600000000002,0.006437000000000001,0.018718000000000002,-0.00808,-32.869999,-1.75,-35.060001,1b
2019-07-15_173347:600,-0.6446529999999999,-0.017792,-0.23895300000000003,0.008298999999999999,0.016765000000000002,-0.011681,-33.68,-1.37,-35.060001,1b
2019-07-15_173347:620,-0.489594,-0.028442000000000002,-0.22421300000000002,0.010832,0.013469,-0.015252000000000002,-33.68,-1.37,-35.060001,1b
2019-07-15_173347:640,-0.56839,-0.015747,-0.23791500000000002,0.012083,0.017588999999999997,-0.019707,-33.25,-1.37,-33.5,1b
2019-07-15_173347:660,-0.525696,-0.022369,-0.20233199999999998,0.011961,0.023235,-0.012657999999999999,-33.25,-1.37,-33.5,1b
2019-07-15_173347:680,-0.47079499999999996,-0.034058,-0.197266,0.012022,0.02885,-0.0066760000000000005,-33.25,-1.37,-33.5,1b
2019-07-15_173347:700,-0.416901,-0.042175,-0.17690999999999998,0.009703,0.0312,-0.002495,-35.25,-1.37,-34.25,1b
2019-07-15_173347:720,-0.420959,-0.053863999999999995,-0.159119,0.007902,0.029704,0.004219,-35.25,-1.37,-34.25,1b
2019-07-15_173347:740,-0.42401099999999997,-0.067108,-0.163177,0.004789,0.022899,0.008827,-35.18,-1.0,-33.869999,1b
2019-07-15_173347:760,-0.417908,-0.0737,-0.167267,0.00073,0.015238999999999999,0.008612999999999999,-35.18,-1.0,-33.869999,1b
2019-07-15_173347:780,-0.410797,-0.080322,-0.17337,-0.002993,0.007426,0.011054999999999999,-35.18,-1.0,-33.869999,1b
2019-07-15_173347:800,-0.445374,-0.08590700000000001,-0.18811,-0.006075,0.000468,0.011543000000000001,-36.25,-1.0,-33.5,1b
2019-07-15_173347:820,-0.44232200000000005,-0.079803,-0.19927999999999998,-0.009401000000000001,-0.004964,0.007301,-36.25,-1.0,-33.5,1b
2019-07-15_173347:840,-0.429596,-0.076752,-0.20944200000000002,-0.011507,-0.008534,0.002967,-37.0,-0.56,-32.68,1b
2019-07-15_173347:860,-0.42807,-0.074738,-0.20843499999999998,-0.012240000000000001,-0.009816,-0.0033799999999999998,-37.0,-0.56,-32.68,1b
2019-07-15_173347:880,-0.44281000000000004,-0.06405599999999999,-0.195221,-0.013186000000000002,-0.00829,-0.010277,-37.0,-0.56,-32.68,1b
2019-07-15_173347:900,-0.439758,-0.05996699999999999,-0.182007,-0.013186000000000002,-0.002919,-0.010551999999999999,-35.869999,0.06,-32.25,1b
2019-07-15_173347:920,-0.414337,-0.055908000000000006,-0.170319,-0.012301000000000001,0.002849,-0.010491,-35.869999,0.06,-32.25,1b
2019-07-15_173347:940,-0.389954,-0.047272,-0.165222,-0.011781999999999999,0.00584,-0.013328999999999999,-35.5,-0.56,-33.060001,1b
2019-07-15_173347:960,-0.374176,-0.040161,-0.153534,-0.01047,0.005046,-0.013665,-35.5,-0.56,-33.060001,1b
2019-07-15_173347:980,-0.374695,-0.039124,-0.152527,-0.009585,0.000682,-0.012412999999999999,-35.5,-0.56,-33.060001,1b
2019-07-15_173348:000,-0.393005,-0.036072,-0.149475,-0.008974,-0.004567,-0.011589,-36.25,-1.75,-32.68,1b
2019-07-15_173348:020,-0.40823400000000004,-0.03302,-0.150482,-0.008333,-0.008687,-0.010154999999999999,-36.25,-1.75,-32.68,1b
2019-07-15_173348:040,-0.41384899999999997,-0.028961,-0.150482,-0.007998,-0.011128,-0.008294,-35.18,-2.06,-33.869999,1b
2019-07-15_173348:060,-0.421967,-0.032532,-0.151001,-0.007540000000000001,-0.011281,-0.007683,-35.18,-2.06,-33.869999,1b
2019-07-15_173348:080,-0.432648,-0.03302,-0.150482,-0.006807,-0.009663,-0.008140999999999999,-35.18,-2.06,-33.869999,1b
2019-07-15_173348:100,-0.43927,-0.03302,-0.154541,-0.005678,-0.007954000000000001,-0.007958,-35.18,-2.87,-32.25,1b
2019-07-15_173348:120,-0.45196499999999995,-0.028442000000000002,-0.167267,-0.004793,-0.007161,-0.0064930000000000005,-35.18,-2.87,-32.25,1b
2019-07-15_173348:140,-0.488068,-0.024384,-0.17538499999999999,-0.004671,-0.0071,-0.002892,-35.18,-3.56,-33.060001,1b
2019-07-15_173348:160,-0.52774,-0.023895,-0.190643,-0.005282,-0.0046890000000000005,0.001625,-35.18,-3.56,-33.060001,1b
2019-07-15_173348:180,-0.537903,-0.028961,-0.20538299999999998,-0.0066549999999999995,7.2e-05,0.004432,-35.18,-3.56,-33.060001,1b
2019-07-15_173348:200,-0.52417,-0.029480000000000003,-0.212006,-0.007998,0.004771,0.005806,-35.869999,-2.87,-32.68,1b
2019-07-15_173348:220,-0.515533,-0.031006,-0.21911599999999998,-0.008333,0.007426,0.005409000000000001,-35.869999,-2.87,-32.68,1b
2019-07-15_173348:240,-0.518066,-0.027435,-0.228271,-0.008333,0.008495,0.003639,-35.869999,-2.87,-34.25,1b
2019-07-15_173348:260,-0.610596,-0.027954000000000003,-0.23028600000000002,-0.008669,0.006358,0.003425,-35.869999,-2.87,-34.25,1b
2019-07-15_173348:280,-0.5429689999999999,-0.025908999999999998,-0.248108,-0.009249,-0.000508,0.006141,-35.869999,-2.87,-34.25,1b
2019-07-15_173348:300,-0.634491,-0.023895,-0.225739,-0.010775,0.004619,0.009406999999999999,-35.18,-2.87,-33.869999,1b
2019-07-15_173348:320,-0.559753,-0.021851,-0.22879000000000002,-0.010042,0.011668000000000001,0.009224,-35.18,-2.87,-33.869999,1b
2019-07-15_173348:340,-0.46670500000000004,-0.013702,-0.21911599999999998,-0.009585,0.018443,0.004036,-35.869999,-3.25,-33.869999,1b
2019-07-15_173348:360,-0.38739,-0.005065999999999999,-0.19622799999999999,-0.007479,0.023143,0.001167,-35.869999,-3.25,-33.869999,1b
2019-07-15_173348:380,-0.376221,-0.000488,-0.17385899999999999,-0.005007,0.023479,-5.4000000000000005e-05,-35.869999,-3.25,-33.869999,1b
2019-07-15_173348:400,-0.366058,0.006072999999999999,-0.18249500000000002,-0.0033280000000000002,0.014659,-0.00216,-36.25,-3.56,-33.060001,1b
2019-07-15_173348:420,-0.35943600000000003,0.008118,-0.178955,-0.001864,0.0029100000000000003,-0.0019760000000000003,-36.25,-3.56,-33.060001,1b
2019-07-15_173348:440,-0.41384899999999997,0.004547,-0.195221,-0.000185,-0.0070079999999999995,-0.001519,-38.060001,-3.56,-33.060001,1b
2019-07-15_173348:460,-0.408752,0.0035399999999999997,-0.204376,0.000212,-0.013722,-0.00045099999999999996,-38.060001,-3.56,-33.060001,1b
2019-07-15_173348:480,-0.407227,-0.0055850000000000006,-0.22979699999999997,0.000791,-0.021504,0.005622,-38.060001,-3.56,-33.060001,1b
2019-07-15_173348:500,-0.41384899999999997,-0.017792,-0.233856,0.001341,-0.027393999999999998,0.011146,-36.18,-2.87,-32.68,1b
2019-07-15_173348:520,-0.410797,-0.024384,-0.24706999999999998,0.001737,-0.028981,0.011726,-36.18,-2.87,-32.68,1b
2019-07-15_173348:540,-0.384857,-0.029968,-0.23590100000000003,0.0017980000000000001,-0.029866000000000004,0.010872,-36.18,-2.5,-32.25,1b
2019-07-15_173348:560,-0.37265,-0.036591000000000005,-0.206909,0.001341,-0.032429,0.008735,-36.18,-2.5,-32.25,1b
2019-07-15_173348:580,-0.381805,-0.035065,-0.189117,0.00048600000000000005,-0.03597,0.0060799999999999995,-36.18,-2.5,-32.25,1b
2019-07-15_173348:600,-0.38385,-0.045226999999999996,-0.174377,0.000395,-0.038014,0.004615,-34.68,-2.5,-35.060001,1b
2019-07-15_173348:620,-0.38739,-0.048279,-0.174896,0.001585,-0.039326,0.001503,-34.68,-2.5,-35.060001,1b
2019-07-15_173348:640,-0.394012,-0.046265,-0.18249500000000002,0.0034460000000000003,-0.040395,-0.002648,-34.369999,-1.75,-36.68,1b
2019-07-15_173348:660,-0.394012,-0.044219999999999995,-0.188599,0.005979,-0.042073,-0.00396,-34.369999,-1.75,-36.68,1b
2019-07-15_173348:680,-0.39859,-0.037598,-0.201843,0.008756,-0.044788999999999995,-0.004021,-34.369999,-1.75,-36.68,1b
2019-07-15_173348:700,-0.39502,-0.031494,-0.207916,0.010832,-0.046437,-0.005425,-32.869999,-1.37,-35.869999,1b
2019-07-15_173348:720,-0.389435,-0.028442000000000002,-0.21505700000000003,0.012631999999999999,-0.047688,-0.007744,-32.869999,-1.37,-35.869999,1b
2019-07-15_173348:740,-0.41485600000000006,-0.026917,-0.231812,0.014402000000000002,-0.047688,-0.008537999999999999,-31.25,-1.0,-38.68,1b
2019-07-15_173348:760,-0.429108,-0.027435,-0.245544,0.016263999999999997,-0.043202,-0.008355,-31.25,-1.0,-38.68,1b
2019-07-15_173348:780,-0.42453,-0.023375999999999997,-0.256744,0.01721,-0.036366,-0.008934000000000001,-31.25,-1.0,-38.68,1b
2019-07-15_173348:800,-0.401642,-0.021332,-0.282166,0.017912,-0.0313,-0.010125,-30.18,-1.37,-39.869999,1b
2019-07-15_173348:820,-0.44384799999999996,-0.022858,-0.308075,0.0184,-0.031514,-0.010216,-30.18,-1.37,-39.869999,1b
2019-07-15_173348:840,-0.46823100000000006,-0.024902,-0.310638,0.019193,-0.027180000000000003,-0.01278,-28.370001000000002,0.06,-39.869999,1b
2019-07-15_173348:860,-0.471283,-0.017273,-0.314178,0.019712,-0.020558,-0.016991,-28.370001000000002,0.06,-39.869999,1b
2019-07-15_173348:880,-0.467224,-0.012695,-0.312164,0.019987,-0.0136,-0.017632,-28.370001000000002,0.06,-39.869999,1b
2019-07-15_173348:900,-0.46316499999999994,-0.007599,-0.323853,0.02017,-0.006612000000000001,-0.017785,-26.370001000000002,0.5,-42.5,1b
2019-07-15_173348:920,-0.461639,-0.008118,-0.335541,0.019528999999999998,0.000346,-0.018456,-26.370001000000002,0.5,-42.5,1b
2019-07-15_173348:940,-0.5348510000000001,-0.011687999999999999,-0.352844,0.018705,0.003886,-0.018181,-26.5,0.5,-42.560001,1b
2019-07-15_173348:960,-0.506897,-0.010651,-0.383331,0.017515,-0.00011100000000000001,-0.017907,-26.5,0.5,-42.560001,1b
2019-07-15_173348:980,-0.529755,-0.018799,-0.34875500000000004,0.016935,0.002391,-0.019584999999999998,-26.5,0.5,-42.560001,1b
2019-07-15_173349:000,-0.49365200000000004,-0.021332,-0.345215,0.016722,0.0071519999999999995,-0.020165,-27.0,0.75,-42.18,1b
2019-07-15_173349:020,-0.453003,-0.036591000000000005,-0.326904,0.017118,0.01234,-0.014641,-27.0,0.75,-42.18,1b
2019-07-15_173349:040,-0.399597,-0.039124,-0.309113,0.016477000000000002,0.015575,-0.010735,-27.0,0.5,-42.5,1b
2019-07-15_173349:060,-0.347748,-0.044219999999999995,-0.273529,0.014677,0.019053999999999998,-0.004296,-27.0,0.5,-42.5,1b
2019-07-15_173349:080,-0.34063699999999997,-0.058441,-0.279114,0.012419,0.018962,0.0033640000000000002,-27.0,0.5,-42.5,1b
2019-07-15_173349:100,-0.332489,-0.069122,-0.295898,0.010038,0.014537000000000001,0.0043100000000000005,-27.0,1.56,-41.25,1b
2019-07-15_173349:120,-0.320801,-0.070648,-0.303528,0.0072310000000000004,0.008556,0.002113,-27.0,1.56,-41.25,1b
2019-07-15_173349:140,-0.318756,-0.075226,-0.315216,0.004331000000000001,-0.000386,0.004615,-27.68,1.87,-42.060001,1b
2019-07-15_173349:160,-0.326904,-0.076263,-0.32132,0.001463,-0.009755,0.006294,-27.68,1.87,-42.060001,1b
2019-07-15_173349:180,-0.353851,-0.067596,-0.3396,-0.001375,-0.017903,0.002357,-27.68,1.87,-42.060001,1b
2019-07-15_173349:200,-0.377747,-0.060486,-0.34368899999999997,-0.0025050000000000003,-0.022359,-0.00277,-27.68,2.25,-42.060001,1b
2019-07-15_173349:220,-0.39859,-0.047272,-0.345215,-0.004213000000000001,-0.020345,-0.011284,-27.68,2.25,-42.060001,1b
2019-07-15_173349:240,-0.401642,-0.036591000000000005,-0.337067,-0.0058,-0.013661000000000001,-0.013848,-26.559998999999998,2.25,-42.060001,1b
2019-07-15_173349:260,-0.392487,-0.024902,-0.309601,-0.007387,-0.004414,-0.014518999999999999,-26.559998999999998,2.25,-42.060001,1b
2019-07-15_173349:280,-0.37316900000000003,-0.018799,-0.29486100000000004,-0.009309999999999999,0.0031850000000000003,-0.015465000000000001,-26.559998999999998,2.25,-42.060001,1b
2019-07-15_173349:300,-0.344696,-0.009644,-0.276581,-0.011049,0.0069689999999999995,-0.015191,-25.5,1.18,-42.5,1b
2019-07-15_173349:320,-0.332489,-0.006072999999999999,-0.267426,-0.012392,0.006572,-0.013848,-25.5,1.18,-42.5,1b
2019-07-15_173349:340,-0.332489,-0.001007,-0.25827,-0.013308,0.003368,-0.012261,-27.0,1.56,-42.869999,1b
2019-07-15_173349:360,-0.340118,0.000488,-0.25317399999999995,-0.014497999999999999,-0.0007830000000000001,-0.010003,-27.0,1.56,-42.869999,1b
2019-07-15_173349:380,-0.374176,0.002014,-0.263855,-0.015290999999999999,-0.002583,-0.007103,-27.0,1.56,-42.869999,1b
2019-07-15_173349:400,-0.381317,0.000488,-0.27301,-0.015841,-0.002309,-0.0038380000000000003,-27.25,0.5,-44.060001,1b
2019-07-15_173349:420,-0.390442,0.0,-0.280121,-0.016572999999999997,-0.0008439999999999999,-0.00158,-27.25,0.5,-44.060001,1b
2019-07-15_173349:440,-0.393494,-0.0030210000000000002,-0.278107,-0.017214,0.002116,0.001045,-27.059998999999998,0.75,-43.68,1b
2019-07-15_173349:460,-0.390442,-0.010162000000000001,-0.274536,-0.01755,0.005901,0.002754,-27.059998999999998,0.75,-43.68,1b
2019-07-15_173349:480,-0.39502,-0.011169,-0.275543,-0.017672,0.008434,0.0051649999999999995,-27.059998999999998,0.75,-43.68,1b
2019-07-15_173349:500,-0.416382,-0.016753999999999998,-0.277069,-0.018099,0.009349,0.008461,-26.18,-0.25,-43.25,1b
2019-07-15_173349:520,-0.43823199999999995,-0.020844,-0.277588,-0.01874,0.010326,0.010657999999999999,-26.18,-0.25,-43.25,1b
2019-07-15_173349:540,-0.445374,-0.026427999999999997,-0.287231,-0.01935,0.011791,0.012062,-27.68,-0.56,-42.869999,1b
2019-07-15_173349:560,-0.445374,-0.029968,-0.287231,-0.020327,0.011943,0.011787,-27.68,-0.56,-42.869999,1b
2019-07-15_173349:580,-0.447388,-0.035583,-0.29486100000000004,-0.021151,0.011943,0.009864,-27.68,-0.56,-42.869999,1b
2019-07-15_173349:600,-0.45654300000000003,-0.036591000000000005,-0.302002,-0.020937,0.013133,0.005836,-27.0,-0.56,-41.75,1b
2019-07-15_173349:620,-0.47689799999999993,-0.03302,-0.314178,-0.019747,0.014446,0.000526,-27.0,-0.56,-41.75,1b
2019-07-15_173349:640,-0.5495909999999999,-0.029968,-0.336548,-0.018435,0.00883,-0.004235,-28.059998999999998,-1.0,-42.869999,1b
2019-07-15_173349:660,-0.501801,-0.015747,-0.315704,-0.017366999999999997,0.0042829999999999995,-0.004418,-28.059998999999998,-1.0,-42.869999,1b
2019-07-15_173349:680,-0.5368649999999999,-0.001495,-0.349274,-0.015627000000000002,0.005168,-0.0019760000000000003,-28.059998999999998,-1.0,-42.869999,1b
2019-07-15_173349:700,-0.485016,0.006592,-0.326385,-0.013581999999999999,0.010326,-0.003106,-28.059998999999998,-2.06,-42.060001,1b
2019-07-15_173349:720,-0.443329,0.021851,-0.319794,-0.010927,0.016063,-0.0054859999999999996,-28.059998999999998,-2.06,-42.060001,1b
2019-07-15_173349:740,-0.35791,0.032532,-0.301483,-0.008394,0.021098,-0.003563,-29.18,-2.87,-42.060001,1b
2019-07-15_173349:760,-0.326904,0.036072,-0.285217,-0.007387,0.023204,-0.000389,-29.18,-2.87,-42.060001,1b
2019-07-15_173349:780,-0.308075,0.043213,-0.288269,-0.006594,0.019511,0.005012,-29.18,-2.87,-42.060001,1b
2019-07-15_173349:800,-0.306061,0.041168,-0.286224,-0.006684999999999999,0.011455,0.008216,-28.75,-3.25,-42.060001,1b
2019-07-15_173349:820,-0.341125,0.036591000000000005,-0.29180900000000004,-0.007479,0.0045579999999999996,0.008491,-28.75,-3.25,-42.060001,1b
2019-07-15_173349:840,-0.35436999999999996,0.034058,-0.300476,-0.008608,1.1e-05,0.013374,-30.0,-3.25,-42.060001,1b
2019-07-15_173349:860,-0.366058,0.021851,-0.312653,-0.010042,-0.00417,0.019447,-30.0,-3.25,-42.060001,1b
2019-07-15_173349:880,-0.367584,0.017273,-0.325378,-0.011904000000000001,-0.008137,0.020819999999999998,-30.0,-3.25,-42.060001,1b
2019-07-15_173349:900,-0.36654699999999996,0.010162000000000001,-0.324371,-0.012575,-0.011585999999999999,0.02021,-30.0,-2.87,-42.5,1b
2019-07-15_173349:920,-0.40063499999999996,-0.002014,-0.315704,-0.012514,-0.01067,0.017891,-30.0,-2.87,-42.5,1b
2019-07-15_173349:940,-0.404694,-0.004059,-0.29995700000000003,-0.012514,-0.005177,0.016121,-29.18,-2.87,-43.25,1b
2019-07-15_173349:960,-0.39859,-0.009644,-0.28674299999999997,-0.012118,0.001018,0.016059,-29.18,-2.87,-43.25,1b
2019-07-15_173349:980,-0.379791,-0.014740000000000001,-0.270477,-0.011720999999999999,0.005626,0.015052000000000001,-29.18,-2.87,-43.25,1b
2019-07-15_173350:000,-0.374695,-0.016266,-0.26181,-0.010927,0.007213,0.014137,-30.0,-2.5,-42.5,1b
2019-07-15_173350:020,-0.371643,-0.019318000000000002,-0.25317399999999995,-0.009981,0.006633,0.013649000000000001,-30.0,-2.5,-42.5,1b
2019-07-15_173350:040,-0.37265,-0.023895,-0.24658200000000002,-0.008608,0.0052899999999999996,0.011879,-28.5,-2.06,-42.869999,1b
2019-07-15_173350:060,-0.377747,-0.028442000000000002,-0.237427,-0.006684999999999999,0.00352,0.008674,-28.5,-2.06,-42.869999,1b
2019-07-15_173350:080,-0.381805,-0.028961,-0.23690799999999998,-0.004213000000000001,0.001842,0.004707,-28.5,-2.06,-42.869999,1b
2019-07-15_173350:100,-0.388428,-0.022858,-0.240479,-0.001192,0.000285,0.00196,-28.75,-2.5,-41.75,1b
2019-07-15_173350:120,-0.385864,-0.01828,-0.240479,0.001524,-0.000661,0.001228,-28.75,-2.5,-41.75,1b
2019-07-15_173350:140,-0.38739,-0.013702,-0.240479,0.004118,-0.00063,0.000587,-29.559998999999998,-1.75,-42.060001,1b
2019-07-15_173350:160,-0.389435,-0.011687999999999999,-0.245056,0.006193,-0.000233,-0.000634,-29.559998999999998,-1.75,-42.060001,1b
2019-07-15_173350:180,-0.399597,-0.009644,-0.24353000000000002,0.00778,0.00114,-0.002037,-29.559998999999998,-1.75,-42.060001,1b
2019-07-15_173350:200,-0.418915,-0.008636,-0.24963400000000002,0.009611,0.001598,-0.005089,-28.75,-1.75,-42.5,1b
2019-07-15_173350:220,-0.43518100000000004,-0.002014,-0.251648,0.011015,0.0035810000000000004,-0.0075,-28.75,-1.75,-42.5,1b
2019-07-15_173350:240,-0.437225,0.0,-0.25116,0.011869,0.0035810000000000004,-0.008202,-30.0,-1.37,-42.5,1b
2019-07-15_173350:260,-0.43670699999999996,0.0025329999999999997,-0.274017,0.012297,0.00056,-0.008416,-30.0,-1.37,-42.5,1b
2019-07-15_173350:280,-0.43670699999999996,0.000488,-0.279633,0.012358,-0.0024920000000000003,-0.008629000000000001,-30.0,-1.37,-42.5,1b
2019-07-15_173350:300,-0.449432,-0.0030210000000000002,-0.29284699999999997,0.012937,-0.0039570000000000004,-0.008294,-29.18,-0.56,-42.5,1b
2019-07-15_173350:320,-0.47280900000000003,-0.009125,-0.302002,0.013609,-0.0037119999999999996,-0.008140999999999999,-29.18,-0.56,-42.5,1b
2019-07-15_173350:340,-0.568909,-0.010651,-0.334534,0.014280000000000001,-0.0071,-0.007012000000000001,-30.0,-0.25,-42.869999,1b
2019-07-15_173350:360,-0.518066,-0.01828,-0.338074,0.013761,-0.002095,-0.0066760000000000005,-30.0,-0.25,-42.869999,1b
2019-07-15_173350:380,-0.5109560000000001,-0.025908999999999998,-0.330963,0.013548,0.0031850000000000003,-0.006615,-30.0,-0.25,-42.869999,1b
2019-07-15_173350:400,-0.510437,-0.03302,-0.319275,0.012875999999999999,0.006572,-0.00747,-29.18,-1.0,-43.25,1b
2019-07-15_173350:420,-0.416382,-0.041687,-0.29538000000000003,0.010496,0.010265,-0.006615,-29.18,-1.0,-43.25,1b
2019-07-15_173350:440,-0.391968,-0.044219999999999995,-0.29486100000000004,0.007840999999999999,0.013316,0.000648,-29.18,0.5,-44.5,1b
2019-07-15_173350:460,-0.34570300000000004,-0.069122,-0.272003,0.005247,0.014537000000000001,0.0063549999999999995,-29.18,0.5,-44.5,1b
2019-07-15_173350:480,-0.34265100000000004,-0.077271,-0.276062,0.0032630000000000003,0.012462,0.004615,-29.18,0.5,-44.5,1b
2019-07-15_173350:500,-0.335022,-0.08590700000000001,-0.28369099999999997,0.0022559999999999998,0.007304000000000001,-5.4000000000000005e-05,-29.559998999999998,-0.25,-43.25,1b
2019-07-15_173350:520,-0.34317,-0.091003,-0.285706,0.001982,0.000865,-0.003655,-29.559998999999998,-0.25,-43.25,1b
2019-07-15_173350:540,-0.353333,-0.08743300000000001,-0.303528,0.002012,-0.005574,-0.006768000000000001,-29.559998999999998,1.18,-42.369999,1b
2019-07-15_173350:560,-0.368591,-0.083374,-0.312164,0.002134,-0.010152,-0.010064,-29.559998999999998,1.18,-42.369999,1b
2019-07-15_173350:580,-0.397583,-0.068634,-0.325897,0.002409,-0.01125,-0.012473999999999999,-29.559998999999998,1.18,-42.369999,1b
2019-07-15_173350:600,-0.420959,-0.058441,-0.328949,0.002806,-0.008870000000000001,-0.014458000000000002,-29.559998999999998,0.75,-42.869999,1b
2019-07-15_173350:620,-0.44281000000000004,-0.046752999999999996,-0.316223,0.002317,-0.002248,-0.016442,-29.559998999999998,0.75,-42.869999,1b
2019-07-15_173350:640,-0.438751,-0.040161,-0.301483,0.001737,0.00648,-0.016594,-29.18,0.06,-42.75,1b
2019-07-15_173350:660,-0.41384899999999997,-0.03302,-0.270477,0.001341,0.014322999999999999,-0.016899,-29.18,0.06,-42.75,1b
2019-07-15_173350:680,-0.38739,-0.029480000000000003,-0.246063,0.00073,0.018382,-0.019982,-29.18,0.06,-42.75,1b
2019-07-15_173350:700,-0.34570300000000004,-0.019318000000000002,-0.223694,0.00011999999999999999,0.016704,-0.020562,-29.18,0.5,-43.560001,1b
2019-07-15_173350:720,-0.325897,-0.016266,-0.213531,-0.000246,0.010143000000000001,-0.018853,-29.18,0.5,-43.560001,1b
2019-07-15_173350:740,-0.338593,-0.011169,-0.216583,-0.0006730000000000001,0.006175,-0.018181,-30.0,0.06,-44.369999,1b
2019-07-15_173350:760,-0.384857,-0.010651,-0.226227,-0.002779,-0.006032,-0.009423,-30.0,0.06,-44.369999,1b
2019-07-15_173350:780,-0.396057,-0.009125,-0.22979699999999997,-0.002993,-0.006703,-0.008232,-30.0,0.5,-43.560001,1b
2019-07-15_173350:800,-0.396057,-0.009125,-0.22979699999999997,-0.002993,-0.006703,-0.008232,-30.0,0.5,-43.560001,1b
2019-07-15_173350:820,-0.405212,-0.008636,-0.230804,-0.003237,-0.003834,-0.004906000000000001,-30.0,0.5,-43.560001,1b
2019-07-15_173350:840,-0.406738,-0.009644,-0.231812,-0.0029010000000000004,-0.002248,-0.0034409999999999996,-30.0,0.06,-43.18,1b
2019-07-15_173350:860,-0.399597,-0.008636,-0.231323,-0.002382,0.0016589999999999999,-0.000267,-30.0,0.06,-43.18,1b
2019-07-15_173350:880,-0.394012,-0.008118,-0.234375,-0.002779,0.0008039999999999999,0.00489,-30.0,0.06,-43.18,1b
2019-07-15_173350:900,-0.420441,-0.011687999999999999,-0.262329,-0.003237,-0.0007830000000000001,0.008003,-28.75,-0.25,-44.0,1b
2019-07-15_173350:920,-0.447388,-0.016266,-0.275055,-0.005861,-0.002431,0.013527,-28.75,-0.25,-44.0,1b
2019-07-15_173350:940,-0.47280900000000003,-0.01828,-0.277588,-0.006869,-0.001515,0.015113,-29.18,0.06,-42.0,1b
2019-07-15_173350:960,-0.46569799999999995,-0.019318000000000002,-0.28112800000000004,-0.009188,0.003886,0.016791999999999998,-29.18,0.06,-42.0,1b
2019-07-15_173350:980,-0.45654300000000003,-0.017792,-0.288269,-0.010592,0.006145,0.014838999999999998,-29.18,0.06,-42.0,1b
2019-07-15_173351:000,-0.48043800000000003,-0.01828,-0.301483,-0.010927,0.0052899999999999996,0.014594999999999999,-30.0,-0.25,-42.369999,1b
2019-07-15_173351:020,-0.492645,-0.0055850000000000006,-0.354858,-0.013643,-0.006764,0.019691,-30.0,-0.25,-42.369999,1b
2019-07-15_173351:040,-0.555176,-0.012695,-0.303528,-0.015902,-0.006551,0.023994,-29.18,0.75,-44.0,1b
2019-07-15_173351:060,-0.554688,-0.014740000000000001,-0.320282,-0.016939,-0.00063,0.021736000000000002,-29.18,0.75,-44.0,1b
2019-07-15_173351:080,-0.485016,-0.008636,-0.308594,-0.017031,0.00703,0.016059,-29.18,0.75,-44.0,1b
2019-07-15_173351:100,-0.414337,0.000488,-0.290283,-0.016085,0.009959,0.014717,-29.559998999999998,0.06,-44.0,1b
2019-07-15_173351:120,-0.33605999999999997,0.0035399999999999997,-0.262329,-0.013704,0.011484999999999999,0.010322,-29.559998999999998,0.06,-44.0,1b
2019-07-15_173351:140,-0.322845,0.014740000000000001,-0.253693,-0.012697,0.005168,0.009529000000000001,-30.0,0.75,-43.560001,1b
2019-07-15_173351:160,-0.341644,0.018799,-0.272003,-0.011170999999999999,-0.004445,0.012519,-30.0,0.75,-43.560001,1b
2019-07-15_173351:180,-0.34063699999999997,0.016266,-0.275055,-0.010256,-0.011678000000000001,0.012245,-30.0,0.75,-43.560001,1b
2019-07-15_173351:200,-0.37674,0.022369,-0.29995700000000003,-0.010195000000000001,-0.017322999999999998,0.012336,-30.25,0.5,-44.369999,1b
2019-07-15_173351:220,-0.393005,0.021332,-0.320282,-0.010592,-0.021352,0.018104,-30.25,0.5,-44.369999,1b
2019-07-15_173351:240,-0.381805,0.012177,-0.344696,-0.011507,-0.022481,0.021613999999999998,-29.559998999999998,0.06,-44.0,1b
2019-07-15_173351:260,-0.394531,0.001007,-0.347229,-0.014712000000000001,-0.021748,0.02494,-29.559998999999998,0.06,-44.0,1b
2019-07-15_173351:280,-0.417389,-0.008636,-0.335541,-0.016146,-0.014851,0.025519999999999998,-29.559998999999998,0.06,-44.0,1b
2019-07-15_173351:300,-0.410278,-0.017792,-0.322327,-0.016694999999999998,-0.009755,0.02613,-28.75,0.06,-44.369999,1b
2019-07-15_173351:320,-0.382812,-0.029480000000000003,-0.300964,-0.017763,0.004497,0.025337000000000002,-28.75,0.06,-44.369999,1b
2019-07-15_173351:340,-0.358917,-0.037108999999999996,-0.28875700000000004,-0.017884999999999998,0.007823,0.02433,-27.559998999999998,0.5,-44.75,1b
2019-07-15_173351:360,-0.337067,-0.047272,-0.271484,-0.016176,0.009531999999999999,0.02024,-27.559998999999998,0.5,-44.75,1b
2019-07-15_173351:380,-0.328949,-0.047272,-0.264374,-0.014834,0.006816,0.01725,-27.559998999999998,0.5,-44.75,1b
2019-07-15_173351:400,-0.334534,-0.047272,-0.257233,-0.014100999999999999,0.004894,0.016182,-28.0,0.06,-45.560001,1b
2019-07-15_173351:420,-0.358917,-0.045226999999999996,-0.257233,-0.013125,1.1e-05,0.014197999999999999,-28.0,0.06,-45.560001,1b
2019-07-15_173351:440,-0.38739,-0.037598,-0.275055,-0.013094,1.1e-05,0.013130000000000001,-28.370001000000002,1.18,-45.18,1b
2019-07-15_173351:460,-0.389954,-0.036591000000000005,-0.28064,-0.012758,0.0017809999999999998,0.008948999999999999,-28.370001000000002,1.18,-45.18,1b
2019-07-15_173351:480,-0.40011599999999997,-0.034546,-0.28418000000000004,-0.012575,0.003703,0.004707,-28.370001000000002,1.18,-45.18,1b
2019-07-15_173351:500,-0.401123,-0.034546,-0.28418000000000004,-0.012240000000000001,0.005046,0.002967,-28.059998999999998,0.75,-44.75,1b
2019-07-15_173351:520,-0.425018,-0.034546,-0.274536,-0.009706999999999999,0.010417000000000001,0.0007700000000000001,-28.059998999999998,0.75,-44.75,1b
2019-07-15_173351:540,-0.429108,-0.033539,-0.266907,-0.008608,0.012859,-0.00023700000000000001,-29.18,0.5,-44.75,1b
2019-07-15_173351:560,-0.42605600000000005,-0.028961,-0.259277,-0.005068,0.018779,-0.002983,-29.18,0.5,-44.75,1b
2019-07-15_173351:580,-0.431122,-0.027435,-0.259796,-0.001986,0.020030000000000003,-0.00457,-29.18,0.5,-44.75,1b
2019-07-15_173351:600,-0.445862,-0.026427999999999997,-0.264862,-0.000521,0.020091,-0.005577,-28.75,-0.25,-44.0,1b
2019-07-15_173351:620,-0.45907600000000004,-0.022858,-0.268951,0.003904,0.021495,-0.007683,-28.75,-0.25,-44.0,1b
2019-07-15_173351:640,-0.46417200000000003,-0.017273,-0.276581,0.005125,0.022868,-0.007561,-28.75,-0.25,-44.0,1b
2019-07-15_173351:660,-0.466217,-0.013702,-0.283173,0.007292,0.028606,-0.0034409999999999996,-30.25,-0.25,-43.18,1b
2019-07-15_173351:680,-0.48300200000000004,-0.017273,-0.297913,0.008024,0.032726,0.000831,-30.25,-0.25,-43.18,1b
2019-07-15_173351:700,-0.548584,-0.028442000000000002,-0.298431,0.007963,0.034435,0.001625,-32.18,-0.37,-44.0,1b
2019-07-15_173351:720,-0.502319,-0.034546,-0.319275,0.0073219999999999995,0.032054,0.00132,-32.18,-0.37,-44.0,1b
2019-07-15_173351:740,-0.57196,-0.044739,-0.268433,0.007902,0.034251,-0.000725,-32.18,-0.37,-44.0,1b
2019-07-15_173351:760,-0.520111,-0.047272,-0.266907,0.009306,0.03828,-0.004174000000000001,-32.060001,0.68,-42.369999,1b
2019-07-15_173351:780,-0.45553599999999994,-0.051849,-0.258759,0.010771,0.040813,-0.003563,-32.060001,0.68,-42.369999,1b
2019-07-15_173351:800,-0.389954,-0.050842,-0.21606399999999998,0.011412,0.044536,-0.0032890000000000003,-33.869999,0.25,-40.75,1b
2019-07-15_173351:820,-0.35943600000000003,-0.053375,-0.203369,0.010556999999999999,0.046123000000000004,-0.000267,-33.869999,0.25,-40.75,1b
2019-07-15_173351:840,-0.355896,-0.06149299999999999,-0.21759,0.010159999999999999,0.039133999999999995,0.001655,-33.869999,0.25,-40.75,1b
2019-07-15_173351:860,-0.359955,-0.063019,-0.21453899999999998,0.008756,0.030070999999999997,-0.001458,-35.5,1.5,-38.869999,1b
2019-07-15_173351:880,-0.377228,-0.061005,-0.223175,0.008085,0.018047,-0.0017629999999999998,-35.5,1.5,-38.869999,1b
2019-07-15_173351:900,-0.38739,-0.06253099999999999,-0.223175,0.0076879999999999995,0.00703,0.000648,-37.369999,1.75,-38.560001,1b
2019-07-15_173351:920,-0.417908,-0.055389,-0.23028600000000002,0.006986,1.1e-05,-0.002098,-37.369999,1.75,-38.560001,1b
2019-07-15_173351:940,-0.42401099999999997,-0.047272,-0.236389,0.006162,-0.004231,-0.006035,-37.369999,1.75,-38.560001,1b
2019-07-15_173351:960,-0.429596,-0.039124,-0.24453699999999998,0.005186,-0.007619,-0.006615,-37.369999,1.75,-38.869999,1b
2019-07-15_173351:980,-0.420441,-0.03302,-0.23895300000000003,0.002989,-0.009877,-0.007409000000000001,-37.369999,1.75,-38.869999,1b
2019-07-15_173352:000,-0.42147799999999996,-0.025421,-0.23028600000000002,0.00011999999999999999,-0.010121,-0.008355,-37.0,1.5,-38.060001,1b
2019-07-15_173352:020,-0.421967,-0.021332,-0.21859699999999999,-0.002718,-0.006612000000000001,-0.009209,-37.0,1.5,-38.060001,1b
2019-07-15_173352:040,-0.415375,-0.015228,-0.204376,-0.006136,-0.001637,-0.010735,-37.0,1.5,-38.060001,1b
2019-07-15_173352:060,-0.40570100000000003,-0.013702,-0.19574,-0.008974,0.002635,-0.010551999999999999,-35.869999,1.5,-38.869999,1b
2019-07-15_173352:080,-0.397064,-0.009125,-0.18454,-0.012972,0.005229,-0.008965,-35.869999,1.5,-38.869999,1b
2019-07-15_173352:100,-0.40011599999999997,-0.007111,-0.182007,-0.014284,0.004649,-0.007836,-37.0,1.06,-38.560001,1b
2019-07-15_173352:120,-0.395538,-0.006072999999999999,-0.178955,-0.016482,0.001842,-0.0063100000000000005,-37.0,1.06,-38.560001,1b
2019-07-15_173352:140,-0.40368699999999996,-0.004059,-0.186584,-0.018435,-0.001057,-0.007012000000000001,-37.0,1.06,-38.560001,1b
2019-07-15_173352:160,-0.402161,-0.002014,-0.192688,-0.020418000000000002,-0.003285,-0.006768000000000001,-36.68,0.68,-36.869999,1b
2019-07-15_173352:180,-0.407227,-0.0035399999999999997,-0.198792,-0.02228,-0.004903,-0.004448,-36.68,0.68,-36.869999,1b
2019-07-15_173352:200,-0.41586300000000004,-0.0055850000000000006,-0.20285,-0.024263999999999997,-0.004964,-0.0013050000000000002,-36.68,0.0,-38.869999,1b
2019-07-15_173352:220,-0.44027700000000003,-0.010162000000000001,-0.20285,-0.025911,-0.002187,0.000587,-36.68,0.0,-38.869999,1b
2019-07-15_173352:240,-0.451477,-0.014740000000000001,-0.20080599999999998,-0.027437,0.003093,0.001045,-36.68,0.0,-38.869999,1b
2019-07-15_173352:260,-0.45553599999999994,-0.019806,-0.201324,-0.028383,0.008159,0.000984,-37.68,-1.06,-38.060001,1b
2019-07-15_173352:280,-0.465179,-0.023895,-0.200317,-0.029695999999999997,0.009746,0.00132,-37.68,-1.06,-38.060001,1b
2019-07-15_173352:300,-0.476379,-0.027435,-0.20080599999999998,-0.030427999999999997,0.008952,0.00309,-36.369999,-2.87,-38.560001,1b
2019-07-15_173352:320,-0.48349,-0.03302,-0.194702,-0.03055,0.007091,0.005745,-36.369999,-2.87,-38.560001,1b
2019-07-15_173352:340,-0.48300200000000004,-0.034546,-0.201843,-0.029116000000000003,0.006755,0.007026,-36.369999,-2.87,-38.560001,1b
2019-07-15_173352:360,-0.48553500000000005,-0.025908999999999998,-0.212006,-0.026461000000000002,0.006693999999999999,0.0060799999999999995,-37.5,-3.25,-37.369999,1b
2019-07-15_173352:380,-0.512482,-0.020325,-0.21554600000000002,-0.023867,0.006175,0.005958,-37.5,-3.25,-37.369999,1b
2019-07-15_173352:400,-0.6512760000000001,-0.011687999999999999,-0.238434,-0.020815,0.001537,0.010536,-37.75,-4.5,-36.560001,1b
2019-07-15_173352:420,-0.501282,-0.006072999999999999,-0.24453699999999998,-0.022616,0.0008039999999999999,0.015968,-37.75,-4.5,-36.560001,1b
2019-07-15_173352:440,-0.55011,0.0,-0.267426,-0.023469999999999998,0.001018,0.017646000000000002,-37.75,-4.5,-36.560001,1b
2019-07-15_173352:460,-0.5185850000000001,0.0030210000000000002,-0.258759,-0.024996,0.0010789999999999999,0.012733,-36.369999,-4.06,-36.68,1b
2019-07-15_173352:480,-0.45654300000000003,0.015228,-0.25317399999999995,-0.025637,0.0029100000000000003,0.008064,-36.369999,-4.06,-36.68,1b
2019-07-15_173352:500,-0.416382,0.017792,-0.230804,-0.024599,0.010081999999999999,0.007026,-37.75,-4.06,-37.5,1b
2019-07-15_173352:520,-0.40823400000000004,0.020325,-0.23284899999999997,-0.023316999999999997,0.012279,0.004219,-37.75,-4.06,-37.5,1b
2019-07-15_173352:540,-0.36554000000000003,0.024902,-0.24096700000000001,-0.023316999999999997,0.007488,0.004493,-37.75,-4.06,-37.5,1b
2019-07-15_173352:560,-0.37265,0.023375999999999997,-0.24706999999999998,-0.024111,-0.00179,0.008461,-37.5,-5.18,-37.5,1b
2019-07-15_173352:580,-0.384857,0.020325,-0.252686,-0.025118,-0.009206,0.013649000000000001,-37.5,-5.18,-37.5,1b
2019-07-15_173352:600,-0.406219,0.009644,-0.254211,-0.026307999999999998,-0.014241,0.019294,-37.5,-5.18,-35.5,1b
2019-07-15_173352:620,-0.415375,0.001007,-0.263336,-0.026919,-0.015462,0.022499,-37.5,-5.18,-35.5,1b
2019-07-15_173352:640,-0.426544,-0.010162000000000001,-0.268433,-0.027163,-0.014972999999999998,0.022621000000000002,-37.5,-5.18,-35.5,1b
2019-07-15_173352:660,-0.43927,-0.022369,-0.263336,-0.0264,-0.011922,0.021553,-36.75,-5.56,-35.5,1b
2019-07-15_173352:680,-0.43011499999999997,-0.028442000000000002,-0.246063,-0.025332,-0.006428,0.018715,-36.75,-5.56,-35.5,1b
2019-07-15_173352:700,-0.41586300000000004,-0.031006,-0.228271,-0.023379,-0.001393,0.016791999999999998,-36.75,-5.56,-36.18,1b
2019-07-15_173352:720,-0.402649,-0.031006,-0.21810900000000003,-0.020723,0.0019030000000000002,0.015174000000000002,-36.75,-5.56,-36.18,1b
2019-07-15_173352:740,-0.39859,-0.024902,-0.208954,-0.018801,0.003703,0.013252000000000002,-36.75,-5.56,-36.18,1b
2019-07-15_173352:760,-0.401123,-0.021851,-0.20538299999999998,-0.017306000000000002,0.004619,0.013252000000000002,-35.560001,-5.56,-35.5,1b
2019-07-15_173352:780,-0.404175,-0.020844,-0.200317,-0.015627000000000002,0.005779,0.012672,-35.560001,-5.56,-35.5,1b
2019-07-15_173352:800,-0.39859,-0.01828,-0.201324,-0.014834,0.005779,0.01081,-36.369999,-6.37,-35.869999,1b
2019-07-15_173352:820,-0.398071,-0.013213999999999998,-0.196747,-0.014100999999999999,0.0042829999999999995,0.010017,-36.369999,-6.37,-35.869999,1b
2019-07-15_173352:840,-0.402649,-0.014221000000000001,-0.19574,-0.013643,0.0023,0.00962,-36.369999,-6.37,-35.869999,1b
2019-07-15_173352:860,-0.409271,-0.012695,-0.192169,-0.013430000000000001,0.0009570000000000001,0.008461,-36.75,-6.06,-35.869999,1b
2019-07-15_173352:880,-0.42453,-0.013702,-0.191162,-0.012514,0.002177,0.007148000000000001,-36.75,-6.06,-35.869999,1b
2019-07-15_173352:900,-0.44281000000000004,-0.015228,-0.195221,-0.011262999999999999,0.004161,0.004432,-36.75,-6.06,-34.25,1b
2019-07-15_173352:920,-0.445862,-0.016753999999999998,-0.193695,-0.009585,0.005351,0.001777,-36.75,-6.06,-34.25,1b
2019-07-15_173352:940,-0.458588,-0.017792,-0.194214,-0.007448000000000001,0.004771,6.8e-05,-36.75,-6.06,-34.25,1b
2019-07-15_173352:960,-0.461121,-0.013702,-0.19622799999999999,-0.005282,0.002757,-0.0013050000000000002,-36.0,-6.75,-35.0,1b
2019-07-15_173352:980,-0.47689799999999993,-0.009644,-0.193695,-0.00339,0.000468,-0.002434,-36.0,-6.75,-35.0,1b
2019-07-15_173353:000,-0.477386,-0.0055850000000000006,-0.201843,-0.000918,-0.001576,0.0008619999999999999,-37.5,-6.75,-33.869999,1b
2019-07-15_173353:020,-0.472321,-0.011169,-0.21911599999999998,0.001982,-0.002705,0.00196,-37.5,-6.75,-33.869999,1b
2019-07-15_173353:040,-0.472321,-0.011169,-0.21911599999999998,0.001982,-0.002705,0.00196,-37.5,-7.06,-34.25,1b
2019-07-15_173353:060,-0.508423,-0.013702,-0.224701,0.004118,-0.001515,0.0018989999999999999,-37.5,-7.06,-34.25,1b
2019-07-15_173353:080,-0.576019,-0.020844,-0.227753,0.006193,1.1e-05,0.003181,-37.5,-7.06,-34.25,1b
2019-07-15_173353:100,-0.500793,-0.025908999999999998,-0.24453699999999998,0.007626999999999999,-0.00237,0.0026320000000000002,-37.060001,-6.75,-34.25,1b
2019-07-15_173353:120,-0.567383,-0.033539,-0.208954,0.00897,0.0016589999999999999,-0.0009689999999999999,-37.060001,-6.75,-34.25,1b
2019-07-15_173353:140,-0.5109560000000001,-0.03302,-0.22927899999999998,0.008573,0.001994,0.000404,-37.060001,-6.75,-34.25,1b
2019-07-15_173353:160,-0.463654,-0.036591000000000005,-0.23233,0.006956,0.002239,0.003425,-35.560001,-6.37,-33.060001,1b
2019-07-15_173353:180,-0.416382,-0.041687,-0.22421300000000002,0.002073,0.003307,0.007301,-35.560001,-6.37,-33.060001,1b
2019-07-15_173353:200,-0.380798,-0.07928500000000001,-0.231323,-0.008454999999999999,0.0016589999999999999,0.018226,-36.75,-6.06,-34.25,1b
2019-07-15_173353:220,-0.382812,-0.085388,-0.23690799999999998,-0.010653,-0.00044699999999999997,0.016243,-36.75,-6.06,-34.25,1b
2019-07-15_173353:240,-0.393494,-0.098633,-0.250641,-0.017031,-0.0070079999999999995,0.007301,-37.5,-5.25,-35.0,1b
2019-07-15_173353:260,-0.389954,-0.090485,-0.266388,-0.016878,-0.01299,-0.002526,-36.75,-5.75,-33.869999,1b
2019-07-15_173353:280,-0.38385,-0.08590700000000001,-0.265381,-0.016146,-0.015431,-0.006096,-36.75,-5.75,-33.869999,1b
2019-07-15_173353:300,-0.38385,-0.08590700000000001,-0.265381,-0.016146,-0.015431,-0.006096,-36.75,-5.75,-33.869999,1b
2019-07-15_173353:320,-0.40063499999999996,-0.071167,-0.276581,-0.01404,-0.021016,-0.011467,-36.75,-5.75,-33.869999,1b
2019-07-15_173353:340,-0.40063499999999996,-0.071167,-0.276581,-0.01404,-0.021016,-0.011467,-36.75,-5.75,-33.869999,1b
2019-07-15_173353:360,-0.416901,-0.057434000000000006,-0.276062,-0.012057,-0.023885,-0.013787,-36.0,-5.37,-33.869999,1b
2019-07-15_173353:380,-0.420959,-0.042694,-0.2659,-0.010103000000000001,-0.021291,-0.013207,-36.0,-5.37,-33.869999,1b
2019-07-15_173353:400,-0.416382,-0.028961,-0.261322,-0.008394,-0.01656,-0.011986,-34.869999,-6.5,-34.25,1b
2019-07-15_173353:420,-0.39502,-0.014221000000000001,-0.24758899999999998,-0.007662,-0.01241,-0.00927,-34.869999,-6.5,-34.25,1b
2019-07-15_173353:440,-0.376221,-0.007111,-0.240479,-0.007876000000000001,-0.009999,-0.006615,-34.869999,-6.5,-34.25,1b
2019-07-15_173353:460,-0.36349499999999996,-0.001007,-0.22927899999999998,-0.009340000000000001,-0.010609,-0.004174000000000001,-33.68,-7.18,-35.5,1b
2019-07-15_173353:480,-0.36654699999999996,0.0025329999999999997,-0.227264,-0.011629,-0.012929,-0.0009689999999999999,-33.68,-7.18,-35.5,1b
2019-07-15_173353:500,-0.378754,-0.000488,-0.22979699999999997,-0.014162000000000001,-0.015584,0.002052,-33.25,-8.37,-34.369999,1b
2019-07-15_173353:520,-0.389435,-0.0035399999999999997,-0.230804,-0.017214,-0.01772,0.004219,-33.25,-8.37,-34.369999,1b
2019-07-15_173353:540,-0.397064,-0.011687999999999999,-0.233337,-0.01935,-0.017903,0.007301,-33.25,-8.37,-34.369999,1b
2019-07-15_173353:560,-0.401642,-0.014740000000000001,-0.235382,-0.021394999999999997,-0.016713,0.009529000000000001,-32.5,-8.0,-36.0,1b
2019-07-15_173353:580,-0.416382,-0.018799,-0.245056,-0.02228,-0.014302,0.011848000000000001,-32.5,-8.0,-36.0,1b
2019-07-15_173353:600,-0.41232299999999994,-0.022858,-0.24758899999999998,-0.023409,-0.011006,0.01432,-31.75,-8.68,-35.18,1b
2019-07-15_173353:620,-0.425018,-0.027954000000000003,-0.256226,-0.024447,-0.008199,0.016456000000000002,-31.75,-8.68,-35.18,1b
2019-07-15_173353:640,-0.447388,-0.031494,-0.264374,-0.025179,-0.005574,0.018775999999999998,-31.75,-8.68,-35.18,1b
2019-07-15_173353:660,-0.461639,-0.036591000000000005,-0.280121,-0.025789,-0.002888,0.020576,-31.0,-8.68,-35.560001,1b
2019-07-15_173353:680,-0.46875,-0.038116000000000004,-0.284698,-0.027101999999999998,-0.001302,0.022865,-31.0,-8.68,-35.560001,1b
2019-07-15_173353:700,-0.462128,-0.043213,-0.28927600000000003,-0.027987,0.0008039999999999999,0.025276,-30.870001000000002,-8.37,-35.18,1b
2019-07-15_173353:720,-0.45806899999999995,-0.042175,-0.29180900000000004,-0.028567000000000002,0.002971,0.02375,-30.870001000000002,-8.37,-35.18,1b
2019-07-15_173353:740,-0.45654300000000003,-0.038635,-0.300964,-0.029085000000000003,0.005351,0.021095,-30.870001000000002,-8.37,-35.18,1b
2019-07-15_173353:760,-0.461639,-0.036591000000000005,-0.302002,-0.028567000000000002,0.008556,0.021217,-30.18,-9.06,-34.75,1b
2019-07-15_173353:780,-0.5323180000000001,-0.035065,-0.300964,-0.028627999999999997,0.011791,0.021949,-30.18,-9.06,-34.75,1b
2019-07-15_173353:800,-0.5404359999999999,-0.023895,-0.333496,-0.029908999999999998,0.009349,0.026251999999999998,-31.68,-8.68,-34.75,1b
2019-07-15_173353:820,-0.5348510000000001,-0.033539,-0.264862,-0.031495999999999996,0.014446,0.034033999999999995,-31.68,-8.68,-34.75,1b
2019-07-15_173353:840,-0.519592,-0.029968,-0.290802,-0.032229,0.017925,0.034553,-31.68,-8.68,-34.75,1b
2019-07-15_173353:860,-0.418915,-0.024902,-0.262848,-0.033693,0.016765000000000002,0.03257,-31.25,-9.87,-34.0,1b
2019-07-15_173353:880,-0.391479,-0.019318000000000002,-0.256744,-0.033205,0.01646,0.029852999999999998,-31.25,-9.87,-34.0,1b
2019-07-15_173353:900,-0.348267,-0.009644,-0.23995999999999998,-0.032351,0.017711,0.023292,-32.369999,-9.5,-33.18,1b
2019-07-15_173353:920,-0.34674099999999997,0.0030210000000000002,-0.24963400000000002,-0.031374,0.01234,0.014990999999999999,-32.369999,-9.5,-33.18,1b
2019-07-15_173353:940,-0.331482,0.019806,-0.272003,-0.030642000000000003,0.002391,0.012275,-32.369999,-9.5,-33.18,1b
2019-07-15_173353:960,-0.35180700000000004,0.020325,-0.283173,-0.030213999999999998,-0.007497,0.010353,-31.68,-9.06,-32.75,1b
2019-07-15_173353:980,-0.36911,0.027954000000000003,-0.304016,-0.030702999999999998,-0.015522999999999999,0.009864,-31.68,-9.06,-32.75,1b
2019-07-15_173354:000,-0.379791,0.028442000000000002,-0.309601,-0.032076,-0.021107,0.017768,-32.75,-9.06,-32.75,1b
2019-07-15_173354:020,-0.389435,0.021332,-0.319275,-0.033877,-0.023213,0.028205,-32.75,-9.06,-32.75,1b
2019-07-15_173354:040,-0.40570100000000003,0.011169,-0.320801,-0.036348,-0.021077000000000002,0.032722,-32.75,-9.06,-32.75,1b
2019-07-15_173354:060,-0.418915,0.000488,-0.308594,-0.038119,-0.015065,0.034828,-32.060001,-10.18,-32.369999,1b
2019-07-15_173354:080,-0.417389,-0.008118,-0.296387,-0.039461,-0.00594,0.036964,-32.060001,-10.18,-32.369999,1b
2019-07-15_173354:100,-0.393494,-0.01828,-0.28064,-0.04117,0.001353,0.034888999999999996,-30.870001000000002,-9.87,-32.75,1b
2019-07-15_173354:120,-0.374176,-0.020844,-0.267426,-0.042055,0.004771,0.030432999999999998,-30.870001000000002,-9.87,-32.75,1b
2019-07-15_173354:140,-0.369598,-0.026917,-0.253693,-0.04236,0.004619,0.026251999999999998,-30.870001000000002,-9.87,-32.75,1b
2019-07-15_173354:160,-0.376221,-0.028961,-0.24758899999999998,-0.040987,0.004039,0.021949,-31.68,-10.56,-31.18,1b
2019-07-15_173354:180,-0.370636,-0.027435,-0.251648,-0.037995999999999995,0.002635,0.017189,-31.68,-10.56,-31.18,1b
2019-07-15_173354:200,-0.370636,-0.021332,-0.257751,-0.034029000000000004,-0.000233,0.013252000000000002,-32.060001,-10.56,-31.18,1b
2019-07-15_173354:220,-0.375214,-0.017792,-0.263855,-0.02997,-0.003682,0.011604000000000001,-32.060001,-10.56,-31.18,1b
2019-07-15_173354:240,-0.391968,-0.012695,-0.272003,-0.025727999999999997,-0.005971,0.010414,-32.060001,-10.56,-31.18,1b
2019-07-15_173354:260,-0.402161,-0.009125,-0.277069,-0.021853,-0.007069,0.009468,-31.18,-10.25,-30.0,1b
2019-07-15_173354:280,-0.40774499999999997,-0.007111,-0.276581,-0.018221,-0.005635,0.008888,-31.18,-10.25,-30.0,1b
2019-07-15_173354:300,-0.417389,-0.006592,-0.275055,-0.015780000000000002,-0.002827,0.00782,-30.18,-11.06,-30.75,1b
2019-07-15_173354:320,-0.415375,-0.0055850000000000006,-0.267426,-0.013918,0.000346,0.007087,-30.18,-11.06,-30.75,1b
2019-07-15_173354:340,-0.402649,-0.006072999999999999,-0.263855,-0.012514,0.0031850000000000003,0.0051649999999999995,-30.18,-11.06,-30.75,1b
2019-07-15_173354:360,-0.398071,-0.004059,-0.270477,-0.011262999999999999,0.004314,0.002754,-31.68,-11.75,-30.5,1b
2019-07-15_173354:380,-0.412811,-0.006072999999999999,-0.276581,-0.010256,0.002177,0.001838,-31.68,-11.75,-30.5,1b
2019-07-15_173354:400,-0.445374,-0.010651,-0.288269,-0.009340000000000001,0.001292,0.0022960000000000003,-31.25,-11.75,-30.5,1b
2019-07-15_173354:420,-0.45401,-0.012177,-0.29232800000000003,-0.008333,0.00352,0.001167,-31.25,-11.75,-30.5,1b
2019-07-15_173354:440,-0.46926899999999994,-0.011687999999999999,-0.309601,-0.007479,0.008617,-0.000786,-31.25,-11.75,-30.5,1b
2019-07-15_173354:460,-0.476379,-0.009644,-0.312653,-0.006319,0.015238999999999999,-0.0028309999999999997,-30.870001000000002,-13.0,-30.0,1b
2019-07-15_173354:480,-0.576019,-0.013213999999999998,-0.319794,-0.005922,0.020763,-0.005089,-30.870001000000002,-13.0,-30.0,1b
2019-07-15_173354:500,-0.519592,-0.002014,-0.355896,-0.005465,0.015636,-0.006615,-30.5,-11.75,-30.75,1b
2019-07-15_173354:520,-0.55365,-0.009644,-0.315216,-0.004946,0.016368,-0.008477,-30.5,-11.75,-30.75,1b
2019-07-15_173354:540,-0.484009,-0.011169,-0.311127,-0.004,0.01704,-0.007897,-30.5,-11.75,-30.75,1b
2019-07-15_173354:560,-0.39859,-0.027435,-0.295898,-0.0018030000000000001,0.016916999999999998,-0.002251,-30.870001000000002,-12.56,-29.559998999999998,1b
2019-07-15_173354:580,-0.36554000000000003,-0.028442000000000002,-0.279633,-0.000521,0.019115,0.001716,-30.870001000000002,-12.56,-29.559998999999998,1b
2019-07-15_173354:600,-0.342163,-0.036072,-0.264374,-0.000124,0.020243999999999998,0.010078,-30.559998999999998,-13.0,-29.18,1b
2019-07-15_173354:620,-0.312164,-0.047791,-0.264374,-6.3e-05,0.016856,0.015846000000000002,-30.559998999999998,-13.0,-29.18,1b
2019-07-15_173354:640,-0.335022,-0.048798,-0.271484,-0.000643,0.009807,0.010139,-30.559998999999998,-13.0,-29.18,1b
2019-07-15_173354:660,-0.35131799999999996,-0.043701,-0.28418000000000004,-0.0014060000000000001,0.001994,0.004615,-31.25,-12.18,-28.059998999999998,1b
2019-07-15_173354:680,-0.370636,-0.041687,-0.286224,-0.001375,-0.003285,0.004097,-31.25,-12.18,-28.059998999999998,1b
2019-07-15_173354:700,-0.37674,-0.034546,-0.28875700000000004,-0.0014060000000000001,-0.005635,0.001228,-31.68,-12.56,-28.059998999999998,1b
2019-07-15_173354:720,-0.378265,-0.019318000000000002,-0.31369,-0.002657,-0.008473,-0.000512,-31.68,-12.56,-28.059998999999998,1b
2019-07-15_173354:740,-0.391968,-0.010651,-0.32486,-0.004091,-0.012135,-5.4000000000000005e-05,-31.68,-12.56,-28.059998999999998,1b
2019-07-15_173354:760,-0.416382,-0.005065999999999999,-0.32486,-0.006684999999999999,-0.014455,0.000343,-30.870001000000002,-11.5,-26.870001000000002,1b
2019-07-15_173354:780,-0.432159,0.000488,-0.314697,-0.009646,-0.010609,0.001777,-30.870001000000002,-11.5,-26.870001000000002,1b
2019-07-15_173354:800,-0.41842700000000005,0.000488,-0.296906,-0.012758,-0.002644,0.004036,-30.18,-11.75,-28.0,1b
2019-07-15_173354:820,-0.40063499999999996,0.0025329999999999997,-0.28064,-0.016085,0.0052899999999999996,0.006141,-30.18,-11.75,-28.0,1b
2019-07-15_173354:840,-0.370636,0.001495,-0.258759,-0.019411,0.010265,0.009468,-30.18,-11.75,-28.0,1b
2019-07-15_173354:860,-0.358429,0.0,-0.245544,-0.022677000000000003,0.011545999999999999,0.012397,-30.18,-13.0,-28.75,1b
2019-07-15_173354:880,-0.360962,-0.0030210000000000002,-0.23233,-0.025911,0.009134999999999999,0.013923,-30.18,-13.0,-28.75,1b
2019-07-15_173354:900,-0.368073,-0.0055850000000000006,-0.231812,-0.029024,0.004771,0.015907,-29.5,-13.0,-27.25,1b
2019-07-15_173354:920,-0.378754,-0.011169,-0.23486300000000002,-0.031344,0.000865,0.01844,-29.5,-13.0,-27.25,1b
2019-07-15_173354:940,-0.38739,-0.012177,-0.242004,-0.033938,-0.002431,0.019691,-29.5,-13.0,-27.25,1b
2019-07-15_173354:960,-0.389435,-0.017792,-0.251648,-0.035738,-0.00475,0.020576,-29.870001000000002,-13.68,-27.559998999999998,1b
2019-07-15_173354:980,-0.396057,-0.022858,-0.259277,-0.037142,-0.005971,0.021888,-29.870001000000002,-13.68,-27.559998999999998,1b
2019-07-15_173355:000,-0.396057,-0.03302,-0.263336,-0.037874,-0.005177,0.023292,-30.18,-13.68,-27.25,1b
2019-07-15_173355:020,-0.417389,-0.035583,-0.263336,-0.037874,-0.0033159999999999995,0.024025,-30.18,-13.68,-27.25,1b
2019-07-15_173355:040,-0.427063,-0.042694,-0.259277,-0.037081,-0.000386,0.023292,-30.18,-13.68,-27.25,1b
2019-07-15_173355:060,-0.432648,-0.040161,-0.257233,-0.036348,0.002361,0.021491999999999997,-30.18,-13.68,-27.559998999999998,1b
2019-07-15_173355:080,-0.432648,-0.040161,-0.254211,-0.03586,0.0042829999999999995,0.020759,-30.18,-13.68,-27.559998999999998,1b
2019-07-15_173355:100,-0.44281000000000004,-0.038635,-0.25521900000000003,-0.03586,0.003978,0.020759,-29.870001000000002,-13.87,-26.18,1b
2019-07-15_173355:120,-0.451477,-0.038635,-0.262329,-0.036287,0.003246,0.021827000000000003,-29.870001000000002,-13.87,-26.18,1b
2019-07-15_173355:140,-0.45553599999999994,-0.038116000000000004,-0.268433,-0.036654,0.003307,0.022102,-29.870001000000002,-13.87,-26.18,1b
2019-07-15_173355:160,-0.47332799999999997,-0.037598,-0.277588,-0.036927999999999996,0.0036420000000000003,0.021156,-30.870001000000002,-13.87,-25.370001000000002,1b
2019-07-15_173355:180,-0.552643,-0.034546,-0.29486100000000004,-0.036806,0.001842,0.020362,-30.870001000000002,-13.87,-25.370001000000002,1b
2019-07-15_173355:200,-0.516022,-0.034058,-0.29232800000000003,-0.037813,-0.005574,0.021217,-29.870001000000002,-14.75,-24.559998999999998,1b
2019-07-15_173355:220,-0.552124,-0.028961,-0.316742,-0.03879,-0.002583,0.023018,-29.870001000000002,-14.75,-24.559998999999998,1b
2019-07-15_173355:240,-0.491638,-0.019806,-0.312653,-0.039004000000000004,0.003703,0.021766,-29.870001000000002,-14.75,-24.559998999999998,1b
2019-07-15_173355:260,-0.43927,-0.010651,-0.309601,-0.039004000000000004,0.009531999999999999,0.01902,-30.18,-15.37,-24.559998999999998,1b
2019-07-15_173355:280,-0.36554000000000003,0.001007,-0.302002,-0.036683999999999994,0.012126000000000001,0.015236000000000001,-30.18,-15.37,-24.559998999999998,1b
2019-07-15_173355:300,-0.323853,0.013702,-0.28418000000000004,-0.034212,0.01353,0.011054999999999999,-29.370001000000002,-15.37,-23.0,1b
2019-07-15_173355:320,-0.309113,0.022369,-0.280121,-0.031618,0.013713,0.011726,-29.370001000000002,-15.37,-23.0,1b
2019-07-15_173355:340,-0.32132,0.023895,-0.297913,-0.029908999999999998,0.008006000000000001,0.015663,-29.370001000000002,-15.37,-23.0,1b
2019-07-15_173355:360,-0.3396,0.023375999999999997,-0.309113,-0.029238,-0.0009050000000000001,0.016121,-29.75,-15.37,-23.370001000000002,1b
2019-07-15_173355:380,-0.355377,0.025421,-0.316223,-0.029513,-0.007893,0.016914,-29.75,-15.37,-23.370001000000002,1b
2019-07-15_173355:400,-0.384857,0.018799,-0.326385,-0.030031,-0.011403,0.021766,-30.059998999999998,-15.75,-21.75,1b
2019-07-15_173355:420,-0.390442,0.013213999999999998,-0.330475,-0.031099,-0.013112,0.024391,-30.059998999999998,-15.75,-21.75,1b
2019-07-15_173355:440,-0.397064,0.008118,-0.338593,-0.032563999999999996,-0.013386000000000002,0.025062,-30.059998999999998,-15.75,-21.75,1b
2019-07-15_173355:460,-0.393494,0.001495,-0.333496,-0.033205,-0.013538999999999999,0.026344,-29.75,-16.18,-22.559998999999998,1b
2019-07-15_173355:480,-0.396057,-0.0055850000000000006,-0.317749,-0.034151,-0.009937999999999999,0.026680000000000002,-29.75,-16.18,-22.559998999999998,1b
2019-07-15_173355:500,-0.389954,-0.010651,-0.304535,-0.034487000000000004,-0.003773,0.026191000000000002,-29.75,-15.06,-21.75,1b
2019-07-15_173355:520,-0.371643,-0.012695,-0.287231,-0.034395,0.001964,0.025154,-29.75,-15.06,-21.75,1b
2019-07-15_173355:540,-0.349792,-0.015228,-0.272003,-0.033755,0.004497,0.024482,-29.75,-15.06,-21.75,1b
2019-07-15_173355:560,-0.34674099999999997,-0.017792,-0.264862,-0.031832,0.003307,0.023536,-29.75,-16.870001000000002,-21.370001000000002,1b
2019-07-15_173355:580,-0.353333,-0.019806,-0.263336,-0.029085000000000003,-0.00124,0.023018,-29.75,-16.870001000000002,-21.370001000000002,1b
2019-07-15_173355:600,-0.370636,-0.020325,-0.266907,-0.0264,-0.0033159999999999995,0.021766,-30.059998999999998,-17.25,-21.059998999999998,1b
2019-07-15_173355:620,-0.389954,-0.016266,-0.274017,-0.024447,-0.0035600000000000002,0.018501,-30.059998999999998,-17.25,-21.059998999999998,1b
2019-07-15_173355:640,-0.41384899999999997,-0.010651,-0.277069,-0.022249,-0.0009050000000000001,0.016243,-30.059998999999998,-17.25,-21.059998999999998,1b
2019-07-15_173355:660,-0.417908,-0.007111,-0.278107,-0.02054,0.0042829999999999995,0.01493,-29.68,-17.25,-21.18,1b
2019-07-15_173355:680,-0.416901,-0.001495,-0.275055,-0.019076,0.009685,0.013984,-29.68,-17.25,-21.18,1b
2019-07-15_173355:700,-0.411804,0.006072999999999999,-0.272491,-0.018221,0.014659,0.013527,-30.68,-16.75,-19.870001000000002,1b
2019-07-15_173355:720,-0.40316799999999997,0.010162000000000001,-0.266907,-0.01755,0.018626,0.01258,-30.68,-16.75,-19.870001000000002,1b
2019-07-15_173355:740,-0.402649,0.009644,-0.266388,-0.017488999999999998,0.019572,0.011054999999999999,-30.68,-16.75,-19.870001000000002,1b
2019-07-15_173355:760,-0.410797,0.007111,-0.268433,-0.017428,0.017772,0.009864,-29.559998999999998,-17.18,-19.559998999999998,1b
2019-07-15_173355:780,-0.434692,0.0,-0.267426,-0.01697,0.015116999999999998,0.008674,-29.559998999999998,-17.18,-19.559998999999998,1b
2019-07-15_173355:800,-0.445374,-0.004059,-0.267426,-0.016421,0.013316,0.0084,-31.370001000000002,-16.75,-18.75,1b
2019-07-15_173355:820,-0.444855,-0.011169,-0.268951,-0.015566,0.012584,0.008461,-31.370001000000002,-16.75,-18.75,1b
2019-07-15_173355:840,-0.441284,-0.019806,-0.274017,-0.014376,0.012859,0.007667,-31.370001000000002,-16.75,-18.75,1b
2019-07-15_173355:860,-0.434174,-0.027435,-0.28418000000000004,-0.013430000000000001,0.012859,0.00782,-30.559998999999998,-18.0,-18.370001000000002,1b
2019-07-15_173355:880,-0.447388,-0.035583,-0.29232800000000003,-0.011995,0.012584,0.008888,-30.559998999999998,-18.0,-18.370001000000002,1b
2019-07-15_173355:900,-0.570435,-0.044219999999999995,-0.314697,-0.010378,0.009013,0.007484,-30.870001000000002,-16.75,-17.25,1b
2019-07-15_173355:920,-0.492126,-0.056915,-0.319275,-0.007998,0.007548999999999999,0.00196,-30.870001000000002,-16.75,-17.25,1b
2019-07-15_173355:940,-0.526215,-0.044739,-0.309601,-0.005221,0.013652000000000001,-0.005944,-30.870001000000002,-16.75,-17.25,1b
2019-07-15_173355:960,-0.501282,-0.045745999999999995,-0.290283,-0.002718,0.017314,-0.001854,-31.0,-18.0,-16.370001000000002,1b
2019-07-15_173355:980,-0.374176,-0.053863999999999995,-0.256226,-0.0009789999999999998,0.020213,-0.00045099999999999996,-31.0,-18.0,-16.370001000000002,1b
2019-07-15_173356:000,-0.34368899999999997,-0.044219999999999995,-0.260284,-0.001864,0.017253,0.001503,-30.5,-18.0,-17.0,1b
2019-07-15_173356:020,-0.32995599999999997,-0.055389,-0.245544,-0.002535,0.011089,0.009681,-30.5,-18.0,-17.0,1b
2019-07-15_173356:040,-0.335022,-0.065582,-0.253693,-0.004336,0.001994,0.008278,-30.5,-18.0,-17.0,1b
2019-07-15_173356:060,-0.361969,-0.068634,-0.25827,-0.0066549999999999995,-0.004964,0.003181,-30.18,-18.0,-16.5,1b
2019-07-15_173356:080,-0.384857,-0.07016,-0.277588,-0.007601,-0.008870000000000001,0.001564,-30.18,-18.0,-16.5,1b
2019-07-15_173356:100,-0.386902,-0.066071,-0.29232800000000003,-0.009249,-0.010152,-0.0011220000000000002,-30.5,-17.18,-15.25,1b
2019-07-15_173356:120,-0.38739,-0.05996699999999999,-0.30654899999999996,-0.009981,-0.011739,-0.00457,-30.5,-17.18,-15.25,1b
2019-07-15_173356:140,-0.399597,-0.049316000000000006,-0.32486,-0.009798000000000001,-0.014180000000000002,-0.006615,-30.5,-17.18,-15.25,1b
2019-07-15_173356:160,-0.412811,-0.042694,-0.324371,-0.009524,-0.014728999999999999,-0.007012000000000001,-30.18,-18.0,-16.059998999999998,1b
2019-07-15_173356:180,-0.423492,-0.032013,-0.311127,-0.009524,-0.010792,-0.005089,-30.18,-18.0,-16.059998999999998,1b
2019-07-15_173356:200,-0.41333000000000003,-0.029968,-0.296906,-0.009463,-0.004109000000000001,-0.0019760000000000003,-29.059998999999998,-19.059998999999998,-16.870001000000002,1b
2019-07-15_173356:220,-0.382324,-0.024384,-0.277588,-0.009859,0.001537,-0.000634,-29.059998999999998,-19.059998999999998,-16.870001000000002,1b
2019-07-15_173356:240,-0.36044299999999996,-0.022369,-0.266388,-0.010714,0.003825,0.000923,-29.059998999999998,-19.059998999999998,-16.870001000000002,1b
2019-07-15_173356:260,-0.34875500000000004,-0.017792,-0.24963400000000002,-0.011904000000000001,0.002971,0.002784,-29.059998999999998,-18.68,-16.370001000000002,1b
2019-07-15_173356:280,-0.35180700000000004,-0.017273,-0.245544,-0.013704,-0.000264,0.00489,-29.059998999999998,-18.68,-16.370001000000002,1b
2019-07-15_173356:300,-0.37011700000000003,-0.01828,-0.248596,-0.016085,-0.004292,0.0063549999999999995,-29.059998999999998,-19.75,-15.75,1b
2019-07-15_173356:320,-0.390961,-0.021332,-0.249115,-0.018343,-0.006703,0.0063549999999999995,-29.059998999999998,-19.75,-15.75,1b
2019-07-15_173356:340,-0.415375,-0.025908999999999998,-0.253693,-0.019961000000000003,-0.0062759999999999995,0.006233,-29.059998999999998,-19.75,-15.75,1b
2019-07-15_173356:360,-0.411804,-0.027435,-0.2547,-0.020723,-0.00237,0.007606,-29.059998999999998,-20.059998999999998,-16.5,1b
2019-07-15_173356:380,-0.402649,-0.026917,-0.256226,-0.020998,0.0009570000000000001,0.010078,-29.059998999999998,-20.059998999999998,-16.5,1b
2019-07-15_173356:400,-0.392487,-0.026917,-0.259277,-0.021059,0.0023,0.012123,-29.059998999999998,-20.059998999999998,-15.0,1b
2019-07-15_173356:420,-0.390442,-0.021851,-0.258759,-0.021792,0.0023,0.015052000000000001,-29.059998999999998,-20.059998999999998,-15.0,1b
2019-07-15_173356:440,-0.40976,-0.023375999999999997,-0.264862,-0.023592,0.001842,0.01902,-29.059998999999998,-20.059998999999998,-15.0,1b
2019-07-15_173356:460,-0.418915,-0.028442000000000002,-0.2659,-0.026033999999999998,0.002116,0.022285,-29.75,-20.059998999999998,-16.5,1b
2019-07-15_173356:480,-0.425018,-0.031494,-0.279114,-0.028322000000000003,0.001842,0.024086,-29.75,-20.059998999999998,-16.5,1b
2019-07-15_173356:500,-0.42248500000000005,-0.039642000000000004,-0.28927600000000003,-0.030427999999999997,0.00172,0.02375,-29.5,-20.059998999999998,-15.37,1b
2019-07-15_173356:520,-0.429596,-0.040649,-0.29284699999999997,-0.032229,0.001353,0.021431,-29.5,-20.059998999999998,-15.37,1b
2019-07-15_173356:540,-0.43927,-0.042175,-0.296906,-0.033693,0.0023,0.020087999999999998,-29.5,-20.059998999999998,-15.37,1b
2019-07-15_173356:560,-0.44638100000000003,-0.042175,-0.302002,-0.034273000000000005,0.004833,0.019813,-29.5,-19.75,-14.18,1b
2019-07-15_173356:580,-0.502808,-0.044219999999999995,-0.305542,-0.033816000000000006,0.006572,0.020301,-29.5,-19.75,-14.18,1b
2019-07-15_173356:600,-0.523163,-0.028442000000000002,-0.350281,-0.033602,0.00016299999999999998,0.023536,-29.75,-20.5,-14.56,1b
2019-07-15_173356:620,-0.49111899999999997,-0.026917,-0.28418000000000004,-0.034731,0.002757,0.028999,-29.75,-20.5,-14.56,1b
2019-07-15_173356:640,-0.470276,-0.024384,-0.303528,-0.034212,0.009685,0.027717000000000002,-29.75,-20.5,-14.56,1b
2019-07-15_173356:660,-0.410278,-0.006592,-0.311127,-0.035067,0.009134999999999999,0.024208,-29.75,-19.370001000000002,-12.68,1b
2019-07-15_173356:680,-0.396545,-0.000488,-0.300964,-0.035341000000000004,0.005779,0.026344,-29.75,-19.370001000000002,-12.68,1b
2019-07-15_173356:700,-0.387909,0.005065999999999999,-0.294373,-0.035616,0.003917,0.026527,-31.25,-20.059998999999998,-12.25,1b
2019-07-15_173356:720,-0.381317,0.013702,-0.282654,-0.036257,0.005961999999999999,0.024879,-31.25,-20.059998999999998,-12.25,1b
2019-07-15_173356:740,-0.379272,0.027954000000000003,-0.286224,-0.036135,0.008617,0.027412,-31.25,-20.059998999999998,-12.25,1b
2019-07-15_173356:760,-0.360962,0.03302,-0.29232800000000003,-0.036867000000000004,0.007091,0.030463999999999998,-31.559998999999998,-18.68,-11.5,1b
2019-07-15_173356:780,-0.345215,0.038635,-0.296906,-0.039126,0.001598,0.029304000000000004,-31.559998999999998,-18.68,-11.5,1b
2019-07-15_173356:800,-0.358429,0.042694,-0.309601,-0.041781,-0.005757,0.030647000000000004,-31.870001000000002,-18.68,-9.5,1b
2019-07-15_173356:820,-0.36706500000000003,0.040649,-0.319275,-0.045229000000000005,-0.012135,0.036232,-31.870001000000002,-18.68,-9.5,1b
2019-07-15_173356:840,-0.370636,0.034058,-0.326904,-0.049349000000000004,-0.017049,0.040413,-31.870001000000002,-18.68,-9.5,1b
2019-07-15_173356:860,-0.382324,0.025421,-0.32995599999999997,-0.05313300000000001,-0.019368,0.042274,-31.559998999999998,-18.25,-10.0,1b
2019-07-15_173356:880,-0.38739,0.021851,-0.323853,-0.05591,-0.017781,0.043647000000000005,-31.559998999999998,-18.25,-10.0,1b
2019-07-15_173356:900,-0.384338,0.017273,-0.311646,-0.05789400000000001,-0.01299,0.043586,-32.25,-17.559998999999998,-9.06,1b
2019-07-15_173356:920,-0.367584,0.015228,-0.300964,-0.059694000000000004,-0.007679999999999999,0.042793,-32.25,-17.559998999999998,-9.06,1b
2019-07-15_173356:940,-0.35638400000000003,0.0025329999999999997,-0.28927600000000003,-0.060578999999999994,-0.005696,0.042457,-32.25,-17.559998999999998,-9.06,1b
2019-07-15_173356:960,-0.35131799999999996,-0.0035399999999999997,-0.282654,-0.059694000000000004,-0.00594,0.040199,-33.369999,-15.68,-9.87,1b
2019-07-15_173356:980,-0.34368899999999997,-0.006592,-0.274017,-0.057497,-0.007497,0.036414999999999996,-33.369999,-15.68,-9.87,1b
2019-07-15_173357:000,-0.349792,-0.006592,-0.275055,-0.053805,-0.009419,0.034614,-33.369999,-16.059998999999998,-9.06,1b
2019-07-15_173357:020,-0.361481,-0.006072999999999999,-0.285706,-0.049288,-0.00948,0.034248,-33.369999,-16.059998999999998,-9.06,1b
2019-07-15_173357:040,-0.360962,-0.0030210000000000002,-0.293335,-0.044893,-0.008748,0.033485,-33.369999,-16.059998999999998,-9.06,1b
2019-07-15_173357:060,-0.361969,0.0,-0.30300900000000003,-0.040316000000000005,-0.007802,0.03318,-34.869999,-14.18,-8.25,1b
2019-07-15_173357:080,-0.364014,0.000488,-0.309601,-0.036683999999999994,-0.006428,0.031166000000000003,-34.869999,-14.18,-8.25,1b
2019-07-15_173357:100,-0.371643,0.001495,-0.314178,-0.033358,-0.004109000000000001,0.028114,-34.560001,-13.56,-7.5,1b
2019-07-15_173357:120,-0.397583,-0.001495,-0.316223,-0.030427999999999997,-0.001118,0.025519999999999998,-34.560001,-13.56,-7.5,1b
2019-07-15_173357:140,-0.416382,-0.0055850000000000006,-0.315216,-0.027589999999999996,0.002696,0.022621000000000002,-34.560001,-13.56,-7.5,1b
2019-07-15_173357:160,-0.429596,-0.009125,-0.304016,-0.024599,0.007365000000000001,0.019508,-35.25,-13.18,-8.25,1b
2019-07-15_173357:180,-0.420441,-0.009644,-0.29995700000000003,-0.02167,0.011545999999999999,0.016426,-35.25,-13.18,-8.25,1b
2019-07-15_173357:200,-0.423492,-0.009644,-0.303528,-0.018404,0.012401,0.013191,-35.68,-12.06,-7.5,1b
2019-07-15_173357:220,-0.421967,-0.010162000000000001,-0.30249000000000004,-0.015352000000000001,0.011394,0.010017,-35.68,-12.06,-7.5,1b
2019-07-15_173357:240,-0.42147799999999996,-0.010162000000000001,-0.307068,-0.012911,0.009929,0.00727,-35.68,-12.06,-7.5,1b
2019-07-15_173357:260,-0.438751,-0.009644,-0.318268,-0.010653,0.009593,0.0060799999999999995,-35.25,-11.37,-7.5,1b
2019-07-15_173357:280,-0.448425,-0.010651,-0.322327,-0.008791,0.010875,0.00489,-35.25,-11.37,-7.5,1b
2019-07-15_173357:300,-0.49517799999999995,-0.014221000000000001,-0.331482,-0.008059,0.011852,0.003303,-35.369999,-11.0,-6.0,1b
2019-07-15_173357:320,-0.504333,-0.012695,-0.355896,-0.007662,0.012065000000000001,0.004219,-35.369999,-11.0,-6.0,1b
2019-07-15_173357:340,-0.49926800000000005,-0.025421,-0.34317,-0.007204,0.015392,0.00489,-35.369999,-11.0,-6.0,1b
2019-07-15_173357:360,-0.500275,-0.026917,-0.3396,-0.007479,0.016765000000000002,0.009071,-35.369999,-11.68,-5.56,1b
2019-07-15_173357:380,-0.421967,-0.036072,-0.31012,-0.008059,0.019022999999999998,0.011451000000000001,-35.369999,-11.68,-5.56,1b
2019-07-15_173357:400,-0.40368699999999996,-0.034058,-0.307587,-0.011323999999999999,0.022472,0.011726,-36.5,-11.68,-5.06,1b
2019-07-15_173357:420,-0.341125,-0.045745999999999995,-0.271484,-0.014712000000000001,0.023753,0.014594999999999999,-36.5,-11.68,-5.06,1b
2019-07-15_173357:440,-0.326904,-0.052338,-0.268433,-0.017702000000000002,0.020975999999999998,0.014259,-36.5,-11.68,-5.06,1b
2019-07-15_173357:460,-0.308594,-0.058441,-0.272491,-0.020662,0.013866,0.009285,-35.75,-10.68,-5.06,1b
2019-07-15_173357:480,-0.31723,-0.058441,-0.285217,-0.022982,0.005748,0.007881,-35.75,-10.68,-5.06,1b
2019-07-15_173357:500,-0.33300799999999997,-0.057434000000000006,-0.302002,-0.023592,-0.000722,0.009346,-36.18,-10.18,-4.75,1b
2019-07-15_173357:520,-0.342163,-0.054901,-0.310638,-0.023989,-0.005543,0.007209,-36.18,-10.18,-4.75,1b
2019-07-15_173357:540,-0.353333,-0.037598,-0.34063699999999997,-0.023714,-0.010213,0.003761,-36.18,-10.18,-4.75,1b
2019-07-15_173357:560,-0.353851,-0.032013,-0.348267,-0.023256,-0.015645,0.003181,-36.18,-9.5,-4.37,1b
2019-07-15_173357:580,-0.407227,-0.017273,-0.355896,-0.023409,-0.018025,0.004432,-36.18,-9.5,-4.37,1b
2019-07-15_173357:600,-0.425018,-0.015228,-0.3508,-0.024447,-0.011861,0.008278,-35.75,-9.87,-3.87,1b
2019-07-15_173357:620,-0.421967,-0.0035399999999999997,-0.323853,-0.026125,-0.000172,0.012794,-35.75,-9.87,-3.87,1b
2019-07-15_173357:640,-0.408752,-0.004059,-0.315216,-0.02878,0.009623999999999999,0.016456000000000002,-35.75,-9.87,-3.87,1b
2019-07-15_173357:660,-0.35739099999999996,-0.0030210000000000002,-0.28875700000000004,-0.031679,0.014322999999999999,0.018318,-36.5,-9.06,-4.25,1b
2019-07-15_173357:680,-0.334534,-0.002014,-0.270966,-0.035128,0.012981,0.019569,-36.5,-9.06,-4.25,1b
2019-07-15_173357:700,-0.322327,-0.0035399999999999997,-0.257233,-0.038332,0.007304000000000001,0.021888,-36.869999,-9.5,-3.5,1b
2019-07-15_173357:720,-0.327423,-0.006072999999999999,-0.25521900000000003,-0.041598,0.000499,0.023292,-36.869999,-9.5,-3.5,1b
2019-07-15_173357:740,-0.34265100000000004,-0.009644,-0.262329,-0.044314,-0.0052380000000000005,0.024147,-36.869999,-9.5,-3.5,1b
2019-07-15_173357:760,-0.349274,-0.014221000000000001,-0.263855,-0.046023,-0.009419,0.025123,-36.869999,-8.06,-4.25,1b
2019-07-15_173357:780,-0.355896,-0.020844,-0.272491,-0.047274000000000004,-0.012013,0.026069,-36.869999,-8.06,-4.25,1b
2019-07-15_173357:800,-0.361969,-0.021332,-0.275543,-0.048098,-0.012593,0.028663,-36.869999,-7.56,-4.25,1b
2019-07-15_173357:820,-0.390442,-0.023375999999999997,-0.290283,-0.048891000000000004,-0.00948,0.03257,-36.869999,-7.56,-4.25,1b
2019-07-15_173357:840,-0.395538,-0.024902,-0.296387,-0.050417000000000003,-0.004811,0.035438,-36.869999,-7.56,-4.25,1b
2019-07-15_173357:860,-0.40316799999999997,-0.028442000000000002,-0.304016,-0.051211,-0.002522,0.036537,-36.869999,-7.18,-3.06,1b
2019-07-15_173357:880,-0.40976,-0.032532,-0.308075,-0.053805,0.00172,0.040077,-36.869999,-7.18,-3.06,1b
2019-07-15_173357:900,-0.433167,-0.041168,-0.316742,-0.054841999999999995,0.003124,0.041053,-37.560001,-5.37,-3.87,1b
2019-07-15_173357:920,-0.43011499999999997,-0.046752999999999996,-0.321808,-0.057253,0.008067,0.042793,-37.560001,-5.37,-3.87,1b
2019-07-15_173357:940,-0.41943400000000003,-0.050842,-0.321808,-0.057924,0.010081999999999999,0.040809,-37.560001,-5.37,-3.87,1b
2019-07-15_173357:960,-0.41333000000000003,-0.05285599999999999,-0.328949,-0.05789400000000001,0.010020000000000001,0.038093,-36.869999,-3.56,-3.87,1b
2019-07-15_173357:980,-0.42401099999999997,-0.054901,-0.331482,-0.056764999999999996,0.008434,0.034706,-36.869999,-3.56,-3.87,1b
2019-07-15_173358:000,-0.529266,-0.047791,-0.374695,-0.055117,-0.00011100000000000001,0.032966,-37.68,-2.06,-2.68,1b
2019-07-15_173358:020,-0.48654200000000003,-0.053375,-0.352844,-0.054049,-0.001637,0.036811,-37.68,-2.06,-2.68,1b
2019-07-15_173358:040,-0.502808,-0.046265,-0.36654699999999996,-0.051485,0.003032,0.038673,-37.68,-2.06,-2.68,1b
2019-07-15_173358:060,-0.462646,-0.039642000000000004,-0.350281,-0.050356,0.005229,0.0373,-36.560001,-0.56,-4.56,1b
2019-07-15_173358:080,-0.41586300000000004,-0.022369,-0.33197,-0.044649,0.012401,0.029396,-36.560001,-0.56,-4.56,1b
2019-07-15_173358:100,-0.36554000000000003,-0.010651,-0.31723,-0.042574,0.013927000000000002,0.026985000000000002,-37.060001,-0.18,-2.18,1b
2019-07-15_173358:120,-0.315216,0.008636,-0.29180900000000004,-0.037386,0.015849000000000002,0.018501,-37.060001,-0.18,-2.18,1b
2019-07-15_173358:140,-0.323334,0.020325,-0.281647,-0.034731,0.016246,0.016121,-37.060001,-0.18,-2.18,1b
2019-07-15_173358:160,-0.340118,0.031494,-0.286224,-0.033205,0.013713,0.016456000000000002,-37.060001,0.87,-1.75,1b
2019-07-15_173358:180,-0.334534,0.036072,-0.288269,-0.032229,0.008098000000000001,0.015785,-37.060001,0.87,-1.75,1b
2019-07-15_173358:200,-0.328949,0.041168,-0.300964,-0.031679,0.0008960000000000001,0.014838999999999998,-36.68,2.37,-1.68,1b
2019-07-15_173358:220,-0.334534,0.042694,-0.310638,-0.031222000000000003,-0.007344,0.016791999999999998,-36.68,2.37,-1.68,1b
2019-07-15_173358:240,-0.35180700000000004,0.037108999999999996,-0.322845,-0.031038,-0.015462,0.020027,-36.68,2.37,-1.68,1b
2019-07-15_173358:260,-0.35739099999999996,0.034546,-0.330963,-0.031495999999999996,-0.018971000000000002,0.021736000000000002,-37.18,2.0,-2.06,1b
2019-07-15_173358:280,-0.390961,0.025421,-0.336548,-0.031954,-0.022938,0.027412,-37.18,2.0,-2.06,1b
2019-07-15_173358:300,-0.408752,0.021851,-0.334534,-0.032076,-0.020619,0.029335000000000003,-36.75,3.06,-2.5,1b
2019-07-15_173358:320,-0.41333000000000003,0.015747,-0.319794,-0.032351,-0.007161,0.031898,-36.75,3.06,-2.5,1b
2019-07-15_173358:340,-0.409271,0.008636,-0.307587,-0.032563999999999996,0.003124,0.031105,-36.75,3.06,-2.5,1b
2019-07-15_173358:360,-0.375214,0.005065999999999999,-0.295898,-0.032473,0.007488,0.030586000000000002,-37.18,4.25,-4.5,1b
2019-07-15_173358:380,-0.352844,0.001495,-0.28418000000000004,-0.032229,0.013316,0.026405,-37.18,4.25,-4.5,1b
2019-07-15_173358:400,-0.346222,-0.002014,-0.274017,-0.031832,0.012981,0.024543000000000002,-37.18,4.25,-4.5,1b
2019-07-15_173358:420,-0.344177,-0.0035399999999999997,-0.269958,-0.029024,0.008617,0.02024,-37.18,4.37,-4.0,1b
2019-07-15_173358:440,-0.337067,-0.0035399999999999997,-0.268951,-0.026307999999999998,0.004436,0.017158,-37.18,4.37,-4.0,1b
2019-07-15_173358:460,-0.342163,-0.0030210000000000002,-0.267914,-0.024843,0.001994,0.015663,-36.5,5.06,-4.0,1b
2019-07-15_173358:480,-0.349274,-0.0030210000000000002,-0.267426,-0.020022,-0.005086,0.01371,-36.5,5.06,-4.0,1b
2019-07-15_173358:500,-0.361481,-0.0030210000000000002,-0.267426,-0.018435,-0.007161,0.012916,-36.5,5.5,-3.56,1b
2019-07-15_173358:520,-0.385864,-0.0035399999999999997,-0.267426,-0.013888,-0.010731000000000001,0.011940000000000001,-36.5,5.5,-3.56,1b
2019-07-15_173358:540,-0.402161,-0.0035399999999999997,-0.27301,-0.011262999999999999,-0.010274,0.011451000000000001,-36.5,5.5,-3.56,1b
2019-07-15_173358:560,-0.426544,-0.000488,-0.285217,-0.010317,-0.009663,0.010994,-35.25,5.87,-3.25,1b
2019-07-15_173358:580,-0.431122,-0.000488,-0.29284699999999997,-0.008851999999999999,-0.005086,0.00782,-35.25,5.87,-3.25,1b
2019-07-15_173358:600,-0.437225,-0.002014,-0.303528,-0.008608,-0.004018,0.006233,-35.25,5.87,-3.25,1b
2019-07-15_173358:620,-0.435699,-0.002014,-0.306061,-0.008912999999999999,-0.0034990000000000004,0.0029059999999999997,-36.5,6.87,-5.68,1b
2019-07-15_173358:640,-0.43823199999999995,-0.004059,-0.31723,-0.008912999999999999,-0.002095,0.004371,-36.5,6.87,-5.68,1b
2019-07-15_173358:660,-0.429108,-0.004059,-0.326385,-0.009646,0.000407,0.006874,-36.060001,6.0,-4.68,1b
2019-07-15_173358:680,-0.42758199999999996,-0.009125,-0.341644,-0.010042,0.0016589999999999999,0.008003,-36.060001,6.0,-4.68,1b
2019-07-15_173358:700,-0.46823100000000006,-0.018799,-0.349792,-0.011568,0.004954999999999999,0.007606,-36.060001,6.0,-4.68,1b
2019-07-15_173358:720,-0.516022,-0.024384,-0.401642,-0.011629,0.004039,0.0030280000000000003,-36.060001,7.37,-5.25,1b
2019-07-15_173358:740,-0.530273,-0.040161,-0.360962,-0.009646,0.012004,-0.0037159999999999997,-36.060001,7.37,-5.25,1b
2019-07-15_173358:760,-0.502808,-0.029480000000000003,-0.379272,-0.008181,0.019969,-0.0037159999999999997,-35.68,7.0,-6.5,1b
2019-07-15_173358:780,-0.429108,-0.036591000000000005,-0.359955,-0.006075,0.026652999999999996,0.000465,-35.68,7.0,-6.5,1b
2019-07-15_173358:800,-0.35638400000000003,-0.039124,-0.326904,-0.005221,0.030437,0.000129,-35.68,7.0,-6.5,1b
2019-07-15_173358:820,-0.309113,-0.037108999999999996,-0.301483,-0.004549,0.029704,0.00132,-35.68,7.37,-4.68,1b
2019-07-15_173358:840,-0.288269,-0.040161,-0.300476,-0.0037560000000000002,0.018290999999999998,-0.002251,-35.68,7.37,-4.68,1b
2019-07-15_173358:860,-0.317749,-0.038116000000000004,-0.309113,-0.004152,0.015178,-0.004174000000000001,-35.25,7.0,-5.18,1b
2019-07-15_173358:880,-0.3396,-0.037108999999999996,-0.319275,-0.00403,0.01115,-0.00277,-35.25,7.0,-5.18,1b
2019-07-15_173358:900,-0.337067,-0.039124,-0.329437,-0.0036950000000000004,0.007304000000000001,-0.000176,-35.25,7.0,-5.18,1b
2019-07-15_173358:920,-0.344696,-0.035583,-0.335022,-0.0033280000000000002,0.000468,-0.0035020000000000003,-36.060001,6.68,-5.18,1b
2019-07-15_173358:940,-0.34265100000000004,-0.028442000000000002,-0.344177,-0.002779,-0.002187,-0.004113,-36.060001,6.68,-5.18,1b
2019-07-15_173358:960,-0.348267,-0.022369,-0.348267,-0.001864,-0.008199,-0.005364,-36.5,6.68,-5.18,1b
2019-07-15_173358:980,-0.359955,-0.014740000000000001,-0.34674099999999997,-0.003054,-0.011403,-0.006431999999999999,-36.5,6.68,-5.18,1b
2019-07-15_173359:000,-0.384857,-0.011687999999999999,-0.330963,-0.004671,-0.010121,-0.004967,-36.5,6.68,-5.18,1b
2019-07-15_173359:020,-0.393005,-0.009125,-0.320801,-0.006411,-0.003285,-0.004448,-36.060001,7.0,-4.68,1b
2019-07-15_173359:040,-0.37011700000000003,-0.004547,-0.302002,-0.008669,0.0036420000000000003,-0.004296,-36.060001,7.0,-4.68,1b
2019-07-15_173359:060,-0.35131799999999996,-0.004547,-0.293854,-0.010836,0.006938,-0.003228,-36.060001,6.25,-5.18,1b
2019-07-15_173359:080,-0.342163,-0.004059,-0.272491,-0.013430000000000001,0.005779,-0.001641,-36.060001,6.25,-5.18,1b
2019-07-15_173359:100,-0.346222,-0.0035399999999999997,-0.2659,-0.013978999999999998,0.004649,-0.000786,-36.060001,6.25,-5.18,1b
2019-07-15_173359:120,-0.358917,-0.004059,-0.262329,-0.014956,0.002849,0.00196,-36.5,5.56,-6.37,1b
2019-07-15_173359:140,-0.361481,-0.0055850000000000006,-0.263855,-0.015749000000000003,0.0009570000000000001,0.003425,-36.5,5.56,-6.37,1b
2019-07-15_173359:160,-0.37011700000000003,-0.009644,-0.276581,-0.016421,-0.001057,0.003486,-36.68,7.0,-6.68,1b
2019-07-15_173359:180,-0.384857,-0.009644,-0.282166,-0.016694999999999998,-0.00124,0.004615,-36.68,7.0,-6.68,1b
2019-07-15_173359:200,-0.39502,-0.013702,-0.288269,-0.017092,0.001415,0.007087,-36.68,7.0,-6.68,1b
2019-07-15_173359:220,-0.396057,-0.013213999999999998,-0.28418000000000004,-0.017824,0.005351,0.009742,-36.0,6.06,-5.87,1b
2019-07-15_173359:240,-0.407227,-0.019318000000000002,-0.29180900000000004,-0.018435,0.008342,0.012611,-36.0,6.06,-5.87,1b
2019-07-15_173359:260,-0.410797,-0.025421,-0.300964,-0.018801,0.010020000000000001,0.01493,-36.0,6.75,-6.37,1b
2019-07-15_173359:280,-0.434692,-0.028961,-0.29895,-0.019747,0.010722,0.017372,-36.0,6.75,-6.37,1b
2019-07-15_173359:300,-0.434692,-0.032013,-0.29486100000000004,-0.020418000000000002,0.011852,0.019172,-36.0,6.75,-6.37,1b
2019-07-15_173359:320,-0.43927,-0.034058,-0.29232800000000003,-0.021151,0.01292,0.018623,-36.0,6.75,-6.37,1b
2019-07-15_173359:340,-0.433655,-0.031494,-0.293335,-0.021334,0.013805000000000001,0.016426,-36.0,6.75,-6.37,1b
2019-07-15_173359:360,-0.427063,-0.029968,-0.298431,-0.020937,0.013316,0.014259,-36.369999,7.5,-5.56,1b
2019-07-15_173359:380,-0.42807,-0.028442000000000002,-0.296906,-0.019228,0.010753,0.014106,-36.369999,7.5,-5.56,1b
2019-07-15_173359:400,-0.49823,-0.020844,-0.320801,-0.017275,0.001842,0.015449000000000001,-36.369999,7.5,-5.56,1b
2019-07-15_173359:420,-0.47180200000000005,-0.017792,-0.28979499999999997,-0.016878,-0.004842,0.020576,-37.060001,7.06,-6.37,1b
2019-07-15_173359:440,-0.49316400000000005,-0.021332,-0.29742399999999997,-0.016085,-0.004109000000000001,0.021888,-37.060001,7.06,-6.37,1b
2019-07-15_173359:460,-0.415375,-0.015228,-0.285706,-0.017031,-0.0009660000000000001,0.018287,-37.060001,7.87,-6.68,1b
2019-07-15_173359:480,-0.393005,-0.011687999999999999,-0.28775,-0.015962999999999998,0.0008960000000000001,0.0167,-37.060001,7.87,-6.68,1b
2019-07-15_173359:500,-0.35943600000000003,-0.011169,-0.290802,-0.01523,0.003703,0.01081,-37.060001,7.87,-6.68,1b
2019-07-15_173359:520,-0.368073,-0.0030210000000000002,-0.293854,-0.013308,0.006693999999999999,0.003151,-36.369999,8.56,-6.68,1b
2019-07-15_173359:540,-0.378265,0.014221000000000001,-0.30300900000000003,-0.010042,0.008403,0.002693,-36.369999,8.56,-6.68,1b
2019-07-15_173359:560,-0.37112399999999995,0.019806,-0.303528,-0.007326000000000001,0.007365000000000001,0.005684000000000001,-36.369999,9.0,-7.87,1b
2019-07-15_173359:580,-0.361481,0.023895,-0.31012,-0.006258,0.004161,0.007301,-36.369999,9.0,-7.87,1b
2019-07-15_173359:600,-0.367584,0.025421,-0.316223,-0.0064719999999999995,-0.001454,0.010994,-36.369999,9.0,-7.87,1b
2019-07-15_173359:620,-0.381805,0.018799,-0.326904,-0.007723000000000001,-0.006490000000000001,0.016028999999999998,-35.560001,10.06,-7.06,1b
2019-07-15_173359:640,-0.390442,0.015228,-0.332489,-0.009706999999999999,-0.010152,0.017891,-35.560001,10.06,-7.06,1b
2019-07-15_173359:660,-0.406738,0.013213999999999998,-0.327911,-0.012057,-0.010884,0.017494,-36.0,10.06,-7.87,1b
2019-07-15_173359:680,-0.418915,0.010162000000000001,-0.315216,-0.014376,-0.0062759999999999995,0.017981999999999998,-36.0,10.06,-7.87,1b
2019-07-15_173359:700,-0.406219,0.001007,-0.28927600000000003,-0.016634,0.002116,0.019172,-36.0,10.06,-7.87,1b
2019-07-15_173359:720,-0.383331,-0.0025329999999999997,-0.27301,-0.017946,0.009531999999999999,0.019813,-36.369999,10.5,-6.68,1b
2019-07-15_173359:740,-0.341644,-0.011169,-0.251648,-0.018496000000000002,0.011729,0.018837,-36.369999,10.5,-6.68,1b
2019-07-15_173359:760,-0.322845,-0.015228,-0.245056,-0.018221,0.007670999999999999,0.016914,-36.369999,10.87,-9.06,1b
2019-07-15_173359:780,-0.347748,-0.019806,-0.242493,-0.017428,0.000285,0.013923,-36.369999,10.87,-9.06,1b
2019-07-15_173359:800,-0.368591,-0.018799,-0.25521900000000003,-0.015566,-0.004353,0.011879,-36.369999,10.87,-9.06,1b
2019-07-15_173359:820,-0.379791,-0.018799,-0.266907,-0.013094,-0.00536,0.011482,-36.369999,12.0,-8.25,1b
2019-07-15_173359:840,-0.379272,-0.017792,-0.276062,-0.011446,-0.005818,0.009590000000000001,-36.369999,12.0,-8.25,1b
2019-07-15_173359:860,-0.386383,-0.016753999999999998,-0.28112800000000004,-0.009463,-0.006551,0.008064,-36.0,11.56,-8.56,1b
2019-07-15_173359:880,-0.397583,-0.015228,-0.285217,-0.007784,-0.006825,0.007209,-36.0,11.56,-8.56,1b
2019-07-15_173359:900,-0.40368699999999996,-0.012695,-0.290283,-0.0069299999999999995,-0.004414,0.005409000000000001,-36.0,11.56,-8.56,1b
2019-07-15_173359:920,-0.404694,-0.011169,-0.293335,-0.006136,-0.00063,0.003425,-36.369999,11.56,-8.56,1b
2019-07-15_173359:940,-0.40774499999999997,-0.011687999999999999,-0.294373,-0.005465,0.001842,0.001381,-36.369999,11.56,-8.56,1b
2019-07-15_173359:960,-0.40368699999999996,-0.011687999999999999,-0.291321,-0.004793,0.003368,-0.0008470000000000001,-36.68,12.37,-9.75,1b
2019-07-15_173359:980,-0.410797,-0.014221000000000001,-0.295898,-0.003817,0.003093,-0.003319,-36.68,12.37,-9.75,1b
2019-07-15_173400:000,-0.418915,-0.012177,-0.297913,-0.002993,0.002696,-0.005577,-36.68,12.37,-9.75,1b
2019-07-15_173400:020,-0.427063,-0.009125,-0.303528,-0.002199,0.003032,-0.005639,-35.560001,12.37,-10.18,1b
2019-07-15_173400:040,-0.431641,-0.007599,-0.305542,-0.0014060000000000001,0.004222,-0.005364,-35.560001,12.37,-10.18,1b
2019-07-15_173400:060,-0.43518100000000004,-0.006072999999999999,-0.30654899999999996,-0.001467,0.006755,-0.005181,-36.369999,12.37,-10.18,1b
2019-07-15_173400:080,-0.447906,-0.008636,-0.308075,-0.001467,0.010204000000000001,-0.004509,-36.369999,12.37,-10.18,1b
2019-07-15_173400:100,-0.523163,-0.009644,-0.338593,-0.0018030000000000001,0.009197,-0.005974,-36.369999,12.37,-10.18,1b
2019-07-15_173400:120,-0.462646,-0.024384,-0.320282,-0.001772,0.006938,-0.008019,-36.68,12.0,-9.75,1b
2019-07-15_173400:140,-0.46569799999999995,-0.017273,-0.32995599999999997,-0.001192,0.009685,-0.011681,-36.68,12.0,-9.75,1b
2019-07-15_173400:160,-0.465179,-0.019806,-0.319794,-0.000338,0.009685,-0.007012000000000001,-36.68,10.87,-9.37,1b
2019-07-15_173400:180,-0.429108,-0.025908999999999998,-0.296906,-0.00045999999999999996,0.011852,-0.0034409999999999996,-36.68,10.87,-9.37,1b
2019-07-15_173400:200,-0.389954,-0.025421,-0.29995700000000003,-0.003054,0.015849000000000002,-0.001183,-36.68,10.87,-9.37,1b
2019-07-15_173400:220,-0.37265,-0.036072,-0.290802,-0.004793,0.018108000000000003,0.0021739999999999997,-37.369999,12.37,-9.75,1b
2019-07-15_173400:240,-0.376221,-0.043213,-0.296387,-0.007051999999999999,0.018504,0.00016,-37.369999,12.37,-9.75,1b
2019-07-15_173400:260,-0.360962,-0.046265,-0.29486100000000004,-0.008791,0.017925,-0.0028309999999999997,-37.75,11.18,-9.37,1b
2019-07-15_173400:280,-0.374176,-0.048798,-0.293854,-0.008851999999999999,0.016521,-0.0038380000000000003,-37.75,11.18,-9.37,1b
2019-07-15_173400:300,-0.358429,-0.049805,-0.297913,-0.008394,0.014262,-0.005242,-37.75,11.18,-9.37,1b
2019-07-15_173400:320,-0.35791,-0.045226999999999996,-0.301483,-0.006869,0.009623999999999999,-0.006768000000000001,-38.5,11.56,-8.56,1b
2019-07-15_173400:340,-0.37011700000000003,-0.037108999999999996,-0.306061,-0.004671,0.003246,-0.007622,-38.5,11.56,-8.56,1b
2019-07-15_173400:360,-0.384338,-0.031006,-0.308075,-0.0028399999999999996,-0.002827,-0.008598999999999999,-38.869999,12.0,-8.56,1b
2019-07-15_173400:380,-0.394531,-0.021851,-0.308594,-0.0020469999999999998,-0.007741,-0.00808,-38.869999,12.0,-8.56,1b
2019-07-15_173400:400,-0.40368699999999996,-0.018799,-0.301483,-0.001192,-0.009267000000000001,-0.0064930000000000005,-38.869999,12.0,-8.56,1b
2019-07-15_173400:420,-0.410797,-0.016753999999999998,-0.28775,-0.001253,-0.006551,-0.006431999999999999,-39.68,10.87,-8.56,1b
2019-07-15_173400:440,-0.406738,-0.014740000000000001,-0.275543,-0.0014060000000000001,-0.00124,-0.006218,-39.68,10.87,-8.56,1b
2019-07-15_173400:460,-0.37265,-0.012695,-0.25827,-0.001864,0.0029100000000000003,-0.004815,-40.369999,11.18,-9.5,1b
2019-07-15_173400:480,-0.35739099999999996,-0.014740000000000001,-0.248596,-0.002535,0.003886,-0.004448,-40.369999,11.18,-9.5,1b
2019-07-15_173400:500,-0.34063699999999997,-0.014221000000000001,-0.244019,-0.0034509999999999996,0.001537,-0.005547,-40.369999,11.18,-9.5,1b
2019-07-15_173400:520,-0.34674099999999997,-0.016266,-0.24453699999999998,-0.0032979999999999997,-0.003163,-0.006096,-38.869999,10.5,-8.25,1b
2019-07-15_173400:540,-0.361481,-0.015747,-0.248108,-0.003054,-0.007679999999999999,-0.005974,-38.869999,10.5,-8.25,1b
2019-07-15_173400:560,-0.379791,-0.015747,-0.25216700000000003,-0.002657,-0.010487,-0.005547,-39.25,9.68,-9.87,1b
2019-07-15_173400:580,-0.40011599999999997,-0.013213999999999998,-0.262848,-0.0020469999999999998,-0.009999,-0.004418,-39.25,9.68,-9.87,1b
2019-07-15_173400:600,-0.40368699999999996,-0.010162000000000001,-0.270966,-0.001772,-0.006886,-0.002648,-39.25,9.68,-9.87,1b
2019-07-15_173400:620,-0.399109,-0.007599,-0.279633,-0.0021079999999999996,-0.003163,-0.000573,-39.68,9.68,-10.25,1b
2019-07-15_173400:640,-0.40063499999999996,-0.009125,-0.285217,-0.002932,0.000285,0.001716,-39.68,9.68,-10.25,1b
2019-07-15_173400:660,-0.40063499999999996,-0.010651,-0.291321,-0.004732,0.003093,0.0038829999999999997,-40.0,10.18,-10.25,1b
2019-07-15_173400:680,-0.412811,-0.011687999999999999,-0.296906,-0.007143000000000001,0.003703,0.006416,-40.0,10.18,-10.25,1b
2019-07-15_173400:700,-0.447388,-0.021332,-0.29742399999999997,-0.009646,0.005046,0.009009999999999999,-40.0,10.18,-10.25,1b
2019-07-15_173400:720,-0.46417200000000003,-0.023375999999999997,-0.302002,-0.012118,0.00883,0.009193000000000002,-40.0,10.18,-10.68,1b
2019-07-15_173400:740,-0.46569799999999995,-0.029480000000000003,-0.296906,-0.013643,0.013987999999999999,0.009468,-40.0,10.18,-10.68,1b
2019-07-15_173400:760,-0.461121,-0.032532,-0.295898,-0.013918,0.018443,0.009224,-40.369999,11.0,-10.18,1b
2019-07-15_173400:780,-0.451477,-0.030487,-0.29232800000000003,-0.01285,0.021831,0.008827,-40.369999,11.0,-10.18,1b
2019-07-15_173400:800,-0.46823100000000006,-0.027435,-0.29538000000000003,-0.011170999999999999,0.021769999999999998,0.009864,-40.369999,11.0,-10.18,1b
2019-07-15_173400:820,-0.495697,-0.017273,-0.315704,-0.010134,0.01591,0.012916,-40.0,10.18,-9.37,1b
2019-07-15_173400:840,-0.47995,-0.015228,-0.28112800000000004,-0.010714,0.012584,0.018165,-40.0,10.18,-9.37,1b
2019-07-15_173400:860,-0.515015,-0.014740000000000001,-0.29284699999999997,-0.011385,0.013927000000000002,0.02024,-39.68,11.25,-9.0,1b
2019-07-15_173400:880,-0.472321,-0.009644,-0.28979499999999997,-0.013247,0.01414,0.018562000000000002,-39.68,11.25,-9.0,1b
2019-07-15_173400:900,-0.427063,-0.009125,-0.274017,-0.014712000000000001,0.015331000000000001,0.017097,-39.68,11.25,-9.0,1b
2019-07-15_173400:920,-0.386383,-0.008118,-0.25827,-0.014956,0.017711,0.013008,-40.0,12.5,-9.37,1b
2019-07-15_173400:940,-0.341125,0.001495,-0.238434,-0.014773,0.018626,0.008003,-40.0,12.5,-9.37,1b
2019-07-15_173400:960,-0.33300799999999997,0.012695,-0.24658200000000002,-0.014284,0.013652000000000001,0.007606,-39.869999,12.06,-9.0,1b
2019-07-15_173400:980,-0.33758499999999997,0.014740000000000001,-0.25012199999999996,-0.013978999999999998,0.004649,0.008796,-39.869999,12.06,-9.0,1b
2019-07-15_173401:000,-0.35436999999999996,0.01828,-0.264862,-0.014956,-0.004414,0.007026,-39.869999,12.06,-9.0,1b
2019-07-15_173401:020,-0.364014,0.01828,-0.27301,-0.016024,-0.013050999999999998,0.009681,-41.060001,12.75,-7.5,1b
2019-07-15_173401:040,-0.384338,0.007599,-0.29180900000000004,-0.017153,-0.021168,0.01493,-41.060001,12.75,-7.5,1b
2019-07-15_173401:060,-0.412811,0.0025329999999999997,-0.304016,-0.018068,-0.026326,0.017097,-41.18,12.68,-10.68,1b
2019-07-15_173401:080,-0.43621800000000005,-0.007599,-0.314697,-0.018618,-0.026784,0.017097,-41.18,12.68,-10.68,1b
2019-07-15_173401:100,-0.426544,-0.011687999999999999,-0.296906,-0.018557,-0.021107,0.01725,-41.18,12.68,-10.68,1b
2019-07-15_173401:120,-0.406738,-0.012695,-0.285217,-0.018099,-0.013386000000000002,0.016853,-39.560001,12.75,-10.68,1b
2019-07-15_173401:140,-0.387909,-0.012695,-0.268433,-0.017824,-0.006367,0.015327,-39.560001,12.75,-10.68,1b
2019-07-15_173401:160,-0.367584,-0.013702,-0.252686,-0.018007,-0.0033159999999999995,0.014197999999999999,-40.25,13.5,-12.25,1b
2019-07-15_173401:180,-0.35638400000000003,-0.014740000000000001,-0.24353000000000002,-0.01816,-0.002888,0.013008,-40.25,13.5,-12.25,1b
2019-07-15_173401:200,-0.349792,-0.01828,-0.244019,-0.018068,-0.005543,0.010933,-40.25,13.5,-12.25,1b
2019-07-15_173401:220,-0.36554000000000003,-0.021851,-0.24963400000000002,-0.016694999999999998,-0.010152,0.007881,-39.560001,13.87,-11.5,1b
2019-07-15_173401:240,-0.385376,-0.016753999999999998,-0.26181,-0.014437,-0.013050999999999998,0.004829,-39.560001,13.87,-11.5,1b
2019-07-15_173401:260,-0.393494,-0.015228,-0.275543,-0.011568,-0.013783000000000002,0.002784,-39.18,14.25,-12.56,1b
2019-07-15_173401:280,-0.40823400000000004,-0.010162000000000001,-0.28369099999999997,-0.00873,-0.012471,0.000221,-39.18,14.25,-12.56,1b
2019-07-15_173401:300,-0.415375,-0.006592,-0.290283,-0.006136,-0.008992,-0.0008470000000000001,-39.18,14.25,-12.56,1b
2019-07-15_173401:320,-0.411285,-0.0055850000000000006,-0.290283,-0.004152,-0.004018,-0.000512,-39.18,14.68,-13.37,1b
2019-07-15_173401:340,-0.406738,-0.005065999999999999,-0.285217,-0.002382,0.000621,-0.001366,-39.18,14.68,-13.37,1b
2019-07-15_173401:360,-0.402161,-0.0055850000000000006,-0.282166,-0.00107,0.003703,-0.002373,-39.560001,13.5,-14.06,1b
2019-07-15_173401:380,-0.409271,-0.007599,-0.279633,0.00045599999999999997,0.005046,-0.003167,-39.560001,13.5,-14.06,1b
2019-07-15_173401:400,-0.42147799999999996,-0.010162000000000001,-0.279633,0.001341,0.005351,-0.005089,-39.560001,13.5,-14.06,1b
2019-07-15_173401:420,-0.42453,-0.011169,-0.28369099999999997,0.002012,0.005412,-0.006431999999999999,-39.18,14.25,-13.37,1b
2019-07-15_173401:440,-0.42807,-0.013702,-0.28674299999999997,0.002775,0.005229,-0.007409000000000001,-39.18,14.25,-13.37,1b
2019-07-15_173401:460,-0.42605600000000005,-0.013213999999999998,-0.29180900000000004,0.003111,0.006023,-0.00988,-39.869999,13.56,-13.0,1b
2019-07-15_173401:480,-0.433655,-0.012177,-0.300964,0.003111,0.008006000000000001,-0.010856999999999999,-39.869999,13.56,-13.0,1b
2019-07-15_173401:500,-0.454529,-0.016266,-0.31012,0.003111,0.009013,-0.01162,-39.869999,13.56,-13.0,1b
2019-07-15_173401:520,-0.529755,-0.014221000000000001,-0.353851,0.002867,0.006572,-0.014672,-40.68,13.18,-13.0,1b
2019-07-15_173401:540,-0.482483,-0.028961,-0.308075,0.0032020000000000004,0.003032,-0.018119999999999997,-40.68,13.18,-13.0,1b
2019-07-15_173401:560,-0.48654200000000003,-0.013702,-0.33758499999999997,0.003904,0.005443,-0.020378,-41.369999,12.75,-13.75,1b
2019-07-15_173401:580,-0.471283,-0.013213999999999998,-0.320801,0.004637,0.008006000000000001,-0.014580000000000001,-41.369999,12.75,-13.75,1b
2019-07-15_173401:600,-0.433167,-0.013213999999999998,-0.29895,0.003996,0.010814,-0.011589,-41.369999,12.75,-13.75,1b
2019-07-15_173401:620,-0.396545,-0.015228,-0.291321,0.000852,0.013927000000000002,-0.009026000000000001,-41.75,11.68,-12.56,1b
2019-07-15_173401:640,-0.35638400000000003,-0.031494,-0.273529,-0.000399,0.015453,-0.00515,-41.75,11.68,-12.56,1b
2019-07-15_173401:660,-0.353333,-0.041687,-0.266388,-0.002321,0.014934000000000001,-0.008355,-41.75,11.68,-11.75,1b
2019-07-15_173401:680,-0.361969,-0.046265,-0.266388,-0.002657,0.012676,-0.013848,-41.75,11.68,-11.75,1b
2019-07-15_173401:700,-0.363007,-0.05285599999999999,-0.2659,-0.0017109999999999998,0.009959,-0.014183000000000001,-41.75,11.68,-11.75,1b
2019-07-15_173401:720,-0.35180700000000004,-0.052338,-0.271484,0.000273,0.006297,-0.012719,-41.75,11.25,-11.37,1b
2019-07-15_173401:740,-0.354858,-0.051849,-0.277069,0.002928,0.000682,-0.012322,-41.75,11.25,-11.37,1b
2019-07-15_173401:760,-0.361969,-0.045745999999999995,-0.297913,0.00659,-0.005971,-0.014580000000000001,-42.18,9.75,-12.18,1b
2019-07-15_173401:780,-0.36706500000000003,-0.041168,-0.309113,0.010038,-0.014058000000000001,-0.017388,-42.18,9.75,-12.18,1b
2019-07-15_173401:800,-0.388428,-0.030487,-0.319275,0.013731,-0.021412999999999998,-0.017846,-42.18,9.75,-12.18,1b
2019-07-15_173401:820,-0.410278,-0.025421,-0.31369,0.016142,-0.023671,-0.017174000000000002,-42.560001,10.56,-12.18,1b
2019-07-15_173401:840,-0.41995200000000005,-0.017273,-0.300476,0.017271,-0.017689,-0.01577,-42.560001,10.56,-12.18,1b
2019-07-15_173401:860,-0.404694,-0.011687999999999999,-0.29486100000000004,0.016722,-0.007954000000000001,-0.014518999999999999,-42.560001,9.5,-13.37,1b
2019-07-15_173401:880,-0.375702,-0.007599,-0.287231,0.014799000000000001,-0.0008439999999999999,-0.012597,-42.560001,9.5,-13.37,1b
2019-07-15_173401:900,-0.36349499999999996,-0.006592,-0.281647,0.011807999999999999,0.002361,-0.011406,-42.560001,9.5,-13.37,1b
2019-07-15_173401:920,-0.352844,-0.006072999999999999,-0.269958,0.008177,0.0024519999999999998,-0.011071,-43.560001,8.68,-13.37,1b
2019-07-15_173401:940,-0.35638400000000003,-0.010651,-0.265381,0.005125,0.00056,-0.010399,-43.560001,8.68,-13.37,1b
2019-07-15_173401:960,-0.365021,-0.016266,-0.265381,0.002378,-0.00237,-0.009362,-43.369999,9.75,-13.37,1b
2019-07-15_173401:980,-0.37316900000000003,-0.020844,-0.271484,0.002012,-0.00298,-0.009026000000000001,-43.369999,9.75,-13.37,1b
2019-07-15_173402:000,-0.383331,-0.019318000000000002,-0.28064,0.002378,-0.00298,-0.00869,-43.369999,9.75,-13.37,1b
2019-07-15_173402:020,-0.393005,-0.017273,-0.284698,0.0027140000000000003,-0.0018510000000000002,-0.005577,-43.560001,8.25,-13.75,1b
2019-07-15_173402:040,-0.393494,-0.014740000000000001,-0.280121,0.001982,0.003124,-0.00045099999999999996,-43.560001,8.25,-13.75,1b
2019-07-15_173402:060,-0.39859,-0.011687999999999999,-0.280121,0.000608,0.007273999999999999,0.0022960000000000003,-43.560001,8.25,-13.0,1b
2019-07-15_173402:080,-0.393494,-0.015747,-0.28418000000000004,-0.0015279999999999998,0.009623999999999999,0.0058969999999999995,-43.560001,8.25,-13.0,1b
2019-07-15_173402:100,-0.406219,-0.019806,-0.296906,-0.00339,0.0088,0.009590000000000001,-43.560001,8.25,-13.0,1b
2019-07-15_173402:120,-0.42248500000000005,-0.026917,-0.303528,-0.006014,0.0069689999999999995,0.011604000000000001,-44.0,8.0,-13.37,1b
2019-07-15_173402:140,-0.432648,-0.028442000000000002,-0.302002,-0.00812,0.006633,0.012855000000000002,-44.0,8.0,-13.37,1b
2019-07-15_173402:160,-0.439758,-0.032013,-0.303528,-0.010134,0.007273999999999999,0.013923,-42.869999,8.0,-13.0,1b
2019-07-15_173402:180,-0.44232200000000005,-0.032532,-0.307587,-0.011446,0.009349,0.014106,-42.869999,8.0,-13.0,1b
2019-07-15_173402:200,-0.48553500000000005,-0.029968,-0.318756,-0.012453,0.008739,0.013984,-42.869999,8.0,-13.0,1b
2019-07-15_173402:220,-0.545532,-0.021851,-0.35436999999999996,-0.013368999999999999,0.0012619999999999999,0.017981999999999998,-44.060001,8.25,-13.37,1b
2019-07-15_173402:240,-0.517059,-0.027954000000000003,-0.319275,-0.015016999999999999,0.001598,0.022803999999999998,-44.060001,8.25,-13.37,1b
2019-07-15_173402:260,-0.48654200000000003,-0.023895,-0.34570300000000004,-0.015627000000000002,0.005626,0.019111000000000003,-43.0,8.68,-11.37,1b
2019-07-15_173402:280,-0.43011499999999997,-0.017273,-0.332489,-0.01523,0.010539,0.013465000000000001,-43.0,8.68,-11.37,1b
2019-07-15_173402:300,-0.425018,-0.011687999999999999,-0.31723,-0.012697,0.017192,0.010475,-43.0,8.68,-11.37,1b
2019-07-15_173402:320,-0.370636,-0.004547,-0.28927600000000003,-0.010042,0.023631,0.008948999999999999,-43.369999,9.75,-12.56,1b
2019-07-15_173402:340,-0.35131799999999996,0.0,-0.27301,-0.007326000000000001,0.024547,0.008154999999999999,-43.369999,9.75,-12.56,1b
2019-07-15_173402:360,-0.34317,0.005065999999999999,-0.273529,-0.005068,0.018382,0.008827,-43.0,9.75,-11.75,1b
2019-07-15_173402:380,-0.341125,0.007111,-0.265381,-0.003878,0.010356,0.008461,-43.0,9.75,-11.75,1b
2019-07-15_173402:400,-0.35180700000000004,0.010162000000000001,-0.275055,-0.0036340000000000005,0.002116,0.008612999999999999,-43.0,9.75,-11.75,1b
2019-07-15_173402:420,-0.364532,0.007599,-0.28369099999999997,-0.004397,-0.005299,0.010933,-44.060001,9.75,-12.18,1b
2019-07-15_173402:440,-0.379272,0.001007,-0.306061,-0.005282,-0.012715,0.014441999999999998,-44.060001,9.75,-12.18,1b
2019-07-15_173402:460,-0.386902,-0.006072999999999999,-0.318268,-0.006594,-0.017903,0.014503,-44.0,10.18,-11.37,1b
2019-07-15_173402:480,-0.43927,-0.014221000000000001,-0.318268,-0.007448000000000001,-0.015645,0.013862000000000001,-44.0,10.18,-11.37,1b
2019-07-15_173402:500,-0.444855,-0.017792,-0.309113,-0.007937,-0.005818,0.014441999999999998,-44.0,10.18,-11.37,1b
2019-07-15_173402:520,-0.42605600000000005,-0.025908999999999998,-0.29232800000000003,-0.008578,0.005565,0.014259,-43.25,10.18,-12.56,1b
2019-07-15_173402:540,-0.397064,-0.028961,-0.274536,-0.009646,0.013652000000000001,0.013313,-43.25,10.18,-12.56,1b
2019-07-15_173402:560,-0.37316900000000003,-0.030487,-0.2547,-0.010378,0.017100999999999998,0.012245,-42.18,10.18,-13.37,1b
2019-07-15_173402:580,-0.37316900000000003,-0.03302,-0.23895300000000003,-0.010988,0.017925,0.010719,-42.18,10.18,-13.37,1b
2019-07-15_173402:600,-0.37316900000000003,-0.034546,-0.238434,-0.01111,0.016704,0.008461,-42.18,10.18,-13.37,1b
2019-07-15_173402:620,-0.380798,-0.034546,-0.23486300000000002,-0.010865999999999999,0.014385,0.006294,-42.869999,11.25,-11.75,1b
2019-07-15_173402:640,-0.38739,-0.033539,-0.233856,-0.010103000000000001,0.011881999999999998,0.005226,-42.869999,11.25,-11.75,1b
2019-07-15_173402:660,-0.399597,-0.036072,-0.237427,-0.00873,0.010265,0.003425,-43.560001,11.68,-13.0,1b
2019-07-15_173402:680,-0.401123,-0.034546,-0.239441,-0.006869,0.009623999999999999,0.00016,-43.560001,11.68,-13.0,1b
2019-07-15_173402:700,-0.404694,-0.027954000000000003,-0.24353000000000002,-0.004824,0.008739,-0.003655,-43.560001,11.68,-13.0,1b
2019-07-15_173402:720,-0.40774499999999997,-0.025421,-0.242004,-0.002657,0.008495,-0.006218,-43.25,11.25,-11.0,1b
2019-07-15_173402:740,-0.41384899999999997,-0.023375999999999997,-0.23995999999999998,-0.000338,0.008281,-0.008202,-43.25,11.25,-11.0,1b
2019-07-15_173402:760,-0.416382,-0.020844,-0.23690799999999998,0.00247,0.007701,-0.010735,-43.560001,11.25,-11.37,1b
2019-07-15_173402:780,-0.432159,-0.014221000000000001,-0.23690799999999998,0.006376,0.005961999999999999,-0.012383,-43.560001,11.25,-11.37,1b
2019-07-15_173402:800,-0.433655,-0.014740000000000001,-0.240479,0.0075049999999999995,0.005626,-0.012383,-43.560001,11.25,-11.37,1b
2019-07-15_173402:820,-0.45043900000000003,-0.014221000000000001,-0.249115,0.009947,0.005565,-0.012412999999999999,-42.869999,10.56,-11.37,1b
2019-07-15_173402:840,-0.45654300000000003,-0.011687999999999999,-0.2547,0.011869,0.006572,-0.011864,-42.869999,10.56,-11.37,1b
2019-07-15_173402:860,-0.454529,-0.008118,-0.259796,0.013212,0.009226999999999999,-0.010735,-43.5,9.75,-10.18,1b
2019-07-15_173402:880,-0.461121,-0.007599,-0.264862,0.013761,0.011607,-0.009941,-43.5,9.75,-10.18,1b
2019-07-15_173402:900,-0.55365,-0.011169,-0.278595,0.013212,0.010478,-0.008629000000000001,-43.5,9.75,-10.18,1b
