timestamp,AccX,AccY,AccZ,GyroX,GyroY,GyroZ,MagX,MagY,MagZ,Activity
2019-07-15_182745:780,-0.344177,-0.005065999999999999,-0.35791,-0.001375,-0.000172,-0.001641,-40.18,6.56,-16.370001000000002,2d
2019-07-15_182745:800,-0.35131799999999996,-0.004547,-0.358429,-0.000918,0.000133,-0.001641,-40.18,6.56,-16.370001000000002,2d
2019-07-15_182745:820,-0.352325,-0.001007,-0.356903,-0.000582,0.0008960000000000001,6.8e-05,-39.060001,6.56,-15.18,2d
2019-07-15_182745:840,-0.352325,0.002014,-0.353333,-0.00045999999999999996,0.0008960000000000001,0.001045,-39.060001,6.56,-15.18,2d
2019-07-15_182745:860,-0.34674099999999997,0.001495,-0.352844,-0.0014060000000000001,0.000682,0.0018989999999999999,-39.75,5.75,-15.18,2d
2019-07-15_182745:880,-0.336548,0.0,-0.353333,-0.002718,-0.000386,0.003151,-39.75,5.75,-15.18,2d
2019-07-15_182745:900,-0.335022,-0.0030210000000000002,-0.35739099999999996,-0.00403,-0.001912,0.005226,-39.75,5.75,-15.18,2d
2019-07-15_182745:920,-0.341644,-0.012695,-0.361969,-0.005129,-0.003163,0.004951,-40.18,5.75,-15.18,2d
2019-07-15_182745:940,-0.349792,-0.015747,-0.36349499999999996,-0.005129,-0.002431,0.00309,-40.18,5.75,-15.18,2d
2019-07-15_182745:960,-0.344696,-0.021851,-0.368591,-0.004824,-0.001912,0.0022960000000000003,-39.369999,5.75,-16.370001000000002,2d
2019-07-15_182745:980,-0.348267,-0.022858,-0.368591,-0.0031149999999999997,-0.000722,-0.000389,-39.369999,5.75,-16.370001000000002,2d
2019-07-15_182746:000,-0.35180700000000004,-0.022369,-0.37011700000000003,-0.0020469999999999998,-0.0005690000000000001,-0.000634,-39.369999,5.75,-16.370001000000002,2d
2019-07-15_182746:020,-0.354858,-0.020325,-0.373688,0.000608,0.0019030000000000002,-0.0017629999999999998,-39.369999,6.18,-15.87,2d
2019-07-15_182746:040,-0.355377,-0.013702,-0.36911,0.000883,0.002849,-0.0023120000000000003,-39.369999,6.18,-15.87,2d
2019-07-15_182746:060,-0.35436999999999996,-0.009644,-0.36554000000000003,0.001402,0.005016,-0.001702,-38.75,6.56,-16.370001000000002,2d
2019-07-15_182746:080,-0.350281,-0.006072999999999999,-0.35943600000000003,0.001127,0.005961999999999999,-0.001366,-38.75,6.56,-16.370001000000002,2d
2019-07-15_182746:100,-0.3508,-0.002014,-0.35436999999999996,-0.000185,0.00584,-0.001702,-38.75,6.56,-16.370001000000002,2d
2019-07-15_182746:120,-0.352325,-0.001495,-0.347229,-0.001864,0.006175,-0.001702,-39.060001,6.18,-15.56,2d
2019-07-15_182746:140,-0.34674099999999997,-0.001495,-0.34265100000000004,-0.004671,0.006023,0.00016,-39.060001,6.18,-15.56,2d
2019-07-15_182746:160,-0.342163,-0.004059,-0.34570300000000004,-0.005465,0.005412,0.000923,-39.060001,6.18,-16.75,2d
2019-07-15_182746:180,-0.34063699999999997,-0.0055850000000000006,-0.34368899999999997,-0.0069299999999999995,0.00352,0.00196,-39.060001,6.18,-16.75,2d
2019-07-15_182746:200,-0.341125,-0.007111,-0.34674099999999997,-0.007204,0.002635,0.0018989999999999999,-39.060001,6.18,-16.75,2d
2019-07-15_182746:220,-0.344177,-0.009125,-0.349792,-0.007662,0.001537,0.0022960000000000003,-39.369999,5.75,-15.18,2d
2019-07-15_182746:240,-0.344696,-0.011169,-0.355377,-0.007784,0.00056,0.002571,-39.369999,5.75,-15.18,2d
2019-07-15_182746:260,-0.34674099999999997,-0.014221000000000001,-0.355377,-0.007448000000000001,-0.000233,0.002693,-39.75,5.5,-16.370001000000002,2d
2019-07-15_182746:280,-0.353333,-0.015228,-0.358917,-0.006533,-0.000325,0.00196,-39.75,5.5,-16.370001000000002,2d
2019-07-15_182746:300,-0.35436999999999996,-0.015747,-0.36248800000000003,-0.0051600000000000005,7.2e-05,0.000465,-39.75,5.5,-16.370001000000002,2d
2019-07-15_182746:320,-0.353333,-0.014740000000000001,-0.364014,-0.003512,0.000499,-0.001702,-39.369999,6.18,-15.56,2d
2019-07-15_182746:340,-0.35131799999999996,-0.012177,-0.361481,-0.00165,0.00114,-0.0032890000000000003,-39.369999,6.18,-15.56,2d
2019-07-15_182746:360,-0.349792,-0.004547,-0.358917,-2e-06,0.0017809999999999998,-0.0034409999999999996,-39.75,6.56,-16.370001000000002,2d
2019-07-15_182746:380,-0.350281,0.0,-0.355896,0.000608,0.0024519999999999998,-0.002648,-39.75,6.56,-16.370001000000002,2d
2019-07-15_182746:400,-0.348267,0.004059,-0.354858,0.000212,0.0031850000000000003,-0.0013050000000000002,-39.75,6.56,-16.370001000000002,2d
2019-07-15_182746:420,-0.344696,0.0055850000000000006,-0.353333,-0.001131,0.003368,7.000000000000001e-06,-39.060001,5.75,-15.56,2d
2019-07-15_182746:440,-0.33758499999999997,0.0025329999999999997,-0.35638400000000003,-0.002535,0.002757,0.000709,-39.060001,5.75,-15.56,2d
2019-07-15_182746:460,-0.338074,-0.001007,-0.355377,-0.003878,0.0012619999999999999,0.000526,-39.060001,6.18,-15.56,2d
2019-07-15_182746:480,-0.34570300000000004,-0.008118,-0.354858,-0.00461,-0.000386,0.00016,-39.060001,6.18,-15.56,2d
2019-07-15_182746:500,-0.34674099999999997,-0.011169,-0.358917,-0.004275,-0.0005690000000000001,-0.000389,-39.060001,6.18,-15.56,2d
2019-07-15_182746:520,-0.349274,-0.015228,-0.359955,-0.003237,-0.0007830000000000001,-0.0013050000000000002,-39.75,6.18,-16.0,2d
2019-07-15_182746:540,-0.352325,-0.012695,-0.358429,-0.0017109999999999998,-0.000233,-0.001641,-39.75,6.18,-16.0,2d
2019-07-15_182746:560,-0.356903,-0.010162000000000001,-0.363007,-0.000277,0.000682,-0.000267,-39.369999,5.5,-16.0,2d
2019-07-15_182746:580,-0.355377,-0.006072999999999999,-0.359955,0.000395,0.0016589999999999999,-0.00023700000000000001,-39.369999,5.5,-16.0,2d
2019-07-15_182746:600,-0.353851,-0.0035399999999999997,-0.35943600000000003,0.000334,0.002513,-0.000908,-39.369999,5.5,-16.0,2d
2019-07-15_182746:620,-0.35791,-0.001007,-0.35739099999999996,-0.0006730000000000001,0.002696,-0.000908,-39.369999,5.75,-15.56,2d
2019-07-15_182746:640,-0.344177,-0.0025329999999999997,-0.355896,-0.001986,0.0036420000000000003,0.00028199999999999997,-39.369999,5.75,-15.56,2d
2019-07-15_182746:660,-0.347748,-0.005065999999999999,-0.353851,-0.003237,0.003703,0.000221,-40.18,5.5,-16.0,2d
2019-07-15_182746:680,-0.332489,-0.006072999999999999,-0.352325,-0.003939,0.0031850000000000003,0.000221,-40.18,5.5,-16.0,2d
2019-07-15_182746:700,-0.344696,-0.009125,-0.35638400000000003,-0.004275,0.001964,-5.4000000000000005e-05,-40.18,5.5,-16.0,2d
2019-07-15_182746:720,-0.345215,-0.009644,-0.358917,-0.004091,0.0009570000000000001,-0.000634,-39.75,5.5,-15.18,2d
2019-07-15_182746:740,-0.347748,-0.012695,-0.358429,-0.003817,0.00056,-0.000664,-39.75,5.5,-15.18,2d
2019-07-15_182746:760,-0.352325,-0.012695,-0.359955,-0.0031149999999999997,0.000865,-0.000512,-39.75,5.75,-15.56,2d
2019-07-15_182746:780,-0.353333,-0.012177,-0.356903,-0.002382,0.00172,-0.0008470000000000001,-39.75,5.75,-15.56,2d
2019-07-15_182746:800,-0.354858,-0.009125,-0.358429,-0.002169,0.0024519999999999998,-0.001,-39.75,5.75,-15.56,2d
2019-07-15_182746:820,-0.352844,-0.008636,-0.35739099999999996,-0.0017109999999999998,0.003093,-0.001458,-40.18,6.56,-15.87,2d
2019-07-15_182746:840,-0.352325,-0.006592,-0.35638400000000003,-0.0020469999999999998,0.0034289999999999998,-0.0017629999999999998,-40.18,6.56,-15.87,2d
2019-07-15_182746:860,-0.35180700000000004,-0.006072999999999999,-0.353851,-0.002321,0.003246,-0.001183,-40.560001,5.75,-15.56,2d
2019-07-15_182746:880,-0.34674099999999997,-0.006072999999999999,-0.3508,-0.0028399999999999996,0.003307,-0.001397,-40.560001,5.75,-15.56,2d
2019-07-15_182746:900,-0.34674099999999997,-0.006072999999999999,-0.352325,-0.003237,0.0031850000000000003,-0.0019760000000000003,-40.560001,5.75,-15.56,2d
2019-07-15_182746:920,-0.346222,-0.006592,-0.352844,-0.0032979999999999997,0.002788,-0.001366,-39.060001,6.56,-16.370001000000002,2d
2019-07-15_182746:940,-0.347229,-0.006072999999999999,-0.353333,-0.003573,0.002177,-0.0013050000000000002,-39.060001,6.56,-16.370001000000002,2d
2019-07-15_182746:960,-0.352325,-0.006592,-0.352325,-0.003573,0.001628,-0.001641,-40.560001,5.75,-16.0,2d
2019-07-15_182746:980,-0.34265100000000004,-0.005065999999999999,-0.35436999999999996,-0.003512,0.0014759999999999999,-0.001366,-40.560001,5.75,-16.0,2d
2019-07-15_182747:000,-0.344696,-0.006072999999999999,-0.355377,-0.003237,0.0010789999999999999,-0.0010609999999999999,-40.560001,5.75,-16.0,2d
2019-07-15_182747:020,-0.34674099999999997,-0.004059,-0.355896,-0.003054,0.000682,-0.000664,-40.560001,5.06,-16.0,2d
2019-07-15_182747:040,-0.347748,-0.005065999999999999,-0.358429,-0.003176,0.000407,-0.000328,-40.560001,5.06,-16.0,2d
2019-07-15_182747:060,-0.349274,-0.005065999999999999,-0.358917,-0.003237,0.000285,-0.00045099999999999996,-40.18,5.75,-14.75,2d
2019-07-15_182747:080,-0.353851,-0.004547,-0.356903,-0.0032979999999999997,0.000499,7.000000000000001e-06,-40.18,5.75,-14.75,2d
2019-07-15_182747:100,-0.353851,-0.0035399999999999997,-0.358429,-0.0036340000000000005,0.0012619999999999999,-5.4000000000000005e-05,-40.18,5.75,-14.75,2d
2019-07-15_182747:120,-0.352844,-0.004059,-0.358917,-0.0037560000000000002,0.001842,0.000221,-39.060001,5.75,-15.56,2d
2019-07-15_182747:140,-0.3508,-0.004547,-0.358429,-0.0036950000000000004,0.002239,0.000343,-39.060001,5.75,-15.56,2d
2019-07-15_182747:160,-0.349274,-0.005065999999999999,-0.35638400000000003,-0.003664,0.002635,0.00028199999999999997,-39.75,5.75,-15.18,2d
2019-07-15_182747:180,-0.34875500000000004,-0.004059,-0.35436999999999996,-0.003664,0.002574,0.00016,-39.75,5.75,-15.18,2d
2019-07-15_182747:200,-0.35180700000000004,-0.0035399999999999997,-0.35791,-0.0037560000000000002,0.002513,0.000221,-39.75,5.75,-15.18,2d
2019-07-15_182747:220,-0.35436999999999996,-0.001007,-0.35739099999999996,-0.004091,0.002696,6.8e-05,-39.75,5.06,-15.56,2d
2019-07-15_182747:240,-0.3508,-0.001007,-0.355377,-0.004488000000000001,0.003246,0.000221,-39.75,5.06,-15.56,2d
2019-07-15_182747:260,-0.34875500000000004,-0.002014,-0.349792,-0.005068,0.003703,0.000496,-39.75,5.5,-16.370001000000002,2d
2019-07-15_182747:280,-0.35436999999999996,-0.0055850000000000006,-0.353333,-0.005343,0.003124,0.000496,-39.75,5.5,-16.370001000000002,2d
2019-07-15_182747:300,-0.353851,-0.007111,-0.355377,-0.005129,0.0034289999999999998,0.000496,-39.75,5.5,-16.370001000000002,2d
2019-07-15_182747:320,-0.355896,-0.006592,-0.355377,-0.004732,0.003307,0.000129,-39.75,5.5,-14.75,2d
2019-07-15_182747:340,-0.353333,-0.007599,-0.352325,-0.003878,0.0036420000000000003,-5.4000000000000005e-05,-39.75,5.5,-14.75,2d
2019-07-15_182747:360,-0.352325,-0.006592,-0.352325,-0.0033280000000000002,0.00349,-0.000176,-39.369999,5.06,-16.370001000000002,2d
2019-07-15_182747:380,-0.35180700000000004,-0.0035399999999999997,-0.35131799999999996,-0.0028399999999999996,0.003124,-0.00011499999999999999,-39.369999,5.06,-16.370001000000002,2d
2019-07-15_182747:400,-0.352325,-0.001495,-0.350281,-0.002657,0.002757,0.00028199999999999997,-39.369999,5.06,-16.370001000000002,2d
2019-07-15_182747:420,-0.347229,-0.002014,-0.35131799999999996,-0.0028399999999999996,0.002757,0.000404,-39.75,5.06,-14.75,2d
2019-07-15_182747:440,-0.349274,-0.0030210000000000002,-0.352325,-0.002932,0.002239,0.00028199999999999997,-39.75,5.06,-14.75,2d
2019-07-15_182747:460,-0.349792,-0.000488,-0.349274,-0.002993,0.001842,0.000709,-40.869999,6.18,-15.18,2d
2019-07-15_182747:480,-0.354858,-0.0025329999999999997,-0.35180700000000004,-0.003054,0.00172,0.001503,-40.869999,6.18,-15.18,2d
2019-07-15_182747:500,-0.35131799999999996,-0.002014,-0.354858,-0.0034509999999999996,0.001842,0.001991,-40.869999,6.18,-15.18,2d
2019-07-15_182747:520,-0.3508,-0.005065999999999999,-0.355377,-0.0036950000000000004,0.00172,0.002357,-40.18,5.5,-16.370001000000002,2d
2019-07-15_182747:540,-0.35131799999999996,-0.005065999999999999,-0.354858,-0.003939,0.001537,0.00251,-40.18,5.5,-16.370001000000002,2d
2019-07-15_182747:560,-0.34875500000000004,-0.007111,-0.355377,-0.004213000000000001,0.001598,0.003303,-39.369999,5.5,-15.56,2d
2019-07-15_182747:580,-0.349274,-0.008118,-0.353851,-0.004152,0.001598,0.003425,-39.369999,5.5,-15.56,2d
2019-07-15_182747:600,-0.350281,-0.008636,-0.355896,-0.004091,0.001415,0.003151,-39.369999,5.5,-15.56,2d
2019-07-15_182747:620,-0.3508,-0.008118,-0.353851,-0.003878,0.001292,0.002784,-39.369999,5.5,-15.18,2d
2019-07-15_182747:640,-0.352325,-0.008636,-0.352325,-0.0036950000000000004,0.001353,0.0030280000000000003,-39.369999,5.5,-15.18,2d
2019-07-15_182747:660,-0.353333,-0.008118,-0.352844,-0.003512,0.00172,0.0033640000000000002,-40.18,5.75,-15.18,2d
2019-07-15_182747:680,-0.355377,-0.008118,-0.353333,-0.003664,0.001994,0.003639,-40.18,5.75,-15.18,2d
2019-07-15_182747:700,-0.354858,-0.006072999999999999,-0.352844,-0.003939,0.0024519999999999998,0.0043100000000000005,-40.18,5.75,-15.18,2d
2019-07-15_182747:720,-0.35638400000000003,-0.006072999999999999,-0.352325,-0.004427,0.002696,0.004554,-40.18,5.75,-15.56,2d
2019-07-15_182747:740,-0.35436999999999996,-0.007599,-0.35180700000000004,-0.0048850000000000005,0.003124,0.004615,-40.18,5.75,-15.56,2d
2019-07-15_182747:760,-0.353851,-0.008636,-0.35131799999999996,-0.005678,0.003093,0.004371,-39.75,5.5,-15.56,2d
2019-07-15_182747:780,-0.355377,-0.011169,-0.349274,-0.006197,0.002788,0.004371,-39.75,5.5,-15.56,2d
2019-07-15_182747:800,-0.356903,-0.013213999999999998,-0.3508,-0.006411,0.002849,0.003822,-39.75,5.5,-15.56,2d
2019-07-15_182747:820,-0.355377,-0.015747,-0.352325,-0.006533,0.003246,0.002388,-39.060001,6.56,-14.0,2d
2019-07-15_182747:840,-0.354858,-0.017792,-0.3508,-0.006136,0.0034289999999999998,0.002052,-39.060001,6.56,-14.0,2d
2019-07-15_182747:860,-0.35180700000000004,-0.016753999999999998,-0.35131799999999996,-0.005526,0.00352,0.001442,-40.18,6.18,-15.18,2d
2019-07-15_182747:880,-0.349792,-0.016266,-0.349792,-0.00461,0.00349,0.000709,-40.18,6.18,-15.18,2d
2019-07-15_182747:900,-0.35436999999999996,-0.012177,-0.3508,-0.003878,0.003093,-0.00023700000000000001,-40.18,6.18,-15.18,2d
2019-07-15_182747:920,-0.356903,-0.011687999999999999,-0.35131799999999996,-0.00339,0.003246,-0.000267,-39.75,6.56,-14.75,2d
2019-07-15_182747:940,-0.353333,-0.011169,-0.3508,-0.003237,0.0036420000000000003,-0.000908,-39.75,6.56,-14.75,2d
2019-07-15_182747:960,-0.352844,-0.010651,-0.3508,-0.002993,0.003764,-0.001366,-39.75,5.75,-14.75,2d
2019-07-15_182747:980,-0.352325,-0.011169,-0.349792,-0.0028399999999999996,0.0035810000000000004,-0.001183,-39.75,5.75,-14.75,2d
2019-07-15_182748:000,-0.355377,-0.010162000000000001,-0.350281,-0.002382,0.003368,-0.001458,-39.75,5.75,-14.75,2d
2019-07-15_182748:020,-0.358429,-0.011169,-0.3508,-0.0021079999999999996,0.0036420000000000003,-0.0013050000000000002,-39.75,5.75,-14.37,2d
2019-07-15_182748:040,-0.358429,-0.010651,-0.350281,-0.001986,0.004039,-0.001397,-39.75,5.75,-14.37,2d
2019-07-15_182748:060,-0.355377,-0.009125,-0.34875500000000004,-0.00165,0.004161,-0.001519,-39.369999,6.18,-16.0,2d
2019-07-15_182748:080,-0.352325,-0.009125,-0.34674099999999997,-0.0017109999999999998,0.003917,-0.0013050000000000002,-39.369999,6.18,-16.0,2d
2019-07-15_182748:100,-0.349792,-0.008118,-0.344696,-0.0018030000000000001,0.0031850000000000003,-0.0013050000000000002,-39.369999,6.18,-16.0,2d
2019-07-15_182748:120,-0.347229,-0.008118,-0.344696,-0.001925,0.0023,-0.0009689999999999999,-40.560001,5.75,-14.0,2d
2019-07-15_182748:140,-0.349274,-0.008118,-0.34368899999999997,-0.001864,0.0009570000000000001,-0.00045099999999999996,-40.560001,5.75,-14.0,2d
2019-07-15_182748:160,-0.349792,-0.009644,-0.344177,-0.001986,-0.000264,-0.000267,-39.369999,7.0,-15.56,2d
2019-07-15_182748:180,-0.348267,-0.008636,-0.34265100000000004,-0.0021079999999999996,-0.001637,7.000000000000001e-06,-39.369999,7.0,-15.56,2d
2019-07-15_182748:200,-0.35943600000000003,-0.008118,-0.34674099999999997,-0.0020469999999999998,-0.00298,0.000129,-39.369999,7.0,-15.56,2d
2019-07-15_182748:220,-0.37265,-0.010162000000000001,-0.352844,-0.002657,-0.002431,-0.001,-40.869999,5.5,-14.75,2d
2019-07-15_182748:240,-0.370636,-0.009644,-0.353851,-0.002993,-0.000386,-0.00158,-40.869999,5.5,-14.75,2d
2019-07-15_182748:260,-0.36044299999999996,-0.010651,-0.354858,-0.003237,0.001964,-0.00158,-39.369999,5.75,-15.18,2d
2019-07-15_182748:280,-0.358917,-0.010162000000000001,-0.350281,-0.002932,0.002788,-0.002037,-39.369999,5.75,-15.18,2d
2019-07-15_182748:300,-0.35638400000000003,-0.009125,-0.350281,-0.002779,0.0029100000000000003,-0.002251,-39.369999,5.75,-15.18,2d
2019-07-15_182748:320,-0.355896,-0.009644,-0.349792,-0.002321,0.00349,-0.0019760000000000003,-40.18,5.75,-14.75,2d
2019-07-15_182748:340,-0.35180700000000004,-0.007111,-0.347229,-0.001986,0.0031850000000000003,-0.001366,-40.18,5.75,-14.75,2d
2019-07-15_182748:360,-0.349792,-0.006592,-0.34674099999999997,-0.001375,0.002513,-0.0013050000000000002,-39.75,6.18,-14.75,2d
2019-07-15_182748:380,-0.350281,-0.005065999999999999,-0.344696,-0.0014060000000000001,0.001964,-0.001641,-39.75,6.18,-14.75,2d
2019-07-15_182748:400,-0.346222,-0.0035399999999999997,-0.344696,-0.001864,0.001353,-0.000573,-39.75,6.18,-14.75,2d
2019-07-15_182748:420,-0.344696,-0.005065999999999999,-0.345215,-0.002443,0.00022400000000000002,0.00028199999999999997,-40.560001,6.56,-15.18,2d
2019-07-15_182748:440,-0.347748,-0.0055850000000000006,-0.34674099999999997,-0.003176,-0.001118,-0.000176,-40.560001,6.56,-15.18,2d
2019-07-15_182748:460,-0.352325,-0.008118,-0.349274,-0.0034509999999999996,-0.002034,-0.000664,-39.75,5.06,-15.18,2d
2019-07-15_182748:480,-0.356903,-0.010162000000000001,-0.35131799999999996,-0.0034509999999999996,-0.002522,-0.001,-39.75,5.06,-15.18,2d
2019-07-15_182748:500,-0.35791,-0.011169,-0.353851,-0.00339,-0.002034,-0.0010609999999999999,-39.75,5.06,-15.18,2d
2019-07-15_182748:520,-0.35739099999999996,-0.010162000000000001,-0.352844,-0.002718,-0.001454,-0.001397,-39.75,5.75,-16.0,2d
2019-07-15_182748:540,-0.35436999999999996,-0.009644,-0.354858,-0.001772,-0.0005690000000000001,-0.001458,-39.75,5.75,-16.0,2d
2019-07-15_182748:560,-0.353333,-0.009125,-0.35180700000000004,-0.0014060000000000001,-0.00063,-0.001641,-39.75,5.5,-15.87,2d
2019-07-15_182748:580,-0.352325,-0.007599,-0.35131799999999996,-0.001192,-0.000508,-0.0012439999999999999,-39.75,5.5,-15.87,2d
2019-07-15_182748:600,-0.35131799999999996,-0.008118,-0.35131799999999996,-0.001192,-0.000508,-0.0009689999999999999,-39.75,5.5,-15.87,2d
2019-07-15_182748:620,-0.35180700000000004,-0.007111,-0.352325,-0.001375,-0.0007830000000000001,-0.001183,-40.18,4.68,-14.37,2d
2019-07-15_182748:640,-0.352325,-0.006072999999999999,-0.3508,-0.001772,-0.000661,-0.0011220000000000002,-40.18,4.68,-14.37,2d
2019-07-15_182748:660,-0.35638400000000003,-0.006592,-0.352325,-0.001925,-0.000661,-0.0008470000000000001,-39.369999,5.75,-14.75,2d
2019-07-15_182748:680,-0.35791,-0.005065999999999999,-0.353333,-0.0029010000000000004,0.000285,-0.00045099999999999996,-39.369999,5.75,-14.75,2d
2019-07-15_182748:700,-0.35791,-0.004547,-0.353851,-0.0033280000000000002,0.0010789999999999999,0.00016,-39.369999,5.75,-14.75,2d
2019-07-15_182748:720,-0.353333,-0.006592,-0.353333,-0.004,0.0017809999999999998,6.8e-05,-39.75,5.75,-15.56,2d
2019-07-15_182748:740,-0.3508,-0.006592,-0.353333,-0.004213000000000001,0.0016589999999999999,0.000496,-39.75,5.75,-15.56,2d
2019-07-15_182748:760,-0.352325,-0.008636,-0.353333,-0.004427,0.0016589999999999999,0.001167,-39.75,6.18,-16.370001000000002,2d
2019-07-15_182748:780,-0.352844,-0.009125,-0.352325,-0.004397,0.001628,0.001442,-39.75,6.18,-16.370001000000002,2d
2019-07-15_182748:800,-0.3508,-0.010651,-0.352325,-0.004275,0.0014759999999999999,0.001381,-39.75,6.18,-16.370001000000002,2d
2019-07-15_182748:820,-0.349792,-0.010162000000000001,-0.353851,-0.004275,0.00172,0.001106,-40.560001,5.5,-14.75,2d
2019-07-15_182748:840,-0.347229,-0.009644,-0.353333,-0.00403,0.001628,0.001106,-40.560001,5.5,-14.75,2d
2019-07-15_182748:860,-0.348267,-0.010162000000000001,-0.354858,-0.004,0.0014759999999999999,0.000984,-40.18,5.5,-16.370001000000002,2d
2019-07-15_182748:880,-0.348267,-0.009644,-0.353333,-0.003939,0.001201,0.001045,-40.18,5.5,-16.370001000000002,2d
2019-07-15_182748:900,-0.34875500000000004,-0.009644,-0.353851,-0.003939,0.0008039999999999999,0.000984,-40.18,5.5,-16.370001000000002,2d
2019-07-15_182748:920,-0.349792,-0.011169,-0.355377,-0.003664,0.000682,0.0008619999999999999,-39.75,5.5,-15.56,2d
2019-07-15_182748:940,-0.350281,-0.010162000000000001,-0.35638400000000003,-0.003664,0.000682,0.000648,-39.75,5.5,-15.56,2d
2019-07-15_182748:960,-0.3508,-0.008636,-0.35739099999999996,-0.003664,0.000865,0.000709,-40.18,5.75,-16.0,2d
2019-07-15_182748:980,-0.352844,-0.008118,-0.35638400000000003,-0.003664,0.0010789999999999999,0.0007700000000000001,-40.18,5.75,-16.0,2d
2019-07-15_182749:000,-0.353851,-0.008636,-0.356903,-0.0036950000000000004,0.001628,0.000587,-40.18,5.75,-16.0,2d
2019-07-15_182749:020,-0.352844,-0.008636,-0.35739099999999996,-0.0037560000000000002,0.002239,0.000831,-39.75,5.06,-15.56,2d
2019-07-15_182749:040,-0.352325,-0.009644,-0.355377,-0.004,0.002574,0.0008619999999999999,-39.75,5.06,-15.56,2d
2019-07-15_182749:060,-0.349792,-0.010651,-0.355896,-0.003939,0.002788,0.000709,-39.75,5.5,-16.370001000000002,2d
2019-07-15_182749:080,-0.349792,-0.010651,-0.353333,-0.0037560000000000002,0.002849,0.000831,-39.75,5.5,-16.370001000000002,2d
2019-07-15_182749:100,-0.35180700000000004,-0.009125,-0.353333,-0.0036340000000000005,0.002635,0.001228,-39.75,5.5,-16.370001000000002,2d
2019-07-15_182749:120,-0.35131799999999996,-0.009125,-0.35180700000000004,-0.003573,0.002513,0.001442,-39.75,5.06,-14.75,2d
2019-07-15_182749:140,-0.34875500000000004,-0.008636,-0.352325,-0.0034509999999999996,0.002116,0.001625,-39.75,5.06,-14.75,2d
2019-07-15_182749:160,-0.349792,-0.007111,-0.352325,-0.00339,0.001842,0.001716,-38.68,5.75,-16.370001000000002,2d
2019-07-15_182749:180,-0.34875500000000004,-0.007111,-0.350281,-0.003237,0.001537,0.001991,-38.68,5.75,-16.370001000000002,2d
2019-07-15_182749:200,-0.35131799999999996,-0.006592,-0.352325,-0.00339,0.001598,0.002357,-38.68,5.75,-16.370001000000002,2d
2019-07-15_182749:220,-0.355377,-0.008636,-0.352844,-0.0034509999999999996,0.0017809999999999998,0.002449,-39.369999,6.18,-15.56,2d
2019-07-15_182749:240,-0.35180700000000004,-0.009644,-0.353333,-0.0032979999999999997,0.002635,0.0026320000000000002,-39.369999,6.18,-15.56,2d
2019-07-15_182749:260,-0.352325,-0.012695,-0.353851,-0.0031149999999999997,0.002361,0.0021739999999999997,-39.060001,5.5,-15.56,2d
2019-07-15_182749:280,-0.34674099999999997,-0.012695,-0.348267,-0.0025960000000000002,0.002177,0.002571,-39.060001,5.5,-15.56,2d
2019-07-15_182749:300,-0.347748,-0.013213999999999998,-0.35131799999999996,-0.002321,0.001598,0.0033640000000000002,-39.060001,5.5,-15.56,2d
2019-07-15_182749:320,-0.3508,-0.015747,-0.350281,-0.0021079999999999996,0.000285,0.003242,-39.75,5.75,-15.18,2d
2019-07-15_182749:340,-0.352844,-0.013702,-0.35131799999999996,-0.0015279999999999998,-0.000233,0.003242,-39.75,5.75,-15.18,2d
2019-07-15_182749:360,-0.350281,-0.014221000000000001,-0.355896,-0.001467,-0.000233,0.002235,-39.369999,5.5,-15.18,2d
2019-07-15_182749:380,-0.350281,-0.012695,-0.354858,-0.001925,-0.000325,0.001045,-39.369999,5.5,-15.18,2d
2019-07-15_182749:400,-0.347748,-0.012177,-0.355896,-0.002321,-0.00044699999999999997,0.000923,-39.369999,5.5,-15.18,2d
2019-07-15_182749:420,-0.35131799999999996,-0.013213999999999998,-0.35436999999999996,-0.002993,-0.0005690000000000001,0.000221,-39.060001,6.18,-15.87,2d
2019-07-15_182749:440,-0.358429,-0.014740000000000001,-0.356903,-0.0033280000000000002,0.000499,-0.0009689999999999999,-39.060001,6.18,-15.87,2d
2019-07-15_182749:460,-0.355896,-0.015228,-0.35943600000000003,-0.003512,0.001994,-0.0017929999999999999,-38.75,6.56,-14.0,2d
2019-07-15_182749:480,-0.3508,-0.012177,-0.35739099999999996,-0.0032979999999999997,0.002635,-0.0017929999999999999,-38.75,6.56,-14.0,2d
2019-07-15_182749:500,-0.352844,-0.012695,-0.356903,-0.002932,0.002971,-0.0012439999999999999,-38.75,6.56,-14.0,2d
2019-07-15_182749:520,-0.35436999999999996,-0.013213999999999998,-0.358917,-0.002718,0.00349,-0.001854,-39.369999,5.5,-14.75,2d
2019-07-15_182749:540,-0.352844,-0.010162000000000001,-0.35791,-0.002535,0.004039,-0.00216,-39.369999,5.5,-14.75,2d
2019-07-15_182749:560,-0.34674099999999997,-0.010651,-0.35739099999999996,-0.002718,0.0041,-0.002251,-39.369999,6.56,-14.75,2d
2019-07-15_182749:580,-0.348267,-0.010162000000000001,-0.356903,-0.002779,0.003703,-0.002526,-39.369999,6.56,-14.75,2d
2019-07-15_182749:600,-0.3508,-0.010162000000000001,-0.35436999999999996,-0.0029010000000000004,0.003368,-0.002709,-39.369999,6.56,-14.75,2d
2019-07-15_182749:620,-0.35180700000000004,-0.012177,-0.353851,-0.003054,0.0035810000000000004,-0.0035020000000000003,-39.369999,5.75,-15.56,2d
2019-07-15_182749:640,-0.348267,-0.011169,-0.354858,-0.002993,0.0036420000000000003,-0.00396,-39.369999,5.75,-15.56,2d
2019-07-15_182749:660,-0.349274,-0.011169,-0.35436999999999996,-0.002535,0.0034289999999999998,-0.0037159999999999997,-40.560001,5.75,-14.75,2d
2019-07-15_182749:680,-0.350281,-0.012695,-0.352325,-0.002443,0.003124,-0.00396,-40.560001,5.75,-14.75,2d
2019-07-15_182749:700,-0.352325,-0.011687999999999999,-0.353851,-0.001772,0.002849,-0.004448,-40.560001,5.75,-14.75,2d
2019-07-15_182749:720,-0.355896,-0.012177,-0.35436999999999996,-0.00165,0.00352,-0.005242,-38.68,5.5,-14.75,2d
2019-07-15_182749:740,-0.356903,-0.010162000000000001,-0.353333,-0.00165,0.004161,-0.006554000000000001,-38.68,5.5,-14.75,2d
2019-07-15_182749:760,-0.352844,-0.009644,-0.353333,-0.0020469999999999998,0.0042829999999999995,-0.006829000000000001,-39.75,5.75,-14.75,2d
2019-07-15_182749:780,-0.354858,-0.008118,-0.353333,-0.002199,0.0041,-0.007164,-39.75,5.75,-14.75,2d
2019-07-15_182749:800,-0.358429,-0.006592,-0.3508,-0.0022600000000000003,0.003978,-0.007164,-39.75,5.75,-14.75,2d
2019-07-15_182749:820,-0.356903,-0.006592,-0.349792,-0.001772,0.004222,-0.005639,-40.18,5.5,-15.18,2d
2019-07-15_182749:840,-0.355377,-0.006072999999999999,-0.34875500000000004,-0.0015279999999999998,0.004497,-0.004235,-40.18,5.5,-15.18,2d
2019-07-15_182749:860,-0.35436999999999996,-0.0035399999999999997,-0.349274,-0.001375,0.004497,-0.002648,-39.369999,5.5,-14.75,2d
2019-07-15_182749:880,-0.353333,-0.001495,-0.34570300000000004,-0.001192,0.003978,-0.001366,-39.369999,5.5,-14.75,2d
2019-07-15_182749:900,-0.355896,0.001007,-0.345215,-0.0017109999999999998,0.0035810000000000004,-5.4000000000000005e-05,-39.369999,5.5,-14.75,2d
2019-07-15_182749:920,-0.35638400000000003,0.000488,-0.345215,-0.002535,0.003368,0.000984,-39.75,5.06,-15.18,2d
2019-07-15_182749:940,-0.355896,-0.001495,-0.346222,-0.003573,0.003368,0.001258,-39.75,5.06,-15.18,2d
2019-07-15_182749:960,-0.35638400000000003,-0.004059,-0.34674099999999997,-0.0048850000000000005,0.0031850000000000003,0.001381,-40.869999,5.06,-14.37,2d
2019-07-15_182749:980,-0.35638400000000003,-0.006592,-0.34368899999999997,-0.005068,0.0031850000000000003,0.001655,-40.869999,5.06,-14.37,2d
2019-07-15_182750:000,-0.35638400000000003,-0.007111,-0.345215,-0.0048850000000000005,0.002757,0.001838,-40.869999,5.06,-14.37,2d
2019-07-15_182750:020,-0.358429,-0.007599,-0.34368899999999997,-0.004427,0.0023,0.0021739999999999997,-39.060001,4.68,-14.75,2d
2019-07-15_182750:040,-0.36044299999999996,-0.007599,-0.345215,-0.00403,0.002116,0.002357,-39.060001,4.68,-14.75,2d
2019-07-15_182750:060,-0.35943600000000003,-0.006072999999999999,-0.34570300000000004,-0.004152,0.0024519999999999998,0.002388,-40.560001,4.68,-14.37,2d
2019-07-15_182750:080,-0.356903,-0.0055850000000000006,-0.344177,-0.004549,0.002391,0.002388,-40.560001,4.68,-14.37,2d
2019-07-15_182750:100,-0.359955,-0.0055850000000000006,-0.34570300000000004,-0.004946,0.002391,0.002113,-40.560001,4.68,-14.37,2d
2019-07-15_182750:120,-0.35943600000000003,-0.0055850000000000006,-0.34674099999999997,-0.005221,0.002513,0.001991,-39.75,5.06,-14.0,2d
2019-07-15_182750:140,-0.358917,-0.008118,-0.34674099999999997,-0.005404,0.002971,0.001777,-39.75,5.06,-14.0,2d
2019-07-15_182750:160,-0.35638400000000003,-0.007599,-0.34674099999999997,-0.005282,0.0029100000000000003,0.001655,-40.18,4.68,-14.0,2d
2019-07-15_182750:180,-0.356903,-0.009644,-0.347748,-0.004824,0.002635,0.00132,-40.18,4.68,-14.0,2d
2019-07-15_182750:200,-0.35739099999999996,-0.009125,-0.347748,-0.004427,0.002696,0.000496,-40.18,4.68,-14.0,2d
2019-07-15_182750:220,-0.355896,-0.007599,-0.34674099999999997,-0.003878,0.002513,7.000000000000001e-06,-40.560001,5.06,-15.56,2d
2019-07-15_182750:240,-0.364014,-0.008636,-0.347229,-0.0034509999999999996,0.002361,-0.000573,-40.560001,5.06,-15.56,2d
2019-07-15_182750:260,-0.358917,-0.006072999999999999,-0.34674099999999997,-0.0031149999999999997,0.00349,-0.000328,-40.869999,4.25,-14.75,2d
2019-07-15_182750:280,-0.359955,-0.0055850000000000006,-0.34570300000000004,-0.002993,0.003368,0.000587,-40.869999,4.25,-14.75,2d
2019-07-15_182750:300,-0.35791,-0.006592,-0.345215,-0.0032979999999999997,0.003246,0.000526,-40.869999,4.25,-14.75,2d
2019-07-15_182750:320,-0.358429,-0.006592,-0.34570300000000004,-0.0034509999999999996,0.003032,-0.000512,-40.560001,4.68,-14.37,2d
2019-07-15_182750:340,-0.36044299999999996,-0.006592,-0.344696,-0.003664,0.002849,-0.000908,-40.560001,4.68,-14.37,2d
2019-07-15_182750:360,-0.358429,-0.007111,-0.345215,-0.0036950000000000004,0.0029100000000000003,-0.000267,-40.560001,5.06,-14.37,2d
2019-07-15_182750:380,-0.35739099999999996,-0.006592,-0.344177,-0.003573,0.0029100000000000003,-5.4000000000000005e-05,-40.560001,5.06,-14.37,2d
2019-07-15_182750:400,-0.35638400000000003,-0.006592,-0.34368899999999997,-0.0032979999999999997,0.002696,6.8e-05,-40.560001,5.06,-14.37,2d
2019-07-15_182750:420,-0.359955,-0.0055850000000000006,-0.344696,-0.003237,0.0024519999999999998,0.000404,-39.75,4.25,-14.37,2d
2019-07-15_182750:440,-0.36044299999999996,-0.006072999999999999,-0.34265100000000004,-0.003237,0.002513,0.000648,-39.75,4.25,-14.37,2d
2019-07-15_182750:460,-0.36349499999999996,-0.004547,-0.34265100000000004,-0.0034509999999999996,0.002239,0.000923,-40.560001,5.06,-14.37,2d
2019-07-15_182750:480,-0.364014,-0.005065999999999999,-0.34063699999999997,-0.003573,0.002239,0.001228,-40.560001,5.06,-14.37,2d
2019-07-15_182750:500,-0.361481,-0.006072999999999999,-0.34265100000000004,-0.00403,0.0024519999999999998,0.001381,-40.560001,5.06,-14.37,2d
2019-07-15_182750:520,-0.36349499999999996,-0.006592,-0.338593,-0.003939,0.0023,0.001777,-39.75,5.5,-15.18,2d
2019-07-15_182750:540,-0.36248800000000003,-0.006072999999999999,-0.34063699999999997,-0.004152,0.002361,0.0018989999999999999,-39.75,5.5,-15.18,2d
2019-07-15_182750:560,-0.364014,-0.006592,-0.341125,-0.004213000000000001,0.002513,0.002052,-39.75,5.75,-14.37,2d
2019-07-15_182750:580,-0.360962,-0.006592,-0.33758499999999997,-0.004427,0.0024519999999999998,0.002357,-39.75,5.75,-14.37,2d
2019-07-15_182750:600,-0.36044299999999996,-0.007111,-0.339111,-0.004549,0.002116,0.0029059999999999997,-39.75,5.75,-14.37,2d
2019-07-15_182750:620,-0.359955,-0.007111,-0.3396,-0.004946,0.001994,0.002693,-39.75,5.5,-14.37,2d
2019-07-15_182750:640,-0.360962,-0.006072999999999999,-0.3396,-0.005129,0.0017809999999999998,0.002388,-39.75,5.5,-14.37,2d
2019-07-15_182750:660,-0.36248800000000003,-0.008118,-0.34368899999999997,-0.005343,0.00172,0.002693,-39.75,4.68,-14.37,2d
2019-07-15_182750:680,-0.36044299999999996,-0.007599,-0.342163,-0.005404,0.001292,0.002967,-39.75,4.68,-14.37,2d
2019-07-15_182750:700,-0.36044299999999996,-0.009644,-0.34368899999999997,-0.005465,0.00114,0.0026320000000000002,-39.75,4.68,-14.37,2d
2019-07-15_182750:720,-0.360962,-0.008636,-0.344177,-0.005343,0.0010789999999999999,0.001838,-40.560001,5.06,-14.37,2d
2019-07-15_182750:740,-0.36044299999999996,-0.009644,-0.344177,-0.005068,0.000743,0.001564,-40.560001,5.06,-14.37,2d
2019-07-15_182750:760,-0.360962,-0.010162000000000001,-0.34317,-0.004488000000000001,0.000865,0.001716,-40.869999,4.68,-13.18,2d
2019-07-15_182750:780,-0.360962,-0.008636,-0.34368899999999997,-0.003939,0.0008960000000000001,0.001442,-40.869999,4.68,-13.18,2d
2019-07-15_182750:800,-0.359955,-0.009125,-0.344696,-0.0036950000000000004,0.001292,0.00132,-40.869999,4.68,-13.18,2d
2019-07-15_182750:820,-0.35943600000000003,-0.007111,-0.344696,-0.0036950000000000004,0.001292,0.001381,-40.560001,6.18,-15.56,2d
2019-07-15_182750:840,-0.359955,-0.006592,-0.344177,-0.003512,0.001292,0.001381,-40.560001,6.18,-15.56,2d
2019-07-15_182750:860,-0.361969,-0.009125,-0.34570300000000004,-0.0034509999999999996,0.001598,0.001045,-40.560001,5.75,-13.56,2d
2019-07-15_182750:880,-0.361969,-0.009125,-0.34570300000000004,-0.003573,0.0016589999999999999,0.001228,-40.560001,5.75,-13.56,2d
2019-07-15_182750:900,-0.359955,-0.010162000000000001,-0.34570300000000004,-0.0033280000000000002,0.0016589999999999999,0.001106,-40.560001,5.75,-13.56,2d
2019-07-15_182750:920,-0.36044299999999996,-0.009644,-0.344177,-0.00339,0.001628,0.0007700000000000001,-39.369999,5.5,-14.37,2d
2019-07-15_182750:940,-0.360962,-0.010162000000000001,-0.344177,-0.003054,0.001537,0.0007700000000000001,-39.369999,5.5,-14.37,2d
2019-07-15_182750:960,-0.361481,-0.009644,-0.34368899999999997,-0.003176,0.0016589999999999999,0.000343,-40.560001,5.75,-14.0,2d
2019-07-15_182750:980,-0.358917,-0.011687999999999999,-0.34265100000000004,-0.0034509999999999996,0.00172,-0.000267,-40.560001,5.75,-14.0,2d
2019-07-15_182751:000,-0.361481,-0.012177,-0.34368899999999997,-0.003176,0.001628,-0.000573,-40.560001,5.75,-14.0,2d
2019-07-15_182751:020,-0.361481,-0.011169,-0.344696,-0.003176,0.0016589999999999999,-0.0009689999999999999,-40.560001,5.06,-15.18,2d
2019-07-15_182751:040,-0.361969,-0.010651,-0.34265100000000004,-0.002993,0.0019030000000000002,-0.000786,-40.560001,5.06,-15.18,2d
2019-07-15_182751:060,-0.364014,-0.011169,-0.34317,-0.002718,0.0019030000000000002,-0.000573,-40.18,4.68,-14.0,2d
2019-07-15_182751:080,-0.365021,-0.009125,-0.34317,-0.0025960000000000002,0.002177,-0.000786,-40.18,4.68,-14.0,2d
2019-07-15_182751:100,-0.361481,-0.008636,-0.34265100000000004,-0.002779,0.002361,-0.000725,-40.18,4.68,-14.0,2d
2019-07-15_182751:120,-0.358917,-0.007111,-0.34317,-0.0029010000000000004,0.002177,-0.000908,-40.18,4.68,-15.87,2d
2019-07-15_182751:140,-0.363007,-0.008118,-0.341125,-0.0028399999999999996,0.001994,-0.000634,-40.18,4.68,-15.87,2d
2019-07-15_182751:160,-0.36248800000000003,-0.008118,-0.34265100000000004,-0.003176,0.002116,-0.000634,-40.18,5.75,-14.75,2d
2019-07-15_182751:180,-0.361481,-0.007599,-0.342163,-0.0031149999999999997,0.002239,-0.00045099999999999996,-40.18,5.75,-14.75,2d
2019-07-15_182751:200,-0.359955,-0.008118,-0.34317,-0.0032979999999999997,0.002239,-0.000573,-40.18,5.75,-14.75,2d
2019-07-15_182751:220,-0.359955,-0.008118,-0.34317,-0.003176,0.001842,-0.000389,-40.560001,5.75,-13.18,2d
2019-07-15_182751:240,-0.36349499999999996,-0.007111,-0.34317,-0.0031149999999999997,0.0016589999999999999,-0.000176,-40.560001,5.75,-13.18,2d
2019-07-15_182751:260,-0.36248800000000003,-0.006592,-0.344177,-0.0029010000000000004,0.00172,0.000404,-39.75,5.06,-15.56,2d
2019-07-15_182751:280,-0.364532,-0.006072999999999999,-0.344696,-0.002993,0.0023,0.000129,-39.75,5.06,-15.56,2d
2019-07-15_182751:300,-0.358917,-0.0035399999999999997,-0.341125,-0.0033280000000000002,0.002513,0.001167,-39.75,5.06,-15.56,2d
2019-07-15_182751:320,-0.36248800000000003,-0.006072999999999999,-0.341644,-0.004275,0.002513,0.001228,-40.18,5.75,-14.37,2d
2019-07-15_182751:340,-0.358429,-0.007111,-0.341644,-0.004824,0.001994,0.000831,-40.18,5.75,-14.37,2d
2019-07-15_182751:360,-0.35791,-0.008118,-0.34265100000000004,-0.004793,0.001537,0.00016,-40.18,5.06,-14.75,2d
2019-07-15_182751:380,-0.35739099999999996,-0.008636,-0.344177,-0.004824,0.0012619999999999999,-0.000176,-40.18,5.06,-14.75,2d
2019-07-15_182751:400,-0.354858,-0.011169,-0.34674099999999997,-0.004213000000000001,0.000346,0.00028199999999999997,-40.18,5.06,-14.75,2d
2019-07-15_182751:420,-0.36044299999999996,-0.010162000000000001,-0.347748,-0.003817,0.000133,0.00016,-40.18,5.75,-14.0,2d
2019-07-15_182751:440,-0.364532,-0.009125,-0.347748,-0.0029010000000000004,0.0012619999999999999,-0.00045099999999999996,-40.18,5.75,-14.0,2d
2019-07-15_182751:460,-0.36654699999999996,-0.007111,-0.348267,-0.002718,0.001842,-0.00045099999999999996,-40.18,5.06,-13.56,2d
2019-07-15_182751:480,-0.366058,-0.006072999999999999,-0.34875500000000004,-0.002382,0.0036420000000000003,-0.00023700000000000001,-40.18,5.06,-13.56,2d
2019-07-15_182751:500,-0.361969,-0.006072999999999999,-0.34570300000000004,-0.002443,0.0045579999999999996,6.8e-05,-40.18,5.06,-13.56,2d
2019-07-15_182751:520,-0.360962,-0.0055850000000000006,-0.345215,-0.002382,0.004649,0.000404,-40.18,4.25,-13.87,2d
2019-07-15_182751:540,-0.360962,-0.006592,-0.340118,-0.0025960000000000002,0.004436,6.8e-05,-40.18,4.25,-13.87,2d
2019-07-15_182751:560,-0.361969,-0.006592,-0.3396,-0.002993,0.004314,0.000404,-40.18,5.75,-14.0,2d
2019-07-15_182751:580,-0.364014,-0.006072999999999999,-0.338074,-0.003054,0.004161,0.000404,-40.18,5.75,-14.0,2d
2019-07-15_182751:600,-0.364532,-0.006072999999999999,-0.336548,-0.003512,0.004039,0.0007700000000000001,-40.18,5.75,-14.0,2d
2019-07-15_182751:620,-0.365021,-0.0055850000000000006,-0.33605999999999997,-0.0036340000000000005,0.0042829999999999995,0.00132,-40.18,5.5,-14.37,2d
2019-07-15_182751:640,-0.368591,-0.007111,-0.334015,-0.004091,0.004314,0.000648,-40.18,5.5,-14.37,2d
2019-07-15_182751:660,-0.36554000000000003,-0.007111,-0.333496,-0.004213000000000001,0.004436,0.000496,-40.560001,5.5,-14.0,2d
2019-07-15_182751:680,-0.36554000000000003,-0.008636,-0.33300799999999997,-0.004488000000000001,0.0036420000000000003,0.001503,-40.560001,5.5,-14.0,2d
2019-07-15_182751:700,-0.366058,-0.010162000000000001,-0.33197,-0.004397,0.0034289999999999998,0.001106,-40.560001,5.5,-14.0,2d
2019-07-15_182751:720,-0.368591,-0.009644,-0.33300799999999997,-0.004275,0.002971,0.000984,-40.560001,5.06,-13.56,2d
2019-07-15_182751:740,-0.369598,-0.010651,-0.33300799999999997,-0.004091,0.003124,0.000984,-40.560001,5.06,-13.56,2d
2019-07-15_182751:760,-0.36911,-0.010162000000000001,-0.33300799999999997,-0.004213000000000001,0.003124,0.000984,-40.560001,5.06,-13.56,2d
2019-07-15_182751:780,-0.364532,-0.008636,-0.332489,-0.004397,0.002849,0.001045,-39.75,5.75,-14.0,2d
2019-07-15_182751:800,-0.364014,-0.008636,-0.33197,-0.004488000000000001,0.002361,0.0008619999999999999,-39.75,5.75,-14.0,2d
2019-07-15_182751:820,-0.365021,-0.009644,-0.332489,-0.004488000000000001,0.0017809999999999998,0.0008619999999999999,-40.18,6.18,-14.0,2d
2019-07-15_182751:840,-0.364532,-0.011169,-0.33197,-0.004091,0.001415,0.000709,-40.18,6.18,-14.0,2d
2019-07-15_182751:860,-0.364014,-0.011169,-0.333496,-0.003573,0.0009570000000000001,0.000709,-39.75,4.68,-13.56,2d
2019-07-15_182751:880,-0.364014,-0.008118,-0.334534,-0.0034509999999999996,0.000682,0.001106,-39.75,4.68,-13.56,2d
2019-07-15_182751:900,-0.364532,-0.006072999999999999,-0.334015,-0.0036340000000000005,0.000285,0.001991,-39.75,4.68,-13.56,2d
2019-07-15_182751:920,-0.368073,-0.004547,-0.33605999999999997,-0.0036950000000000004,0.00016299999999999998,0.0021739999999999997,-39.75,5.75,-12.75,2d
2019-07-15_182751:940,-0.368073,-0.004547,-0.337067,-0.004946,0.000407,0.002388,-39.75,5.75,-12.75,2d
2019-07-15_182751:960,-0.368073,-0.006072999999999999,-0.3396,-0.005343,0.000682,0.002449,-39.75,5.75,-12.75,2d
2019-07-15_182751:980,-0.36706500000000003,-0.007111,-0.3396,-0.006197,0.000865,0.002357,-40.18,5.06,-13.56,2d
2019-07-15_182752:000,-0.36654699999999996,-0.011169,-0.339111,-0.006136,0.00114,0.002235,-40.18,5.06,-13.56,2d
2019-07-15_182752:020,-0.367584,-0.013213999999999998,-0.3396,-0.005953,0.001292,0.00196,-40.560001,5.5,-13.56,2d
2019-07-15_182752:040,-0.36654699999999996,-0.013702,-0.338593,-0.005343,0.0012619999999999999,0.001655,-40.560001,5.5,-13.56,2d
2019-07-15_182752:060,-0.365021,-0.012177,-0.338593,-0.004427,0.001415,0.001564,-40.560001,5.5,-13.56,2d
2019-07-15_182752:080,-0.364014,-0.010651,-0.338593,-0.003939,0.001292,0.001564,-40.560001,5.75,-12.75,2d
2019-07-15_182752:100,-0.36349499999999996,-0.010162000000000001,-0.339111,-0.00339,0.001201,0.0018989999999999999,-40.560001,5.75,-12.75,2d
2019-07-15_182752:120,-0.364532,-0.009644,-0.339111,-0.0033280000000000002,0.00114,0.0018989999999999999,-40.869999,4.25,-14.0,2d
2019-07-15_182752:140,-0.364532,-0.007111,-0.338074,-0.003573,0.0009570000000000001,0.002113,-40.869999,4.25,-14.0,2d
2019-07-15_182752:160,-0.36554000000000003,-0.008118,-0.338593,-0.0036340000000000005,0.0010789999999999999,0.002357,-40.869999,4.25,-14.0,2d
2019-07-15_182752:180,-0.36654699999999996,-0.008118,-0.339111,-0.004091,0.001353,0.002693,-40.560001,5.75,-13.87,2d
2019-07-15_182752:200,-0.36706500000000003,-0.009644,-0.340118,-0.004213000000000001,0.001353,0.002571,-40.560001,5.75,-13.87,2d
2019-07-15_182752:220,-0.36554000000000003,-0.010651,-0.3396,-0.004336,0.0016589999999999999,0.002357,-40.560001,4.68,-12.75,2d
2019-07-15_182752:240,-0.36654699999999996,-0.011687999999999999,-0.339111,-0.004275,0.0017809999999999998,0.002235,-40.560001,4.68,-12.75,2d
2019-07-15_182752:260,-0.36654699999999996,-0.011687999999999999,-0.3396,-0.004275,0.001964,0.00196,-40.560001,4.68,-12.75,2d
2019-07-15_182752:280,-0.36706500000000003,-0.011687999999999999,-0.34063699999999997,-0.004213000000000001,0.002177,0.001564,-40.560001,5.75,-14.37,2d
2019-07-15_182752:300,-0.36706500000000003,-0.012177,-0.340118,-0.003878,0.002361,0.001045,-40.560001,5.75,-14.37,2d
2019-07-15_182752:320,-0.364532,-0.010162000000000001,-0.338074,-0.003878,0.002849,0.0007700000000000001,-40.18,6.18,-15.18,2d
2019-07-15_182752:340,-0.36654699999999996,-0.009644,-0.338074,-0.003817,0.0029100000000000003,0.001625,-40.18,6.18,-15.18,2d
2019-07-15_182752:360,-0.36248800000000003,-0.010162000000000001,-0.338593,-0.004397,0.002849,0.001564,-40.18,6.18,-14.37,2d
2019-07-15_182752:380,-0.364014,-0.009644,-0.339111,-0.004549,0.0024519999999999998,0.0008619999999999999,-40.18,6.18,-14.37,2d
2019-07-15_182752:400,-0.36706500000000003,-0.012177,-0.340118,-0.005068,0.002239,-5.4000000000000005e-05,-40.18,6.18,-14.37,2d
2019-07-15_182752:420,-0.358917,-0.013213999999999998,-0.338593,-0.0048850000000000005,0.002361,0.00016,-40.18,5.75,-14.37,2d
2019-07-15_182752:440,-0.352325,-0.016753999999999998,-0.33605999999999997,-0.004427,0.0014759999999999999,0.000221,-40.18,5.75,-14.37,2d
2019-07-15_182752:460,-0.356903,-0.017273,-0.33605999999999997,-0.003512,1.1e-05,-0.000328,-40.18,5.75,-14.37,2d
2019-07-15_182752:480,-0.36554000000000003,-0.014221000000000001,-0.338074,-0.0025050000000000003,-0.001302,-0.000573,-40.869999,6.18,-14.0,2d
2019-07-15_182752:500,-0.37265,-0.011169,-0.338593,-0.001864,-0.0009660000000000001,-0.00011499999999999999,-40.869999,6.18,-14.0,2d
2019-07-15_182752:520,-0.37316900000000003,-0.007599,-0.341125,-0.001864,0.00016299999999999998,0.000343,-40.869999,5.5,-14.37,2d
2019-07-15_182752:540,-0.37112399999999995,-0.006592,-0.338593,-0.0025050000000000003,0.001415,0.00028199999999999997,-40.869999,5.5,-14.37,2d
2019-07-15_182752:560,-0.366058,-0.007599,-0.338074,-0.0032979999999999997,0.002116,0.000221,-40.18,5.06,-13.56,2d
2019-07-15_182752:580,-0.36654699999999996,-0.009644,-0.338593,-0.0037560000000000002,0.002055,-0.00011499999999999999,-40.18,5.06,-13.56,2d
2019-07-15_182752:600,-0.366058,-0.010651,-0.33605999999999997,-0.004091,0.0019030000000000002,6.8e-05,-40.18,5.06,-13.56,2d
2019-07-15_182752:620,-0.361481,-0.011687999999999999,-0.338593,-0.004275,0.0019030000000000002,0.00028199999999999997,-40.18,5.5,-14.75,2d
2019-07-15_182752:640,-0.360962,-0.013702,-0.333496,-0.00403,0.000682,0.000496,-40.18,5.5,-14.75,2d
2019-07-15_182752:660,-0.361969,-0.011687999999999999,-0.335541,-0.003664,-0.00011100000000000001,0.000984,-40.18,5.5,-14.75,2d
2019-07-15_182752:680,-0.370636,-0.013213999999999998,-0.333496,-0.003817,-0.00011100000000000001,0.000923,-40.869999,5.06,-13.87,2d
2019-07-15_182752:700,-0.374176,-0.011687999999999999,-0.330963,-0.0037560000000000002,0.0014759999999999999,0.000496,-40.869999,5.06,-13.87,2d
2019-07-15_182752:720,-0.372162,-0.012177,-0.34063699999999997,-0.0036950000000000004,0.002239,0.000343,-40.560001,5.06,-14.37,2d
2019-07-15_182752:740,-0.36554000000000003,-0.013702,-0.338593,-0.0037560000000000002,0.003032,0.000526,-40.560001,5.06,-14.37,2d
2019-07-15_182752:760,-0.364014,-0.011687999999999999,-0.3396,-0.0036950000000000004,0.002635,-0.00023700000000000001,-40.560001,5.06,-14.37,2d
2019-07-15_182752:780,-0.364014,-0.011169,-0.3396,-0.00403,0.002574,-0.00045099999999999996,-39.75,5.75,-13.56,2d
2019-07-15_182752:800,-0.364532,-0.010162000000000001,-0.340118,-0.004091,0.002361,-0.00011499999999999999,-39.75,5.75,-13.56,2d
2019-07-15_182752:820,-0.36554000000000003,-0.010651,-0.34063699999999997,-0.004275,0.002177,-0.000573,-40.18,6.18,-15.18,2d
2019-07-15_182752:840,-0.36044299999999996,-0.010651,-0.341125,-0.004152,0.0019030000000000002,-0.000267,-40.18,6.18,-15.18,2d
2019-07-15_182752:860,-0.359955,-0.011687999999999999,-0.340118,-0.003878,0.00114,0.000343,-40.18,6.18,-15.18,2d
2019-07-15_182752:880,-0.363007,-0.011169,-0.340118,-0.0033280000000000002,0.000621,0.000221,-40.869999,5.06,-13.18,2d
2019-07-15_182752:900,-0.364014,-0.010162000000000001,-0.339111,-0.0031149999999999997,0.000621,7.000000000000001e-06,-40.869999,5.06,-13.18,2d
2019-07-15_182752:920,-0.365021,-0.010162000000000001,-0.341644,-0.002779,0.000407,6.8e-05,-40.18,5.5,-13.56,2d
2019-07-15_182752:940,-0.361969,-0.009125,-0.339111,-0.002993,0.000468,0.000343,-40.18,5.5,-13.56,2d
2019-07-15_182752:960,-0.36654699999999996,-0.009125,-0.340118,-0.0031149999999999997,0.000468,0.000465,-40.18,5.5,-13.56,2d
2019-07-15_182752:980,-0.360962,-0.009125,-0.339111,-0.0034509999999999996,0.00056,0.000526,-39.369999,5.06,-13.56,2d
2019-07-15_182753:000,-0.36911,-0.010651,-0.341125,-0.0036950000000000004,0.00056,0.000648,-39.369999,5.06,-13.56,2d
2019-07-15_182753:020,-0.36706500000000003,-0.010162000000000001,-0.340118,-0.003817,0.001018,0.00028199999999999997,-39.75,5.5,-14.37,2d
2019-07-15_182753:040,-0.368591,-0.010162000000000001,-0.339111,-0.003939,0.001415,0.000404,-39.75,5.5,-14.37,2d
2019-07-15_182753:060,-0.366058,-0.010162000000000001,-0.338593,-0.004,0.0016589999999999999,0.000465,-39.75,5.5,-14.37,2d
2019-07-15_182753:080,-0.363007,-0.010651,-0.338593,-0.004091,0.00172,0.000343,-40.18,5.75,-14.37,2d
2019-07-15_182753:100,-0.364532,-0.010651,-0.339111,-0.004091,0.0016589999999999999,0.0007700000000000001,-40.18,5.75,-14.37,2d
2019-07-15_182753:120,-0.36349499999999996,-0.011169,-0.339111,-0.004,0.0016589999999999999,0.000404,-39.75,5.5,-12.75,2d
2019-07-15_182753:140,-0.36349499999999996,-0.009125,-0.338593,-0.004,0.001415,0.00028199999999999997,-39.75,5.5,-12.75,2d
2019-07-15_182753:160,-0.364532,-0.010651,-0.34063699999999997,-0.003817,0.0012619999999999999,0.0007700000000000001,-39.75,5.5,-12.75,2d
2019-07-15_182753:180,-0.36554000000000003,-0.010162000000000001,-0.339111,-0.0036950000000000004,0.001201,0.000465,-39.75,5.5,-13.87,2d
2019-07-15_182753:200,-0.36654699999999996,-0.010162000000000001,-0.3396,-0.003573,0.001415,0.00028199999999999997,-39.75,5.5,-13.87,2d
2019-07-15_182753:220,-0.365021,-0.010162000000000001,-0.340118,-0.0036340000000000005,0.0019030000000000002,0.00028199999999999997,-40.18,5.75,-14.75,2d
2019-07-15_182753:240,-0.364014,-0.009644,-0.339111,-0.003664,0.0019030000000000002,0.000404,-40.18,5.75,-14.75,2d
2019-07-15_182753:260,-0.365021,-0.009644,-0.34063699999999997,-0.0036340000000000005,0.001842,0.000404,-40.18,5.75,-14.75,2d
2019-07-15_182753:280,-0.366058,-0.009644,-0.340118,-0.0037560000000000002,0.001842,0.000343,-40.560001,6.18,-14.37,2d
2019-07-15_182753:300,-0.366058,-0.009125,-0.339111,-0.0037560000000000002,0.0023,0.000404,-40.560001,6.18,-14.37,2d
2019-07-15_182753:320,-0.36349499999999996,-0.009644,-0.3396,-0.003664,0.002391,0.0007700000000000001,-40.869999,5.5,-12.75,2d
2019-07-15_182753:340,-0.363007,-0.008118,-0.338074,-0.003664,0.002116,0.000587,-40.869999,5.5,-12.75,2d
2019-07-15_182753:360,-0.36706500000000003,-0.007599,-0.337067,-0.003939,0.002177,0.001716,-40.869999,5.5,-12.75,2d
2019-07-15_182753:380,-0.365021,-0.009125,-0.33758499999999997,-0.004213000000000001,0.0024519999999999998,0.001777,-40.869999,5.5,-13.56,2d
2019-07-15_182753:400,-0.366058,-0.009644,-0.338593,-0.004549,0.002574,0.00132,-40.869999,5.5,-13.56,2d
2019-07-15_182753:420,-0.364532,-0.012177,-0.339111,-0.004946,0.002177,0.000526,-40.18,4.68,-13.18,2d
2019-07-15_182753:440,-0.364532,-0.012177,-0.338593,-0.0048850000000000005,0.001994,0.000129,-40.18,4.68,-13.18,2d
2019-07-15_182753:460,-0.364014,-0.012695,-0.340118,-0.004793,0.002116,0.000343,-40.18,4.68,-13.18,2d
2019-07-15_182753:480,-0.36554000000000003,-0.013702,-0.3396,-0.004152,0.0023,0.00016,-40.18,5.75,-12.37,2d
2019-07-15_182753:500,-0.365021,-0.012177,-0.338593,-0.003664,0.002635,-5.4000000000000005e-05,-40.18,5.75,-12.37,2d
2019-07-15_182753:520,-0.364014,-0.010162000000000001,-0.339111,-0.0033280000000000002,0.002513,7.000000000000001e-06,-40.18,5.75,-14.37,2d
2019-07-15_182753:540,-0.364014,-0.008636,-0.33758499999999997,-0.003054,0.002361,0.000404,-40.18,5.75,-14.37,2d
2019-07-15_182753:560,-0.364532,-0.007599,-0.33605999999999997,-0.003237,0.0023,0.000648,-40.18,5.75,-14.37,2d
2019-07-15_182753:580,-0.367584,-0.007599,-0.335541,-0.003573,0.001964,0.000648,-40.560001,6.18,-14.75,2d
2019-07-15_182753:600,-0.36706500000000003,-0.008118,-0.336548,-0.0037560000000000002,0.001994,0.000587,-40.560001,6.18,-14.75,2d
2019-07-15_182753:620,-0.366058,-0.009644,-0.33605999999999997,-0.004091,0.001964,0.000709,-40.560001,6.18,-13.87,2d
2019-07-15_182753:640,-0.36654699999999996,-0.009644,-0.335541,-0.004336,0.00172,0.0008619999999999999,-40.560001,6.18,-13.87,2d
2019-07-15_182753:660,-0.36911,-0.009644,-0.335541,-0.004397,0.001842,0.001167,-40.560001,6.18,-13.87,2d
2019-07-15_182753:680,-0.368073,-0.009644,-0.335022,-0.004427,0.001994,0.00132,-40.560001,5.75,-12.75,2d
2019-07-15_182753:700,-0.36554000000000003,-0.011169,-0.334015,-0.004549,0.001994,0.001442,-40.560001,5.75,-12.75,2d
2019-07-15_182753:720,-0.36554000000000003,-0.010651,-0.335541,-0.004488000000000001,0.0019030000000000002,0.001045,-40.18,5.5,-14.37,2d
2019-07-15_182753:740,-0.36554000000000003,-0.011169,-0.33605999999999997,-0.004488000000000001,0.0017809999999999998,0.000831,-40.18,5.5,-14.37,2d
2019-07-15_182753:760,-0.36654699999999996,-0.012177,-0.337067,-0.004336,0.001415,0.0007700000000000001,-40.18,5.5,-14.37,2d
2019-07-15_182753:780,-0.36554000000000003,-0.011687999999999999,-0.33605999999999997,-0.003939,0.0012619999999999999,0.000526,-39.369999,5.5,-13.87,2d
2019-07-15_182753:800,-0.36554000000000003,-0.010651,-0.337067,-0.0037560000000000002,0.001201,0.000465,-39.369999,5.5,-13.87,2d
2019-07-15_182753:820,-0.364532,-0.011169,-0.3396,-0.003512,0.001415,0.000221,-39.75,5.5,-14.0,2d
2019-07-15_182753:840,-0.365021,-0.009125,-0.338074,-0.0034509999999999996,0.001201,-0.000176,-39.75,5.5,-14.0,2d
2019-07-15_182753:860,-0.36554000000000003,-0.008118,-0.341644,-0.00339,0.001292,-0.00011499999999999999,-39.75,5.5,-14.0,2d
2019-07-15_182753:880,-0.36554000000000003,-0.009644,-0.3396,-0.0036340000000000005,0.001353,-0.000267,-40.560001,5.75,-12.75,2d
2019-07-15_182753:900,-0.36554000000000003,-0.009644,-0.339111,-0.00339,0.001598,-0.00023700000000000001,-40.560001,5.75,-12.75,2d
2019-07-15_182753:920,-0.36706500000000003,-0.008636,-0.3396,-0.003237,0.00172,-5.4000000000000005e-05,-40.18,5.5,-14.37,2d
2019-07-15_182753:940,-0.368591,-0.007111,-0.34063699999999997,-0.0032979999999999997,0.0017809999999999998,0.00028199999999999997,-40.18,5.5,-14.37,2d
2019-07-15_182753:960,-0.36706500000000003,-0.008118,-0.34063699999999997,-0.0036340000000000005,0.002116,0.000496,-40.18,5.5,-14.37,2d
2019-07-15_182753:980,-0.365021,-0.007111,-0.339111,-0.0036950000000000004,0.002635,0.000648,-40.869999,4.68,-15.56,2d
2019-07-15_182754:000,-0.366058,-0.007111,-0.338593,-0.004,0.002635,0.000709,-40.869999,4.68,-15.56,2d
2019-07-15_182754:020,-0.364532,-0.008118,-0.338593,-0.004336,0.0024519999999999998,0.000984,-40.560001,5.75,-14.37,2d
2019-07-15_182754:040,-0.364532,-0.010651,-0.33605999999999997,-0.004488000000000001,0.002391,0.0007700000000000001,-40.560001,5.75,-14.37,2d
2019-07-15_182754:060,-0.364532,-0.011169,-0.337067,-0.004488000000000001,0.002055,0.0007700000000000001,-40.560001,5.75,-14.37,2d
2019-07-15_182754:080,-0.36654699999999996,-0.012177,-0.337067,-0.00403,0.00172,0.0008619999999999999,-40.560001,5.06,-13.56,2d
2019-07-15_182754:100,-0.368073,-0.012177,-0.337067,-0.003878,0.0017809999999999998,0.000648,-40.560001,5.06,-13.56,2d
2019-07-15_182754:120,-0.369598,-0.011169,-0.33605999999999997,-0.0034509999999999996,0.001994,0.000526,-40.869999,5.75,-13.87,2d
2019-07-15_182754:140,-0.368591,-0.009644,-0.33605999999999997,-0.0032979999999999997,0.002177,0.000648,-40.869999,5.75,-13.87,2d
2019-07-15_182754:160,-0.368591,-0.009644,-0.33605999999999997,-0.003237,0.0024519999999999998,0.000526,-40.869999,5.75,-13.87,2d
2019-07-15_182754:180,-0.366058,-0.009644,-0.335541,-0.003512,0.002361,0.000465,-40.18,5.5,-14.0,2d
2019-07-15_182754:200,-0.366058,-0.009125,-0.335022,-0.0036340000000000005,0.0024519999999999998,0.000496,-40.18,5.5,-14.0,2d
2019-07-15_182754:220,-0.365021,-0.008636,-0.334534,-0.00403,0.002116,0.000526,-40.560001,5.75,-13.56,2d
2019-07-15_182754:240,-0.36554000000000003,-0.009644,-0.334015,-0.004152,0.0019030000000000002,0.000587,-40.560001,5.75,-13.56,2d
2019-07-15_182754:260,-0.359955,-0.011169,-0.33605999999999997,-0.004152,0.001537,0.000129,-40.560001,5.75,-13.56,2d
2019-07-15_182754:280,-0.36706500000000003,-0.011687999999999999,-0.335022,-0.003939,0.001018,0.00016,-40.560001,5.5,-13.56,2d
2019-07-15_182754:300,-0.369598,-0.010651,-0.335541,-0.003573,0.000743,0.000709,-40.560001,5.5,-13.56,2d
2019-07-15_182754:320,-0.373688,-0.010162000000000001,-0.337067,-0.003176,0.0010789999999999999,0.000984,-40.560001,5.5,-14.37,2d
2019-07-15_182754:340,-0.371643,-0.010162000000000001,-0.33605999999999997,-0.003054,0.001964,0.0008619999999999999,-40.560001,5.5,-14.37,2d
2019-07-15_182754:360,-0.36706500000000003,-0.007599,-0.334534,-0.00339,0.002239,0.0007700000000000001,-40.560001,5.5,-14.37,2d
2019-07-15_182754:380,-0.36706500000000003,-0.009125,-0.336548,-0.0036340000000000005,0.002391,0.001655,-40.560001,5.06,-14.37,2d
2019-07-15_182754:400,-0.36654699999999996,-0.008636,-0.33605999999999997,-0.004427,0.002116,0.001228,-40.560001,5.06,-14.37,2d
2019-07-15_182754:420,-0.36654699999999996,-0.011169,-0.335022,-0.004793,0.00172,0.001045,-40.560001,5.5,-14.0,2d
2019-07-15_182754:440,-0.365021,-0.011687999999999999,-0.335541,-0.005007,0.0016589999999999999,6.8e-05,-40.560001,5.5,-14.0,2d
2019-07-15_182754:460,-0.363007,-0.013213999999999998,-0.337067,-0.00461,0.001201,-5.4000000000000005e-05,-40.560001,5.5,-14.0,2d
2019-07-15_182754:480,-0.366058,-0.012177,-0.337067,-0.004275,0.001201,0.000587,-40.560001,5.06,-13.87,2d
2019-07-15_182754:500,-0.36654699999999996,-0.011169,-0.33758499999999997,-0.00339,0.001201,0.000221,-40.560001,5.06,-13.87,2d
2019-07-15_182754:520,-0.368073,-0.010162000000000001,-0.339111,-0.002993,0.001353,7.000000000000001e-06,-40.869999,5.75,-12.75,2d
2019-07-15_182754:540,-0.368073,-0.008636,-0.33758499999999997,-0.0028399999999999996,0.0017809999999999998,6.8e-05,-40.869999,5.75,-12.75,2d
2019-07-15_182754:560,-0.36911,-0.008118,-0.338074,-0.003237,0.002177,0.00016,-40.869999,5.75,-12.75,2d
2019-07-15_182754:580,-0.36911,-0.009125,-0.338593,-0.003573,0.002116,0.00028199999999999997,-40.560001,5.06,-13.18,2d
2019-07-15_182754:600,-0.368073,-0.010162000000000001,-0.33758499999999997,-0.003664,0.002239,7.000000000000001e-06,-40.560001,5.06,-13.18,2d
2019-07-15_182754:620,-0.36911,-0.009644,-0.33605999999999997,-0.0036340000000000005,0.002361,7.000000000000001e-06,-40.560001,5.75,-15.18,2d
2019-07-15_182754:640,-0.36706500000000003,-0.009644,-0.336548,-0.0032979999999999997,0.0023,0.00016,-40.560001,5.75,-15.18,2d
2019-07-15_182754:660,-0.36706500000000003,-0.008636,-0.336548,-0.0032979999999999997,0.002116,0.000404,-40.560001,5.75,-15.18,2d
2019-07-15_182754:680,-0.368591,-0.009125,-0.334015,-0.0034509999999999996,0.001964,0.000709,-40.18,5.06,-12.75,2d
2019-07-15_182754:700,-0.368591,-0.008636,-0.33300799999999997,-0.003664,0.002239,0.000831,-40.18,5.06,-12.75,2d
2019-07-15_182754:720,-0.366058,-0.009644,-0.334015,-0.004152,0.002055,0.00028199999999999997,-40.869999,5.06,-13.18,2d
2019-07-15_182754:740,-0.367584,-0.009644,-0.334015,-0.004091,0.001628,0.000129,-40.869999,5.06,-13.18,2d
2019-07-15_182754:760,-0.36654699999999996,-0.012177,-0.335022,-0.004091,0.0012619999999999999,0.000343,-40.869999,5.06,-13.18,2d
2019-07-15_182754:780,-0.368591,-0.011687999999999999,-0.335022,-0.003817,0.0012619999999999999,0.00016,-40.560001,5.06,-13.18,2d
2019-07-15_182754:800,-0.370636,-0.011169,-0.335022,-0.003512,0.001353,7.000000000000001e-06,-40.560001,5.06,-13.18,2d
2019-07-15_182754:820,-0.36706500000000003,-0.010162000000000001,-0.337067,-0.003176,0.0016589999999999999,-0.000176,-40.560001,6.56,-13.18,2d
2019-07-15_182754:840,-0.367584,-0.009644,-0.335022,-0.0031149999999999997,0.001598,6.8e-05,-40.560001,6.56,-13.18,2d
2019-07-15_182754:860,-0.366058,-0.008636,-0.335541,-0.0033280000000000002,0.001353,-5.4000000000000005e-05,-40.560001,6.56,-13.18,2d
2019-07-15_182754:880,-0.368073,-0.008118,-0.335541,-0.00339,0.0014759999999999999,-0.00011499999999999999,-40.869999,6.18,-14.0,2d
2019-07-15_182754:900,-0.366058,-0.008636,-0.33605999999999997,-0.003512,0.0014759999999999999,-0.000176,-40.869999,6.18,-14.0,2d
2019-07-15_182754:920,-0.368073,-0.008636,-0.33758499999999997,-0.00339,0.001537,6.8e-05,-40.18,4.68,-13.87,2d
2019-07-15_182754:940,-0.365021,-0.008118,-0.335541,-0.0033280000000000002,0.001537,0.00016,-40.18,4.68,-13.87,2d
2019-07-15_182754:960,-0.36706500000000003,-0.008636,-0.336548,-0.003237,0.001537,0.000404,-40.18,4.68,-13.87,2d
2019-07-15_182754:980,-0.36554000000000003,-0.007599,-0.335541,-0.0032979999999999997,0.001292,0.000496,-40.869999,5.5,-13.18,2d
2019-07-15_182755:000,-0.366058,-0.007599,-0.335541,-0.00339,0.00114,0.000648,-40.869999,5.5,-13.18,2d
2019-07-15_182755:020,-0.369598,-0.007111,-0.33758499999999997,-0.003664,0.001018,0.000831,-39.75,6.18,-12.37,2d
2019-07-15_182755:040,-0.36911,-0.007111,-0.335541,-0.003817,0.001201,0.000831,-39.75,6.18,-12.37,2d
2019-07-15_182755:060,-0.368591,-0.008118,-0.338074,-0.00403,0.0014759999999999999,0.0008619999999999999,-39.75,6.18,-12.37,2d
2019-07-15_182755:080,-0.367584,-0.010162000000000001,-0.337067,-0.004213000000000001,0.00172,0.000648,-40.869999,5.75,-14.0,2d
2019-07-15_182755:100,-0.36706500000000003,-0.010651,-0.334534,-0.004091,0.0017809999999999998,0.000587,-40.869999,5.75,-14.0,2d
2019-07-15_182755:120,-0.36706500000000003,-0.011169,-0.33605999999999997,-0.004,0.001964,0.000526,-40.560001,5.06,-13.56,2d
2019-07-15_182755:140,-0.36654699999999996,-0.011169,-0.335022,-0.003664,0.001994,0.000587,-40.560001,5.06,-13.56,2d
2019-07-15_182755:160,-0.36554000000000003,-0.009125,-0.336548,-0.003512,0.0017809999999999998,0.000587,-40.560001,5.06,-13.56,2d
2019-07-15_182755:180,-0.367584,-0.009125,-0.336548,-0.0033280000000000002,0.001628,0.000343,-41.25,5.75,-14.75,2d
2019-07-15_182755:200,-0.36911,-0.008636,-0.334534,-0.0032979999999999997,0.0017809999999999998,0.000343,-41.25,5.75,-14.75,2d
2019-07-15_182755:220,-0.368073,-0.008118,-0.335541,-0.003512,0.001598,0.000221,-40.560001,5.75,-13.18,2d
2019-07-15_182755:240,-0.368073,-0.008636,-0.334534,-0.003817,0.002116,0.000343,-40.560001,5.75,-13.18,2d
2019-07-15_182755:260,-0.367584,-0.007111,-0.335022,-0.003939,0.0019030000000000002,0.000496,-40.560001,5.75,-13.18,2d
2019-07-15_182755:280,-0.367584,-0.009125,-0.336548,-0.004152,0.0017809999999999998,0.000587,-41.25,5.5,-13.18,2d
2019-07-15_182755:300,-0.366058,-0.009644,-0.33605999999999997,-0.00403,0.0017809999999999998,0.000709,-41.25,5.5,-13.18,2d
2019-07-15_182755:320,-0.369598,-0.010651,-0.33758499999999997,-0.003817,0.001598,0.001106,-39.75,5.75,-13.56,2d
2019-07-15_182755:340,-0.36706500000000003,-0.010651,-0.335541,-0.0034509999999999996,0.0016589999999999999,0.0008619999999999999,-39.75,5.75,-13.56,2d
2019-07-15_182755:360,-0.37112399999999995,-0.008636,-0.334534,-0.0032979999999999997,0.001628,0.000465,-39.75,5.75,-13.56,2d
2019-07-15_182755:380,-0.368073,-0.007111,-0.334534,-0.0032979999999999997,0.002239,0.001625,-40.560001,5.06,-13.87,2d
2019-07-15_182755:400,-0.36654699999999996,-0.009125,-0.334015,-0.0036340000000000005,0.002361,0.001442,-40.560001,5.06,-13.87,2d
2019-07-15_182755:420,-0.366058,-0.008636,-0.336548,-0.003939,0.001964,0.000984,-40.18,5.06,-13.18,2d
2019-07-15_182755:440,-0.366058,-0.010651,-0.33605999999999997,-0.004213000000000001,0.001598,0.000404,-40.18,5.06,-13.18,2d
2019-07-15_182755:460,-0.366058,-0.010162000000000001,-0.335541,-0.004549,0.001415,0.00028199999999999997,-40.18,5.06,-13.18,2d
2019-07-15_182755:480,-0.366058,-0.011687999999999999,-0.336548,-0.004213000000000001,0.001292,0.0007700000000000001,-39.060001,6.18,-13.56,2d
2019-07-15_182755:500,-0.36706500000000003,-0.012177,-0.338593,-0.004091,0.0012619999999999999,0.000526,-39.060001,6.18,-13.56,2d
2019-07-15_182755:520,-0.369598,-0.011169,-0.336548,-0.003512,0.001537,0.00016,-41.25,6.18,-14.37,2d
2019-07-15_182755:540,-0.368073,-0.011169,-0.337067,-0.0034509999999999996,0.001964,0.00028199999999999997,-41.25,6.18,-14.37,2d
2019-07-15_182755:560,-0.368073,-0.009125,-0.33605999999999997,-0.00339,0.0023,0.000404,-41.25,6.18,-14.37,2d
2019-07-15_182755:580,-0.368591,-0.008636,-0.337067,-0.00339,0.002361,0.000465,-40.560001,6.18,-12.37,2d
2019-07-15_182755:600,-0.36911,-0.009644,-0.335541,-0.00339,0.002391,0.000465,-40.560001,6.18,-12.37,2d
2019-07-15_182755:620,-0.369598,-0.009644,-0.334534,-0.003512,0.002513,0.000526,-40.18,5.75,-14.37,2d
2019-07-15_182755:640,-0.368073,-0.009125,-0.334015,-0.003573,0.0023,0.000526,-40.18,5.75,-14.37,2d
2019-07-15_182755:660,-0.367584,-0.009125,-0.334015,-0.003573,0.0023,0.0008619999999999999,-40.18,5.75,-14.37,2d
2019-07-15_182755:680,-0.37011700000000003,-0.008636,-0.334534,-0.003817,0.002177,0.001167,-39.75,5.75,-13.18,2d
2019-07-15_182755:700,-0.371643,-0.007111,-0.33300799999999997,-0.004152,0.002361,0.001716,-39.75,5.75,-13.18,2d
2019-07-15_182755:720,-0.369598,-0.010162000000000001,-0.33197,-0.004336,0.002696,0.00132,-40.560001,5.5,-13.18,2d
2019-07-15_182755:740,-0.367584,-0.010651,-0.333496,-0.0048850000000000005,0.002757,0.000526,-40.560001,5.5,-13.18,2d
2019-07-15_182755:760,-0.367584,-0.012695,-0.33300799999999997,-0.004793,0.002574,0.001045,-40.560001,5.5,-13.18,2d
2019-07-15_182755:780,-0.367584,-0.013213999999999998,-0.334015,-0.00461,0.002361,0.000984,-39.75,5.75,-14.37,2d
2019-07-15_182755:800,-0.368591,-0.012695,-0.334015,-0.00403,0.002055,0.000831,-39.75,5.75,-14.37,2d
2019-07-15_182755:820,-0.368591,-0.012177,-0.333496,-0.0036340000000000005,0.002055,0.000831,-40.560001,5.5,-14.0,2d
2019-07-15_182755:840,-0.36911,-0.009644,-0.334015,-0.0032979999999999997,0.002239,0.00028199999999999997,-40.560001,5.5,-14.0,2d
2019-07-15_182755:860,-0.368591,-0.009644,-0.335022,-0.0033280000000000002,0.002391,0.000404,-40.560001,5.5,-14.0,2d
2019-07-15_182755:880,-0.36654699999999996,-0.009644,-0.335541,-0.003512,0.002177,0.000343,-41.25,5.06,-13.56,2d
2019-07-15_182755:900,-0.368073,-0.010162000000000001,-0.333496,-0.0036950000000000004,0.0019030000000000002,-0.00011499999999999999,-41.25,5.06,-13.56,2d
2019-07-15_182755:920,-0.36911,-0.010651,-0.334015,-0.003573,0.0016589999999999999,-5.4000000000000005e-05,-41.25,5.75,-13.56,2d
2019-07-15_182755:940,-0.369598,-0.009644,-0.333496,-0.0036340000000000005,0.00172,-0.000267,-41.25,5.75,-13.56,2d
2019-07-15_182755:960,-0.369598,-0.009125,-0.333496,-0.0034509999999999996,0.0017809999999999998,7.000000000000001e-06,-41.25,5.75,-13.56,2d
2019-07-15_182755:980,-0.369598,-0.008636,-0.334015,-0.003237,0.0017809999999999998,0.00016,-39.369999,5.75,-13.18,2d
2019-07-15_182756:000,-0.368591,-0.008636,-0.332489,-0.003237,0.00172,0.000496,-39.369999,5.75,-13.18,2d
2019-07-15_182756:020,-0.36911,-0.007599,-0.333496,-0.0033280000000000002,0.001537,0.000526,-40.869999,5.06,-13.18,2d
2019-07-15_182756:040,-0.37112399999999995,-0.007599,-0.331482,-0.003573,0.0017809999999999998,0.000496,-40.869999,5.06,-13.18,2d
2019-07-15_182756:060,-0.37011700000000003,-0.009644,-0.333496,-0.003817,0.0019030000000000002,0.000831,-40.869999,5.06,-13.18,2d
2019-07-15_182756:080,-0.369598,-0.010162000000000001,-0.333496,-0.004152,0.0016589999999999999,0.000587,-40.18,5.5,-13.56,2d
2019-07-15_182756:100,-0.368591,-0.011169,-0.332489,-0.004152,0.001415,0.000496,-40.18,5.5,-13.56,2d
2019-07-15_182756:120,-0.370636,-0.011687999999999999,-0.33197,-0.004213000000000001,0.0014759999999999999,0.000526,-40.869999,5.5,-12.75,2d
2019-07-15_182756:140,-0.37112399999999995,-0.011687999999999999,-0.332489,-0.0037560000000000002,0.0017809999999999998,0.000587,-40.869999,5.5,-12.75,2d
2019-07-15_182756:160,-0.37112399999999995,-0.010651,-0.334534,-0.003664,0.001842,0.000496,-40.869999,5.5,-12.75,2d
2019-07-15_182756:180,-0.369598,-0.009125,-0.33300799999999997,-0.003512,0.002116,0.000465,-40.869999,6.56,-12.37,2d
2019-07-15_182756:200,-0.369598,-0.009644,-0.332489,-0.003573,0.0019030000000000002,0.000465,-40.869999,6.56,-12.37,2d
2019-07-15_182756:220,-0.36911,-0.010162000000000001,-0.332489,-0.0037560000000000002,0.0019030000000000002,0.000343,-40.869999,4.68,-13.56,2d
2019-07-15_182756:240,-0.37011700000000003,-0.009125,-0.33197,-0.0037560000000000002,0.00172,0.000343,-40.869999,4.68,-13.56,2d
2019-07-15_182756:260,-0.37265,-0.009125,-0.340118,-0.003664,0.001842,0.000465,-40.869999,4.68,-13.56,2d
2019-07-15_182756:280,-0.369598,-0.009644,-0.334015,-0.003817,0.002361,0.000587,-40.18,5.5,-14.37,2d
2019-07-15_182756:300,-0.36706500000000003,-0.008636,-0.327911,-0.0037560000000000002,0.002239,0.000496,-40.18,5.5,-14.37,2d
2019-07-15_182756:320,-0.369598,-0.008118,-0.329437,-0.003817,0.0016589999999999999,0.000496,-40.560001,5.75,-13.56,2d
2019-07-15_182756:340,-0.371643,-0.009644,-0.334534,-0.003878,0.001537,0.000526,-40.560001,5.75,-13.56,2d
2019-07-15_182756:360,-0.37265,-0.010651,-0.334534,-0.00403,0.001628,0.000496,-40.560001,5.75,-13.56,2d
2019-07-15_182756:380,-0.36911,-0.011687999999999999,-0.334534,-0.0036950000000000004,0.001964,0.000496,-40.560001,5.5,-13.56,2d
2019-07-15_182756:400,-0.374695,-0.009644,-0.332489,-0.003664,0.001628,0.000221,-40.560001,5.5,-13.56,2d
2019-07-15_182756:420,-0.36911,-0.008636,-0.332489,-0.003512,0.002055,0.001167,-40.869999,5.75,-13.56,2d
2019-07-15_182756:440,-0.37011700000000003,-0.008118,-0.331482,-0.003664,0.001628,0.001564,-40.869999,5.75,-13.56,2d
2019-07-15_182756:460,-0.369598,-0.007599,-0.332489,-0.004213000000000001,0.001537,0.001442,-40.869999,5.75,-13.56,2d
2019-07-15_182756:480,-0.368073,-0.011169,-0.330963,-0.004549,0.001292,0.0008619999999999999,-40.869999,5.75,-13.56,2d
2019-07-15_182756:500,-0.368073,-0.010162000000000001,-0.332489,-0.004946,0.0008960000000000001,7.000000000000001e-06,-40.869999,5.75,-13.56,2d
2019-07-15_182756:520,-0.368073,-0.011687999999999999,-0.33197,-0.004793,0.0008039999999999999,0.000709,-40.560001,5.5,-13.18,2d
2019-07-15_182756:540,-0.368591,-0.013213999999999998,-0.334015,-0.004275,0.0009570000000000001,0.000496,-40.560001,5.5,-13.18,2d
2019-07-15_182756:560,-0.368591,-0.011687999999999999,-0.334015,-0.003878,0.000621,-5.4000000000000005e-05,-40.560001,5.5,-13.18,2d
2019-07-15_182756:580,-0.371643,-0.009644,-0.335022,-0.0034509999999999996,0.001018,0.000221,-40.18,6.18,-13.18,2d
2019-07-15_182756:600,-0.372162,-0.009644,-0.334015,-0.003176,0.001537,0.000129,-40.18,6.18,-13.18,2d
2019-07-15_182756:620,-0.371643,-0.008118,-0.335541,-0.0032979999999999997,0.0016589999999999999,0.000526,-40.869999,5.75,-12.0,2d
2019-07-15_182756:640,-0.370636,-0.009125,-0.332489,-0.00339,0.001842,0.000404,-40.869999,5.75,-12.0,2d
2019-07-15_182756:660,-0.372162,-0.008118,-0.33300799999999997,-0.0036340000000000005,0.002055,0.000343,-40.869999,5.75,-12.0,2d
2019-07-15_182756:680,-0.37112399999999995,-0.009125,-0.333496,-0.003878,0.002116,0.000465,-40.560001,5.75,-14.37,2d
2019-07-15_182756:700,-0.368591,-0.008636,-0.334015,-0.003939,0.002177,0.000496,-40.560001,5.75,-14.37,2d
2019-07-15_182756:720,-0.369598,-0.010162000000000001,-0.333496,-0.003939,0.0023,0.0007700000000000001,-40.869999,5.75,-12.75,2d
2019-07-15_182756:740,-0.37011700000000003,-0.009125,-0.330963,-0.00403,0.002239,0.0008619999999999999,-40.869999,5.75,-12.75,2d
2019-07-15_182756:760,-0.369598,-0.008636,-0.330475,-0.004091,0.002239,0.001045,-40.869999,5.75,-12.75,2d
2019-07-15_182756:780,-0.36654699999999996,-0.010651,-0.330963,-0.004336,0.002055,0.000496,-40.560001,5.75,-14.37,2d
2019-07-15_182756:800,-0.36911,-0.011169,-0.330963,-0.004275,0.001628,0.000221,-40.560001,5.75,-14.37,2d
2019-07-15_182756:820,-0.369598,-0.011169,-0.33197,-0.003817,0.001415,0.00028199999999999997,-40.560001,5.5,-12.75,2d
2019-07-15_182756:840,-0.369598,-0.011687999999999999,-0.334015,-0.003664,0.001201,6.8e-05,-40.560001,5.5,-12.75,2d
2019-07-15_182756:860,-0.370636,-0.010162000000000001,-0.33300799999999997,-0.00339,0.0010789999999999999,0.000129,-40.560001,5.5,-12.75,2d
2019-07-15_182756:880,-0.37011700000000003,-0.009644,-0.333496,-0.003237,0.001201,-0.000176,-40.18,5.75,-14.37,2d
2019-07-15_182756:900,-0.37112399999999995,-0.008636,-0.33197,-0.0033280000000000002,0.00114,-0.000176,-40.18,5.75,-14.37,2d
2019-07-15_182756:920,-0.370636,-0.008636,-0.334015,-0.0036340000000000005,0.001353,-5.4000000000000005e-05,-40.560001,5.75,-12.75,2d
2019-07-15_182756:940,-0.37112399999999995,-0.008118,-0.332489,-0.003512,0.001628,7.000000000000001e-06,-40.560001,5.75,-12.75,2d
2019-07-15_182756:960,-0.372162,-0.008636,-0.333496,-0.003573,0.001537,0.00016,-40.560001,5.75,-12.75,2d
2019-07-15_182756:980,-0.369598,-0.007599,-0.334534,-0.003512,0.0016589999999999999,0.000343,-39.75,5.75,-13.56,2d
2019-07-15_182757:000,-0.368591,-0.008118,-0.33300799999999997,-0.0034509999999999996,0.001598,0.000526,-39.75,5.75,-13.56,2d
2019-07-15_182757:020,-0.37011700000000003,-0.008118,-0.334534,-0.003573,0.00172,0.0007700000000000001,-40.18,6.18,-13.56,2d
2019-07-15_182757:040,-0.370636,-0.007111,-0.333496,-0.003664,0.001964,0.000831,-40.18,6.18,-13.56,2d
2019-07-15_182757:060,-0.36911,-0.008118,-0.334015,-0.003939,0.001842,0.000831,-40.18,6.18,-13.56,2d
2019-07-15_182757:080,-0.370636,-0.007599,-0.334015,-0.004213000000000001,0.002055,0.000709,-40.18,5.5,-13.87,2d
2019-07-15_182757:100,-0.36911,-0.010162000000000001,-0.332489,-0.00403,0.001994,0.000831,-40.18,5.5,-13.87,2d
2019-07-15_182757:120,-0.370636,-0.009644,-0.334015,-0.004091,0.002055,0.000923,-42.060001,5.75,-14.37,2d
2019-07-15_182757:140,-0.37011700000000003,-0.010162000000000001,-0.333496,-0.0037560000000000002,0.002177,0.001045,-42.060001,5.75,-14.37,2d
2019-07-15_182757:160,-0.370636,-0.009125,-0.33197,-0.0036950000000000004,0.001994,0.000923,-42.060001,5.75,-14.37,2d
2019-07-15_182757:180,-0.368591,-0.009125,-0.334015,-0.0036340000000000005,0.002177,0.0008619999999999999,-40.869999,5.06,-13.87,2d
2019-07-15_182757:200,-0.370636,-0.007599,-0.332489,-0.0036950000000000004,0.002116,0.001045,-40.869999,5.06,-13.87,2d
2019-07-15_182757:220,-0.369598,-0.008636,-0.332489,-0.003939,0.002055,0.0007700000000000001,-40.560001,5.75,-12.75,2d
2019-07-15_182757:240,-0.369598,-0.010162000000000001,-0.332489,-0.003939,0.001994,0.0007700000000000001,-40.560001,5.75,-12.75,2d
2019-07-15_182757:260,-0.368591,-0.010651,-0.33300799999999997,-0.0036950000000000004,0.00172,0.000923,-40.560001,5.75,-12.75,2d
2019-07-15_182757:280,-0.368073,-0.011169,-0.332489,-0.003512,0.0012619999999999999,0.000709,-40.869999,5.5,-13.18,2d
2019-07-15_182757:300,-0.368073,-0.011687999999999999,-0.33300799999999997,-0.003054,0.000682,0.000831,-40.869999,5.5,-13.18,2d
2019-07-15_182757:320,-0.366058,-0.015228,-0.334534,-0.0028399999999999996,0.0008039999999999999,0.001045,-40.560001,5.75,-12.37,2d
2019-07-15_182757:340,-0.37265,-0.014740000000000001,-0.33300799999999997,-0.001375,0.000621,0.000709,-40.560001,5.75,-12.37,2d
2019-07-15_182757:360,-0.375214,-0.012177,-0.331482,-0.000857,0.001292,0.001381,-40.560001,5.75,-12.37,2d
2019-07-15_182757:380,-0.371643,-0.009125,-0.333496,-0.000796,0.001598,0.001625,-40.18,5.75,-13.87,2d
2019-07-15_182757:400,-0.370636,-0.006592,-0.331482,-0.001772,0.002239,0.001045,-40.18,5.75,-13.87,2d
2019-07-15_182757:420,-0.37011700000000003,-0.007111,-0.33300799999999997,-0.0033280000000000002,0.002116,0.000465,-40.869999,5.75,-12.75,2d
2019-07-15_182757:440,-0.369598,-0.008636,-0.33197,-0.003817,0.002177,0.000221,-40.869999,5.75,-12.75,2d
2019-07-15_182757:460,-0.369598,-0.010162000000000001,-0.33197,-0.004275,0.0019030000000000002,0.00028199999999999997,-40.869999,5.75,-12.75,2d
2019-07-15_182757:480,-0.36911,-0.013702,-0.332489,-0.004488000000000001,0.001842,0.000465,-40.560001,5.75,-13.56,2d
2019-07-15_182757:500,-0.368591,-0.011687999999999999,-0.329437,-0.004091,0.00172,0.001838,-40.560001,5.75,-13.56,2d
2019-07-15_182757:520,-0.374695,-0.012695,-0.330475,-0.004275,0.001842,0.001503,-40.869999,5.75,-12.75,2d
2019-07-15_182757:540,-0.372162,-0.011169,-0.331482,-0.004091,0.00172,0.001564,-40.869999,5.75,-12.75,2d
2019-07-15_182757:560,-0.37112399999999995,-0.012695,-0.332489,-0.004488000000000001,0.0017809999999999998,0.000465,-40.869999,5.75,-12.75,2d
2019-07-15_182757:580,-0.369598,-0.012177,-0.331482,-0.004793,0.001292,0.000343,-40.560001,6.18,-12.37,2d
2019-07-15_182757:600,-0.36706500000000003,-0.013213999999999998,-0.330963,-0.004671,0.0010789999999999999,0.0008619999999999999,-40.560001,6.18,-12.37,2d
2019-07-15_182757:620,-0.367584,-0.013213999999999998,-0.33300799999999997,-0.004427,0.0009570000000000001,0.00028199999999999997,-40.18,5.5,-13.18,2d
2019-07-15_182757:640,-0.368591,-0.012695,-0.334015,-0.003939,0.000743,0.00028199999999999997,-40.18,5.5,-13.18,2d
2019-07-15_182757:660,-0.370636,-0.013213999999999998,-0.333496,-0.0037560000000000002,0.0009570000000000001,0.000343,-40.18,5.5,-13.18,2d
2019-07-15_182757:680,-0.37316900000000003,-0.011687999999999999,-0.334534,-0.0036950000000000004,0.001598,0.000343,-40.18,6.18,-12.75,2d
2019-07-15_182757:700,-0.37265,-0.011169,-0.333496,-0.0036950000000000004,0.001537,0.000587,-40.18,6.18,-12.75,2d
2019-07-15_182757:720,-0.37112399999999995,-0.011169,-0.333496,-0.003664,0.001964,0.000648,-40.560001,5.5,-13.18,2d
2019-07-15_182757:740,-0.370636,-0.012177,-0.334015,-0.003817,0.001842,0.00016,-40.560001,5.5,-13.18,2d
2019-07-15_182757:760,-0.372162,-0.011169,-0.332489,-0.0037560000000000002,0.001964,0.000343,-40.560001,5.5,-13.18,2d
2019-07-15_182757:780,-0.37112399999999995,-0.011169,-0.334015,-0.003664,0.001994,0.00028199999999999997,-40.18,6.18,-13.56,2d
2019-07-15_182757:800,-0.371643,-0.011169,-0.330963,-0.0037560000000000002,0.002239,0.00028199999999999997,-40.18,6.18,-13.56,2d
2019-07-15_182757:820,-0.37265,-0.010651,-0.33197,-0.003817,0.0024519999999999998,0.000648,-40.560001,6.18,-13.18,2d
2019-07-15_182757:840,-0.37011700000000003,-0.010162000000000001,-0.330475,-0.0036950000000000004,0.002513,0.0007700000000000001,-40.560001,6.18,-13.18,2d
2019-07-15_182757:860,-0.367584,-0.011169,-0.32995599999999997,-0.003939,0.002361,0.000221,-40.560001,6.18,-13.18,2d
2019-07-15_182757:880,-0.369598,-0.011687999999999999,-0.331482,-0.00403,0.002116,0.000465,-40.560001,5.5,-13.87,2d
2019-07-15_182757:900,-0.369598,-0.012177,-0.330963,-0.003878,0.00172,0.000587,-40.560001,5.5,-13.87,2d
2019-07-15_182757:920,-0.370636,-0.011169,-0.332489,-0.003939,0.001537,0.000404,-40.560001,6.18,-13.18,2d
2019-07-15_182757:940,-0.371643,-0.010651,-0.333496,-0.003664,0.0012619999999999999,0.000526,-40.560001,6.18,-13.18,2d
2019-07-15_182757:960,-0.37112399999999995,-0.010651,-0.33197,-0.0036950000000000004,0.00114,0.000404,-40.560001,6.18,-13.18,2d
2019-07-15_182757:980,-0.371643,-0.010162000000000001,-0.334015,-0.003878,0.001537,0.00028199999999999997,-40.869999,6.18,-12.75,2d
2019-07-15_182758:000,-0.370636,-0.011169,-0.330963,-0.0036340000000000005,0.001598,0.000221,-40.869999,6.18,-12.75,2d
2019-07-15_182758:020,-0.37011700000000003,-0.010651,-0.332489,-0.0036340000000000005,0.001598,6.8e-05,-40.869999,6.18,-14.37,2d
2019-07-15_182758:040,-0.36911,-0.011169,-0.331482,-0.0034509999999999996,0.001598,6.8e-05,-40.869999,6.18,-14.37,2d
2019-07-15_182758:060,-0.369598,-0.010162000000000001,-0.330475,-0.003054,0.00114,0.00016,-40.869999,6.18,-14.37,2d
2019-07-15_182758:080,-0.369598,-0.010162000000000001,-0.332489,-0.002993,0.0008039999999999999,0.000343,-40.869999,5.75,-13.56,2d
2019-07-15_182758:100,-0.370636,-0.009125,-0.32995599999999997,-0.0032979999999999997,0.000499,0.000526,-40.869999,5.75,-13.56,2d
2019-07-15_182758:120,-0.371643,-0.008118,-0.33197,-0.0032979999999999997,0.0008039999999999999,0.000709,-40.18,5.75,-12.75,2d
2019-07-15_182758:140,-0.370636,-0.007599,-0.332489,-0.00403,0.000407,0.0008619999999999999,-40.18,5.75,-12.75,2d
2019-07-15_182758:160,-0.367584,-0.008636,-0.330963,-0.004275,0.000468,0.000831,-40.18,5.75,-12.75,2d
2019-07-15_182758:180,-0.368591,-0.009125,-0.330963,-0.004671,0.000133,0.000984,-40.560001,5.5,-13.18,2d
2019-07-15_182758:200,-0.37011700000000003,-0.009644,-0.331482,-0.004946,0.000133,0.001167,-40.560001,5.5,-13.18,2d
2019-07-15_182758:220,-0.370636,-0.011169,-0.33197,-0.005343,1.1e-05,0.000923,-40.560001,5.5,-13.18,2d
2019-07-15_182758:240,-0.369598,-0.012177,-0.333496,-0.005404,0.00016299999999999998,0.000709,-40.560001,5.06,-13.18,2d
2019-07-15_182758:260,-0.369598,-0.012695,-0.333496,-0.005068,0.000407,0.001045,-40.560001,5.06,-13.18,2d
2019-07-15_182758:280,-0.368591,-0.012177,-0.335541,-0.004549,0.000621,0.0008619999999999999,-40.560001,5.5,-13.87,2d
2019-07-15_182758:300,-0.368073,-0.011687999999999999,-0.333496,-0.00403,0.000285,0.000984,-40.560001,5.5,-13.87,2d
2019-07-15_182758:320,-0.369598,-0.012177,-0.334015,-0.003817,0.00016299999999999998,0.000923,-40.560001,5.5,-13.87,2d
2019-07-15_182758:340,-0.368073,-0.011687999999999999,-0.335541,-0.003939,0.000285,0.000465,-40.560001,5.06,-13.56,2d
2019-07-15_182758:360,-0.365021,-0.012177,-0.335022,-0.0036340000000000005,-0.000233,0.000587,-40.560001,5.06,-13.56,2d
2019-07-15_182758:380,-0.366058,-0.012177,-0.334534,-0.003817,-0.000661,0.000404,-40.560001,5.5,-13.18,2d
2019-07-15_182758:400,-0.37011700000000003,-0.012695,-0.33300799999999997,-0.003573,-0.000661,0.000343,-40.560001,5.5,-13.18,2d
2019-07-15_182758:420,-0.36706500000000003,-0.012177,-0.336548,-0.003237,-0.000386,0.00016,-40.560001,5.5,-13.18,2d
2019-07-15_182758:440,-0.36554000000000003,-0.011687999999999999,-0.338074,-0.002932,-0.0005690000000000001,0.000496,-40.869999,5.75,-13.87,2d
2019-07-15_182758:460,-0.36654699999999996,-0.012695,-0.336548,-0.002779,-0.000508,0.000465,-40.869999,5.75,-13.87,2d
2019-07-15_182758:480,-0.37112399999999995,-0.011687999999999999,-0.339111,-0.0025050000000000003,-0.00011100000000000001,0.000343,-39.75,5.06,-13.18,2d
2019-07-15_182758:500,-0.368591,-0.010651,-0.336548,-0.002779,0.000346,0.00028199999999999997,-39.75,5.06,-13.18,2d
2019-07-15_182758:520,-0.36706500000000003,-0.009644,-0.337067,-0.002779,0.000346,-0.00011499999999999999,-40.560001,5.5,-12.37,2d
2019-07-15_182758:540,-0.361969,-0.009125,-0.336548,-0.003054,0.00056,0.0007700000000000001,-40.560001,5.5,-12.37,2d
2019-07-15_182758:560,-0.366058,-0.011687999999999999,-0.336548,-0.003237,0.000285,0.000923,-40.560001,5.5,-12.37,2d
2019-07-15_182758:580,-0.36349499999999996,-0.010651,-0.33605999999999997,-0.0036340000000000005,-5e-05,0.000709,-40.869999,5.75,-13.87,2d
2019-07-15_182758:600,-0.360962,-0.013213999999999998,-0.338593,-0.003939,-0.000661,0.000404,-40.869999,5.75,-13.87,2d
2019-07-15_182758:620,-0.36248800000000003,-0.011687999999999999,-0.338074,-0.004336,-0.001515,-0.00045099999999999996,-40.869999,5.75,-13.87,2d
2019-07-15_182758:640,-0.364532,-0.012695,-0.340118,-0.004336,-0.001576,6.8e-05,-40.18,6.18,-13.56,2d
2019-07-15_182758:660,-0.36349499999999996,-0.014740000000000001,-0.3396,-0.004,-0.00124,-0.000267,-40.18,6.18,-13.56,2d
2019-07-15_182758:680,-0.36554000000000003,-0.014740000000000001,-0.341644,-0.003939,-0.0009660000000000001,-0.0011220000000000002,-40.560001,5.5,-13.87,2d
2019-07-15_182758:700,-0.36706500000000003,-0.012695,-0.341644,-0.0032979999999999997,-0.00044699999999999997,-0.000908,-40.560001,5.5,-13.87,2d
2019-07-15_182758:720,-0.367584,-0.011687999999999999,-0.34368899999999997,-0.0029010000000000004,0.000499,-0.0009689999999999999,-40.560001,5.5,-13.87,2d
2019-07-15_182758:740,-0.366058,-0.011169,-0.342163,-0.002443,0.0008960000000000001,-0.000634,-40.18,5.5,-13.87,2d
2019-07-15_182758:760,-0.368073,-0.007599,-0.342163,-0.002199,0.001353,-0.00045099999999999996,-40.18,5.5,-13.87,2d
2019-07-15_182758:780,-0.36554000000000003,-0.009125,-0.34317,-0.0025050000000000003,0.001842,-0.000634,-40.18,5.75,-14.75,2d
2019-07-15_182758:800,-0.364014,-0.007599,-0.340118,-0.0028399999999999996,0.002116,-0.00045099999999999996,-40.18,5.75,-14.75,2d
2019-07-15_182758:820,-0.36349499999999996,-0.007599,-0.340118,-0.0031149999999999997,0.002055,6.8e-05,-40.18,5.75,-14.75,2d
2019-07-15_182758:840,-0.36044299999999996,-0.007599,-0.338074,-0.0036340000000000005,0.001628,0.00028199999999999997,-40.560001,5.75,-13.56,2d
2019-07-15_182758:860,-0.364014,-0.008118,-0.33758499999999997,-0.003939,0.001201,0.000831,-40.560001,5.75,-13.56,2d
2019-07-15_182758:880,-0.36554000000000003,-0.009125,-0.338593,-0.004397,0.001201,0.0008619999999999999,-40.18,6.56,-14.37,2d
2019-07-15_182758:900,-0.36248800000000003,-0.010162000000000001,-0.338074,-0.004671,0.001353,7.000000000000001e-06,-40.18,6.56,-14.37,2d
2019-07-15_182758:920,-0.361969,-0.011169,-0.338593,-0.00461,0.0012619999999999999,0.00028199999999999997,-40.18,6.56,-14.37,2d
2019-07-15_182758:940,-0.361481,-0.012177,-0.33758499999999997,-0.004091,0.000682,0.000648,-40.560001,5.06,-14.75,2d
2019-07-15_182758:960,-0.361969,-0.012177,-0.338593,-0.0037560000000000002,0.000346,0.00028199999999999997,-40.560001,5.06,-14.75,2d
2019-07-15_182758:980,-0.364014,-0.012695,-0.342163,-0.003512,0.000346,0.000129,-40.18,6.56,-14.37,2d
2019-07-15_182759:000,-0.365021,-0.010162000000000001,-0.3396,-0.0033280000000000002,0.000285,-0.00011499999999999999,-40.18,6.56,-14.37,2d
2019-07-15_182759:020,-0.366058,-0.008636,-0.342163,-0.003237,0.000682,-0.000389,-40.18,6.56,-14.37,2d
2019-07-15_182759:040,-0.365021,-0.009644,-0.342163,-0.0033280000000000002,0.000865,-0.000389,-40.560001,5.5,-14.37,2d
2019-07-15_182759:060,-0.36248800000000003,-0.008636,-0.341644,-0.0032979999999999997,0.00114,-0.000512,-40.560001,5.5,-14.37,2d
2019-07-15_182759:080,-0.359955,-0.007599,-0.34317,-0.0032979999999999997,0.0009570000000000001,-0.000267,-40.560001,5.75,-14.75,2d
2019-07-15_182759:100,-0.36248800000000003,-0.008118,-0.34063699999999997,-0.0033280000000000002,0.000621,-0.000267,-40.560001,5.75,-14.75,2d
2019-07-15_182759:120,-0.361481,-0.007599,-0.34265100000000004,-0.0031149999999999997,0.0008960000000000001,7.000000000000001e-06,-40.560001,5.75,-14.75,2d
2019-07-15_182759:140,-0.361969,-0.006072999999999999,-0.34265100000000004,-0.0032979999999999997,0.000621,0.000404,-40.560001,5.5,-13.56,2d
2019-07-15_182759:160,-0.361969,-0.007111,-0.342163,-0.003573,0.000468,0.000648,-40.560001,5.5,-13.56,2d
2019-07-15_182759:180,-0.36248800000000003,-0.007599,-0.34317,-0.003817,0.00056,0.0008619999999999999,-39.75,5.5,-14.75,2d
2019-07-15_182759:200,-0.361481,-0.008636,-0.341644,-0.004152,0.000407,0.000923,-39.75,5.5,-14.75,2d
2019-07-15_182759:220,-0.36349499999999996,-0.008636,-0.34368899999999997,-0.004488000000000001,0.000499,0.000984,-39.75,5.5,-14.75,2d
2019-07-15_182759:240,-0.361481,-0.010651,-0.34317,-0.004397,0.0008039999999999999,0.000923,-40.560001,5.75,-14.37,2d
2019-07-15_182759:260,-0.358429,-0.011169,-0.341644,-0.004152,0.000865,0.000984,-40.560001,5.75,-14.37,2d
2019-07-15_182759:280,-0.361969,-0.011169,-0.342163,-0.004091,0.000285,0.000709,-39.75,6.18,-14.75,2d
2019-07-15_182759:300,-0.363007,-0.011687999999999999,-0.341644,-0.003817,0.00016299999999999998,0.000465,-39.75,6.18,-14.75,2d
2019-07-15_182759:320,-0.364014,-0.011687999999999999,-0.34368899999999997,-0.003512,0.000407,0.00028199999999999997,-39.75,6.18,-14.75,2d
2019-07-15_182759:340,-0.363007,-0.010651,-0.344177,-0.0032979999999999997,0.000743,0.00016,-40.560001,5.75,-14.37,2d
2019-07-15_182759:360,-0.360962,-0.009644,-0.34368899999999997,-0.00339,0.00114,0.000129,-40.560001,5.75,-14.37,2d
2019-07-15_182759:380,-0.361969,-0.008636,-0.34265100000000004,-0.003512,0.0010789999999999999,0.00016,-40.18,5.75,-15.18,2d
2019-07-15_182759:400,-0.36248800000000003,-0.009125,-0.34368899999999997,-0.003573,0.00114,0.000404,-40.18,5.75,-15.18,2d
2019-07-15_182759:420,-0.360962,-0.009644,-0.34317,-0.0036950000000000004,0.00114,0.00028199999999999997,-40.18,5.75,-15.18,2d
2019-07-15_182759:440,-0.35791,-0.008118,-0.34317,-0.00403,0.0012619999999999999,0.000496,-39.75,5.5,-14.75,2d
2019-07-15_182759:460,-0.360962,-0.009644,-0.34368899999999997,-0.003878,0.0008960000000000001,0.000526,-39.75,5.5,-14.75,2d
2019-07-15_182759:480,-0.359955,-0.010162000000000001,-0.34317,-0.004152,0.000865,0.000465,-39.369999,5.5,-15.18,2d
2019-07-15_182759:500,-0.35739099999999996,-0.012177,-0.34265100000000004,-0.003939,0.000865,0.000496,-39.369999,5.5,-15.18,2d
2019-07-15_182759:520,-0.358917,-0.011169,-0.34570300000000004,-0.003939,0.000621,0.00028199999999999997,-39.369999,5.5,-15.18,2d
2019-07-15_182759:540,-0.358917,-0.011169,-0.344696,-0.003664,0.000346,7.000000000000001e-06,-39.369999,5.5,-15.18,2d
2019-07-15_182759:560,-0.361969,-0.011687999999999999,-0.344177,-0.0033280000000000002,0.00022400000000000002,-0.00023700000000000001,-39.369999,5.5,-15.18,2d
2019-07-15_182759:580,-0.36248800000000003,-0.010162000000000001,-0.34570300000000004,-0.003176,0.00056,-0.00023700000000000001,-40.18,5.75,-15.56,2d
2019-07-15_182759:600,-0.36044299999999996,-0.010651,-0.344696,-0.002993,0.000743,-0.000267,-40.18,5.75,-15.56,2d
2019-07-15_182759:620,-0.36248800000000003,-0.008118,-0.341644,-0.0029010000000000004,0.0009570000000000001,-0.000267,-40.18,5.75,-15.56,2d
2019-07-15_182759:640,-0.36349499999999996,-0.009644,-0.34317,-0.002993,0.0014759999999999999,0.000221,-39.060001,5.75,-15.56,2d
2019-07-15_182759:660,-0.360962,-0.008636,-0.344696,-0.003512,0.0019030000000000002,-0.000176,-39.060001,5.75,-15.56,2d
2019-07-15_182759:680,-0.364014,-0.009644,-0.344696,-0.003939,0.0023,-0.000328,-39.75,5.75,-14.37,2d
2019-07-15_182759:700,-0.361969,-0.012177,-0.346222,-0.004091,0.002513,-0.0010609999999999999,-39.75,5.75,-14.37,2d
2019-07-15_182759:720,-0.36044299999999996,-0.009644,-0.346222,-0.004,0.002635,-0.001458,-39.75,5.75,-14.37,2d
2019-07-15_182759:740,-0.354858,-0.010162000000000001,-0.346222,-0.003664,0.002513,-0.000664,-40.560001,5.75,-14.75,2d
2019-07-15_182759:760,-0.353851,-0.008636,-0.344696,-0.0033280000000000002,0.001994,-0.000786,-40.560001,5.75,-14.75,2d
2019-07-15_182759:780,-0.353851,-0.007599,-0.344696,-0.003237,0.001292,-0.0008470000000000001,-40.18,5.5,-13.87,2d
2019-07-15_182759:800,-0.35739099999999996,-0.007111,-0.345215,-0.002993,0.000621,-0.000573,-40.18,5.5,-13.87,2d
2019-07-15_182759:820,-0.361481,-0.008118,-0.34368899999999997,-0.002993,0.00056,-0.000512,-40.18,5.5,-13.87,2d
2019-07-15_182759:840,-0.361969,-0.008118,-0.34570300000000004,-0.002993,0.000865,-0.00011499999999999999,-40.869999,5.06,-13.56,2d
2019-07-15_182759:860,-0.360962,-0.006592,-0.344696,-0.003176,0.0009570000000000001,-0.00023700000000000001,-40.869999,5.06,-13.56,2d
2019-07-15_182759:880,-0.360962,-0.007111,-0.344696,-0.0032979999999999997,0.0010789999999999999,-5.4000000000000005e-05,-39.75,5.06,-14.37,2d
2019-07-15_182759:900,-0.361969,-0.006592,-0.34317,-0.00339,0.001018,-0.00011499999999999999,-39.75,5.06,-14.37,2d
2019-07-15_182759:920,-0.363007,-0.007599,-0.34368899999999997,-0.003512,0.001201,0.000221,-39.75,5.06,-14.37,2d
2019-07-15_182759:940,-0.364532,-0.007599,-0.34265100000000004,-0.003817,0.0014759999999999999,0.00016,-39.75,5.06,-14.37,2d
2019-07-15_182759:960,-0.364014,-0.007111,-0.34265100000000004,-0.003817,0.002177,0.00016,-39.75,5.06,-14.37,2d
2019-07-15_182759:980,-0.361969,-0.009644,-0.342163,-0.003817,0.002696,0.000221,-40.18,5.5,-16.370001000000002,2d
2019-07-15_182800:000,-0.361969,-0.011169,-0.34265100000000004,-0.003817,0.002788,-0.00045099999999999996,-40.18,5.5,-16.370001000000002,2d
2019-07-15_182800:020,-0.364532,-0.006592,-0.34317,-0.003817,0.002849,-0.001,-40.18,5.5,-16.370001000000002,2d
2019-07-15_182800:040,-0.35638400000000003,-0.009125,-0.345215,-0.003878,0.00349,-0.0011220000000000002,-39.75,5.5,-15.18,2d
2019-07-15_182800:060,-0.355377,-0.006072999999999999,-0.34317,-0.003878,0.002696,-0.0011220000000000002,-39.75,5.5,-15.18,2d
2019-07-15_182800:080,-0.354858,-0.006072999999999999,-0.344696,-0.0036340000000000005,0.0019030000000000002,-0.00045099999999999996,-39.75,5.5,-15.18,2d
2019-07-15_182800:100,-0.354858,-0.006592,-0.342163,-0.003573,0.000865,-0.00045099999999999996,-39.75,5.5,-15.18,2d
2019-07-15_182800:120,-0.35638400000000003,-0.006072999999999999,-0.34317,-0.00339,0.000407,-0.000176,-39.75,5.5,-15.18,2d
2019-07-15_182800:140,-0.360962,-0.0055850000000000006,-0.34368899999999997,-0.0032979999999999997,-0.000233,0.00016,-40.560001,5.06,-15.18,2d
2019-07-15_182800:160,-0.361969,-0.0055850000000000006,-0.34570300000000004,-0.0034509999999999996,-5e-05,6.8e-05,-40.560001,5.06,-15.18,2d
2019-07-15_182800:180,-0.36044299999999996,-0.0055850000000000006,-0.34570300000000004,-0.00339,0.000285,0.000221,-39.75,4.68,-14.75,2d
2019-07-15_182800:200,-0.35943600000000003,-0.006072999999999999,-0.346222,-0.0036340000000000005,0.00022400000000000002,0.00028199999999999997,-39.75,4.68,-14.75,2d
2019-07-15_182800:220,-0.361969,-0.005065999999999999,-0.34570300000000004,-0.003512,0.00016299999999999998,0.000343,-39.75,4.68,-14.75,2d
2019-07-15_182800:240,-0.36248800000000003,-0.006072999999999999,-0.34674099999999997,-0.003512,0.000407,0.000587,-39.369999,5.5,-13.18,2d
2019-07-15_182800:260,-0.361481,-0.006072999999999999,-0.34570300000000004,-0.003512,0.001018,0.0007700000000000001,-39.369999,5.5,-13.18,2d
2019-07-15_182800:280,-0.359955,-0.006072999999999999,-0.34570300000000004,-0.003664,0.001201,0.000831,-39.75,5.06,-13.56,2d
2019-07-15_182800:300,-0.360962,-0.006592,-0.344696,-0.003573,0.0010789999999999999,0.0007700000000000001,-39.75,5.06,-13.56,2d
2019-07-15_182800:320,-0.363007,-0.0055850000000000006,-0.34570300000000004,-0.0036950000000000004,0.0014759999999999999,0.000343,-39.75,5.06,-13.56,2d
2019-07-15_182800:340,-0.36044299999999996,-0.007111,-0.34570300000000004,-0.0037560000000000002,0.001964,0.000343,-40.18,5.5,-13.87,2d
2019-07-15_182800:360,-0.35943600000000003,-0.009125,-0.34570300000000004,-0.003817,0.002361,0.000221,-40.18,5.5,-13.87,2d
2019-07-15_182800:380,-0.358429,-0.010651,-0.34674099999999997,-0.0036340000000000005,0.002239,6.8e-05,-40.560001,5.5,-13.87,2d
2019-07-15_182800:400,-0.35739099999999996,-0.008118,-0.344696,-0.0033280000000000002,0.001994,-0.00011499999999999999,-40.560001,5.5,-13.87,2d
2019-07-15_182800:420,-0.35791,-0.007599,-0.345215,-0.002779,0.001598,0.000129,-40.560001,5.5,-13.87,2d
2019-07-15_182800:440,-0.35739099999999996,-0.006592,-0.344696,-0.002657,0.001415,0.000496,-39.75,5.06,-15.18,2d
2019-07-15_182800:460,-0.35943600000000003,-0.006072999999999999,-0.34368899999999997,-0.002535,0.00114,0.000343,-39.75,5.06,-15.18,2d
2019-07-15_182800:480,-0.36044299999999996,-0.005065999999999999,-0.345215,-0.002993,0.0014759999999999999,0.000404,-40.18,5.5,-15.18,2d
2019-07-15_182800:500,-0.36044299999999996,-0.0055850000000000006,-0.344696,-0.0032979999999999997,0.00172,0.000465,-40.18,5.5,-15.18,2d
2019-07-15_182800:520,-0.35943600000000003,-0.006592,-0.34674099999999997,-0.0034509999999999996,0.0016589999999999999,0.000343,-40.18,5.5,-15.18,2d
2019-07-15_182800:540,-0.358917,-0.006592,-0.34570300000000004,-0.0036950000000000004,0.001628,0.000404,-40.18,5.06,-14.37,2d
2019-07-15_182800:560,-0.36044299999999996,-0.007599,-0.34570300000000004,-0.003573,0.0014759999999999999,0.000831,-40.18,5.06,-14.37,2d
2019-07-15_182800:580,-0.360962,-0.006592,-0.345215,-0.0033280000000000002,0.001537,0.0008619999999999999,-39.75,5.5,-14.75,2d
2019-07-15_182800:600,-0.35791,-0.007599,-0.345215,-0.0036340000000000005,0.001598,0.001106,-39.75,5.5,-14.75,2d
2019-07-15_182800:620,-0.35791,-0.007111,-0.344696,-0.003664,0.001537,0.001167,-39.75,5.5,-14.75,2d
2019-07-15_182800:640,-0.35943600000000003,-0.006072999999999999,-0.344696,-0.003878,0.001353,0.001045,-40.869999,5.5,-14.0,2d
2019-07-15_182800:660,-0.35943600000000003,-0.008636,-0.34570300000000004,-0.004152,0.001353,0.000831,-40.869999,5.5,-14.0,2d
2019-07-15_182800:680,-0.35943600000000003,-0.010162000000000001,-0.34570300000000004,-0.004213000000000001,0.001353,0.000404,-39.75,5.5,-13.87,2d
2019-07-15_182800:700,-0.35943600000000003,-0.010162000000000001,-0.344177,-0.003878,0.001415,0.0007700000000000001,-39.75,5.5,-13.87,2d
2019-07-15_182800:720,-0.35739099999999996,-0.008636,-0.34570300000000004,-0.00339,0.001201,0.000831,-39.75,5.5,-13.87,2d
2019-07-15_182800:740,-0.36248800000000003,-0.009644,-0.34570300000000004,-0.002993,0.0010789999999999999,0.000129,-40.18,5.06,-13.56,2d
2019-07-15_182800:760,-0.36044299999999996,-0.006592,-0.344177,-0.002932,0.001994,0.001258,-40.18,5.06,-13.56,2d
2019-07-15_182800:780,-0.361969,-0.007111,-0.347229,-0.0034509999999999996,0.002239,0.001167,-40.560001,5.5,-15.87,2d
2019-07-15_182800:800,-0.35638400000000003,-0.0055850000000000006,-0.344696,-0.00403,0.002239,0.001167,-40.560001,5.5,-15.87,2d
2019-07-15_182800:820,-0.35638400000000003,-0.007599,-0.34674099999999997,-0.004488000000000001,0.001628,0.000648,-40.560001,5.5,-15.87,2d
2019-07-15_182800:840,-0.35791,-0.009125,-0.345215,-0.004732,0.0012619999999999999,-0.000267,-39.75,5.5,-14.75,2d
2019-07-15_182800:860,-0.35791,-0.010162000000000001,-0.34570300000000004,-0.004427,0.0010789999999999999,0.000465,-39.75,5.5,-14.75,2d
2019-07-15_182800:880,-0.358429,-0.011169,-0.347229,-0.003939,0.001292,0.000496,-40.560001,5.75,-15.87,2d
2019-07-15_182800:900,-0.359955,-0.010162000000000001,-0.347229,-0.0036340000000000005,0.001842,6.8e-05,-40.560001,5.75,-15.87,2d
2019-07-15_182800:920,-0.36044299999999996,-0.007599,-0.349274,-0.003176,0.002239,0.000496,-40.560001,5.75,-15.87,2d
2019-07-15_182800:940,-0.358429,-0.006072999999999999,-0.346222,-0.00339,0.002391,0.00016,-40.560001,5.5,-13.56,2d
2019-07-15_182800:960,-0.359955,-0.006072999999999999,-0.344696,-0.003512,0.002391,0.00028199999999999997,-40.560001,5.5,-13.56,2d
2019-07-15_182800:980,-0.359955,-0.007599,-0.346222,-0.0036950000000000004,0.002696,0.00028199999999999997,-40.18,4.68,-14.37,2d
2019-07-15_182801:000,-0.361481,-0.007111,-0.344177,-0.0036950000000000004,0.002513,6.8e-05,-40.18,4.68,-14.37,2d
2019-07-15_182801:020,-0.36248800000000003,-0.007599,-0.34570300000000004,-0.003573,0.002574,0.000221,-40.18,4.68,-14.37,2d
2019-07-15_182801:040,-0.360962,-0.007599,-0.344177,-0.00339,0.002513,0.000496,-39.369999,4.25,-14.37,2d
2019-07-15_182801:060,-0.361481,-0.007111,-0.342163,-0.0033280000000000002,0.002635,0.000465,-39.369999,4.25,-14.37,2d
2019-07-15_182801:080,-0.36248800000000003,-0.0055850000000000006,-0.34317,-0.0036340000000000005,0.002513,0.001045,-39.75,5.75,-15.56,2d
2019-07-15_182801:100,-0.35943600000000003,-0.006072999999999999,-0.3396,-0.0037560000000000002,0.002696,0.001381,-39.75,5.75,-15.56,2d
2019-07-15_182801:120,-0.35739099999999996,-0.008636,-0.34063699999999997,-0.004397,0.0024519999999999998,0.000526,-39.75,5.75,-15.56,2d
2019-07-15_182801:140,-0.35943600000000003,-0.007599,-0.341644,-0.004336,0.001964,0.000648,-39.75,5.75,-13.56,2d
2019-07-15_182801:160,-0.359955,-0.010162000000000001,-0.341125,-0.004152,0.0016589999999999999,0.001228,-39.75,5.75,-13.56,2d
2019-07-15_182801:180,-0.36044299999999996,-0.010162000000000001,-0.342163,-0.00403,0.001415,0.000831,-40.869999,6.18,-15.18,2d
2019-07-15_182801:200,-0.36044299999999996,-0.008636,-0.341125,-0.003664,0.001292,0.000587,-40.869999,6.18,-15.18,2d
2019-07-15_182801:220,-0.361481,-0.009125,-0.34317,-0.003512,0.001353,0.000465,-40.869999,6.18,-15.18,2d
2019-07-15_182801:240,-0.360962,-0.007111,-0.34368899999999997,-0.003573,0.0012619999999999999,7.000000000000001e-06,-40.18,5.5,-14.37,2d
2019-07-15_182801:260,-0.359955,-0.007111,-0.34265100000000004,-0.0037560000000000002,0.001415,0.000129,-40.18,5.5,-14.37,2d
2019-07-15_182801:280,-0.358917,-0.007599,-0.342163,-0.003817,0.0014759999999999999,7.000000000000001e-06,-40.560001,5.5,-13.87,2d
2019-07-15_182801:300,-0.358917,-0.007111,-0.34317,-0.003512,0.00114,-0.00023700000000000001,-40.560001,5.5,-13.87,2d
2019-07-15_182801:320,-0.36044299999999996,-0.008636,-0.344696,-0.0032979999999999997,0.0012619999999999999,-0.000328,-40.560001,5.5,-13.87,2d
2019-07-15_182801:340,-0.360962,-0.007599,-0.344177,-0.0031149999999999997,0.001201,-0.000267,-40.18,5.06,-15.56,2d
2019-07-15_182801:360,-0.36044299999999996,-0.006072999999999999,-0.345215,-0.002932,0.001415,6.8e-05,-40.18,5.06,-15.56,2d
2019-07-15_182801:380,-0.359955,-0.005065999999999999,-0.344177,-0.003176,0.001598,0.000465,-39.75,5.06,-15.56,2d
2019-07-15_182801:400,-0.358429,-0.004547,-0.344177,-0.00339,0.001353,0.000587,-39.75,5.06,-15.56,2d
2019-07-15_182801:420,-0.358429,-0.004547,-0.344177,-0.003939,0.001201,0.000709,-39.75,5.06,-15.56,2d
2019-07-15_182801:440,-0.361481,-0.006072999999999999,-0.34570300000000004,-0.004275,0.001353,0.0007700000000000001,-40.18,4.68,-15.18,2d
2019-07-15_182801:460,-0.36044299999999996,-0.006072999999999999,-0.34368899999999997,-0.004427,0.001537,0.0007700000000000001,-40.18,4.68,-15.18,2d
2019-07-15_182801:480,-0.35943600000000003,-0.008118,-0.345215,-0.004275,0.001598,0.0007700000000000001,-40.869999,5.06,-15.18,2d
2019-07-15_182801:500,-0.35943600000000003,-0.008636,-0.34570300000000004,-0.004152,0.0016589999999999999,0.000984,-40.869999,5.06,-15.18,2d
2019-07-15_182801:520,-0.360962,-0.008118,-0.345215,-0.003878,0.0014759999999999999,0.0008619999999999999,-40.869999,5.06,-15.18,2d
2019-07-15_182801:540,-0.360962,-0.008636,-0.34368899999999997,-0.0037560000000000002,0.001537,0.000923,-38.68,5.75,-14.37,2d
2019-07-15_182801:560,-0.36248800000000003,-0.008118,-0.344696,-0.003664,0.0019030000000000002,0.000648,-38.68,5.75,-14.37,2d
2019-07-15_182801:580,-0.36248800000000003,-0.006072999999999999,-0.34570300000000004,-0.0036950000000000004,0.001994,0.000709,-40.18,5.5,-14.75,2d
2019-07-15_182801:600,-0.35943600000000003,-0.008118,-0.344696,-0.0036950000000000004,0.001994,0.000831,-40.18,5.5,-14.75,2d
2019-07-15_182801:620,-0.35791,-0.007599,-0.34317,-0.003878,0.0016589999999999999,0.000709,-40.18,5.5,-14.75,2d
2019-07-15_182801:640,-0.360962,-0.008118,-0.34368899999999997,-0.0037560000000000002,0.0016589999999999999,0.0008619999999999999,-39.75,5.75,-14.37,2d
2019-07-15_182801:660,-0.361481,-0.008118,-0.342163,-0.0037560000000000002,0.00172,0.000831,-39.75,5.75,-14.37,2d
2019-07-15_182801:680,-0.36044299999999996,-0.007599,-0.34570300000000004,-0.003939,0.001842,0.000923,-40.18,5.06,-15.18,2d
2019-07-15_182801:700,-0.35943600000000003,-0.006592,-0.34875500000000004,-0.004,0.0019030000000000002,0.0008619999999999999,-40.18,5.06,-15.18,2d
2019-07-15_182801:720,-0.353851,-0.007599,-0.340118,-0.00403,0.0017809999999999998,0.000923,-40.18,5.06,-15.18,2d
2019-07-15_182801:740,-0.36248800000000003,-0.009125,-0.345215,-0.003817,0.001292,0.0007700000000000001,-40.18,4.68,-14.37,2d
2019-07-15_182801:760,-0.36349499999999996,-0.008118,-0.34570300000000004,-0.003878,0.0012619999999999999,0.0007700000000000001,-40.18,4.68,-14.37,2d
2019-07-15_182801:780,-0.35791,-0.007111,-0.342163,-0.0036950000000000004,0.0017809999999999998,0.000496,-40.18,5.5,-14.75,2d
2019-07-15_182801:800,-0.36654699999999996,-0.006072999999999999,-0.347229,-0.003664,0.0019030000000000002,0.000465,-40.18,5.5,-14.75,2d
2019-07-15_182801:820,-0.361481,-0.007111,-0.34368899999999997,-0.0037560000000000002,0.002391,0.0018989999999999999,-40.18,5.5,-14.75,2d
2019-07-15_182801:840,-0.361969,-0.008118,-0.344696,-0.004091,0.002361,0.001777,-39.369999,5.75,-13.87,2d
2019-07-15_182801:860,-0.358917,-0.007111,-0.344177,-0.004549,0.002177,0.001442,-39.369999,5.75,-13.87,2d
2019-07-15_182801:880,-0.358429,-0.009125,-0.345215,-0.004732,0.001598,0.001045,-41.25,5.06,-13.56,2d
2019-07-15_182801:900,-0.35791,-0.008636,-0.34265100000000004,-0.004732,0.001353,0.000496,-41.25,5.06,-13.56,2d
2019-07-15_182801:920,-0.35791,-0.008636,-0.34570300000000004,-0.004549,0.001201,0.001106,-41.25,5.06,-13.56,2d
2019-07-15_182801:940,-0.36044299999999996,-0.010162000000000001,-0.344177,-0.004213000000000001,0.0012619999999999999,0.001503,-40.560001,5.75,-13.87,2d
2019-07-15_182801:960,-0.36044299999999996,-0.009125,-0.344696,-0.00403,0.0009570000000000001,0.000923,-40.560001,5.75,-13.87,2d
2019-07-15_182801:980,-0.361969,-0.008636,-0.34570300000000004,-0.003878,0.001537,0.000587,-40.18,5.5,-15.18,2d
2019-07-15_182802:000,-0.36349499999999996,-0.008118,-0.344696,-0.003817,0.0017809999999999998,0.000465,-40.18,5.5,-15.18,2d
2019-07-15_182802:020,-0.363007,-0.007599,-0.34674099999999997,-0.00403,0.001964,0.000587,-40.18,5.5,-15.18,2d
2019-07-15_182802:040,-0.36044299999999996,-0.008636,-0.34570300000000004,-0.003817,0.002177,0.0008619999999999999,-39.369999,5.06,-13.87,2d
2019-07-15_182802:060,-0.361969,-0.008118,-0.34265100000000004,-0.0037560000000000002,0.002116,0.000648,-39.369999,5.06,-13.87,2d
2019-07-15_182802:080,-0.36044299999999996,-0.009125,-0.34317,-0.003664,0.002116,0.000465,-39.75,6.56,-14.75,2d
2019-07-15_182802:100,-0.35943600000000003,-0.007599,-0.342163,-0.003664,0.00172,0.000465,-39.75,6.56,-14.75,2d
2019-07-15_182802:120,-0.358917,-0.008118,-0.344177,-0.0037560000000000002,0.001598,0.000343,-39.75,6.56,-14.75,2d
2019-07-15_182802:140,-0.363007,-0.006592,-0.34317,-0.003817,0.0014759999999999999,0.0007700000000000001,-39.75,5.06,-14.75,2d
2019-07-15_182802:160,-0.36248800000000003,-0.007599,-0.341125,-0.004091,0.0016589999999999999,0.001167,-39.75,5.06,-14.75,2d
2019-07-15_182802:180,-0.361969,-0.008118,-0.34265100000000004,-0.004336,0.00172,0.000496,-40.18,5.5,-14.75,2d
2019-07-15_182802:200,-0.36044299999999996,-0.008118,-0.342163,-0.004275,0.0017809999999999998,0.000221,-40.18,5.5,-14.75,2d
2019-07-15_182802:220,-0.359955,-0.010162000000000001,-0.344177,-0.00403,0.0016589999999999999,0.000831,-40.18,5.5,-14.75,2d
2019-07-15_182802:240,-0.35943600000000003,-0.010651,-0.344177,-0.0036950000000000004,0.001628,0.000526,-40.18,5.75,-14.37,2d
2019-07-15_182802:260,-0.358917,-0.009125,-0.344177,-0.00339,0.001598,0.000709,-40.18,5.75,-14.37,2d
2019-07-15_182802:280,-0.359955,-0.008636,-0.34317,-0.0033280000000000002,0.001292,0.00028199999999999997,-40.560001,5.06,-14.75,2d
2019-07-15_182802:300,-0.36044299999999996,-0.007599,-0.344696,-0.003573,0.001598,0.00016,-40.560001,5.06,-14.75,2d
2019-07-15_182802:320,-0.360962,-0.007111,-0.344696,-0.0036340000000000005,0.0014759999999999999,0.00016,-40.560001,5.06,-14.75,2d
2019-07-15_182802:340,-0.359955,-0.007599,-0.345215,-0.003573,0.00172,-0.00011499999999999999,-40.18,6.18,-13.87,2d
2019-07-15_182802:360,-0.36044299999999996,-0.007111,-0.34265100000000004,-0.0036950000000000004,0.0016589999999999999,-5.4000000000000005e-05,-40.18,6.18,-13.87,2d
2019-07-15_182802:380,-0.359955,-0.008118,-0.344696,-0.003512,0.0016589999999999999,0.00016,-40.560001,5.06,-14.37,2d
2019-07-15_182802:400,-0.36044299999999996,-0.006592,-0.34317,-0.0032979999999999997,0.0017809999999999998,0.000129,-40.560001,5.06,-14.37,2d
2019-07-15_182802:420,-0.361481,-0.006072999999999999,-0.344177,-0.0033280000000000002,0.001537,0.000526,-40.560001,5.06,-14.37,2d
2019-07-15_182802:440,-0.36044299999999996,-0.0055850000000000006,-0.34317,-0.0034509999999999996,0.001598,0.000648,-40.18,5.5,-14.75,2d
2019-07-15_182802:460,-0.361481,-0.006072999999999999,-0.34368899999999997,-0.003664,0.0019030000000000002,0.0007700000000000001,-40.18,5.5,-14.75,2d
2019-07-15_182802:480,-0.360962,-0.005065999999999999,-0.34368899999999997,-0.00403,0.0017809999999999998,0.0008619999999999999,-40.560001,6.18,-13.18,2d
2019-07-15_182802:500,-0.361969,-0.006592,-0.342163,-0.004336,0.001994,0.000923,-40.560001,6.18,-13.18,2d
2019-07-15_182802:520,-0.359955,-0.010162000000000001,-0.344696,-0.004397,0.0019030000000000002,0.001045,-40.560001,6.18,-13.18,2d
2019-07-15_182802:540,-0.360962,-0.009125,-0.34265100000000004,-0.004397,0.0019030000000000002,0.001045,-40.560001,5.06,-13.87,2d
2019-07-15_182802:560,-0.361481,-0.009644,-0.34317,-0.003939,0.0017809999999999998,0.000923,-40.560001,5.06,-13.87,2d
2019-07-15_182802:580,-0.361969,-0.009125,-0.34265100000000004,-0.003939,0.0016589999999999999,0.000831,-40.18,5.75,-14.75,2d
2019-07-15_182802:600,-0.361481,-0.008636,-0.34265100000000004,-0.0036950000000000004,0.00172,0.000831,-40.18,5.75,-14.75,2d
2019-07-15_182802:620,-0.361481,-0.008636,-0.34368899999999997,-0.003512,0.0016589999999999999,0.0007700000000000001,-40.18,5.75,-14.75,2d
2019-07-15_182802:640,-0.36044299999999996,-0.009644,-0.344177,-0.003512,0.0016589999999999999,0.000831,-40.18,5.75,-13.56,2d
2019-07-15_182802:660,-0.361481,-0.007599,-0.34265100000000004,-0.0034509999999999996,0.001537,0.000709,-40.18,5.75,-13.56,2d
2019-07-15_182802:680,-0.359955,-0.008636,-0.34368899999999997,-0.0036340000000000005,0.001598,0.000709,-40.560001,5.06,-13.87,2d
2019-07-15_182802:700,-0.360962,-0.007599,-0.34317,-0.003664,0.001415,0.000526,-40.560001,5.06,-13.87,2d
2019-07-15_182802:720,-0.361481,-0.008636,-0.341644,-0.0036340000000000005,0.0016589999999999999,0.000587,-40.560001,5.06,-13.87,2d
2019-07-15_182802:740,-0.361481,-0.008118,-0.34265100000000004,-0.0036950000000000004,0.0017809999999999998,0.000648,-40.560001,4.68,-14.37,2d
2019-07-15_182802:760,-0.360962,-0.008118,-0.34265100000000004,-0.0037560000000000002,0.0016589999999999999,0.0007700000000000001,-40.560001,4.68,-14.37,2d
2019-07-15_182802:780,-0.36044299999999996,-0.008118,-0.344177,-0.0037560000000000002,0.0016589999999999999,0.001045,-40.18,5.5,-14.37,2d
2019-07-15_182802:800,-0.359955,-0.009125,-0.344177,-0.004,0.0016589999999999999,0.0007700000000000001,-40.18,5.5,-14.37,2d
2019-07-15_182802:820,-0.36044299999999996,-0.009644,-0.344177,-0.004,0.001415,0.000526,-40.18,5.5,-14.37,2d
2019-07-15_182802:840,-0.361481,-0.010162000000000001,-0.344696,-0.0036950000000000004,0.001415,0.000404,-40.18,5.06,-14.37,2d
2019-07-15_182802:860,-0.361481,-0.010651,-0.34317,-0.0036340000000000005,0.001537,0.00028199999999999997,-40.18,5.06,-14.37,2d
2019-07-15_182802:880,-0.360962,-0.009125,-0.34368899999999997,-0.00339,0.0014759999999999999,0.000465,-39.75,6.56,-13.56,2d
2019-07-15_182802:900,-0.364014,-0.009644,-0.342163,-0.003054,0.001537,0.000221,-39.75,6.56,-13.56,2d
2019-07-15_182802:920,-0.361481,-0.007599,-0.341644,-0.003176,0.001994,0.0007700000000000001,-39.75,6.56,-13.56,2d
2019-07-15_182802:940,-0.36248800000000003,-0.007111,-0.34317,-0.003237,0.0017809999999999998,0.001167,-40.560001,5.5,-14.37,2d
2019-07-15_182802:960,-0.36044299999999996,-0.006592,-0.34265100000000004,-0.004,0.0019030000000000002,0.000831,-40.560001,5.5,-14.37,2d
2019-07-15_182802:980,-0.36044299999999996,-0.009125,-0.34317,-0.004091,0.0016589999999999999,0.0008619999999999999,-40.18,5.75,-15.56,2d
2019-07-15_182803:000,-0.361481,-0.010162000000000001,-0.34368899999999997,-0.004824,0.001537,-0.000176,-40.18,5.75,-15.56,2d
2019-07-15_182803:020,-0.35943600000000003,-0.010651,-0.344177,-0.004671,0.001353,6.8e-05,-40.18,5.75,-15.56,2d
2019-07-15_182803:040,-0.36044299999999996,-0.011687999999999999,-0.344177,-0.00403,0.001353,0.000496,-40.560001,5.75,-13.87,2d
2019-07-15_182803:060,-0.360962,-0.009644,-0.344177,-0.003664,0.0014759999999999999,0.000129,-40.560001,5.75,-13.87,2d
2019-07-15_182803:080,-0.358917,-0.010162000000000001,-0.34368899999999997,-0.0031149999999999997,0.0017809999999999998,0.00016,-40.560001,5.5,-13.87,2d
2019-07-15_182803:100,-0.36248800000000003,-0.007111,-0.34317,-0.0031149999999999997,0.00172,0.00016,-40.560001,5.5,-13.87,2d
2019-07-15_182803:120,-0.36248800000000003,-0.006592,-0.344177,-0.0032979999999999997,0.002116,0.00016,-40.560001,5.5,-13.87,2d
2019-07-15_182803:140,-0.363007,-0.007111,-0.34368899999999997,-0.0036340000000000005,0.0023,0.000465,-39.369999,5.75,-14.75,2d
2019-07-15_182803:160,-0.36248800000000003,-0.008118,-0.34368899999999997,-0.003664,0.002361,0.000221,-39.369999,5.75,-14.75,2d
2019-07-15_182803:180,-0.36248800000000003,-0.007111,-0.344177,-0.003817,0.002635,0.00016,-40.869999,5.5,-14.37,2d
2019-07-15_182803:200,-0.363007,-0.007599,-0.341644,-0.003878,0.002635,0.000526,-40.869999,5.5,-14.37,2d
2019-07-15_182803:220,-0.361969,-0.007111,-0.34265100000000004,-0.003939,0.0024519999999999998,0.000587,-40.869999,5.5,-14.37,2d
2019-07-15_182803:240,-0.361481,-0.007599,-0.342163,-0.004,0.002513,0.000709,-40.18,5.5,-14.37,2d
2019-07-15_182803:260,-0.363007,-0.007599,-0.3396,-0.004091,0.002757,0.0007700000000000001,-40.18,5.5,-14.37,2d
2019-07-15_182803:280,-0.36044299999999996,-0.008118,-0.340118,-0.004213000000000001,0.002696,0.000709,-40.560001,5.06,-15.06,2d
2019-07-15_182803:300,-0.36044299999999996,-0.008118,-0.34063699999999997,-0.004336,0.002513,0.00028199999999999997,-40.560001,5.06,-15.06,2d
2019-07-15_182803:320,-0.36044299999999996,-0.010162000000000001,-0.341125,-0.004,0.002116,6.8e-05,-40.560001,5.06,-15.06,2d
2019-07-15_182803:340,-0.361969,-0.009644,-0.34265100000000004,-0.0036340000000000005,0.0019030000000000002,0.00028199999999999997,-40.869999,6.18,-14.75,2d
2019-07-15_182803:360,-0.36248800000000003,-0.008118,-0.3396,-0.00339,0.001842,0.000221,-40.869999,6.18,-14.75,2d
2019-07-15_182803:380,-0.36248800000000003,-0.006072999999999999,-0.34265100000000004,-0.0033280000000000002,0.0016589999999999999,0.000465,-40.869999,5.06,-14.37,2d
2019-07-15_182803:400,-0.36349499999999996,-0.004547,-0.344177,-0.003664,0.001964,0.000709,-40.869999,5.06,-14.37,2d
2019-07-15_182803:420,-0.364014,-0.0055850000000000006,-0.34317,-0.00403,0.002116,0.000648,-40.869999,5.06,-14.37,2d
2019-07-15_182803:440,-0.364014,-0.007111,-0.34368899999999997,-0.004397,0.002239,0.000587,-40.560001,5.5,-12.75,2d
2019-07-15_182803:460,-0.361969,-0.008636,-0.341125,-0.004213000000000001,0.002239,0.000709,-40.560001,5.5,-12.75,2d
2019-07-15_182803:480,-0.361481,-0.008636,-0.342163,-0.003664,0.0023,0.000648,-40.560001,5.75,-15.06,2d
2019-07-15_182803:500,-0.361481,-0.009125,-0.34063699999999997,-0.0033280000000000002,0.002116,0.000831,-40.560001,5.75,-15.06,2d
2019-07-15_182803:520,-0.36248800000000003,-0.008636,-0.341125,-0.0031149999999999997,0.001842,0.000587,-40.560001,5.75,-15.06,2d
2019-07-15_182803:540,-0.364532,-0.006072999999999999,-0.341125,-0.0031149999999999997,0.002177,0.001106,-40.869999,5.75,-14.37,2d
2019-07-15_182803:560,-0.364014,-0.008118,-0.341125,-0.0034509999999999996,0.002116,0.001167,-40.869999,5.75,-14.37,2d
2019-07-15_182803:580,-0.364014,-0.006072999999999999,-0.341644,-0.003817,0.002239,0.000984,-39.369999,5.5,-14.75,2d
2019-07-15_182803:600,-0.36349499999999996,-0.006592,-0.341644,-0.004275,0.0023,0.001167,-39.369999,5.5,-14.75,2d
2019-07-15_182803:620,-0.361481,-0.008118,-0.34063699999999997,-0.004152,0.002055,0.000984,-39.369999,5.5,-14.75,2d
2019-07-15_182803:640,-0.361969,-0.009644,-0.341644,-0.004091,0.001964,0.001106,-39.75,5.06,-12.75,2d
2019-07-15_182803:660,-0.363007,-0.011169,-0.3396,-0.0036950000000000004,0.00172,0.001442,-39.75,5.06,-12.75,2d
2019-07-15_182803:680,-0.363007,-0.011169,-0.3396,-0.003664,0.001628,0.001258,-40.560001,5.06,-13.56,2d
2019-07-15_182803:700,-0.36349499999999996,-0.009125,-0.340118,-0.0036950000000000004,0.0012619999999999999,0.001258,-40.560001,5.06,-13.56,2d
2019-07-15_182803:720,-0.36349499999999996,-0.010162000000000001,-0.34063699999999997,-0.003573,0.001628,0.001045,-40.560001,5.06,-13.56,2d
2019-07-15_182803:740,-0.364532,-0.009125,-0.34063699999999997,-0.0036950000000000004,0.001628,0.0007700000000000001,-40.18,5.06,-13.87,2d
2019-07-15_182803:760,-0.364532,-0.009644,-0.3396,-0.003573,0.0017809999999999998,0.000648,-40.18,5.06,-13.87,2d
2019-07-15_182803:780,-0.364014,-0.010651,-0.342163,-0.003512,0.0017809999999999998,0.000496,-40.869999,5.06,-14.75,2d
2019-07-15_182803:800,-0.363007,-0.010162000000000001,-0.34063699999999997,-0.003512,0.001628,0.000404,-40.869999,5.06,-14.75,2d
2019-07-15_182803:820,-0.36248800000000003,-0.011169,-0.340118,-0.00339,0.001537,0.000404,-40.869999,5.06,-14.75,2d
2019-07-15_182803:840,-0.36248800000000003,-0.009125,-0.340118,-0.003237,0.0012619999999999999,0.000526,-40.560001,5.75,-15.56,2d
2019-07-15_182803:860,-0.363007,-0.009644,-0.340118,-0.0033280000000000002,0.001353,0.000496,-40.560001,5.75,-15.56,2d
2019-07-15_182803:880,-0.363007,-0.008118,-0.341644,-0.0036340000000000005,0.0012619999999999999,0.000465,-40.18,6.18,-15.56,2d
2019-07-15_182803:900,-0.36248800000000003,-0.009644,-0.341644,-0.0036950000000000004,0.001292,0.000343,-40.18,6.18,-15.56,2d
2019-07-15_182803:920,-0.363007,-0.010162000000000001,-0.34265100000000004,-0.003817,0.0014759999999999999,0.000496,-40.18,6.18,-15.56,2d
2019-07-15_182803:940,-0.363007,-0.009644,-0.344177,-0.003878,0.0014759999999999999,0.000526,-40.560001,5.75,-13.18,2d
2019-07-15_182803:960,-0.36248800000000003,-0.010162000000000001,-0.34063699999999997,-0.003664,0.0014759999999999999,0.000709,-40.560001,5.75,-13.18,2d
2019-07-15_182803:980,-0.36554000000000003,-0.009644,-0.34265100000000004,-0.003512,0.001598,0.000831,-40.560001,5.75,-13.18,2d
2019-07-15_182804:000,-0.36654699999999996,-0.010651,-0.341125,-0.003237,0.001842,0.000404,-40.560001,5.75,-13.18,2d
2019-07-15_182804:020,-0.36554000000000003,-0.006592,-0.340118,-0.003512,0.002574,0.00132,-40.560001,5.75,-13.18,2d
2019-07-15_182804:040,-0.36554000000000003,-0.008118,-0.341125,-0.003878,0.002574,0.00132,-40.18,4.68,-13.56,2d
2019-07-15_182804:060,-0.361481,-0.008118,-0.338593,-0.004397,0.0023,0.000923,-40.18,4.68,-13.56,2d
2019-07-15_182804:080,-0.361969,-0.010651,-0.34063699999999997,-0.00461,0.002055,0.000709,-40.18,5.75,-13.18,2d
2019-07-15_182804:100,-0.361969,-0.012177,-0.34063699999999997,-0.004824,0.001628,-0.000389,-40.18,5.75,-13.18,2d
2019-07-15_182804:120,-0.363007,-0.012177,-0.340118,-0.004213000000000001,0.001598,0.000221,-40.18,5.75,-13.18,2d
2019-07-15_182804:140,-0.36349499999999996,-0.012695,-0.34063699999999997,-0.003664,0.0017809999999999998,0.000587,-41.25,5.5,-13.87,2d
2019-07-15_182804:160,-0.364014,-0.010651,-0.3396,-0.0034509999999999996,0.0019030000000000002,-0.00011499999999999999,-41.25,5.5,-13.87,2d
2019-07-15_182804:180,-0.364014,-0.009125,-0.341644,-0.0031149999999999997,0.001964,0.00016,-39.75,6.56,-14.75,2d
2019-07-15_182804:200,-0.364014,-0.009125,-0.34063699999999997,-0.003176,0.002177,0.000129,-39.75,6.56,-14.75,2d
2019-07-15_182804:220,-0.363007,-0.008118,-0.340118,-0.0032979999999999997,0.001994,-0.00023700000000000001,-39.75,6.56,-14.75,2d
2019-07-15_182804:240,-0.364014,-0.008118,-0.340118,-0.0034509999999999996,0.002116,7.000000000000001e-06,-40.560001,6.18,-14.37,2d
2019-07-15_182804:260,-0.36706500000000003,-0.010162000000000001,-0.338593,-0.0034509999999999996,0.001994,7.000000000000001e-06,-40.560001,6.18,-14.37,2d
2019-07-15_182804:280,-0.365021,-0.009125,-0.34063699999999997,-0.0033280000000000002,0.001994,-0.00023700000000000001,-40.18,4.68,-13.56,2d
2019-07-15_182804:300,-0.365021,-0.008636,-0.34063699999999997,-0.0032979999999999997,0.002055,6.8e-05,-40.18,4.68,-13.56,2d
2019-07-15_182804:320,-0.364014,-0.008118,-0.3396,-0.0031149999999999997,0.001842,0.000343,-40.18,4.68,-13.56,2d
2019-07-15_182804:340,-0.364014,-0.006592,-0.3396,-0.00339,0.0019030000000000002,0.000404,-40.18,5.5,-14.37,2d
2019-07-15_182804:360,-0.364532,-0.006072999999999999,-0.336548,-0.003512,0.001964,0.000984,-40.18,5.5,-14.37,2d
2019-07-15_182804:380,-0.36654699999999996,-0.007599,-0.337067,-0.003664,0.001994,0.0007700000000000001,-40.18,5.5,-14.37,2d
2019-07-15_182804:400,-0.36248800000000003,-0.008118,-0.33758499999999997,-0.004091,0.001964,0.00016,-40.18,5.5,-14.37,2d
2019-07-15_182804:420,-0.36349499999999996,-0.009644,-0.336548,-0.003878,0.00172,0.0007700000000000001,-40.18,5.5,-14.37,2d
2019-07-15_182804:440,-0.364532,-0.010651,-0.340118,-0.003664,0.001537,0.000709,-40.18,6.18,-13.87,2d
2019-07-15_182804:460,-0.364014,-0.010651,-0.338074,-0.0036340000000000005,0.001292,0.000526,-40.18,6.18,-13.87,2d
2019-07-15_182804:480,-0.364532,-0.008636,-0.3396,-0.003512,0.001353,0.000496,-40.869999,5.5,-12.75,2d
2019-07-15_182804:500,-0.363007,-0.009125,-0.3396,-0.0036340000000000005,0.001415,7.000000000000001e-06,-40.869999,5.5,-12.75,2d
2019-07-15_182804:520,-0.364014,-0.008636,-0.340118,-0.003878,0.001201,-0.000328,-40.869999,5.5,-12.75,2d
2019-07-15_182804:540,-0.363007,-0.009644,-0.34063699999999997,-0.003878,0.0009570000000000001,-0.000328,-40.18,5.5,-14.75,2d
2019-07-15_182804:560,-0.365021,-0.009644,-0.339111,-0.0037560000000000002,0.000865,-0.00045099999999999996,-40.18,5.5,-14.75,2d
2019-07-15_182804:580,-0.364532,-0.009644,-0.341125,-0.00339,0.001292,-0.000573,-40.560001,5.5,-14.75,2d
2019-07-15_182804:600,-0.36349499999999996,-0.009125,-0.341644,-0.002932,0.001415,-0.000328,-40.560001,5.5,-14.75,2d
2019-07-15_182804:620,-0.364014,-0.007599,-0.3396,-0.0028399999999999996,0.001415,-0.000176,-40.560001,5.5,-14.75,2d
2019-07-15_182804:640,-0.364014,-0.005065999999999999,-0.34063699999999997,-0.002993,0.001415,0.00028199999999999997,-40.18,6.56,-14.75,2d
2019-07-15_182804:660,-0.364532,-0.005065999999999999,-0.340118,-0.0033280000000000002,0.0014759999999999999,0.000587,-40.18,6.56,-14.75,2d
2019-07-15_182804:680,-0.364532,-0.0055850000000000006,-0.340118,-0.003878,0.00172,0.000984,-40.560001,5.5,-13.87,2d
2019-07-15_182804:700,-0.36349499999999996,-0.007599,-0.34063699999999997,-0.004336,0.0016589999999999999,0.001045,-40.560001,5.5,-13.87,2d
2019-07-15_182804:720,-0.361969,-0.008636,-0.338074,-0.004671,0.0016589999999999999,0.001045,-40.560001,5.5,-13.87,2d
2019-07-15_182804:740,-0.364014,-0.008636,-0.3396,-0.004488000000000001,0.001628,0.001045,-40.869999,5.06,-13.56,2d
2019-07-15_182804:760,-0.364014,-0.010162000000000001,-0.34063699999999997,-0.004397,0.001415,0.001106,-40.869999,5.06,-13.56,2d
2019-07-15_182804:780,-0.364014,-0.010162000000000001,-0.340118,-0.00403,0.001353,0.000984,-40.18,6.18,-13.56,2d
2019-07-15_182804:800,-0.36349499999999996,-0.009125,-0.3396,-0.003878,0.001537,0.000923,-40.18,6.18,-13.56,2d
2019-07-15_182804:820,-0.363007,-0.009125,-0.3396,-0.0037560000000000002,0.0014759999999999999,0.0008619999999999999,-40.18,6.18,-13.56,2d
2019-07-15_182804:840,-0.364014,-0.007599,-0.340118,-0.0036340000000000005,0.001415,0.0008619999999999999,-40.560001,5.75,-13.18,2d
2019-07-15_182804:860,-0.36349499999999996,-0.008636,-0.3396,-0.003878,0.001292,0.000648,-40.560001,5.75,-13.18,2d
2019-07-15_182804:880,-0.364014,-0.008636,-0.34063699999999997,-0.00403,0.001292,0.000465,-40.560001,5.75,-13.18,2d
2019-07-15_182804:900,-0.364014,-0.009644,-0.340118,-0.004,0.0014759999999999999,0.000526,-40.18,5.75,-13.87,2d
2019-07-15_182804:920,-0.363007,-0.009125,-0.340118,-0.003878,0.0012619999999999999,0.000465,-40.18,5.75,-13.87,2d
2019-07-15_182804:940,-0.364014,-0.009125,-0.340118,-0.003512,0.001353,0.0007700000000000001,-39.369999,5.75,-15.18,2d
2019-07-15_182804:960,-0.364014,-0.008636,-0.340118,-0.0034509999999999996,0.0012619999999999999,0.0007700000000000001,-39.369999,5.75,-15.18,2d
2019-07-15_182804:980,-0.366058,-0.009125,-0.341125,-0.0032979999999999997,0.0014759999999999999,0.000923,-40.18,5.75,-13.87,2d
2019-07-15_182805:000,-0.364014,-0.009125,-0.342163,-0.00339,0.001628,0.0007700000000000001,-40.18,5.75,-13.87,2d
2019-07-15_182805:020,-0.366058,-0.006592,-0.338593,-0.0033280000000000002,0.0019030000000000002,0.001045,-40.18,5.75,-13.87,2d
2019-07-15_182805:040,-0.366058,-0.007599,-0.3396,-0.0036950000000000004,0.002116,0.0018989999999999999,-39.75,5.75,-13.87,2d
2019-07-15_182805:060,-0.36349499999999996,-0.008118,-0.339111,-0.004091,0.002391,0.001503,-39.75,5.75,-13.87,2d
