timestamp,AccX,AccY,AccZ,GyroX,GyroY,GyroZ,MagX,MagY,MagZ,Activity
2019-07-15_184148:440,-0.385864,0.008636,-0.322327,-0.001192,0.001537,-0.002983,-34.5,-22.370001000000002,-20.0,3b
2019-07-15_184148:460,-0.382812,0.007111,-0.322845,-0.0032979999999999997,0.002239,-0.0019149999999999998,-33.75,-21.25,-18.75,3b
2019-07-15_184148:480,-0.376221,0.001495,-0.321808,-0.005404,0.002116,-0.0021899999999999997,-33.75,-21.25,-18.75,3b
2019-07-15_184148:500,-0.378754,-0.0025329999999999997,-0.320282,-0.006319,0.00172,-0.0017629999999999998,-33.75,-22.0,-20.370001000000002,3b
2019-07-15_184148:520,-0.37316900000000003,-0.008636,-0.322327,-0.006136,0.001415,-0.0011220000000000002,-33.75,-22.0,-20.370001000000002,3b
2019-07-15_184148:540,-0.377747,-0.010651,-0.322845,-0.004946,0.001018,-0.001641,-33.75,-22.0,-20.370001000000002,3b
2019-07-15_184148:560,-0.379791,-0.006072999999999999,-0.326904,-0.003573,0.001415,-0.001458,-33.75,-22.75,-20.370001000000002,3b
2019-07-15_184148:580,-0.371643,-0.0035399999999999997,-0.327423,-0.002657,0.00172,-0.000908,-33.75,-22.75,-20.370001000000002,3b
2019-07-15_184148:600,-0.372162,0.001495,-0.32843,-0.0025960000000000002,0.001415,-0.000573,-34.5,-22.75,-20.0,3b
2019-07-15_184148:620,-0.37112399999999995,0.0030210000000000002,-0.327423,-0.0031149999999999997,0.001537,-0.000389,-34.5,-22.75,-20.0,3b
2019-07-15_184148:640,-0.368073,0.0,-0.330963,-0.004213000000000001,0.001537,-0.001183,-34.5,-22.75,-20.0,3b
2019-07-15_184148:660,-0.367584,-0.001007,-0.33197,-0.004488000000000001,0.001537,-0.0012439999999999999,-33.369999,-22.370001000000002,-19.559998999999998,3b
2019-07-15_184148:680,-0.370636,-0.007111,-0.335541,-0.0037560000000000002,0.001292,-0.0013050000000000002,-33.369999,-22.370001000000002,-19.559998999999998,3b
2019-07-15_184148:700,-0.37011700000000003,-0.006592,-0.336548,-0.002382,0.001292,-0.0023120000000000003,-33.369999,-23.059998999999998,-20.370001000000002,3b
2019-07-15_184148:720,-0.372162,-0.005065999999999999,-0.33197,-0.0006730000000000001,0.001598,-0.00216,-33.369999,-23.059998999999998,-20.370001000000002,3b
2019-07-15_184148:740,-0.369598,-0.004059,-0.332489,0.00073,0.002513,-0.000908,-33.369999,-23.059998999999998,-20.370001000000002,3b
2019-07-15_184148:760,-0.368591,-0.0025329999999999997,-0.32995599999999997,0.001524,0.003124,-0.0008470000000000001,-34.060001,-22.0,-19.870001000000002,3b
2019-07-15_184148:780,-0.384338,0.0025329999999999997,-0.319794,0.0012490000000000001,0.003825,-0.000664,-34.060001,-22.0,-19.870001000000002,3b
2019-07-15_184148:800,-0.389954,0.006592,-0.320282,-0.0009789999999999998,0.004161,0.001167,-34.060001,-22.75,-20.75,3b
2019-07-15_184148:820,-0.40011599999999997,-0.002014,-0.31723,-0.003512,0.005046,0.001838,-34.060001,-22.75,-20.75,3b
2019-07-15_184148:840,-0.404175,-0.004547,-0.317749,-0.005861,0.006541,6.8e-05,-34.060001,-22.75,-20.75,3b
2019-07-15_184148:860,-0.390961,-0.008118,-0.309601,-0.006807,0.008006000000000001,-0.001458,-33.75,-22.75,-20.75,3b
2019-07-15_184148:880,-0.38739,-0.008118,-0.30654899999999996,-0.007081999999999999,0.008952,-0.000176,-33.75,-22.75,-20.75,3b
2019-07-15_184148:900,-0.37674,-0.009125,-0.310638,-0.0069299999999999995,0.008281,0.001045,-34.5,-23.059998999999998,-20.0,3b
2019-07-15_184148:920,-0.384338,-0.010651,-0.310638,-0.005861,0.006876999999999999,0.001564,-34.5,-23.059998999999998,-20.0,3b
2019-07-15_184148:940,-0.390961,-0.009644,-0.315704,-0.003817,0.005961999999999999,0.0007700000000000001,-34.5,-23.059998999999998,-20.0,3b
2019-07-15_184148:960,-0.385376,-0.007599,-0.316223,-0.0015279999999999998,0.006023,7.000000000000001e-06,-34.060001,-23.059998999999998,-19.18,3b
2019-07-15_184148:980,-0.388916,0.000488,-0.319275,5.9e-05,0.007365000000000001,0.000709,-34.060001,-23.059998999999998,-19.18,3b
2019-07-15_184149:000,-0.390442,0.000488,-0.318268,0.000669,0.008739,0.000404,-34.18,-22.370001000000002,-19.870001000000002,3b
2019-07-15_184149:020,-0.384338,0.004059,-0.319275,0.001188,0.009807,-0.001702,-34.18,-22.370001000000002,-19.870001000000002,3b
2019-07-15_184149:040,-0.386383,0.0030210000000000002,-0.318756,0.000944,0.010020000000000001,-0.003106,-34.18,-22.370001000000002,-19.870001000000002,3b
2019-07-15_184149:060,-0.391479,0.0025329999999999997,-0.315216,0.000852,0.010417000000000001,-0.003563,-33.75,-22.75,-18.75,3b
2019-07-15_184149:080,-0.391479,0.0030210000000000002,-0.306061,0.000608,0.011271999999999999,-0.004509,-33.75,-22.75,-18.75,3b
2019-07-15_184149:100,-0.391479,0.001007,-0.296387,0.000151,0.011545999999999999,-0.004235,-34.18,-22.75,-19.18,3b
2019-07-15_184149:120,-0.392487,0.000488,-0.294373,-2e-06,0.011058,-0.003655,-34.18,-22.75,-19.18,3b
2019-07-15_184149:140,-0.388428,-0.0025329999999999997,-0.28979499999999997,-0.000277,0.010143000000000001,-0.003106,-34.18,-22.75,-19.18,3b
2019-07-15_184149:160,-0.385864,-0.001495,-0.28979499999999997,-0.000338,0.00883,-0.002434,-33.869999,-22.75,-18.75,3b
2019-07-15_184149:180,-0.389435,-0.0035399999999999997,-0.290802,-0.000338,0.007213,-0.002251,-33.869999,-22.75,-18.75,3b
2019-07-15_184149:200,-0.38739,-0.0035399999999999997,-0.28927600000000003,-2e-06,0.005412,-0.001183,-33.869999,-22.75,-19.870001000000002,3b
2019-07-15_184149:220,-0.387909,-0.008118,-0.290802,0.000395,0.004954999999999999,-0.000725,-33.869999,-22.75,-19.870001000000002,3b
2019-07-15_184149:240,-0.385864,-0.009125,-0.291321,0.001402,0.0031850000000000003,0.000129,-33.869999,-22.75,-19.870001000000002,3b
2019-07-15_184149:260,-0.390442,-0.010162000000000001,-0.293854,0.002531,0.002239,-0.00045099999999999996,-34.5,-22.370001000000002,-19.870001000000002,3b
2019-07-15_184149:280,-0.384857,-0.008636,-0.296387,0.004057,-0.000264,-0.0009689999999999999,-34.5,-22.370001000000002,-19.870001000000002,3b
2019-07-15_184149:300,-0.384857,-0.009125,-0.296906,0.004392,-0.0009050000000000001,-0.000786,-34.5,-22.75,-19.870001000000002,3b
2019-07-15_184149:320,-0.386383,-0.010651,-0.295898,0.005308,-0.002705,-0.001,-34.5,-22.75,-19.870001000000002,3b
2019-07-15_184149:340,-0.391479,-0.009125,-0.296387,0.006193,-0.002919,-0.000786,-34.5,-22.75,-19.870001000000002,3b
2019-07-15_184149:360,-0.394012,-0.009125,-0.301483,0.006376,-0.002919,-0.0010609999999999999,-34.5,-22.370001000000002,-19.18,3b
2019-07-15_184149:380,-0.391968,-0.007111,-0.30300900000000003,0.0073219999999999995,-0.00298,-0.000664,-34.5,-22.370001000000002,-19.18,3b
2019-07-15_184149:400,-0.393005,-0.007599,-0.305542,0.007626999999999999,-0.002522,0.000343,-33.75,-22.75,-19.18,3b
2019-07-15_184149:420,-0.399597,-0.008636,-0.309113,0.007566,-0.0007830000000000001,0.001258,-33.75,-22.75,-19.18,3b
2019-07-15_184149:440,-0.395538,-0.009644,-0.311646,0.007292,0.00016299999999999998,0.001716,-33.75,-22.75,-19.18,3b
2019-07-15_184149:460,-0.386383,-0.009644,-0.312653,0.007109000000000001,0.000468,0.002052,-33.75,-23.059998999999998,-19.559998999999998,3b
2019-07-15_184149:480,-0.382812,-0.009644,-0.312164,0.006162,0.000133,0.0022960000000000003,-33.75,-23.059998999999998,-19.559998999999998,3b
2019-07-15_184149:500,-0.389954,-0.012695,-0.31369,0.005308,0.00022400000000000002,0.002052,-34.5,-22.0,-20.68,3b
2019-07-15_184149:520,-0.393005,-0.012695,-0.312164,0.0032630000000000003,0.001537,0.0007700000000000001,-34.5,-22.0,-20.68,3b
2019-07-15_184149:540,-0.394531,-0.011687999999999999,-0.310638,0.001737,0.002635,0.0007700000000000001,-34.5,-22.0,-20.68,3b
2019-07-15_184149:560,-0.391968,-0.014740000000000001,-0.31012,0.001005,0.002757,0.0008619999999999999,-34.5,-20.870001000000002,-20.75,3b
2019-07-15_184149:580,-0.386902,-0.014221000000000001,-0.307068,-0.00107,0.002696,0.001258,-34.5,-20.870001000000002,-20.75,3b
2019-07-15_184149:600,-0.38385,-0.015747,-0.306061,-0.0020469999999999998,0.002116,0.001655,-34.5,-22.0,-19.870001000000002,3b
2019-07-15_184149:620,-0.385864,-0.01828,-0.304535,-0.004213000000000001,0.000743,0.002388,-34.5,-22.0,-19.870001000000002,3b
2019-07-15_184149:640,-0.396057,-0.020325,-0.30654899999999996,-0.005282,0.001537,0.002235,-34.5,-22.0,-19.870001000000002,3b
2019-07-15_184149:660,-0.393494,-0.024384,-0.308594,-0.0058,0.001842,0.00196,-34.060001,-21.559998999999998,-19.870001000000002,3b
2019-07-15_184149:680,-0.388916,-0.025421,-0.309113,-0.006411,0.002574,0.001228,-34.060001,-21.559998999999998,-19.870001000000002,3b
2019-07-15_184149:700,-0.385376,-0.028442000000000002,-0.311127,-0.0064719999999999995,0.0023,0.001045,-34.869999,-21.25,-20.370001000000002,3b
2019-07-15_184149:720,-0.386902,-0.030487,-0.311646,-0.005556,0.002055,-0.000176,-34.869999,-21.25,-20.370001000000002,3b
2019-07-15_184149:740,-0.396057,-0.028442000000000002,-0.310638,-0.004732,0.0031850000000000003,-0.000908,-34.869999,-21.25,-20.370001000000002,3b
2019-07-15_184149:760,-0.392487,-0.029968,-0.309113,-0.004336,0.0035810000000000004,-0.001458,-34.060001,-21.25,-20.370001000000002,3b
2019-07-15_184149:780,-0.391968,-0.022858,-0.31012,-0.002993,0.0041,-0.00045099999999999996,-34.060001,-21.25,-20.370001000000002,3b
2019-07-15_184149:800,-0.389954,-0.022858,-0.31012,-0.0025050000000000003,0.003917,0.000343,-34.5,-21.25,-20.370001000000002,3b
2019-07-15_184149:820,-0.398071,-0.023375999999999997,-0.30654899999999996,-0.0014060000000000001,0.0045579999999999996,-0.000725,-34.5,-21.25,-20.370001000000002,3b
2019-07-15_184149:840,-0.392487,-0.021332,-0.305054,-0.0006730000000000001,0.004771,-0.000725,-34.5,-21.25,-20.370001000000002,3b
2019-07-15_184149:860,-0.389954,-0.021851,-0.30300900000000003,-0.0006730000000000001,0.004619,-0.000389,-34.5,-21.25,-20.75,3b
2019-07-15_184149:880,-0.392487,-0.020325,-0.29995700000000003,-0.001009,0.004649,-0.000512,-34.5,-21.25,-20.75,3b
2019-07-15_184149:900,-0.392487,-0.015228,-0.296906,-0.001375,0.0052899999999999996,-0.0008470000000000001,-34.5,-22.0,-19.870001000000002,3b
2019-07-15_184149:920,-0.393494,-0.011687999999999999,-0.29895,-0.003054,0.005901,-0.0017629999999999998,-34.5,-22.0,-19.870001000000002,3b
2019-07-15_184149:940,-0.390442,-0.012177,-0.301483,-0.00403,0.005168,-0.002037,-34.5,-22.0,-19.870001000000002,3b
2019-07-15_184149:960,-0.390442,-0.014221000000000001,-0.30249000000000004,-0.004488000000000001,0.004771,-0.0021899999999999997,-34.060001,-21.25,-21.18,3b
2019-07-15_184149:980,-0.39859,-0.016266,-0.302002,-0.00461,0.004375,-0.0032890000000000003,-34.060001,-21.25,-21.18,3b
2019-07-15_184150:000,-0.39859,-0.016753999999999998,-0.300476,-0.004397,0.0045579999999999996,-0.002983,-34.5,-21.25,-20.370001000000002,3b
2019-07-15_184150:020,-0.40063499999999996,-0.01828,-0.297913,-0.0032979999999999997,0.005107,-0.0019760000000000003,-34.5,-21.25,-20.370001000000002,3b
2019-07-15_184150:040,-0.399109,-0.017792,-0.29995700000000003,-0.002932,0.005626,-0.00216,-34.5,-21.25,-20.370001000000002,3b
2019-07-15_184150:060,-0.399109,-0.015747,-0.29232800000000003,-0.0028399999999999996,0.006297,-0.002037,-34.869999,-21.559998999999998,-21.18,3b
2019-07-15_184150:080,-0.391968,-0.014221000000000001,-0.285217,-0.002993,0.006023,-0.002709,-34.869999,-21.559998999999998,-21.18,3b
2019-07-15_184150:100,-0.391479,-0.012695,-0.28418000000000004,-0.003176,0.005229,-0.002892,-34.869999,-22.0,-19.870001000000002,3b
2019-07-15_184150:120,-0.389435,-0.012177,-0.286224,-0.004275,0.002574,-0.0029219999999999997,-34.869999,-22.0,-19.870001000000002,3b
2019-07-15_184150:140,-0.390961,-0.011687999999999999,-0.28875700000000004,-0.004732,0.00114,-0.003045,-34.869999,-22.0,-19.870001000000002,3b
2019-07-15_184150:160,-0.384338,-0.012177,-0.28418000000000004,-0.004946,0.000407,-0.002983,-34.5,-21.559998999999998,-19.18,3b
2019-07-15_184150:180,-0.388428,-0.013213999999999998,-0.28875700000000004,-0.005068,-0.002095,-0.003624,-34.5,-21.559998999999998,-19.18,3b
2019-07-15_184150:200,-0.40063499999999996,-0.012177,-0.288269,-0.004946,-0.001973,-0.0038380000000000003,-34.5,-21.559998999999998,-19.18,3b
2019-07-15_184150:220,-0.382812,-0.011169,-0.296906,-0.004427,-0.001179,-0.003655,-34.869999,-22.0,-18.75,3b
2019-07-15_184150:240,-0.385864,-0.010651,-0.300964,-0.0033280000000000002,-0.0032240000000000003,-0.003563,-34.869999,-22.0,-18.75,3b
2019-07-15_184150:260,-0.386902,-0.007111,-0.304016,-0.002932,-0.0039570000000000004,-0.0034409999999999996,-34.5,-22.370001000000002,-19.870001000000002,3b
2019-07-15_184150:280,-0.394012,-0.007111,-0.307068,-0.002718,-0.00475,-0.00216,-34.5,-22.370001000000002,-19.870001000000002,3b
2019-07-15_184150:300,-0.397064,-0.006592,-0.308594,-0.002779,-0.004445,-0.002098,-34.5,-22.370001000000002,-19.870001000000002,3b
2019-07-15_184150:320,-0.401123,-0.006592,-0.311646,-0.003573,-0.0027660000000000002,-0.00216,-34.060001,-22.0,-19.18,3b
2019-07-15_184150:340,-0.397583,-0.006592,-0.309113,-0.003664,-0.0024920000000000003,-0.00216,-34.060001,-22.0,-19.18,3b
2019-07-15_184150:360,-0.394012,-0.009125,-0.307587,-0.003817,-0.002034,-0.002434,-34.5,-22.0,-20.370001000000002,3b
2019-07-15_184150:380,-0.401642,-0.008636,-0.307068,-0.004213000000000001,-0.0008439999999999999,-0.002892,-34.5,-22.0,-20.370001000000002,3b
2019-07-15_184150:400,-0.40368699999999996,-0.007599,-0.307587,-0.004336,0.0008039999999999999,-0.002098,-34.5,-22.0,-20.370001000000002,3b
2019-07-15_184150:420,-0.397583,-0.008118,-0.30300900000000003,-0.003939,0.002116,-0.000573,-33.369999,-22.75,-19.559998999999998,3b
2019-07-15_184150:440,-0.39502,-0.008118,-0.300964,-0.002993,0.003368,0.0007700000000000001,-33.369999,-22.75,-19.559998999999998,3b
2019-07-15_184150:460,-0.392487,-0.006592,-0.302002,-0.002657,0.003124,0.001167,-33.369999,-22.0,-20.0,3b
2019-07-15_184150:480,-0.393005,-0.006592,-0.29995700000000003,-0.002993,0.002696,0.001655,-33.369999,-22.0,-20.0,3b
2019-07-15_184150:500,-0.395538,-0.007111,-0.301483,-0.0031149999999999997,0.002788,0.0018989999999999999,-33.369999,-22.0,-20.0,3b
2019-07-15_184150:520,-0.39502,-0.007111,-0.301483,-0.004152,0.003032,0.002052,-34.060001,-22.370001000000002,-19.870001000000002,3b
2019-07-15_184150:540,-0.388916,-0.010651,-0.29995700000000003,-0.00403,0.003093,0.001564,-34.060001,-22.370001000000002,-19.870001000000002,3b
2019-07-15_184150:560,-0.397064,-0.011169,-0.301483,-0.003939,0.0029100000000000003,0.00016,-33.75,-22.370001000000002,-19.870001000000002,3b
2019-07-15_184150:580,-0.397583,-0.010162000000000001,-0.30249000000000004,-0.0036950000000000004,0.002971,0.00132,-33.75,-22.370001000000002,-19.870001000000002,3b
2019-07-15_184150:600,-0.399109,-0.010651,-0.304535,-0.0032979999999999997,0.003246,0.0018989999999999999,-33.75,-22.370001000000002,-19.870001000000002,3b
2019-07-15_184150:620,-0.405212,-0.007111,-0.304535,-0.003237,0.004314,0.000709,-34.060001,-23.059998999999998,-19.559998999999998,3b
2019-07-15_184150:640,-0.40368699999999996,-0.004547,-0.304016,-0.0033280000000000002,0.005686999999999999,0.001167,-34.060001,-23.059998999999998,-19.559998999999998,3b
2019-07-15_184150:660,-0.40316799999999997,-0.0030210000000000002,-0.30300900000000003,-0.003939,0.0069689999999999995,0.002235,-34.060001,-22.370001000000002,-21.18,3b
2019-07-15_184150:680,-0.405212,-0.004547,-0.300476,-0.004824,0.007762000000000001,0.002388,-34.060001,-22.370001000000002,-21.18,3b
2019-07-15_184150:700,-0.402161,-0.006072999999999999,-0.29742399999999997,-0.005465,0.00883,0.002967,-34.060001,-22.370001000000002,-21.18,3b
2019-07-15_184150:720,-0.397583,-0.006072999999999999,-0.295898,-0.005953,0.009073999999999999,0.003242,-34.060001,-22.0,-18.75,3b
2019-07-15_184150:740,-0.392487,-0.010162000000000001,-0.28775,-0.006197,0.00883,0.003761,-34.060001,-22.0,-18.75,3b
2019-07-15_184150:760,-0.387909,-0.013213999999999998,-0.284698,-0.005953,0.007304000000000001,0.003486,-34.5,-22.370001000000002,-18.370001000000002,3b
2019-07-15_184150:780,-0.388428,-0.014221000000000001,-0.285217,-0.005526,0.0052899999999999996,0.0029059999999999997,-34.5,-22.370001000000002,-18.370001000000002,3b
2019-07-15_184150:800,-0.394531,-0.015747,-0.28112800000000004,-0.004824,0.003093,0.001991,-34.5,-22.370001000000002,-18.370001000000002,3b
2019-07-15_184150:820,-0.40063499999999996,-0.015747,-0.281647,-0.003878,0.001964,0.0007700000000000001,-34.5,-22.0,-18.75,3b
2019-07-15_184150:840,-0.40976,-0.013213999999999998,-0.28369099999999997,-0.003054,0.00172,-0.000389,-34.5,-22.0,-18.75,3b
2019-07-15_184150:860,-0.40368699999999996,-0.012177,-0.285706,-0.002657,0.002696,-0.001,-34.5,-22.0,-19.559998999999998,3b
2019-07-15_184150:880,-0.394531,-0.010651,-0.28775,-0.002443,0.002696,-0.0019149999999999998,-34.5,-22.0,-19.559998999999998,3b
2019-07-15_184150:900,-0.391968,-0.009644,-0.288269,-0.001986,0.001415,-0.002526,-34.5,-22.0,-19.559998999999998,3b
2019-07-15_184150:920,-0.394531,-0.007599,-0.288269,-0.0014060000000000001,0.00022400000000000002,-0.002495,-34.869999,-21.559998999999998,-19.559998999999998,3b
2019-07-15_184150:940,-0.402649,-0.007111,-0.28927600000000003,-0.001009,-0.00044699999999999997,-0.002587,-34.869999,-21.559998999999998,-19.559998999999998,3b
2019-07-15_184150:960,-0.40316799999999997,-0.0055850000000000006,-0.29284699999999997,-0.000857,-0.000172,-0.0021899999999999997,-33.75,-22.75,-20.370001000000002,3b
2019-07-15_184150:980,-0.40063499999999996,-0.005065999999999999,-0.29284699999999997,-0.001009,0.000407,-0.001641,-33.75,-22.75,-20.370001000000002,3b
2019-07-15_184151:000,-0.40063499999999996,-0.004547,-0.293854,-0.00107,0.000499,-0.001458,-33.75,-22.75,-20.370001000000002,3b
2019-07-15_184151:020,-0.402649,-0.006072999999999999,-0.29180900000000004,-0.001467,0.000407,-0.000725,-34.869999,-22.370001000000002,-19.559998999999998,3b
2019-07-15_184151:040,-0.40316799999999997,-0.007111,-0.29232800000000003,-0.001925,0.0008960000000000001,-0.000328,-34.869999,-22.370001000000002,-19.559998999999998,3b
2019-07-15_184151:060,-0.40316799999999997,-0.007111,-0.29486100000000004,-0.002443,0.0012619999999999999,0.000129,-34.5,-22.370001000000002,-19.559998999999998,3b
2019-07-15_184151:080,-0.401123,-0.010162000000000001,-0.293854,-0.002993,0.0014759999999999999,0.000526,-34.5,-22.370001000000002,-19.559998999999998,3b
2019-07-15_184151:100,-0.397064,-0.009644,-0.294373,-0.003237,0.001537,0.000221,-34.060001,-22.370001000000002,-19.18,3b
2019-07-15_184151:120,-0.397583,-0.009644,-0.29232800000000003,-0.0033280000000000002,0.0012619999999999999,0.000526,-34.060001,-22.370001000000002,-19.18,3b
2019-07-15_184151:140,-0.399597,-0.009644,-0.29232800000000003,-0.003573,0.0008039999999999999,0.001258,-34.060001,-22.370001000000002,-19.18,3b
2019-07-15_184151:160,-0.399109,-0.009644,-0.294373,-0.003939,0.0010789999999999999,0.001655,-34.5,-22.75,-20.370001000000002,3b
2019-07-15_184151:180,-0.398071,-0.009125,-0.293335,-0.004152,0.00114,0.002113,-34.5,-22.75,-20.370001000000002,3b
2019-07-15_184151:200,-0.397583,-0.010162000000000001,-0.29538000000000003,-0.004427,0.001018,0.002388,-34.5,-22.75,-20.370001000000002,3b
2019-07-15_184151:220,-0.395538,-0.013213999999999998,-0.29538000000000003,-0.004488000000000001,0.0010789999999999999,0.002388,-33.75,-22.0,-19.870001000000002,3b
2019-07-15_184151:240,-0.39859,-0.012695,-0.29486100000000004,-0.004793,0.000682,0.0021739999999999997,-33.75,-22.0,-19.870001000000002,3b
2019-07-15_184151:260,-0.39859,-0.013702,-0.295898,-0.005007,0.000865,0.0018989999999999999,-34.060001,-22.0,-19.870001000000002,3b
2019-07-15_184151:280,-0.398071,-0.013702,-0.293854,-0.005068,0.00114,0.001625,-34.060001,-22.0,-19.870001000000002,3b
2019-07-15_184151:300,-0.398071,-0.015228,-0.29284699999999997,-0.004946,0.00114,0.001716,-34.060001,-22.0,-19.870001000000002,3b
2019-07-15_184151:320,-0.40063499999999996,-0.015747,-0.29284699999999997,-0.004549,0.00114,0.001167,-34.060001,-22.75,-19.18,3b
2019-07-15_184151:340,-0.40063499999999996,-0.012177,-0.29180900000000004,-0.004275,0.0010789999999999999,0.000923,-34.060001,-22.75,-19.18,3b
2019-07-15_184151:360,-0.398071,-0.013702,-0.294373,-0.004336,0.0008039999999999999,0.002388,-34.869999,-22.0,-19.18,3b
2019-07-15_184151:380,-0.40011599999999997,-0.015228,-0.293335,-0.00461,0.000682,0.002052,-34.869999,-22.0,-19.18,3b
2019-07-15_184151:400,-0.399597,-0.014740000000000001,-0.294373,-0.004793,0.000743,0.000709,-34.869999,-22.0,-19.18,3b
2019-07-15_184151:420,-0.402649,-0.014221000000000001,-0.296906,-0.004671,0.001018,0.000221,-34.5,-22.370001000000002,-19.18,3b
2019-07-15_184151:440,-0.399109,-0.016266,-0.296387,-0.004671,0.001628,0.000465,-34.5,-22.370001000000002,-19.18,3b
2019-07-15_184151:460,-0.395538,-0.015747,-0.29538000000000003,-0.004336,0.0019030000000000002,0.000648,-34.060001,-22.370001000000002,-20.75,3b
2019-07-15_184151:480,-0.399109,-0.016266,-0.29486100000000004,-0.0036950000000000004,0.002116,0.0008619999999999999,-34.060001,-22.370001000000002,-20.75,3b
2019-07-15_184151:500,-0.397583,-0.013213999999999998,-0.293854,-0.00339,0.002116,0.000709,-34.060001,-22.370001000000002,-20.75,3b
2019-07-15_184151:520,-0.396057,-0.014221000000000001,-0.294373,-0.0033280000000000002,0.0017809999999999998,0.000831,-34.5,-21.559998999999998,-20.370001000000002,3b
2019-07-15_184151:540,-0.395538,-0.013213999999999998,-0.29486100000000004,-0.0032979999999999997,0.0016589999999999999,0.000648,-34.5,-21.559998999999998,-20.370001000000002,3b
2019-07-15_184151:560,-0.397583,-0.012695,-0.29538000000000003,-0.003573,0.001537,0.000831,-34.5,-22.370001000000002,-20.370001000000002,3b
2019-07-15_184151:580,-0.399109,-0.013213999999999998,-0.293335,-0.003878,0.00172,0.000465,-34.5,-22.370001000000002,-20.370001000000002,3b
2019-07-15_184151:600,-0.398071,-0.012695,-0.29486100000000004,-0.004336,0.001842,-0.00011499999999999999,-34.5,-22.370001000000002,-20.370001000000002,3b
2019-07-15_184151:620,-0.396545,-0.013213999999999998,-0.29284699999999997,-0.004488000000000001,0.001964,-0.000176,-34.060001,-22.0,-18.75,3b
2019-07-15_184151:640,-0.397064,-0.014221000000000001,-0.293854,-0.00461,0.001994,-0.001,-34.060001,-22.0,-18.75,3b
2019-07-15_184151:660,-0.398071,-0.012177,-0.293854,-0.004213000000000001,0.001842,-0.0019149999999999998,-33.75,-23.059998999999998,-19.18,3b
2019-07-15_184151:680,-0.397064,-0.012177,-0.29486100000000004,-0.004,0.001964,-0.001366,-33.75,-23.059998999999998,-19.18,3b
2019-07-15_184151:700,-0.396057,-0.011169,-0.296387,-0.003573,0.001415,-0.0012439999999999999,-33.75,-23.059998999999998,-19.18,3b
2019-07-15_184151:720,-0.398071,-0.010651,-0.296906,-0.003237,0.0010789999999999999,-0.0013050000000000002,-33.75,-22.75,-20.75,3b
2019-07-15_184151:740,-0.40011599999999997,-0.009644,-0.295898,-0.002932,0.0010789999999999999,-0.001183,-33.75,-22.75,-20.75,3b
2019-07-15_184151:760,-0.40063499999999996,-0.006592,-0.29538000000000003,-0.002779,0.001201,-0.001366,-34.869999,-22.0,-19.559998999999998,3b
2019-07-15_184151:780,-0.398071,-0.0055850000000000006,-0.293854,-0.002779,0.0012619999999999999,-0.000908,-34.869999,-22.0,-19.559998999999998,3b
2019-07-15_184151:800,-0.396545,-0.0055850000000000006,-0.29284699999999997,-0.002932,0.00114,-0.000328,-34.869999,-22.0,-19.559998999999998,3b
2019-07-15_184151:820,-0.397064,-0.004547,-0.293854,-0.003237,0.000621,-0.00023700000000000001,-34.060001,-22.370001000000002,-20.370001000000002,3b
2019-07-15_184151:840,-0.40011599999999997,-0.005065999999999999,-0.29486100000000004,-0.003573,0.00022400000000000002,-5.4000000000000005e-05,-34.060001,-22.370001000000002,-20.370001000000002,3b
2019-07-15_184151:860,-0.399597,-0.0055850000000000006,-0.296387,-0.004,0.000407,0.000465,-34.5,-22.370001000000002,-19.559998999999998,3b
2019-07-15_184151:880,-0.399109,-0.006072999999999999,-0.29538000000000003,-0.004336,0.000499,0.000923,-34.5,-22.370001000000002,-19.559998999999998,3b
2019-07-15_184151:900,-0.402161,-0.008636,-0.29895,-0.00461,0.0010789999999999999,0.000984,-34.5,-22.370001000000002,-19.559998999999998,3b
2019-07-15_184151:920,-0.399109,-0.009644,-0.297913,-0.004549,0.001415,0.001167,-34.5,-22.0,-18.75,3b
2019-07-15_184151:940,-0.397064,-0.009644,-0.296906,-0.004427,0.001537,0.001258,-34.5,-22.0,-18.75,3b
2019-07-15_184151:960,-0.396057,-0.009644,-0.296906,-0.004397,0.001415,0.001045,-33.75,-22.370001000000002,-20.0,3b
2019-07-15_184151:980,-0.396545,-0.009644,-0.29486100000000004,-0.004213000000000001,0.00172,0.000923,-33.75,-22.370001000000002,-20.0,3b
2019-07-15_184152:000,-0.398071,-0.010651,-0.29538000000000003,-0.004213000000000001,0.001537,0.000831,-33.75,-22.370001000000002,-20.0,3b
2019-07-15_184152:020,-0.398071,-0.011169,-0.29538000000000003,-0.003878,0.001628,0.000587,-33.75,-22.0,-20.370001000000002,3b
2019-07-15_184152:040,-0.397064,-0.012177,-0.293335,-0.003664,0.001415,-0.00023700000000000001,-33.75,-22.0,-20.370001000000002,3b
2019-07-15_184152:060,-0.39502,-0.012695,-0.293854,-0.0033280000000000002,0.001415,-0.000725,-33.75,-22.0,-20.75,3b
2019-07-15_184152:080,-0.396545,-0.012177,-0.294373,-0.0029010000000000004,0.001353,-0.0011220000000000002,-33.75,-22.0,-20.75,3b
2019-07-15_184152:100,-0.398071,-0.009125,-0.29895,-0.0025050000000000003,0.000865,-0.0010609999999999999,-33.75,-22.0,-20.75,3b
2019-07-15_184152:120,-0.399597,-0.011169,-0.29895,-0.0018030000000000001,0.00056,-0.000725,-33.75,-22.0,-19.559998999999998,3b
2019-07-15_184152:140,-0.401123,-0.006072999999999999,-0.30249000000000004,-0.001467,0.0008039999999999999,-0.001641,-33.75,-22.0,-19.559998999999998,3b
2019-07-15_184152:160,-0.404175,-0.0055850000000000006,-0.304535,-0.001314,0.001292,7.000000000000001e-06,-33.75,-22.0,-19.870001000000002,3b
2019-07-15_184152:180,-0.388428,-0.007599,-0.28674299999999997,-0.0017109999999999998,0.002361,0.000831,-33.75,-22.0,-19.870001000000002,3b
2019-07-15_184152:200,-0.388428,-0.007599,-0.28418000000000004,-0.002199,0.001964,-0.000725,-33.75,-22.0,-19.870001000000002,3b
2019-07-15_184152:220,-0.396545,-0.0030210000000000002,-0.30249000000000004,-0.002657,0.000865,-0.00216,-34.060001,-22.0,-20.0,3b
2019-07-15_184152:240,-0.391479,-0.006592,-0.300476,-0.0031149999999999997,0.000133,-0.000634,-34.060001,-22.0,-20.0,3b
2019-07-15_184152:260,-0.392487,-0.008636,-0.298431,-0.003176,-0.00011100000000000001,0.000343,-34.060001,-22.370001000000002,-20.0,3b
2019-07-15_184152:280,-0.391479,-0.009644,-0.29486100000000004,-0.003054,-0.000661,0.000129,-34.060001,-22.370001000000002,-20.0,3b
2019-07-15_184152:300,-0.389954,-0.009644,-0.298431,-0.0025960000000000002,-0.00124,6.8e-05,-34.060001,-22.370001000000002,-20.0,3b
2019-07-15_184152:320,-0.392487,-0.007111,-0.29895,-0.002443,-0.001759,0.000221,-34.060001,-22.370001000000002,-19.870001000000002,3b
2019-07-15_184152:340,-0.395538,-0.007111,-0.29943800000000004,-0.0025960000000000002,-0.002187,0.000221,-34.060001,-22.370001000000002,-19.870001000000002,3b
2019-07-15_184152:360,-0.397583,-0.008118,-0.304016,-0.0028399999999999996,-0.002187,0.000343,-34.060001,-22.370001000000002,-20.370001000000002,3b
2019-07-15_184152:380,-0.398071,-0.008118,-0.304535,-0.003176,-0.001912,0.000129,-34.060001,-22.370001000000002,-20.370001000000002,3b
2019-07-15_184152:400,-0.399109,-0.009125,-0.305054,-0.0032979999999999997,-0.001393,0.000129,-34.060001,-22.370001000000002,-20.370001000000002,3b
2019-07-15_184152:420,-0.405212,-0.007599,-0.309601,-0.003512,-0.0007830000000000001,0.0007700000000000001,-34.060001,-22.75,-20.0,3b
2019-07-15_184152:440,-0.410278,-0.007111,-0.308594,-0.0034509999999999996,0.000621,0.001503,-34.060001,-22.75,-20.0,3b
2019-07-15_184152:460,-0.40063499999999996,-0.006592,-0.308075,-0.004,0.00352,0.0021739999999999997,-33.369999,-22.370001000000002,-21.559998999999998,3b
2019-07-15_184152:480,-0.39502,-0.009644,-0.305542,-0.003878,0.0042829999999999995,0.003425,-33.369999,-22.370001000000002,-21.559998999999998,3b
2019-07-15_184152:500,-0.387909,-0.012177,-0.298431,-0.00339,0.004436,0.003151,-33.369999,-22.370001000000002,-21.559998999999998,3b
2019-07-15_184152:520,-0.388916,-0.013213999999999998,-0.296387,-0.0029010000000000004,0.0041,0.00309,-33.75,-22.75,-20.370001000000002,3b
2019-07-15_184152:540,-0.390442,-0.012177,-0.29538000000000003,-0.002779,0.003307,0.0029059999999999997,-33.75,-22.75,-20.370001000000002,3b
2019-07-15_184152:560,-0.391968,-0.009644,-0.295898,-0.0032979999999999997,0.002788,0.001991,-34.060001,-22.75,-20.370001000000002,3b
2019-07-15_184152:580,-0.394012,-0.008636,-0.295898,-0.003878,0.002513,0.001716,-34.060001,-22.75,-20.370001000000002,3b
2019-07-15_184152:600,-0.393494,-0.008636,-0.298431,-0.004824,0.002177,0.0007700000000000001,-34.060001,-22.75,-20.370001000000002,3b
2019-07-15_184152:620,-0.39502,-0.010651,-0.298431,-0.005556,0.002239,6.8e-05,-34.869999,-22.370001000000002,-19.559998999999998,3b
2019-07-15_184152:640,-0.396057,-0.012177,-0.298431,-0.0058,0.0023,-0.000389,-34.869999,-22.370001000000002,-19.559998999999998,3b
2019-07-15_184152:660,-0.39502,-0.012177,-0.29995700000000003,-0.005526,0.002391,-0.000267,-33.369999,-21.559998999999998,-19.18,3b
2019-07-15_184152:680,-0.39502,-0.012695,-0.29742399999999997,-0.0048850000000000005,0.002757,-0.00011499999999999999,-33.369999,-21.559998999999998,-19.18,3b
2019-07-15_184152:700,-0.392487,-0.011687999999999999,-0.29995700000000003,-0.004275,0.002635,7.000000000000001e-06,-33.369999,-21.559998999999998,-19.18,3b
2019-07-15_184152:720,-0.393005,-0.010162000000000001,-0.297913,-0.003878,0.002635,0.000343,-34.060001,-21.559998999999998,-20.75,3b
2019-07-15_184152:740,-0.391479,-0.007111,-0.297913,-0.003817,0.002361,0.000587,-34.060001,-21.559998999999998,-20.75,3b
2019-07-15_184152:760,-0.390961,-0.008118,-0.29895,-0.004213000000000001,0.001994,0.000526,-33.75,-22.0,-19.559998999999998,3b
2019-07-15_184152:780,-0.393005,-0.007111,-0.295898,-0.00461,0.001598,0.000587,-33.75,-22.0,-19.559998999999998,3b
2019-07-15_184152:800,-0.395538,-0.007599,-0.29895,-0.0048850000000000005,0.001628,0.000709,-33.75,-22.0,-19.559998999999998,3b
2019-07-15_184152:820,-0.396057,-0.010162000000000001,-0.29943800000000004,-0.004946,0.001842,0.000496,-33.75,-21.559998999999998,-21.18,3b
2019-07-15_184152:840,-0.398071,-0.011169,-0.29943800000000004,-0.0048850000000000005,0.00172,0.000404,-33.75,-21.559998999999998,-21.18,3b
2019-07-15_184152:860,-0.397064,-0.010162000000000001,-0.298431,-0.004427,0.0017809999999999998,0.00028199999999999997,-34.5,-21.559998999999998,-19.559998999999998,3b
2019-07-15_184152:880,-0.397064,-0.010162000000000001,-0.29538000000000003,-0.004091,0.0019030000000000002,7.000000000000001e-06,-34.5,-21.559998999999998,-19.559998999999998,3b
2019-07-15_184152:900,-0.401123,-0.009644,-0.29742399999999997,-0.003878,0.002635,-0.000389,-34.5,-21.559998999999998,-19.559998999999998,3b
2019-07-15_184152:920,-0.399109,-0.008118,-0.29895,-0.003817,0.0031850000000000003,-0.000664,-33.75,-22.370001000000002,-20.75,3b
2019-07-15_184152:940,-0.39502,-0.006592,-0.296906,-0.003512,0.003368,-0.000573,-33.75,-22.370001000000002,-20.75,3b
2019-07-15_184152:960,-0.397583,-0.007111,-0.295898,-0.0033280000000000002,0.00349,-0.0012439999999999999,-34.060001,-22.0,-19.559998999999998,3b
2019-07-15_184152:980,-0.395538,-0.004547,-0.290283,-0.0031149999999999997,0.003246,0.000129,-34.060001,-22.0,-19.559998999999998,3b
2019-07-15_184153:000,-0.393494,-0.005065999999999999,-0.293854,-0.0029010000000000004,0.002513,0.001106,-34.060001,-22.0,-19.559998999999998,3b
2019-07-15_184153:020,-0.394012,-0.004059,-0.29232800000000003,-0.003237,0.00172,0.00016,-33.75,-22.75,-20.370001000000002,3b
2019-07-15_184153:040,-0.392487,-0.004547,-0.29180900000000004,-0.003512,0.00056,-0.000328,-33.75,-22.75,-20.370001000000002,3b
2019-07-15_184153:060,-0.40316799999999997,-0.0055850000000000006,-0.29486100000000004,-0.003878,0.00016299999999999998,0.000587,-34.060001,-21.559998999999998,-20.370001000000002,3b
2019-07-15_184153:080,-0.40570100000000003,-0.006592,-0.290802,-0.004275,0.000346,0.0008619999999999999,-34.060001,-21.559998999999998,-20.370001000000002,3b
2019-07-15_184153:100,-0.406738,-0.007599,-0.291321,-0.004488000000000001,0.0012619999999999999,0.001167,-34.060001,-21.559998999999998,-20.370001000000002,3b
2019-07-15_184153:120,-0.40976,-0.009125,-0.291321,-0.004427,0.001842,0.001381,-34.060001,-22.370001000000002,-19.559998999999998,3b
2019-07-15_184153:140,-0.410797,-0.011169,-0.28875700000000004,-0.004549,0.002391,0.001838,-34.060001,-22.370001000000002,-19.559998999999998,3b
2019-07-15_184153:160,-0.40774499999999997,-0.012177,-0.291321,-0.004336,0.003307,0.001838,-34.869999,-22.370001000000002,-19.870001000000002,3b
2019-07-15_184153:180,-0.406738,-0.012695,-0.291321,-0.0036950000000000004,0.003246,0.001167,-34.869999,-22.370001000000002,-19.870001000000002,3b
2019-07-15_184153:200,-0.40774499999999997,-0.012695,-0.291321,-0.002932,0.002971,0.000648,-34.869999,-22.370001000000002,-19.870001000000002,3b
2019-07-15_184153:220,-0.404175,-0.011169,-0.28674299999999997,-0.002169,0.0029100000000000003,0.000465,-33.369999,-22.0,-19.870001000000002,3b
2019-07-15_184153:240,-0.394012,-0.011687999999999999,-0.284698,-0.0015279999999999998,0.002239,0.0008619999999999999,-33.369999,-22.0,-19.870001000000002,3b
2019-07-15_184153:260,-0.385864,-0.008118,-0.282166,-0.000643,0.000743,0.00132,-34.5,-22.75,-19.559998999999998,3b
2019-07-15_184153:280,-0.38028,-0.006592,-0.28112800000000004,-0.000582,-0.001698,0.001228,-34.5,-22.75,-19.559998999999998,3b
2019-07-15_184153:300,-0.386902,-0.005065999999999999,-0.28674299999999997,-0.001314,-0.004903,0.000404,-34.5,-22.75,-19.559998999999998,3b
2019-07-15_184153:320,-0.394012,-0.004059,-0.28927600000000003,-0.0021079999999999996,-0.006337,-0.000389,-34.5,-22.0,-20.370001000000002,3b
2019-07-15_184153:340,-0.405212,-0.0025329999999999997,-0.290802,-0.0032979999999999997,-0.006154,-0.0009689999999999999,-34.5,-22.0,-20.370001000000002,3b
2019-07-15_184153:360,-0.40823400000000004,-0.000488,-0.293854,-0.004946,-0.004903,-0.001397,-35.25,-22.370001000000002,-19.559998999999998,3b
2019-07-15_184153:380,-0.398071,-0.0035399999999999997,-0.296906,-0.0064719999999999995,-0.003834,-0.000573,-35.25,-22.370001000000002,-19.559998999999998,3b
2019-07-15_184153:400,-0.392487,-0.007599,-0.29895,-0.007326000000000001,-0.0039570000000000004,0.000831,-35.25,-22.370001000000002,-19.559998999999998,3b
2019-07-15_184153:420,-0.375214,-0.014221000000000001,-0.311646,-0.007265000000000001,-0.005757,0.00132,-33.0,-22.0,-20.370001000000002,3b
2019-07-15_184153:440,-0.380798,-0.01828,-0.311646,-0.006014,-0.007558,0.0008619999999999999,-33.0,-22.0,-20.370001000000002,3b
2019-07-15_184153:460,-0.375214,-0.016753999999999998,-0.296906,-0.004091,-0.008473,0.00028199999999999997,-34.5,-22.0,-21.18,3b
2019-07-15_184153:480,-0.383331,-0.016266,-0.305542,-0.002443,-0.009419,-0.000328,-34.5,-22.0,-21.18,3b
2019-07-15_184153:500,-0.377747,-0.016753999999999998,-0.309601,-0.001925,-0.009602,-0.000908,-34.5,-22.0,-21.18,3b
2019-07-15_184153:520,-0.37265,-0.016753999999999998,-0.311127,-0.000918,-0.01006,-0.001397,-34.060001,-23.059998999999998,-19.870001000000002,3b
2019-07-15_184153:540,-0.376221,-0.011169,-0.316742,-0.000399,-0.010487,-0.0011220000000000002,-34.060001,-23.059998999999998,-19.870001000000002,3b
2019-07-15_184153:560,-0.37674,-0.008636,-0.324371,-0.000521,-0.010334999999999999,0.000526,-33.369999,-23.059998999999998,-20.75,3b
2019-07-15_184153:580,-0.374176,-0.011169,-0.326385,5.9e-05,-0.010274,0.003303,-33.369999,-23.059998999999998,-20.75,3b
2019-07-15_184153:600,-0.370636,-0.010162000000000001,-0.328949,0.00011999999999999999,-0.009999,0.003639,-33.369999,-23.059998999999998,-20.75,3b
2019-07-15_184153:620,-0.368591,-0.007599,-0.32995599999999997,-0.000643,-0.010457,0.003975,-33.0,-22.75,-21.18,3b
2019-07-15_184153:640,-0.36654699999999996,-0.010162000000000001,-0.329437,-0.0015890000000000001,-0.011006,0.004554,-33.0,-22.75,-21.18,3b
2019-07-15_184153:660,-0.36911,-0.011169,-0.332489,-0.0028399999999999996,-0.011585999999999999,0.0038829999999999997,-32.560001,-21.559998999999998,-22.75,3b
2019-07-15_184153:680,-0.370636,-0.015228,-0.334534,-0.003817,-0.011403,0.003181,-32.560001,-21.559998999999998,-22.75,3b
2019-07-15_184153:700,-0.37265,-0.016266,-0.335541,-0.004397,-0.011067,0.0026320000000000002,-32.560001,-21.559998999999998,-22.75,3b
2019-07-15_184153:720,-0.388916,-0.016753999999999998,-0.339111,-0.004397,-0.010152,0.001716,-32.25,-22.0,-21.870001000000002,3b
2019-07-15_184153:740,-0.391968,-0.016266,-0.34317,-0.0036950000000000004,-0.007222,0.0018989999999999999,-32.25,-22.0,-21.870001000000002,3b
2019-07-15_184153:760,-0.390442,-0.015228,-0.344696,-0.0033280000000000002,-0.003896,0.001655,-33.0,-22.370001000000002,-22.75,3b
2019-07-15_184153:780,-0.38739,-0.012695,-0.344177,-0.003237,-0.0009050000000000001,0.001991,-33.0,-22.370001000000002,-22.75,3b
2019-07-15_184153:800,-0.38028,-0.011169,-0.338593,-0.003237,0.001628,0.003425,-33.0,-22.370001000000002,-22.75,3b
2019-07-15_184153:820,-0.376221,-0.011169,-0.335022,-0.003878,0.003368,0.0043100000000000005,-31.18,-22.75,-23.059998999999998,3b
2019-07-15_184153:840,-0.370636,-0.012695,-0.32995599999999997,-0.004793,0.004161,0.004646,-31.18,-22.75,-23.059998999999998,3b
2019-07-15_184153:860,-0.369598,-0.015228,-0.327911,-0.005922,0.003825,0.004432,-33.369999,-22.370001000000002,-22.75,3b
2019-07-15_184153:880,-0.364532,-0.01828,-0.325897,-0.0069299999999999995,0.00349,0.004646,-33.369999,-22.370001000000002,-22.75,3b
2019-07-15_184153:900,-0.358429,-0.020325,-0.325897,-0.007540000000000001,0.002391,0.005043,-33.369999,-22.370001000000002,-22.75,3b
2019-07-15_184153:920,-0.35739099999999996,-0.022858,-0.327911,-0.007723000000000001,0.000865,0.003181,-33.0,-22.0,-22.370001000000002,3b
2019-07-15_184153:940,-0.35638400000000003,-0.024384,-0.327911,-0.007601,-0.0008439999999999999,0.000709,-33.0,-22.0,-22.370001000000002,3b
2019-07-15_184153:960,-0.366058,-0.026427999999999997,-0.33300799999999997,-0.0066549999999999995,-0.001759,-0.00045099999999999996,-33.0,-22.0,-23.059998999999998,3b
2019-07-15_184153:980,-0.36911,-0.024902,-0.33758499999999997,-0.005739,-0.001515,-0.00158,-33.0,-22.0,-23.059998999999998,3b
2019-07-15_184154:000,-0.36911,-0.023895,-0.341644,-0.004213000000000001,-0.001027,-0.0023120000000000003,-33.0,-22.0,-23.059998999999998,3b
2019-07-15_184154:020,-0.37112399999999995,-0.021332,-0.34317,-0.002779,-0.0005690000000000001,-0.003045,-33.0,-21.559998999999998,-23.059998999999998,3b
2019-07-15_184154:040,-0.370636,-0.017792,-0.339111,-0.001314,0.000407,-0.003167,-33.0,-21.559998999999998,-23.059998999999998,3b
2019-07-15_184154:060,-0.36911,-0.015747,-0.33758499999999997,-0.000338,0.0008039999999999999,-0.002495,-31.870001000000002,-22.370001000000002,-22.370001000000002,3b
2019-07-15_184154:080,-0.364532,-0.011169,-0.333496,0.000334,0.000865,-0.0019760000000000003,-31.870001000000002,-22.370001000000002,-22.370001000000002,3b
2019-07-15_184154:100,-0.361969,-0.009644,-0.333496,0.000151,0.000346,-0.001854,-31.870001000000002,-22.370001000000002,-22.370001000000002,3b
2019-07-15_184154:120,-0.365021,-0.010162000000000001,-0.331482,-0.000643,-0.000264,-0.0011220000000000002,-32.560001,-21.559998999999998,-23.059998999999998,3b
2019-07-15_184154:140,-0.36706500000000003,-0.011687999999999999,-0.331482,-0.001375,-0.000386,-0.000389,-32.560001,-21.559998999999998,-23.059998999999998,3b
2019-07-15_184154:160,-0.374176,-0.010651,-0.33300799999999997,-0.002199,-5e-05,0.000404,-32.25,-22.75,-23.18,3b
2019-07-15_184154:180,-0.37112399999999995,-0.012695,-0.33300799999999997,-0.003054,0.000407,7.000000000000001e-06,-32.25,-22.75,-23.18,3b
2019-07-15_184154:200,-0.37316900000000003,-0.013702,-0.333496,-0.003939,0.000682,-0.00023700000000000001,-32.25,-22.75,-23.18,3b
2019-07-15_184154:220,-0.377228,-0.014740000000000001,-0.334534,-0.004397,0.001292,0.000496,-32.25,-21.559998999999998,-23.18,3b
2019-07-15_184154:240,-0.36911,-0.014740000000000001,-0.33300799999999997,-0.004793,0.002055,0.000709,-32.25,-21.559998999999998,-23.18,3b
2019-07-15_184154:260,-0.369598,-0.013702,-0.334534,-0.0048850000000000005,0.0023,0.001167,-32.560001,-22.370001000000002,-23.059998999999998,3b
2019-07-15_184154:280,-0.37112399999999995,-0.014740000000000001,-0.331482,-0.0048850000000000005,0.002391,0.001564,-32.560001,-22.370001000000002,-23.059998999999998,3b
2019-07-15_184154:300,-0.369598,-0.012177,-0.33197,-0.0051600000000000005,0.0029100000000000003,0.001228,-32.560001,-22.370001000000002,-23.059998999999998,3b
2019-07-15_184154:320,-0.36554000000000003,-0.012177,-0.33197,-0.005465,0.0029100000000000003,0.001655,-31.870001000000002,-22.0,-21.870001000000002,3b
2019-07-15_184154:340,-0.365021,-0.013702,-0.330475,-0.005861,0.002757,0.0022960000000000003,-31.870001000000002,-22.0,-21.870001000000002,3b
2019-07-15_184154:360,-0.36654699999999996,-0.014740000000000001,-0.33197,-0.00635,0.002513,0.002357,-32.25,-22.0,-22.370001000000002,3b
2019-07-15_184154:380,-0.372162,-0.014221000000000001,-0.331482,-0.006533,0.002391,0.0021739999999999997,-32.25,-22.0,-22.370001000000002,3b
2019-07-15_184154:400,-0.370636,-0.014221000000000001,-0.331482,-0.0064719999999999995,0.002849,0.001716,-32.25,-22.0,-22.370001000000002,3b
2019-07-15_184154:420,-0.37112399999999995,-0.015747,-0.330963,-0.006411,0.003124,0.000923,-31.870001000000002,-21.559998999999998,-21.870001000000002,3b
2019-07-15_184154:440,-0.369598,-0.014221000000000001,-0.328949,-0.006136,0.003124,0.000587,-31.870001000000002,-21.559998999999998,-21.870001000000002,3b
2019-07-15_184154:460,-0.368073,-0.013702,-0.328949,-0.0058,0.003093,0.000648,-31.870001000000002,-22.370001000000002,-22.370001000000002,3b
2019-07-15_184154:480,-0.36654699999999996,-0.012177,-0.32995599999999997,-0.005404,0.002239,0.000831,-31.870001000000002,-22.370001000000002,-22.370001000000002,3b
2019-07-15_184154:500,-0.36911,-0.013213999999999998,-0.331482,-0.005282,0.0017809999999999998,0.000984,-31.870001000000002,-22.370001000000002,-22.370001000000002,3b
2019-07-15_184154:520,-0.375214,-0.011687999999999999,-0.32843,-0.0051600000000000005,0.001537,0.000465,-32.560001,-22.370001000000002,-22.370001000000002,3b
2019-07-15_184154:540,-0.375702,-0.010651,-0.327423,-0.005068,0.002239,0.000587,-32.560001,-22.370001000000002,-22.370001000000002,3b
2019-07-15_184154:560,-0.36911,-0.009125,-0.330475,-0.005343,0.002696,0.001045,-33.0,-22.75,-23.559998999999998,3b
2019-07-15_184154:580,-0.369598,-0.009644,-0.330475,-0.005678,0.0023,0.001503,-33.0,-22.75,-23.559998999999998,3b
2019-07-15_184154:600,-0.37011700000000003,-0.012177,-0.333496,-0.00635,0.002116,0.0008619999999999999,-33.0,-22.75,-23.559998999999998,3b
2019-07-15_184154:620,-0.376221,-0.012177,-0.33300799999999997,-0.0064719999999999995,0.002239,0.0008619999999999999,-32.25,-22.0,-22.75,3b
2019-07-15_184154:640,-0.37316900000000003,-0.014740000000000001,-0.331482,-0.006197,0.0029100000000000003,0.0008619999999999999,-32.25,-22.0,-22.75,3b
2019-07-15_184154:660,-0.37112399999999995,-0.014740000000000001,-0.331482,-0.005526,0.003764,0.001045,-32.560001,-22.0,-23.559998999999998,3b
2019-07-15_184154:680,-0.367584,-0.015228,-0.327911,-0.005068,0.003703,0.001228,-32.560001,-22.0,-23.559998999999998,3b
2019-07-15_184154:700,-0.36349499999999996,-0.014740000000000001,-0.32843,-0.004488000000000001,0.0034289999999999998,0.00132,-32.560001,-22.0,-23.559998999999998,3b
2019-07-15_184154:720,-0.363007,-0.014221000000000001,-0.32995599999999997,-0.003939,0.002849,0.001045,-32.25,-23.059998999999998,-23.18,3b
2019-07-15_184154:740,-0.365021,-0.013213999999999998,-0.329437,-0.003512,0.0023,0.000496,-32.25,-23.059998999999998,-23.18,3b
2019-07-15_184154:760,-0.368591,-0.012695,-0.332489,-0.003176,0.00172,0.000496,-31.870001000000002,-22.370001000000002,-21.870001000000002,3b
2019-07-15_184154:780,-0.37011700000000003,-0.012177,-0.33300799999999997,-0.002932,0.00172,6.8e-05,-31.870001000000002,-22.370001000000002,-21.870001000000002,3b
2019-07-15_184154:800,-0.374695,-0.009125,-0.334015,-0.002718,0.002055,-0.000725,-31.870001000000002,-22.370001000000002,-21.870001000000002,3b
2019-07-15_184154:820,-0.376221,-0.008118,-0.333496,-0.003176,0.002696,0.000343,-32.560001,-22.370001000000002,-21.559998999999998,3b
2019-07-15_184154:840,-0.375214,-0.007599,-0.33300799999999997,-0.003817,0.003246,0.001625,-32.560001,-22.370001000000002,-21.559998999999998,3b
2019-07-15_184154:860,-0.376221,-0.010162000000000001,-0.333496,-0.004793,0.003886,0.001167,-33.0,-22.75,-22.370001000000002,3b
2019-07-15_184154:880,-0.372162,-0.010651,-0.32995599999999997,-0.005922,0.004375,0.00016,-33.0,-22.75,-22.370001000000002,3b
2019-07-15_184154:900,-0.372162,-0.013213999999999998,-0.327423,-0.006014,0.004894,0.001564,-33.0,-22.75,-22.370001000000002,3b
2019-07-15_184154:920,-0.37112399999999995,-0.01828,-0.326904,-0.005922,0.004649,0.002113,-33.0,-22.0,-22.370001000000002,3b
2019-07-15_184154:940,-0.36911,-0.017792,-0.323334,-0.005221,0.004497,0.001106,-33.0,-22.0,-22.370001000000002,3b
2019-07-15_184154:960,-0.371643,-0.014221000000000001,-0.322327,-0.004275,0.003703,0.001045,-33.0,-22.0,-23.059998999999998,3b
2019-07-15_184154:980,-0.37316900000000003,-0.012177,-0.32132,-0.003878,0.00352,0.001167,-33.0,-22.0,-23.059998999999998,3b
2019-07-15_184155:000,-0.374176,-0.008636,-0.323853,-0.004,0.00349,0.001228,-33.0,-22.0,-23.059998999999998,3b
2019-07-15_184155:020,-0.373688,-0.006592,-0.323334,-0.004671,0.0031850000000000003,0.002113,-32.560001,-22.0,-21.18,3b
2019-07-15_184155:040,-0.373688,-0.008636,-0.323853,-0.005404,0.002513,0.002052,-32.560001,-22.0,-21.18,3b
2019-07-15_184155:060,-0.374695,-0.009644,-0.325897,-0.006258,0.0023,0.001777,-33.0,-22.0,-22.75,3b
2019-07-15_184155:080,-0.376221,-0.011687999999999999,-0.325897,-0.006869,0.002239,0.0021739999999999997,-33.0,-22.0,-22.75,3b
2019-07-15_184155:100,-0.375702,-0.014740000000000001,-0.326385,-0.007204,0.002513,0.0029059999999999997,-33.0,-22.0,-22.75,3b
2019-07-15_184155:120,-0.37316900000000003,-0.017792,-0.327423,-0.0069299999999999995,0.002788,0.002052,-32.560001,-22.370001000000002,-21.870001000000002,3b
2019-07-15_184155:140,-0.374176,-0.017273,-0.326904,-0.006258,0.002788,0.001228,-32.560001,-22.370001000000002,-21.870001000000002,3b
2019-07-15_184155:160,-0.375702,-0.017273,-0.328949,-0.005404,0.002849,0.001564,-33.0,-21.559998999999998,-20.75,3b
2019-07-15_184155:180,-0.375214,-0.014221000000000001,-0.32486,-0.004213000000000001,0.003032,0.001228,-33.0,-21.559998999999998,-20.75,3b
2019-07-15_184155:200,-0.376221,-0.013213999999999998,-0.325378,-0.0037560000000000002,0.0031850000000000003,0.000648,-33.0,-21.559998999999998,-20.75,3b
2019-07-15_184155:220,-0.378265,-0.011169,-0.32486,-0.0032979999999999997,0.0034289999999999998,0.00016,-32.25,-22.370001000000002,-20.370001000000002,3b
2019-07-15_184155:240,-0.37674,-0.011169,-0.322845,-0.0032979999999999997,0.00352,-0.00011499999999999999,-32.25,-22.370001000000002,-20.370001000000002,3b
2019-07-15_184155:260,-0.379272,-0.011169,-0.324371,-0.003054,0.0035810000000000004,-0.00023700000000000001,-32.560001,-22.370001000000002,-21.870001000000002,3b
2019-07-15_184155:280,-0.379272,-0.010162000000000001,-0.325378,-0.002993,0.0035810000000000004,-0.000267,-32.560001,-22.370001000000002,-21.870001000000002,3b
2019-07-15_184155:300,-0.380798,-0.010162000000000001,-0.327911,-0.0025960000000000002,0.0035810000000000004,-0.000328,-32.560001,-22.370001000000002,-21.870001000000002,3b
2019-07-15_184155:320,-0.375214,-0.007111,-0.315704,-0.0025960000000000002,0.003978,7.000000000000001e-06,-32.560001,-22.370001000000002,-21.870001000000002,3b
2019-07-15_184155:340,-0.375702,-0.007599,-0.316742,-0.002443,0.003764,0.000526,-32.560001,-22.370001000000002,-21.870001000000002,3b
2019-07-15_184155:360,-0.381317,-0.007599,-0.325378,-0.0028399999999999996,0.003368,0.00016,-34.060001,-22.75,-21.18,3b
2019-07-15_184155:380,-0.374176,-0.010162000000000001,-0.319275,-0.003176,0.00352,-0.00023700000000000001,-34.060001,-22.75,-21.18,3b
2019-07-15_184155:400,-0.374695,-0.011169,-0.319794,-0.0032979999999999997,0.003124,-0.000176,-34.060001,-22.75,-21.18,3b
2019-07-15_184155:420,-0.373688,-0.012177,-0.317749,-0.0033280000000000002,0.0024519999999999998,7.000000000000001e-06,-33.369999,-22.0,-21.559998999999998,3b
2019-07-15_184155:440,-0.374695,-0.013213999999999998,-0.317749,-0.003176,0.001842,-0.000176,-33.369999,-22.0,-21.559998999999998,3b
2019-07-15_184155:460,-0.375702,-0.011687999999999999,-0.319794,-0.002993,0.001842,6.8e-05,-33.0,-21.559998999999998,-22.370001000000002,3b
2019-07-15_184155:480,-0.377747,-0.010651,-0.320801,-0.002932,0.001598,0.000465,-33.0,-21.559998999999998,-22.370001000000002,3b
2019-07-15_184155:500,-0.376221,-0.009125,-0.323334,-0.003176,0.0014759999999999999,0.000526,-33.0,-21.559998999999998,-22.370001000000002,3b
2019-07-15_184155:520,-0.375702,-0.008636,-0.321808,-0.003512,0.001292,0.0008619999999999999,-33.0,-22.75,-21.18,3b
2019-07-15_184155:540,-0.375702,-0.009125,-0.322327,-0.004213000000000001,0.000865,0.001381,-33.0,-22.75,-21.18,3b
2019-07-15_184155:560,-0.377747,-0.010651,-0.323334,-0.004824,0.000865,0.001625,-33.75,-22.370001000000002,-22.370001000000002,3b
2019-07-15_184155:580,-0.377747,-0.013213999999999998,-0.323853,-0.005465,0.0008960000000000001,0.001564,-33.75,-22.370001000000002,-22.370001000000002,3b
2019-07-15_184155:600,-0.378265,-0.015228,-0.324371,-0.005526,0.0012619999999999999,0.001167,-33.75,-22.370001000000002,-22.370001000000002,3b
2019-07-15_184155:620,-0.379791,-0.019318000000000002,-0.326904,-0.005068,0.001628,0.0007700000000000001,-32.25,-22.370001000000002,-21.18,3b
2019-07-15_184155:640,-0.378754,-0.018799,-0.325378,-0.004152,0.002055,0.000221,-32.25,-22.370001000000002,-21.18,3b
2019-07-15_184155:660,-0.37674,-0.015747,-0.325897,-0.0031149999999999997,0.0024519999999999998,-0.00045099999999999996,-33.369999,-21.559998999999998,-21.18,3b
2019-07-15_184155:680,-0.376221,-0.012177,-0.325378,-0.002535,0.002574,-0.000573,-33.369999,-21.559998999999998,-21.18,3b
2019-07-15_184155:700,-0.379272,-0.009644,-0.323334,-0.0020469999999999998,0.002635,-0.000512,-33.369999,-21.559998999999998,-21.18,3b
2019-07-15_184155:720,-0.379791,-0.009644,-0.322327,-0.002169,0.002788,-0.0011220000000000002,-33.75,-22.0,-21.559998999999998,3b
2019-07-15_184155:740,-0.378265,-0.007599,-0.322845,-0.002779,0.00352,-0.000389,-33.75,-22.0,-21.559998999999998,3b
2019-07-15_184155:760,-0.37674,-0.007111,-0.323853,-0.0033280000000000002,0.0034289999999999998,0.000984,-32.560001,-22.75,-20.370001000000002,3b
2019-07-15_184155:780,-0.373688,-0.010651,-0.319794,-0.00403,0.002788,-0.00011499999999999999,-32.560001,-22.75,-20.370001000000002,3b
2019-07-15_184155:800,-0.37316900000000003,-0.009644,-0.320801,-0.004336,0.002361,-0.001183,-32.560001,-22.75,-20.370001000000002,3b
2019-07-15_184155:820,-0.375214,-0.012695,-0.322845,-0.004275,0.001994,-5.4000000000000005e-05,-32.560001,-22.370001000000002,-21.870001000000002,3b
2019-07-15_184155:840,-0.377228,-0.013702,-0.322845,-0.003939,0.001964,0.000129,-32.560001,-22.370001000000002,-21.870001000000002,3b
2019-07-15_184155:860,-0.378265,-0.012695,-0.323334,-0.0034509999999999996,0.002177,0.000465,-33.369999,-21.559998999999998,-20.75,3b
2019-07-15_184155:880,-0.378265,-0.011687999999999999,-0.321808,-0.0032979999999999997,0.002757,0.000343,-33.369999,-21.559998999999998,-20.75,3b
2019-07-15_184155:900,-0.38028,-0.009644,-0.324371,-0.0032979999999999997,0.002849,0.000404,-33.369999,-21.559998999999998,-20.75,3b
2019-07-15_184155:920,-0.379791,-0.009125,-0.323334,-0.003573,0.003124,0.000496,-33.0,-22.370001000000002,-22.75,3b
2019-07-15_184155:940,-0.379272,-0.010162000000000001,-0.322327,-0.0036340000000000005,0.003368,0.000526,-33.0,-22.370001000000002,-22.75,3b
2019-07-15_184155:960,-0.379272,-0.010162000000000001,-0.322845,-0.004,0.003368,0.000526,-33.0,-22.370001000000002,-21.18,3b
2019-07-15_184155:980,-0.378754,-0.011687999999999999,-0.320282,-0.003878,0.0034289999999999998,0.000404,-33.0,-22.370001000000002,-21.18,3b
2019-07-15_184156:000,-0.379272,-0.011687999999999999,-0.320282,-0.0037560000000000002,0.00352,0.000831,-33.0,-22.370001000000002,-21.18,3b
2019-07-15_184156:020,-0.380798,-0.012177,-0.320282,-0.003573,0.0035810000000000004,0.000923,-33.369999,-22.75,-21.18,3b
2019-07-15_184156:040,-0.381805,-0.011687999999999999,-0.317749,-0.0036340000000000005,0.003703,0.000343,-33.369999,-22.75,-21.18,3b
2019-07-15_184156:060,-0.380798,-0.009644,-0.318756,-0.00339,0.003825,0.0007700000000000001,-33.369999,-22.0,-21.18,3b
2019-07-15_184156:080,-0.381317,-0.010162000000000001,-0.31723,-0.00339,0.003764,0.001167,-33.369999,-22.0,-21.18,3b
2019-07-15_184156:100,-0.381317,-0.009125,-0.317749,-0.003817,0.003764,0.000984,-33.369999,-22.0,-21.18,3b
2019-07-15_184156:120,-0.382812,-0.009644,-0.318268,-0.003939,0.0036420000000000003,0.001258,-32.560001,-22.0,-21.559998999999998,3b
2019-07-15_184156:140,-0.381805,-0.011169,-0.316742,-0.004275,0.003886,0.001106,-32.560001,-22.0,-21.559998999999998,3b
2019-07-15_184156:160,-0.380798,-0.011169,-0.315704,-0.004336,0.0035810000000000004,0.001045,-34.060001,-22.0,-21.18,3b
2019-07-15_184156:180,-0.379272,-0.011169,-0.314178,-0.00403,0.003124,0.001106,-34.060001,-22.0,-21.18,3b
2019-07-15_184156:200,-0.380798,-0.011687999999999999,-0.31369,-0.003939,0.003032,0.000709,-34.060001,-22.0,-21.18,3b
2019-07-15_184156:220,-0.382812,-0.011169,-0.313171,-0.003939,0.002788,0.000496,-33.369999,-22.75,-19.870001000000002,3b
2019-07-15_184156:240,-0.384857,-0.010162000000000001,-0.313171,-0.00403,0.0029100000000000003,0.0007700000000000001,-33.369999,-22.75,-19.870001000000002,3b
2019-07-15_184156:260,-0.383331,-0.010162000000000001,-0.314697,-0.004091,0.003032,0.000709,-33.0,-22.75,-20.75,3b
2019-07-15_184156:280,-0.380798,-0.009125,-0.312653,-0.004336,0.002849,0.0007700000000000001,-33.0,-22.75,-20.75,3b
2019-07-15_184156:300,-0.383331,-0.009125,-0.312653,-0.004549,0.002574,0.000709,-33.0,-22.75,-20.75,3b
2019-07-15_184156:320,-0.384338,-0.011169,-0.313171,-0.004732,0.002391,0.000709,-33.369999,-22.370001000000002,-20.75,3b
2019-07-15_184156:340,-0.384338,-0.011169,-0.31369,-0.00461,0.002391,0.0008619999999999999,-33.369999,-22.370001000000002,-20.75,3b
2019-07-15_184156:360,-0.384857,-0.010162000000000001,-0.314697,-0.004488000000000001,0.002757,0.000587,-34.060001,-22.0,-21.18,3b
2019-07-15_184156:380,-0.38385,-0.010651,-0.314697,-0.004549,0.002849,0.000526,-34.060001,-22.0,-21.18,3b
2019-07-15_184156:400,-0.383331,-0.008636,-0.314697,-0.00461,0.002574,0.000587,-34.060001,-22.0,-21.18,3b
2019-07-15_184156:420,-0.384338,-0.009644,-0.313171,-0.004732,0.002513,-0.00011499999999999999,-33.0,-21.559998999999998,-20.75,3b
2019-07-15_184156:440,-0.386902,-0.0055850000000000006,-0.31369,-0.004732,0.002971,-0.00045099999999999996,-33.0,-21.559998999999998,-20.75,3b
2019-07-15_184156:460,-0.385864,-0.005065999999999999,-0.31369,-0.005556,0.003307,-0.000267,-33.75,-22.0,-21.559998999999998,3b
2019-07-15_184156:480,-0.382812,-0.006072999999999999,-0.314178,-0.005953,0.002971,-0.000176,-33.75,-22.0,-21.559998999999998,3b
2019-07-15_184156:500,-0.377747,-0.006592,-0.313171,-0.006197,0.002177,7.000000000000001e-06,-33.75,-22.0,-21.559998999999998,3b
2019-07-15_184156:520,-0.377747,-0.008118,-0.31369,-0.006136,0.0012619999999999999,0.000648,-33.75,-22.370001000000002,-19.559998999999998,3b
2019-07-15_184156:540,-0.37674,-0.008636,-0.313171,-0.005556,0.000407,0.000831,-33.75,-22.370001000000002,-19.559998999999998,3b
2019-07-15_184156:560,-0.378265,-0.008636,-0.31369,-0.005129,-0.0005690000000000001,0.000984,-34.5,-22.370001000000002,-20.370001000000002,3b
2019-07-15_184156:580,-0.379791,-0.010651,-0.314178,-0.004671,-0.0007830000000000001,0.000831,-34.5,-22.370001000000002,-20.370001000000002,3b
2019-07-15_184156:600,-0.381805,-0.010162000000000001,-0.314697,-0.004336,-0.0009050000000000001,0.000587,-34.5,-22.370001000000002,-20.370001000000002,3b
2019-07-15_184156:620,-0.381805,-0.011169,-0.315216,-0.004091,-0.001057,0.000465,-33.369999,-22.0,-19.870001000000002,3b
2019-07-15_184156:640,-0.383331,-0.009644,-0.316223,-0.003573,-0.001057,-5.4000000000000005e-05,-33.369999,-22.0,-19.870001000000002,3b
2019-07-15_184156:660,-0.38385,-0.010162000000000001,-0.316742,-0.0033280000000000002,-0.0007830000000000001,-0.000512,-34.5,-21.559998999999998,-19.870001000000002,3b
2019-07-15_184156:680,-0.38385,-0.006072999999999999,-0.316223,-0.003176,-0.000386,0.001167,-34.5,-21.559998999999998,-19.870001000000002,3b
2019-07-15_184156:700,-0.379272,-0.0055850000000000006,-0.318756,-0.003573,-0.00063,0.0021739999999999997,-34.5,-21.559998999999998,-19.870001000000002,3b
2019-07-15_184156:720,-0.38028,-0.0055850000000000006,-0.318268,-0.003664,-0.000661,0.001716,-33.0,-22.370001000000002,-20.75,3b
2019-07-15_184156:740,-0.381805,-0.007111,-0.317749,-0.004152,-0.000264,0.000587,-33.0,-22.370001000000002,-20.75,3b
2019-07-15_184156:760,-0.382812,-0.006592,-0.320282,-0.004275,-0.000233,0.001045,-33.75,-22.75,-20.370001000000002,3b
2019-07-15_184156:780,-0.381805,-0.008118,-0.31723,-0.004793,0.000285,0.0018989999999999999,-33.75,-22.75,-20.370001000000002,3b
2019-07-15_184156:800,-0.381805,-0.009644,-0.315704,-0.004946,0.000285,0.001655,-33.75,-22.75,-20.370001000000002,3b
2019-07-15_184156:820,-0.382812,-0.009644,-0.316742,-0.004793,0.000407,0.001838,-33.75,-22.0,-21.18,3b
2019-07-15_184156:840,-0.385376,-0.009125,-0.317749,-0.00461,0.000865,0.001777,-33.75,-22.0,-21.18,3b
2019-07-15_184156:860,-0.384857,-0.011687999999999999,-0.318756,-0.004671,0.001415,0.002052,-34.060001,-22.0,-20.75,3b
2019-07-15_184156:880,-0.380798,-0.011687999999999999,-0.319275,-0.004336,0.0014759999999999999,0.0021739999999999997,-34.060001,-22.0,-20.75,3b
2019-07-15_184156:900,-0.37674,-0.013213999999999998,-0.318268,-0.004213000000000001,0.0010789999999999999,0.0018989999999999999,-34.060001,-22.0,-20.75,3b
2019-07-15_184156:920,-0.377228,-0.011687999999999999,-0.318268,-0.00403,0.0008960000000000001,0.001991,-33.75,-22.0,-20.370001000000002,3b
2019-07-15_184156:940,-0.382812,-0.012177,-0.318756,-0.003878,0.001018,0.00196,-33.75,-22.0,-20.370001000000002,3b
2019-07-15_184156:960,-0.382812,-0.012695,-0.32132,-0.003817,0.0010789999999999999,0.001991,-33.75,-22.370001000000002,-21.559998999999998,3b
2019-07-15_184156:980,-0.382812,-0.013702,-0.319794,-0.0036950000000000004,0.001628,0.00132,-33.75,-22.370001000000002,-21.559998999999998,3b
2019-07-15_184157:000,-0.38028,-0.012695,-0.317749,-0.0036950000000000004,0.001598,0.001167,-33.75,-22.370001000000002,-21.559998999999998,3b
2019-07-15_184157:020,-0.375214,-0.011687999999999999,-0.319794,-0.003512,0.000682,0.001503,-33.75,-21.559998999999998,-19.870001000000002,3b
2019-07-15_184157:040,-0.373688,-0.014221000000000001,-0.317749,-0.0033280000000000002,-0.000386,0.001258,-33.75,-21.559998999999998,-19.870001000000002,3b
2019-07-15_184157:060,-0.367584,-0.012695,-0.321808,-0.0029010000000000004,-0.002583,0.001442,-33.369999,-22.370001000000002,-21.870001000000002,3b
2019-07-15_184157:080,-0.36911,-0.013702,-0.320801,-0.002321,-0.00475,0.001991,-33.369999,-22.370001000000002,-21.870001000000002,3b
2019-07-15_184157:100,-0.37112399999999995,-0.014221000000000001,-0.321808,-0.00165,-0.006215,0.0021739999999999997,-33.369999,-22.370001000000002,-21.870001000000002,3b
2019-07-15_184157:120,-0.371643,-0.015747,-0.322845,-0.001314,-0.006703,0.002449,-33.369999,-21.559998999999998,-20.75,3b
2019-07-15_184157:140,-0.37011700000000003,-0.017273,-0.319794,0.000334,-0.007619,0.00309,-33.369999,-21.559998999999998,-20.75,3b
2019-07-15_184157:160,-0.372162,-0.014221000000000001,-0.322845,0.000791,-0.008076,0.003242,-33.369999,-21.559998999999998,-21.559998999999998,3b
2019-07-15_184157:180,-0.387909,-0.013213999999999998,-0.321808,0.001066,-0.0070079999999999995,0.00309,-33.369999,-21.559998999999998,-21.559998999999998,3b
2019-07-15_184157:200,-0.392487,-0.011687999999999999,-0.327423,0.00011999999999999999,-0.003682,0.001625,-33.369999,-21.559998999999998,-21.559998999999998,3b
2019-07-15_184157:220,-0.389954,-0.009644,-0.327423,-0.000521,-0.002248,0.001106,-33.369999,-22.370001000000002,-22.370001000000002,3b
2019-07-15_184157:240,-0.374176,-0.010651,-0.325378,-0.002718,0.000499,0.001228,-33.369999,-22.370001000000002,-22.370001000000002,3b
2019-07-15_184157:260,-0.36654699999999996,-0.013213999999999998,-0.326385,-0.003664,0.000499,0.000984,-33.0,-22.0,-21.870001000000002,3b
2019-07-15_184157:280,-0.370636,-0.016753999999999998,-0.325897,-0.00461,-0.000264,0.000526,-33.0,-22.0,-21.870001000000002,3b
2019-07-15_184157:300,-0.36911,-0.019318000000000002,-0.327423,-0.004336,-0.000508,0.000709,-33.0,-22.0,-21.870001000000002,3b
2019-07-15_184157:320,-0.37112399999999995,-0.019806,-0.328949,-0.004152,-0.00063,0.000648,-33.75,-22.370001000000002,-21.559998999999998,3b
2019-07-15_184157:340,-0.37112399999999995,-0.020325,-0.32843,-0.0036950000000000004,-0.000264,0.00028199999999999997,-33.75,-22.370001000000002,-21.559998999999998,3b
2019-07-15_184157:360,-0.37265,-0.01828,-0.32995599999999997,-0.003878,-0.000386,-0.00011499999999999999,-33.369999,-22.0,-20.370001000000002,3b
2019-07-15_184157:380,-0.375214,-0.019806,-0.330475,-0.003939,0.000346,-0.0010609999999999999,-33.369999,-22.0,-20.370001000000002,3b
2019-07-15_184157:400,-0.372162,-0.01828,-0.330963,-0.003878,0.000407,-0.001366,-33.369999,-22.0,-20.370001000000002,3b
2019-07-15_184157:420,-0.37011700000000003,-0.017273,-0.329437,-0.004091,0.000682,-0.001519,-33.0,-22.370001000000002,-21.18,3b
2019-07-15_184157:440,-0.372162,-0.016266,-0.327911,-0.00403,0.000285,-0.001397,-33.0,-22.370001000000002,-21.18,3b
2019-07-15_184157:460,-0.375214,-0.014740000000000001,-0.329437,-0.004091,0.000621,-0.001397,-33.0,-22.370001000000002,-21.18,3b
2019-07-15_184157:480,-0.377747,-0.012177,-0.33300799999999997,-0.004427,0.001537,-0.0012439999999999999,-33.75,-22.75,-21.559998999999998,3b
2019-07-15_184157:500,-0.374695,-0.011687999999999999,-0.32995599999999997,-0.004549,0.002361,-0.0009689999999999999,-33.75,-22.75,-21.559998999999998,3b
2019-07-15_184157:520,-0.371643,-0.012177,-0.329437,-0.00461,0.002788,-0.000908,-34.060001,-22.370001000000002,-23.059998999999998,3b
2019-07-15_184157:540,-0.372162,-0.012695,-0.327423,-0.005129,0.003093,-0.000267,-34.060001,-22.370001000000002,-23.059998999999998,3b
2019-07-15_184157:560,-0.37011700000000003,-0.012695,-0.327911,-0.005282,0.0034289999999999998,6.8e-05,-32.560001,-22.0,-22.370001000000002,3b
2019-07-15_184157:580,-0.37011700000000003,-0.015228,-0.32995599999999997,-0.0056170000000000005,0.003093,-0.000725,-32.560001,-22.0,-22.370001000000002,3b
2019-07-15_184157:600,-0.375214,-0.015747,-0.32843,-0.005526,0.0029100000000000003,-0.002434,-32.560001,-22.0,-22.370001000000002,3b
2019-07-15_184157:620,-0.372162,-0.015747,-0.327423,-0.005556,0.0031850000000000003,-0.002373,-33.0,-21.559998999999998,-21.870001000000002,3b
2019-07-15_184157:640,-0.377747,-0.016266,-0.33197,-0.005343,0.00349,-0.001519,-33.0,-21.559998999999998,-21.870001000000002,3b
2019-07-15_184157:660,-0.379791,-0.015747,-0.32995599999999997,-0.005068,0.003917,-0.0017629999999999998,-33.0,-21.559998999999998,-21.870001000000002,3b
2019-07-15_184157:680,-0.373688,-0.012177,-0.316223,-0.003939,0.004436,-0.005364,-34.060001,-22.370001000000002,-21.559998999999998,3b
2019-07-15_184157:700,-0.365021,-0.009644,-0.31723,-0.002932,0.003886,-0.0064930000000000005,-34.060001,-22.370001000000002,-21.559998999999998,3b
2019-07-15_184157:720,-0.35943600000000003,-0.007599,-0.32132,-0.002443,0.003307,-0.006706999999999999,-33.369999,-22.0,-22.75,3b
2019-07-15_184157:740,-0.364532,-0.007599,-0.325378,-0.0014060000000000001,0.000468,-0.005639,-33.369999,-22.0,-22.75,3b
2019-07-15_184157:760,-0.36349499999999996,-0.006592,-0.325897,-0.000857,-5e-05,-0.004631000000000001,-33.369999,-22.0,-22.75,3b
2019-07-15_184157:780,-0.364014,-0.008118,-0.326904,0.00128,-0.002034,-0.002648,-33.369999,-22.0,-21.18,3b
2019-07-15_184157:800,-0.365021,-0.005065999999999999,-0.332489,0.00186,-0.002827,-0.002037,-33.369999,-22.0,-21.18,3b
2019-07-15_184157:820,-0.369598,-0.0055850000000000006,-0.335541,0.002806,-0.004414,-0.000328,-32.560001,-22.75,-21.870001000000002,3b
2019-07-15_184157:840,-0.380798,-0.0035399999999999997,-0.332489,0.00247,-0.004292,0.000709,-32.560001,-22.75,-21.870001000000002,3b
2019-07-15_184157:860,-0.378754,-0.006072999999999999,-0.331482,0.001524,-0.002827,0.000648,-32.560001,-22.75,-21.870001000000002,3b
2019-07-15_184157:880,-0.368073,-0.006072999999999999,-0.33605999999999997,0.00073,-0.001637,-0.000664,-32.560001,-22.75,-22.75,3b
2019-07-15_184157:900,-0.36349499999999996,-0.006592,-0.335022,-0.000918,-0.002156,-0.001702,-32.560001,-22.75,-22.75,3b
2019-07-15_184157:920,-0.365021,-0.008118,-0.336548,-0.001375,-0.002431,-0.0019149999999999998,-32.25,-22.370001000000002,-21.870001000000002,3b
2019-07-15_184157:940,-0.365021,-0.009125,-0.334015,-0.002382,-0.00298,-0.0009689999999999999,-32.25,-22.370001000000002,-21.870001000000002,3b
2019-07-15_184157:960,-0.36248800000000003,-0.009125,-0.335022,-0.002169,-0.003041,-0.00023700000000000001,-32.25,-22.370001000000002,-21.870001000000002,3b
2019-07-15_184157:980,-0.36044299999999996,-0.010162000000000001,-0.33605999999999997,-0.002169,-0.0033159999999999995,0.0007700000000000001,-32.25,-22.370001000000002,-22.75,3b
2019-07-15_184158:000,-0.36044299999999996,-0.006592,-0.338074,-0.002199,-0.0034990000000000004,0.001442,-32.25,-22.370001000000002,-22.75,3b
2019-07-15_184158:020,-0.359955,-0.007111,-0.338593,-0.002718,-0.0035600000000000002,0.002571,-32.25,-22.370001000000002,-23.559998999999998,3b
2019-07-15_184158:040,-0.360962,-0.006592,-0.34265100000000004,-0.0036950000000000004,-0.0039570000000000004,0.003242,-32.25,-22.370001000000002,-23.559998999999998,3b
2019-07-15_184158:060,-0.365021,-0.008636,-0.342163,-0.005129,-0.004353,0.003822,-32.25,-22.0,-22.370001000000002,3b
2019-07-15_184158:080,-0.370636,-0.012177,-0.34063699999999997,-0.006136,-0.00417,0.0043100000000000005,-32.25,-22.0,-22.370001000000002,3b
2019-07-15_184158:100,-0.370636,-0.013702,-0.342163,-0.007081999999999999,-0.0032240000000000003,0.0043100000000000005,-32.25,-22.0,-22.370001000000002,3b
2019-07-15_184158:120,-0.36911,-0.017792,-0.344177,-0.007448000000000001,-0.002309,0.003822,-32.560001,-22.370001000000002,-22.75,3b
2019-07-15_184158:140,-0.366058,-0.01828,-0.34265100000000004,-0.007204,-0.001118,0.003486,-32.560001,-22.370001000000002,-22.75,3b
2019-07-15_184158:160,-0.365021,-0.01828,-0.344696,-0.0069299999999999995,-0.00044699999999999997,0.003425,-32.560001,-22.370001000000002,-22.75,3b
2019-07-15_184158:180,-0.364532,-0.017792,-0.346222,-0.006258,-5e-05,0.003761,-31.5,-22.0,-22.75,3b
2019-07-15_184158:200,-0.364532,-0.017273,-0.344696,-0.005953,0.00056,0.003975,-31.5,-22.0,-22.75,3b
2019-07-15_184158:220,-0.364532,-0.016753999999999998,-0.344696,-0.005556,0.000743,0.004432,-31.870001000000002,-22.370001000000002,-22.75,3b
2019-07-15_184158:240,-0.36349499999999996,-0.016266,-0.340118,-0.0051600000000000005,0.0016589999999999999,0.005226,-31.870001000000002,-22.370001000000002,-22.75,3b
2019-07-15_184158:260,-0.364014,-0.014740000000000001,-0.34063699999999997,-0.005129,0.0023,0.004951,-31.870001000000002,-22.370001000000002,-22.75,3b
2019-07-15_184158:280,-0.36554000000000003,-0.013213999999999998,-0.340118,-0.005343,0.003124,0.0043100000000000005,-32.25,-22.0,-22.75,3b
2019-07-15_184158:300,-0.36349499999999996,-0.013702,-0.342163,-0.005739,0.003764,0.00428,-32.25,-22.0,-22.75,3b
2019-07-15_184158:320,-0.358429,-0.012177,-0.341125,-0.00635,0.004314,0.004219,-32.560001,-22.370001000000002,-22.75,3b
2019-07-15_184158:340,-0.356903,-0.013213999999999998,-0.338593,-0.0066549999999999995,0.003978,0.003913000000000001,-32.560001,-22.370001000000002,-22.75,3b
2019-07-15_184158:360,-0.35791,-0.015228,-0.338593,-0.006745999999999999,0.0035810000000000004,0.002967,-32.560001,-22.370001000000002,-22.75,3b
2019-07-15_184158:380,-0.358429,-0.015747,-0.33758499999999997,-0.006411,0.0031850000000000003,0.0021739999999999997,-32.25,-21.25,-22.370001000000002,3b
2019-07-15_184158:400,-0.361481,-0.015747,-0.33758499999999997,-0.006014,0.002788,0.001625,-32.25,-21.25,-22.370001000000002,3b
2019-07-15_184158:420,-0.361481,-0.014221000000000001,-0.337067,-0.005556,0.0024519999999999998,0.0008619999999999999,-32.560001,-21.559998999999998,-21.870001000000002,3b
2019-07-15_184158:440,-0.364014,-0.013702,-0.335541,-0.005282,0.0023,0.0008619999999999999,-32.560001,-21.559998999999998,-21.870001000000002,3b
2019-07-15_184158:460,-0.365021,-0.012177,-0.338074,-0.0051600000000000005,0.0023,0.000343,-32.560001,-21.559998999999998,-21.870001000000002,3b
2019-07-15_184158:480,-0.364014,-0.011169,-0.337067,-0.005129,0.002391,-0.00023700000000000001,-32.25,-22.0,-22.370001000000002,3b
2019-07-15_184158:500,-0.366058,-0.012695,-0.33758499999999997,-0.0051600000000000005,0.002391,-0.00011499999999999999,-32.25,-22.0,-22.370001000000002,3b
2019-07-15_184158:520,-0.364014,-0.015228,-0.336548,-0.004946,0.002635,-0.000664,-32.560001,-21.559998999999998,-21.870001000000002,3b
2019-07-15_184158:540,-0.367584,-0.013702,-0.332489,-0.004488000000000001,0.002849,-0.000786,-32.560001,-21.559998999999998,-21.870001000000002,3b
2019-07-15_184158:560,-0.36654699999999996,-0.012695,-0.335541,-0.004091,0.003246,0.000984,-32.560001,-21.559998999999998,-21.870001000000002,3b
2019-07-15_184158:580,-0.364014,-0.012177,-0.334534,-0.00403,0.002971,0.001442,-32.560001,-22.0,-22.370001000000002,3b
2019-07-15_184158:600,-0.361481,-0.011169,-0.335022,-0.004275,0.002574,0.000496,-32.560001,-22.0,-22.370001000000002,3b
2019-07-15_184158:620,-0.365021,-0.010162000000000001,-0.339111,-0.004488000000000001,0.002116,-0.000328,-32.25,-22.370001000000002,-22.75,3b
2019-07-15_184158:640,-0.367584,-0.012695,-0.337067,-0.00461,0.0019030000000000002,0.000587,-32.25,-22.370001000000002,-22.75,3b
2019-07-15_184158:660,-0.37011700000000003,-0.012177,-0.339111,-0.004946,0.002239,0.0008619999999999999,-32.25,-22.370001000000002,-22.75,3b
2019-07-15_184158:680,-0.36911,-0.012177,-0.336548,-0.004732,0.0029100000000000003,0.00028199999999999997,-33.0,-21.559998999999998,-23.059998999999998,3b
2019-07-15_184158:700,-0.36654699999999996,-0.011687999999999999,-0.335541,-0.00461,0.003886,0.00016,-33.0,-21.559998999999998,-23.059998999999998,3b
2019-07-15_184158:720,-0.364014,-0.011169,-0.33605999999999997,-0.004671,0.004314,7.000000000000001e-06,-33.369999,-22.0,-21.559998999999998,3b
2019-07-15_184158:740,-0.36248800000000003,-0.011169,-0.334015,-0.004397,0.003978,7.000000000000001e-06,-33.369999,-22.0,-21.559998999999998,3b
2019-07-15_184158:760,-0.36248800000000003,-0.009644,-0.335022,-0.004336,0.003703,0.000343,-33.369999,-22.0,-21.559998999999998,3b
2019-07-15_184158:780,-0.36554000000000003,-0.010651,-0.335541,-0.004336,0.003093,0.000465,-32.25,-21.559998999999998,-22.75,3b
2019-07-15_184158:800,-0.366058,-0.011169,-0.334015,-0.004336,0.002849,0.000129,-32.25,-21.559998999999998,-22.75,3b
2019-07-15_184158:820,-0.36349499999999996,-0.010162000000000001,-0.332489,-0.004091,0.002849,0.000709,-32.25,-22.75,-21.559998999999998,3b
2019-07-15_184158:840,-0.361481,-0.013213999999999998,-0.331482,-0.003878,0.002361,0.001106,-32.25,-22.75,-21.559998999999998,3b
2019-07-15_184158:860,-0.36044299999999996,-0.012695,-0.333496,-0.0037560000000000002,0.0017809999999999998,0.00028199999999999997,-32.25,-22.75,-21.559998999999998,3b
2019-07-15_184158:880,-0.360962,-0.012177,-0.334015,-0.0033280000000000002,0.000743,-5.4000000000000005e-05,-32.25,-22.0,-21.559998999999998,3b
2019-07-15_184158:900,-0.361969,-0.013213999999999998,-0.333496,-0.002932,1.1e-05,-5.4000000000000005e-05,-32.25,-22.0,-21.559998999999998,3b
2019-07-15_184158:920,-0.361969,-0.014740000000000001,-0.336548,-0.0025960000000000002,-0.000508,-0.000908,-32.25,-22.0,-22.370001000000002,3b
2019-07-15_184158:940,-0.36706500000000003,-0.014221000000000001,-0.33758499999999997,-0.0021079999999999996,-0.0008439999999999999,-0.0013050000000000002,-32.25,-22.0,-22.370001000000002,3b
2019-07-15_184158:960,-0.369598,-0.011687999999999999,-0.3396,-0.0014060000000000001,-0.001027,-0.00158,-32.25,-22.0,-22.370001000000002,3b
2019-07-15_184158:980,-0.370636,-0.009644,-0.339111,-0.001009,-0.000386,-0.001458,-31.870001000000002,-23.059998999999998,-21.870001000000002,3b
2019-07-15_184159:000,-0.370636,-0.007599,-0.339111,-0.000796,0.000468,-0.0012439999999999999,-31.870001000000002,-23.059998999999998,-21.870001000000002,3b
2019-07-15_184159:020,-0.36654699999999996,-0.006072999999999999,-0.339111,-0.000918,0.0010789999999999999,-0.0011220000000000002,-33.369999,-22.370001000000002,-21.870001000000002,3b
2019-07-15_184159:040,-0.366058,-0.0030210000000000002,-0.336548,-0.0014060000000000001,0.001415,-0.000176,-33.369999,-22.370001000000002,-21.870001000000002,3b
2019-07-15_184159:060,-0.368073,-0.004547,-0.338074,-0.002199,0.0014759999999999999,0.000648,-33.369999,-22.370001000000002,-21.870001000000002,3b
2019-07-15_184159:080,-0.367584,-0.0055850000000000006,-0.337067,-0.0032979999999999997,0.0019030000000000002,0.001777,-32.25,-21.559998999999998,-21.870001000000002,3b
2019-07-15_184159:100,-0.366058,-0.008118,-0.336548,-0.004732,0.002177,0.002571,-32.25,-21.559998999999998,-21.870001000000002,3b
2019-07-15_184159:120,-0.364014,-0.011687999999999999,-0.336548,-0.005282,0.002177,0.002754,-32.25,-21.25,-23.059998999999998,3b
2019-07-15_184159:140,-0.36248800000000003,-0.013702,-0.335022,-0.005221,0.001994,0.0026320000000000002,-32.25,-21.25,-23.059998999999998,3b
2019-07-15_184159:160,-0.361481,-0.016753999999999998,-0.336548,-0.004946,0.0014759999999999999,0.002571,-32.25,-21.25,-23.059998999999998,3b
2019-07-15_184159:180,-0.365021,-0.015228,-0.337067,-0.004397,0.001353,0.002693,-32.25,-22.370001000000002,-21.870001000000002,3b
2019-07-15_184159:200,-0.36706500000000003,-0.015747,-0.33605999999999997,-0.004213000000000001,0.001598,0.002571,-32.25,-22.370001000000002,-21.870001000000002,3b
2019-07-15_184159:220,-0.36911,-0.012177,-0.337067,-0.004275,0.001842,0.0022960000000000003,-32.25,-21.559998999999998,-22.370001000000002,3b
2019-07-15_184159:240,-0.36706500000000003,-0.012695,-0.33605999999999997,-0.004488000000000001,0.0023,0.002235,-32.25,-21.559998999999998,-22.370001000000002,3b
2019-07-15_184159:260,-0.36654699999999996,-0.014221000000000001,-0.3396,-0.004946,0.002391,0.0018989999999999999,-32.25,-21.559998999999998,-22.370001000000002,3b
2019-07-15_184159:280,-0.36654699999999996,-0.015228,-0.338074,-0.005221,0.002116,0.00132,-32.25,-22.0,-21.18,3b
2019-07-15_184159:300,-0.36911,-0.015747,-0.337067,-0.005343,0.002055,0.001167,-32.25,-22.0,-21.18,3b
2019-07-15_184159:320,-0.36911,-0.014740000000000001,-0.338593,-0.005221,0.002361,0.000923,-33.369999,-22.370001000000002,-22.75,3b
2019-07-15_184159:340,-0.369598,-0.015228,-0.34368899999999997,-0.005068,0.002391,0.000465,-33.369999,-22.370001000000002,-22.75,3b
2019-07-15_184159:360,-0.37112399999999995,-0.015747,-0.344696,-0.005068,0.003032,0.00028199999999999997,-33.369999,-22.370001000000002,-22.75,3b
2019-07-15_184159:380,-0.359955,-0.015228,-0.332489,-0.004824,0.003093,0.000343,-33.369999,-22.75,-23.059998999999998,3b
2019-07-15_184159:400,-0.364014,-0.015228,-0.333496,-0.00403,0.002391,6.8e-05,-33.369999,-22.75,-23.059998999999998,3b
2019-07-15_184159:420,-0.365021,-0.016266,-0.333496,-0.0037560000000000002,0.001964,-0.000786,-33.0,-21.559998999999998,-21.870001000000002,3b
2019-07-15_184159:440,-0.36554000000000003,-0.014221000000000001,-0.336548,-0.003664,0.00172,-0.000725,-33.0,-21.559998999999998,-21.870001000000002,3b
2019-07-15_184159:460,-0.368073,-0.012695,-0.33758499999999997,-0.0031149999999999997,0.00172,0.000496,-33.0,-21.559998999999998,-21.870001000000002,3b
2019-07-15_184159:480,-0.368591,-0.010651,-0.340118,-0.003237,0.001537,7.000000000000001e-06,-32.560001,-22.0,-20.75,3b
2019-07-15_184159:500,-0.365021,-0.010651,-0.339111,-0.0036340000000000005,0.0016589999999999999,-0.001366,-32.560001,-22.0,-20.75,3b
2019-07-15_184159:520,-0.366058,-0.008636,-0.34063699999999997,-0.003817,0.001628,-0.001397,-33.0,-22.370001000000002,-22.75,3b
2019-07-15_184159:540,-0.367584,-0.008118,-0.3396,-0.004,0.001842,7.000000000000001e-06,-33.0,-22.370001000000002,-22.75,3b
2019-07-15_184159:560,-0.36706500000000003,-0.010651,-0.340118,-0.004091,0.002361,0.000129,-33.0,-22.370001000000002,-22.75,3b
2019-07-15_184159:580,-0.36706500000000003,-0.009125,-0.338593,-0.004336,0.002849,7.000000000000001e-06,-33.75,-22.0,-21.870001000000002,3b
2019-07-15_184159:600,-0.36706500000000003,-0.010162000000000001,-0.3396,-0.004336,0.003093,0.00028199999999999997,-33.75,-22.0,-21.870001000000002,3b
2019-07-15_184159:620,-0.367584,-0.011169,-0.338593,-0.004549,0.003124,-0.00011499999999999999,-33.0,-21.559998999999998,-23.059998999999998,3b
2019-07-15_184159:640,-0.367584,-0.011169,-0.336548,-0.004427,0.003368,6.8e-05,-33.0,-21.559998999999998,-23.059998999999998,3b
2019-07-15_184159:660,-0.367584,-0.013213999999999998,-0.338593,-0.004275,0.00349,6.8e-05,-33.0,-21.559998999999998,-23.059998999999998,3b
2019-07-15_184159:680,-0.37011700000000003,-0.015228,-0.337067,-0.003878,0.0036420000000000003,-0.00045099999999999996,-32.5,-22.0,-21.559998999999998,3b
2019-07-15_184159:700,-0.36911,-0.016266,-0.33758499999999997,-0.003512,0.003978,-0.0011220000000000002,-32.5,-22.0,-21.559998999999998,3b
2019-07-15_184159:720,-0.367584,-0.014221000000000001,-0.335022,-0.002932,0.004039,-0.0010609999999999999,-33.0,-22.0,-22.370001000000002,3b
2019-07-15_184159:740,-0.36706500000000003,-0.016266,-0.334015,-0.0022600000000000003,0.003886,-0.001702,-33.0,-22.0,-22.370001000000002,3b
2019-07-15_184159:760,-0.36554000000000003,-0.015747,-0.334534,-0.00165,0.003368,-0.0028309999999999997,-33.0,-22.0,-22.370001000000002,3b
2019-07-15_184159:780,-0.367584,-0.013213999999999998,-0.334534,-0.000734,0.002788,-0.00277,-32.560001,-22.0,-22.370001000000002,3b
2019-07-15_184159:800,-0.367584,-0.012695,-0.334015,-0.000246,0.002849,-0.002587,-32.560001,-22.0,-22.370001000000002,3b
2019-07-15_184159:820,-0.368591,-0.007599,-0.335541,-0.000185,0.002513,-0.00277,-32.869999,-21.559998999999998,-23.059998999999998,3b
2019-07-15_184159:840,-0.368073,-0.005065999999999999,-0.33300799999999997,-0.000582,0.002055,-0.002098,-32.869999,-21.559998999999998,-23.059998999999998,3b
2019-07-15_184159:860,-0.369598,-0.004059,-0.334015,-0.0015279999999999998,0.001994,-0.0017629999999999998,-32.869999,-21.559998999999998,-23.059998999999998,3b
2019-07-15_184159:880,-0.369598,-0.004547,-0.335541,-0.002657,0.0019030000000000002,-0.0013050000000000002,-32.869999,-22.0,-21.870001000000002,3b
2019-07-15_184159:900,-0.368073,-0.007599,-0.333496,-0.0034509999999999996,0.001964,-0.000664,-32.869999,-22.0,-21.870001000000002,3b
2019-07-15_184159:920,-0.36654699999999996,-0.008118,-0.334015,-0.00403,0.00172,-0.000328,-32.5,-22.0,-21.559998999999998,3b
2019-07-15_184159:940,-0.368073,-0.010162000000000001,-0.334534,-0.003817,0.001537,-0.00011499999999999999,-32.5,-22.0,-21.559998999999998,3b
2019-07-15_184159:960,-0.369598,-0.010162000000000001,-0.337067,-0.003664,0.001537,0.00016,-32.5,-22.0,-21.559998999999998,3b
2019-07-15_184159:980,-0.371643,-0.009644,-0.335022,-0.0036340000000000005,0.0016589999999999999,0.000648,-32.5,-22.370001000000002,-21.870001000000002,3b
2019-07-15_184200:000,-0.37011700000000003,-0.012695,-0.33605999999999997,-0.0034509999999999996,0.001964,0.000984,-32.5,-22.370001000000002,-21.870001000000002,3b
2019-07-15_184200:020,-0.369598,-0.011169,-0.336548,-0.003237,0.002361,0.000984,-32.869999,-22.370001000000002,-21.559998999999998,3b
2019-07-15_184200:040,-0.36911,-0.010651,-0.333496,-0.0031149999999999997,0.002361,0.001106,-32.869999,-22.370001000000002,-21.559998999999998,3b
2019-07-15_184200:060,-0.37011700000000003,-0.009125,-0.334534,-0.003237,0.0024519999999999998,0.000984,-32.869999,-22.370001000000002,-21.559998999999998,3b
2019-07-15_184200:080,-0.367584,-0.009644,-0.331482,-0.003512,0.002239,0.001106,-32.5,-21.559998999999998,-21.870001000000002,3b
2019-07-15_184200:100,-0.364532,-0.009644,-0.33300799999999997,-0.003817,0.0019030000000000002,0.00132,-32.5,-21.559998999999998,-21.870001000000002,3b
2019-07-15_184200:120,-0.364014,-0.010162000000000001,-0.334534,-0.004,0.0012619999999999999,0.001381,-32.5,-22.370001000000002,-23.059998999999998,3b
2019-07-15_184200:140,-0.36706500000000003,-0.009644,-0.332489,-0.004152,0.000285,0.001381,-32.5,-22.370001000000002,-23.059998999999998,3b
2019-07-15_184200:160,-0.368591,-0.010162000000000001,-0.334534,-0.004397,-5e-05,0.001258,-32.5,-22.370001000000002,-23.059998999999998,3b
2019-07-15_184200:180,-0.369598,-0.011169,-0.335022,-0.004488000000000001,-0.00011100000000000001,0.001625,-33.68,-21.559998999999998,-21.559998999999998,3b
2019-07-15_184200:200,-0.372162,-0.011169,-0.334534,-0.00461,-0.00011100000000000001,0.001625,-33.68,-21.559998999999998,-21.559998999999998,3b
2019-07-15_184200:220,-0.37316900000000003,-0.011169,-0.33758499999999997,-0.004946,0.000499,0.001442,-33.25,-22.0,-21.559998999999998,3b
2019-07-15_184200:240,-0.371643,-0.012177,-0.338074,-0.004946,0.0010789999999999999,0.001258,-33.25,-22.0,-21.559998999999998,3b
2019-07-15_184200:260,-0.37011700000000003,-0.013702,-0.33758499999999997,-0.004732,0.001598,0.001045,-33.25,-22.0,-21.559998999999998,3b
2019-07-15_184200:280,-0.370636,-0.014740000000000001,-0.335541,-0.004488000000000001,0.0019030000000000002,0.001106,-32.869999,-21.559998999999998,-21.559998999999998,3b
2019-07-15_184200:300,-0.37265,-0.012695,-0.33758499999999997,-0.004091,0.002177,0.000923,-32.869999,-21.559998999999998,-21.559998999999998,3b
2019-07-15_184200:320,-0.371643,-0.012695,-0.336548,-0.003573,0.002696,0.000221,-31.75,-22.370001000000002,-23.059998999999998,3b
2019-07-15_184200:340,-0.37265,-0.008118,-0.333496,-0.003512,0.003032,0.0007700000000000001,-31.75,-22.370001000000002,-23.059998999999998,3b
2019-07-15_184200:360,-0.37265,-0.009125,-0.335541,-0.00339,0.003307,0.001991,-31.75,-22.370001000000002,-23.059998999999998,3b
2019-07-15_184200:380,-0.369598,-0.008636,-0.335541,-0.004427,0.00349,0.00132,-32.18,-22.0,-21.870001000000002,3b
2019-07-15_184200:400,-0.367584,-0.008636,-0.334015,-0.004671,0.003124,0.000343,-32.18,-22.0,-21.870001000000002,3b
2019-07-15_184200:420,-0.36654699999999996,-0.010162000000000001,-0.33300799999999997,-0.004824,0.002788,0.000587,-32.18,-22.0,-21.559998999999998,3b
2019-07-15_184200:440,-0.371643,-0.012695,-0.332489,-0.004793,0.002574,0.000984,-32.18,-22.0,-21.559998999999998,3b
2019-07-15_184200:460,-0.37265,-0.013213999999999998,-0.334015,-0.004549,0.003093,0.000984,-32.18,-22.0,-21.559998999999998,3b
2019-07-15_184200:480,-0.37316900000000003,-0.011687999999999999,-0.335022,-0.004152,0.003124,0.001167,-32.869999,-22.0,-21.559998999999998,3b
2019-07-15_184200:500,-0.371643,-0.010651,-0.334015,-0.004152,0.00352,0.001106,-32.869999,-22.0,-21.559998999999998,3b
2019-07-15_184200:520,-0.37265,-0.009644,-0.335541,-0.004275,0.003703,0.001167,-32.5,-22.370001000000002,-21.559998999999998,3b
2019-07-15_184200:540,-0.374695,-0.011687999999999999,-0.334015,-0.004397,0.004222,0.001167,-32.5,-22.370001000000002,-21.559998999999998,3b
2019-07-15_184200:560,-0.375214,-0.013213999999999998,-0.334534,-0.004336,0.004314,0.000923,-32.5,-22.370001000000002,-21.559998999999998,3b
2019-07-15_184200:580,-0.377228,-0.012695,-0.335022,-0.004336,0.004649,0.000587,-33.0,-22.0,-21.18,3b
2019-07-15_184200:600,-0.374695,-0.013213999999999998,-0.33197,-0.004213000000000001,0.005229,0.000587,-33.0,-22.0,-21.18,3b
2019-07-15_184200:620,-0.374176,-0.011687999999999999,-0.32995599999999997,-0.003878,0.005626,0.000709,-32.560001,-22.370001000000002,-21.559998999999998,3b
2019-07-15_184200:640,-0.370636,-0.012177,-0.326385,-0.003817,0.005412,0.000526,-32.560001,-22.370001000000002,-21.559998999999998,3b
2019-07-15_184200:660,-0.371643,-0.012695,-0.329437,-0.003817,0.004771,-0.000176,-32.560001,-22.370001000000002,-21.559998999999998,3b
2019-07-15_184200:680,-0.37265,-0.012177,-0.32843,-0.003512,0.004497,0.000129,-32.560001,-22.370001000000002,-21.18,3b
2019-07-15_184200:700,-0.37316900000000003,-0.011169,-0.326904,-0.003512,0.004375,0.000343,-32.560001,-22.370001000000002,-21.18,3b
2019-07-15_184200:720,-0.373688,-0.011169,-0.326904,-0.0033280000000000002,0.004314,0.000221,-33.369999,-22.75,-21.559998999999998,3b
2019-07-15_184200:740,-0.374176,-0.011687999999999999,-0.327423,-0.003054,0.004039,0.000465,-33.369999,-22.75,-21.559998999999998,3b
2019-07-15_184200:760,-0.375702,-0.010162000000000001,-0.327911,-0.0031149999999999997,0.003825,0.00028199999999999997,-33.369999,-22.75,-21.559998999999998,3b
2019-07-15_184200:780,-0.378754,-0.009644,-0.327423,-0.003054,0.003886,0.000496,-34.060001,-22.0,-22.370001000000002,3b
2019-07-15_184200:800,-0.378754,-0.009644,-0.325378,-0.0033280000000000002,0.0045579999999999996,0.000465,-34.060001,-22.0,-22.370001000000002,3b
2019-07-15_184200:820,-0.376221,-0.012177,-0.327911,-0.00339,0.004894,0.000343,-32.869999,-22.370001000000002,-20.370001000000002,3b
2019-07-15_184200:840,-0.378265,-0.012695,-0.325378,-0.00339,0.005016,0.00028199999999999997,-32.869999,-22.370001000000002,-20.370001000000002,3b
2019-07-15_184200:860,-0.379272,-0.012695,-0.325378,-0.00339,0.005107,0.00016,-32.869999,-22.370001000000002,-20.370001000000002,3b
2019-07-15_184200:880,-0.379791,-0.012177,-0.325897,-0.003176,0.005412,0.000221,-33.68,-22.0,-21.18,3b
2019-07-15_184200:900,-0.377228,-0.012177,-0.323853,-0.0029010000000000004,0.005412,0.00016,-33.68,-22.0,-21.18,3b
2019-07-15_184200:920,-0.375214,-0.011169,-0.323334,-0.002993,0.005412,0.000129,-32.869999,-22.75,-20.75,3b
2019-07-15_184200:940,-0.37674,-0.010651,-0.321808,-0.003176,0.005046,0.000343,-32.869999,-22.75,-20.75,3b
2019-07-15_184200:960,-0.378754,-0.011687999999999999,-0.322845,-0.0033280000000000002,0.004497,0.00028199999999999997,-32.869999,-22.75,-20.75,3b
2019-07-15_184200:980,-0.38028,-0.011687999999999999,-0.322845,-0.0033280000000000002,0.004436,0.00028199999999999997,-33.68,-22.0,-20.75,3b
2019-07-15_184201:000,-0.381317,-0.011687999999999999,-0.322327,-0.0034509999999999996,0.004649,0.000343,-33.68,-22.0,-20.75,3b
2019-07-15_184201:020,-0.38028,-0.011687999999999999,-0.322845,-0.0033280000000000002,0.0045579999999999996,0.000343,-33.25,-22.75,-21.18,3b
2019-07-15_184201:040,-0.379272,-0.012695,-0.320282,-0.003512,0.0045579999999999996,0.000648,-33.25,-22.75,-21.18,3b
2019-07-15_184201:060,-0.381317,-0.010651,-0.32132,-0.0033280000000000002,0.004314,0.000709,-33.25,-22.75,-21.18,3b
2019-07-15_184201:080,-0.38385,-0.010162000000000001,-0.320801,-0.003664,0.004619,0.000648,-32.5,-22.370001000000002,-19.559998999999998,3b
2019-07-15_184201:100,-0.381805,-0.011169,-0.319275,-0.003939,0.004649,0.000709,-32.5,-22.370001000000002,-19.559998999999998,3b
2019-07-15_184201:120,-0.379272,-0.012695,-0.317749,-0.004,0.004833,0.000709,-33.369999,-21.559998999999998,-21.870001000000002,3b
2019-07-15_184201:140,-0.377228,-0.012695,-0.314697,-0.004152,0.003917,0.000526,-33.369999,-21.559998999999998,-21.870001000000002,3b
2019-07-15_184201:160,-0.377747,-0.012695,-0.315216,-0.004,0.0034289999999999998,0.000343,-33.369999,-21.559998999999998,-21.870001000000002,3b
2019-07-15_184201:180,-0.377228,-0.012695,-0.314697,-0.003817,0.002361,0.000465,-33.68,-22.0,-21.18,3b
2019-07-15_184201:200,-0.380798,-0.009644,-0.316223,-0.003878,0.001842,0.000526,-33.68,-22.0,-21.18,3b
2019-07-15_184201:220,-0.381317,-0.011169,-0.316223,-0.003939,0.001415,0.000587,-34.0,-22.0,-21.18,3b
2019-07-15_184201:240,-0.382812,-0.010651,-0.31723,-0.004,0.000865,-5.4000000000000005e-05,-34.0,-22.0,-21.18,3b
2019-07-15_184201:260,-0.387909,-0.010162000000000001,-0.316223,-0.004152,0.00114,0.000221,-34.0,-22.0,-21.18,3b
2019-07-15_184201:280,-0.38739,-0.011687999999999999,-0.319794,-0.004213000000000001,0.001628,0.001167,-33.68,-22.0,-20.75,3b
2019-07-15_184201:300,-0.38385,-0.009644,-0.318268,-0.004549,0.001994,0.000587,-33.68,-22.0,-20.75,3b
2019-07-15_184201:320,-0.383331,-0.012695,-0.320282,-0.004397,0.00172,-0.000328,-33.68,-22.370001000000002,-21.18,3b
2019-07-15_184201:340,-0.381317,-0.011687999999999999,-0.319275,-0.004213000000000001,0.0016589999999999999,-0.000634,-33.68,-22.370001000000002,-21.18,3b
2019-07-15_184201:360,-0.38385,-0.011687999999999999,-0.318756,-0.003939,0.0019030000000000002,0.00016,-33.68,-22.370001000000002,-21.18,3b
2019-07-15_184201:380,-0.386902,-0.010651,-0.318756,-0.003664,0.002239,0.00028199999999999997,-33.25,-22.0,-19.870001000000002,3b
2019-07-15_184201:400,-0.386902,-0.008636,-0.320801,-0.003573,0.0029100000000000003,0.000404,-33.25,-22.0,-19.870001000000002,3b
2019-07-15_184201:420,-0.384857,-0.008118,-0.320282,-0.003878,0.00352,0.000709,-33.25,-22.75,-20.75,3b
2019-07-15_184201:440,-0.383331,-0.009125,-0.319275,-0.004213000000000001,0.003764,0.001106,-33.25,-22.75,-20.75,3b
2019-07-15_184201:460,-0.385864,-0.011169,-0.320801,-0.004427,0.003703,0.001167,-33.25,-22.75,-20.75,3b
2019-07-15_184201:480,-0.386902,-0.011687999999999999,-0.319275,-0.00461,0.003917,0.001167,-33.25,-22.0,-19.559998999999998,3b
2019-07-15_184201:500,-0.388428,-0.012695,-0.320282,-0.004397,0.004436,0.0007700000000000001,-33.25,-22.0,-19.559998999999998,3b
2019-07-15_184201:520,-0.391968,-0.013213999999999998,-0.320801,-0.004091,0.005046,0.0007700000000000001,-34.0,-22.75,-18.75,3b
2019-07-15_184201:540,-0.390442,-0.012177,-0.316742,-0.003817,0.005901,0.001167,-34.0,-22.75,-18.75,3b
2019-07-15_184201:560,-0.387909,-0.011687999999999999,-0.31723,-0.003573,0.006572,0.001258,-34.0,-22.75,-18.75,3b
2019-07-15_184201:580,-0.383331,-0.009644,-0.314697,-0.0037560000000000002,0.00703,0.000465,-33.369999,-22.0,-20.75,3b
2019-07-15_184201:600,-0.383331,-0.010162000000000001,-0.311127,-0.003817,0.006693999999999999,0.0008619999999999999,-33.369999,-22.0,-20.75,3b
2019-07-15_184201:620,-0.384338,-0.011169,-0.310638,-0.003817,0.006175,0.000984,-33.75,-22.0,-19.559998999999998,3b
2019-07-15_184201:640,-0.385864,-0.010651,-0.308075,-0.003939,0.005565,0.000923,-33.75,-22.0,-19.559998999999998,3b
2019-07-15_184201:660,-0.385864,-0.012695,-0.307068,-0.003939,0.005046,0.000923,-33.75,-22.0,-19.559998999999998,3b
2019-07-15_184201:680,-0.384338,-0.012177,-0.30654899999999996,-0.003817,0.0045579999999999996,0.0007700000000000001,-34.5,-21.559998999999998,-20.370001000000002,3b
2019-07-15_184201:700,-0.383331,-0.011169,-0.304016,-0.0036340000000000005,0.003764,0.000465,-34.5,-21.559998999999998,-20.370001000000002,3b
2019-07-15_184201:720,-0.384338,-0.012177,-0.305542,-0.003573,0.0029100000000000003,0.000465,-34.0,-22.370001000000002,-19.18,3b
2019-07-15_184201:740,-0.387909,-0.010651,-0.306061,-0.003664,0.001964,0.00016,-34.0,-22.370001000000002,-19.18,3b
2019-07-15_184201:760,-0.390442,-0.012695,-0.307068,-0.003664,0.001628,7.000000000000001e-06,-34.0,-22.370001000000002,-19.18,3b
2019-07-15_184201:780,-0.390961,-0.013702,-0.307587,-0.003664,0.001598,-0.000328,-34.5,-22.0,-19.870001000000002,3b
2019-07-15_184201:800,-0.389435,-0.013213999999999998,-0.309113,-0.0032979999999999997,0.001353,-0.00045099999999999996,-34.5,-22.0,-19.870001000000002,3b
2019-07-15_184201:820,-0.387909,-0.012695,-0.309601,-0.002932,0.0012619999999999999,-0.000512,-34.060001,-21.559998999999998,-20.75,3b
2019-07-15_184201:840,-0.389435,-0.011169,-0.308594,-0.0025050000000000003,0.001018,-5.4000000000000005e-05,-34.060001,-21.559998999999998,-20.75,3b
2019-07-15_184201:860,-0.389435,-0.008636,-0.311127,-0.0022600000000000003,0.00056,7.000000000000001e-06,-34.060001,-21.559998999999998,-20.75,3b
2019-07-15_184201:880,-0.389435,-0.008118,-0.309601,-0.002535,0.000499,0.000221,-34.5,-22.0,-19.870001000000002,3b
2019-07-15_184201:900,-0.390442,-0.008118,-0.311127,-0.0031149999999999997,0.00056,0.000526,-34.5,-22.0,-19.870001000000002,3b
2019-07-15_184201:920,-0.389954,-0.010162000000000001,-0.311127,-0.003817,0.0009570000000000001,0.000587,-34.75,-22.370001000000002,-20.370001000000002,3b
2019-07-15_184201:940,-0.387909,-0.010162000000000001,-0.311127,-0.004336,0.0012619999999999999,0.000496,-34.75,-22.370001000000002,-20.370001000000002,3b
2019-07-15_184201:960,-0.388916,-0.011169,-0.311127,-0.004793,0.001018,0.000709,-34.75,-22.370001000000002,-20.370001000000002,3b
2019-07-15_184201:980,-0.390442,-0.012695,-0.310638,-0.004824,0.001018,0.000709,-34.0,-22.75,-20.75,3b
2019-07-15_184202:000,-0.390442,-0.013213999999999998,-0.31012,-0.004549,0.001018,0.001106,-34.0,-22.75,-20.75,3b
2019-07-15_184202:020,-0.388916,-0.012695,-0.312164,-0.004275,0.0012619999999999999,0.001167,-33.68,-22.0,-19.870001000000002,3b
2019-07-15_184202:040,-0.389954,-0.011169,-0.309601,-0.004336,0.0014759999999999999,0.001167,-33.68,-22.0,-19.870001000000002,3b
2019-07-15_184202:060,-0.38739,-0.013213999999999998,-0.312164,-0.004397,0.001628,0.001442,-33.68,-22.0,-19.870001000000002,3b
2019-07-15_184202:080,-0.390442,-0.012695,-0.312164,-0.004671,0.0014759999999999999,0.001106,-34.0,-21.559998999999998,-21.18,3b
2019-07-15_184202:100,-0.391479,-0.012695,-0.311646,-0.0048850000000000005,0.001964,0.000923,-34.0,-21.559998999999998,-21.18,3b
2019-07-15_184202:120,-0.391968,-0.013702,-0.313171,-0.0048850000000000005,0.0023,0.000587,-34.0,-22.0,-20.75,3b
2019-07-15_184202:140,-0.389954,-0.014221000000000001,-0.311127,-0.004671,0.002696,0.000648,-34.0,-22.0,-20.75,3b
2019-07-15_184202:160,-0.391479,-0.013213999999999998,-0.311646,-0.00403,0.0029100000000000003,0.000404,-34.0,-22.0,-20.75,3b
2019-07-15_184202:180,-0.390442,-0.009125,-0.308075,-0.00403,0.003124,6.8e-05,-33.68,-22.370001000000002,-19.18,3b
2019-07-15_184202:200,-0.391968,-0.009644,-0.310638,-0.004213000000000001,0.003124,0.001228,-33.68,-22.370001000000002,-19.18,3b
2019-07-15_184202:220,-0.387909,-0.008118,-0.30654899999999996,-0.0048850000000000005,0.0029100000000000003,0.000923,-34.0,-22.75,-19.870001000000002,3b
2019-07-15_184202:240,-0.386383,-0.012177,-0.307587,-0.0058,0.0029100000000000003,-0.000786,-34.0,-22.75,-19.870001000000002,3b
2019-07-15_184202:260,-0.384338,-0.013213999999999998,-0.308075,-0.005556,0.002635,-0.0009689999999999999,-34.0,-22.75,-19.870001000000002,3b
2019-07-15_184202:280,-0.387909,-0.015228,-0.309113,-0.004671,0.001994,-0.00011499999999999999,-34.369999,-22.0,-18.75,3b
2019-07-15_184202:300,-0.388916,-0.013702,-0.308075,-0.0036950000000000004,0.001628,-0.000176,-34.369999,-22.0,-18.75,3b
2019-07-15_184202:320,-0.394012,-0.010651,-0.31012,-0.0025960000000000002,0.0017809999999999998,0.000709,-34.369999,-22.370001000000002,-20.370001000000002,3b
2019-07-15_184202:340,-0.391479,-0.006592,-0.308075,-0.002443,0.001964,0.0007700000000000001,-34.369999,-22.370001000000002,-20.370001000000002,3b
2019-07-15_184202:360,-0.390961,-0.006592,-0.31012,-0.002932,0.002177,0.000465,-34.369999,-22.370001000000002,-20.370001000000002,3b
2019-07-15_184202:380,-0.392487,-0.009125,-0.31012,-0.003817,0.002391,0.000984,-34.0,-22.0,-19.559998999999998,3b
2019-07-15_184202:400,-0.393005,-0.010162000000000001,-0.309113,-0.004152,0.0023,0.000343,-34.0,-22.0,-19.559998999999998,3b
2019-07-15_184202:420,-0.388916,-0.011169,-0.307068,-0.004275,0.002361,-0.000267,-33.25,-22.370001000000002,-21.18,3b
2019-07-15_184202:440,-0.391479,-0.012177,-0.307587,-0.003939,0.0024519999999999998,0.00016,-33.25,-22.370001000000002,-21.18,3b
2019-07-15_184202:460,-0.390442,-0.011687999999999999,-0.308075,-0.0036950000000000004,0.002361,0.000496,-33.25,-22.370001000000002,-21.18,3b
2019-07-15_184202:480,-0.388428,-0.010651,-0.308075,-0.0034509999999999996,0.002177,-0.000573,-34.369999,-22.370001000000002,-19.870001000000002,3b
2019-07-15_184202:500,-0.390961,-0.008636,-0.308075,-0.00339,0.0016589999999999999,-0.000725,-34.369999,-22.370001000000002,-19.870001000000002,3b
2019-07-15_184202:520,-0.391479,-0.007111,-0.307587,-0.00339,0.001842,7.000000000000001e-06,-33.68,-22.370001000000002,-19.870001000000002,3b
2019-07-15_184202:540,-0.391479,-0.008118,-0.308594,-0.00339,0.001994,7.000000000000001e-06,-33.68,-22.370001000000002,-19.870001000000002,3b
2019-07-15_184202:560,-0.391968,-0.007599,-0.309601,-0.00339,0.002055,-0.00011499999999999999,-33.68,-22.370001000000002,-19.870001000000002,3b
2019-07-15_184202:580,-0.393494,-0.007111,-0.308594,-0.003573,0.002177,7.000000000000001e-06,-33.68,-21.559998999999998,-19.18,3b
2019-07-15_184202:600,-0.393005,-0.008636,-0.305542,-0.0037560000000000002,0.0024519999999999998,7.000000000000001e-06,-33.68,-21.559998999999998,-19.18,3b
2019-07-15_184202:620,-0.392487,-0.009125,-0.305542,-0.0037560000000000002,0.002635,0.00016,-33.68,-22.75,-20.75,3b
2019-07-15_184202:640,-0.390961,-0.008118,-0.303528,-0.003664,0.002361,-5.4000000000000005e-05,-33.68,-22.75,-20.75,3b
2019-07-15_184202:660,-0.388916,-0.008636,-0.305542,-0.003512,0.002239,7.000000000000001e-06,-33.68,-22.75,-20.75,3b
2019-07-15_184202:680,-0.390442,-0.008636,-0.307068,-0.00339,0.001994,6.8e-05,-33.68,-22.0,-19.870001000000002,3b
2019-07-15_184202:700,-0.391479,-0.008118,-0.30654899999999996,-0.0033280000000000002,0.001842,7.000000000000001e-06,-33.68,-22.0,-19.870001000000002,3b
2019-07-15_184202:720,-0.391479,-0.007599,-0.30654899999999996,-0.0034509999999999996,0.0016589999999999999,0.000343,-34.369999,-22.75,-21.059998999999998,3b
2019-07-15_184202:740,-0.390961,-0.007599,-0.305542,-0.003512,0.00172,0.000404,-34.369999,-22.75,-21.059998999999998,3b
2019-07-15_184202:760,-0.389954,-0.008118,-0.30654899999999996,-0.0034509999999999996,0.001598,0.000496,-34.369999,-22.75,-21.059998999999998,3b
2019-07-15_184202:780,-0.390442,-0.007599,-0.30654899999999996,-0.0036340000000000005,0.001537,0.000984,-34.369999,-22.0,-20.370001000000002,3b
2019-07-15_184202:800,-0.390961,-0.008118,-0.306061,-0.003664,0.001415,0.001167,-34.369999,-22.0,-20.370001000000002,3b
2019-07-15_184202:820,-0.391479,-0.008118,-0.307587,-0.003817,0.0014759999999999999,0.0008619999999999999,-34.369999,-22.370001000000002,-19.870001000000002,3b
2019-07-15_184202:840,-0.390442,-0.009644,-0.305542,-0.00403,0.001201,0.000709,-34.369999,-22.370001000000002,-19.870001000000002,3b
2019-07-15_184202:860,-0.390961,-0.011169,-0.313171,-0.00403,0.000865,0.000465,-34.369999,-22.370001000000002,-19.870001000000002,3b
2019-07-15_184202:880,-0.389435,-0.010162000000000001,-0.304535,-0.003939,0.0010789999999999999,0.00028199999999999997,-33.68,-22.0,-19.559998999999998,3b
2019-07-15_184202:900,-0.38385,-0.012177,-0.296906,-0.003664,0.000682,-5.4000000000000005e-05,-33.68,-22.0,-19.559998999999998,3b
2019-07-15_184202:920,-0.386902,-0.010162000000000001,-0.307587,-0.00339,-0.00044699999999999997,-0.00045099999999999996,-33.68,-21.559998999999998,-19.870001000000002,3b
2019-07-15_184202:940,-0.382812,-0.009644,-0.307587,-0.003512,-0.001393,-0.001,-33.68,-21.559998999999998,-19.870001000000002,3b
2019-07-15_184202:960,-0.386902,-0.011687999999999999,-0.31012,-0.002993,-0.002431,-0.001641,-33.68,-21.559998999999998,-19.870001000000002,3b
2019-07-15_184202:980,-0.387909,-0.011169,-0.309113,-0.0025960000000000002,-0.002522,-0.0019149999999999998,-33.25,-22.370001000000002,-19.18,3b
2019-07-15_184203:000,-0.389435,-0.010162000000000001,-0.311127,-0.001925,-0.002705,-0.002373,-33.25,-22.370001000000002,-19.18,3b
2019-07-15_184203:020,-0.386902,-0.009125,-0.313171,-0.0015279999999999998,-0.002583,-0.0019760000000000003,-34.369999,-22.75,-20.75,3b
2019-07-15_184203:040,-0.387909,-0.006592,-0.315216,-0.001009,-0.002583,-0.00158,-34.369999,-22.75,-20.75,3b
2019-07-15_184203:060,-0.389954,-0.005065999999999999,-0.316223,-0.000918,-0.002644,-0.001519,-34.369999,-22.75,-20.75,3b
2019-07-15_184203:080,-0.391968,-0.004547,-0.315704,-0.001192,-0.0018510000000000002,-0.001458,-32.869999,-22.0,-19.559998999999998,3b
2019-07-15_184203:100,-0.392487,-0.0025329999999999997,-0.316742,-0.001772,-0.0009660000000000001,6.8e-05,-32.869999,-22.0,-19.559998999999998,3b
2019-07-15_184203:120,-0.390442,-0.005065999999999999,-0.31723,-0.002535,-0.00063,0.000465,-33.68,-22.75,-19.18,3b
2019-07-15_184203:140,-0.386902,-0.004059,-0.315704,-0.003237,0.000285,-0.00011499999999999999,-33.68,-22.75,-19.18,3b
2019-07-15_184203:160,-0.384338,-0.006592,-0.31723,-0.003817,0.000285,-0.000267,-33.68,-22.75,-19.18,3b
2019-07-15_184203:180,-0.38385,-0.007599,-0.316223,-0.004,0.000285,0.000129,-33.68,-22.370001000000002,-21.18,3b
2019-07-15_184203:200,-0.385376,-0.008636,-0.315216,-0.003878,0.000285,0.000831,-33.68,-22.370001000000002,-21.18,3b
2019-07-15_184203:220,-0.386383,-0.009125,-0.314697,-0.003573,0.000407,0.000984,-33.68,-22.75,-20.370001000000002,3b
2019-07-15_184203:240,-0.386902,-0.007599,-0.315704,-0.003512,0.000407,0.001167,-33.68,-22.75,-20.370001000000002,3b
2019-07-15_184203:260,-0.384857,-0.008118,-0.316742,-0.0032979999999999997,0.000743,0.001503,-33.68,-22.75,-20.370001000000002,3b
2019-07-15_184203:280,-0.381805,-0.007599,-0.316742,-0.0034509999999999996,0.000621,0.001564,-33.68,-22.0,-20.75,3b
2019-07-15_184203:300,-0.381805,-0.007111,-0.315704,-0.003817,-0.000172,0.001991,-33.68,-22.0,-20.75,3b
2019-07-15_184203:320,-0.38028,-0.008636,-0.316742,-0.004397,-0.000661,0.001564,-34.0,-22.75,-20.75,3b
2019-07-15_184203:340,-0.377747,-0.008118,-0.316223,-0.005068,-0.001515,0.001258,-34.0,-22.75,-20.75,3b
2019-07-15_184203:360,-0.376221,-0.009644,-0.316223,-0.005343,-0.002248,0.0018989999999999999,-34.0,-22.75,-20.75,3b
2019-07-15_184203:380,-0.375702,-0.009644,-0.31723,-0.005526,-0.0033159999999999995,0.0018989999999999999,-33.25,-22.370001000000002,-21.059998999999998,3b
2019-07-15_184203:400,-0.376221,-0.010162000000000001,-0.314697,-0.0058,-0.004109000000000001,0.000709,-33.25,-22.370001000000002,-21.059998999999998,3b
2019-07-15_184203:420,-0.370636,-0.008118,-0.316223,-0.005678,-0.004842,0.000496,-33.369999,-22.75,-19.559998999999998,3b
2019-07-15_184203:440,-0.377747,-0.008636,-0.320801,-0.0058,-0.005879,0.001106,-33.369999,-22.75,-19.559998999999998,3b
2019-07-15_184203:460,-0.385376,-0.007599,-0.322327,-0.005953,-0.005971,0.001442,-33.369999,-22.75,-19.559998999999998,3b
2019-07-15_184203:480,-0.386383,-0.007111,-0.325378,-0.006197,-0.004964,0.001258,-32.5,-22.370001000000002,-19.559998999999998,3b
2019-07-15_184203:500,-0.384338,-0.010651,-0.325378,-0.005922,-0.004018,0.001045,-32.5,-22.370001000000002,-19.559998999999998,3b
2019-07-15_184203:520,-0.380798,-0.010162000000000001,-0.327423,-0.005404,-0.003163,0.001045,-33.25,-22.75,-20.370001000000002,3b
2019-07-15_184203:540,-0.382812,-0.011687999999999999,-0.32843,-0.004732,-0.002248,0.000923,-33.25,-22.75,-20.370001000000002,3b
2019-07-15_184203:560,-0.384857,-0.012177,-0.32995599999999997,-0.003878,-0.001302,0.000923,-33.25,-22.75,-20.370001000000002,3b
2019-07-15_184203:580,-0.382324,-0.011169,-0.32995599999999997,-0.0029010000000000004,-0.000172,0.001381,-32.869999,-22.75,-22.370001000000002,3b
2019-07-15_184203:600,-0.378265,-0.010162000000000001,-0.32843,-0.0022600000000000003,0.000468,0.001625,-32.869999,-22.75,-22.370001000000002,3b
2019-07-15_184203:620,-0.377228,-0.009125,-0.32843,-0.001925,0.0008039999999999999,0.001258,-33.369999,-22.370001000000002,-21.870001000000002,3b
2019-07-15_184203:640,-0.382812,-0.009125,-0.326385,-0.0020469999999999998,0.001201,0.0007700000000000001,-33.369999,-22.370001000000002,-21.870001000000002,3b
2019-07-15_184203:660,-0.38385,-0.009125,-0.326385,-0.0021079999999999996,0.0019030000000000002,0.000709,-33.369999,-22.370001000000002,-21.870001000000002,3b
2019-07-15_184203:680,-0.380798,-0.010162000000000001,-0.324371,-0.002382,0.002696,0.000648,-32.25,-22.370001000000002,-21.18,3b
2019-07-15_184203:700,-0.381317,-0.010651,-0.323853,-0.002382,0.0029100000000000003,0.000465,-32.25,-22.370001000000002,-21.18,3b
2019-07-15_184203:720,-0.378754,-0.011169,-0.322845,-0.0025050000000000003,0.002574,0.000343,-33.75,-22.370001000000002,-22.370001000000002,3b
2019-07-15_184203:740,-0.377747,-0.011687999999999999,-0.325897,-0.002535,0.002177,0.000221,-33.75,-22.370001000000002,-22.370001000000002,3b
2019-07-15_184203:760,-0.377228,-0.009125,-0.31723,-0.002657,0.002116,0.000221,-33.75,-22.370001000000002,-22.370001000000002,3b
2019-07-15_184203:780,-0.371643,-0.012177,-0.304535,-0.002169,0.001415,0.00016,-33.369999,-22.0,-21.559998999999998,3b
2019-07-15_184203:800,-0.382324,-0.010651,-0.325897,-0.002199,0.0008039999999999999,0.00028199999999999997,-33.369999,-22.0,-21.559998999999998,3b
2019-07-15_184203:820,-0.377228,-0.011687999999999999,-0.32486,-0.002169,0.0008960000000000001,0.00016,-33.369999,-22.370001000000002,-21.870001000000002,3b
2019-07-15_184203:840,-0.381805,-0.010651,-0.323334,-0.001772,0.0008960000000000001,7.000000000000001e-06,-33.369999,-22.370001000000002,-21.870001000000002,3b
2019-07-15_184203:860,-0.38385,-0.008118,-0.324371,-0.0015279999999999998,0.001628,0.000343,-33.369999,-22.370001000000002,-21.870001000000002,3b
2019-07-15_184203:880,-0.380798,-0.008118,-0.326385,-0.0018030000000000001,0.001994,0.000496,-33.0,-22.0,-21.059998999999998,3b
2019-07-15_184203:900,-0.377228,-0.006592,-0.323853,-0.0022600000000000003,0.001628,0.000923,-33.0,-22.0,-21.059998999999998,3b
2019-07-15_184203:920,-0.377747,-0.0055850000000000006,-0.32486,-0.0029010000000000004,0.0014759999999999999,0.001258,-33.75,-22.0,-21.059998999999998,3b
2019-07-15_184203:940,-0.378265,-0.007111,-0.323853,-0.003512,0.001628,0.001167,-33.75,-22.0,-21.059998999999998,3b
2019-07-15_184203:960,-0.380798,-0.008636,-0.324371,-0.003939,0.0016589999999999999,0.001228,-33.75,-22.0,-21.059998999999998,3b
2019-07-15_184203:980,-0.374695,-0.011169,-0.32486,-0.004152,0.0017809999999999998,0.0008619999999999999,-33.0,-22.370001000000002,-21.870001000000002,3b
2019-07-15_184204:000,-0.374695,-0.009125,-0.322845,-0.004336,0.001415,0.001381,-33.0,-22.370001000000002,-21.870001000000002,3b
2019-07-15_184204:020,-0.374176,-0.011169,-0.322327,-0.004213000000000001,0.0008039999999999999,0.001777,-33.0,-21.559998999999998,-21.559998999999998,3b
2019-07-15_184204:040,-0.376221,-0.012177,-0.322845,-0.004213000000000001,0.00022400000000000002,0.000831,-33.0,-21.559998999999998,-21.559998999999998,3b
2019-07-15_184204:060,-0.38028,-0.012695,-0.325378,-0.003573,0.000407,-5.4000000000000005e-05,-33.0,-21.559998999999998,-21.559998999999998,3b
2019-07-15_184204:080,-0.377228,-0.013213999999999998,-0.325378,-0.0033280000000000002,0.000682,0.000129,-34.060001,-22.0,-20.75,3b
2019-07-15_184204:100,-0.376221,-0.012695,-0.323334,-0.003054,0.000407,0.000831,-34.060001,-22.0,-20.75,3b
2019-07-15_184204:120,-0.374176,-0.011687999999999999,-0.32486,-0.002932,0.00016299999999999998,0.000831,-33.369999,-22.370001000000002,-22.370001000000002,3b
2019-07-15_184204:140,-0.378754,-0.011687999999999999,-0.325897,-0.002779,0.000621,0.000526,-33.369999,-22.370001000000002,-22.370001000000002,3b
2019-07-15_184204:160,-0.379791,-0.011687999999999999,-0.325897,-0.003176,0.001292,0.00028199999999999997,-33.369999,-22.370001000000002,-22.370001000000002,3b
2019-07-15_184204:180,-0.374695,-0.012177,-0.327423,-0.0032979999999999997,0.001537,0.000526,-33.75,-22.370001000000002,-20.75,3b
2019-07-15_184204:200,-0.37674,-0.012695,-0.325378,-0.0033280000000000002,0.001598,0.000587,-33.75,-22.370001000000002,-20.75,3b
2019-07-15_184204:220,-0.376221,-0.013702,-0.327423,-0.003664,0.001964,0.00016,-33.75,-21.559998999999998,-21.559998999999998,3b
2019-07-15_184204:240,-0.375702,-0.014740000000000001,-0.32995599999999997,-0.003573,0.0017809999999999998,-0.000389,-33.75,-21.559998999999998,-21.559998999999998,3b
2019-07-15_184204:260,-0.38028,-0.014740000000000001,-0.32995599999999997,-0.003512,0.002696,-0.0011220000000000002,-33.75,-21.559998999999998,-21.559998999999998,3b
2019-07-15_184204:280,-0.382324,-0.014740000000000001,-0.330963,-0.003664,0.002971,-0.001458,-33.369999,-21.559998999999998,-21.559998999999998,3b
2019-07-15_184204:300,-0.381317,-0.015747,-0.329437,-0.0037560000000000002,0.00471,-0.0019149999999999998,-33.369999,-21.559998999999998,-21.559998999999998,3b
2019-07-15_184204:320,-0.379791,-0.015228,-0.328949,-0.0036950000000000004,0.005351,-0.002434,-32.560001,-22.370001000000002,-21.870001000000002,3b
2019-07-15_184204:340,-0.377747,-0.014221000000000001,-0.327911,-0.002932,0.005961999999999999,-0.0032890000000000003,-32.560001,-22.370001000000002,-21.870001000000002,3b
2019-07-15_184204:360,-0.384857,-0.012177,-0.328949,-0.002443,0.006358,-0.002983,-32.560001,-22.370001000000002,-21.870001000000002,3b
2019-07-15_184204:380,-0.394012,-0.009644,-0.325897,-0.002382,0.007488,-0.0029219999999999997,-33.0,-22.370001000000002,-21.870001000000002,3b
2019-07-15_184204:400,-0.386383,-0.007599,-0.326904,-0.002993,0.010356,-0.0029219999999999997,-33.0,-22.370001000000002,-21.870001000000002,3b
2019-07-15_184204:420,-0.378265,-0.0055850000000000006,-0.326904,-0.003176,0.010722,-0.00277,-33.0,-22.370001000000002,-21.870001000000002,3b
2019-07-15_184204:440,-0.36911,-0.0055850000000000006,-0.324371,-0.004091,0.009013,-0.003167,-32.560001,-22.370001000000002,-22.370001000000002,3b
2019-07-15_184204:460,-0.365021,-0.006592,-0.318756,-0.004336,0.006297,-0.002434,-32.560001,-22.370001000000002,-22.370001000000002,3b
2019-07-15_184204:480,-0.376221,-0.009125,-0.315704,-0.004,0.004161,-0.001702,-33.369999,-22.370001000000002,-19.559998999999998,3b
2019-07-15_184204:500,-0.379272,-0.008118,-0.315704,-0.003512,0.003307,-0.001183,-33.369999,-22.370001000000002,-19.559998999999998,3b
2019-07-15_184204:520,-0.378265,-0.008636,-0.316742,-0.00339,0.002971,-0.000908,-33.369999,-22.75,-21.059998999999998,3b
2019-07-15_184204:540,-0.375214,-0.008636,-0.316742,-0.0029010000000000004,0.0010789999999999999,0.000129,-33.369999,-22.75,-21.059998999999998,3b
2019-07-15_184204:560,-0.378754,-0.009644,-0.315704,-0.002718,7.2e-05,0.000648,-33.369999,-22.75,-21.059998999999998,3b
2019-07-15_184204:580,-0.383331,-0.009125,-0.31723,-0.002657,-0.000264,0.0007700000000000001,-33.369999,-22.370001000000002,-20.75,3b
2019-07-15_184204:600,-0.383331,-0.010162000000000001,-0.319275,-0.0025960000000000002,-0.000325,0.000587,-33.369999,-22.370001000000002,-20.75,3b
2019-07-15_184204:620,-0.385376,-0.009125,-0.319794,-0.0025960000000000002,-0.000508,0.000648,-34.060001,-22.75,-20.75,3b
2019-07-15_184204:640,-0.397064,-0.010162000000000001,-0.318756,-0.002199,0.001537,0.001106,-34.060001,-22.75,-20.75,3b
2019-07-15_184204:660,-0.381805,-0.009644,-0.320282,-0.001864,0.002055,0.001167,-34.060001,-22.75,-20.75,3b
2019-07-15_184204:680,-0.382812,-0.009125,-0.321808,-0.001864,0.002177,0.001167,-33.75,-22.370001000000002,-21.559998999999998,3b
2019-07-15_184204:700,-0.380798,-0.008118,-0.319275,-0.001925,0.002055,0.0008619999999999999,-33.75,-22.370001000000002,-21.559998999999998,3b
2019-07-15_184204:720,-0.384338,-0.006592,-0.318268,-0.001864,0.001994,0.000831,-33.75,-22.370001000000002,-21.559998999999998,3b
2019-07-15_184204:740,-0.385864,-0.0055850000000000006,-0.315704,-0.0028399999999999996,0.002696,0.001381,-33.0,-23.059998999999998,-20.75,3b
2019-07-15_184204:760,-0.38739,-0.006072999999999999,-0.318756,-0.0033280000000000002,0.003032,0.000923,-33.0,-23.059998999999998,-20.75,3b
2019-07-15_184204:780,-0.385376,-0.0055850000000000006,-0.320282,-0.004275,0.003825,0.000404,-33.75,-23.059998999999998,-21.559998999999998,3b
2019-07-15_184204:800,-0.38739,-0.008118,-0.316742,-0.004824,0.005016,0.000496,-33.75,-23.059998999999998,-21.559998999999998,3b
2019-07-15_184204:820,-0.384857,-0.009644,-0.318268,-0.005007,0.005351,0.000404,-33.0,-22.370001000000002,-21.870001000000002,3b
2019-07-15_184204:840,-0.385376,-0.009644,-0.31723,-0.004549,0.005351,0.000587,-33.0,-22.370001000000002,-21.870001000000002,3b
2019-07-15_184204:860,-0.383331,-0.011169,-0.315216,-0.004091,0.005351,0.000343,-33.0,-22.370001000000002,-21.870001000000002,3b
2019-07-15_184204:880,-0.386902,-0.010651,-0.315216,-0.003878,0.005229,0.00016,-32.560001,-22.0,-20.370001000000002,3b
2019-07-15_184204:900,-0.385864,-0.009125,-0.31369,-0.003237,0.005168,0.001716,-32.560001,-22.0,-20.370001000000002,3b
2019-07-15_184204:920,-0.382812,-0.007599,-0.311127,-0.003176,0.005016,0.001564,-32.560001,-22.0,-20.370001000000002,3b
2019-07-15_184204:940,-0.384857,-0.007599,-0.311646,-0.0033280000000000002,0.004222,0.000221,-34.060001,-23.059998999999998,-21.559998999999998,3b
2019-07-15_184204:960,-0.38385,-0.007599,-0.312164,-0.0032979999999999997,0.003764,6.8e-05,-34.060001,-23.059998999999998,-21.559998999999998,3b
2019-07-15_184204:980,-0.383331,-0.008636,-0.311127,-0.0033280000000000002,0.00349,0.00016,-34.5,-22.370001000000002,-20.370001000000002,3b
2019-07-15_184205:000,-0.381805,-0.009644,-0.308594,-0.00339,0.002788,0.000221,-34.5,-22.370001000000002,-20.370001000000002,3b
2019-07-15_184205:020,-0.382324,-0.010162000000000001,-0.309113,-0.002932,0.00172,0.00028199999999999997,-33.75,-22.0,-20.75,3b
2019-07-15_184205:040,-0.38385,-0.009125,-0.311127,-0.002779,0.0010789999999999999,0.00028199999999999997,-33.75,-22.0,-20.75,3b
2019-07-15_184205:060,-0.388916,-0.008118,-0.311646,-0.0028399999999999996,0.0008039999999999999,0.000404,-33.75,-22.0,-20.75,3b
2019-07-15_184205:080,-0.391479,-0.006592,-0.315216,-0.002779,0.000743,0.000526,-34.060001,-22.75,-20.370001000000002,3b
2019-07-15_184205:100,-0.391968,-0.007111,-0.312653,-0.003237,0.00114,0.001106,-34.060001,-22.75,-20.370001000000002,3b
2019-07-15_184205:120,-0.393494,-0.007599,-0.312164,-0.0033280000000000002,0.001415,0.000984,-34.060001,-22.75,-20.370001000000002,3b
2019-07-15_184205:140,-0.390442,-0.008636,-0.312164,-0.0036950000000000004,0.002177,0.000923,-34.060001,-22.75,-20.370001000000002,3b
2019-07-15_184205:160,-0.387909,-0.009644,-0.311127,-0.0036950000000000004,0.002361,0.001106,-34.060001,-22.75,-20.370001000000002,3b
2019-07-15_184205:180,-0.384857,-0.012695,-0.312164,-0.003939,0.002177,0.0007700000000000001,-32.560001,-22.370001000000002,-21.059998999999998,3b
2019-07-15_184205:200,-0.385864,-0.010651,-0.309113,-0.003878,0.001842,0.000526,-32.560001,-22.370001000000002,-21.059998999999998,3b
2019-07-15_184205:220,-0.385864,-0.010651,-0.311127,-0.0034509999999999996,0.0016589999999999999,0.000831,-33.75,-22.0,-20.75,3b
2019-07-15_184205:240,-0.386902,-0.009644,-0.312653,-0.00339,0.001415,0.000648,-33.75,-22.0,-20.75,3b
2019-07-15_184205:260,-0.388428,-0.008118,-0.311646,-0.003573,0.0014759999999999999,0.000648,-33.75,-22.0,-20.75,3b
2019-07-15_184205:280,-0.388916,-0.010162000000000001,-0.312653,-0.0033280000000000002,0.001628,0.001045,-34.060001,-22.370001000000002,-20.370001000000002,3b
2019-07-15_184205:300,-0.386383,-0.010651,-0.310638,-0.0034509999999999996,0.0014759999999999999,0.000923,-34.060001,-22.370001000000002,-20.370001000000002,3b
2019-07-15_184205:320,-0.38385,-0.010651,-0.309601,-0.0034509999999999996,0.001537,0.000923,-33.75,-22.75,-19.870001000000002,3b
2019-07-15_184205:340,-0.38385,-0.010651,-0.309601,-0.0033280000000000002,0.00114,0.0007700000000000001,-33.75,-22.75,-19.870001000000002,3b
2019-07-15_184205:360,-0.381317,-0.011169,-0.312164,-0.0033280000000000002,0.000468,0.000465,-33.75,-22.75,-19.870001000000002,3b
2019-07-15_184205:380,-0.381805,-0.011687999999999999,-0.313171,-0.0031149999999999997,-0.000172,0.000404,-33.369999,-22.370001000000002,-20.370001000000002,3b
2019-07-15_184205:400,-0.384338,-0.012695,-0.312653,-0.002993,-0.001179,0.00028199999999999997,-33.369999,-22.370001000000002,-20.370001000000002,3b
2019-07-15_184205:420,-0.387909,-0.011169,-0.31369,-0.002657,-0.001454,0.000221,-33.369999,-22.370001000000002,-20.370001000000002,3b
2019-07-15_184205:440,-0.388916,-0.011169,-0.315216,-0.002657,-0.001057,0.000404,-33.75,-23.5,-20.75,3b
2019-07-15_184205:460,-0.391479,-0.009125,-0.316223,-0.002657,-0.00044699999999999997,0.000465,-33.75,-23.5,-20.75,3b
2019-07-15_184205:480,-0.391479,-0.010651,-0.318268,-0.003054,0.000285,0.000465,-34.060001,-21.559998999999998,-19.559998999999998,3b
2019-07-15_184205:500,-0.388916,-0.011687999999999999,-0.31723,-0.00339,0.0008960000000000001,0.000465,-34.060001,-21.559998999999998,-19.559998999999998,3b
2019-07-15_184205:520,-0.385864,-0.010651,-0.316223,-0.003512,0.001201,0.000496,-33.75,-22.0,-20.370001000000002,3b
2019-07-15_184205:540,-0.38385,-0.012177,-0.315216,-0.0036340000000000005,0.001353,0.000496,-33.75,-22.0,-20.370001000000002,3b
2019-07-15_184205:560,-0.38385,-0.013213999999999998,-0.315216,-0.00339,0.000865,0.000465,-33.75,-22.0,-20.370001000000002,3b
2019-07-15_184205:580,-0.384338,-0.012177,-0.314178,-0.003512,0.000743,0.000496,-33.75,-22.0,-21.559998999999998,3b
2019-07-15_184205:600,-0.384338,-0.011169,-0.313171,-0.003512,0.000468,0.000404,-33.75,-22.0,-21.559998999999998,3b
2019-07-15_184205:620,-0.385864,-0.012695,-0.315216,-0.003664,0.000499,0.000465,-33.75,-22.0,-21.559998999999998,3b
2019-07-15_184205:640,-0.385376,-0.013213999999999998,-0.316223,-0.0034509999999999996,0.000346,0.000343,-35.25,-22.75,-20.370001000000002,3b
2019-07-15_184205:660,-0.386383,-0.012695,-0.31723,-0.0036340000000000005,0.00056,0.000343,-35.25,-22.75,-20.370001000000002,3b
2019-07-15_184205:680,-0.386383,-0.010651,-0.316742,-0.0034509999999999996,0.000743,0.000496,-33.75,-21.559998999999998,-20.75,3b
2019-07-15_184205:700,-0.384857,-0.012177,-0.31723,-0.003573,0.001018,6.8e-05,-33.75,-21.559998999999998,-20.75,3b
2019-07-15_184205:720,-0.386902,-0.010651,-0.318268,-0.0036340000000000005,0.001201,6.8e-05,-33.75,-21.559998999999998,-20.75,3b
2019-07-15_184205:740,-0.388916,-0.011687999999999999,-0.316223,-0.003817,0.001628,0.001167,-33.75,-22.0,-21.870001000000002,3b
2019-07-15_184205:760,-0.386383,-0.011687999999999999,-0.31723,-0.0037560000000000002,0.001994,0.000496,-33.75,-22.0,-21.870001000000002,3b
2019-07-15_184205:780,-0.382324,-0.012177,-0.31723,-0.004152,0.001964,-0.00011499999999999999,-33.369999,-22.0,-21.059998999999998,3b
2019-07-15_184205:800,-0.379791,-0.014221000000000001,-0.316742,-0.0037560000000000002,0.001598,-0.000573,-33.369999,-22.0,-21.059998999999998,3b
2019-07-15_184205:820,-0.381317,-0.012695,-0.31723,-0.003512,0.0012619999999999999,-0.000634,-33.0,-22.0,-20.75,3b
2019-07-15_184205:840,-0.38385,-0.013213999999999998,-0.317749,-0.0029010000000000004,0.0010789999999999999,-0.00011499999999999999,-33.0,-22.0,-20.75,3b
2019-07-15_184205:860,-0.385864,-0.012177,-0.318756,-0.002382,0.001292,-0.00011499999999999999,-33.0,-22.0,-20.75,3b
2019-07-15_184205:880,-0.384338,-0.012177,-0.318756,-0.002199,0.001537,6.8e-05,-33.369999,-22.75,-19.870001000000002,3b
2019-07-15_184205:900,-0.382324,-0.013213999999999998,-0.316742,-0.0020469999999999998,0.001292,0.000343,-33.369999,-22.75,-19.870001000000002,3b
2019-07-15_184205:920,-0.384857,-0.011169,-0.315704,-0.002169,0.0012619999999999999,-5.4000000000000005e-05,-33.369999,-22.75,-19.870001000000002,3b
2019-07-15_184205:940,-0.38028,-0.010162000000000001,-0.316223,-0.0022600000000000003,0.000865,6.8e-05,-33.75,-22.75,-20.75,3b
2019-07-15_184205:960,-0.379791,-0.010162000000000001,-0.315704,-0.0025960000000000002,0.00022400000000000002,-0.00023700000000000001,-33.75,-22.75,-20.75,3b
2019-07-15_184205:980,-0.384857,-0.009644,-0.31723,-0.002657,-0.00044699999999999997,-5.4000000000000005e-05,-33.369999,-22.75,-20.370001000000002,3b
2019-07-15_184206:000,-0.380798,-0.010651,-0.315216,-0.003176,-0.0007830000000000001,0.000496,-33.369999,-22.75,-20.370001000000002,3b
2019-07-15_184206:020,-0.379272,-0.011687999999999999,-0.315704,-0.003176,-0.001057,0.000923,-33.369999,-22.75,-20.370001000000002,3b
2019-07-15_184206:040,-0.375214,-0.011687999999999999,-0.318756,-0.0031149999999999997,-0.001912,0.000404,-33.75,-22.370001000000002,-19.559998999999998,3b
2019-07-15_184206:060,-0.375702,-0.013702,-0.320282,-0.0028399999999999996,-0.003163,0.001228,-33.75,-22.370001000000002,-19.559998999999998,3b
2019-07-15_184206:080,-0.382812,-0.014221000000000001,-0.319794,-0.002199,-0.0039570000000000004,0.001503,-32.560001,-22.370001000000002,-20.75,3b
2019-07-15_184206:100,-0.392487,-0.013702,-0.319794,-0.001772,-0.002583,0.000984,-32.560001,-22.370001000000002,-20.75,3b
2019-07-15_184206:120,-0.390961,-0.012695,-0.322845,-0.0017109999999999998,-0.0007830000000000001,0.000587,-32.560001,-22.370001000000002,-20.75,3b
