timestamp,AccX,AccY,AccZ,GyroX,GyroY,GyroZ,MagX,MagY,MagZ,Activity
2019-07-15_143702:300,-0.382324,-0.014221000000000001,-0.31723,-0.007051999999999999,0.001353,0.0037,-39.25,8.25,-12.75,2b
2019-07-15_143702:320,-0.355896,-0.014740000000000001,-0.324371,-0.007448000000000001,0.001018,0.003181,-39.25,8.25,-12.75,2b
2019-07-15_143702:340,-0.399109,-0.016753999999999998,-0.32132,-0.007448000000000001,-0.00124,0.004371,-39.25,8.25,-12.75,2b
2019-07-15_143702:360,-0.396057,-0.017273,-0.31369,-0.006869,1.1e-05,0.004432,-39.68,8.68,-12.25,2b
2019-07-15_143702:380,-0.40774499999999997,-0.016266,-0.314697,-0.006197,0.0016589999999999999,0.002754,-39.68,8.68,-12.25,2b
2019-07-15_143702:400,-0.393005,-0.01828,-0.308075,-0.005282,0.004833,0.0021739999999999997,-39.68,8.25,-12.75,2b
2019-07-15_143702:420,-0.377228,-0.01828,-0.308594,-0.004732,0.006023,0.004158,-39.68,8.25,-12.75,2b
2019-07-15_143702:440,-0.36706500000000003,-0.020325,-0.31369,-0.005068,0.004619,0.006416,-39.68,8.25,-12.75,2b
2019-07-15_143702:460,-0.36706500000000003,-0.025421,-0.315216,-0.005068,0.0019030000000000002,0.006294,-38.5,9.5,-12.0,2b
2019-07-15_143702:480,-0.381805,-0.024902,-0.316742,-0.004946,7.2e-05,0.003578,-38.5,9.5,-12.0,2b
2019-07-15_143702:500,-0.389435,-0.025908999999999998,-0.318268,-0.004213000000000001,-0.000172,0.001991,-39.25,9.06,-12.75,2b
2019-07-15_143702:520,-0.389435,-0.026917,-0.32132,-0.003512,0.00056,-0.000176,-39.25,9.06,-12.75,2b
2019-07-15_143702:540,-0.391479,-0.024384,-0.322845,-0.002779,0.001537,-0.0017629999999999998,-39.25,9.06,-12.75,2b
2019-07-15_143702:560,-0.389435,-0.022369,-0.319794,-0.0017109999999999998,0.003124,-0.001458,-39.25,9.06,-14.0,2b
2019-07-15_143702:580,-0.387909,-0.021851,-0.31723,-0.00107,0.004161,-0.000267,-39.25,9.06,-14.0,2b
2019-07-15_143702:600,-0.382324,-0.016266,-0.313171,-0.0006730000000000001,0.00471,-0.000267,-38.869999,9.5,-12.75,2b
2019-07-15_143702:620,-0.374695,-0.013702,-0.313171,-0.0006730000000000001,0.0042829999999999995,-0.000176,-38.869999,9.5,-12.75,2b
2019-07-15_143702:640,-0.383331,-0.011687999999999999,-0.312653,-0.000734,0.002788,0.000526,-38.869999,9.5,-12.75,2b
2019-07-15_143702:660,-0.382812,-0.006072999999999999,-0.311646,-0.001009,0.002635,0.000404,-39.68,9.5,-12.0,2b
2019-07-15_143702:680,-0.387909,-0.006072999999999999,-0.309113,-0.002718,0.002635,0.0055,-39.68,9.5,-12.0,2b
2019-07-15_143702:700,-0.40063499999999996,-0.008636,-0.308075,-0.00461,0.00349,0.010414,-40.0,8.25,-12.25,2b
2019-07-15_143702:720,-0.393005,-0.021332,-0.305054,-0.006014,0.003093,0.011207,-40.0,8.25,-12.25,2b
2019-07-15_143702:740,-0.37674,-0.023895,-0.307068,-0.007326000000000001,0.003124,0.010414,-40.0,8.25,-12.25,2b
2019-07-15_143702:760,-0.374695,-0.027435,-0.307068,-0.007998,0.001842,0.010657999999999999,-39.25,9.5,-12.75,2b
2019-07-15_143702:780,-0.377747,-0.029968,-0.307068,-0.009004999999999999,-0.000233,0.009590000000000001,-39.25,9.5,-12.75,2b
2019-07-15_143702:800,-0.379791,-0.031494,-0.312653,-0.009188,-0.0018510000000000002,0.006691,-39.25,10.18,-13.06,2b
2019-07-15_143702:820,-0.385376,-0.030487,-0.315216,-0.009585,-0.0034990000000000004,0.004432,-39.25,10.18,-13.06,2b
2019-07-15_143702:840,-0.387909,-0.030487,-0.311646,-0.009646,-0.003285,0.003242,-39.25,10.18,-13.06,2b
2019-07-15_143702:860,-0.38739,-0.031494,-0.307587,-0.009463,-0.003773,0.002845,-38.869999,9.75,-12.75,2b
2019-07-15_143702:880,-0.378754,-0.025908999999999998,-0.307587,-0.008791,-0.005086,0.002754,-38.869999,9.75,-12.75,2b
2019-07-15_143702:900,-0.379791,-0.022858,-0.314697,-0.008394,-0.006947,0.001716,-39.25,9.5,-13.06,2b
2019-07-15_143702:920,-0.374695,-0.019806,-0.310638,-0.007876000000000001,-0.008626,0.000221,-39.25,9.5,-13.06,2b
2019-07-15_143702:940,-0.374176,-0.012695,-0.312164,-0.007051999999999999,-0.010213,7.000000000000001e-06,-39.25,9.5,-13.06,2b
2019-07-15_143702:960,-0.379791,-0.006592,-0.314178,-0.006411,-0.011189,0.000404,-38.5,11.0,-13.06,2b
2019-07-15_143702:980,-0.37112399999999995,-0.004547,-0.318268,-0.007326000000000001,-0.010854,0.002388,-38.5,11.0,-13.06,2b
2019-07-15_143703:000,-0.36044299999999996,-0.004547,-0.325897,-0.008272,-0.010457,0.00489,-38.18,9.75,-12.75,2b
2019-07-15_143703:020,-0.359955,-0.006072999999999999,-0.327911,-0.009737,-0.010731000000000001,0.0060799999999999995,-38.18,9.75,-12.75,2b
2019-07-15_143703:040,-0.364532,-0.011169,-0.33758499999999997,-0.010775,-0.010487,0.0061719999999999995,-38.18,9.75,-12.75,2b
2019-07-15_143703:060,-0.368591,-0.014221000000000001,-0.3396,-0.01111,-0.009724,0.004493,-38.869999,10.56,-14.68,2b
2019-07-15_143703:080,-0.381805,-0.019318000000000002,-0.34317,-0.011262999999999999,-0.007069,0.003517,-38.869999,10.56,-14.68,2b
2019-07-15_143703:100,-0.384338,-0.019806,-0.34317,-0.010775,-0.00475,0.004615,-38.18,9.75,-14.68,2b
2019-07-15_143703:120,-0.394531,-0.019318000000000002,-0.34063699999999997,-0.010714,-0.00179,0.005409000000000001,-38.18,9.75,-14.68,2b
2019-07-15_143703:140,-0.393494,-0.019806,-0.341125,-0.010988,0.001292,0.0055,-38.18,9.75,-14.68,2b
2019-07-15_143703:160,-0.38739,-0.023375999999999997,-0.335022,-0.010865999999999999,0.003703,0.005745,-38.5,10.56,-14.68,2b
2019-07-15_143703:180,-0.386383,-0.025421,-0.332489,-0.010775,0.0052899999999999996,0.005043,-38.5,10.56,-14.68,2b
2019-07-15_143703:200,-0.38385,-0.032013,-0.322845,-0.010317,0.006693999999999999,0.003975,-38.5,10.18,-14.68,2b
2019-07-15_143703:220,-0.380798,-0.034058,-0.323853,-0.009401000000000001,0.006816,0.00251,-38.5,10.18,-14.68,2b
2019-07-15_143703:240,-0.38028,-0.036072,-0.32132,-0.008181,0.006633,0.000343,-38.5,10.18,-14.68,2b
2019-07-15_143703:260,-0.382812,-0.036591000000000005,-0.322327,-0.006745999999999999,0.005961999999999999,-0.000267,-37.75,10.56,-15.06,2b
2019-07-15_143703:280,-0.389954,-0.032013,-0.315216,-0.005343,0.006633,-0.0009689999999999999,-37.75,10.56,-15.06,2b
2019-07-15_143703:300,-0.389954,-0.031006,-0.315216,-0.004427,0.007365000000000001,-0.00216,-38.18,10.18,-14.25,2b
2019-07-15_143703:320,-0.380798,-0.025908999999999998,-0.312653,-0.00403,0.007823,-0.003624,-38.18,10.18,-14.25,2b
2019-07-15_143703:340,-0.375214,-0.025421,-0.313171,-0.0036340000000000005,0.006358,-0.004418,-38.18,10.18,-14.25,2b
2019-07-15_143703:360,-0.375214,-0.021332,-0.316223,-0.0033280000000000002,0.004649,-0.0033799999999999998,-38.5,11.0,-14.25,2b
2019-07-15_143703:380,-0.376221,-0.023375999999999997,-0.315216,-0.002535,0.00349,-0.003899,-38.5,11.0,-14.25,2b
2019-07-15_143703:400,-0.378265,-0.020325,-0.317749,-0.001375,0.002788,-0.005364,-39.25,10.56,-14.68,2b
2019-07-15_143703:420,-0.377747,-0.017273,-0.32132,-0.000124,0.002574,-0.004631000000000001,-39.25,10.56,-14.68,2b
2019-07-15_143703:440,-0.372162,-0.014740000000000001,-0.320282,0.00073,0.001598,-0.003624,-39.25,10.56,-14.68,2b
2019-07-15_143703:460,-0.372162,-0.015228,-0.320801,0.001737,0.0012619999999999999,-0.0028309999999999997,-38.5,9.75,-14.25,2b
2019-07-15_143703:480,-0.378265,-0.011169,-0.323853,0.002073,0.001415,-0.001854,-38.5,9.75,-14.25,2b
2019-07-15_143703:500,-0.378754,-0.009644,-0.323334,0.0017980000000000001,0.002055,-0.000328,-38.5,9.06,-15.06,2b
2019-07-15_143703:520,-0.371643,-0.007599,-0.32132,0.000791,0.0019030000000000002,0.00251,-38.5,9.06,-15.06,2b
2019-07-15_143703:540,-0.370636,-0.009125,-0.322327,-0.000521,0.001415,0.004615,-38.5,9.06,-15.06,2b
2019-07-15_143703:560,-0.377747,-0.011169,-0.323334,-0.0014060000000000001,0.0012619999999999999,0.005012,-38.18,9.75,-13.5,2b
2019-07-15_143703:580,-0.377228,-0.011687999999999999,-0.320282,-0.004213000000000001,0.001353,0.005287,-38.18,9.75,-13.5,2b
2019-07-15_143703:600,-0.378754,-0.012695,-0.322327,-0.005404,0.0012619999999999999,0.005745,-38.869999,10.18,-12.75,2b
2019-07-15_143703:620,-0.377747,-0.015228,-0.321808,-0.008454999999999999,0.000865,0.008154999999999999,-38.869999,10.18,-12.75,2b
2019-07-15_143703:640,-0.375214,-0.021332,-0.32132,-0.009981,0.000621,0.007026,-38.869999,10.18,-12.75,2b
2019-07-15_143703:660,-0.379791,-0.021851,-0.324371,-0.01047,0.00022400000000000002,0.0058969999999999995,-38.869999,10.56,-14.0,2b
2019-07-15_143703:680,-0.378754,-0.023375999999999997,-0.322327,-0.010592,0.000682,0.006141,-38.869999,10.56,-14.0,2b
2019-07-15_143703:700,-0.379272,-0.025421,-0.322327,-0.010256,0.001292,0.0060799999999999995,-38.18,10.18,-13.5,2b
2019-07-15_143703:720,-0.383331,-0.026427999999999997,-0.320801,-0.009706999999999999,0.0023,0.005622,-38.18,10.18,-13.5,2b
2019-07-15_143703:740,-0.381805,-0.026427999999999997,-0.32132,-0.008974,0.003124,0.00489,-38.18,10.18,-13.5,2b
2019-07-15_143703:760,-0.380798,-0.024384,-0.322845,-0.008394,0.003703,0.004371,-38.5,10.56,-15.5,2b
2019-07-15_143703:780,-0.377228,-0.022369,-0.32132,-0.007601,0.00471,0.003578,-38.5,10.56,-15.5,2b
2019-07-15_143703:800,-0.376221,-0.019806,-0.320801,-0.007448000000000001,0.005168,0.003425,-38.18,10.18,-14.68,2b
2019-07-15_143703:820,-0.36654699999999996,-0.020844,-0.310638,-0.006594,0.00349,0.000587,-38.18,10.18,-14.68,2b
2019-07-15_143703:840,-0.37316900000000003,-0.018799,-0.310638,-0.006014,0.002239,-0.00011499999999999999,-38.18,10.18,-14.68,2b
2019-07-15_143703:860,-0.375702,-0.019318000000000002,-0.319794,-0.005922,0.001415,-0.000512,-37.0,11.0,-14.68,2b
2019-07-15_143703:880,-0.382324,-0.022369,-0.325378,-0.005739,0.001537,-0.001458,-37.0,11.0,-14.68,2b
2019-07-15_143703:900,-0.373688,-0.023375999999999997,-0.323853,-0.005404,0.001415,-0.0019760000000000003,-38.18,11.0,-13.5,2b
2019-07-15_143703:920,-0.37316900000000003,-0.021332,-0.325378,-0.004,0.000285,-0.0019149999999999998,-38.18,11.0,-13.5,2b
2019-07-15_143703:940,-0.37316900000000003,-0.01828,-0.325897,-0.003664,-0.000508,-0.001,-38.18,11.0,-13.5,2b
2019-07-15_143703:960,-0.376221,-0.019318000000000002,-0.328949,-0.003573,-0.00044699999999999997,-0.000634,-39.25,11.0,-12.75,2b
2019-07-15_143703:980,-0.374695,-0.018799,-0.327911,-0.0031149999999999997,-0.00011100000000000001,-0.000512,-39.25,11.0,-12.75,2b
2019-07-15_143704:000,-0.371643,-0.01828,-0.329437,-0.0032979999999999997,-5e-05,-0.001183,-38.5,10.56,-13.5,2b
2019-07-15_143704:020,-0.37112399999999995,-0.014221000000000001,-0.330963,-0.0036950000000000004,-0.00063,-0.001519,-38.5,10.56,-13.5,2b
2019-07-15_143704:040,-0.370636,-0.014740000000000001,-0.329437,-0.004213000000000001,-0.0007830000000000001,-0.0012439999999999999,-38.5,10.56,-13.5,2b
2019-07-15_143704:060,-0.373688,-0.015228,-0.32995599999999997,-0.00461,-0.000386,-0.0019149999999999998,-38.5,10.18,-14.25,2b
2019-07-15_143704:080,-0.375214,-0.012177,-0.328949,-0.005678,-0.00011100000000000001,0.00028199999999999997,-38.5,10.18,-14.25,2b
2019-07-15_143704:100,-0.370636,-0.016266,-0.330475,-0.005922,-0.000172,0.000496,-38.18,10.18,-14.25,2b
2019-07-15_143704:120,-0.367584,-0.017273,-0.332489,-0.006533,-0.0009050000000000001,-0.003045,-38.18,10.18,-14.25,2b
2019-07-15_143704:140,-0.36911,-0.014221000000000001,-0.331482,-0.006411,-0.001637,-0.0029219999999999997,-38.18,10.18,-14.25,2b
2019-07-15_143704:160,-0.370636,-0.017273,-0.332489,-0.006014,-0.0018510000000000002,-0.00277,-38.18,9.75,-14.25,2b
2019-07-15_143704:180,-0.37674,-0.017273,-0.330475,-0.004946,-0.001454,-0.002587,-38.18,9.75,-14.25,2b
2019-07-15_143704:200,-0.37674,-0.016753999999999998,-0.330475,-0.004275,-0.001363,-0.002434,-37.75,10.18,-14.25,2b
2019-07-15_143704:220,-0.376221,-0.014740000000000001,-0.330475,-0.003176,-0.000172,-0.001702,-37.75,10.18,-14.25,2b
2019-07-15_143704:240,-0.375702,-0.012177,-0.328949,-0.0025960000000000002,0.000133,-0.0011220000000000002,-37.75,10.18,-14.25,2b
2019-07-15_143704:260,-0.376221,-0.012177,-0.327911,-0.002443,0.000407,-0.0009689999999999999,-38.869999,9.5,-12.75,2b
2019-07-15_143704:280,-0.376221,-0.011169,-0.325378,-0.0029010000000000004,0.000865,-0.0012439999999999999,-38.869999,9.5,-12.75,2b
2019-07-15_143704:300,-0.376221,-0.012177,-0.325378,-0.0029010000000000004,0.00114,-0.0017929999999999999,-38.869999,9.5,-12.75,2b
2019-07-15_143704:320,-0.379791,-0.012695,-0.325378,-0.003237,0.0012619999999999999,-0.0021899999999999997,-38.5,10.56,-14.25,2b
2019-07-15_143704:340,-0.379791,-0.014221000000000001,-0.327911,-0.0032979999999999997,0.001598,-0.003167,-38.5,10.56,-14.25,2b
2019-07-15_143704:360,-0.375214,-0.015747,-0.326385,-0.003176,0.0017809999999999998,-0.004235,-38.18,9.75,-14.68,2b
2019-07-15_143704:380,-0.372162,-0.013702,-0.327423,-0.002718,0.001292,-0.005883,-38.18,9.75,-14.68,2b
2019-07-15_143704:400,-0.37112399999999995,-0.014221000000000001,-0.32843,-0.002535,0.0008960000000000001,-0.005974,-38.5,9.5,-15.5,2b
2019-07-15_143704:420,-0.378265,-0.013213999999999998,-0.329437,-0.001864,0.00114,-0.00689,-38.5,9.5,-15.5,2b
2019-07-15_143704:440,-0.378265,-0.008636,-0.331482,-0.0017109999999999998,0.002055,-0.007347,-38.5,9.5,-15.5,2b
2019-07-15_143704:460,-0.377228,-0.0025329999999999997,-0.330475,-0.0018030000000000001,0.002574,-0.006951000000000001,-37.369999,9.5,-15.06,2b
2019-07-15_143704:480,-0.374176,-0.002014,-0.327911,-0.002199,0.003093,-0.006096,-37.369999,9.5,-15.06,2b
2019-07-15_143704:500,-0.36911,0.0,-0.32843,-0.002321,0.0029100000000000003,-0.005822,-37.369999,9.5,-15.06,2b
2019-07-15_143704:520,-0.366058,-0.001495,-0.326904,-0.0022600000000000003,0.002239,-0.00515,-38.18,10.18,-14.68,2b
2019-07-15_143704:540,-0.368073,0.001495,-0.327911,-0.002169,0.001292,-0.0037159999999999997,-38.18,10.18,-14.68,2b
2019-07-15_143704:560,-0.36911,0.0025329999999999997,-0.32486,-0.002199,0.001018,-0.0032890000000000003,-37.75,8.68,-14.68,2b
2019-07-15_143704:580,-0.368073,0.0035399999999999997,-0.32843,-0.002657,0.0008960000000000001,-0.002037,-37.75,8.68,-14.68,2b
2019-07-15_143704:600,-0.367584,0.0025329999999999997,-0.32843,-0.002718,0.00056,-0.0017929999999999999,-37.75,8.68,-14.68,2b
2019-07-15_143704:620,-0.36554000000000003,0.0030210000000000002,-0.330963,-0.0032979999999999997,-0.00063,-0.000512,-38.5,8.25,-14.0,2b
2019-07-15_143704:640,-0.367584,0.002014,-0.330475,-0.0033280000000000002,-0.0007830000000000001,7.000000000000001e-06,-38.5,8.25,-14.0,2b
2019-07-15_143704:660,-0.37112399999999995,0.002014,-0.33197,-0.0037560000000000002,-0.001179,0.000343,-38.18,8.68,-15.06,2b
2019-07-15_143704:680,-0.375214,0.002014,-0.331482,-0.004213000000000001,-0.001302,0.000526,-38.18,8.68,-15.06,2b
2019-07-15_143704:700,-0.374176,-0.001007,-0.33605999999999997,-0.004671,-0.0005690000000000001,0.001045,-38.18,8.68,-15.06,2b
2019-07-15_143704:720,-0.37265,-0.0030210000000000002,-0.334534,-0.00461,7.2e-05,0.0008619999999999999,-38.5,8.25,-15.06,2b
2019-07-15_143704:740,-0.369598,-0.008118,-0.333496,-0.0036950000000000004,0.000865,0.0007700000000000001,-38.5,8.25,-15.06,2b
2019-07-15_143704:760,-0.370636,-0.007111,-0.33197,-0.0034509999999999996,0.0009570000000000001,0.000496,-38.5,9.06,-14.0,2b
2019-07-15_143704:780,-0.37674,-0.005065999999999999,-0.332489,-0.002535,0.001628,0.001258,-38.5,9.06,-14.0,2b
2019-07-15_143704:800,-0.37316900000000003,-0.005065999999999999,-0.333496,-0.0025960000000000002,0.0019030000000000002,0.001503,-38.869999,8.25,-14.68,2b
2019-07-15_143704:820,-0.369598,-0.007599,-0.333496,-0.002657,0.002361,7.000000000000001e-06,-38.869999,8.25,-14.68,2b
2019-07-15_143704:840,-0.367584,-0.005065999999999999,-0.33300799999999997,-0.0025960000000000002,0.002361,-0.001366,-38.869999,8.25,-14.68,2b
2019-07-15_143704:860,-0.372162,-0.006072999999999999,-0.334534,-0.0022600000000000003,0.001994,-0.000573,-38.5,9.06,-15.5,2b
2019-07-15_143704:880,-0.374695,-0.0055850000000000006,-0.331482,-0.002199,0.0023,-0.000725,-38.5,9.06,-15.5,2b
2019-07-15_143704:900,-0.374695,-0.0030210000000000002,-0.333496,-0.001864,0.002757,-0.001366,-38.5,9.06,-15.5,2b
2019-07-15_143704:920,-0.372162,-0.0025329999999999997,-0.332489,-0.0015279999999999998,0.003368,-0.001519,-37.75,8.25,-13.5,2b
2019-07-15_143704:940,-0.37112399999999995,-0.001495,-0.330963,-0.00107,0.003886,-0.0008470000000000001,-37.75,8.25,-13.5,2b
2019-07-15_143704:960,-0.369598,-0.0030210000000000002,-0.331482,-0.0009789999999999998,0.00352,0.000221,-38.18,9.5,-15.06,2b
2019-07-15_143704:980,-0.37112399999999995,-0.0030210000000000002,-0.32843,-0.000796,0.0031850000000000003,0.000648,-38.18,9.5,-15.06,2b
2019-07-15_143705:000,-0.37316900000000003,-0.0035399999999999997,-0.327911,-0.00045999999999999996,0.002757,0.000923,-38.18,9.5,-15.06,2b
2019-07-15_143705:020,-0.375702,-0.006072999999999999,-0.327423,-0.000246,0.002788,0.000709,-38.18,9.06,-12.25,2b
2019-07-15_143705:040,-0.379272,-0.006072999999999999,-0.326904,-6.3e-05,0.003246,0.000709,-38.18,9.06,-12.25,2b
2019-07-15_143705:060,-0.377228,-0.008636,-0.325897,0.000273,0.003764,0.001258,-37.369999,9.06,-14.0,2b
2019-07-15_143705:080,-0.374176,-0.009125,-0.323334,0.000273,0.0041,0.001258,-37.369999,9.06,-14.0,2b
2019-07-15_143705:100,-0.369598,-0.008636,-0.322327,0.000669,0.003825,0.00028199999999999997,-37.369999,9.06,-14.0,2b
2019-07-15_143705:120,-0.36911,-0.0055850000000000006,-0.323334,0.000883,0.003032,-0.000573,-38.5,9.06,-14.68,2b
2019-07-15_143705:140,-0.371643,-0.0025329999999999997,-0.32486,0.000791,0.0024519999999999998,-0.000725,-38.5,9.06,-14.68,2b
2019-07-15_143705:160,-0.37316900000000003,-0.0030210000000000002,-0.32486,0.000273,0.001964,-0.0008470000000000001,-38.5,8.68,-13.5,2b
2019-07-15_143705:180,-0.376221,-0.0030210000000000002,-0.323334,-0.000399,0.001964,-0.001183,-38.5,8.68,-13.5,2b
2019-07-15_143705:200,-0.37674,-0.002014,-0.32486,-0.001314,0.002361,-0.001702,-38.5,8.68,-13.5,2b
2019-07-15_143705:220,-0.376221,-0.0030210000000000002,-0.323853,-0.0022600000000000003,0.0023,-0.0019149999999999998,-37.75,9.06,-14.68,2b
2019-07-15_143705:240,-0.377228,-0.0030210000000000002,-0.323853,-0.002932,0.0023,-0.001519,-37.75,9.06,-14.68,2b
2019-07-15_143705:260,-0.379272,-0.002014,-0.324371,-0.003664,0.002391,-0.001397,-38.869999,9.5,-14.0,2b
2019-07-15_143705:280,-0.375214,-0.0030210000000000002,-0.322845,-0.004213000000000001,0.002635,-0.0010609999999999999,-38.869999,9.5,-14.0,2b
2019-07-15_143705:300,-0.375214,-0.002014,-0.323334,-0.004275,0.002391,-0.0009689999999999999,-38.869999,9.5,-14.0,2b
2019-07-15_143705:320,-0.37674,0.0,-0.322327,-0.00461,0.002055,-0.000176,-38.18,8.68,-14.68,2b
2019-07-15_143705:340,-0.374695,-0.001007,-0.323853,-0.004824,0.00172,0.000709,-38.18,8.68,-14.68,2b
2019-07-15_143705:360,-0.372162,0.000488,-0.32486,-0.005465,0.0017809999999999998,0.00132,-39.25,9.06,-14.0,2b
2019-07-15_143705:380,-0.367584,0.0,-0.323334,-0.005861,0.0014759999999999999,0.0018989999999999999,-39.25,9.06,-14.0,2b
2019-07-15_143705:400,-0.36654699999999996,-0.000488,-0.324371,-0.006594,0.000682,0.002235,-39.25,9.06,-14.0,2b
2019-07-15_143705:420,-0.368591,-0.002014,-0.323334,-0.0069299999999999995,-0.00011100000000000001,0.002235,-38.5,7.56,-14.25,2b
2019-07-15_143705:440,-0.365021,-0.004059,-0.326385,-0.006991,-0.0008439999999999999,0.002449,-38.5,7.56,-14.25,2b
2019-07-15_143705:460,-0.364532,-0.004547,-0.325897,-0.007051999999999999,-0.002034,0.002754,-38.5,8.25,-13.5,2b
2019-07-15_143705:480,-0.369598,-0.0055850000000000006,-0.32486,-0.006533,-0.003285,0.002967,-38.5,8.25,-13.5,2b
2019-07-15_143705:500,-0.375214,-0.0035399999999999997,-0.325378,-0.006411,-0.004231,0.00309,-38.5,8.25,-13.5,2b
2019-07-15_143705:520,-0.382324,-0.0035399999999999997,-0.328949,-0.006594,-0.004018,0.004432,-38.869999,9.06,-14.25,2b
2019-07-15_143705:540,-0.377747,-0.004059,-0.33300799999999997,-0.0069299999999999995,-0.002888,0.005287,-38.869999,9.06,-14.25,2b
2019-07-15_143705:560,-0.373688,-0.0030210000000000002,-0.334015,-0.007448000000000001,-0.00179,0.0043100000000000005,-38.869999,8.68,-14.68,2b
2019-07-15_143705:580,-0.37112399999999995,-0.0055850000000000006,-0.33300799999999997,-0.007998,-0.001393,0.003913000000000001,-38.869999,8.68,-14.68,2b
2019-07-15_143705:600,-0.371643,-0.010162000000000001,-0.33300799999999997,-0.007937,-0.001057,0.004371,-38.869999,8.68,-14.68,2b
2019-07-15_143705:620,-0.372162,-0.010162000000000001,-0.333496,-0.007815,-0.000233,0.003517,-38.5,9.06,-14.25,2b
2019-07-15_143705:640,-0.370636,-0.012177,-0.334015,-0.007051999999999999,0.00016299999999999998,0.002571,-38.5,9.06,-14.25,2b
2019-07-15_143705:660,-0.37011700000000003,-0.013213999999999998,-0.334015,-0.005922,0.000285,0.002113,-38.18,9.5,-14.25,2b
2019-07-15_143705:680,-0.373688,-0.009125,-0.332489,-0.004946,0.000682,0.0018989999999999999,-38.18,9.5,-14.25,2b
2019-07-15_143705:700,-0.37265,-0.007599,-0.33197,-0.004152,0.000865,0.001716,-38.18,9.5,-14.25,2b
2019-07-15_143705:720,-0.372162,-0.007111,-0.33197,-0.0037560000000000002,0.001292,0.001625,-38.18,9.06,-15.06,2b
2019-07-15_143705:740,-0.37011700000000003,-0.007111,-0.332489,-0.003817,0.0014759999999999999,0.001258,-38.18,9.06,-15.06,2b
2019-07-15_143705:760,-0.37011700000000003,-0.006592,-0.33197,-0.0037560000000000002,0.001353,0.000923,-38.18,9.5,-15.06,2b
2019-07-15_143705:780,-0.37265,-0.007111,-0.331482,-0.004,0.001537,0.000709,-38.18,9.5,-15.06,2b
2019-07-15_143705:800,-0.371643,-0.007111,-0.331482,-0.003939,0.0017809999999999998,0.0008619999999999999,-38.18,9.5,-15.06,2b
2019-07-15_143705:820,-0.36911,-0.008118,-0.330963,-0.003817,0.00172,0.0008619999999999999,-38.5,8.25,-14.68,2b
2019-07-15_143705:840,-0.36706500000000003,-0.006592,-0.32995599999999997,-0.003878,0.001598,0.000465,-38.5,8.25,-14.68,2b
2019-07-15_143705:860,-0.368073,-0.007111,-0.330475,-0.003878,0.0010789999999999999,0.000648,-38.5,9.75,-15.06,2b
2019-07-15_143705:880,-0.367584,-0.007111,-0.32995599999999997,-0.003878,0.0010789999999999999,0.000587,-38.5,9.75,-15.06,2b
2019-07-15_143705:900,-0.37011700000000003,-0.008118,-0.331482,-0.0037560000000000002,0.0008039999999999999,-5.4000000000000005e-05,-38.5,9.75,-15.06,2b
2019-07-15_143705:920,-0.368591,-0.008118,-0.33197,-0.0036340000000000005,0.0009570000000000001,-0.000267,-38.5,9.06,-15.06,2b
2019-07-15_143705:940,-0.370636,-0.007599,-0.33300799999999997,-0.0034509999999999996,0.000682,-0.000328,-38.5,9.06,-15.06,2b
2019-07-15_143705:960,-0.371643,-0.007111,-0.333496,-0.002932,0.0009570000000000001,-0.00011499999999999999,-38.18,9.06,-15.5,2b
2019-07-15_143705:980,-0.369598,-0.005065999999999999,-0.331482,-0.002657,0.00114,-0.000267,-38.18,9.06,-15.5,2b
2019-07-15_143706:000,-0.37112399999999995,-0.004059,-0.334015,-0.0025050000000000003,0.0010789999999999999,-0.000389,-38.18,9.06,-15.5,2b
2019-07-15_143706:020,-0.371643,-0.0030210000000000002,-0.33300799999999997,-0.002779,0.001537,-0.000176,-37.75,8.25,-14.68,2b
2019-07-15_143706:040,-0.368591,-0.0025329999999999997,-0.33197,-0.0031149999999999997,0.0017809999999999998,-0.00011499999999999999,-37.75,8.25,-14.68,2b
2019-07-15_143706:060,-0.370636,-0.0035399999999999997,-0.333496,-0.0036340000000000005,0.002055,0.000221,-38.869999,9.06,-15.06,2b
2019-07-15_143706:080,-0.36911,-0.004059,-0.333496,-0.003664,0.002055,0.000221,-38.869999,9.06,-15.06,2b
2019-07-15_143706:100,-0.36911,-0.005065999999999999,-0.334015,-0.003664,0.001994,0.00028199999999999997,-38.869999,9.06,-15.06,2b
2019-07-15_143706:120,-0.369598,-0.005065999999999999,-0.333496,-0.003664,0.002239,0.000709,-37.75,9.5,-15.87,2b
2019-07-15_143706:140,-0.36706500000000003,-0.007599,-0.333496,-0.003664,0.002361,0.0008619999999999999,-37.75,9.5,-15.87,2b
2019-07-15_143706:160,-0.367584,-0.005065999999999999,-0.332489,-0.003817,0.002055,0.0007700000000000001,-38.869999,8.25,-15.5,2b
2019-07-15_143706:180,-0.366058,-0.005065999999999999,-0.33300799999999997,-0.003878,0.002177,0.000648,-38.869999,8.25,-15.5,2b
2019-07-15_143706:200,-0.370636,-0.004547,-0.333496,-0.004,0.001964,0.000526,-38.869999,8.25,-15.5,2b
2019-07-15_143706:220,-0.369598,-0.007111,-0.333496,-0.003878,0.0019030000000000002,0.000831,-37.369999,8.68,-15.5,2b
2019-07-15_143706:240,-0.37112399999999995,-0.007111,-0.332489,-0.003817,0.0023,0.001228,-37.369999,8.68,-15.5,2b
2019-07-15_143706:260,-0.374176,-0.004547,-0.33300799999999997,-0.0037560000000000002,0.002635,0.000984,-38.869999,9.06,-15.5,2b
2019-07-15_143706:280,-0.373688,-0.001495,-0.330475,-0.004213000000000001,0.002788,0.002113,-38.869999,9.06,-15.5,2b
2019-07-15_143706:300,-0.37265,-0.002014,-0.329437,-0.004732,0.002757,0.003425,-38.869999,9.06,-15.5,2b
2019-07-15_143706:320,-0.37011700000000003,-0.006592,-0.330963,-0.005343,0.0029100000000000003,0.002113,-37.75,9.06,-15.5,2b
2019-07-15_143706:340,-0.37112399999999995,-0.0055850000000000006,-0.331482,-0.005922,0.002757,0.001716,-37.75,9.06,-15.5,2b
2019-07-15_143706:360,-0.372162,-0.009644,-0.32995599999999997,-0.005861,0.002635,0.002235,-38.869999,9.5,-14.68,2b
2019-07-15_143706:380,-0.37112399999999995,-0.010162000000000001,-0.32995599999999997,-0.005343,0.0029100000000000003,0.001838,-38.869999,9.5,-14.68,2b
2019-07-15_143706:400,-0.368591,-0.010651,-0.32995599999999997,-0.00461,0.003032,0.001167,-38.869999,9.5,-14.68,2b
2019-07-15_143706:420,-0.371643,-0.008636,-0.329437,-0.0037560000000000002,0.0029100000000000003,0.00132,-38.869999,9.75,-14.68,2b
2019-07-15_143706:440,-0.372162,-0.007111,-0.33197,-0.00339,0.003032,0.001228,-38.869999,9.75,-14.68,2b
2019-07-15_143706:460,-0.37316900000000003,-0.006592,-0.32995599999999997,-0.003054,0.003246,0.001625,-38.5,9.5,-14.68,2b
2019-07-15_143706:480,-0.37265,-0.004547,-0.327911,-0.002932,0.003368,0.001228,-38.5,9.5,-14.68,2b
2019-07-15_143706:500,-0.372162,-0.004547,-0.328949,-0.003054,0.0034289999999999998,0.001045,-38.5,9.5,-14.68,2b
2019-07-15_143706:520,-0.372162,-0.006072999999999999,-0.328949,-0.003237,0.0031850000000000003,0.001167,-38.18,9.75,-16.25,2b
2019-07-15_143706:540,-0.372162,-0.0055850000000000006,-0.32486,-0.003512,0.003124,0.000923,-38.18,9.75,-16.25,2b
2019-07-15_143706:560,-0.372162,-0.006592,-0.326385,-0.003664,0.0029100000000000003,0.000984,-37.75,9.75,-14.25,2b
2019-07-15_143706:580,-0.372162,-0.006072999999999999,-0.32486,-0.003817,0.002635,0.000923,-37.75,9.75,-14.25,2b
2019-07-15_143706:600,-0.36911,-0.007599,-0.325378,-0.0036950000000000004,0.001964,0.000343,-37.75,9.75,-14.25,2b
2019-07-15_143706:620,-0.37112399999999995,-0.006592,-0.32486,-0.003817,0.0016589999999999999,0.000587,-38.18,8.68,-14.68,2b
2019-07-15_143706:640,-0.371643,-0.007599,-0.32486,-0.003664,0.001415,0.001258,-38.18,8.68,-14.68,2b
2019-07-15_143706:660,-0.374176,-0.007111,-0.326385,-0.003878,0.0008960000000000001,0.0008619999999999999,-37.75,9.75,-16.25,2b
2019-07-15_143706:680,-0.375702,-0.006592,-0.326904,-0.00403,0.001201,0.000923,-37.75,9.75,-16.25,2b
2019-07-15_143706:700,-0.374176,-0.006592,-0.328949,-0.004213000000000001,0.001292,0.001167,-37.75,9.75,-16.25,2b
2019-07-15_143706:720,-0.371643,-0.007599,-0.32843,-0.004275,0.001292,0.000984,-38.869999,9.5,-14.68,2b
2019-07-15_143706:740,-0.372162,-0.008118,-0.327423,-0.004427,0.001292,0.000923,-38.869999,9.5,-14.68,2b
2019-07-15_143706:760,-0.372162,-0.008118,-0.327911,-0.004152,0.0008960000000000001,0.000526,-38.18,9.5,-15.5,2b
2019-07-15_143706:780,-0.373688,-0.008118,-0.327423,-0.004152,0.001018,0.000496,-38.18,9.5,-15.5,2b
2019-07-15_143706:800,-0.37265,-0.009125,-0.32995599999999997,-0.003939,0.001018,0.000648,-38.18,9.5,-15.5,2b
2019-07-15_143706:820,-0.372162,-0.008118,-0.329437,-0.003878,0.000865,0.000343,-38.5,9.06,-13.87,2b
2019-07-15_143706:840,-0.37265,-0.006592,-0.32995599999999997,-0.0036340000000000005,0.001018,0.000526,-38.5,9.06,-13.87,2b
2019-07-15_143706:860,-0.37316900000000003,-0.006072999999999999,-0.32995599999999997,-0.0036950000000000004,0.00114,0.000709,-39.25,9.06,-15.87,2b
2019-07-15_143706:880,-0.37316900000000003,-0.006592,-0.32843,-0.0036950000000000004,0.001292,0.000709,-39.25,9.06,-15.87,2b
2019-07-15_143706:900,-0.373688,-0.006072999999999999,-0.330475,-0.003817,0.001292,0.000648,-39.25,9.06,-15.87,2b
2019-07-15_143706:920,-0.37265,-0.006592,-0.329437,-0.004213000000000001,0.0014759999999999999,0.000923,-38.5,9.5,-15.06,2b
2019-07-15_143706:940,-0.37265,-0.006592,-0.32843,-0.004397,0.001353,0.000984,-38.5,9.5,-15.06,2b
2019-07-15_143706:960,-0.37112399999999995,-0.006592,-0.328949,-0.004427,0.001537,0.0007700000000000001,-39.25,9.06,-15.06,2b
2019-07-15_143706:980,-0.37112399999999995,-0.004059,-0.330475,-0.004793,0.001353,0.000709,-39.25,9.06,-15.06,2b
2019-07-15_143707:000,-0.370636,-0.0055850000000000006,-0.330475,-0.004793,0.0008960000000000001,0.000831,-39.25,9.06,-15.06,2b
2019-07-15_143707:020,-0.373688,-0.007111,-0.329437,-0.004946,0.000621,0.000923,-37.75,9.06,-14.25,2b
2019-07-15_143707:040,-0.372162,-0.007111,-0.326904,-0.004793,0.0008039999999999999,0.000709,-37.75,9.06,-14.25,2b
2019-07-15_143707:060,-0.371643,-0.006072999999999999,-0.325378,-0.004549,0.00114,0.000343,-37.75,9.5,-14.68,2b
2019-07-15_143707:080,-0.375702,-0.007111,-0.327911,-0.004336,0.001201,0.0021739999999999997,-37.75,9.5,-14.68,2b
2019-07-15_143707:100,-0.373688,-0.008118,-0.32843,-0.004549,0.001201,0.0026320000000000002,-37.75,9.5,-14.68,2b
2019-07-15_143707:120,-0.37265,-0.006072999999999999,-0.330963,-0.004427,0.0010789999999999999,0.0007700000000000001,-38.18,9.06,-15.5,2b
2019-07-15_143707:140,-0.37265,-0.006592,-0.32843,-0.00461,0.001018,0.001045,-38.18,9.06,-15.5,2b
2019-07-15_143707:160,-0.372162,-0.009644,-0.32843,-0.004488000000000001,0.000865,0.001625,-38.869999,10.18,-15.06,2b
2019-07-15_143707:180,-0.37011700000000003,-0.007599,-0.32843,-0.004397,0.0010789999999999999,0.00028199999999999997,-38.869999,10.18,-15.06,2b
2019-07-15_143707:200,-0.36911,-0.007111,-0.330475,-0.00403,0.0010789999999999999,7.000000000000001e-06,-38.869999,10.18,-15.06,2b
2019-07-15_143707:220,-0.371643,-0.006072999999999999,-0.330475,-0.003939,0.000743,0.000129,-37.369999,9.5,-14.0,2b
2019-07-15_143707:240,-0.37112399999999995,-0.006072999999999999,-0.331482,-0.003664,0.001018,0.00016,-37.369999,9.5,-14.0,2b
2019-07-15_143707:260,-0.373688,-0.006592,-0.332489,-0.003664,0.001201,0.000465,-38.5,8.68,-15.87,2b
2019-07-15_143707:280,-0.375214,-0.0055850000000000006,-0.329437,-0.003817,0.001598,0.000526,-38.5,8.68,-15.87,2b
2019-07-15_143707:300,-0.373688,-0.005065999999999999,-0.330963,-0.003664,0.001964,0.0007700000000000001,-38.5,8.68,-15.87,2b
2019-07-15_143707:320,-0.37112399999999995,-0.007111,-0.33197,-0.0036340000000000005,0.002361,0.0008619999999999999,-38.5,9.75,-14.68,2b
2019-07-15_143707:340,-0.37112399999999995,-0.006592,-0.329437,-0.0036950000000000004,0.002361,0.001381,-38.5,9.75,-14.68,2b
2019-07-15_143707:360,-0.37265,-0.007599,-0.32843,-0.0036950000000000004,0.002177,0.0018989999999999999,-38.18,9.06,-15.06,2b
2019-07-15_143707:380,-0.371643,-0.007599,-0.326904,-0.003878,0.002239,0.001106,-38.18,9.06,-15.06,2b
2019-07-15_143707:400,-0.370636,-0.006592,-0.329437,-0.004,0.002361,0.000984,-38.18,9.06,-15.06,2b
2019-07-15_143707:420,-0.371643,-0.008636,-0.329437,-0.00403,0.0019030000000000002,0.001777,-38.18,9.75,-15.06,2b
2019-07-15_143707:440,-0.37265,-0.009125,-0.329437,-0.004213000000000001,0.00172,0.001716,-38.18,9.75,-15.06,2b
2019-07-15_143707:460,-0.374695,-0.008636,-0.32995599999999997,-0.004213000000000001,0.0019030000000000002,0.001228,-38.869999,9.5,-15.87,2b
2019-07-15_143707:480,-0.370636,-0.009125,-0.326385,-0.004091,0.001994,0.0008619999999999999,-38.869999,9.5,-15.87,2b
2019-07-15_143707:500,-0.37265,-0.009644,-0.327911,-0.004091,0.002116,0.000648,-38.869999,9.5,-15.87,2b
2019-07-15_143707:520,-0.37316900000000003,-0.009125,-0.32843,-0.00403,0.002116,0.000648,-38.869999,9.5,-15.5,2b
2019-07-15_143707:540,-0.372162,-0.009125,-0.328949,-0.00403,0.001994,0.000587,-38.869999,9.5,-15.5,2b
2019-07-15_143707:560,-0.37316900000000003,-0.010651,-0.32995599999999997,-0.003939,0.001994,0.00028199999999999997,-39.68,10.18,-14.25,2b
2019-07-15_143707:580,-0.371643,-0.008636,-0.326385,-0.003573,0.001994,-5.4000000000000005e-05,-39.68,10.18,-14.25,2b
2019-07-15_143707:600,-0.37265,-0.008636,-0.327911,-0.0033280000000000002,0.0017809999999999998,-0.00011499999999999999,-39.68,10.18,-14.25,2b
2019-07-15_143707:620,-0.372162,-0.006072999999999999,-0.326904,-0.003237,0.001994,0.000404,-38.18,10.18,-15.5,2b
2019-07-15_143707:640,-0.37265,-0.006072999999999999,-0.326904,-0.0032979999999999997,0.0019030000000000002,0.000343,-38.18,10.18,-15.5,2b
2019-07-15_143707:660,-0.370636,-0.004547,-0.32843,-0.0036340000000000005,0.001994,-0.000176,-38.5,10.18,-15.5,2b
2019-07-15_143707:680,-0.37112399999999995,-0.0030210000000000002,-0.326904,-0.003939,0.001628,-0.000176,-38.5,10.18,-15.5,2b
2019-07-15_143707:700,-0.375214,-0.005065999999999999,-0.327911,-0.004397,0.001415,0.000221,-38.5,10.18,-15.5,2b
2019-07-15_143707:720,-0.37674,-0.0035399999999999997,-0.32843,-0.004732,0.0016589999999999999,0.000404,-38.5,9.06,-15.06,2b
2019-07-15_143707:740,-0.373688,-0.006072999999999999,-0.328949,-0.0048850000000000005,0.002055,0.0008619999999999999,-38.5,9.06,-15.06,2b
2019-07-15_143707:760,-0.372162,-0.0055850000000000006,-0.32995599999999997,-0.0051600000000000005,0.002177,0.0008619999999999999,-37.75,9.75,-14.68,2b
2019-07-15_143707:780,-0.37316900000000003,-0.006592,-0.32843,-0.0048850000000000005,0.002177,0.000465,-37.75,9.75,-14.68,2b
2019-07-15_143707:800,-0.37265,-0.008636,-0.329437,-0.004488000000000001,0.001842,0.000343,-37.75,9.75,-14.68,2b
2019-07-15_143707:820,-0.374176,-0.007111,-0.32843,-0.00403,0.001964,0.000587,-38.18,9.06,-14.25,2b
2019-07-15_143707:840,-0.375702,-0.008636,-0.327423,-0.003573,0.002055,0.00028199999999999997,-38.18,9.06,-14.25,2b
2019-07-15_143707:860,-0.374695,-0.004547,-0.326385,-0.003512,0.0023,0.0007700000000000001,-38.5,8.68,-15.87,2b
2019-07-15_143707:880,-0.37265,-0.004547,-0.325897,-0.003573,0.002239,0.002113,-38.5,8.68,-15.87,2b
2019-07-15_143707:900,-0.373688,-0.006592,-0.328949,-0.003817,0.0023,0.001106,-38.5,8.68,-15.87,2b
2019-07-15_143707:920,-0.37265,-0.007111,-0.32843,-0.00403,0.002055,-0.00045099999999999996,-38.18,10.18,-14.68,2b
2019-07-15_143707:940,-0.372162,-0.007599,-0.32843,-0.004213000000000001,0.002177,0.00016,-38.18,10.18,-14.68,2b
2019-07-15_143707:960,-0.37316900000000003,-0.009125,-0.32843,-0.004,0.0023,7.000000000000001e-06,-38.869999,9.5,-15.5,2b
2019-07-15_143707:980,-0.374176,-0.011687999999999999,-0.329437,-0.0033280000000000002,0.0024519999999999998,-0.000634,-38.869999,9.5,-15.5,2b
2019-07-15_143708:000,-0.373688,-0.013702,-0.330475,-0.002199,0.002696,-0.0012439999999999999,-38.869999,9.5,-15.5,2b
2019-07-15_143708:020,-0.374176,-0.014740000000000001,-0.327911,-0.0009789999999999998,0.002849,-0.0019149999999999998,-38.18,9.06,-15.87,2b
2019-07-15_143708:040,-0.375702,-0.013213999999999998,-0.326385,-2e-06,0.003246,-0.002495,-38.18,9.06,-15.87,2b
2019-07-15_143708:060,-0.375214,-0.013702,-0.32843,0.0012490000000000001,0.0035810000000000004,-0.0033799999999999998,-38.5,9.75,-14.0,2b
2019-07-15_143708:080,-0.375214,-0.010162000000000001,-0.327423,0.002012,0.003703,-0.004052,-38.5,9.75,-14.0,2b
2019-07-15_143708:100,-0.375702,-0.006072999999999999,-0.327423,0.002653,0.0036420000000000003,-0.004052,-38.5,9.75,-14.0,2b
2019-07-15_143708:120,-0.377228,-0.004547,-0.326385,0.002317,0.0036420000000000003,-0.004113,-38.869999,9.06,-14.0,2b
2019-07-15_143708:140,-0.378754,-0.001007,-0.321808,0.001737,0.0036420000000000003,-0.003624,-38.869999,9.06,-14.0,2b
2019-07-15_143708:160,-0.37674,-0.001007,-0.321808,0.000944,0.0036420000000000003,-0.002373,-38.869999,9.5,-15.06,2b
2019-07-15_143708:180,-0.375702,0.0,-0.319794,-6.3e-05,0.0035810000000000004,-0.001458,-38.869999,9.5,-15.06,2b
2019-07-15_143708:200,-0.375214,0.0,-0.319794,-0.0009789999999999998,0.003368,-0.0013050000000000002,-38.869999,9.5,-15.06,2b
2019-07-15_143708:220,-0.373688,0.0,-0.319275,-0.001986,0.0029100000000000003,-0.000267,-38.18,9.06,-13.5,2b
2019-07-15_143708:240,-0.37316900000000003,0.0,-0.320282,-0.003054,0.002391,0.000587,-38.18,9.06,-13.5,2b
2019-07-15_143708:260,-0.37316900000000003,-0.0030210000000000002,-0.32132,-0.003817,0.001964,0.001045,-38.869999,9.06,-13.5,2b
2019-07-15_143708:280,-0.374695,-0.0035399999999999997,-0.323334,-0.004427,0.001598,0.000709,-38.869999,9.06,-13.5,2b
2019-07-15_143708:300,-0.375702,-0.0055850000000000006,-0.324371,-0.004549,0.001201,0.000526,-38.869999,9.06,-13.5,2b
2019-07-15_143708:320,-0.376221,-0.007111,-0.32486,-0.004732,0.00114,0.000587,-39.25,9.06,-14.25,2b
2019-07-15_143708:340,-0.377228,-0.007111,-0.325378,-0.004488000000000001,0.0010789999999999999,0.000221,-39.25,9.06,-14.25,2b
2019-07-15_143708:360,-0.37674,-0.006592,-0.325897,-0.004427,0.001415,0.000496,-38.5,9.06,-14.68,2b
2019-07-15_143708:380,-0.375702,-0.007111,-0.322327,-0.004091,0.001537,0.000587,-38.5,9.06,-14.68,2b
2019-07-15_143708:400,-0.375214,-0.006592,-0.32486,-0.003664,0.001598,0.000587,-38.5,9.06,-14.68,2b
2019-07-15_143708:420,-0.375702,-0.006592,-0.324371,-0.003664,0.001598,0.000526,-37.75,9.06,-14.68,2b
2019-07-15_143708:440,-0.376221,-0.005065999999999999,-0.324371,-0.0037560000000000002,0.001292,0.0007700000000000001,-37.75,9.06,-14.68,2b
2019-07-15_143708:460,-0.375214,-0.005065999999999999,-0.325897,-0.0036340000000000005,0.001201,0.000587,-38.5,8.25,-13.5,2b
2019-07-15_143708:480,-0.378754,-0.0035399999999999997,-0.329437,-0.003817,0.001018,0.001045,-38.5,8.25,-13.5,2b
2019-07-15_143708:500,-0.377747,-0.0025329999999999997,-0.32843,-0.004213000000000001,0.0012619999999999999,0.001442,-38.5,8.25,-13.5,2b
2019-07-15_143708:520,-0.37011700000000003,-0.0055850000000000006,-0.313171,-0.004824,0.0016589999999999999,0.001503,-38.869999,9.5,-15.5,2b
2019-07-15_143708:540,-0.375214,-0.0055850000000000006,-0.324371,-0.00461,0.0008039999999999999,0.001503,-38.869999,9.5,-15.5,2b
2019-07-15_143708:560,-0.374695,-0.004547,-0.322327,-0.004824,0.000743,0.001655,-39.25,8.25,-15.06,2b
2019-07-15_143708:580,-0.377747,-0.004547,-0.322845,-0.005068,0.001201,0.002113,-39.25,8.25,-15.06,2b
2019-07-15_143708:600,-0.377747,-0.008118,-0.325897,-0.005221,0.0012619999999999999,0.002113,-39.25,8.25,-15.06,2b
2019-07-15_143708:620,-0.377747,-0.007599,-0.324371,-0.005282,0.00172,0.001991,-38.869999,9.75,-14.25,2b
2019-07-15_143708:640,-0.375214,-0.008118,-0.32486,-0.005129,0.0016589999999999999,0.001991,-38.869999,9.75,-14.25,2b
2019-07-15_143708:660,-0.375702,-0.010162000000000001,-0.323853,-0.004946,0.0014759999999999999,0.001777,-39.25,9.06,-15.87,2b
2019-07-15_143708:680,-0.375702,-0.009125,-0.321808,-0.004488000000000001,0.001353,0.001716,-39.25,9.06,-15.87,2b
2019-07-15_143708:700,-0.379272,-0.009644,-0.322327,-0.004336,0.001292,0.002235,-39.25,9.06,-15.87,2b
2019-07-15_143708:720,-0.375214,-0.008636,-0.321808,-0.004091,0.001537,0.0021739999999999997,-38.18,9.5,-14.25,2b
2019-07-15_143708:740,-0.375214,-0.008636,-0.322845,-0.004152,0.0009570000000000001,0.0033640000000000002,-38.18,9.5,-14.25,2b
2019-07-15_143708:760,-0.374695,-0.009644,-0.324371,-0.004091,0.000682,0.003517,-38.5,9.5,-13.87,2b
2019-07-15_143708:780,-0.37265,-0.009125,-0.323853,-0.004549,0.00056,0.0018989999999999999,-38.5,9.5,-13.87,2b
2019-07-15_143708:800,-0.37316900000000003,-0.009125,-0.326904,-0.00461,0.000407,0.001655,-38.5,9.5,-13.87,2b
2019-07-15_143708:820,-0.37265,-0.011169,-0.327911,-0.0048850000000000005,1.1e-05,0.001503,-38.869999,10.18,-14.0,2b
2019-07-15_143708:840,-0.375702,-0.009644,-0.327423,-0.004671,-0.00011100000000000001,0.000648,-38.869999,10.18,-14.0,2b
2019-07-15_143708:860,-0.37674,-0.010162000000000001,-0.327911,-0.004213000000000001,1.1e-05,0.000129,-37.75,8.68,-14.68,2b
2019-07-15_143708:880,-0.377747,-0.010162000000000001,-0.32843,-0.0037560000000000002,0.00056,7.000000000000001e-06,-37.75,8.68,-14.68,2b
2019-07-15_143708:900,-0.376221,-0.009644,-0.32843,-0.0032979999999999997,0.000865,0.000587,-37.75,8.68,-14.68,2b
2019-07-15_143708:920,-0.376221,-0.008118,-0.326385,-0.002993,0.0010789999999999999,0.000984,-38.5,9.5,-14.25,2b
2019-07-15_143708:940,-0.37674,-0.007111,-0.325378,-0.002993,0.001353,0.001045,-38.5,9.5,-14.25,2b
2019-07-15_143708:960,-0.374695,-0.006592,-0.327911,-0.002993,0.001292,0.001228,-38.5,9.5,-13.87,2b
2019-07-15_143708:980,-0.37265,-0.008636,-0.32486,-0.0034509999999999996,0.00114,0.000984,-38.5,9.5,-13.87,2b
2019-07-15_143709:000,-0.375214,-0.009125,-0.32486,-0.0036340000000000005,0.0009570000000000001,0.001167,-38.5,9.5,-13.87,2b
2019-07-15_143709:020,-0.373688,-0.008636,-0.323334,-0.003939,0.0008039999999999999,0.001381,-38.5,8.68,-15.5,2b
2019-07-15_143709:040,-0.37112399999999995,-0.008118,-0.32486,-0.004152,0.000468,0.001655,-38.5,8.68,-15.5,2b
2019-07-15_143709:060,-0.37316900000000003,-0.009644,-0.324371,-0.004275,1.1e-05,0.001381,-38.5,9.75,-15.06,2b
2019-07-15_143709:080,-0.37316900000000003,-0.010162000000000001,-0.325378,-0.004336,-0.000386,0.001442,-38.5,9.75,-15.06,2b
2019-07-15_143709:100,-0.372162,-0.011169,-0.326385,-0.004427,-0.000508,0.001625,-38.5,9.75,-15.06,2b
2019-07-15_143709:120,-0.373688,-0.008118,-0.328949,-0.004336,-0.00063,0.001625,-38.5,9.5,-13.87,2b
2019-07-15_143709:140,-0.371643,-0.008636,-0.328949,-0.004336,-0.000508,0.001381,-38.5,9.5,-13.87,2b
2019-07-15_143709:160,-0.374176,-0.009125,-0.330475,-0.004397,-0.00044699999999999997,0.001564,-38.869999,9.5,-14.68,2b
2019-07-15_143709:180,-0.374176,-0.007599,-0.32843,-0.004397,-0.00011100000000000001,0.00196,-38.869999,9.5,-14.68,2b
2019-07-15_143709:200,-0.372162,-0.009644,-0.32995599999999997,-0.004336,-5e-05,0.001655,-38.869999,9.5,-14.68,2b
2019-07-15_143709:220,-0.37011700000000003,-0.008636,-0.331482,-0.004427,-0.00011100000000000001,0.001838,-38.18,9.75,-15.5,2b
2019-07-15_143709:240,-0.372162,-0.006072999999999999,-0.330475,-0.004336,-0.000172,0.002388,-38.18,9.75,-15.5,2b
2019-07-15_143709:260,-0.37265,-0.007599,-0.32995599999999997,-0.004671,-0.000386,0.0022960000000000003,-39.25,10.18,-14.25,2b
2019-07-15_143709:280,-0.372162,-0.008636,-0.327911,-0.004732,-0.000264,0.0030280000000000003,-39.25,10.18,-14.25,2b
2019-07-15_143709:300,-0.37265,-0.008636,-0.330475,-0.004946,-0.00011100000000000001,0.003639,-39.25,10.18,-14.25,2b
2019-07-15_143709:320,-0.37112399999999995,-0.008636,-0.331482,-0.0048850000000000005,7.2e-05,0.0033640000000000002,-37.75,9.75,-14.68,2b
2019-07-15_143709:340,-0.370636,-0.009125,-0.32995599999999997,-0.0048850000000000005,0.000133,0.003639,-37.75,9.75,-14.68,2b
2019-07-15_143709:360,-0.370636,-0.010651,-0.330475,-0.005007,-0.00011100000000000001,0.003761,-38.869999,9.75,-15.06,2b
2019-07-15_143709:380,-0.372162,-0.011169,-0.329437,-0.005282,-0.00011100000000000001,0.003578,-38.869999,9.75,-15.06,2b
2019-07-15_143709:400,-0.372162,-0.012695,-0.330475,-0.005343,-0.00011100000000000001,0.0038829999999999997,-38.869999,9.75,-15.06,2b
2019-07-15_143709:420,-0.37316900000000003,-0.013213999999999998,-0.332489,-0.005282,0.00016299999999999998,0.003639,-38.5,10.18,-14.0,2b
2019-07-15_143709:440,-0.37112399999999995,-0.013702,-0.330475,-0.005282,0.000499,0.0033640000000000002,-38.5,10.18,-14.0,2b
2019-07-15_143709:460,-0.369598,-0.014221000000000001,-0.330963,-0.005221,0.000285,0.003425,-38.5,10.18,-15.5,2b
2019-07-15_143709:480,-0.369598,-0.015228,-0.32843,-0.0051600000000000005,0.00016299999999999998,0.003181,-38.5,10.18,-15.5,2b
2019-07-15_143709:500,-0.36911,-0.014221000000000001,-0.330475,-0.005129,0.000346,0.003151,-38.5,10.18,-15.5,2b
2019-07-15_143709:520,-0.369598,-0.015747,-0.33197,-0.0051600000000000005,0.000346,0.002693,-38.18,10.18,-15.06,2b
2019-07-15_143709:540,-0.370636,-0.015747,-0.333496,-0.005068,0.000346,0.001777,-38.18,10.18,-15.06,2b
2019-07-15_143709:560,-0.369598,-0.017273,-0.332489,-0.004732,0.00056,0.001442,-38.18,9.75,-15.06,2b
2019-07-15_143709:580,-0.37265,-0.016266,-0.33197,-0.004427,0.000621,0.001381,-38.18,9.75,-15.06,2b
2019-07-15_143709:600,-0.370636,-0.016753999999999998,-0.334534,-0.003817,0.000743,0.00132,-38.18,9.75,-15.06,2b
2019-07-15_143709:620,-0.367584,-0.013702,-0.332489,-0.003878,0.0009570000000000001,0.001838,-38.869999,9.75,-15.87,2b
2019-07-15_143709:640,-0.371643,-0.014221000000000001,-0.335541,-0.004,0.001018,0.003181,-38.869999,9.75,-15.87,2b
2019-07-15_143709:660,-0.369598,-0.015747,-0.333496,-0.004213000000000001,0.0010789999999999999,0.002388,-37.75,10.56,-14.68,2b
2019-07-15_143709:680,-0.366058,-0.015747,-0.332489,-0.004427,0.0009570000000000001,0.000404,-37.75,10.56,-14.68,2b
2019-07-15_143709:700,-0.36654699999999996,-0.016753999999999998,-0.334534,-0.004275,0.0008039999999999999,0.0008619999999999999,-37.75,10.56,-14.68,2b
2019-07-15_143709:720,-0.368591,-0.017273,-0.334534,-0.00403,0.000743,0.001106,-37.369999,9.75,-14.68,2b
2019-07-15_143709:740,-0.369598,-0.017273,-0.334015,-0.003878,0.00114,6.8e-05,-37.369999,9.75,-14.68,2b
2019-07-15_143709:760,-0.367584,-0.016753999999999998,-0.335022,-0.0032979999999999997,0.0014759999999999999,7.000000000000001e-06,-38.18,9.75,-17.5,2b
2019-07-15_143709:780,-0.36706500000000003,-0.017792,-0.333496,-0.0031149999999999997,0.0014759999999999999,-0.000328,-38.18,9.75,-17.5,2b
2019-07-15_143709:800,-0.368591,-0.016266,-0.334534,-0.002932,0.001598,-0.000267,-38.18,9.75,-17.5,2b
2019-07-15_143709:820,-0.37011700000000003,-0.014221000000000001,-0.333496,-0.002657,0.001842,0.000129,-37.369999,9.75,-15.06,2b
2019-07-15_143709:840,-0.37011700000000003,-0.014221000000000001,-0.334015,-0.002718,0.001994,0.000221,-37.369999,9.75,-15.06,2b
2019-07-15_143709:860,-0.370636,-0.012177,-0.333496,-0.0029010000000000004,0.0017809999999999998,0.00028199999999999997,-37.75,10.18,-15.5,2b
2019-07-15_143709:880,-0.368591,-0.014221000000000001,-0.33300799999999997,-0.003237,0.001994,0.000221,-37.75,10.18,-15.5,2b
2019-07-15_143709:900,-0.37112399999999995,-0.013702,-0.330963,-0.0033280000000000002,0.0019030000000000002,0.000343,-37.75,10.18,-15.5,2b
2019-07-15_143709:920,-0.36911,-0.014221000000000001,-0.330475,-0.0036950000000000004,0.0019030000000000002,0.001106,-38.18,10.56,-15.87,2b
2019-07-15_143709:940,-0.36654699999999996,-0.016266,-0.330475,-0.003817,0.001964,0.000496,-38.18,10.56,-15.87,2b
2019-07-15_143709:960,-0.36554000000000003,-0.015747,-0.331482,-0.004,0.001628,-0.000389,-37.75,10.18,-15.06,2b
2019-07-15_143709:980,-0.36654699999999996,-0.015228,-0.331482,-0.003878,0.001018,0.000648,-37.75,10.18,-15.06,2b
2019-07-15_143710:000,-0.36911,-0.014740000000000001,-0.33197,-0.003817,0.0008039999999999999,0.001258,-37.75,10.18,-15.06,2b
2019-07-15_143710:020,-0.369598,-0.011687999999999999,-0.331482,-0.00461,0.0009570000000000001,0.0008619999999999999,-38.5,10.18,-16.25,2b
2019-07-15_143710:040,-0.370636,-0.013702,-0.330963,-0.005068,0.0008960000000000001,0.00132,-38.5,10.18,-16.25,2b
2019-07-15_143710:060,-0.368073,-0.012177,-0.33300799999999997,-0.005678,0.001292,0.000984,-37.75,10.18,-14.68,2b
2019-07-15_143710:080,-0.369598,-0.014740000000000001,-0.332489,-0.005861,0.0014759999999999999,0.000129,-37.75,10.18,-14.68,2b
2019-07-15_143710:100,-0.36706500000000003,-0.015747,-0.334015,-0.005953,0.001292,-0.0008470000000000001,-37.75,10.18,-14.68,2b
2019-07-15_143710:120,-0.368591,-0.015747,-0.333496,-0.005221,0.0010789999999999999,-0.001,-38.18,10.56,-15.06,2b
2019-07-15_143710:140,-0.368591,-0.015228,-0.33300799999999997,-0.004427,0.001018,-0.000908,-38.18,10.56,-15.06,2b
2019-07-15_143710:160,-0.37011700000000003,-0.014740000000000001,-0.335022,-0.0036950000000000004,0.001201,-0.000664,-37.75,10.56,-17.059998999999998,2b
2019-07-15_143710:180,-0.37011700000000003,-0.014740000000000001,-0.335022,-0.0029010000000000004,0.001353,-0.000176,-37.75,10.56,-17.059998999999998,2b
2019-07-15_143710:200,-0.368591,-0.013702,-0.334534,-0.002199,0.001415,6.8e-05,-37.75,10.56,-17.059998999999998,2b
2019-07-15_143710:220,-0.36911,-0.012177,-0.334534,-0.001864,0.001628,6.8e-05,-38.5,9.5,-14.68,2b
2019-07-15_143710:240,-0.367584,-0.010651,-0.334534,-0.0018030000000000001,0.00172,0.00016,-38.5,9.5,-14.68,2b
2019-07-15_143710:260,-0.36706500000000003,-0.011687999999999999,-0.334534,-0.002199,0.0017809999999999998,0.000129,-38.18,10.56,-15.5,2b
2019-07-15_143710:280,-0.366058,-0.012177,-0.33300799999999997,-0.002535,0.001628,0.000129,-38.18,10.56,-15.5,2b
2019-07-15_143710:300,-0.36911,-0.012177,-0.334534,-0.0028399999999999996,0.0016589999999999999,0.000129,-38.18,10.56,-15.5,2b
2019-07-15_143710:320,-0.368073,-0.011687999999999999,-0.334534,-0.003176,0.0016589999999999999,0.000221,-37.75,11.0,-14.68,2b
2019-07-15_143710:340,-0.36706500000000003,-0.013213999999999998,-0.335022,-0.00339,0.0016589999999999999,0.000221,-37.75,11.0,-14.68,2b
2019-07-15_143710:360,-0.36654699999999996,-0.013213999999999998,-0.335541,-0.00339,0.0016589999999999999,0.000343,-38.869999,10.18,-16.25,2b
2019-07-15_143710:380,-0.368591,-0.015228,-0.335022,-0.0034509999999999996,0.00172,-0.00011499999999999999,-38.869999,10.18,-16.25,2b
2019-07-15_143710:400,-0.369598,-0.014740000000000001,-0.335541,-0.003054,0.001598,-0.000267,-38.869999,10.18,-16.25,2b
2019-07-15_143710:420,-0.37265,-0.013702,-0.335541,-0.002993,0.0017809999999999998,0.000129,-39.25,10.18,-14.25,2b
2019-07-15_143710:440,-0.371643,-0.012695,-0.334534,-0.0025960000000000002,0.002177,-0.000176,-39.25,10.18,-14.25,2b
2019-07-15_143710:460,-0.368591,-0.010651,-0.332489,-0.0028399999999999996,0.002788,-5.4000000000000005e-05,-38.5,10.18,-15.87,2b
2019-07-15_143710:480,-0.372162,-0.010651,-0.333496,-0.002932,0.002696,0.0021739999999999997,-38.5,10.18,-15.87,2b
2019-07-15_143710:500,-0.37112399999999995,-0.014740000000000001,-0.332489,-0.0036340000000000005,0.0029100000000000003,0.0018989999999999999,-38.5,10.18,-15.87,2b
2019-07-15_143710:520,-0.369598,-0.013702,-0.332489,-0.004091,0.002788,-0.000328,-38.5,10.56,-15.5,2b
2019-07-15_143710:540,-0.368073,-0.012695,-0.33300799999999997,-0.004275,0.002635,0.000465,-38.5,10.56,-15.5,2b
2019-07-15_143710:560,-0.367584,-0.014221000000000001,-0.334015,-0.004427,0.002391,0.0008619999999999999,-37.75,10.18,-15.5,2b
2019-07-15_143710:580,-0.36911,-0.014740000000000001,-0.332489,-0.004427,0.0023,0.000404,-37.75,10.18,-15.5,2b
2019-07-15_143710:600,-0.368073,-0.014221000000000001,-0.332489,-0.004275,0.0024519999999999998,0.000404,-37.75,10.18,-15.5,2b
2019-07-15_143710:620,-0.368591,-0.014221000000000001,-0.33197,-0.004,0.002513,6.8e-05,-38.18,10.56,-14.25,2b
2019-07-15_143710:640,-0.368591,-0.012695,-0.330963,-0.0036950000000000004,0.002574,0.000465,-38.18,10.56,-14.25,2b
2019-07-15_143710:660,-0.36911,-0.012177,-0.331482,-0.003512,0.002391,0.000526,-37.75,11.0,-15.87,2b
2019-07-15_143710:680,-0.371643,-0.012695,-0.33197,-0.0036950000000000004,0.002116,0.000587,-37.75,11.0,-15.87,2b
2019-07-15_143710:700,-0.372162,-0.011169,-0.33197,-0.0036340000000000005,0.0023,0.001167,-37.75,11.0,-15.87,2b
2019-07-15_143710:720,-0.372162,-0.009125,-0.330963,-0.004,0.0024519999999999998,0.00132,-37.75,11.0,-15.5,2b
2019-07-15_143710:740,-0.37265,-0.012177,-0.331482,-0.004488000000000001,0.002574,0.001503,-37.75,11.0,-15.5,2b
2019-07-15_143710:760,-0.370636,-0.013213999999999998,-0.329437,-0.004671,0.002513,0.001991,-38.869999,11.25,-15.5,2b
2019-07-15_143710:780,-0.36911,-0.015747,-0.327423,-0.004824,0.002361,0.001258,-38.869999,11.25,-15.5,2b
2019-07-15_143710:800,-0.368591,-0.016266,-0.327911,-0.00461,0.002239,0.000496,-38.869999,11.25,-15.5,2b
2019-07-15_143710:820,-0.368073,-0.015228,-0.329437,-0.004336,0.001964,0.000923,-37.369999,10.56,-14.25,2b
2019-07-15_143710:840,-0.368591,-0.016753999999999998,-0.32843,-0.00403,0.001598,0.000923,-37.369999,10.56,-14.25,2b
2019-07-15_143710:860,-0.371643,-0.015228,-0.331482,-0.003878,0.00114,0.000496,-37.75,10.56,-15.06,2b
2019-07-15_143710:880,-0.372162,-0.014740000000000001,-0.33197,-0.0036340000000000005,0.0012619999999999999,0.000343,-37.75,10.56,-15.06,2b
2019-07-15_143710:900,-0.37011700000000003,-0.014740000000000001,-0.330475,-0.003573,0.0014759999999999999,7.000000000000001e-06,-37.75,10.56,-15.06,2b
2019-07-15_143710:920,-0.369598,-0.013702,-0.330963,-0.0037560000000000002,0.001415,-0.000389,-37.75,10.56,-15.87,2b
2019-07-15_143710:940,-0.371643,-0.014221000000000001,-0.331482,-0.0036340000000000005,0.001415,-0.000176,-37.75,10.56,-15.87,2b
2019-07-15_143710:960,-0.37011700000000003,-0.016266,-0.332489,-0.003573,0.001415,-0.00045099999999999996,-37.75,11.0,-16.68,2b
2019-07-15_143710:980,-0.372162,-0.014740000000000001,-0.33197,-0.003237,0.001628,-0.000573,-37.75,11.0,-16.68,2b
2019-07-15_143711:000,-0.372162,-0.013702,-0.331482,-0.003237,0.001598,-0.000573,-37.75,11.0,-16.68,2b
2019-07-15_143711:020,-0.37316900000000003,-0.012177,-0.332489,-0.00339,0.001964,-0.000573,-38.5,10.18,-16.68,2b
2019-07-15_143711:040,-0.371643,-0.012695,-0.330963,-0.00339,0.002391,-0.00045099999999999996,-38.5,10.18,-16.68,2b
2019-07-15_143711:060,-0.370636,-0.012695,-0.330475,-0.003573,0.002574,-0.00023700000000000001,-38.18,9.75,-14.25,2b
2019-07-15_143711:080,-0.36911,-0.012695,-0.331482,-0.0036340000000000005,0.0023,-0.00023700000000000001,-38.18,9.75,-14.25,2b
2019-07-15_143711:100,-0.368591,-0.012695,-0.329437,-0.003664,0.001842,-5.4000000000000005e-05,-38.18,9.75,-14.25,2b
2019-07-15_143711:120,-0.368591,-0.013702,-0.330475,-0.003512,0.001537,-0.00011499999999999999,-37.0,10.18,-16.25,2b
2019-07-15_143711:140,-0.370636,-0.012177,-0.329437,-0.00339,0.001292,6.8e-05,-37.0,10.18,-16.25,2b
2019-07-15_143711:160,-0.37265,-0.013702,-0.331482,-0.0031149999999999997,0.001201,6.8e-05,-38.18,9.75,-14.68,2b
2019-07-15_143711:180,-0.372162,-0.013702,-0.33197,-0.0031149999999999997,0.001353,7.000000000000001e-06,-38.18,9.75,-14.68,2b
2019-07-15_143711:200,-0.370636,-0.011687999999999999,-0.331482,-0.002718,0.0019030000000000002,7.000000000000001e-06,-38.18,9.75,-14.68,2b
2019-07-15_143711:220,-0.37011700000000003,-0.012177,-0.333496,-0.002718,0.001537,-0.000267,-38.18,9.75,-15.5,2b
2019-07-15_143711:240,-0.36911,-0.013213999999999998,-0.330963,-0.0025960000000000002,0.001292,-0.000786,-38.18,9.75,-15.5,2b
2019-07-15_143711:260,-0.372162,-0.013702,-0.332489,-0.002443,0.001292,-0.0009689999999999999,-38.5,9.75,-15.06,2b
2019-07-15_143711:280,-0.37265,-0.012177,-0.334534,-0.00165,0.0017809999999999998,-0.001,-38.5,9.75,-15.06,2b
2019-07-15_143711:300,-0.374695,-0.013213999999999998,-0.332489,-0.001131,0.002055,-0.001366,-38.5,9.75,-15.06,2b
2019-07-15_143711:320,-0.36911,-0.011687999999999999,-0.330475,-0.000796,0.002361,-0.000512,-38.18,10.56,-14.68,2b
2019-07-15_143711:340,-0.36911,-0.010162000000000001,-0.328949,-0.000857,0.001842,0.00028199999999999997,-38.18,10.56,-14.68,2b
2019-07-15_143711:360,-0.37316900000000003,-0.012177,-0.329437,-0.001192,0.002116,-0.000512,-37.75,9.75,-14.68,2b
2019-07-15_143711:380,-0.37112399999999995,-0.013213999999999998,-0.32995599999999997,-0.001253,0.002239,-0.001366,-37.75,9.75,-14.68,2b
2019-07-15_143711:400,-0.368591,-0.010162000000000001,-0.328949,-0.0015279999999999998,0.002513,-0.0009689999999999999,-37.75,9.75,-14.68,2b
2019-07-15_143711:420,-0.369598,-0.013213999999999998,-0.330963,-0.0015890000000000001,0.002391,-0.0008470000000000001,-37.369999,10.18,-13.87,2b
2019-07-15_143711:440,-0.369598,-0.011687999999999999,-0.32843,-0.00165,0.002391,-0.001,-37.369999,10.18,-13.87,2b
2019-07-15_143711:460,-0.371643,-0.010162000000000001,-0.329437,-0.00165,0.002361,-0.001183,-38.5,10.18,-15.06,2b
2019-07-15_143711:480,-0.371643,-0.010651,-0.32843,-0.001864,0.002239,-0.00045099999999999996,-38.5,10.18,-15.06,2b
2019-07-15_143711:500,-0.37265,-0.011687999999999999,-0.327911,-0.0021079999999999996,0.002696,0.000709,-38.5,10.18,-15.06,2b
2019-07-15_143711:520,-0.373688,-0.009644,-0.327911,-0.002443,0.002574,0.001045,-38.18,10.18,-13.06,2b
2019-07-15_143711:540,-0.37316900000000003,-0.011687999999999999,-0.326385,-0.003054,0.002177,0.001167,-38.18,10.18,-13.06,2b
2019-07-15_143711:560,-0.372162,-0.011687999999999999,-0.326385,-0.003664,0.001994,0.001381,-38.5,9.75,-14.25,2b
2019-07-15_143711:580,-0.37265,-0.014221000000000001,-0.327911,-0.003939,0.00172,0.00132,-38.5,9.75,-14.25,2b
2019-07-15_143711:600,-0.37316900000000003,-0.014740000000000001,-0.327423,-0.004275,0.001598,0.001228,-38.5,9.75,-14.25,2b
2019-07-15_143711:620,-0.374176,-0.016266,-0.32843,-0.004397,0.001628,0.00132,-38.5,10.18,-14.25,2b
2019-07-15_143711:640,-0.376221,-0.016753999999999998,-0.325897,-0.00403,0.0017809999999999998,0.001045,-38.5,10.18,-14.25,2b
2019-07-15_143711:660,-0.37316900000000003,-0.017273,-0.32843,-0.003878,0.001842,0.00028199999999999997,-38.869999,9.75,-15.06,2b
2019-07-15_143711:680,-0.372162,-0.015228,-0.326904,-0.0037560000000000002,0.0019030000000000002,0.00028199999999999997,-38.869999,9.75,-15.06,2b
2019-07-15_143711:700,-0.372162,-0.015228,-0.327423,-0.00339,0.001842,0.000404,-38.869999,9.75,-15.06,2b
2019-07-15_143711:720,-0.37112399999999995,-0.015747,-0.326904,-0.003573,0.0017809999999999998,-5.4000000000000005e-05,-37.75,11.0,-14.68,2b
2019-07-15_143711:740,-0.37316900000000003,-0.014740000000000001,-0.327911,-0.0034509999999999996,0.001415,-0.00011499999999999999,-37.75,11.0,-14.68,2b
2019-07-15_143711:760,-0.372162,-0.014221000000000001,-0.327911,-0.0033280000000000002,0.0014759999999999999,-0.000176,-37.75,10.18,-15.06,2b
2019-07-15_143711:780,-0.37265,-0.013702,-0.326385,-0.0034509999999999996,0.001353,-0.000176,-37.75,10.18,-15.06,2b
2019-07-15_143711:800,-0.373688,-0.012695,-0.326385,-0.0033280000000000002,0.0012619999999999999,-5.4000000000000005e-05,-37.75,10.18,-15.06,2b
2019-07-15_143711:820,-0.371643,-0.012695,-0.327423,-0.0033280000000000002,0.0010789999999999999,6.8e-05,-38.18,10.18,-13.5,2b
2019-07-15_143711:840,-0.372162,-0.012695,-0.326385,-0.0034509999999999996,0.000743,0.000129,-38.18,10.18,-13.5,2b
2019-07-15_143711:860,-0.371643,-0.011687999999999999,-0.327911,-0.003664,0.0008960000000000001,0.000404,-38.18,10.18,-15.06,2b
2019-07-15_143711:880,-0.37316900000000003,-0.011169,-0.327911,-0.003878,0.0008039999999999999,0.000831,-38.18,10.18,-15.06,2b
2019-07-15_143711:900,-0.37265,-0.011169,-0.32995599999999997,-0.004091,0.000865,0.001045,-38.18,10.18,-15.06,2b
2019-07-15_143711:920,-0.372162,-0.010651,-0.330475,-0.004336,0.0008960000000000001,0.001045,-37.75,9.5,-15.87,2b
2019-07-15_143711:940,-0.37112399999999995,-0.014221000000000001,-0.32843,-0.004397,0.0008960000000000001,0.000984,-37.75,9.5,-15.87,2b
2019-07-15_143711:960,-0.372162,-0.014740000000000001,-0.32843,-0.004397,0.000865,0.000923,-38.18,9.75,-15.87,2b
2019-07-15_143711:980,-0.37316900000000003,-0.016266,-0.329437,-0.004152,0.00114,0.0007700000000000001,-38.18,9.75,-15.87,2b
2019-07-15_143712:000,-0.37316900000000003,-0.015747,-0.328949,-0.0037560000000000002,0.00114,0.000709,-38.18,9.75,-15.87,2b
2019-07-15_143712:020,-0.371643,-0.015228,-0.330963,-0.003817,0.001292,0.000709,-38.5,9.75,-15.06,2b
2019-07-15_143712:040,-0.371643,-0.014740000000000001,-0.329437,-0.0036340000000000005,0.001415,0.000587,-38.5,9.75,-15.06,2b
2019-07-15_143712:060,-0.37011700000000003,-0.013702,-0.330963,-0.0037560000000000002,0.0012619999999999999,0.000404,-38.5,10.18,-15.06,2b
2019-07-15_143712:080,-0.368591,-0.012695,-0.330963,-0.0036950000000000004,0.000865,0.00028199999999999997,-38.5,10.18,-15.06,2b
2019-07-15_143712:100,-0.37265,-0.013702,-0.330475,-0.0036950000000000004,0.0008039999999999999,0.00028199999999999997,-38.5,10.18,-15.06,2b
2019-07-15_143712:120,-0.37112399999999995,-0.013702,-0.330475,-0.003664,0.000621,0.000129,-38.5,9.75,-15.06,2b
2019-07-15_143712:140,-0.37316900000000003,-0.012695,-0.330475,-0.0036950000000000004,0.0008960000000000001,0.00028199999999999997,-38.5,9.75,-15.06,2b
2019-07-15_143712:160,-0.369598,-0.013213999999999998,-0.330475,-0.003573,0.001415,0.000984,-37.75,10.18,-15.06,2b
2019-07-15_143712:180,-0.369598,-0.010651,-0.328949,-0.0036950000000000004,0.001353,0.000984,-37.75,10.18,-15.06,2b
2019-07-15_143712:200,-0.369598,-0.011687999999999999,-0.330475,-0.00403,0.0008960000000000001,0.002845,-37.75,10.18,-15.06,2b
2019-07-15_143712:220,-0.37265,-0.014221000000000001,-0.32995599999999997,-0.004488000000000001,0.0008039999999999999,0.003151,-38.5,9.75,-14.25,2b
2019-07-15_143712:240,-0.37011700000000003,-0.014740000000000001,-0.328949,-0.0051600000000000005,0.00056,0.001258,-38.5,9.75,-14.25,2b
2019-07-15_143712:260,-0.369598,-0.014740000000000001,-0.331482,-0.005221,0.000499,0.000923,-38.5,9.75,-14.25,2b
2019-07-15_143712:280,-0.369598,-0.016753999999999998,-0.33197,-0.0051600000000000005,0.000285,0.001503,-38.18,10.56,-15.06,2b
2019-07-15_143712:300,-0.369598,-0.019318000000000002,-0.333496,-0.004946,0.000499,0.001106,-38.18,10.56,-15.06,2b
2019-07-15_143712:320,-0.370636,-0.017792,-0.334015,-0.00403,0.000407,0.00016,-38.5,9.75,-14.68,2b
2019-07-15_143712:340,-0.372162,-0.017273,-0.332489,-0.003573,0.000743,0.000129,-38.5,9.75,-14.68,2b
2019-07-15_143712:360,-0.372162,-0.016266,-0.334015,-0.002779,0.001537,0.00028199999999999997,-38.18,11.0,-16.25,2b
2019-07-15_143712:380,-0.372162,-0.014740000000000001,-0.333496,-0.0025960000000000002,0.0016589999999999999,0.000465,-38.18,11.0,-16.25,2b
2019-07-15_143712:400,-0.37265,-0.014221000000000001,-0.330963,-0.0025050000000000003,0.001842,0.000343,-38.18,11.0,-16.25,2b
2019-07-15_143712:420,-0.372162,-0.013213999999999998,-0.331482,-0.0025050000000000003,0.0019030000000000002,0.000343,-38.5,9.75,-13.87,2b
2019-07-15_143712:440,-0.372162,-0.013702,-0.330963,-0.0029010000000000004,0.001964,0.000496,-38.5,9.75,-13.87,2b
2019-07-15_143712:460,-0.370636,-0.014221000000000001,-0.330963,-0.0031149999999999997,0.0019030000000000002,0.000465,-38.5,9.75,-14.25,2b
2019-07-15_143712:480,-0.376221,-0.012695,-0.33300799999999997,-0.0036950000000000004,0.002788,0.000648,-38.5,9.75,-14.25,2b
2019-07-15_143712:500,-0.368591,-0.013702,-0.321808,-0.004,0.003093,0.000831,-38.5,9.75,-14.25,2b
2019-07-15_143712:520,-0.368591,-0.015747,-0.323853,-0.003878,0.002574,0.000129,-38.18,9.75,-14.68,2b
2019-07-15_143712:540,-0.36706500000000003,-0.014740000000000001,-0.32132,-0.003817,0.001842,6.8e-05,-38.18,9.75,-14.68,2b
2019-07-15_143712:560,-0.372162,-0.016266,-0.334534,-0.0034509999999999996,0.0008960000000000001,0.0007700000000000001,-38.18,9.75,-14.68,2b
2019-07-15_143712:580,-0.372162,-0.016753999999999998,-0.330475,-0.003237,0.001292,0.000496,-38.18,9.5,-15.5,2b
2019-07-15_143712:600,-0.372162,-0.014221000000000001,-0.330963,-0.003237,0.0012619999999999999,0.000343,-38.18,9.5,-15.5,2b
2019-07-15_143712:620,-0.369598,-0.014740000000000001,-0.330963,-0.002993,0.0012619999999999999,0.000831,-38.18,10.18,-14.68,2b
2019-07-15_143712:640,-0.368073,-0.014740000000000001,-0.330475,-0.0031149999999999997,0.000621,0.000404,-38.18,10.18,-14.68,2b
2019-07-15_143712:660,-0.36911,-0.013702,-0.330475,-0.0032979999999999997,0.00056,0.00028199999999999997,-38.18,10.18,-14.68,2b
2019-07-15_143712:680,-0.37011700000000003,-0.015747,-0.331482,-0.003237,0.000346,0.00016,-38.5,10.56,-16.25,2b
2019-07-15_143712:700,-0.36911,-0.014740000000000001,-0.331482,-0.003054,0.000407,-0.00023700000000000001,-38.5,10.56,-16.25,2b
2019-07-15_143712:720,-0.368591,-0.014221000000000001,-0.33197,-0.0028399999999999996,0.000285,-0.000176,-38.18,10.56,-16.25,2b
2019-07-15_143712:740,-0.367584,-0.014740000000000001,-0.331482,-0.002718,0.00016299999999999998,7.000000000000001e-06,-38.18,10.56,-16.25,2b
2019-07-15_143712:760,-0.368073,-0.013213999999999998,-0.332489,-0.0029010000000000004,7.2e-05,-5.4000000000000005e-05,-38.18,10.56,-16.25,2b
2019-07-15_143712:780,-0.370636,-0.013213999999999998,-0.332489,-0.002718,-0.000325,0.00028199999999999997,-38.869999,9.06,-15.5,2b
2019-07-15_143712:800,-0.37316900000000003,-0.012695,-0.334015,-0.002779,7.2e-05,0.00016,-38.869999,9.06,-15.5,2b
2019-07-15_143712:820,-0.372162,-0.012695,-0.334534,-0.0031149999999999997,0.000407,7.000000000000001e-06,-37.369999,9.75,-15.5,2b
2019-07-15_143712:840,-0.37112399999999995,-0.014221000000000001,-0.333496,-0.0032979999999999997,0.000743,0.00016,-37.369999,9.75,-15.5,2b
2019-07-15_143712:860,-0.36911,-0.014740000000000001,-0.333496,-0.00339,0.00114,6.8e-05,-39.25,10.56,-14.25,2b
2019-07-15_143712:880,-0.37112399999999995,-0.015228,-0.333496,-0.0034509999999999996,0.0012619999999999999,0.00016,-39.25,10.56,-14.25,2b
2019-07-15_143712:900,-0.37011700000000003,-0.015228,-0.331482,-0.0033280000000000002,0.0016589999999999999,0.000343,-39.25,10.56,-14.25,2b
2019-07-15_143712:920,-0.36706500000000003,-0.014740000000000001,-0.334534,-0.0032979999999999997,0.001292,6.8e-05,-38.18,10.56,-14.68,2b
2019-07-15_143712:940,-0.36654699999999996,-0.014740000000000001,-0.33300799999999997,-0.0033280000000000002,0.0012619999999999999,0.000343,-38.18,10.56,-14.68,2b
2019-07-15_143712:960,-0.36554000000000003,-0.013213999999999998,-0.333496,-0.003512,0.000743,7.000000000000001e-06,-38.18,10.56,-14.68,2b
2019-07-15_143712:980,-0.366058,-0.013702,-0.335022,-0.00339,0.00022400000000000002,-0.000267,-37.75,9.75,-16.25,2b
2019-07-15_143713:000,-0.37011700000000003,-0.012695,-0.335022,-0.0032979999999999997,0.00016299999999999998,0.00016,-37.75,9.75,-16.25,2b
2019-07-15_143713:020,-0.368591,-0.013702,-0.338074,-0.002993,0.000621,0.00028199999999999997,-38.18,10.18,-15.87,2b
2019-07-15_143713:040,-0.365021,-0.011687999999999999,-0.335022,-0.003176,0.000865,0.000526,-38.18,10.18,-15.87,2b
2019-07-15_143713:060,-0.36706500000000003,-0.011687999999999999,-0.338074,-0.0032979999999999997,0.000682,0.00251,-38.18,10.18,-15.87,2b
2019-07-15_143713:080,-0.365021,-0.013702,-0.3396,-0.0036340000000000005,-5e-05,0.00196,-38.18,10.18,-14.25,2b
2019-07-15_143713:100,-0.365021,-0.013213999999999998,-0.341125,-0.003664,-5e-05,-0.000176,-38.18,10.18,-14.25,2b
2019-07-15_143713:120,-0.366058,-0.014221000000000001,-0.341125,-0.00339,7.2e-05,0.000587,-37.75,10.56,-15.06,2b
2019-07-15_143713:140,-0.36554000000000003,-0.016266,-0.338593,-0.003054,0.00056,0.001716,-37.75,10.56,-15.06,2b
2019-07-15_143713:160,-0.36654699999999996,-0.016753999999999998,-0.338593,-0.002718,0.001018,0.000923,-37.75,10.56,-15.06,2b
2019-07-15_143713:180,-0.36911,-0.016266,-0.341125,-0.0022600000000000003,0.0017809999999999998,0.000709,-38.869999,9.75,-15.87,2b
2019-07-15_143713:200,-0.37011700000000003,-0.016753999999999998,-0.34063699999999997,-0.0018030000000000001,0.0024519999999999998,0.000831,-38.869999,9.75,-15.87,2b
2019-07-15_143713:220,-0.369598,-0.015747,-0.338074,-0.0017109999999999998,0.0031850000000000003,0.000984,-38.5,10.18,-14.68,2b
2019-07-15_143713:240,-0.370636,-0.016266,-0.334015,-0.001864,0.00352,0.000984,-38.5,10.18,-14.68,2b
2019-07-15_143713:260,-0.371643,-0.016266,-0.335541,-0.0020469999999999998,0.003703,0.000984,-38.5,10.18,-14.68,2b
2019-07-15_143713:280,-0.372162,-0.016753999999999998,-0.33300799999999997,-0.002321,0.004161,0.0008619999999999999,-38.18,10.56,-13.87,2b
2019-07-15_143713:300,-0.370636,-0.017792,-0.331482,-0.002321,0.004497,0.001167,-38.18,10.56,-13.87,2b
2019-07-15_143713:320,-0.37112399999999995,-0.01828,-0.329437,-0.002718,0.004222,0.001381,-37.75,11.0,-15.06,2b
2019-07-15_143713:340,-0.368591,-0.018799,-0.326904,-0.003054,0.003825,0.001716,-37.75,11.0,-15.06,2b
2019-07-15_143713:360,-0.370636,-0.020844,-0.327423,-0.003054,0.0034289999999999998,0.001106,-37.75,11.0,-15.06,2b
2019-07-15_143713:380,-0.369598,-0.020844,-0.32486,-0.003176,0.0031850000000000003,0.000526,-38.18,9.75,-14.68,2b
2019-07-15_143713:400,-0.372162,-0.019806,-0.32486,-0.0034509999999999996,0.002757,0.001258,-38.18,9.75,-14.68,2b
2019-07-15_143713:420,-0.373688,-0.021332,-0.324371,-0.0036340000000000005,0.0029100000000000003,0.001777,-38.18,10.56,-15.06,2b
2019-07-15_143713:440,-0.373688,-0.021332,-0.324371,-0.0036340000000000005,0.002788,0.001045,-38.18,10.56,-15.06,2b
2019-07-15_143713:460,-0.373688,-0.022369,-0.327423,-0.003573,0.002757,0.0007700000000000001,-38.18,10.56,-15.06,2b
2019-07-15_143713:480,-0.372162,-0.021851,-0.324371,-0.0036340000000000005,0.002696,0.000587,-38.18,10.18,-14.68,2b
2019-07-15_143713:500,-0.371643,-0.023895,-0.325378,-0.003573,0.002513,0.000465,-38.18,10.18,-14.68,2b
2019-07-15_143713:520,-0.372162,-0.021851,-0.326385,-0.0034509999999999996,0.002055,0.00016,-37.75,9.75,-14.68,2b
2019-07-15_143713:540,-0.371643,-0.020325,-0.326904,-0.0033280000000000002,0.001598,-5.4000000000000005e-05,-37.75,9.75,-14.68,2b
2019-07-15_143713:560,-0.37011700000000003,-0.019806,-0.326385,-0.0033280000000000002,0.001598,-0.00023700000000000001,-37.75,9.75,-14.68,2b
2019-07-15_143713:580,-0.367584,-0.019806,-0.329437,-0.003237,0.001353,-0.000389,-38.5,10.18,-14.25,2b
2019-07-15_143713:600,-0.368073,-0.018799,-0.32843,-0.003512,0.001018,-0.000389,-38.5,10.18,-14.25,2b
2019-07-15_143713:620,-0.367584,-0.018799,-0.330963,-0.0036950000000000004,0.000682,-0.00023700000000000001,-38.18,10.56,-13.87,2b
2019-07-15_143713:640,-0.366058,-0.015747,-0.328949,-0.004,0.000346,-0.000267,-38.18,10.56,-13.87,2b
2019-07-15_143713:660,-0.36654699999999996,-0.015747,-0.330475,-0.004397,-0.000233,-5.4000000000000005e-05,-38.18,10.56,-13.87,2b
2019-07-15_143713:680,-0.368073,-0.015228,-0.330475,-0.004824,-0.00063,-5.4000000000000005e-05,-38.18,10.56,-15.5,2b
2019-07-15_143713:700,-0.369598,-0.016266,-0.330963,-0.005343,-0.001179,-0.00011499999999999999,-38.18,10.56,-15.5,2b
2019-07-15_143713:720,-0.37112399999999995,-0.017273,-0.334534,-0.005343,-0.0009660000000000001,-0.000176,-37.75,10.18,-15.06,2b
2019-07-15_143713:740,-0.369598,-0.01828,-0.334015,-0.005282,-0.0007830000000000001,-0.000328,-37.75,10.18,-15.06,2b
2019-07-15_143713:760,-0.37112399999999995,-0.019318000000000002,-0.336548,-0.005007,-0.00044699999999999997,-0.000725,-37.75,10.18,-15.06,2b
2019-07-15_143713:780,-0.37011700000000003,-0.01828,-0.33605999999999997,-0.004397,0.00016299999999999998,-0.0011220000000000002,-37.369999,10.18,-15.87,2b
2019-07-15_143713:800,-0.372162,-0.016266,-0.335541,-0.003817,0.000407,-0.001,-37.369999,10.18,-15.87,2b
2019-07-15_143713:820,-0.372162,-0.015228,-0.335022,-0.003176,0.0008960000000000001,-0.0008470000000000001,-37.75,10.56,-15.06,2b
2019-07-15_143713:840,-0.36706500000000003,-0.014221000000000001,-0.332489,-0.002993,0.001201,-0.00045099999999999996,-37.75,10.56,-15.06,2b
2019-07-15_143713:860,-0.36554000000000003,-0.013702,-0.33300799999999997,-0.003237,0.0010789999999999999,0.000984,-37.75,10.56,-15.06,2b
2019-07-15_143713:880,-0.368073,-0.015228,-0.334534,-0.003573,0.000621,0.0007700000000000001,-38.869999,9.75,-14.68,2b
2019-07-15_143713:900,-0.366058,-0.015747,-0.334015,-0.004,0.000743,-0.000634,-38.869999,9.75,-14.68,2b
2019-07-15_143713:920,-0.366058,-0.015747,-0.33605999999999997,-0.004275,0.000346,-0.001,-38.18,10.56,-15.5,2b
2019-07-15_143713:940,-0.368073,-0.019318000000000002,-0.337067,-0.00403,0.000285,-0.000725,-38.18,10.56,-15.5,2b
2019-07-15_143713:960,-0.367584,-0.019806,-0.336548,-0.003512,0.000682,-0.0012439999999999999,-38.18,10.56,-15.5,2b
2019-07-15_143713:980,-0.368073,-0.018799,-0.336548,-0.0025050000000000003,0.000743,-0.001519,-37.0,10.56,-15.06,2b
2019-07-15_143714:000,-0.367584,-0.016266,-0.337067,-0.001772,0.001018,-0.001458,-37.0,10.56,-15.06,2b
2019-07-15_143714:020,-0.368591,-0.014221000000000001,-0.336548,-0.001467,0.0012619999999999999,-0.001,-38.5,10.18,-15.5,2b
2019-07-15_143714:040,-0.369598,-0.013213999999999998,-0.335541,-0.001467,0.001628,-0.000389,-38.5,10.18,-15.5,2b
2019-07-15_143714:060,-0.369598,-0.011169,-0.335541,-0.0017109999999999998,0.00172,-0.000389,-38.5,10.18,-15.5,2b
2019-07-15_143714:080,-0.368073,-0.011169,-0.334534,-0.002199,0.002239,-0.00045099999999999996,-38.18,11.25,-14.68,2b
2019-07-15_143714:100,-0.36706500000000003,-0.012177,-0.335022,-0.002779,0.0023,-0.000267,-38.18,11.25,-14.68,2b
2019-07-15_143714:120,-0.36706500000000003,-0.012177,-0.333496,-0.003054,0.002116,-0.000176,-37.75,9.5,-14.68,2b
2019-07-15_143714:140,-0.36911,-0.013213999999999998,-0.331482,-0.0034509999999999996,0.001964,0.000587,-37.75,9.5,-14.68,2b
2019-07-15_143714:160,-0.37112399999999995,-0.015228,-0.332489,-0.0037560000000000002,0.002116,0.001258,-37.75,9.5,-14.68,2b
2019-07-15_143714:180,-0.36706500000000003,-0.015747,-0.33197,-0.0037560000000000002,0.002391,0.000587,-37.369999,9.75,-14.68,2b
2019-07-15_143714:200,-0.366058,-0.015228,-0.331482,-0.004,0.002361,0.000404,-37.369999,9.75,-14.68,2b
2019-07-15_143714:220,-0.36554000000000003,-0.016753999999999998,-0.333496,-0.0036950000000000004,0.001964,0.001258,-37.75,9.75,-15.06,2b
2019-07-15_143714:240,-0.366058,-0.015747,-0.331482,-0.003878,0.0014759999999999999,0.000984,-37.75,9.75,-15.06,2b
2019-07-15_143714:260,-0.368591,-0.017273,-0.334534,-0.0037560000000000002,0.001415,0.000587,-37.75,9.75,-15.06,2b
2019-07-15_143714:280,-0.369598,-0.016266,-0.33300799999999997,-0.003878,0.001537,0.0007700000000000001,-38.18,9.75,-15.5,2b
2019-07-15_143714:300,-0.368073,-0.016266,-0.332489,-0.003878,0.001537,0.000587,-38.18,9.75,-15.5,2b
2019-07-15_143714:320,-0.367584,-0.015747,-0.335022,-0.003664,0.001628,0.000496,-37.369999,10.56,-14.68,2b
2019-07-15_143714:340,-0.36654699999999996,-0.014221000000000001,-0.334015,-0.0037560000000000002,0.001415,0.000465,-37.369999,10.56,-14.68,2b
2019-07-15_143714:360,-0.368073,-0.014221000000000001,-0.334534,-0.003878,0.001415,0.000526,-37.369999,10.56,-14.68,2b
2019-07-15_143714:380,-0.367584,-0.014221000000000001,-0.33197,-0.004091,0.001353,0.0007700000000000001,-37.75,10.18,-16.68,2b
2019-07-15_143714:400,-0.366058,-0.014740000000000001,-0.332489,-0.004152,0.001201,0.000709,-37.75,10.18,-16.68,2b
2019-07-15_143714:420,-0.36706500000000003,-0.014221000000000001,-0.33300799999999997,-0.004336,0.000865,0.000984,-38.5,9.75,-15.87,2b
2019-07-15_143714:440,-0.368591,-0.014740000000000001,-0.33197,-0.004397,0.0008039999999999999,0.001045,-38.5,9.75,-15.87,2b
2019-07-15_143714:460,-0.369598,-0.015228,-0.335022,-0.004549,0.001201,0.001503,-38.5,9.75,-15.87,2b
2019-07-15_143714:480,-0.369598,-0.015747,-0.335022,-0.004549,0.001292,0.001442,-38.869999,9.75,-15.06,2b
2019-07-15_143714:500,-0.367584,-0.016266,-0.334015,-0.004671,0.0014759999999999999,0.001564,-38.869999,9.75,-15.06,2b
2019-07-15_143714:520,-0.368073,-0.015228,-0.335541,-0.0048850000000000005,0.001628,0.001564,-38.18,10.18,-15.06,2b
2019-07-15_143714:540,-0.36911,-0.016753999999999998,-0.33300799999999997,-0.004946,0.001415,0.001777,-38.18,10.18,-15.06,2b
2019-07-15_143714:560,-0.367584,-0.016753999999999998,-0.335022,-0.0048850000000000005,0.0017809999999999998,0.001777,-38.18,10.18,-15.06,2b
2019-07-15_143714:580,-0.36654699999999996,-0.016753999999999998,-0.335541,-0.005007,0.0014759999999999999,0.001564,-37.75,9.5,-14.68,2b
2019-07-15_143714:600,-0.366058,-0.017792,-0.335022,-0.004793,0.001415,0.001381,-37.75,9.5,-14.68,2b
2019-07-15_143714:620,-0.36654699999999996,-0.018799,-0.335022,-0.004549,0.001353,0.0008619999999999999,-38.18,9.5,-15.87,2b
2019-07-15_143714:640,-0.36706500000000003,-0.017273,-0.332489,-0.004,0.00114,0.0008619999999999999,-38.18,9.5,-15.87,2b
2019-07-15_143714:660,-0.366058,-0.017792,-0.335022,-0.003573,0.001292,0.001228,-38.18,9.5,-15.87,2b
2019-07-15_143714:680,-0.368591,-0.016266,-0.334015,-0.0032979999999999997,0.0010789999999999999,0.0008619999999999999,-38.869999,10.18,-15.5,2b
2019-07-15_143714:700,-0.36911,-0.014221000000000001,-0.334015,-0.00339,0.0012619999999999999,0.001777,-38.869999,10.18,-15.5,2b
2019-07-15_143714:720,-0.36654699999999996,-0.014221000000000001,-0.334015,-0.0036950000000000004,0.0010789999999999999,0.002845,-37.369999,10.56,-14.68,2b
2019-07-15_143714:740,-0.36706500000000003,-0.014740000000000001,-0.334015,-0.00461,0.0012619999999999999,0.001991,-37.369999,10.56,-14.68,2b
2019-07-15_143714:760,-0.36706500000000003,-0.015747,-0.33605999999999997,-0.005221,0.001201,0.0007700000000000001,-37.369999,10.56,-14.68,2b
2019-07-15_143714:780,-0.366058,-0.017273,-0.33605999999999997,-0.005526,0.0008960000000000001,0.001258,-38.5,10.56,-15.06,2b
2019-07-15_143714:800,-0.36654699999999996,-0.020325,-0.335022,-0.005526,0.00114,0.001228,-38.5,10.56,-15.06,2b
2019-07-15_143714:820,-0.368073,-0.019806,-0.335541,-0.004946,0.0010789999999999999,0.000496,-37.75,10.56,-15.5,2b
2019-07-15_143714:840,-0.36654699999999996,-0.020325,-0.33605999999999997,-0.0037560000000000002,0.0010789999999999999,0.000404,-37.75,10.56,-15.5,2b
2019-07-15_143714:860,-0.367584,-0.017792,-0.336548,-0.003176,0.0010789999999999999,0.000465,-37.75,10.56,-15.5,2b
2019-07-15_143714:880,-0.369598,-0.016266,-0.33605999999999997,-0.0025050000000000003,0.001598,0.001106,-37.369999,10.18,-15.06,2b
2019-07-15_143714:900,-0.368591,-0.014221000000000001,-0.33605999999999997,-0.002657,0.001598,0.000831,-37.369999,10.18,-15.06,2b
2019-07-15_143714:920,-0.368073,-0.013213999999999998,-0.335541,-0.002718,0.0017809999999999998,0.000526,-38.5,9.75,-15.06,2b
2019-07-15_143714:940,-0.36654699999999996,-0.014221000000000001,-0.334534,-0.0034509999999999996,0.002055,0.000709,-38.5,9.75,-15.06,2b
2019-07-15_143714:960,-0.36706500000000003,-0.016266,-0.335541,-0.003817,0.0019030000000000002,0.000709,-38.5,9.75,-15.06,2b
2019-07-15_143714:980,-0.369598,-0.016753999999999998,-0.334015,-0.004213000000000001,0.002116,0.000526,-38.18,10.56,-15.5,2b
2019-07-15_143715:000,-0.368591,-0.017273,-0.333496,-0.004152,0.001994,0.0008619999999999999,-38.18,10.56,-15.5,2b
2019-07-15_143715:020,-0.36706500000000003,-0.019318000000000002,-0.33300799999999997,-0.004091,0.002116,0.001106,-38.18,9.5,-16.68,2b
2019-07-15_143715:040,-0.36654699999999996,-0.018799,-0.33197,-0.003878,0.0023,0.000923,-38.18,9.5,-16.68,2b
2019-07-15_143715:060,-0.36554000000000003,-0.01828,-0.334534,-0.0036950000000000004,0.001842,0.001228,-38.18,9.5,-16.68,2b
2019-07-15_143715:080,-0.36654699999999996,-0.017792,-0.334534,-0.0036950000000000004,0.0016589999999999999,0.001381,-37.75,10.56,-15.5,2b
2019-07-15_143715:100,-0.36706500000000003,-0.017273,-0.334534,-0.003664,0.001353,0.000984,-37.75,10.56,-15.5,2b
2019-07-15_143715:120,-0.367584,-0.017273,-0.334015,-0.003939,0.001415,0.0007700000000000001,-38.18,11.0,-15.87,2b
2019-07-15_143715:140,-0.36654699999999996,-0.017792,-0.335541,-0.004152,0.001201,0.000587,-38.18,11.0,-15.87,2b
2019-07-15_143715:160,-0.368073,-0.016753999999999998,-0.33605999999999997,-0.00403,0.001201,0.000496,-38.18,11.0,-15.87,2b
2019-07-15_143715:180,-0.36706500000000003,-0.018799,-0.335022,-0.003817,0.001415,0.000587,-37.369999,10.56,-15.87,2b
2019-07-15_143715:200,-0.364532,-0.016266,-0.334534,-0.0036340000000000005,0.001537,0.000648,-37.369999,10.56,-15.87,2b
2019-07-15_143715:220,-0.366058,-0.014740000000000001,-0.334534,-0.0034509999999999996,0.0012619999999999999,0.0008619999999999999,-37.0,10.56,-15.5,2b
2019-07-15_143715:240,-0.36654699999999996,-0.014221000000000001,-0.335022,-0.003664,0.0010789999999999999,0.00132,-37.0,10.56,-15.5,2b
2019-07-15_143715:260,-0.366058,-0.010162000000000001,-0.335022,-0.004275,0.0010789999999999999,0.001991,-37.0,10.56,-15.5,2b
2019-07-15_143715:280,-0.365021,-0.009644,-0.335541,-0.004824,0.000743,0.002967,-36.25,10.18,-15.06,2b
2019-07-15_143715:300,-0.364014,-0.009125,-0.335022,-0.0058,0.00056,0.0037,-36.25,10.18,-15.06,2b
2019-07-15_143715:320,-0.363007,-0.010162000000000001,-0.334015,-0.006807,0.00016299999999999998,0.004646,-38.5,10.56,-14.68,2b
2019-07-15_143715:340,-0.361481,-0.012177,-0.334015,-0.007937,-0.000233,0.005287,-38.5,10.56,-14.68,2b
2019-07-15_143715:360,-0.360962,-0.012695,-0.335541,-0.008851999999999999,-0.001118,0.005745,-38.5,10.56,-14.68,2b
2019-07-15_143715:380,-0.36654699999999996,-0.015747,-0.337067,-0.009249,-0.0018510000000000002,0.005745,-37.369999,10.56,-16.25,2b
2019-07-15_143715:400,-0.370636,-0.019318000000000002,-0.336548,-0.009859,-0.001515,0.005439,-37.369999,10.56,-16.25,2b
2019-07-15_143715:420,-0.36911,-0.021851,-0.340118,-0.009646,-0.0007830000000000001,0.005012,-38.18,10.18,-17.5,2b
2019-07-15_143715:440,-0.37011700000000003,-0.024384,-0.338074,-0.008851999999999999,1.1e-05,0.004554,-38.18,10.18,-17.5,2b
2019-07-15_143715:460,-0.373688,-0.024902,-0.340118,-0.007723000000000001,0.0008039999999999999,0.004554,-38.18,10.18,-17.5,2b
2019-07-15_143715:480,-0.372162,-0.024902,-0.340118,-0.0066549999999999995,0.002239,0.004219,-37.369999,11.25,-15.5,2b
2019-07-15_143715:500,-0.366058,-0.023375999999999997,-0.34063699999999997,-0.005404,0.0034289999999999998,0.003822,-37.369999,11.25,-15.5,2b
2019-07-15_143715:520,-0.365021,-0.021332,-0.341125,-0.004549,0.0035810000000000004,0.002967,-37.75,11.25,-15.5,2b
2019-07-15_143715:540,-0.36654699999999996,-0.020325,-0.337067,-0.003878,0.0036420000000000003,0.003181,-37.75,11.25,-15.5,2b
2019-07-15_143715:560,-0.368073,-0.01828,-0.337067,-0.0036340000000000005,0.0035810000000000004,0.0030280000000000003,-37.75,11.25,-15.5,2b
2019-07-15_143715:580,-0.36654699999999996,-0.017273,-0.336548,-0.003573,0.0036420000000000003,0.003578,-37.75,11.25,-14.68,2b
2019-07-15_143715:600,-0.367584,-0.016753999999999998,-0.333496,-0.003817,0.0036420000000000003,0.003822,-37.75,11.25,-14.68,2b
2019-07-15_143715:620,-0.364014,-0.015228,-0.331482,-0.004336,0.0036420000000000003,0.003913000000000001,-38.18,11.25,-17.5,2b
2019-07-15_143715:640,-0.365021,-0.018799,-0.33197,-0.005129,0.002971,0.0051649999999999995,-38.18,11.25,-17.5,2b
2019-07-15_143715:660,-0.367584,-0.020844,-0.333496,-0.005861,0.002849,0.005561,-38.18,11.25,-17.5,2b
2019-07-15_143715:680,-0.36248800000000003,-0.023895,-0.335541,-0.006411,0.002513,0.004036,-37.369999,11.0,-17.059998999999998,2b
2019-07-15_143715:700,-0.361481,-0.024384,-0.335541,-0.006594,0.002239,0.00309,-37.369999,11.0,-17.059998999999998,2b
2019-07-15_143715:720,-0.36554000000000003,-0.028442000000000002,-0.336548,-0.0058,0.0016589999999999999,0.003517,-37.369999,11.68,-14.68,2b
2019-07-15_143715:740,-0.368073,-0.027435,-0.334534,-0.0056170000000000005,0.001628,0.002784,-37.369999,11.68,-14.68,2b
2019-07-15_143715:760,-0.368073,-0.026917,-0.337067,-0.004213000000000001,0.002055,0.001716,-37.369999,11.68,-14.68,2b
2019-07-15_143715:780,-0.369598,-0.026427999999999997,-0.336548,-0.003237,0.0024519999999999998,0.002113,-37.75,11.68,-15.5,2b
2019-07-15_143715:800,-0.369598,-0.024384,-0.334534,-0.0028399999999999996,0.002696,0.001838,-37.75,11.68,-15.5,2b
2019-07-15_143715:820,-0.369598,-0.023375999999999997,-0.334534,-0.002718,0.002757,0.001777,-37.0,12.0,-15.87,2b
2019-07-15_143715:840,-0.367584,-0.021332,-0.330963,-0.002718,0.002696,0.001625,-37.0,12.0,-15.87,2b
2019-07-15_143715:860,-0.367584,-0.022858,-0.33300799999999997,-0.003176,0.0024519999999999998,0.001716,-37.0,12.0,-15.87,2b
2019-07-15_143715:880,-0.368591,-0.022369,-0.331482,-0.0034509999999999996,0.002116,0.00132,-37.369999,11.25,-15.5,2b
2019-07-15_143715:900,-0.368591,-0.023375999999999997,-0.32995599999999997,-0.0036340000000000005,0.001964,0.001228,-37.369999,11.25,-15.5,2b
2019-07-15_143715:920,-0.367584,-0.021851,-0.32995599999999997,-0.0036950000000000004,0.0016589999999999999,0.00196,-37.369999,11.68,-15.5,2b
2019-07-15_143715:940,-0.37011700000000003,-0.023895,-0.32843,-0.0036950000000000004,0.001842,0.00196,-37.369999,11.68,-15.5,2b
2019-07-15_143715:960,-0.368073,-0.022369,-0.33197,-0.004091,0.001842,0.001503,-37.369999,11.68,-15.5,2b
2019-07-15_143715:980,-0.366058,-0.024384,-0.331482,-0.004152,0.001598,0.002113,-37.0,12.0,-14.68,2b
2019-07-15_143716:000,-0.36654699999999996,-0.023375999999999997,-0.332489,-0.004091,0.0008960000000000001,0.002113,-37.0,12.0,-14.68,2b
2019-07-15_143716:020,-0.36554000000000003,-0.024384,-0.33300799999999997,-0.004,0.00056,0.0018989999999999999,-37.0,12.0,-15.87,2b
2019-07-15_143716:040,-0.36911,-0.025421,-0.33197,-0.0036950000000000004,0.00022400000000000002,0.0018989999999999999,-37.0,12.0,-15.87,2b
2019-07-15_143716:060,-0.36911,-0.025908999999999998,-0.335022,-0.0033280000000000002,0.000468,0.001838,-37.0,12.0,-15.87,2b
2019-07-15_143716:080,-0.367584,-0.025908999999999998,-0.33300799999999997,-0.0031149999999999997,0.000682,0.002052,-37.75,11.68,-15.06,2b
2019-07-15_143716:100,-0.368591,-0.024902,-0.33300799999999997,-0.0028399999999999996,0.0008039999999999999,0.0018989999999999999,-37.75,11.68,-15.06,2b
2019-07-15_143716:120,-0.365021,-0.023895,-0.334015,-0.0025960000000000002,0.000621,0.001503,-37.369999,12.0,-15.87,2b
2019-07-15_143716:140,-0.366058,-0.023895,-0.33300799999999997,-0.002718,0.000468,0.001625,-37.369999,12.0,-15.87,2b
2019-07-15_143716:160,-0.364532,-0.025421,-0.335022,-0.002993,7.2e-05,0.001228,-37.369999,12.0,-15.87,2b
2019-07-15_143716:180,-0.36706500000000003,-0.023895,-0.333496,-0.0032979999999999997,-0.000172,0.001625,-37.369999,12.0,-16.25,2b
2019-07-15_143716:200,-0.368591,-0.024384,-0.33300799999999997,-0.00339,-0.000325,0.001655,-37.369999,12.0,-16.25,2b
2019-07-15_143716:220,-0.36654699999999996,-0.025421,-0.335541,-0.0036340000000000005,-0.000172,0.001503,-37.369999,12.0,-15.87,2b
2019-07-15_143716:240,-0.368591,-0.025908999999999998,-0.335541,-0.004,-0.00011100000000000001,0.001655,-37.369999,12.0,-15.87,2b
2019-07-15_143716:260,-0.37011700000000003,-0.026427999999999997,-0.335541,-0.003939,0.000499,0.001564,-37.369999,12.0,-15.87,2b
2019-07-15_143716:280,-0.37112399999999995,-0.026427999999999997,-0.336548,-0.004275,0.0009570000000000001,0.001442,-37.369999,12.0,-15.5,2b
2019-07-15_143716:300,-0.370636,-0.028961,-0.336548,-0.00403,0.001842,0.00132,-37.369999,12.0,-15.5,2b
2019-07-15_143716:320,-0.375214,-0.030487,-0.337067,-0.004091,0.002513,0.001106,-37.75,11.25,-16.25,2b
2019-07-15_143716:340,-0.371643,-0.030487,-0.336548,-0.004091,0.00349,0.000465,-37.75,11.25,-16.25,2b
2019-07-15_143716:360,-0.367584,-0.032013,-0.335541,-0.0037560000000000002,0.0041,7.000000000000001e-06,-37.75,11.25,-16.25,2b
2019-07-15_143716:380,-0.365021,-0.032532,-0.33605999999999997,-0.0036340000000000005,0.004314,-0.0008470000000000001,-37.369999,12.0,-17.5,2b
2019-07-15_143716:400,-0.36349499999999996,-0.03302,-0.334534,-0.002993,0.003886,-0.0013050000000000002,-37.369999,12.0,-17.5,2b
2019-07-15_143716:420,-0.36248800000000003,-0.032013,-0.334015,-0.0022600000000000003,0.003124,-0.001854,-37.75,12.37,-15.87,2b
2019-07-15_143716:440,-0.364014,-0.029968,-0.333496,-0.0015890000000000001,0.0024519999999999998,-0.0019760000000000003,-37.75,12.37,-15.87,2b
2019-07-15_143716:460,-0.36554000000000003,-0.030487,-0.334015,-0.000918,0.00172,-0.001702,-37.75,12.37,-15.87,2b
2019-07-15_143716:480,-0.367584,-0.027435,-0.33300799999999997,-0.000643,0.0016589999999999999,-0.001397,-37.75,12.0,-14.25,2b
2019-07-15_143716:500,-0.37011700000000003,-0.025421,-0.33300799999999997,-0.000796,0.0017809999999999998,-0.0017629999999999998,-37.75,12.0,-14.25,2b
2019-07-15_143716:520,-0.37011700000000003,-0.024384,-0.335022,-0.0014060000000000001,0.0019030000000000002,0.000221,-37.369999,12.0,-15.06,2b
2019-07-15_143716:540,-0.368073,-0.023895,-0.332489,-0.002199,0.0019030000000000002,0.000923,-37.369999,12.0,-15.06,2b
2019-07-15_143716:560,-0.368073,-0.025421,-0.334015,-0.003237,0.0017809999999999998,-0.000634,-37.369999,12.0,-15.06,2b
2019-07-15_143716:580,-0.367584,-0.025421,-0.335022,-0.0037560000000000002,0.001598,-0.0010609999999999999,-37.75,12.0,-15.87,2b
2019-07-15_143716:600,-0.368591,-0.029968,-0.334015,-0.004152,0.00172,-0.000725,-37.75,12.0,-15.87,2b
2019-07-15_143716:620,-0.367584,-0.028961,-0.335541,-0.004275,0.001964,-0.001,-37.75,11.25,-15.5,2b
2019-07-15_143716:640,-0.366058,-0.029968,-0.334015,-0.003664,0.001994,-0.001397,-37.75,11.25,-15.5,2b
2019-07-15_143716:660,-0.36706500000000003,-0.028961,-0.335022,-0.003054,0.002055,-0.001702,-37.75,11.25,-15.5,2b
2019-07-15_143716:680,-0.368073,-0.027435,-0.335022,-0.0025050000000000003,0.002116,-0.00158,-37.75,12.0,-14.68,2b
2019-07-15_143716:700,-0.37011700000000003,-0.027435,-0.333496,-0.0020469999999999998,0.002177,-0.00158,-37.75,12.0,-14.68,2b
2019-07-15_143716:720,-0.370636,-0.025908999999999998,-0.334015,-0.001986,0.002239,-0.001641,-37.369999,11.68,-15.06,2b
2019-07-15_143716:740,-0.37112399999999995,-0.024384,-0.333496,-0.001986,0.002361,-0.0017929999999999999,-37.369999,11.68,-15.06,2b
2019-07-15_143716:760,-0.369598,-0.023895,-0.33300799999999997,-0.002169,0.002635,-0.0017629999999999998,-37.369999,11.68,-15.06,2b
2019-07-15_143716:780,-0.369598,-0.023895,-0.332489,-0.0022600000000000003,0.002757,-0.001702,-37.75,11.25,-15.87,2b
2019-07-15_143716:800,-0.370636,-0.021851,-0.334534,-0.0025960000000000002,0.002849,-0.0010609999999999999,-37.75,11.25,-15.87,2b
2019-07-15_143716:820,-0.374695,-0.022369,-0.33605999999999997,-0.002932,0.0031850000000000003,-0.000786,-38.5,11.68,-16.68,2b
2019-07-15_143716:840,-0.366058,-0.023375999999999997,-0.323853,-0.003878,0.00349,-0.001397,-38.5,11.68,-16.68,2b
2019-07-15_143716:860,-0.360962,-0.023375999999999997,-0.320282,-0.00339,0.002757,-0.0012439999999999999,-38.5,11.68,-16.68,2b
2019-07-15_143716:880,-0.370636,-0.023895,-0.327423,-0.0034509999999999996,0.001842,-0.000664,-37.369999,11.25,-14.68,2b
2019-07-15_143716:900,-0.366058,-0.023375999999999997,-0.326904,-0.0036340000000000005,0.001628,-0.000725,-37.369999,11.25,-14.68,2b
2019-07-15_143716:920,-0.36911,-0.024902,-0.334015,-0.0033280000000000002,0.001598,-0.000908,-37.0,12.37,-15.06,2b
2019-07-15_143716:940,-0.368591,-0.023375999999999997,-0.330475,-0.003237,0.001415,-0.001183,-37.0,12.37,-15.06,2b
2019-07-15_143716:960,-0.367584,-0.022369,-0.332489,-0.003237,0.00114,-0.0011220000000000002,-37.0,12.37,-15.06,2b
2019-07-15_143716:980,-0.368591,-0.022369,-0.332489,-0.003237,0.0010789999999999999,-0.0008470000000000001,-37.75,11.25,-15.5,2b
2019-07-15_143717:000,-0.369598,-0.021851,-0.33300799999999997,-0.00339,0.0008960000000000001,-0.0011220000000000002,-37.75,11.25,-15.5,2b
2019-07-15_143717:020,-0.371643,-0.021332,-0.332489,-0.0034509999999999996,0.0008960000000000001,-0.0013050000000000002,-37.0,10.56,-15.87,2b
2019-07-15_143717:040,-0.37112399999999995,-0.021332,-0.332489,-0.0036340000000000005,0.001201,-0.0011220000000000002,-37.0,10.56,-15.87,2b
2019-07-15_143717:060,-0.370636,-0.021332,-0.334534,-0.0037560000000000002,0.001415,-0.000908,-37.0,10.56,-15.87,2b
2019-07-15_143717:080,-0.372162,-0.022858,-0.335022,-0.003664,0.0016589999999999999,-0.000664,-37.75,11.0,-15.06,2b
2019-07-15_143717:100,-0.372162,-0.021332,-0.33300799999999997,-0.0036340000000000005,0.002177,-0.000573,-37.75,11.0,-15.06,2b
2019-07-15_143717:120,-0.372162,-0.020844,-0.334015,-0.0036340000000000005,0.0023,-5.4000000000000005e-05,-37.0,10.56,-15.5,2b
2019-07-15_143717:140,-0.37011700000000003,-0.021851,-0.33197,-0.0036340000000000005,0.002696,-0.00023700000000000001,-37.0,10.56,-15.5,2b
2019-07-15_143717:160,-0.369598,-0.022369,-0.333496,-0.0037560000000000002,0.002391,-0.000176,-37.0,10.56,-15.5,2b
2019-07-15_143717:180,-0.36911,-0.022369,-0.33197,-0.003939,0.0024519999999999998,-0.00023700000000000001,-37.0,11.68,-16.25,2b
2019-07-15_143717:200,-0.370636,-0.022858,-0.32995599999999997,-0.0036950000000000004,0.002513,-0.00023700000000000001,-37.0,11.68,-16.25,2b
2019-07-15_143717:220,-0.371643,-0.022858,-0.332489,-0.003664,0.002055,-5.4000000000000005e-05,-38.18,11.25,-16.68,2b
2019-07-15_143717:240,-0.372162,-0.023375999999999997,-0.330963,-0.0034509999999999996,0.002239,0.000129,-38.18,11.25,-16.68,2b
2019-07-15_143717:260,-0.371643,-0.021851,-0.333496,-0.003512,0.002513,0.00016,-38.18,11.25,-16.68,2b
2019-07-15_143717:280,-0.372162,-0.021851,-0.33300799999999997,-0.003512,0.002696,7.000000000000001e-06,-38.18,11.68,-15.06,2b
2019-07-15_143717:300,-0.37265,-0.021851,-0.33300799999999997,-0.003573,0.002757,-0.000267,-38.18,11.68,-15.06,2b
2019-07-15_143717:320,-0.372162,-0.022858,-0.331482,-0.00339,0.003124,-0.000634,-38.5,11.68,-15.5,2b
2019-07-15_143717:340,-0.374176,-0.022858,-0.330963,-0.003054,0.00349,-0.000664,-38.5,11.68,-15.5,2b
2019-07-15_143717:360,-0.375214,-0.023375999999999997,-0.331482,-0.0028399999999999996,0.0035810000000000004,-0.000328,-38.5,11.68,-15.5,2b
2019-07-15_143717:380,-0.37674,-0.021332,-0.329437,-0.002382,0.004039,-0.000389,-38.18,11.25,-15.5,2b
2019-07-15_143717:400,-0.37316900000000003,-0.020325,-0.32843,-0.002321,0.004619,0.000343,-38.18,11.25,-15.5,2b
2019-07-15_143717:420,-0.371643,-0.019806,-0.328949,-0.002443,0.004833,0.001625,-38.18,11.0,-14.68,2b
2019-07-15_143717:440,-0.372162,-0.020325,-0.325897,-0.002993,0.00471,0.001167,-38.18,11.0,-14.68,2b
2019-07-15_143717:460,-0.37112399999999995,-0.020325,-0.32486,-0.003664,0.004436,-0.000512,-38.18,11.0,-14.68,2b
2019-07-15_143717:480,-0.37011700000000003,-0.020325,-0.326904,-0.003939,0.004039,-0.000573,-38.5,11.68,-15.06,2b
2019-07-15_143717:500,-0.369598,-0.021332,-0.327911,-0.004275,0.00349,-0.00011499999999999999,-38.5,11.68,-15.06,2b
2019-07-15_143717:520,-0.36911,-0.022858,-0.326904,-0.004152,0.0031850000000000003,-0.00011499999999999999,-37.75,10.18,-15.06,2b
2019-07-15_143717:540,-0.372162,-0.022369,-0.326385,-0.003573,0.002635,-0.00045099999999999996,-37.75,10.18,-15.06,2b
2019-07-15_143717:560,-0.374176,-0.020325,-0.327423,-0.003237,0.002391,-5.4000000000000005e-05,-37.75,10.18,-15.06,2b
2019-07-15_143717:580,-0.37674,-0.021332,-0.326385,-0.003054,0.002574,0.000465,-38.5,11.25,-14.0,2b
2019-07-15_143717:600,-0.377747,-0.018799,-0.326385,-0.002932,0.003093,0.0007700000000000001,-38.5,11.25,-14.0,2b
2019-07-15_143717:620,-0.377228,-0.018799,-0.327423,-0.0033280000000000002,0.0031850000000000003,0.0007700000000000001,-38.18,11.0,-15.5,2b
2019-07-15_143717:640,-0.377747,-0.018799,-0.324371,-0.003939,0.003307,0.001106,-38.18,11.0,-15.5,2b
2019-07-15_143717:660,-0.376221,-0.020325,-0.324371,-0.004213000000000001,0.00352,0.001381,-38.18,11.0,-15.5,2b
2019-07-15_143717:680,-0.375702,-0.020325,-0.324371,-0.004488000000000001,0.003368,0.001442,-37.75,11.25,-14.68,2b
2019-07-15_143717:700,-0.377228,-0.020325,-0.322327,-0.004732,0.003124,0.001838,-37.75,11.25,-14.68,2b
2019-07-15_143717:720,-0.376221,-0.018799,-0.321808,-0.004793,0.003032,0.002571,-38.18,11.25,-14.68,2b
2019-07-15_143717:740,-0.374695,-0.019318000000000002,-0.319275,-0.005282,0.002971,0.001991,-38.18,11.25,-14.68,2b
2019-07-15_143717:760,-0.371643,-0.01828,-0.32132,-0.005739,0.002788,0.001716,-38.18,11.25,-14.68,2b
2019-07-15_143717:780,-0.37112399999999995,-0.020844,-0.324371,-0.005953,0.001994,0.00251,-37.369999,11.25,-14.25,2b
2019-07-15_143717:800,-0.374695,-0.021851,-0.321808,-0.006136,0.001201,0.002754,-37.369999,11.25,-14.25,2b
2019-07-15_143717:820,-0.377228,-0.023375999999999997,-0.32486,-0.006075,0.0009570000000000001,0.002784,-38.18,11.0,-14.25,2b
2019-07-15_143717:840,-0.377747,-0.023895,-0.324371,-0.006075,0.0012619999999999999,0.002571,-38.18,11.0,-14.25,2b
2019-07-15_143717:860,-0.379791,-0.025908999999999998,-0.325378,-0.005678,0.001628,0.0022960000000000003,-38.18,11.0,-14.25,2b
2019-07-15_143717:880,-0.378754,-0.027435,-0.326385,-0.005221,0.001964,0.002235,-37.75,11.68,-15.5,2b
2019-07-15_143717:900,-0.379791,-0.025908999999999998,-0.325897,-0.004793,0.0023,0.001655,-37.75,11.68,-15.5,2b
2019-07-15_143717:920,-0.379791,-0.025908999999999998,-0.325897,-0.004213000000000001,0.002574,0.000984,-38.18,11.68,-14.25,2b
2019-07-15_143717:940,-0.378754,-0.024902,-0.323334,-0.0036340000000000005,0.003124,0.00016,-38.18,11.68,-14.25,2b
2019-07-15_143717:960,-0.375702,-0.023895,-0.323853,-0.003237,0.003368,-0.000328,-38.18,11.68,-14.25,2b
2019-07-15_143717:980,-0.375214,-0.021851,-0.323853,-0.003237,0.003246,-0.000389,-37.75,11.25,-14.25,2b
2019-07-15_143718:000,-0.375702,-0.023375999999999997,-0.322327,-0.002993,0.003032,-0.000176,-37.75,11.25,-14.25,2b
2019-07-15_143718:020,-0.378265,-0.023895,-0.322845,-0.003054,0.002788,7.000000000000001e-06,-38.18,11.25,-14.25,2b
2019-07-15_143718:040,-0.377228,-0.023375999999999997,-0.320801,-0.0031149999999999997,0.002849,0.00016,-38.18,11.25,-14.25,2b
2019-07-15_143718:060,-0.37674,-0.024902,-0.322327,-0.0028399999999999996,0.002696,0.000465,-38.18,11.25,-14.25,2b
2019-07-15_143718:080,-0.378265,-0.024902,-0.322845,-0.002779,0.002635,0.000221,-37.75,11.25,-13.5,2b
2019-07-15_143718:100,-0.377747,-0.024384,-0.322327,-0.002535,0.002696,0.00028199999999999997,-37.75,11.25,-13.5,2b
2019-07-15_143718:120,-0.377747,-0.025908999999999998,-0.320801,-0.0025050000000000003,0.002635,0.000465,-38.18,11.68,-13.87,2b
2019-07-15_143718:140,-0.375702,-0.022858,-0.320282,-0.0028399999999999996,0.0023,0.000496,-38.18,11.68,-13.87,2b
2019-07-15_143718:160,-0.377747,-0.020844,-0.320282,-0.002993,0.0019030000000000002,0.000709,-38.18,11.68,-13.87,2b
2019-07-15_143718:180,-0.37674,-0.021332,-0.320282,-0.003573,0.001628,0.000709,-37.0,11.0,-14.25,2b
2019-07-15_143718:200,-0.374695,-0.021332,-0.320801,-0.004152,0.001537,0.000465,-37.0,11.0,-14.25,2b
2019-07-15_143718:220,-0.376221,-0.022858,-0.321808,-0.004336,0.0009570000000000001,-5.4000000000000005e-05,-37.75,11.25,-14.68,2b
2019-07-15_143718:240,-0.378754,-0.024902,-0.321808,-0.004275,0.000865,-0.000573,-37.75,11.25,-14.68,2b
2019-07-15_143718:260,-0.379791,-0.024384,-0.322845,-0.004152,0.0009570000000000001,-0.000725,-37.75,11.25,-14.68,2b
2019-07-15_143718:280,-0.378754,-0.023375999999999997,-0.322845,-0.003512,0.0010789999999999999,-5.4000000000000005e-05,-38.869999,10.56,-13.87,2b
2019-07-15_143718:300,-0.379272,-0.021332,-0.32132,-0.002993,0.00114,-0.000176,-38.869999,10.56,-13.87,2b
2019-07-15_143718:320,-0.378265,-0.018799,-0.321808,-0.003237,0.001292,0.000496,-38.18,11.0,-15.5,2b
2019-07-15_143718:340,-0.379272,-0.017792,-0.319275,-0.0036950000000000004,0.001018,0.001991,-38.18,11.0,-15.5,2b
2019-07-15_143718:360,-0.379272,-0.020325,-0.322327,-0.004488000000000001,0.000865,0.001228,-38.18,11.0,-15.5,2b
2019-07-15_143718:380,-0.377228,-0.020844,-0.324371,-0.005068,0.0008039999999999999,-0.00023700000000000001,-37.0,11.25,-14.25,2b
2019-07-15_143718:400,-0.375702,-0.021851,-0.321808,-0.005465,0.0008960000000000001,0.00016,-37.0,11.25,-14.25,2b
2019-07-15_143718:420,-0.376221,-0.024384,-0.323334,-0.005129,0.000865,0.000526,-38.5,11.0,-14.68,2b
2019-07-15_143718:440,-0.375702,-0.024384,-0.322845,-0.004427,0.000743,7.000000000000001e-06,-38.5,11.0,-14.68,2b
2019-07-15_143718:460,-0.375702,-0.024384,-0.323853,-0.0036950000000000004,0.000621,6.8e-05,-38.5,11.0,-14.68,2b
2019-07-15_143718:480,-0.378754,-0.022858,-0.323853,-0.002932,0.000743,0.000343,-38.18,11.0,-14.25,2b
2019-07-15_143718:500,-0.379791,-0.020844,-0.323334,-0.0025960000000000002,0.00114,0.000587,-38.18,11.0,-14.25,2b
2019-07-15_143718:520,-0.38028,-0.020325,-0.324371,-0.002657,0.001537,0.000831,-37.0,11.25,-14.68,2b
2019-07-15_143718:540,-0.379272,-0.019806,-0.323853,-0.002932,0.001842,0.000923,-37.0,11.25,-14.68,2b
2019-07-15_143718:560,-0.378754,-0.019318000000000002,-0.322327,-0.0037560000000000002,0.001537,0.0008619999999999999,-37.0,11.25,-14.68,2b
2019-07-15_143718:580,-0.378754,-0.021851,-0.322845,-0.004275,0.001628,0.000496,-37.75,11.25,-14.25,2b
2019-07-15_143718:600,-0.378754,-0.021851,-0.321808,-0.004336,0.0017809999999999998,0.00028199999999999997,-37.75,11.25,-14.25,2b
2019-07-15_143718:620,-0.379272,-0.024384,-0.321808,-0.004427,0.001842,0.000648,-37.369999,10.56,-15.5,2b
2019-07-15_143718:640,-0.377747,-0.023375999999999997,-0.320801,-0.004152,0.0017809999999999998,0.001167,-37.369999,10.56,-15.5,2b
2019-07-15_143718:660,-0.372162,-0.024384,-0.320282,-0.003878,0.001353,0.000465,-37.369999,10.56,-15.5,2b
2019-07-15_143718:680,-0.373688,-0.022858,-0.319275,-0.0036950000000000004,0.000682,7.000000000000001e-06,-37.75,11.68,-14.0,2b
2019-07-15_143718:700,-0.373688,-0.020844,-0.319275,-0.003664,1.1e-05,0.000526,-37.75,11.68,-14.0,2b
2019-07-15_143718:720,-0.375702,-0.020844,-0.321808,-0.003878,-0.000264,0.00028199999999999997,-38.18,11.25,-15.06,2b
2019-07-15_143718:740,-0.378754,-0.021332,-0.323853,-0.004152,7.2e-05,6.8e-05,-38.18,11.25,-15.06,2b
2019-07-15_143718:760,-0.378265,-0.021851,-0.324371,-0.004152,1.1e-05,-5.4000000000000005e-05,-38.18,11.25,-15.06,2b
2019-07-15_143718:780,-0.377747,-0.023375999999999997,-0.327911,-0.004,0.000621,-0.000573,-38.18,11.25,-13.87,2b
2019-07-15_143718:800,-0.377747,-0.022858,-0.32486,-0.0034509999999999996,0.000621,-0.000512,-38.18,11.25,-13.87,2b
2019-07-15_143718:820,-0.375214,-0.023375999999999997,-0.326385,-0.002932,0.0008039999999999999,-0.00045099999999999996,-38.18,11.68,-15.87,2b
2019-07-15_143718:840,-0.376221,-0.021332,-0.325378,-0.002535,0.000682,-0.000328,-38.18,11.68,-15.87,2b
2019-07-15_143718:860,-0.377747,-0.019806,-0.324371,-0.002169,0.0008039999999999999,7.000000000000001e-06,-38.18,11.68,-15.87,2b
2019-07-15_143718:880,-0.375702,-0.01828,-0.325378,-0.0022600000000000003,0.000682,0.000129,-38.5,10.56,-14.68,2b
2019-07-15_143718:900,-0.375214,-0.017273,-0.323334,-0.002718,0.000865,0.000343,-38.5,10.56,-14.68,2b
2019-07-15_143718:920,-0.374176,-0.01828,-0.32486,-0.003573,0.000743,0.000221,-37.75,10.56,-13.5,2b
2019-07-15_143718:940,-0.37674,-0.019318000000000002,-0.32486,-0.004,0.0009570000000000001,0.00028199999999999997,-37.75,10.56,-13.5,2b
2019-07-15_143718:960,-0.377228,-0.020844,-0.32486,-0.003939,0.0010789999999999999,0.000343,-37.75,10.56,-13.5,2b
2019-07-15_143718:980,-0.376221,-0.022369,-0.326904,-0.003817,0.0010789999999999999,0.000404,-36.68,11.25,-15.06,2b
2019-07-15_143719:000,-0.376221,-0.023375999999999997,-0.32486,-0.0034509999999999996,0.00114,0.000404,-36.68,11.25,-15.06,2b
2019-07-15_143719:020,-0.376221,-0.023895,-0.326385,-0.002932,0.0012619999999999999,7.000000000000001e-06,-38.18,10.56,-14.68,2b
2019-07-15_143719:040,-0.375702,-0.023895,-0.326904,-0.002718,0.0012619999999999999,-0.00011499999999999999,-38.18,10.56,-14.68,2b
2019-07-15_143719:060,-0.37674,-0.022369,-0.325378,-0.002657,0.001353,-0.000267,-38.18,10.56,-14.68,2b
2019-07-15_143719:080,-0.375214,-0.021851,-0.325378,-0.002657,0.001628,-0.000634,-38.18,12.0,-14.68,2b
2019-07-15_143719:100,-0.374176,-0.022369,-0.32486,-0.002779,0.001353,-0.000908,-38.18,12.0,-14.68,2b
2019-07-15_143719:120,-0.37674,-0.019806,-0.326385,-0.0029010000000000004,0.001598,-0.0010609999999999999,-38.5,10.56,-15.5,2b
2019-07-15_143719:140,-0.376221,-0.020325,-0.325378,-0.0028399999999999996,0.0014759999999999999,-0.0008470000000000001,-38.5,10.56,-15.5,2b
2019-07-15_143719:160,-0.374176,-0.020325,-0.325897,-0.0029010000000000004,0.001018,-0.000389,-38.5,10.56,-15.5,2b
2019-07-15_143719:180,-0.37674,-0.020325,-0.325378,-0.002535,0.001292,6.8e-05,-38.18,11.0,-14.25,2b
2019-07-15_143719:200,-0.374176,-0.020844,-0.323334,-0.002443,0.0012619999999999999,-5.4000000000000005e-05,-38.18,11.0,-14.25,2b
2019-07-15_143719:220,-0.37316900000000003,-0.01828,-0.32486,-0.002535,0.0014759999999999999,0.000465,-38.5,11.25,-15.06,2b
2019-07-15_143719:240,-0.37674,-0.018799,-0.325378,-0.003054,0.0012619999999999999,0.002357,-38.5,11.25,-15.06,2b
2019-07-15_143719:260,-0.374176,-0.021332,-0.323334,-0.0036340000000000005,0.000865,0.000526,-38.5,11.25,-15.06,2b
2019-07-15_143719:280,-0.371643,-0.021851,-0.325378,-0.004397,0.000346,-0.000908,-37.369999,10.56,-15.06,2b
2019-07-15_143719:300,-0.37265,-0.021332,-0.32486,-0.004336,0.000133,0.000587,-37.369999,10.56,-15.06,2b
2019-07-15_143719:320,-0.374176,-0.024902,-0.328949,-0.004091,1.1e-05,0.000526,-37.75,11.0,-15.06,2b
2019-07-15_143719:340,-0.374695,-0.023895,-0.326904,-0.0036340000000000005,0.000468,-0.00045099999999999996,-37.75,11.0,-15.06,2b
2019-07-15_143719:360,-0.375214,-0.022369,-0.325897,-0.0031149999999999997,0.0008960000000000001,-0.00011499999999999999,-37.75,11.0,-15.06,2b
2019-07-15_143719:380,-0.37316900000000003,-0.021332,-0.327911,-0.002993,0.001201,-0.000328,-38.18,11.25,-14.68,2b
2019-07-15_143719:400,-0.374695,-0.019318000000000002,-0.327423,-0.003054,0.001018,-0.00011499999999999999,-38.18,11.25,-14.68,2b
2019-07-15_143719:420,-0.37674,-0.018799,-0.328949,-0.003237,0.001018,0.000129,-38.18,11.25,-14.68,2b
2019-07-15_143719:440,-0.37674,-0.019318000000000002,-0.327911,-0.003664,0.00114,0.000343,-38.18,11.25,-14.68,2b
2019-07-15_143719:460,-0.376221,-0.019806,-0.328949,-0.0037560000000000002,0.0014759999999999999,0.000465,-38.18,11.25,-14.68,2b
2019-07-15_143719:480,-0.37674,-0.019806,-0.32843,-0.004213000000000001,0.0019030000000000002,0.000343,-38.5,11.68,-14.68,2b
2019-07-15_143719:500,-0.378265,-0.020844,-0.326904,-0.004397,0.001964,0.000923,-38.5,11.68,-14.68,2b
2019-07-15_143719:520,-0.374695,-0.021332,-0.325897,-0.004152,0.002361,0.00132,-37.75,11.25,-13.87,2b
2019-07-15_143719:540,-0.376221,-0.022858,-0.325897,-0.004213000000000001,0.002361,0.000343,-37.75,11.25,-13.87,2b
2019-07-15_143719:560,-0.37316900000000003,-0.021332,-0.32486,-0.004091,0.002177,0.000343,-37.75,11.25,-13.87,2b
2019-07-15_143719:580,-0.372162,-0.021332,-0.323853,-0.004,0.0019030000000000002,0.000984,-37.75,10.18,-14.25,2b
2019-07-15_143719:600,-0.37265,-0.021851,-0.32486,-0.004,0.00172,0.000343,-37.75,10.18,-14.25,2b
2019-07-15_143719:620,-0.373688,-0.021851,-0.323853,-0.004,0.001353,-0.000176,-37.369999,11.0,-15.5,2b
2019-07-15_143719:640,-0.373688,-0.022369,-0.326385,-0.003512,0.001415,-0.00023700000000000001,-37.369999,11.0,-15.5,2b
2019-07-15_143719:660,-0.372162,-0.021332,-0.325897,-0.0034509999999999996,0.00114,-0.000573,-37.369999,11.0,-15.5,2b
2019-07-15_143719:680,-0.37316900000000003,-0.020325,-0.326904,-0.0032979999999999997,0.0009570000000000001,-0.000512,-38.18,11.0,-15.87,2b
2019-07-15_143719:700,-0.374695,-0.020325,-0.326904,-0.0031149999999999997,0.0010789999999999999,-0.000725,-38.18,11.0,-15.87,2b
2019-07-15_143719:720,-0.374695,-0.020844,-0.32843,-0.002932,0.001292,-0.0008470000000000001,-38.18,11.0,-15.87,2b
2019-07-15_143719:740,-0.375702,-0.020325,-0.327423,-0.002993,0.001537,-0.000725,-37.75,10.56,-15.06,2b
2019-07-15_143719:760,-0.374695,-0.019318000000000002,-0.327423,-0.0028399999999999996,0.001353,-0.000786,-37.75,10.56,-15.06,2b
2019-07-15_143719:780,-0.375214,-0.01828,-0.326385,-0.002718,0.00172,-0.000664,-38.869999,10.56,-14.68,2b
2019-07-15_143719:800,-0.375214,-0.017792,-0.325897,-0.002779,0.0017809999999999998,-0.000267,-38.869999,10.56,-14.68,2b
2019-07-15_143719:820,-0.375702,-0.017792,-0.325378,-0.002932,0.0016589999999999999,7.000000000000001e-06,-37.75,10.18,-13.87,2b
2019-07-15_143719:840,-0.374176,-0.016753999999999998,-0.326385,-0.0036340000000000005,0.001598,0.000221,-37.75,10.18,-13.87,2b
2019-07-15_143719:860,-0.374176,-0.017792,-0.326904,-0.0037560000000000002,0.0014759999999999999,0.000404,-37.75,10.18,-13.87,2b
2019-07-15_143719:880,-0.375214,-0.017792,-0.325897,-0.003878,0.001598,0.000465,-37.369999,11.25,-15.06,2b
2019-07-15_143719:900,-0.373688,-0.019318000000000002,-0.325378,-0.00403,0.00172,0.000465,-37.369999,11.25,-15.06,2b
2019-07-15_143719:920,-0.37316900000000003,-0.020325,-0.326385,-0.004,0.00172,0.000526,-37.75,11.0,-13.5,2b
2019-07-15_143719:940,-0.372162,-0.020325,-0.327423,-0.0037560000000000002,0.001292,7.000000000000001e-06,-37.75,11.0,-13.5,2b
2019-07-15_143719:960,-0.374176,-0.021851,-0.327911,-0.003512,0.001353,-0.00045099999999999996,-37.75,11.0,-13.5,2b
2019-07-15_143719:980,-0.374695,-0.021851,-0.326904,-0.003054,0.0014759999999999999,-0.00011499999999999999,-38.5,11.25,-13.5,2b
2019-07-15_143720:000,-0.374695,-0.020325,-0.326385,-0.002657,0.001598,-0.00011499999999999999,-38.5,11.25,-13.5,2b
2019-07-15_143720:020,-0.377747,-0.018799,-0.327423,-0.0025050000000000003,0.001598,-0.000634,-38.869999,10.56,-13.5,2b
2019-07-15_143720:040,-0.374695,-0.015747,-0.326904,-0.0029010000000000004,0.001964,0.000496,-38.869999,10.56,-13.5,2b
2019-07-15_143720:060,-0.374695,-0.016266,-0.325378,-0.0034509999999999996,0.0017809999999999998,0.0021739999999999997,-38.869999,10.56,-13.5,2b
2019-07-15_143720:080,-0.374695,-0.01828,-0.326385,-0.004275,0.001628,0.001167,-38.18,11.0,-15.5,2b
2019-07-15_143720:100,-0.37112399999999995,-0.019318000000000002,-0.325897,-0.005068,0.001415,-0.000664,-38.18,11.0,-15.5,2b
2019-07-15_143720:120,-0.37011700000000003,-0.019806,-0.326385,-0.005007,0.00114,0.000343,-38.18,11.0,-15.5,2b
2019-07-15_143720:140,-0.372162,-0.022858,-0.327423,-0.005068,0.00114,0.000709,-38.5,10.56,-14.25,2b
2019-07-15_143720:160,-0.374176,-0.020325,-0.32843,-0.004549,0.0010789999999999999,0.00016,-38.5,10.56,-14.25,2b
2019-07-15_143720:180,-0.375214,-0.020844,-0.32843,-0.0036950000000000004,0.001353,0.000404,-38.5,11.25,-14.68,2b
2019-07-15_143720:200,-0.376221,-0.020844,-0.327423,-0.003054,0.001537,0.000465,-38.5,11.25,-14.68,2b
2019-07-15_143720:220,-0.375702,-0.01828,-0.327911,-0.002993,0.001537,0.000343,-37.75,11.0,-14.25,2b
2019-07-15_143720:240,-0.375214,-0.017792,-0.327911,-0.003054,0.001598,0.0007700000000000001,-37.75,11.0,-14.25,2b
2019-07-15_143720:260,-0.375214,-0.017273,-0.326385,-0.0033280000000000002,0.001598,0.000526,-37.75,11.0,-14.25,2b
2019-07-15_143720:280,-0.375214,-0.01828,-0.327911,-0.003878,0.001628,0.00028199999999999997,-38.5,10.56,-14.68,2b
2019-07-15_143720:300,-0.375214,-0.018799,-0.326385,-0.004213000000000001,0.0019030000000000002,0.00028199999999999997,-38.5,10.56,-14.68,2b
2019-07-15_143720:320,-0.377228,-0.020325,-0.327911,-0.004275,0.002055,0.000404,-38.5,11.0,-14.25,2b
2019-07-15_143720:340,-0.373688,-0.020325,-0.327911,-0.004213000000000001,0.0019030000000000002,0.000648,-38.5,11.0,-14.25,2b
2019-07-15_143720:360,-0.375214,-0.020844,-0.328949,-0.004,0.002116,0.000526,-38.5,11.0,-14.25,2b
2019-07-15_143720:380,-0.379272,-0.020325,-0.330475,-0.003817,0.002116,-0.000328,-38.18,11.25,-14.68,2b
2019-07-15_143720:400,-0.367584,-0.020844,-0.32132,-0.004091,0.002361,-5.4000000000000005e-05,-38.18,11.25,-14.68,2b
2019-07-15_143720:420,-0.37112399999999995,-0.020844,-0.317749,-0.003512,0.001537,0.000587,-38.18,11.0,-15.87,2b
2019-07-15_143720:440,-0.377228,-0.018799,-0.322845,-0.003512,0.0009570000000000001,-0.00011499999999999999,-38.18,11.0,-15.87,2b
2019-07-15_143720:460,-0.376221,-0.01828,-0.327911,-0.003664,0.001201,-0.000328,-38.18,11.0,-15.87,2b
2019-07-15_143720:480,-0.375214,-0.019806,-0.329437,-0.0036340000000000005,0.001353,-0.00023700000000000001,-38.869999,11.0,-15.06,2b
2019-07-15_143720:500,-0.373688,-0.020844,-0.328949,-0.0037560000000000002,0.00172,-0.000573,-38.869999,11.0,-15.06,2b
2019-07-15_143720:520,-0.37112399999999995,-0.019318000000000002,-0.327423,-0.0032979999999999997,0.0019030000000000002,-0.000389,-38.869999,11.0,-15.06,2b
2019-07-15_143720:540,-0.373688,-0.017273,-0.327423,-0.003054,0.001598,-0.000389,-38.18,10.18,-15.5,2b
2019-07-15_143720:560,-0.374695,-0.017792,-0.326904,-0.003054,0.00172,-0.000725,-38.18,10.18,-15.5,2b
2019-07-15_143720:580,-0.375702,-0.01828,-0.32843,-0.002993,0.001842,-0.000389,-38.18,10.56,-13.87,2b
2019-07-15_143720:600,-0.375214,-0.016266,-0.325897,-0.003054,0.001964,-0.000176,-38.18,10.56,-13.87,2b
2019-07-15_143720:620,-0.374695,-0.017792,-0.327423,-0.0031149999999999997,0.0019030000000000002,-5.4000000000000005e-05,-37.75,10.18,-15.5,2b
2019-07-15_143720:640,-0.375702,-0.018799,-0.327423,-0.0032979999999999997,0.002055,0.000221,-37.75,10.18,-15.5,2b
2019-07-15_143720:660,-0.376221,-0.016753999999999998,-0.325897,-0.00339,0.001994,6.8e-05,-37.75,10.18,-15.5,2b
2019-07-15_143720:680,-0.375702,-0.020325,-0.327423,-0.003512,0.002177,0.00016,-37.75,10.56,-14.68,2b
2019-07-15_143720:700,-0.375214,-0.01828,-0.325378,-0.0034509999999999996,0.002239,6.8e-05,-37.75,10.56,-14.68,2b
2019-07-15_143720:720,-0.374695,-0.020325,-0.326385,-0.0032979999999999997,0.002391,-0.00011499999999999999,-37.75,10.56,-14.68,2b
2019-07-15_143720:740,-0.374176,-0.020844,-0.326904,-0.003054,0.002239,-0.000328,-37.75,10.56,-14.25,2b
2019-07-15_143720:760,-0.375702,-0.020844,-0.326385,-0.002779,0.002239,-0.000786,-37.75,10.56,-14.25,2b
2019-07-15_143720:780,-0.374176,-0.021332,-0.325378,-0.002199,0.0023,-0.001,-38.18,11.0,-14.68,2b
2019-07-15_143720:800,-0.375702,-0.020844,-0.32486,-0.0018030000000000001,0.002391,-0.0010609999999999999,-38.18,11.0,-14.68,2b
2019-07-15_143720:820,-0.375702,-0.020325,-0.32486,-0.001253,0.0023,-0.0009689999999999999,-38.18,11.0,-14.68,2b
2019-07-15_143720:840,-0.378754,-0.01828,-0.32486,-0.00107,0.002361,-0.001397,-38.18,10.18,-14.25,2b
2019-07-15_143720:860,-0.375702,-0.016753999999999998,-0.324371,-0.000734,0.0023,-0.000634,-38.18,10.18,-14.25,2b
2019-07-15_143720:880,-0.373688,-0.017273,-0.32486,-0.000918,0.002361,0.000496,-37.75,10.18,-13.06,2b
2019-07-15_143720:900,-0.374176,-0.01828,-0.323853,-0.0015279999999999998,0.002177,-0.00023700000000000001,-37.75,10.18,-13.06,2b
2019-07-15_143720:920,-0.374695,-0.017273,-0.32486,-0.0022600000000000003,0.0017809999999999998,-0.0017929999999999999,-37.75,10.18,-13.06,2b
2019-07-15_143720:940,-0.374176,-0.020844,-0.325378,-0.002535,0.0017809999999999998,-0.00158,-37.369999,10.56,-14.25,2b
2019-07-15_143720:960,-0.376221,-0.021332,-0.324371,-0.002657,0.001964,-0.0012439999999999999,-37.369999,10.56,-14.25,2b
2019-07-15_143720:980,-0.373688,-0.019806,-0.32843,-0.0020469999999999998,0.002116,-0.001458,-38.869999,11.0,-14.25,2b
2019-07-15_143721:000,-0.378754,-0.022858,-0.326904,-0.001467,0.0023,-0.0023120000000000003,-38.869999,11.0,-14.25,2b
2019-07-15_143721:020,-0.380798,-0.018799,-0.325378,-0.0006730000000000001,0.003124,-0.001458,-38.869999,11.0,-14.25,2b
2019-07-15_143721:040,-0.377747,-0.017792,-0.326385,0.000334,0.003764,0.0007700000000000001,-38.5,10.18,-14.25,2b
2019-07-15_143721:060,-0.37674,-0.018799,-0.323853,0.000212,0.003764,0.000923,-38.5,10.18,-14.25,2b
2019-07-15_143721:080,-0.375702,-0.017792,-0.322845,5.9e-05,0.00349,0.001167,-37.75,10.18,-13.87,2b
2019-07-15_143721:100,-0.377747,-0.019318000000000002,-0.32132,0.000273,0.00352,0.0026320000000000002,-37.75,10.18,-13.87,2b
2019-07-15_143721:120,-0.377228,-0.019806,-0.321808,-0.000246,0.003246,0.00196,-37.75,10.18,-13.87,2b
2019-07-15_143721:140,-0.380798,-0.01828,-0.319794,-0.000734,0.003124,0.001045,-38.18,11.0,-13.87,2b
2019-07-15_143721:160,-0.377228,-0.01828,-0.319275,-0.001467,0.002849,0.001838,-38.18,11.0,-13.87,2b
2019-07-15_143721:180,-0.378754,-0.019806,-0.319794,-0.0022600000000000003,0.003032,0.00196,-38.5,11.0,-13.5,2b
2019-07-15_143721:200,-0.377228,-0.01828,-0.317749,-0.002993,0.002971,0.001503,-38.5,11.0,-13.5,2b
2019-07-15_143721:220,-0.37674,-0.019806,-0.320801,-0.003573,0.002696,0.001228,-38.5,11.0,-13.5,2b
2019-07-15_143721:240,-0.377747,-0.021332,-0.319275,-0.004152,0.002239,0.001228,-38.869999,10.56,-14.25,2b
2019-07-15_143721:260,-0.378265,-0.024384,-0.318756,-0.004397,0.001842,0.001381,-38.869999,10.56,-14.25,2b
2019-07-15_143721:280,-0.377228,-0.023895,-0.320801,-0.004336,0.00172,0.0008619999999999999,-38.5,11.25,-13.06,2b
2019-07-15_143721:300,-0.378754,-0.024384,-0.320801,-0.004336,0.0016589999999999999,0.000587,-38.5,11.25,-13.06,2b
2019-07-15_143721:320,-0.377228,-0.024902,-0.320801,-0.004,0.001415,0.000648,-38.5,11.25,-13.06,2b
2019-07-15_143721:340,-0.37674,-0.022858,-0.322327,-0.0036950000000000004,0.00114,0.000404,-38.18,11.0,-14.68,2b
2019-07-15_143721:360,-0.376221,-0.023375999999999997,-0.320801,-0.0033280000000000002,0.0008960000000000001,0.000129,-38.18,11.0,-14.68,2b
2019-07-15_143721:380,-0.379272,-0.022369,-0.322327,-0.003054,0.000743,0.000496,-38.18,10.56,-14.25,2b
2019-07-15_143721:400,-0.379791,-0.021851,-0.321808,-0.003054,0.000865,0.00016,-38.18,10.56,-14.25,2b
2019-07-15_143721:420,-0.38028,-0.020844,-0.323853,-0.003176,0.001201,0.000343,-38.18,10.56,-14.25,2b
2019-07-15_143721:440,-0.378265,-0.021332,-0.322327,-0.003573,0.001292,0.000709,-38.5,10.18,-13.5,2b
2019-07-15_143721:460,-0.378754,-0.020325,-0.320801,-0.003664,0.001353,0.000587,-38.5,10.18,-13.5,2b
2019-07-15_143721:480,-0.378265,-0.021332,-0.322845,-0.003878,0.001292,0.000709,-37.75,11.25,-14.68,2b
2019-07-15_143721:500,-0.378754,-0.022858,-0.319794,-0.004275,0.001292,0.0007700000000000001,-37.75,11.25,-14.68,2b
2019-07-15_143721:520,-0.377228,-0.023895,-0.32132,-0.004152,0.001415,0.000923,-37.75,11.25,-14.68,2b
2019-07-15_143721:540,-0.377228,-0.024902,-0.320801,-0.004397,0.001415,0.001045,-38.5,11.25,-13.87,2b
2019-07-15_143721:560,-0.377747,-0.024902,-0.319794,-0.004152,0.0009570000000000001,0.000709,-38.5,11.25,-13.87,2b
2019-07-15_143721:580,-0.37674,-0.025908999999999998,-0.32132,-0.00403,0.0008039999999999999,0.0007700000000000001,-37.369999,10.18,-13.87,2b
2019-07-15_143721:600,-0.377228,-0.025421,-0.32132,-0.003664,0.000743,0.000404,-37.369999,10.18,-13.87,2b
2019-07-15_143721:620,-0.377228,-0.024384,-0.323334,-0.0034509999999999996,0.000407,-5.4000000000000005e-05,-37.369999,10.18,-13.87,2b
2019-07-15_143721:640,-0.379272,-0.024902,-0.322327,-0.003237,0.000285,-0.000328,-38.5,11.25,-14.68,2b
2019-07-15_143721:660,-0.378265,-0.023375999999999997,-0.322845,-0.003237,0.00016299999999999998,-0.000634,-38.5,11.25,-14.68,2b
2019-07-15_143721:680,-0.37674,-0.024384,-0.322845,-0.002779,0.000407,7.000000000000001e-06,-38.18,10.56,-13.5,2b
2019-07-15_143721:700,-0.377747,-0.021332,-0.319794,-0.002718,0.000346,-0.000389,-38.18,10.56,-13.5,2b
2019-07-15_143721:720,-0.377747,-0.021851,-0.324371,-0.002932,0.00022400000000000002,0.000343,-38.18,10.56,-13.5,2b
2019-07-15_143721:740,-0.378754,-0.022369,-0.323334,-0.003176,0.000407,0.00132,-38.18,10.18,-14.68,2b
2019-07-15_143721:760,-0.376221,-0.023375999999999997,-0.323853,-0.0036950000000000004,0.000285,0.000587,-38.18,10.18,-14.68,2b
2019-07-15_143721:780,-0.373688,-0.021851,-0.323853,-0.004213000000000001,0.00022400000000000002,-0.000725,-39.25,11.25,-13.87,2b
2019-07-15_143721:800,-0.37316900000000003,-0.024384,-0.323853,-0.004397,0.00016299999999999998,-0.00045099999999999996,-39.25,11.25,-13.87,2b
2019-07-15_143721:820,-0.37265,-0.025908999999999998,-0.327423,-0.004091,-0.000264,-0.000328,-39.25,11.25,-13.87,2b
2019-07-15_143721:840,-0.372162,-0.025908999999999998,-0.327911,-0.003573,-0.00044699999999999997,-0.0011220000000000002,-37.75,10.18,-14.25,2b
2019-07-15_143721:860,-0.374176,-0.024384,-0.326904,-0.0025960000000000002,-0.000661,-0.00158,-37.75,10.18,-14.25,2b
2019-07-15_143721:880,-0.377747,-0.023375999999999997,-0.32843,-0.001864,-0.0008439999999999999,-0.0013050000000000002,-38.18,10.18,-14.25,2b
2019-07-15_143721:900,-0.38028,-0.020844,-0.326904,-0.001131,-0.000508,-0.0010609999999999999,-38.18,10.18,-14.25,2b
2019-07-15_143721:920,-0.381317,-0.021851,-0.32843,-0.00107,0.000468,-0.0009689999999999999,-38.18,10.18,-14.25,2b
2019-07-15_143721:940,-0.378754,-0.021851,-0.327423,-0.001314,0.001018,-0.0013050000000000002,-38.18,9.75,-13.87,2b
2019-07-15_143721:960,-0.376221,-0.021851,-0.326385,-0.0014060000000000001,0.001292,-0.001702,-38.18,9.75,-13.87,2b
2019-07-15_143721:980,-0.375702,-0.023895,-0.325897,-0.0015890000000000001,0.00172,-0.002037,-38.18,11.0,-14.25,2b
2019-07-15_143722:000,-0.378265,-0.025908999999999998,-0.32486,-0.0015279999999999998,0.001598,-0.0023120000000000003,-38.18,11.0,-14.25,2b
2019-07-15_143722:020,-0.376221,-0.025908999999999998,-0.323853,-0.0009789999999999998,0.001598,-0.002526,-38.18,11.0,-14.25,2b
2019-07-15_143722:040,-0.375702,-0.025908999999999998,-0.322845,-0.000857,0.001994,-0.00277,-38.869999,10.18,-14.25,2b
2019-07-15_143722:060,-0.375702,-0.024902,-0.323853,-0.000277,0.002055,-0.0033799999999999998,-38.869999,10.18,-14.25,2b
2019-07-15_143722:080,-0.37674,-0.026427999999999997,-0.32486,0.00011999999999999999,0.001964,-0.003899,-37.75,10.56,-15.87,2b
2019-07-15_143722:100,-0.376221,-0.027954000000000003,-0.325897,0.000852,0.0019030000000000002,-0.004235,-37.75,10.56,-15.87,2b
2019-07-15_143722:120,-0.37674,-0.027435,-0.329437,0.0016460000000000001,0.0023,-0.00515,-37.75,10.56,-15.87,2b
2019-07-15_143722:140,-0.378265,-0.029480000000000003,-0.32843,0.00247,0.002239,-0.005944,-38.18,10.56,-13.87,2b
2019-07-15_143722:160,-0.376221,-0.028442000000000002,-0.327911,0.003721,0.002849,-0.0075,-38.18,10.56,-13.87,2b
2019-07-15_143722:180,-0.375702,-0.024902,-0.327423,0.005644,0.0031850000000000003,-0.009148,-38.18,10.56,-14.25,2b
2019-07-15_143722:200,-0.37316900000000003,-0.022858,-0.323334,0.006101,0.003368,-0.009087,-38.18,10.56,-14.25,2b
2019-07-15_143722:220,-0.37112399999999995,-0.019318000000000002,-0.322327,0.006986,0.002849,-0.0078049999999999994,-38.18,10.56,-14.25,2b
2019-07-15_143722:240,-0.37011700000000003,-0.016753999999999998,-0.322327,0.006956,0.002055,-0.007347,-39.25,10.56,-13.5,2b
2019-07-15_143722:260,-0.37265,-0.014740000000000001,-0.321808,0.006651000000000001,0.0012619999999999999,-0.007103,-39.25,10.56,-13.5,2b
2019-07-15_143722:280,-0.375214,-0.015747,-0.323853,0.005857,0.000499,-0.006951000000000001,-38.869999,10.18,-14.68,2b
2019-07-15_143722:300,-0.377747,-0.016753999999999998,-0.325378,0.004789,0.000468,-0.006768000000000001,-38.869999,10.18,-14.68,2b
2019-07-15_143722:320,-0.378754,-0.015747,-0.325897,0.003721,0.001018,-0.006371,-38.869999,10.18,-14.68,2b
2019-07-15_143722:340,-0.375214,-0.014221000000000001,-0.325897,0.002409,0.001201,-0.006096,-38.18,9.75,-13.5,2b
