timestamp,AccX,AccY,AccZ,GyroX,GyroY,GyroZ,MagX,MagY,MagZ,Activity
2019-07-15_141016:360,-0.34368899999999997,0.005065999999999999,-0.36044299999999996,-0.0018030000000000001,0.00584,-0.005089,-26.25,-25.059998999999998,-26.25,1a
2019-07-15_141016:380,-0.34063699999999997,0.006592,-0.361969,-0.001131,0.003917,-0.004815,-26.25,-25.059998999999998,-26.25,1a
2019-07-15_141016:400,-0.341644,0.006592,-0.36349499999999996,-0.000124,0.001628,-0.003899,-26.25,-25.059998999999998,-26.25,1a
2019-07-15_141016:420,-0.337067,0.004059,-0.37674,0.001463,-0.00124,-0.0023120000000000003,-25.18,-25.370001000000002,-25.5,1a
2019-07-15_141016:440,-0.347748,0.001495,-0.386383,0.003935,-0.002644,-0.001366,-25.18,-25.370001000000002,-25.5,1a
2019-07-15_141016:460,-0.375702,0.002014,-0.396057,0.005918,0.000499,-0.002892,-25.870001000000002,-24.68,-26.25,1a
2019-07-15_141016:480,-0.37674,0.007111,-0.39859,0.006437000000000001,0.00471,-0.004845,-25.870001000000002,-24.68,-26.25,1a
2019-07-15_141016:500,-0.369598,0.012177,-0.38739,0.005461,0.007823,-0.004418,-25.870001000000002,-24.68,-26.25,1a
2019-07-15_141016:520,-0.355896,0.0025329999999999997,-0.37674,0.005979,0.00822,-0.003899,-26.25,-25.059998999999998,-25.870001000000002,1a
2019-07-15_141016:540,-0.348267,-0.020844,-0.36554000000000003,0.009214,0.006023,-0.005974,-26.25,-25.059998999999998,-25.870001000000002,1a
2019-07-15_141016:560,-0.36911,-0.024902,-0.365021,0.011106,0.004619,-0.007012000000000001,-25.870001000000002,-24.25,-25.870001000000002,1a
2019-07-15_141016:580,-0.382324,-0.022858,-0.354858,0.015409,0.0069689999999999995,-0.005944,-25.870001000000002,-24.25,-25.870001000000002,1a
2019-07-15_141016:600,-0.377747,-0.024902,-0.348267,0.015653,0.009807,-0.004448,-25.870001000000002,-24.25,-25.870001000000002,1a
2019-07-15_141016:620,-0.34875500000000004,-0.029480000000000003,-0.339111,0.014952000000000002,0.010326,-0.0035020000000000003,-25.870001000000002,-24.68,-25.870001000000002,1a
2019-07-15_141016:640,-0.34265100000000004,-0.037598,-0.331482,0.012693000000000001,0.008678,-0.003167,-25.870001000000002,-24.68,-25.870001000000002,1a
2019-07-15_141016:660,-0.34570300000000004,-0.047272,-0.321808,0.012205,0.00761,-0.004815,-26.68,-23.870001000000002,-26.25,1a
2019-07-15_141016:680,-0.37112399999999995,-0.053375,-0.31723,0.011106,0.008617,-0.010491,-26.68,-23.870001000000002,-26.25,1a
2019-07-15_141016:700,-0.366058,-0.061005,-0.320801,0.011747,0.010020000000000001,-0.010856999999999999,-26.68,-23.870001000000002,-26.25,1a
2019-07-15_141016:720,-0.364532,-0.056427,-0.32486,0.0119,0.010081999999999999,-0.009728,-26.68,-24.25,-26.25,1a
2019-07-15_141016:740,-0.36044299999999996,-0.048279,-0.315704,0.009825,0.008556,-0.004174000000000001,-26.68,-24.25,-26.25,1a
2019-07-15_141016:760,-0.368591,-0.043701,-0.310638,0.007902,0.007426,-0.002373,-27.370001000000002,-23.75,-26.25,1a
2019-07-15_141016:780,-0.36248800000000003,-0.045226999999999996,-0.29895,0.002073,0.003825,-0.000634,-27.370001000000002,-23.75,-26.25,1a
2019-07-15_141016:800,-0.36044299999999996,-0.051330999999999995,-0.298431,0.000151,0.000499,-0.004174000000000001,-27.370001000000002,-23.75,-26.25,1a
2019-07-15_141016:820,-0.388916,-0.058441,-0.296387,0.000151,-0.000661,-0.007073,-26.68,-23.5,-28.0,1a
2019-07-15_141016:840,-0.401123,-0.056915,-0.29486100000000004,-0.000185,0.002055,-0.013328999999999999,-26.68,-23.5,-28.0,1a
2019-07-15_141016:860,-0.392487,-0.051849,-0.29895,0.000151,0.0041,-0.013938999999999998,-26.25,-23.75,-26.75,1a
2019-07-15_141016:880,-0.380798,-0.050842,-0.305054,-0.000246,0.0069689999999999995,-0.017723,-26.25,-23.75,-26.75,1a
2019-07-15_141016:900,-0.37011700000000003,-0.041168,-0.311127,-0.000521,0.005779,-0.019249000000000002,-26.25,-23.75,-26.75,1a
2019-07-15_141016:920,-0.377747,-0.044739,-0.31369,0.000151,0.0041,-0.017113,-25.870001000000002,-24.559998999999998,-26.75,1a
2019-07-15_141016:940,-0.383331,-0.044219999999999995,-0.313171,0.002317,0.004771,-0.015434999999999999,-25.870001000000002,-24.559998999999998,-26.75,1a
2019-07-15_141016:960,-0.377747,-0.034058,-0.31723,0.003782,0.00648,-0.014275,-26.68,-24.559998999999998,-25.870001000000002,1a
2019-07-15_141016:980,-0.369598,-0.035583,-0.32132,0.004057,0.006358,-0.012261,-26.68,-24.559998999999998,-25.870001000000002,1a
2019-07-15_141017:000,-0.35791,-0.045226999999999996,-0.32486,0.005308,0.005168,-0.010125,-26.68,-24.559998999999998,-25.870001000000002,1a
2019-07-15_141017:020,-0.35791,-0.048798,-0.328949,0.006101,0.004039,-0.009667,-26.25,-25.25,-26.75,1a
2019-07-15_141017:040,-0.33758499999999997,-0.036072,-0.330475,0.006712,0.0008039999999999999,-0.008477,-26.25,-25.25,-26.75,1a
2019-07-15_141017:060,-0.325378,-0.024384,-0.33197,0.00543,-0.001118,-0.007622,-25.870001000000002,-25.0,-27.18,1a
2019-07-15_141017:080,-0.32843,-0.031494,-0.322845,-0.00165,-0.009816,-0.005639,-25.870001000000002,-25.0,-27.18,1a
2019-07-15_141017:100,-0.348267,-0.039642000000000004,-0.326385,-0.003939,-0.012776000000000001,-0.008019,-25.870001000000002,-25.0,-27.18,1a
2019-07-15_141017:120,-0.364014,-0.028961,-0.331482,-0.004671,-0.012532,-0.008812,-24.75,-25.0,-26.75,1a
2019-07-15_141017:140,-0.382324,-0.025908999999999998,-0.33300799999999997,-0.007143000000000001,-0.008870000000000001,-0.00869,-24.75,-25.0,-26.75,1a
2019-07-15_141017:160,-0.389954,-0.028961,-0.33758499999999997,-0.008059,-0.005696,-0.009209,-24.75,-25.0,-26.75,1a
2019-07-15_141017:180,-0.36911,-0.026917,-0.341644,-0.010256,0.0029100000000000003,-0.010888,-24.75,-25.25,-28.370001000000002,1a
2019-07-15_141017:200,-0.350281,-0.022369,-0.339111,-0.011781999999999999,0.004649,-0.009819,-24.75,-25.25,-28.370001000000002,1a
2019-07-15_141017:220,-0.35131799999999996,-0.015747,-0.332489,-0.012972,0.004894,-0.008873,-24.75,-25.25,-28.370001000000002,1a
2019-07-15_141017:240,-0.371643,-0.01828,-0.328949,-0.018343,0.006938,-0.004174000000000001,-24.75,-25.25,-28.370001000000002,1a
2019-07-15_141017:260,-0.37316900000000003,-0.025421,-0.335022,-0.018557,0.009073999999999999,-0.0021899999999999997,-24.75,-25.25,-28.370001000000002,1a
2019-07-15_141017:280,-0.36349499999999996,-0.027435,-0.3396,-0.017306000000000002,0.012126000000000001,0.001991,-25.18,-26.059998999999998,-26.75,1a
2019-07-15_141017:300,-0.40063499999999996,-0.03302,-0.34674099999999997,-0.015413,0.009013,0.008827,-25.18,-26.059998999999998,-26.75,1a
2019-07-15_141017:320,-0.417908,-0.040161,-0.359955,-0.014162000000000001,0.006418999999999999,0.011604000000000001,-25.18,-26.370001000000002,-28.0,1a
2019-07-15_141017:340,-0.43927,-0.026427999999999997,-0.349792,-0.013918,0.00883,0.008551999999999999,-25.18,-26.370001000000002,-28.0,1a
2019-07-15_141017:360,-0.42858900000000005,-0.012177,-0.346222,-0.016694999999999998,0.010143000000000001,0.006934999999999999,-25.18,-26.370001000000002,-28.0,1a
2019-07-15_141017:380,-0.41586300000000004,-0.026427999999999997,-0.33197,-0.020418000000000002,0.016063,0.003303,-25.870001000000002,-26.059998999999998,-26.370001000000002,1a
2019-07-15_141017:400,-0.374176,-0.043701,-0.304535,-0.017275,0.021343,-0.003655,-25.870001000000002,-26.059998999999998,-26.370001000000002,1a
2019-07-15_141017:420,-0.349274,-0.046752999999999996,-0.29742399999999997,-0.012972,0.022563,-0.007012000000000001,-25.5,-26.059998999999998,-25.18,1a
2019-07-15_141017:440,-0.34875500000000004,-0.035583,-0.29895,0.0027140000000000003,0.018626,-0.015068000000000002,-25.5,-26.059998999999998,-25.18,1a
2019-07-15_141017:460,-0.373688,-0.036072,-0.30300900000000003,0.008634000000000001,0.016368,-0.017296000000000002,-25.870001000000002,-27.18,-25.559998999999998,1a
2019-07-15_141017:480,-0.394531,-0.047791,-0.315704,0.023252000000000002,0.013713,-0.0234,-25.870001000000002,-27.18,-25.559998999999998,1a
2019-07-15_141017:500,-0.39502,-0.054901,-0.333496,0.051451,0.015971,-0.032921,-25.870001000000002,-27.18,-25.559998999999998,1a
2019-07-15_141017:520,-0.38739,-0.051849,-0.352325,0.062466999999999995,0.017558,-0.033654,-26.68,-27.5,-26.370001000000002,1a
2019-07-15_141017:540,-0.394012,-0.057953,-0.359955,0.095457,0.021373,-0.031639,-26.68,-27.5,-26.370001000000002,1a
2019-07-15_141017:560,-0.39859,-0.058960000000000005,-0.352325,0.10653499999999999,0.024272,-0.032433,-26.68,-27.5,-26.370001000000002,1a
2019-07-15_141017:580,-0.417908,-0.056427,-0.349274,0.13280999999999998,0.033519,-0.037804000000000004,-25.5,-26.370001000000002,-27.559998999999998,1a
2019-07-15_141017:600,-0.435699,-0.056915,-0.349274,0.139921,0.036357,-0.039421,-25.5,-26.370001000000002,-27.559998999999998,1a
2019-07-15_141017:620,-0.42858900000000005,-0.052338,-0.353333,0.152067,0.041208999999999996,-0.045647,-26.25,-24.559998999999998,-28.370001000000002,1a
2019-07-15_141017:640,-0.407227,-0.026427999999999997,-0.344177,0.16070299999999998,0.04539,-0.053489999999999996,-26.25,-24.559998999999998,-28.370001000000002,1a
2019-07-15_141017:660,-0.394531,-0.016266,-0.335022,0.164823,0.045787,-0.056878,-26.25,-24.559998999999998,-28.370001000000002,1a
2019-07-15_141017:680,-0.393005,-0.0030210000000000002,-0.323334,0.16522,0.044444,-0.058677999999999994,-27.0,-21.5,-31.559998999999998,1a
2019-07-15_141017:700,-0.395538,0.008118,-0.308075,0.162626,0.041942,-0.061302999999999996,-27.0,-21.5,-31.559998999999998,1a
2019-07-15_141017:720,-0.405212,0.020844,-0.280121,0.15579,0.039287,-0.060265,-26.68,-18.18,-32.75,1a
2019-07-15_141017:740,-0.411804,0.021851,-0.263336,0.145964,0.037607999999999996,-0.056267,-26.68,-18.18,-32.75,1a
2019-07-15_141017:760,-0.426544,0.014221000000000001,-0.240479,0.13409200000000002,0.036876,-0.051963999999999996,-26.68,-18.18,-32.75,1a
2019-07-15_141017:780,-0.426544,0.006072999999999999,-0.22927899999999998,0.121549,0.037486,-0.046379000000000004,-27.75,-14.06,-34.68,1a
2019-07-15_141017:800,-0.417908,-0.000488,-0.21453899999999998,0.110044,0.038341,-0.041191000000000005,-27.75,-14.06,-34.68,1a
2019-07-15_141017:820,-0.40316799999999997,-0.0035399999999999997,-0.20285,0.098631,0.037302999999999996,-0.039330000000000004,-27.370001000000002,-10.68,-35.5,1a
2019-07-15_141017:840,-0.41485600000000006,-0.014740000000000001,-0.189636,0.087339,0.032848,-0.037011,-27.370001000000002,-10.68,-35.5,1a
2019-07-15_141017:860,-0.445862,-0.025908999999999998,-0.186584,0.077146,0.029704,-0.031639,-27.370001000000002,-10.68,-35.5,1a
2019-07-15_141017:880,-0.44027700000000003,-0.040649,-0.181488,0.068754,0.030039999999999997,-0.025657999999999997,-29.559998999999998,-8.87,-34.68,1a
2019-07-15_141017:900,-0.42758199999999996,-0.046265,-0.177429,0.06258899999999999,0.029582,-0.02343,-29.559998999999998,-8.87,-34.68,1a
2019-07-15_141017:920,-0.41485600000000006,-0.041687,-0.1698,0.057829,0.027049,-0.023216999999999998,-29.68,-8.0,-34.75,1a
2019-07-15_141017:940,-0.41995200000000005,-0.039124,-0.16217,0.053251,0.022075,-0.02044,-29.68,-8.0,-34.75,1a
2019-07-15_141017:960,-0.426544,-0.033539,-0.151001,0.047514,0.017100999999999998,-0.016381,-29.68,-8.0,-34.75,1a
2019-07-15_141017:980,-0.423492,-0.032013,-0.144379,0.041014,0.01292,-0.012931999999999999,-31.18,-5.68,-34.68,1a
2019-07-15_141018:000,-0.416382,-0.022858,-0.140808,0.034513,0.008098000000000001,-0.011193,-31.18,-5.68,-34.68,1a
2019-07-15_141018:020,-0.41586300000000004,-0.019806,-0.13623,0.021177,-0.00124,-0.009819,-31.18,-5.0,-33.5,1a
2019-07-15_141018:040,-0.438751,-0.040161,-0.131653,0.016722,-0.004811,-0.008751,-31.18,-5.0,-33.5,1a
2019-07-15_141018:060,-0.475861,-0.063538,-0.137756,0.009977,-0.011189,-0.012017,-31.18,-5.0,-33.5,1a
2019-07-15_141018:080,-0.48300200000000004,-0.07928500000000001,-0.147949,0.011686,-0.006673,-0.018241999999999998,-32.369999,-4.06,-33.5,1a
2019-07-15_141018:100,-0.492126,-0.07928500000000001,-0.159637,0.013272999999999998,-0.005574,-0.016899,-32.369999,-4.06,-33.5,1a
2019-07-15_141018:120,-0.489594,-0.083374,-0.163696,0.01779,-0.0039570000000000004,-0.015434999999999999,-31.25,-3.68,-35.060001,1a
2019-07-15_141018:140,-0.488068,-0.0849,-0.163177,0.022366999999999998,-0.002034,-0.02044,-31.25,-3.68,-35.060001,1a
2019-07-15_141018:160,-0.496704,-0.081329,-0.161652,0.028227,0.000743,-0.022300999999999998,-31.25,-3.68,-35.060001,1a
2019-07-15_141018:180,-0.48754899999999995,-0.081848,-0.160126,0.034970999999999995,0.003978,-0.020623,-31.25,-3.25,-34.25,1a
2019-07-15_141018:200,-0.473846,-0.075745,-0.1586,0.041624,0.00703,-0.021813,-31.25,-3.25,-34.25,1a
2019-07-15_141018:220,-0.467224,-0.068634,-0.157074,0.048338,0.009197,-0.02282,-30.870001000000002,-2.87,-35.5,1a
2019-07-15_141018:240,-0.467224,-0.059479,-0.156586,0.054685000000000004,0.010661,-0.021752,-30.870001000000002,-2.87,-35.5,1a
2019-07-15_141018:260,-0.47842399999999996,-0.055389,-0.157074,0.060209000000000006,0.01414,-0.02224,-30.870001000000002,-2.87,-35.5,1a
2019-07-15_141018:280,-0.498749,-0.043701,-0.163177,0.064451,0.018687,-0.024865,-31.68,-2.87,-35.060001,1a
2019-07-15_141018:300,-0.7036439999999999,-0.043213,-0.14843800000000001,0.066526,0.01884,-0.026879000000000004,-31.68,-2.87,-35.060001,1a
2019-07-15_141018:320,-0.45095799999999997,-0.018799,-0.168793,0.064665,0.01591,-0.022087,-32.369999,-1.0,-35.060001,1a
2019-07-15_141018:340,-0.572968,-0.026427999999999997,-0.11233499999999999,0.063871,0.017558,-0.016715999999999998,-32.369999,-1.0,-35.060001,1a
2019-07-15_141018:360,-0.5272220000000001,-0.025421,-0.15506,0.059202,0.015636,-0.016198,-32.369999,-1.0,-35.060001,1a
2019-07-15_141018:380,-0.497742,-0.028961,-0.127594,0.055296000000000005,0.01234,-0.016442,-32.369999,0.5,-33.060001,1a
2019-07-15_141018:400,-0.45654300000000003,-0.034546,-0.142853,0.048735,0.007762000000000001,-0.00869,-32.369999,0.5,-33.060001,1a
2019-07-15_141018:420,-0.398071,-0.060486,-0.146912,0.0426,0.0031850000000000003,-0.000328,-33.560001,2.0,-33.869999,1a
2019-07-15_141018:440,-0.381317,-0.076263,-0.145386,0.03729,-0.000325,0.0053479999999999995,-33.560001,2.0,-33.869999,1a
2019-07-15_141018:460,-0.394012,-0.094055,-0.1586,0.033537,-0.005879,0.008612999999999999,-33.560001,2.0,-33.869999,1a
2019-07-15_141018:480,-0.379791,-0.100159,-0.154022,0.030485,-0.01125,0.008796,-33.869999,3.87,-33.5,1a
2019-07-15_141018:500,-0.393494,-0.115906,-0.163696,0.027342,-0.016163999999999998,0.007667,-33.869999,3.87,-33.5,1a
2019-07-15_141018:520,-0.432648,-0.12506099999999998,-0.167755,0.024778,-0.017384,0.005439,-32.75,4.56,-33.5,1a
2019-07-15_141018:540,-0.460114,-0.13269,-0.17538499999999999,0.0231,-0.014241,0.00196,-32.75,4.56,-33.5,1a
2019-07-15_141018:560,-0.47842399999999996,-0.130127,-0.184021,0.021757,-0.011281,-0.000176,-32.75,4.56,-33.5,1a
2019-07-15_141018:580,-0.48654200000000003,-0.12658699999999998,-0.197266,0.020597,-0.0118,-0.0009689999999999999,-32.75,5.75,-33.060001,1a
2019-07-15_141018:600,-0.46670500000000004,-0.12200899999999999,-0.191162,0.019438,-0.011647,-0.004235,-32.75,5.75,-33.060001,1a
2019-07-15_141018:620,-0.47079499999999996,-0.11233499999999999,-0.181488,0.018308,-0.008809,-0.008812,-33.18,6.06,-33.869999,1a
2019-07-15_141018:640,-0.460114,-0.107269,-0.170319,0.017454,-0.004414,-0.010491,-33.18,6.06,-33.869999,1a
2019-07-15_141018:660,-0.434174,-0.097595,-0.159637,0.016996,-0.0009050000000000001,-0.011589,-33.18,6.06,-33.869999,1a
2019-07-15_141018:680,-0.420959,-0.09353600000000001,-0.153534,0.01605,-0.00011100000000000001,-0.01339,-32.75,6.87,-35.060001,1a
2019-07-15_141018:700,-0.420959,-0.084381,-0.150482,0.014616,-0.002309,-0.014336000000000002,-32.75,6.87,-35.060001,1a
2019-07-15_141018:720,-0.441284,-0.078278,-0.144379,0.012541,-0.003834,-0.016503,-32.060001,6.06,-35.060001,1a
2019-07-15_141018:740,-0.440796,-0.072693,-0.130646,0.008451,-0.003773,-0.017113,-32.060001,6.06,-35.060001,1a
2019-07-15_141018:760,-0.43518100000000004,-0.07421900000000001,-0.128113,0.004789,-0.005177,-0.013604,-32.060001,6.06,-35.060001,1a
2019-07-15_141018:780,-0.42858900000000005,-0.078278,-0.127106,0.00247,-0.0072829999999999995,-0.013146000000000001,-31.68,6.5,-34.18,1a
2019-07-15_141018:800,-0.42807,-0.07421900000000001,-0.137268,0.002012,-0.0118,-0.016381,-31.68,6.5,-34.18,1a
2019-07-15_141018:820,-0.440796,-0.07016,-0.149475,0.002195,-0.014851,-0.016319999999999998,-32.369999,6.06,-34.560001,1a
2019-07-15_141018:840,-0.449432,-0.068115,-0.15506,0.001463,-0.01598,-0.015862,-32.369999,6.06,-34.560001,1a
2019-07-15_141018:860,-0.462646,-0.061005,-0.160645,0.000395,-0.013844,-0.014458000000000002,-32.369999,6.06,-34.560001,1a
2019-07-15_141018:880,-0.488068,-0.058960000000000005,-0.158112,-0.001253,-0.009022,-0.011681,-32.75,5.37,-34.560001,1a
2019-07-15_141018:900,-0.47943100000000005,-0.057434000000000006,-0.159637,-0.003573,-0.003682,-0.009362,-32.75,5.37,-34.560001,1a
2019-07-15_141018:920,-0.47842399999999996,-0.056915,-0.155548,-0.005556,0.000743,-0.006096,-30.870001000000002,6.06,-35.369999,1a
2019-07-15_141018:940,-0.49468999999999996,-0.057434000000000006,-0.147949,-0.008181,0.004039,-0.00277,-30.870001000000002,6.06,-35.369999,1a
2019-07-15_141018:960,-0.496704,-0.06149299999999999,-0.14743,-0.011629,0.007273999999999999,0.00016,-30.870001000000002,6.06,-35.369999,1a
2019-07-15_141018:980,-0.507904,-0.069122,-0.140808,-0.014773,0.009959,0.00132,-31.68,5.0,-34.560001,1a
2019-07-15_141019:000,-0.508423,-0.074738,-0.133698,-0.016878,0.013987999999999999,0.001655,-31.68,5.0,-34.560001,1a
2019-07-15_141019:020,-0.491638,-0.075745,-0.134216,-0.017428,0.017162,0.001045,-32.369999,4.25,-35.75,1a
2019-07-15_141019:040,-0.490112,-0.0737,-0.141327,-0.016694999999999998,0.017375,0.00016,-32.369999,4.25,-35.75,1a
2019-07-15_141019:060,-0.49468999999999996,-0.065582,-0.153015,-0.016482,0.016307,-0.000908,-32.369999,4.25,-35.75,1a
2019-07-15_141019:080,-0.5979,-0.066071,-0.151489,-0.016024,0.012401,0.001991,-33.18,4.56,-35.369999,1a
2019-07-15_141019:100,-0.5267029999999999,-0.048798,-0.187073,-0.017428,0.004833,0.007423000000000001,-33.18,4.56,-35.369999,1a
2019-07-15_141019:120,-0.613129,-0.049805,-0.14032,-0.019869,0.005901,0.015266,-33.560001,3.87,-33.75,1a
2019-07-15_141019:140,-0.555176,-0.045226999999999996,-0.17690999999999998,-0.023195,0.005351,0.01432,-33.560001,3.87,-33.75,1a
2019-07-15_141019:160,-0.474854,-0.037108999999999996,-0.180481,-0.025332,0.003978,0.008612999999999999,-33.560001,3.87,-33.75,1a
2019-07-15_141019:180,-0.433655,-0.036591000000000005,-0.184021,-0.025637,0.003032,0.005012,-33.869999,4.0,-33.0,1a
2019-07-15_141019:200,-0.402161,-0.033539,-0.170319,-0.024599,0.003917,0.000404,-33.869999,4.0,-33.0,1a
2019-07-15_141019:220,-0.366058,-0.020325,-0.154541,-0.023592,0.006816,-0.002373,-33.869999,4.0,-33.369999,1a
2019-07-15_141019:240,-0.39502,-0.013213999999999998,-0.146423,-0.021792,0.007488,-0.0011220000000000002,-33.869999,4.0,-33.369999,1a
2019-07-15_141019:260,-0.418915,-0.0030210000000000002,-0.146912,-0.020723,0.004771,-0.000512,-33.869999,4.0,-33.369999,1a
2019-07-15_141019:280,-0.395538,0.005065999999999999,-0.152008,-0.021394999999999997,-0.0009660000000000001,0.000923,-34.25,2.5,-34.18,1a
2019-07-15_141019:300,-0.407227,0.005065999999999999,-0.175903,-0.022738,-0.008992,0.0073620000000000005,-34.25,2.5,-34.18,1a
2019-07-15_141019:320,-0.415375,0.004059,-0.198273,-0.024996,-0.017567,0.012672,-33.560001,3.18,-33.369999,1a
2019-07-15_141019:340,-0.435699,0.004547,-0.22164899999999998,-0.027987,-0.025349,0.017189,-33.560001,3.18,-33.369999,1a
2019-07-15_141019:360,-0.45654300000000003,-0.005065999999999999,-0.23995999999999998,-0.030092,-0.029866000000000004,0.019691,-33.560001,3.18,-33.369999,1a
2019-07-15_141019:380,-0.501282,-0.021851,-0.23995999999999998,-0.031222000000000003,-0.026813999999999998,0.016975,-34.25,0.87,-34.18,1a
2019-07-15_141019:400,-0.512482,-0.027435,-0.23590100000000003,-0.03174,-0.017049,0.017585,-34.25,0.87,-34.18,1a
2019-07-15_141019:420,-0.489075,-0.044219999999999995,-0.21859699999999999,-0.030976999999999998,-0.00536,0.021827000000000003,-31.68,2.06,-34.560001,1a
2019-07-15_141019:440,-0.466217,-0.049316000000000006,-0.203369,-0.02997,0.003825,0.021949,-31.68,2.06,-34.560001,1a
2019-07-15_141019:460,-0.431641,-0.052338,-0.183533,-0.028689,0.0088,0.022895,-31.68,2.06,-34.560001,1a
2019-07-15_141019:480,-0.41485600000000006,-0.057434000000000006,-0.1698,-0.027589999999999996,0.009593,0.024543000000000002,-32.369999,2.0,-35.75,1a
2019-07-15_141019:500,-0.412811,-0.063538,-0.161652,-0.027041000000000003,0.007091,0.023597,-32.369999,2.0,-35.75,1a
2019-07-15_141019:520,-0.41943400000000003,-0.066589,-0.1586,-0.026186,0.0031850000000000003,0.022468000000000002,-33.18,1.25,-35.369999,1a
2019-07-15_141019:540,-0.43011499999999997,-0.070648,-0.158112,-0.025057,-0.00063,0.020759,-33.18,1.25,-35.369999,1a
2019-07-15_141019:560,-0.439758,-0.071686,-0.16217,-0.023989,-0.0037119999999999996,0.017891,-33.18,1.25,-35.369999,1a
2019-07-15_141019:580,-0.435699,-0.072174,-0.167267,-0.022799,-0.006154,0.015846000000000002,-32.75,1.25,-35.0,1a
2019-07-15_141019:600,-0.438751,-0.074738,-0.170319,-0.021486,-0.007679999999999999,0.013588,-32.75,1.25,-35.0,1a
2019-07-15_141019:620,-0.45196499999999995,-0.077271,-0.171844,-0.020266,-0.007802,0.009956,-32.060001,0.87,-35.369999,1a
2019-07-15_141019:640,-0.45907600000000004,-0.078796,-0.170319,-0.018404,-0.005818,0.007148000000000001,-32.060001,0.87,-35.369999,1a
2019-07-15_141019:660,-0.48300200000000004,-0.07928500000000001,-0.167267,-0.015841,-0.002309,0.005836,-32.060001,0.87,-35.369999,1a
2019-07-15_141019:680,-0.49468999999999996,-0.077271,-0.16217,-0.012636,0.002055,0.0043100000000000005,-32.369999,0.5,-35.369999,1a
2019-07-15_141019:700,-0.489594,-0.071167,-0.152008,-0.009249,0.006145,0.00251,-32.369999,0.5,-35.369999,1a
2019-07-15_141019:720,-0.48349,-0.06253099999999999,-0.150482,-0.006533,0.008556,0.001258,-33.560001,0.18,-35.0,1a
2019-07-15_141019:740,-0.48706099999999997,-0.039124,-0.153015,-0.005739,0.00883,0.0022960000000000003,-33.560001,0.18,-35.0,1a
2019-07-15_141019:760,-0.49722299999999997,-0.020844,-0.1586,-0.008608,0.008556,0.007698,-33.560001,0.18,-35.0,1a
2019-07-15_141019:780,-0.5058590000000001,-0.015747,-0.156586,-0.014497999999999999,0.010020000000000001,0.014503,-32.369999,0.56,-35.369999,1a
2019-07-15_141019:800,-0.508423,-0.020844,-0.152008,-0.019686000000000002,0.013805000000000001,0.018043,-32.369999,0.56,-35.369999,1a
2019-07-15_141019:820,-0.5048520000000001,-0.032013,-0.153534,-0.024111,0.019176,0.018318,-33.18,0.56,-35.75,1a
2019-07-15_141019:840,-0.504333,-0.036591000000000005,-0.156586,-0.026795999999999997,0.024333,0.017494,-33.18,0.56,-35.75,1a
2019-07-15_141019:860,-0.577545,-0.06253099999999999,-0.156586,-0.029085000000000003,0.026195,0.015174000000000002,-33.18,0.56,-35.75,1a
2019-07-15_141019:880,-0.62738,-0.06253099999999999,-0.19165,-0.030825,0.01884,0.013588,-33.869999,0.18,-33.75,1a
2019-07-15_141019:900,-0.562286,-0.097107,-0.12454200000000001,-0.027437,0.020213,0.009803000000000001,-33.869999,0.18,-33.75,1a
2019-07-15_141019:920,-0.535858,-0.078278,-0.170319,-0.025271000000000002,0.020213,-0.001641,-34.25,-0.18,-33.369999,1a
2019-07-15_141019:940,-0.46670500000000004,-0.09353600000000001,-0.159119,-0.022616,0.019511,0.001716,-34.25,-0.18,-33.369999,1a
2019-07-15_141019:960,-0.443329,-0.099121,-0.175903,-0.01755,0.014262,0.002388,-34.25,-0.18,-33.369999,1a
2019-07-15_141019:980,-0.388916,-0.094055,-0.175903,-0.014437,0.0069689999999999995,0.005958,-34.68,-0.87,-32.18,1a
2019-07-15_141020:000,-0.371643,-0.089478,-0.190125,-0.010836,0.000468,0.015113,-34.68,-0.87,-32.18,1a
2019-07-15_141020:020,-0.374176,-0.083862,-0.194214,-0.011507,-0.003041,0.016914,-35.369999,-0.25,-32.68,1a
2019-07-15_141020:040,-0.401123,-0.089478,-0.19927999999999998,-0.015016999999999999,-0.004292,0.016059,-35.369999,-0.25,-32.68,1a
2019-07-15_141020:060,-0.40823400000000004,-0.101685,-0.203369,-0.018618,-0.00475,0.016059,-35.369999,-0.25,-32.68,1a
2019-07-15_141020:080,-0.399597,-0.11080899999999999,-0.208954,-0.020876,-0.004567,0.011207,-35.060001,-0.68,-32.18,1a
2019-07-15_141020:100,-0.40368699999999996,-0.109802,-0.21148699999999998,-0.022127,-0.005635,0.007301,-35.060001,-0.68,-32.18,1a
2019-07-15_141020:120,-0.41943400000000003,-0.11233499999999999,-0.21810900000000003,-0.021853,-0.008748,0.00727,-35.060001,-0.68,-33.369999,1a
2019-07-15_141020:140,-0.434692,-0.115906,-0.220642,-0.020600999999999998,-0.012715,0.003578,-35.060001,-0.68,-33.369999,1a
2019-07-15_141020:160,-0.454529,-0.11080899999999999,-0.222687,-0.018435,-0.015065,-0.002251,-35.060001,-0.68,-33.369999,1a
2019-07-15_141020:180,-0.458588,-0.105225,-0.219635,-0.014712000000000001,-0.015309,-0.005944,-35.060001,-1.0,-32.68,1a
2019-07-15_141020:200,-0.452484,-0.09201000000000001,-0.21453899999999998,-0.011446,-0.013538999999999999,-0.009423,-35.060001,-1.0,-32.68,1a
2019-07-15_141020:220,-0.447388,-0.078278,-0.20843499999999998,-0.009309999999999999,-0.010213,-0.012261,-33.869999,-0.68,-34.18,1a
2019-07-15_141020:240,-0.43774399999999997,-0.066071,-0.200317,-0.009340000000000001,-0.007558,-0.012261,-33.869999,-0.68,-34.18,1a
2019-07-15_141020:260,-0.43011499999999997,-0.062012,-0.192688,-0.01111,-0.00594,-0.013146000000000001,-33.869999,-0.68,-34.18,1a
2019-07-15_141020:280,-0.41485600000000006,-0.058441,-0.180481,-0.013581999999999999,-0.004842,-0.014733000000000001,-33.560001,-2.18,-33.75,1a
2019-07-15_141020:300,-0.40823400000000004,-0.056915,-0.171326,-0.015780000000000002,-0.005025,-0.015374,-33.560001,-2.18,-33.75,1a
2019-07-15_141020:320,-0.389954,-0.057434000000000006,-0.177948,-0.018801,-0.0072829999999999995,-0.017235,-33.560001,-2.18,-32.68,1a
2019-07-15_141020:340,-0.420959,-0.057953,-0.188599,-0.020937,-0.012013,-0.020501,-33.560001,-2.18,-32.68,1a
2019-07-15_141020:360,-0.441284,-0.059479,-0.19622799999999999,-0.021609,-0.014851,-0.021355000000000002,-33.560001,-2.18,-32.68,1a
2019-07-15_141020:380,-0.45043900000000003,-0.063019,-0.20080599999999998,-0.020662,-0.014851,-0.018975,-32.75,-3.25,-34.18,1a
2019-07-15_141020:400,-0.45907600000000004,-0.07421900000000001,-0.204376,-0.01935,-0.013661000000000001,-0.014122,-32.75,-3.25,-34.18,1a
2019-07-15_141020:420,-0.452484,-0.082855,-0.198792,-0.015902,-0.010731000000000001,-0.008537999999999999,-32.75,-4.75,-34.18,1a
2019-07-15_141020:440,-0.46316499999999994,-0.087952,-0.195221,-0.01111,-0.007558,-0.00457,-32.75,-4.75,-34.18,1a
2019-07-15_141020:460,-0.46060200000000007,-0.087952,-0.195221,-0.006684999999999999,-0.0034990000000000004,-0.000176,-32.75,-4.75,-34.18,1a
2019-07-15_141020:480,-0.461121,-0.089478,-0.19622799999999999,-0.0031149999999999997,-0.0008439999999999999,0.004036,-32.75,-5.5,-33.75,1a
2019-07-15_141020:500,-0.467224,-0.089478,-0.190643,-0.000582,0.001353,0.005226,-32.75,-5.5,-33.75,1a
2019-07-15_141020:520,-0.467224,-0.0849,-0.186066,0.000547,0.003368,0.003913000000000001,-31.68,-5.5,-35.369999,1a
2019-07-15_141020:540,-0.47180200000000005,-0.081848,-0.185059,0.000395,0.0045579999999999996,0.003242,-31.68,-5.5,-35.369999,1a
2019-07-15_141020:560,-0.474854,-0.080322,-0.183014,-0.000918,0.005412,0.002449,-31.68,-5.5,-35.369999,1a
2019-07-15_141020:580,-0.47943100000000005,-0.078796,-0.184021,-0.0028399999999999996,0.006633,0.00016,-31.68,-5.5,-34.68,1a
2019-07-15_141020:600,-0.48300200000000004,-0.082855,-0.186066,-0.003176,0.00883,-0.0017629999999999998,-31.68,-5.5,-34.68,1a
2019-07-15_141020:620,-0.489594,-0.081329,-0.192169,-0.001467,0.010722,-0.00216,-32.75,-5.87,-35.369999,1a
2019-07-15_141020:640,-0.49111899999999997,-0.068634,-0.19574,0.001737,0.013072,-0.000725,-32.75,-5.87,-35.369999,1a
2019-07-15_141020:660,-0.514008,-0.057434000000000006,-0.192688,0.00424,0.015116999999999998,0.001258,-32.75,-5.87,-35.369999,1a
2019-07-15_141020:680,-0.62027,-0.029968,-0.22927899999999998,0.004667,0.012462,0.003639,-33.18,-5.5,-33.75,1a
2019-07-15_141020:700,-0.47943100000000005,-0.038635,-0.17843599999999998,0.000883,0.006876999999999999,0.012245,-33.18,-5.5,-33.75,1a
2019-07-15_141020:720,-0.583649,-0.026427999999999997,-0.216583,-0.000857,0.007548999999999999,0.013771,-33.18,-5.18,-33.5,1a
2019-07-15_141020:740,-0.538391,-0.014221000000000001,-0.181488,-0.005556,0.007548999999999999,0.009681,-33.18,-5.18,-33.5,1a
2019-07-15_141020:760,-0.47433500000000006,0.0035399999999999997,-0.181488,-0.009340000000000001,0.009288,0.010475,-33.18,-5.18,-33.5,1a
2019-07-15_141020:780,-0.41842700000000005,0.007599,-0.176422,-0.015016999999999999,0.011484999999999999,0.010536,-32.75,-4.0,-34.560001,1a
2019-07-15_141020:800,-0.36044299999999996,0.015747,-0.170319,-0.021456,0.011271999999999999,0.009132,-32.75,-4.0,-34.560001,1a
2019-07-15_141020:820,-0.332489,0.015747,-0.165222,-0.027375999999999998,0.0088,0.008827,-32.060001,-4.0,-32.68,1a
2019-07-15_141020:840,-0.385376,0.013213999999999998,-0.167755,-0.031771,0.005107,0.0073620000000000005,-32.060001,-4.0,-32.68,1a
2019-07-15_141020:860,-0.41586300000000004,0.014740000000000001,-0.177429,-0.036074,0.00016299999999999998,0.0058969999999999995,-32.060001,-4.0,-32.68,1a
2019-07-15_141020:880,-0.390961,0.010162000000000001,-0.19165,-0.040072,-0.005147,0.008339,-33.560001,-4.37,-32.18,1a
2019-07-15_141020:900,-0.391968,0.005065999999999999,-0.21249400000000002,-0.043184,-0.011983,0.010597,-33.560001,-4.37,-32.18,1a
2019-07-15_141020:920,-0.409271,-0.001007,-0.242004,-0.044619,-0.018512999999999998,0.012062,-33.869999,-5.18,-31.5,1a
2019-07-15_141020:940,-0.426544,-0.010162000000000001,-0.266907,-0.043184,-0.026723,0.013313,-33.869999,-5.18,-31.5,1a
2019-07-15_141020:960,-0.458588,-0.015228,-0.278595,-0.039858,-0.032764999999999996,0.010414,-33.869999,-5.18,-31.5,1a
2019-07-15_141020:980,-0.48654200000000003,-0.017792,-0.272003,-0.035555,-0.031575,0.006019,-33.18,-6.18,-33.0,1a
2019-07-15_141021:000,-0.484009,-0.017273,-0.261322,-0.031557,-0.021748,0.003822,-33.18,-6.18,-33.0,1a
2019-07-15_141021:020,-0.462646,-0.017792,-0.25116,-0.028292,-0.009724,0.00663,-31.68,-7.25,-33.369999,1a
2019-07-15_141021:040,-0.429596,-0.026427999999999997,-0.22927899999999998,-0.025393000000000002,-0.0005690000000000001,0.010872,-31.68,-7.25,-33.369999,1a
2019-07-15_141021:060,-0.41995200000000005,-0.024384,-0.21505700000000003,-0.021943999999999998,0.00349,0.013649000000000001,-31.68,-7.25,-33.369999,1a
2019-07-15_141021:080,-0.410278,-0.025908999999999998,-0.198273,-0.019411,0.004222,0.017189,-31.25,-7.68,-34.18,1a
2019-07-15_141021:100,-0.411804,-0.025908999999999998,-0.190643,-0.018282,0.003368,0.018837,-31.25,-7.68,-34.18,1a
2019-07-15_141021:120,-0.417389,-0.026427999999999997,-0.187073,-0.018435,0.001598,0.019355,-30.870001000000002,-8.5,-34.68,1a
2019-07-15_141021:140,-0.42605600000000005,-0.031494,-0.186584,-0.019076,1.1e-05,0.021278000000000002,-30.870001000000002,-8.5,-34.68,1a
2019-07-15_141021:160,-0.429108,-0.038635,-0.190125,-0.019808000000000003,-0.001302,0.022071,-30.870001000000002,-8.5,-34.68,1a
2019-07-15_141021:180,-0.44281000000000004,-0.042694,-0.194702,-0.019686000000000002,-0.0018510000000000002,0.02137,-31.25,-7.25,-34.18,1a
2019-07-15_141021:200,-0.449432,-0.050842,-0.19775399999999999,-0.018801,-0.000661,0.021034,-31.25,-7.25,-34.18,1a
2019-07-15_141021:220,-0.45401,-0.051849,-0.198273,-0.017092,0.0016589999999999999,0.020576,-32.060001,-7.25,-33.75,1a
2019-07-15_141021:240,-0.47280900000000003,-0.056427,-0.19165,-0.015413,0.005168,0.020424,-32.060001,-7.25,-33.75,1a
2019-07-15_141021:260,-0.478912,-0.058441,-0.185059,-0.013521,0.008556,0.020424,-32.060001,-7.25,-33.75,1a
2019-07-15_141021:280,-0.481476,-0.05996699999999999,-0.17385899999999999,-0.011049,0.012523000000000001,0.01844,-31.75,-6.56,-32.18,1a
2019-07-15_141021:300,-0.47689799999999993,-0.053863999999999995,-0.1698,-0.007723000000000001,0.017894,0.014197999999999999,-31.75,-6.56,-32.18,1a
2019-07-15_141021:320,-0.473846,-0.045745999999999995,-0.162689,-0.007051999999999999,0.019694999999999997,0.013862000000000001,-32.5,-7.68,-33.0,1a
2019-07-15_141021:340,-0.469757,-0.042694,-0.158112,-0.008211,0.019756,0.01371,-32.5,-7.68,-33.0,1a
2019-07-15_141021:360,-0.473846,-0.041687,-0.161652,-0.010531,0.018687,0.015236000000000001,-32.5,-7.68,-33.0,1a
2019-07-15_141021:380,-0.47689799999999993,-0.046752999999999996,-0.165222,-0.011323999999999999,0.017772,0.018043,-33.869999,-6.56,-32.68,1a
2019-07-15_141021:400,-0.47943100000000005,-0.058441,-0.174896,-0.010836,0.016978,0.016121,-33.869999,-6.56,-32.68,1a
2019-07-15_141021:420,-0.5419619999999999,-0.068115,-0.181488,-0.009127,0.014537000000000001,0.012519,-34.25,-7.0,-32.68,1a
2019-07-15_141021:440,-0.626373,-0.06253099999999999,-0.21554600000000002,-0.009004999999999999,0.005686999999999999,0.011329,-34.25,-7.0,-32.68,1a
2019-07-15_141021:460,-0.5734859999999999,-0.095062,-0.183014,-0.006991,0.004436,0.008827,-34.25,-7.0,-32.68,1a
2019-07-15_141021:480,-0.556213,-0.08996599999999999,-0.23284899999999997,-0.003573,0.004894,-0.000664,-33.869999,-6.18,-30.25,1a
2019-07-15_141021:500,-0.545532,-0.08743300000000001,-0.230804,0.002653,0.006816,-0.000267,-33.869999,-6.18,-30.25,1a
2019-07-15_141021:520,-0.492645,-0.078278,-0.22879000000000002,0.006895,0.010875,0.0021739999999999997,-34.369999,-7.06,-31.5,1a
2019-07-15_141021:540,-0.44232200000000005,-0.05285599999999999,-0.22164899999999998,0.006314999999999999,0.015116999999999998,0.002967,-34.369999,-7.06,-31.5,1a
2019-07-15_141021:560,-0.384857,-0.051330999999999995,-0.210968,0.0032020000000000004,0.017100999999999998,0.0065379999999999995,-34.369999,-7.06,-31.5,1a
2019-07-15_141021:580,-0.355377,-0.06149299999999999,-0.199799,-0.000643,0.016307,0.005409000000000001,-33.869999,-6.25,-29.75,1a
2019-07-15_141021:600,-0.361481,-0.068115,-0.19622799999999999,-0.004152,0.013408000000000002,0.00196,-33.869999,-6.25,-29.75,1a
2019-07-15_141021:620,-0.346222,-0.082336,-0.203369,-0.006014,0.006633,0.002784,-33.869999,-5.56,-31.5,1a
2019-07-15_141021:640,-0.350281,-0.089478,-0.20944200000000002,-0.006136,-0.001912,0.001503,-33.869999,-5.56,-31.5,1a
2019-07-15_141021:660,-0.375214,-0.09301799999999999,-0.226746,-0.005221,-0.009816,-0.002037,-33.869999,-5.56,-31.5,1a
2019-07-15_141021:680,-0.401123,-0.086426,-0.243011,-0.004152,-0.017171000000000002,-0.002709,-35.060001,-5.5,-31.0,1a
2019-07-15_141021:700,-0.449432,-0.072693,-0.25012199999999996,-0.004549,-0.020619,-0.0033799999999999998,-35.060001,-5.5,-31.0,1a
2019-07-15_141021:720,-0.475372,-0.063019,-0.249115,-0.006807,-0.017506,-0.005242,-34.68,-6.18,-32.18,1a
2019-07-15_141021:740,-0.46875,-0.057953,-0.24353000000000002,-0.009981,-0.01006,-0.00689,-34.68,-6.18,-32.18,1a
2019-07-15_141021:760,-0.453491,-0.053863999999999995,-0.233856,-0.012789,-0.003041,-0.008629000000000001,-34.68,-6.18,-32.18,1a
2019-07-15_141021:780,-0.432159,-0.054901,-0.21759,-0.014559,0.000621,-0.009545,-34.68,-5.87,-33.0,1a
2019-07-15_141021:800,-0.41586300000000004,-0.055908000000000006,-0.20385699999999998,-0.015505000000000001,0.001201,-0.00869,-34.68,-5.87,-33.0,1a
2019-07-15_141021:820,-0.399109,-0.05285599999999999,-0.187592,-0.016298,7.2e-05,-0.0078049999999999994,-34.25,-6.56,-31.5,1a
2019-07-15_141021:840,-0.39859,-0.049316000000000006,-0.177948,-0.017153,-0.002583,-0.0057,-34.25,-6.56,-31.5,1a
2019-07-15_141021:860,-0.393494,-0.046265,-0.169281,-0.019076,-0.007405,-0.002373,-34.25,-6.56,-31.5,1a
2019-07-15_141021:880,-0.410797,-0.047791,-0.163696,-0.021547,-0.013325,0.001564,-33.560001,-7.68,-31.75,1a
2019-07-15_141021:900,-0.45654300000000003,-0.052338,-0.168274,-0.023531,-0.014577000000000001,0.006476999999999999,-33.560001,-7.68,-31.75,1a
2019-07-15_141021:920,-0.46316499999999994,-0.05285599999999999,-0.177429,-0.024996,-0.011403,0.011329,-34.25,-8.5,-32.68,1a
2019-07-15_141021:940,-0.46569799999999995,-0.063019,-0.192169,-0.02698,-0.007069,0.013465000000000001,-34.25,-8.5,-32.68,1a
2019-07-15_141021:960,-0.461639,-0.07016,-0.199799,-0.02936,-0.002827,0.012855000000000002,-34.25,-8.5,-32.68,1a
2019-07-15_141021:980,-0.45907600000000004,-0.084381,-0.203369,-0.031374,0.0009570000000000001,0.01258,-33.560001,-8.5,-31.5,1a
2019-07-15_141022:000,-0.463654,-0.095581,-0.20385699999999998,-0.031679,0.003917,0.012397,-33.560001,-8.5,-31.5,1a
2019-07-15_141022:020,-0.469757,-0.105743,-0.19927999999999998,-0.030489,0.006633,0.009681,-34.25,-8.75,-31.0,1a
2019-07-15_141022:040,-0.45907600000000004,-0.10318,-0.19775399999999999,-0.028567000000000002,0.009073999999999999,0.007423000000000001,-34.25,-8.75,-31.0,1a
2019-07-15_141022:060,-0.46316499999999994,-0.104706,-0.19165,-0.026186,0.010539,0.006141,-34.25,-8.75,-31.0,1a
2019-07-15_141022:080,-0.465179,-0.106232,-0.190125,-0.023867,0.011394,0.005104,-33.560001,-9.25,-30.68,1a
2019-07-15_141022:100,-0.473846,-0.111328,-0.192688,-0.020144,0.012401,0.0051649999999999995,-33.560001,-9.25,-30.68,1a
2019-07-15_141022:120,-0.47433500000000006,-0.108795,-0.194214,-0.015780000000000002,0.014537000000000001,0.00132,-34.68,-10.37,-30.68,1a
2019-07-15_141022:140,-0.459595,-0.09353600000000001,-0.194702,-0.012392,0.016246,-0.0017929999999999999,-34.68,-10.37,-30.68,1a
2019-07-15_141022:160,-0.461121,-0.090485,-0.194214,-0.010134,0.017314,-0.000664,-34.68,-10.37,-30.68,1a
2019-07-15_141022:180,-0.48043800000000003,-0.081848,-0.200317,-0.007937,0.019756,0.00028199999999999997,-33.869999,-10.06,-30.25,1a
2019-07-15_141022:200,-0.488068,-0.07016,-0.197266,-0.007051999999999999,0.023479,0.0007700000000000001,-33.869999,-10.06,-30.25,1a
2019-07-15_141022:220,-0.712799,-0.058960000000000005,-0.22421300000000002,-0.007784,0.020091,0.000526,-34.25,-10.37,-29.5,1a
2019-07-15_141022:240,-0.42453,-0.065063,-0.224701,-0.011233,0.014719999999999999,0.003242,-34.25,-10.37,-29.5,1a
2019-07-15_141022:260,-0.591278,-0.063019,-0.235382,-0.012972,0.013744,0.006965000000000001,-34.25,-10.37,-29.5,1a
2019-07-15_141022:280,-0.529266,-0.06149299999999999,-0.23791500000000002,-0.012697,0.011455,0.0018989999999999999,-34.68,-10.06,-27.75,1a
2019-07-15_141022:300,-0.47280900000000003,-0.045745999999999995,-0.23486300000000002,-0.011568,0.009623999999999999,-0.005303,-34.68,-10.06,-27.75,1a
2019-07-15_141022:320,-0.452484,-0.037598,-0.222687,-0.008912999999999999,0.014719999999999999,-0.007164,-35.75,-10.37,-28.25,1a
2019-07-15_141022:340,-0.42248500000000005,-0.027435,-0.186584,-0.007540000000000001,0.022105,-0.008751,-35.75,-10.37,-28.25,1a
2019-07-15_141022:360,-0.417389,-0.020325,-0.169281,-0.007540000000000001,0.027781999999999998,-0.007012000000000001,-35.75,-10.37,-28.25,1a
2019-07-15_141022:380,-0.386383,-0.022858,-0.170807,-0.007081999999999999,0.025951,-0.0054859999999999996,-36.060001,-10.75,-27.5,1a
2019-07-15_141022:400,-0.37011700000000003,-0.022369,-0.169281,-0.008912999999999999,0.018565,-0.005089,-36.060001,-10.75,-27.5,1a
2019-07-15_141022:420,-0.374176,-0.025421,-0.188599,-0.010042,0.008495,0.002693,-36.18,-11.56,-26.25,1a
2019-07-15_141022:440,-0.389435,-0.035583,-0.19927999999999998,-0.010836,-0.002644,0.008491,-36.18,-11.56,-26.25,1a
2019-07-15_141022:460,-0.417908,-0.039124,-0.226227,-0.010439,-0.009755,0.010597,-36.18,-11.56,-26.25,1a
2019-07-15_141022:480,-0.43518100000000004,-0.043213,-0.243011,-0.008181,-0.013203,0.013923,-36.5,-11.56,-27.059998999999998,1a
2019-07-15_141022:500,-0.46926899999999994,-0.050323,-0.25012199999999996,-0.006258,-0.011922,0.013649000000000001,-36.5,-11.56,-27.059998999999998,1a
2019-07-15_141022:520,-0.47995,-0.055389,-0.241486,-0.003664,-0.00536,0.012519,-36.869999,-11.56,-27.059998999999998,1a
2019-07-15_141022:540,-0.486023,-0.070648,-0.21859699999999999,-0.000857,0.0045579999999999996,0.012519,-36.869999,-11.56,-27.059998999999998,1a
2019-07-15_141022:560,-0.48095699999999997,-0.083374,-0.20285,0.003507,0.015788,0.011207,-36.869999,-11.56,-27.059998999999998,1a
2019-07-15_141022:580,-0.453491,-0.086914,-0.186066,0.009764,0.025523,0.007301,-36.869999,-10.75,-28.68,1a
2019-07-15_141022:600,-0.43621800000000005,-0.079803,-0.171844,0.01605,0.030772000000000004,0.003181,-36.869999,-10.75,-28.68,1a
2019-07-15_141022:620,-0.420959,-0.066071,-0.155548,0.02136,0.030711000000000002,-0.000786,-37.560001,-10.37,-27.5,1a
2019-07-15_141022:640,-0.429596,-0.055389,-0.145905,0.024626,0.027873000000000002,-0.004692,-37.560001,-10.37,-27.5,1a
2019-07-15_141022:660,-0.44891400000000004,-0.043213,-0.149963,0.025480000000000003,0.025554,-0.00689,-37.560001,-10.37,-27.5,1a
2019-07-15_141022:680,-0.443329,-0.038635,-0.14843800000000001,0.025358000000000002,0.023937,-0.007958,-38.0,-9.25,-26.68,1a
2019-07-15_141022:700,-0.440796,-0.037108999999999996,-0.141846,0.024778,0.02235,-0.009087,-38.0,-9.25,-26.68,1a
2019-07-15_141022:720,-0.44638100000000003,-0.036072,-0.133698,0.024015,0.021159,-0.010154999999999999,-38.369999,-10.06,-25.5,1a
2019-07-15_141022:740,-0.462128,-0.036591000000000005,-0.12048299999999999,0.023954,0.019847,-0.011681,-38.369999,-10.06,-25.5,1a
2019-07-15_141022:760,-0.46670500000000004,-0.036072,-0.117432,0.023771,0.018290999999999998,-0.011803,-38.369999,-10.06,-25.5,1a
2019-07-15_141022:780,-0.47943100000000005,-0.039124,-0.11538699999999999,0.023558000000000003,0.016368,-0.010125,-38.369999,-10.06,-24.68,1a
2019-07-15_141022:800,-0.482483,-0.039124,-0.110321,0.022703,0.015727,-0.008812,-38.369999,-10.06,-24.68,1a
2019-07-15_141022:820,-0.492126,-0.038635,-0.100647,0.02191,0.016368,-0.007836,-39.060001,-9.25,-23.5,1a
2019-07-15_141022:840,-0.49926800000000005,-0.040161,-0.097107,0.021787,0.017497,-0.009667,-39.060001,-9.25,-23.5,1a
2019-07-15_141022:860,-0.5048520000000001,-0.040161,-0.09149199999999999,0.02191,0.017772,-0.013787,-39.060001,-9.25,-23.5,1a
2019-07-15_141022:880,-0.501282,-0.040649,-0.09353600000000001,0.022123,0.016704,-0.014580000000000001,-39.5,-8.18,-24.68,1a
2019-07-15_141022:900,-0.497742,-0.047791,-0.09149199999999999,0.022642,0.015269999999999999,-0.013604,-39.5,-8.18,-24.68,1a
2019-07-15_141022:920,-0.506378,-0.047791,-0.09201000000000001,0.023771,0.014262,-0.014672,-40.18,-8.56,-24.25,1a
2019-07-15_141022:940,-0.530273,-0.052338,-0.09301799999999999,0.024961,0.013469,-0.013665,-40.18,-8.56,-24.25,1a
2019-07-15_141022:960,-0.6060180000000001,-0.057434000000000006,-0.09811399999999999,0.027067,0.012248,-0.013451,-40.18,-8.56,-24.25,1a
2019-07-15_141022:980,-0.5495909999999999,-0.049805,-0.099121,0.030057999999999998,0.010936,-0.016503,-39.060001,-8.56,-23.059998999999998,1a
2019-07-15_141023:000,-0.581116,-0.048279,-0.095581,0.031004000000000004,0.012584,-0.019249000000000002,-39.060001,-8.56,-23.059998999999998,1a
2019-07-15_141023:020,-0.562805,-0.046752999999999996,-0.08590700000000001,0.031278,0.016521,-0.023156,-39.060001,-7.75,-23.870001000000002,1a
2019-07-15_141023:040,-0.505371,-0.041168,-0.073212,0.030331999999999998,0.02122,-0.026543,-39.060001,-7.75,-23.870001000000002,1a
2019-07-15_141023:060,-0.484009,-0.042175,-0.068634,0.028562,0.024822,-0.025292,-39.060001,-7.75,-23.870001000000002,1a
2019-07-15_141023:080,-0.45043900000000003,-0.044219999999999995,-0.071167,0.027098,0.024883000000000002,-0.021691,-38.68,-8.87,-22.68,1a
2019-07-15_141023:100,-0.429596,-0.042175,-0.071686,0.025876999999999997,0.022228,-0.016381,-38.68,-8.87,-22.68,1a
2019-07-15_141023:120,-0.42453,-0.040649,-0.068634,0.024687,0.019115,-0.009331,-39.5,-8.56,-21.870001000000002,1a
2019-07-15_141023:140,-0.440796,-0.047791,-0.067596,0.023893,0.016856,-0.0063100000000000005,-39.5,-8.56,-21.870001000000002,1a
2019-07-15_141023:160,-0.44384799999999996,-0.045226999999999996,-0.067596,0.022489,0.014322999999999999,-0.006218,-39.5,-8.56,-21.870001000000002,1a
2019-07-15_141023:180,-0.440796,-0.046265,-0.075226,0.021238,0.010204000000000001,-0.003319,-40.25,-8.87,-21.5,1a
2019-07-15_141023:200,-0.447906,-0.047791,-0.079803,0.019468,0.004497,-0.00011499999999999999,-40.25,-8.87,-21.5,1a
2019-07-15_141023:220,-0.463654,-0.050323,-0.08590700000000001,0.017606999999999998,-0.00179,0.003822,-40.68,-7.75,-21.870001000000002,1a
2019-07-15_141023:240,-0.475372,-0.05285599999999999,-0.09454299999999999,0.015806,-0.008015000000000001,0.007301,-40.68,-7.75,-21.870001000000002,1a
2019-07-15_141023:260,-0.477905,-0.050323,-0.101685,0.013944,-0.013325,0.009346,-40.68,-7.75,-21.870001000000002,1a
2019-07-15_141023:280,-0.47079499999999996,-0.046752999999999996,-0.110321,0.011106,-0.017628,0.009529000000000001,-40.25,-7.37,-23.059998999999998,1a
2019-07-15_141023:300,-0.47079499999999996,-0.040161,-0.111847,0.007109000000000001,-0.01949,0.008491,-40.25,-7.37,-23.059998999999998,1a
2019-07-15_141023:320,-0.475372,-0.038116000000000004,-0.111847,0.001524,-0.017506,0.005561,-41.369999,-6.25,-21.870001000000002,1a
2019-07-15_141023:340,-0.48754899999999995,-0.031494,-0.113373,-0.005282,-0.013325,0.002113,-41.369999,-6.25,-21.870001000000002,1a
2019-07-15_141023:360,-0.477386,-0.044219999999999995,-0.110321,-0.01111,-0.008137,-0.000328,-41.369999,-6.25,-21.870001000000002,1a
2019-07-15_141023:380,-0.47079499999999996,-0.056915,-0.10775799999999999,-0.01462,-0.0034990000000000004,-0.002892,-40.560001,-6.68,-23.5,1a
2019-07-15_141023:400,-0.46926899999999994,-0.067596,-0.09963999999999999,-0.014650999999999999,0.00056,-0.00515,-40.560001,-6.68,-23.5,1a
2019-07-15_141023:420,-0.46823100000000006,-0.068634,-0.095062,-0.011904000000000001,0.002696,-0.006218,-39.5,-6.68,-23.5,1a
2019-07-15_141023:440,-0.46670500000000004,-0.06253099999999999,-0.084381,-0.008454999999999999,0.003703,-0.00515,-39.5,-6.68,-23.5,1a
2019-07-15_141023:460,-0.473846,-0.057953,-0.07928500000000001,-0.005678,0.00471,-0.0033799999999999998,-39.5,-6.68,-23.5,1a
2019-07-15_141023:480,-0.476379,-0.051849,-0.069122,-0.0036340000000000005,0.006876999999999999,-0.0019760000000000003,-39.869999,-7.06,-23.870001000000002,1a
2019-07-15_141023:500,-0.476379,-0.051330999999999995,-0.060486,-0.0025960000000000002,0.009593,-0.001366,-39.869999,-7.06,-23.870001000000002,1a
2019-07-15_141023:520,-0.47180200000000005,-0.049805,-0.050842,-0.002169,0.012523000000000001,-0.001397,-39.5,-7.75,-24.25,1a
2019-07-15_141023:540,-0.471283,-0.045226999999999996,-0.041687,-0.0025050000000000003,0.015788,-0.002434,-39.5,-7.75,-24.25,1a
2019-07-15_141023:560,-0.48095699999999997,-0.043701,-0.032532,-0.0032979999999999997,0.017497,-0.003624,-39.5,-7.75,-24.25,1a
2019-07-15_141023:580,-0.481476,-0.043213,-0.023375999999999997,-0.004091,0.01942,-0.006096,-41.0,-7.06,-22.68,1a
2019-07-15_141023:600,-0.506897,-0.042694,-0.021851,-0.005282,0.020091,-0.009423,-41.0,-7.06,-22.68,1a
2019-07-15_141023:620,-0.509918,-0.041687,-0.019318000000000002,-0.005526,0.019969,-0.012719,-41.0,-7.06,-21.870001000000002,1a
2019-07-15_141023:640,-0.5134890000000001,-0.035583,-0.016266,-0.005465,0.018321,-0.013054,-41.0,-7.06,-21.870001000000002,1a
2019-07-15_141023:660,-0.521637,-0.034546,-0.01828,-0.005678,0.015636,-0.013512,-41.0,-7.06,-21.870001000000002,1a
2019-07-15_141023:680,-0.541443,-0.019806,-0.022858,-0.006411,0.016031999999999998,-0.013543000000000001,-40.560001,-7.75,-22.25,1a
2019-07-15_141023:700,-0.544006,-0.009644,-0.024384,-0.007479,0.016794999999999997,-0.011193,-40.560001,-7.75,-22.25,1a
2019-07-15_141023:720,-0.688385,-0.013213999999999998,-0.006592,-0.007723000000000001,0.015453,-0.010856999999999999,-40.560001,-8.56,-20.0,1a
2019-07-15_141023:740,-0.607056,-0.0030210000000000002,-0.05285599999999999,-0.008059,0.011058,-0.013451,-40.560001,-8.56,-20.0,1a
2019-07-15_141023:760,-0.580109,0.002014,-0.027954000000000003,-0.011720999999999999,0.009807,-0.0017629999999999998,-40.560001,-8.56,-20.0,1a
2019-07-15_141023:780,-0.574005,-0.006592,-0.047791,-0.013643,0.005107,0.00196,-41.060001,-8.18,-21.18,1a
2019-07-15_141023:800,-0.448425,0.0055850000000000006,-0.054901,-0.016421,0.002116,-0.0032890000000000003,-41.060001,-8.18,-21.18,1a
2019-07-15_141023:820,-0.439758,0.005065999999999999,-0.071686,-0.017824,-0.004445,0.000526,-41.369999,-8.18,-20.68,1a
2019-07-15_141023:840,-0.382812,0.002014,-0.078278,-0.019808000000000003,-0.008626,-0.001,-41.369999,-8.18,-20.68,1a
2019-07-15_141023:860,-0.390961,0.004059,-0.077271,-0.023073,-0.010334999999999999,-0.002373,-41.369999,-8.18,-20.68,1a
2019-07-15_141023:880,-0.46926899999999994,-0.001495,-0.07775900000000001,-0.022921,-0.009419,-0.00158,-41.0,-9.25,-19.5,1a
2019-07-15_141023:900,-0.48095699999999997,0.005065999999999999,-0.083862,-0.023714,-0.008595,-0.006615,-41.0,-9.25,-19.5,1a
2019-07-15_141023:920,-0.466217,0.024384,-0.097595,-0.02817,-0.010457,0.001167,-40.18,-9.25,-20.68,1a
2019-07-15_141023:940,-0.462646,0.017792,-0.102692,-0.03229,-0.013996999999999999,0.015663,-40.18,-9.25,-20.68,1a
2019-07-15_141023:960,-0.47180200000000005,-0.005065999999999999,-0.11843900000000002,-0.037478,-0.019368,0.020362,-40.18,-9.25,-20.68,1a
2019-07-15_141023:980,-0.473846,-0.009125,-0.129639,-0.039705000000000004,-0.02422,0.023201,-40.560001,-9.25,-20.25,1a
2019-07-15_141024:000,-0.489594,-0.034058,-0.13269,-0.040926,-0.026082,0.025611000000000002,-40.560001,-9.25,-20.25,1a
2019-07-15_141024:020,-0.49365200000000004,-0.039124,-0.135223,-0.042452,-0.023732,0.023872,-41.0,-9.68,-21.870001000000002,1a
2019-07-15_141024:040,-0.5134890000000001,-0.064545,-0.117432,-0.041323,-0.017567,0.021736000000000002,-41.0,-9.68,-21.870001000000002,1a
2019-07-15_141024:060,-0.508423,-0.072174,-0.111847,-0.038271,-0.008809,0.01725,-41.0,-9.68,-21.870001000000002,1a
2019-07-15_141024:080,-0.500275,-0.081329,-0.095062,-0.033693,-0.00124,0.013800999999999999,-39.869999,-8.87,-21.5,1a
2019-07-15_141024:100,-0.48654200000000003,-0.083862,-0.081329,-0.026705,0.004314,0.012977,-39.869999,-8.87,-21.5,1a
2019-07-15_141024:120,-0.462646,-0.077271,-0.069122,-0.023592,0.005901,0.012123,-39.060001,-9.25,-21.870001000000002,1a
2019-07-15_141024:140,-0.454529,-0.071167,-0.063019,-0.015016999999999999,0.006693999999999999,0.009925,-39.060001,-9.25,-21.870001000000002,1a
2019-07-15_141024:160,-0.45196499999999995,-0.061005,-0.056915,-0.010531,0.004619,0.008948999999999999,-39.060001,-9.25,-21.870001000000002,1a
2019-07-15_141024:180,-0.45196499999999995,-0.055908000000000006,-0.055908000000000006,-0.009004999999999999,0.003368,0.008094,-40.18,-9.25,-21.18,1a
2019-07-15_141024:200,-0.45654300000000003,-0.052338,-0.053375,-0.006258,-0.000508,0.006691,-40.18,-9.25,-21.18,1a
2019-07-15_141024:220,-0.465179,-0.053863999999999995,-0.05438200000000001,-0.005465,-0.001118,0.006294,-41.0,-9.25,-21.18,1a
2019-07-15_141024:240,-0.46926899999999994,-0.055389,-0.05438200000000001,-0.0034509999999999996,-0.001057,0.00309,-41.0,-9.25,-21.18,1a
2019-07-15_141024:260,-0.47433500000000006,-0.061005,-0.057434000000000006,-0.000918,-0.000661,0.000587,-41.0,-9.25,-21.18,1a
2019-07-15_141024:280,-0.484497,-0.067108,-0.058960000000000005,0.000791,-0.000386,-0.0010609999999999999,-39.869999,-9.25,-21.5,1a
2019-07-15_141024:300,-0.504333,-0.071167,-0.057953,0.007902,0.0010789999999999999,-0.0064930000000000005,-39.869999,-9.25,-21.5,1a
2019-07-15_141024:320,-0.512482,-0.074738,-0.056915,0.011167,0.001964,-0.008019,-40.18,-8.87,-22.25,1a
2019-07-15_141024:340,-0.518066,-0.075226,-0.060486,0.021177,0.004954999999999999,-0.009484000000000001,-40.18,-8.87,-22.25,1a
2019-07-15_141024:360,-0.529266,-0.0737,-0.069122,0.02783,0.006541,-0.00927,-40.18,-8.87,-22.25,1a
2019-07-15_141024:380,-0.532806,-0.068115,-0.067108,0.031217,0.00761,-0.009148,-39.869999,-8.56,-22.68,1a
2019-07-15_141024:400,-0.528229,-0.057434000000000006,-0.070648,0.039976,0.011271999999999999,-0.013146000000000001,-39.869999,-8.56,-22.68,1a
2019-07-15_141024:420,-0.519073,-0.046265,-0.071686,0.042234,0.012248,-0.014977,-40.18,-8.87,-21.18,1a
2019-07-15_141024:440,-0.5119630000000001,-0.035065,-0.073212,0.046475999999999996,0.01414,-0.017571,-40.18,-8.87,-21.18,1a
2019-07-15_141024:460,-0.514008,-0.028961,-0.070648,0.046995,0.015392,-0.018241999999999998,-40.18,-8.87,-21.18,1a
2019-07-15_141024:480,-0.684326,-0.034058,-0.043213,0.046934,0.015453,-0.018761,-41.0,-8.18,-22.25,1a
2019-07-15_141024:500,-0.556213,-0.020325,-0.10675,0.048857,0.013255000000000001,-0.02343,-41.0,-8.18,-22.25,1a
2019-07-15_141024:520,-0.556702,-0.014221000000000001,-0.027435,0.046995,0.016794999999999997,-0.022026,-39.869999,-7.37,-21.870001000000002,1a
2019-07-15_141024:540,-0.589752,-0.023375999999999997,-0.074738,0.044858999999999996,0.01823,-0.022484,-39.869999,-7.37,-21.870001000000002,1a
2019-07-15_141024:560,-0.491638,-0.004059,-0.056427,0.041624,0.018504,-0.026726,-39.869999,-7.37,-21.870001000000002,1a
2019-07-15_141024:580,-0.47943100000000005,-0.006592,-0.050323,0.039701,0.017497,-0.022300999999999998,-40.560001,-7.75,-22.25,1a
2019-07-15_141024:600,-0.452484,-0.025421,-0.047791,0.030331999999999998,0.012981,-0.0035020000000000003,-40.560001,-7.75,-22.25,1a
2019-07-15_141024:620,-0.42401099999999997,-0.031006,-0.048279,0.02783,0.011881999999999998,-0.00158,-40.560001,-7.75,-22.25,1a
2019-07-15_141024:640,-0.42401099999999997,-0.043213,-0.039642000000000004,0.023222,0.006755,0.0053479999999999995,-40.18,-8.18,-20.25,1a
2019-07-15_141024:660,-0.44638100000000003,-0.05285599999999999,-0.042175,0.020658000000000003,0.002757,0.004493,-40.18,-8.18,-20.25,1a
2019-07-15_141024:680,-0.43823199999999995,-0.056427,-0.048798,0.019712,0.000346,0.004615,-40.560001,-7.06,-20.68,1a
2019-07-15_141024:700,-0.451477,-0.06149299999999999,-0.057434000000000006,0.017332,-0.004353,0.006416,-40.560001,-7.06,-20.68,1a
2019-07-15_141024:720,-0.462128,-0.069641,-0.071686,0.016874,-0.00594,0.005439,-40.18,-6.68,-21.18,1a
2019-07-15_141024:740,-0.47180200000000005,-0.066589,-0.07775900000000001,0.016142,-0.012776000000000001,0.006141,-40.18,-6.68,-21.18,1a
2019-07-15_141024:760,-0.48095699999999997,-0.068634,-0.086914,0.016325,-0.017322999999999998,0.006813,-40.18,-6.68,-21.18,1a
2019-07-15_141024:780,-0.47180200000000005,-0.065063,-0.09201000000000001,0.016203,-0.019093000000000002,0.006019,-40.560001,-6.25,-20.68,1a
2019-07-15_141024:800,-0.471283,-0.057434000000000006,-0.09149199999999999,0.015745,-0.020038999999999998,0.004432,-40.560001,-6.25,-20.68,1a
2019-07-15_141024:820,-0.47842399999999996,-0.055389,-0.09149199999999999,0.015287,-0.01891,0.002845,-40.18,-5.18,-22.25,1a
2019-07-15_141024:840,-0.485016,-0.051849,-0.086914,0.013334,-0.01299,-0.001641,-40.18,-5.18,-22.25,1a
2019-07-15_141024:860,-0.474854,-0.049805,-0.082336,0.012602,-0.008992,-0.003319,-40.18,-5.18,-22.25,1a
2019-07-15_141024:880,-0.454529,-0.053375,-0.079803,0.012541,-0.0074659999999999995,-0.004021,-39.5,-5.5,-23.5,1a
2019-07-15_141024:900,-0.444855,-0.05285599999999999,-0.077271,0.014616,-0.007802,-0.005425,-39.5,-5.5,-23.5,1a
2019-07-15_141024:920,-0.45043900000000003,-0.05285599999999999,-0.074738,0.01605,-0.008931,-0.005639,-39.060001,-4.5,-22.68,1a
2019-07-15_141024:940,-0.45043900000000003,-0.050842,-0.07421900000000001,0.019071,-0.013203,-0.004631000000000001,-39.060001,-4.5,-22.68,1a
2019-07-15_141024:960,-0.467743,-0.046265,-0.075226,0.020444999999999998,-0.014241,-0.003899,-39.060001,-4.5,-22.68,1a
2019-07-15_141024:980,-0.47689799999999993,-0.044219999999999995,-0.07421900000000001,0.020506,-0.013936000000000002,-0.003655,-38.68,-4.37,-24.68,1a
2019-07-15_141025:000,-0.474854,-0.041687,-0.075226,0.020444999999999998,-0.010884,-0.0023120000000000003,-38.68,-4.37,-24.68,1a
2019-07-15_141025:020,-0.481476,-0.039642000000000004,-0.076263,0.019987,-0.009755,-0.001854,-38.68,-4.37,-24.68,1a
2019-07-15_141025:040,-0.494171,-0.036591000000000005,-0.074738,0.01779,-0.004353,-0.001183,-39.869999,-3.75,-24.25,1a
2019-07-15_141025:060,-0.49926800000000005,-0.034058,-0.07016,0.014952000000000002,-5e-05,-0.00023700000000000001,-39.869999,-3.75,-24.25,1a
2019-07-15_141025:080,-0.510437,-0.028961,-0.067108,0.013090000000000001,0.001964,0.000343,-39.060001,-3.68,-25.870001000000002,1a
2019-07-15_141025:100,-0.5205989999999999,-0.027435,-0.063538,0.007566,0.007488,0.000129,-39.060001,-3.68,-25.870001000000002,1a
2019-07-15_141025:120,-0.541443,-0.027435,-0.056427,0.005705,0.008617,-0.00023700000000000001,-39.060001,-3.68,-25.870001000000002,1a
2019-07-15_141025:140,-0.544495,-0.026917,-0.058960000000000005,0.000669,0.011333,-0.001397,-38.68,-3.37,-24.25,1a
2019-07-15_141025:160,-0.525696,-0.024902,-0.05996699999999999,-0.001009,0.012065000000000001,-0.002251,-38.68,-3.37,-24.25,1a
2019-07-15_141025:180,-0.515533,-0.022858,-0.063538,-0.004152,0.012614,-0.003899,-39.5,-3.68,-23.5,1a
2019-07-15_141025:200,-0.519592,-0.021332,-0.067108,-0.006319,0.012401,-0.006218,-39.5,-3.68,-23.5,1a
2019-07-15_141025:220,-0.624847,-0.027435,-0.057953,-0.007723000000000001,0.010722,-0.008355,-39.060001,-4.0,-25.0,1a
2019-07-15_141025:240,-0.615692,-0.019806,-0.094055,-0.007326000000000001,0.009623999999999999,-0.009423,-39.060001,-4.0,-25.0,1a
2019-07-15_141025:260,-0.590271,-0.017273,-0.051330999999999995,-0.009401000000000001,0.017314,-0.0037770000000000004,-39.060001,-4.0,-25.0,1a
2019-07-15_141025:280,-0.608063,-0.027954000000000003,-0.082855,-0.008516,0.019816999999999998,-0.005944,-39.5,-3.68,-25.0,1a
2019-07-15_141025:300,-0.5205989999999999,-0.007599,-0.068115,-0.007448000000000001,0.025675999999999997,-0.015252000000000002,-39.5,-3.68,-25.0,1a
2019-07-15_141025:320,-0.48754899999999995,-0.006592,-0.071167,-0.0066549999999999995,0.026286,-0.01281,-39.5,-3.68,-25.0,1a
2019-07-15_141025:340,-0.432648,-0.009644,-0.07421900000000001,-0.004427,0.024883000000000002,-0.012993000000000001,-39.5,-5.18,-23.059998999999998,1a
2019-07-15_141025:360,-0.401642,-0.002014,-0.072693,-0.004091,0.023479,-0.01278,-39.5,-5.18,-23.059998999999998,1a
2019-07-15_141025:380,-0.410278,-0.002014,-0.065582,-0.0028399999999999996,0.020763,-0.006951000000000001,-40.560001,-5.18,-21.75,1a
2019-07-15_141025:400,-0.435699,-0.009125,-0.06405599999999999,-0.001192,0.01765,-0.003899,-40.560001,-5.18,-21.75,1a
2019-07-15_141025:420,-0.44281000000000004,-0.006592,-0.061005,-0.000277,0.01353,-0.0057,-40.560001,-5.18,-21.75,1a
2019-07-15_141025:440,-0.43823199999999995,-0.002014,-0.066589,-0.000277,0.007365000000000001,-0.0012439999999999999,-40.560001,-5.87,-20.559998999999998,1a
2019-07-15_141025:460,-0.443329,-0.002014,-0.076263,-0.0032979999999999997,-0.007344,0.011482,-40.560001,-5.87,-20.559998999999998,1a
2019-07-15_141025:480,-0.448425,-0.0035399999999999997,-0.0849,-0.005007,-0.013325,0.015632,-41.0,-6.56,-20.559998999999998,1a
2019-07-15_141025:500,-0.45553599999999994,-0.011169,-0.100159,-0.009401000000000001,-0.031117000000000002,0.026588,-41.0,-6.56,-20.559998999999998,1a
2019-07-15_141025:520,-0.462646,-0.011687999999999999,-0.11233499999999999,-0.01166,-0.034688,0.029579,-41.0,-6.56,-20.559998999999998,1a
2019-07-15_141025:540,-0.49823,-0.023895,-0.12353499999999999,-0.019411,-0.033832999999999995,0.035438,-40.68,-6.25,-21.059998999999998,1a
2019-07-15_141025:560,-0.502808,-0.03302,-0.121002,-0.021792,-0.030782,0.034492,-40.68,-6.25,-21.059998999999998,1a
2019-07-15_141025:580,-0.500275,-0.039124,-0.111847,-0.026186,-0.023274,0.032386,-40.0,-4.75,-22.559998999999998,1a
2019-07-15_141025:600,-0.490112,-0.045226999999999996,-0.099121,-0.029848000000000003,-0.016103,0.033516000000000004,-40.0,-4.75,-22.559998999999998,1a
2019-07-15_141025:620,-0.46926899999999994,-0.05285599999999999,-0.08743300000000001,-0.033083,-0.011128,0.034553,-40.0,-4.75,-22.559998999999998,1a
2019-07-15_141025:640,-0.45553599999999994,-0.05996699999999999,-0.080322,-0.036257,-0.008687,0.035347,-40.0,-4.0,-24.18,1a
2019-07-15_141025:660,-0.44384799999999996,-0.076263,-0.081329,-0.037081,-0.00948,0.035102,-40.0,-4.0,-24.18,1a
2019-07-15_141025:680,-0.433655,-0.081848,-0.083374,-0.037386,-0.013050999999999998,0.030769,-38.75,-4.0,-23.370001000000002,1a
2019-07-15_141025:700,-0.429596,-0.079803,-0.088959,-0.03705,-0.019429,0.027656,-38.75,-4.0,-23.370001000000002,1a
2019-07-15_141025:720,-0.43011499999999997,-0.078278,-0.09454299999999999,-0.037813,-0.026936,0.027045999999999997,-38.75,-4.0,-23.370001000000002,1a
2019-07-15_141025:740,-0.45654300000000003,-0.080322,-0.097595,-0.038515,-0.032033,0.02494,-39.5,-4.0,-24.18,1a
2019-07-15_141025:760,-0.467224,-0.081848,-0.104218,-0.038912,-0.032764999999999996,0.020149,-39.5,-4.0,-24.18,1a
2019-07-15_141025:780,-0.485016,-0.084381,-0.110321,-0.0376,-0.030049,0.013862000000000001,-38.68,-3.25,-25.370001000000002,1a
2019-07-15_141025:800,-0.500275,-0.083862,-0.107269,-0.035006,-0.024738999999999997,0.007759,-38.68,-3.25,-25.370001000000002,1a
2019-07-15_141025:820,-0.509918,-0.079803,-0.11233499999999999,-0.031161,-0.018512999999999998,0.002693,-38.68,-3.25,-25.370001000000002,1a
2019-07-15_141025:840,-0.508911,-0.076752,-0.11080899999999999,-0.026522000000000004,-0.01241,-0.001366,-38.0,-3.25,-25.75,1a
2019-07-15_141025:860,-0.502319,-0.068115,-0.109802,-0.021212,-0.007679999999999999,-0.003655,-38.0,-3.25,-25.75,1a
2019-07-15_141025:880,-0.49823,-0.057953,-0.11538699999999999,-0.016421,-0.005299,-0.005547,-36.869999,-4.37,-26.559998999999998,1a
2019-07-15_141025:900,-0.503845,-0.046265,-0.11795,-0.012972,-0.0046890000000000005,-0.005822,-36.869999,-4.37,-26.559998999999998,1a
2019-07-15_141025:920,-0.502808,-0.041687,-0.12353499999999999,-0.01111,-0.0046890000000000005,-0.003228,-36.869999,-4.37,-26.559998999999998,1a
2019-07-15_141025:940,-0.5109560000000001,-0.039124,-0.124054,-0.009706999999999999,-0.0037119999999999996,-0.0008470000000000001,-37.560001,-5.5,-26.68,1a
2019-07-15_141025:960,-0.510437,-0.035583,-0.12658699999999998,-0.008851999999999999,-0.002095,-0.000664,-37.560001,-5.5,-26.68,1a
2019-07-15_141025:980,-0.517548,-0.038116000000000004,-0.133179,-0.00873,-0.000386,0.00028199999999999997,-36.869999,-5.18,-27.5,1a
2019-07-15_141026:000,-0.538391,-0.044739,-0.136749,-0.00873,0.000133,0.001564,-36.869999,-5.18,-27.5,1a
2019-07-15_141026:020,-0.585175,-0.047272,-0.167755,-0.008181,-0.0033159999999999995,0.0008619999999999999,-36.869999,-5.18,-27.5,1a
2019-07-15_141026:040,-0.520111,-0.058441,-0.134216,-0.0069299999999999995,-0.002187,-0.001519,-36.5,-5.5,-27.059998999999998,1a
2019-07-15_141026:060,-0.565338,-0.063019,-0.152008,-0.00461,-0.0005690000000000001,-0.009087,-36.5,-5.5,-27.059998999999998,1a
2019-07-15_141026:080,-0.522644,-0.060486,-0.138794,-0.0025960000000000002,0.001994,-0.011681,-37.18,-6.18,-27.5,1a
2019-07-15_141026:100,-0.484009,-0.065063,-0.130646,-0.0014060000000000001,0.004222,-0.009545,-37.18,-6.18,-27.5,1a
2019-07-15_141026:120,-0.48043800000000003,-0.065063,-0.138275,-0.003054,0.006023,-0.005547,-37.18,-6.18,-27.5,1a
2019-07-15_141026:140,-0.41842700000000005,-0.072693,-0.135742,-0.004213000000000001,0.007762000000000001,0.001625,-37.560001,-6.18,-27.5,1a
2019-07-15_141026:160,-0.404175,-0.081329,-0.145905,-0.005526,0.008556,0.001777,-37.560001,-6.18,-27.5,1a
2019-07-15_141026:180,-0.410797,-0.087952,-0.156067,-0.007143000000000001,0.00703,-0.001854,-35.68,-6.18,-26.68,1a
2019-07-15_141026:200,-0.409271,-0.095581,-0.1586,-0.007784,0.0029100000000000003,-0.001641,-35.68,-6.18,-26.68,1a
2019-07-15_141026:220,-0.40316799999999997,-0.10116599999999999,-0.169281,-0.008059,-0.003285,-0.001519,-35.68,-6.18,-26.68,1a
2019-07-15_141026:240,-0.399597,-0.101685,-0.175903,-0.007784,-0.010457,-0.002648,-36.060001,-6.56,-25.5,1a
2019-07-15_141026:260,-0.417389,-0.096588,-0.193695,-0.007662,-0.018819,-0.004357,-36.060001,-6.56,-25.5,1a
2019-07-15_141026:280,-0.42453,-0.092529,-0.20538299999999998,-0.007265000000000001,-0.027333,-0.007286,-36.0,-7.25,-27.059998999999998,1a
2019-07-15_141026:300,-0.44995100000000005,-0.085388,-0.209961,-0.0064719999999999995,-0.033223,-0.010613,-36.0,-7.25,-27.059998999999998,1a
2019-07-15_141026:320,-0.469757,-0.082336,-0.209961,-0.0056170000000000005,-0.032094,-0.013604,-36.0,-7.25,-27.059998999999998,1a
2019-07-15_141026:340,-0.46469099999999997,-0.075745,-0.201843,-0.004213000000000001,-0.025594,-0.016655,-35.060001,-7.68,-28.25,1a
2019-07-15_141026:360,-0.45654300000000003,-0.069641,-0.19622799999999999,-0.002657,-0.017963999999999997,-0.018639,-35.060001,-7.68,-28.25,1a
2019-07-15_141026:380,-0.444855,-0.061005,-0.187592,-0.001467,-0.012929,-0.017785,-35.060001,-8.5,-27.5,1a
2019-07-15_141026:400,-0.440796,-0.055908000000000006,-0.18096900000000002,-0.000246,-0.009816,-0.016442,-35.060001,-8.5,-27.5,1a
2019-07-15_141026:420,-0.44027700000000003,-0.050842,-0.172852,0.000334,-0.007831999999999999,-0.016655,-35.060001,-8.5,-27.5,1a
2019-07-15_141026:440,-0.44384799999999996,-0.045226999999999996,-0.172333,0.000669,-0.006093,-0.015648,-33.060001,-8.75,-27.5,1a
2019-07-15_141026:460,-0.44384799999999996,-0.043213,-0.1698,0.000547,-0.005299,-0.01281,-33.060001,-8.75,-27.5,1a
2019-07-15_141026:480,-0.43670699999999996,-0.043213,-0.168793,0.000395,-0.005543,-0.010491,-33.5,-9.18,-28.68,1a
2019-07-15_141026:500,-0.433167,-0.045226999999999996,-0.169281,0.000395,-0.006215,-0.008537999999999999,-33.5,-9.18,-28.68,1a
2019-07-15_141026:520,-0.438751,-0.046752999999999996,-0.167755,0.001066,-0.005818,-0.006218,-33.5,-9.18,-28.68,1a
2019-07-15_141026:540,-0.454529,-0.044739,-0.165741,0.000883,-0.0039570000000000004,-0.004906000000000001,-33.060001,-10.0,-29.5,1a
2019-07-15_141026:560,-0.461121,-0.044739,-0.162689,0.000547,-0.00044699999999999997,-0.00396,-33.060001,-10.0,-29.5,1a
2019-07-15_141026:580,-0.45907600000000004,-0.043213,-0.158112,-0.000246,0.002696,-0.003319,-32.68,-10.25,-29.5,1a
2019-07-15_141026:600,-0.462646,-0.046752999999999996,-0.157074,-0.001375,0.004649,-0.002037,-32.68,-10.25,-29.5,1a
2019-07-15_141026:620,-0.473846,-0.045745999999999995,-0.157074,-0.002321,0.005229,-0.000176,-32.68,-10.25,-29.5,1a
2019-07-15_141026:640,-0.48196400000000006,-0.048279,-0.160126,-0.0028399999999999996,0.005046,0.00132,-32.68,-9.56,-27.870001000000002,1a
2019-07-15_141026:660,-0.49823,-0.047791,-0.165222,-0.0034509999999999996,0.005016,0.000404,-32.68,-9.56,-27.870001000000002,1a
2019-07-15_141026:680,-0.507904,-0.050323,-0.166229,-0.002993,0.004833,-0.0023120000000000003,-32.68,-10.68,-29.5,1a
2019-07-15_141026:700,-0.525696,-0.050842,-0.174896,-0.0021079999999999996,0.0052899999999999996,-0.004692,-32.68,-10.68,-29.5,1a
2019-07-15_141026:720,-0.535858,-0.044739,-0.18096900000000002,5.9e-05,0.008434,-0.005639,-32.68,-10.68,-29.5,1a
2019-07-15_141026:740,-0.541443,-0.039642000000000004,-0.184021,0.002531,0.014262,-0.005944,-32.25,-10.25,-29.0,1a
2019-07-15_141026:760,-0.5480649999999999,-0.025421,-0.189636,0.004789,0.020091,-0.0064930000000000005,-32.25,-10.25,-29.0,1a
2019-07-15_141026:780,-0.6212770000000001,-0.021332,-0.186584,0.005308,0.025401,-0.004692,-32.25,-10.25,-29.5,1a
2019-07-15_141026:800,-0.521637,-0.011687999999999999,-0.21859699999999999,0.004057,0.024608,-0.002373,-32.25,-10.25,-29.5,1a
2019-07-15_141026:820,-0.609589,-0.016753999999999998,-0.150482,0.00048600000000000005,0.03416,0.0021739999999999997,-32.25,-10.25,-29.5,1a
2019-07-15_141026:840,-0.572479,-0.034546,-0.185547,-0.0015279999999999998,0.038554000000000005,0.0037,-32.68,-10.25,-28.68,1a
2019-07-15_141026:860,-0.49823,-0.031494,-0.148956,-0.001131,0.044719,-0.002251,-32.68,-10.25,-28.68,1a
2019-07-15_141026:880,-0.451477,-0.036072,-0.152008,0.000852,0.047832,-0.004967,-34.18,-10.25,-26.68,1a
2019-07-15_141026:900,-0.417908,-0.029968,-0.128601,0.004728,0.049785,-0.00747,-34.18,-10.25,-26.68,1a
2019-07-15_141026:920,-0.381805,-0.01828,-0.107269,0.006986,0.052684,-0.008202,-34.18,-10.25,-26.68,1a
2019-07-15_141026:940,-0.39502,-0.014740000000000001,-0.095062,0.009031,0.054332000000000005,-0.0054859999999999996,-35.369999,-10.0,-25.5,1a
2019-07-15_141026:960,-0.42147799999999996,-0.0025329999999999997,-0.09454299999999999,0.009947,0.051157999999999995,-0.006431999999999999,-35.369999,-10.0,-25.5,1a
2019-07-15_141026:980,-0.39859,0.0030210000000000002,-0.09454299999999999,0.009489000000000001,0.044841000000000006,-0.007683,-36.060001,-11.5,-24.25,1a
2019-07-15_141027:000,-0.39502,0.006592,-0.106232,0.008085,0.032726,-0.005944,-36.060001,-11.5,-24.25,1a
2019-07-15_141027:020,-0.405212,0.006072999999999999,-0.11386099999999999,0.005918,0.017833,-0.002037,-36.060001,-11.5,-24.25,1a
2019-07-15_141027:040,-0.435699,0.0030210000000000002,-0.12301600000000001,0.003843,0.001994,0.001167,-37.18,-11.06,-21.870001000000002,1a
2019-07-15_141027:060,-0.449432,0.004547,-0.129639,0.0016760000000000002,-0.012195999999999999,0.004036,-37.18,-11.06,-21.870001000000002,1a
2019-07-15_141027:080,-0.46569799999999995,0.0,-0.13269,0.00011999999999999999,-0.021748,0.007148000000000001,-36.869999,-10.25,-21.870001000000002,1a
2019-07-15_141027:100,-0.48754899999999995,-0.0025329999999999997,-0.13269,-0.002169,-0.0248,0.009224,-36.869999,-10.25,-21.870001000000002,1a
2019-07-15_141027:120,-0.508911,-0.017273,-0.133698,-0.0036340000000000005,-0.020741,0.011787,-36.869999,-10.25,-21.870001000000002,1a
2019-07-15_141027:140,-0.504333,-0.022858,-0.129639,-0.004213000000000001,-0.012318,0.013130000000000001,-36.5,-10.0,-22.68,1a
2019-07-15_141027:160,-0.47995,-0.031494,-0.121002,-0.003664,-0.004109000000000001,0.013404,-36.5,-10.0,-22.68,1a
2019-07-15_141027:180,-0.467743,-0.034546,-0.11386099999999999,-0.002535,0.001201,0.014381,-36.25,-9.56,-22.68,1a
2019-07-15_141027:200,-0.46823100000000006,-0.038635,-0.102173,-0.0015890000000000001,0.003917,0.016059,-36.25,-9.56,-22.68,1a
2019-07-15_141027:220,-0.467743,-0.037598,-0.097595,-0.0017109999999999998,0.005229,0.017372,-36.25,-9.56,-22.68,1a
2019-07-15_141027:240,-0.46469099999999997,-0.036591000000000005,-0.091003,-0.002718,0.006358,0.018837,-36.560001,-8.75,-23.5,1a
2019-07-15_141027:260,-0.459595,-0.037598,-0.088959,-0.00461,0.006418999999999999,0.019752000000000002,-36.560001,-8.75,-23.5,1a
2019-07-15_141027:280,-0.453491,-0.040161,-0.089478,-0.007081999999999999,0.005779,0.018501,-36.18,-8.75,-23.870001000000002,1a
2019-07-15_141027:300,-0.452484,-0.045226999999999996,-0.08843999999999999,-0.009463,0.00471,0.017372,-36.18,-8.75,-23.870001000000002,1a
2019-07-15_141027:320,-0.46469099999999997,-0.053375,-0.086426,-0.011507,0.0036420000000000003,0.015632,-36.18,-8.75,-23.870001000000002,1a
2019-07-15_141027:340,-0.47433500000000006,-0.059479,-0.084381,-0.012453,0.004161,0.012123,-35.18,-8.06,-23.059998999999998,1a
2019-07-15_141027:360,-0.46469099999999997,-0.061005,-0.079803,-0.012636,0.004649,0.0084,-35.18,-8.06,-23.059998999999998,1a
2019-07-15_141027:380,-0.474854,-0.06149299999999999,-0.078796,-0.012240000000000001,0.004894,0.005836,-35.5,-8.5,-23.5,1a
2019-07-15_141027:400,-0.49365200000000004,-0.057953,-0.064545,-0.011904000000000001,0.004314,0.004646,-35.5,-8.5,-23.5,1a
2019-07-15_141027:420,-0.49975600000000003,-0.055908000000000006,-0.059479,-0.011385,0.004222,0.003761,-35.5,-8.5,-23.5,1a
2019-07-15_141027:440,-0.486023,-0.053863999999999995,-0.066589,-0.010439,0.004314,0.001503,-35.75,-7.68,-23.059998999999998,1a
2019-07-15_141027:460,-0.47689799999999993,-0.054901,-0.076263,-0.009249,0.001628,-0.001183,-35.75,-7.68,-23.059998999999998,1a
2019-07-15_141027:480,-0.49468999999999996,-0.06253099999999999,-0.084381,-0.006745999999999999,-0.001973,-0.004296,-36.5,-8.06,-22.25,1a
2019-07-15_141027:500,-0.510437,-0.06405599999999999,-0.083374,-0.003512,-0.003102,-0.008232,-36.5,-8.06,-22.25,1a
2019-07-15_141027:520,-0.5368649999999999,-0.066589,-0.088959,0.00011999999999999999,-0.0009660000000000001,-0.010674,-36.5,-8.06,-22.25,1a
2019-07-15_141027:540,-0.636017,-0.075226,-0.076752,0.0041789999999999996,0.0024519999999999998,-0.011132,-36.060001,-8.06,-22.25,1a
2019-07-15_141027:560,-0.538391,-0.05285599999999999,-0.135223,0.007902,0.0017809999999999998,-0.011193,-36.060001,-8.06,-22.25,1a
2019-07-15_141027:580,-0.547058,-0.05996699999999999,-0.081329,0.011015,0.004314,-0.010125,-35.060001,-8.75,-23.5,1a
2019-07-15_141027:600,-0.597382,-0.048798,-0.113373,0.012754000000000001,0.0035810000000000004,-0.014336000000000002,-35.060001,-8.75,-23.5,1a
2019-07-15_141027:620,-0.540955,-0.044219999999999995,-0.110321,0.013883000000000001,0.003307,-0.01162,-35.060001,-8.75,-23.5,1a
2019-07-15_141027:640,-0.47280900000000003,-0.049805,-0.107269,0.013334,0.003886,-0.006554000000000001,-34.68,-9.18,-21.870001000000002,1a
2019-07-15_141027:660,-0.445862,-0.050323,-0.105743,0.010679000000000001,0.005686999999999999,-0.000786,-34.68,-9.18,-21.870001000000002,1a
2019-07-15_141027:680,-0.42807,-0.063019,-0.106232,0.009092,0.006816,0.008491,-35.060001,-8.75,-22.25,1a
2019-07-15_141027:700,-0.432648,-0.068115,-0.11080899999999999,0.0072310000000000004,0.006236,0.013191,-35.060001,-8.75,-22.25,1a
2019-07-15_141027:720,-0.427063,-0.075745,-0.12353499999999999,0.005857,0.002849,0.01432,-35.060001,-8.75,-22.25,1a
2019-07-15_141027:740,-0.416901,-0.08590700000000001,-0.134705,0.006193,-0.0033159999999999995,0.013800999999999999,-34.25,-7.68,-22.68,1a
2019-07-15_141027:760,-0.414337,-0.08590700000000001,-0.146912,0.006773,-0.010334999999999999,0.007942,-34.25,-7.68,-22.68,1a
2019-07-15_141027:780,-0.43518100000000004,-0.086426,-0.154541,0.007626999999999999,-0.017506,0.003517,-34.369999,-8.5,-23.059998999999998,1a
2019-07-15_141027:800,-0.474854,-0.09353600000000001,-0.16217,0.009641,-0.021412999999999998,0.000526,-34.369999,-8.5,-23.059998999999998,1a
2019-07-15_141027:820,-0.48043800000000003,-0.087952,-0.174377,0.012265999999999999,-0.021748,-0.003106,-34.369999,-8.5,-23.059998999999998,1a
2019-07-15_141027:840,-0.477905,-0.076752,-0.174377,0.016081,-0.019093000000000002,-0.003167,-33.560001,-7.25,-22.68,1a
2019-07-15_141027:860,-0.477905,-0.065582,-0.166748,0.018247,-0.015522999999999999,-0.002587,-33.560001,-7.25,-22.68,1a
2019-07-15_141027:880,-0.46926899999999994,-0.050842,-0.153534,0.0184,-0.01067,-0.0029219999999999997,-33.560001,-7.25,-23.5,1a
2019-07-15_141027:900,-0.45806899999999995,-0.044219999999999995,-0.144379,0.016538,-0.006673,-0.0037159999999999997,-33.560001,-7.25,-23.5,1a
2019-07-15_141027:920,-0.45095799999999997,-0.037598,-0.130646,0.013548,-0.004292,-0.005028,-33.560001,-7.25,-23.5,1a
2019-07-15_141027:940,-0.447906,-0.036591000000000005,-0.12658699999999998,0.009886,-0.0033159999999999995,-0.0054859999999999996,-32.060001,-6.87,-24.25,1a
2019-07-15_141027:960,-0.443329,-0.035065,-0.11795,0.005064,-0.0040479999999999995,-0.004845,-32.060001,-6.87,-24.25,1a
2019-07-15_141027:980,-0.435699,-0.031006,-0.117432,0.002073,-0.007405,-0.002495,-32.369999,-6.06,-25.059998999999998,1a
2019-07-15_141028:000,-0.43823199999999995,-0.027954000000000003,-0.119965,-0.000643,-0.011281,0.0007700000000000001,-32.369999,-6.06,-25.059998999999998,1a
2019-07-15_141028:020,-0.452484,-0.031494,-0.12149000000000001,-0.00339,-0.014180000000000002,0.003425,-32.369999,-6.06,-25.059998999999998,1a
2019-07-15_141028:040,-0.469757,-0.039124,-0.117432,-0.0056170000000000005,-0.013722,0.005806,-32.18,-6.06,-23.870001000000002,1a
2019-07-15_141028:060,-0.48196400000000006,-0.044739,-0.121002,-0.007265000000000001,-0.009999,0.005958,-32.18,-6.06,-23.870001000000002,1a
2019-07-15_141028:080,-0.481476,-0.058441,-0.12506099999999998,-0.008851999999999999,-0.005543,0.003639,-31.25,-6.06,-25.059998999999998,1a
2019-07-15_141028:100,-0.484497,-0.070648,-0.12353499999999999,-0.008608,-0.00063,0.002693,-31.25,-6.06,-25.059998999999998,1a
2019-07-15_141028:120,-0.492645,-0.086914,-0.122528,-0.006807,0.004161,0.001258,-31.25,-6.06,-25.059998999999998,1a
2019-07-15_141028:140,-0.49316400000000005,-0.097107,-0.119476,-0.003664,0.008006000000000001,-0.001183,-32.060001,-6.5,-25.870001000000002,1a
2019-07-15_141028:160,-0.496216,-0.10318,-0.11843900000000002,0.00048600000000000005,0.010997,-0.0037770000000000004,-32.060001,-6.5,-25.870001000000002,1a
2019-07-15_141028:180,-0.504333,-0.107269,-0.12149000000000001,0.005369,0.012737,-0.006829000000000001,-31.25,-6.5,-25.059998999999998,1a
2019-07-15_141028:200,-0.501282,-0.102173,-0.11233499999999999,0.009764,0.013316,-0.008965,-31.25,-6.5,-25.059998999999998,1a
2019-07-15_141028:220,-0.502808,-0.097595,-0.11080899999999999,0.013487,0.013744,-0.009545,-31.25,-6.5,-25.059998999999998,1a
2019-07-15_141028:240,-0.504333,-0.083374,-0.10928299999999999,0.016325,0.013866,-0.010551999999999999,-30.18,-6.06,-23.870001000000002,1a
2019-07-15_141028:260,-0.5048520000000001,-0.067108,-0.108795,0.017271,0.013255000000000001,-0.010674,-30.18,-6.06,-23.870001000000002,1a
2019-07-15_141028:280,-0.509918,-0.056915,-0.106232,0.016386,0.012798,-0.008873,-31.25,-6.06,-25.5,1a
2019-07-15_141028:300,-0.5541689999999999,-0.050323,-0.100159,0.013822,0.012462,-0.00689,-31.25,-6.06,-25.5,1a
2019-07-15_141028:320,-0.604492,-0.043213,-0.11691300000000002,0.010282,0.009593,-0.00515,-31.25,-6.06,-25.5,1a
2019-07-15_141028:340,-0.522644,-0.042175,-0.098633,0.005033,0.008342,-0.0013050000000000002,-30.559998999999998,-6.87,-24.68,1a
2019-07-15_141028:360,-0.575531,-0.046752999999999996,-0.12200899999999999,0.0019210000000000002,0.007273999999999999,-0.0010609999999999999,-30.559998999999998,-6.87,-24.68,1a
2019-07-15_141028:380,-0.539917,-0.046265,-0.115906,-0.000277,0.009073999999999999,-0.004753,-30.870001000000002,-6.06,-23.059998999999998,1a
2019-07-15_141028:400,-0.5134890000000001,-0.044219999999999995,-0.111847,-0.001467,0.012462,-0.004021,-30.870001000000002,-6.06,-23.059998999999998,1a
2019-07-15_141028:420,-0.473846,-0.044739,-0.108795,-0.000857,0.016916999999999998,-0.001854,-30.870001000000002,-6.06,-23.059998999999998,1a
2019-07-15_141028:440,-0.45605500000000004,-0.035583,-0.104706,-0.000399,0.019237,-0.003045,-30.68,-5.75,-24.68,1a
2019-07-15_141028:460,-0.417908,-0.022858,-0.100647,-0.000277,0.01942,-0.0019760000000000003,-30.68,-5.75,-24.68,1a
2019-07-15_141028:480,-0.394012,-0.017792,-0.09454299999999999,-0.001314,0.017588999999999997,0.000984,-31.370001000000002,-6.06,-23.870001000000002,1a
2019-07-15_141028:500,-0.42401099999999997,-0.013213999999999998,-0.08590700000000001,-0.0036340000000000005,0.014995,0.0033640000000000002,-31.370001000000002,-6.06,-23.870001000000002,1a
2019-07-15_141028:520,-0.45401,-0.011687999999999999,-0.088959,-0.0064719999999999995,0.012279,0.006019,-31.370001000000002,-6.06,-23.870001000000002,1a
2019-07-15_141028:540,-0.44638100000000003,-0.013702,-0.097595,-0.010042,0.008098000000000001,0.007484,-32.5,-6.06,-22.68,1a
2019-07-15_141028:560,-0.443329,-0.016753999999999998,-0.102692,-0.013430000000000001,0.002116,0.008003,-32.5,-6.06,-22.68,1a
2019-07-15_141028:580,-0.451477,-0.020325,-0.12353499999999999,-0.016939,-0.0046890000000000005,0.010139,-31.370001000000002,-6.5,-21.870001000000002,1a
2019-07-15_141028:600,-0.45907600000000004,-0.025421,-0.12912,-0.019198,-0.011647,0.0102,-31.370001000000002,-6.5,-21.870001000000002,1a
2019-07-15_141028:620,-0.47995,-0.031006,-0.145905,-0.020479,-0.017903,0.006965000000000001,-31.370001000000002,-6.5,-21.870001000000002,1a
2019-07-15_141028:640,-0.485016,-0.031006,-0.152008,-0.021059,-0.021016,0.006476999999999999,-31.370001000000002,-5.75,-22.25,1a
2019-07-15_141028:660,-0.49722299999999997,-0.030487,-0.15506,-0.021853,-0.019429,0.009071,-31.370001000000002,-5.75,-22.25,1a
2019-07-15_141028:680,-0.502808,-0.028961,-0.154022,-0.023806,-0.012471,0.012458,-31.0,-6.5,-23.5,1a
2019-07-15_141028:700,-0.490601,-0.033539,-0.143372,-0.025118,-0.003438,0.015266,-31.0,-6.5,-23.5,1a
2019-07-15_141028:720,-0.48300200000000004,-0.036072,-0.135742,-0.026522000000000004,0.0041,0.016365,-31.0,-6.5,-23.5,1a
2019-07-15_141028:740,-0.460114,-0.043213,-0.12353499999999999,-0.027498,0.008434,0.017981999999999998,-30.68,-6.06,-23.870001000000002,1a
2019-07-15_141028:760,-0.458588,-0.051330999999999995,-0.113373,-0.028109,0.009746,0.019355,-30.68,-6.06,-23.870001000000002,1a
2019-07-15_141028:780,-0.459595,-0.058960000000000005,-0.101685,-0.02878,0.009593,0.019905000000000003,-29.870001000000002,-6.5,-24.25,1a
2019-07-15_141028:800,-0.460114,-0.066071,-0.095581,-0.029085000000000003,0.007762000000000001,0.020576,-29.870001000000002,-6.5,-24.25,1a
2019-07-15_141028:820,-0.459595,-0.074738,-0.0849,-0.028627999999999997,0.005412,0.017830000000000002,-29.559998999999998,-5.06,-23.059998999999998,1a
2019-07-15_141028:840,-0.45654300000000003,-0.075745,-0.084381,-0.028109,0.004222,0.016059,-29.559998999999998,-5.06,-23.059998999999998,1a
2019-07-15_141028:860,-0.45706199999999997,-0.080322,-0.082336,-0.027041000000000003,0.002574,0.013771,-29.559998999999998,-5.06,-23.059998999999998,1a
2019-07-15_141028:880,-0.46060200000000007,-0.07928500000000001,-0.081329,-0.025575999999999998,0.001292,0.011146,-31.0,-5.75,-23.5,1a
2019-07-15_141028:900,-0.475861,-0.078796,-0.075745,-0.023653,0.001842,0.008154999999999999,-31.0,-5.75,-23.5,1a
2019-07-15_141028:920,-0.502808,-0.077271,-0.0737,-0.021609,0.005412,0.002845,-31.0,-5.75,-23.5,1a
2019-07-15_141028:940,-0.515533,-0.071167,-0.071686,-0.019228,0.012187,-0.003899,-30.25,-6.06,-23.059998999999998,1a
2019-07-15_141028:960,-0.514008,-0.065582,-0.072693,-0.017306000000000002,0.018962,-0.010856999999999999,-30.25,-6.06,-23.059998999999998,1a
2019-07-15_141028:980,-0.519073,-0.05996699999999999,-0.067596,-0.015749000000000003,0.023998,-0.015038,-30.25,-6.5,-21.870001000000002,1a
2019-07-15_141029:000,-0.519592,-0.05996699999999999,-0.059479,-0.014100999999999999,0.026805000000000002,-0.015923,-30.25,-6.5,-21.870001000000002,1a
2019-07-15_141029:020,-0.5058590000000001,-0.060486,-0.051330999999999995,-0.011843000000000001,0.027416000000000003,-0.013604,-30.25,-6.5,-21.870001000000002,1a
2019-07-15_141029:040,-0.490112,-0.059479,-0.05285599999999999,-0.008272,0.024486,-0.00869,-30.25,-6.87,-21.18,1a
2019-07-15_141029:060,-0.47943100000000005,-0.056427,-0.056915,-0.004427,0.019053999999999998,-0.00396,-30.25,-6.87,-21.18,1a
2019-07-15_141029:080,-0.495697,-0.049805,-0.058960000000000005,-0.0015279999999999998,0.013987999999999999,-0.0023120000000000003,-30.68,-8.37,-21.18,1a
2019-07-15_141029:100,-0.52774,-0.049805,-0.062012,-0.000521,0.0106,-0.0037770000000000004,-30.68,-8.37,-21.18,1a
2019-07-15_141029:120,-0.618225,-0.056427,-0.051330999999999995,-6.3e-05,0.007365000000000001,-0.007225,-30.68,-8.37,-21.18,1a
2019-07-15_141029:140,-0.5348510000000001,-0.052338,-0.073212,0.00011999999999999999,0.005565,-0.00927,-30.25,-9.06,-21.18,1a
2019-07-15_141029:160,-0.563812,-0.058441,-0.065582,0.00073,0.00703,-0.012139,-30.25,-9.06,-21.18,1a
2019-07-15_141029:180,-0.5658569999999999,-0.056427,-0.09454299999999999,-0.000643,0.007548999999999999,-0.012017,-30.25,-8.37,-20.25,1a
2019-07-15_141029:200,-0.536377,-0.059479,-0.09811399999999999,-0.000521,0.0071519999999999995,-0.008934000000000001,-30.25,-8.37,-20.25,1a
2019-07-15_141029:220,-0.48300200000000004,-0.064545,-0.100647,-0.0015890000000000001,0.008159,-0.009758,-30.25,-8.37,-20.25,1a
2019-07-15_141029:240,-0.462646,-0.065582,-0.102692,-0.002657,0.008556,-0.007225,-30.68,-7.56,-20.68,1a
2019-07-15_141029:260,-0.41842700000000005,-0.076752,-0.096588,-0.002535,0.00941,-0.00158,-30.68,-7.56,-20.68,1a
2019-07-15_141029:280,-0.417908,-0.082336,-0.089478,-0.0015279999999999998,0.009868,-0.001183,-29.870001000000002,-8.68,-20.559998999999998,1a
2019-07-15_141029:300,-0.431122,-0.086914,-0.07775900000000001,0.000334,0.008952,-0.0028309999999999997,-29.870001000000002,-8.68,-20.559998999999998,1a
2019-07-15_141029:320,-0.434692,-0.090485,-0.0737,0.00305,0.006633,-0.002251,-29.870001000000002,-8.68,-20.559998999999998,1a
2019-07-15_141029:340,-0.429108,-0.09301799999999999,-0.072174,0.005582999999999999,0.001842,-0.001519,-29.559998999999998,-8.68,-21.370001000000002,1a
2019-07-15_141029:360,-0.425018,-0.091003,-0.074738,0.007840999999999999,-0.004842,-0.001641,-29.559998999999998,-8.68,-21.370001000000002,1a
2019-07-15_141029:380,-0.453003,-0.085388,-0.0849,0.010038,-0.013538999999999999,0.00028199999999999997,-29.870001000000002,-8.0,-21.059998999999998,1a
2019-07-15_141029:400,-0.457581,-0.082855,-0.09454299999999999,0.012022,-0.02242,0.000831,-29.870001000000002,-8.0,-21.059998999999998,1a
2019-07-15_141029:420,-0.473846,-0.075226,-0.10928299999999999,0.013425999999999999,-0.029713,-0.003624,-29.870001000000002,-8.0,-21.059998999999998,1a
2019-07-15_141029:440,-0.477905,-0.067596,-0.11691300000000002,0.014280000000000001,-0.032918,-0.00808,-28.370001000000002,-7.56,-21.059998999999998,1a
2019-07-15_141029:460,-0.478912,-0.064545,-0.119476,0.01486,-0.030719999999999997,-0.010277,-28.370001000000002,-7.56,-21.059998999999998,1a
2019-07-15_141029:480,-0.482483,-0.061005,-0.12048299999999999,0.014463,-0.025807,-0.012993000000000001,-29.059998999999998,-8.37,-21.370001000000002,1a
2019-07-15_141029:500,-0.48300200000000004,-0.051330999999999995,-0.11691300000000002,0.014158,-0.020833,-0.013725999999999999,-29.059998999999998,-8.37,-21.370001000000002,1a
2019-07-15_141029:520,-0.475861,-0.046265,-0.113373,0.013731,-0.016316,-0.013146000000000001,-29.059998999999998,-8.37,-21.370001000000002,1a
2019-07-15_141029:540,-0.46670500000000004,-0.038635,-0.106232,0.012937,-0.013661000000000001,-0.013146000000000001,-28.0,-7.56,-23.0,1a
2019-07-15_141029:560,-0.46469099999999997,-0.033539,-0.104218,0.011625,-0.012318,-0.013512,-28.0,-7.56,-23.0,1a
2019-07-15_141029:580,-0.469757,-0.027954000000000003,-0.104218,0.010556999999999999,-0.012806999999999999,-0.013999999999999999,-26.870001000000002,-8.0,-23.0,1a
2019-07-15_141029:600,-0.477386,-0.026427999999999997,-0.104706,0.009489000000000001,-0.013112,-0.014244,-26.870001000000002,-8.0,-23.0,1a
2019-07-15_141029:620,-0.48095699999999997,-0.023895,-0.104218,0.008177,-0.012256999999999999,-0.013054,-26.870001000000002,-8.0,-23.0,1a
2019-07-15_141029:640,-0.481476,-0.023375999999999997,-0.105743,0.006956,-0.010274,-0.010674,-26.059998999999998,-8.37,-24.18,1a
2019-07-15_141029:660,-0.475372,-0.023895,-0.103699,0.005461,-0.007831999999999999,-0.00689,-26.059998999999998,-8.37,-24.18,1a
2019-07-15_141029:680,-0.47433500000000006,-0.027954000000000003,-0.102692,0.003904,-0.004964,-0.0032890000000000003,-25.75,-8.68,-24.18,1a
2019-07-15_141029:700,-0.473846,-0.031006,-0.09811399999999999,0.00186,-0.002522,-0.001458,-25.75,-8.68,-24.18,1a
2019-07-15_141029:720,-0.475372,-0.034058,-0.097107,-0.000399,-0.0005690000000000001,0.0007700000000000001,-25.75,-8.68,-24.18,1a
2019-07-15_141029:740,-0.47995,-0.042175,-0.097595,-0.002321,7.2e-05,0.002754,-25.059998999999998,-8.0,-25.0,1a
2019-07-15_141029:760,-0.486023,-0.046752999999999996,-0.099121,-0.00403,-0.000264,0.003242,-25.059998999999998,-8.0,-25.0,1a
2019-07-15_141029:780,-0.49517799999999995,-0.048798,-0.103699,-0.005007,-0.001118,0.002449,-24.25,-8.37,-25.75,1a
2019-07-15_141029:800,-0.501282,-0.049316000000000006,-0.103699,-0.006014,-0.001302,0.000984,-24.25,-8.37,-25.75,1a
2019-07-15_141029:820,-0.508911,-0.048798,-0.105225,-0.007326000000000001,-0.000661,-0.000634,-24.25,-8.37,-25.75,1a
2019-07-15_141029:840,-0.517059,-0.044739,-0.107269,-0.008516,0.00022400000000000002,-0.001397,-25.5,-8.06,-24.25,1a
2019-07-15_141029:860,-0.508423,-0.036072,-0.108276,-0.009646,0.002391,-0.001702,-25.5,-8.06,-24.25,1a
2019-07-15_141029:880,-0.516541,-0.032532,-0.10775799999999999,-0.011049,0.005686999999999999,-0.001519,-24.0,-8.5,-24.25,1a
2019-07-15_141029:900,-0.532806,-0.027435,-0.10775799999999999,-0.012514,0.009531999999999999,6.8e-05,-24.0,-8.5,-24.25,1a
2019-07-15_141029:920,-0.598907,-0.021332,-0.134705,-0.013888,0.008342,0.003761,-24.0,-8.5,-24.25,1a
2019-07-15_141029:940,-0.50943,-0.022858,-0.112854,-0.016085,0.00761,0.009864,-24.68,-8.5,-25.059998999999998,1a
2019-07-15_141029:960,-0.56485,-0.028961,-0.12353499999999999,-0.017946,0.008556,0.016182,-24.68,-8.5,-25.059998999999998,1a
2019-07-15_141029:980,-0.522125,-0.026427999999999997,-0.12200899999999999,-0.019288999999999997,0.0088,0.016243,-24.25,-8.06,-24.25,1a
2019-07-15_141030:000,-0.473846,-0.028442000000000002,-0.12912,-0.019198,0.0071519999999999995,0.013404,-24.25,-8.06,-24.25,1a
2019-07-15_141030:020,-0.45043900000000003,-0.029480000000000003,-0.131653,-0.018221,0.003978,0.008827,-24.25,-8.06,-24.25,1a
2019-07-15_141030:040,-0.397064,-0.026427999999999997,-0.12506099999999998,-0.016817,0.0024519999999999998,0.005622,-24.0,-8.06,-25.059998999999998,1a
2019-07-15_141030:060,-0.41333000000000003,-0.022369,-0.12149000000000001,-0.015749000000000003,0.0014759999999999999,0.0061719999999999995,-24.0,-8.06,-25.059998999999998,1a
2019-07-15_141030:080,-0.43518100000000004,-0.017273,-0.121002,-0.017214,-0.000722,0.009864,-24.25,-8.06,-25.059998999999998,1a
2019-07-15_141030:100,-0.41586300000000004,-0.011169,-0.12558,-0.019288999999999997,-0.004903,0.013008,-24.25,-8.06,-25.059998999999998,1a
2019-07-15_141030:120,-0.402649,-0.015747,-0.141327,-0.023714,-0.011189,0.014381,-24.25,-8.06,-25.059998999999998,1a
2019-07-15_141030:140,-0.42453,-0.021851,-0.154022,-0.027926,-0.0201,0.01493,-24.25,-8.5,-25.059998999999998,1a
2019-07-15_141030:160,-0.47332799999999997,-0.044739,-0.169281,-0.031771,-0.028188,0.014106,-24.25,-8.5,-25.059998999999998,1a
2019-07-15_141030:180,-0.481476,-0.053375,-0.187592,-0.033816000000000006,-0.031758,0.01081,-24.0,-9.18,-25.870001000000002,1a
2019-07-15_141030:200,-0.474854,-0.059479,-0.192688,-0.034273000000000005,-0.030964999999999996,0.007423000000000001,-24.0,-9.18,-25.870001000000002,1a
2019-07-15_141030:220,-0.48706099999999997,-0.059479,-0.193176,-0.033205,-0.027913,0.004432,-24.0,-9.18,-25.870001000000002,1a
2019-07-15_141030:240,-0.490112,-0.06405599999999999,-0.19165,-0.031679,-0.023091,0.002113,-23.68,-8.68,-26.25,1a
2019-07-15_141030:260,-0.48706099999999997,-0.07016,-0.189117,-0.029176999999999998,-0.017049,0.001716,-23.68,-8.68,-26.25,1a
2019-07-15_141030:280,-0.463654,-0.081848,-0.181488,-0.024935,-0.011464,0.001625,-23.0,-10.56,-26.68,1a
2019-07-15_141030:300,-0.445862,-0.086914,-0.17538499999999999,-0.018801,-0.0072829999999999995,0.000496,-23.0,-10.56,-26.68,1a
2019-07-15_141030:320,-0.440796,-0.094055,-0.174896,-0.011049,-0.006764,-0.0008470000000000001,-23.0,-10.56,-26.68,1a
2019-07-15_141030:340,-0.446899,-0.095062,-0.165741,-0.0020469999999999998,-0.007741,-0.002983,-22.25,-9.87,-25.5,1a
2019-07-15_141030:360,-0.452484,-0.091003,-0.163696,0.007840999999999999,-0.008015000000000001,-0.005974,-22.25,-9.87,-25.5,1a
2019-07-15_141030:380,-0.45196499999999995,-0.08743300000000001,-0.163696,0.017179,-0.008015000000000001,-0.008812,-22.559998999999998,-11.37,-26.68,1a
2019-07-15_141030:400,-0.452484,-0.07421900000000001,-0.163696,0.025572,-0.007893,-0.011071,-22.559998999999998,-11.37,-26.68,1a
2019-07-15_141030:420,-0.452484,-0.07016,-0.166229,0.032926,-0.006886,-0.014183000000000001,-22.559998999999998,-11.37,-26.68,1a
2019-07-15_141030:440,-0.45706199999999997,-0.062012,-0.167755,0.039244,-0.005543,-0.017174000000000002,-21.059998999999998,-11.0,-27.5,1a
2019-07-15_141030:460,-0.457581,-0.055389,-0.165741,0.044493,-0.0032240000000000003,-0.018853,-21.059998999999998,-11.0,-27.5,1a
2019-07-15_141030:480,-0.45907600000000004,-0.053375,-0.167755,0.048979,-0.001027,-0.020347999999999998,-20.370001000000002,-10.18,-27.5,1a
2019-07-15_141030:500,-0.47079499999999996,-0.051330999999999995,-0.163177,0.053617,0.000499,-0.022637,-20.370001000000002,-10.18,-27.5,1a
2019-07-15_141030:520,-0.478912,-0.048279,-0.162689,0.058164,0.001292,-0.02462,-20.370001000000002,-10.18,-27.5,1a
2019-07-15_141030:540,-0.484497,-0.040649,-0.158112,0.062466999999999995,0.0024519999999999998,-0.025596999999999998,-21.059998999999998,-9.5,-27.559998999999998,1a
2019-07-15_141030:560,-0.484497,-0.034058,-0.157593,0.06551900000000001,0.003764,-0.026055000000000002,-21.059998999999998,-9.5,-27.559998999999998,1a
2019-07-15_141030:580,-0.47842399999999996,-0.027435,-0.1586,0.067564,0.004649,-0.025414,-19.559998999999998,-7.56,-28.68,1a
2019-07-15_141030:600,-0.481476,-0.021332,-0.163696,0.06869299999999999,0.004436,-0.024132,-19.559998999999998,-7.56,-28.68,1a
2019-07-15_141030:620,-0.47995,-0.01828,-0.165222,0.06869299999999999,0.004436,-0.023888,-19.559998999999998,-7.56,-28.68,1a
2019-07-15_141030:640,-0.48654200000000003,-0.016266,-0.167755,0.067839,0.005443,-0.02401,-20.0,-7.18,-29.559998999999998,1a
2019-07-15_141030:660,-0.508911,-0.01828,-0.167267,0.067106,0.007426,-0.023827,-20.0,-7.18,-29.559998999999998,1a
2019-07-15_141030:680,-0.623322,-0.019318000000000002,-0.174377,0.066984,0.007670999999999999,-0.025292,-20.059998999999998,-5.75,-29.559998999999998,1a
2019-07-15_141030:700,-0.515015,-0.014221000000000001,-0.184021,0.066496,0.005443,-0.025657999999999997,-20.059998999999998,-5.75,-29.559998999999998,1a
2019-07-15_141030:720,-0.5419619999999999,-0.021851,-0.17843599999999998,0.065702,0.009959,-0.023888,-20.059998999999998,-5.75,-29.559998999999998,1a
2019-07-15_141030:740,-0.5343319999999999,-0.024902,-0.16217,0.064573,0.013193999999999999,-0.022300999999999998,-19.68,-3.56,-31.0,1a
2019-07-15_141030:760,-0.46875,-0.027954000000000003,-0.165741,0.063444,0.013193999999999999,-0.021691,-19.68,-3.56,-31.0,1a
2019-07-15_141030:780,-0.451477,-0.032532,-0.165222,0.061002999999999995,0.011058,-0.018517,-19.68,-1.75,-31.370001000000002,1a
2019-07-15_141030:800,-0.429108,-0.049316000000000006,-0.169281,0.057492999999999995,0.007213,-0.011345000000000001,-19.68,-1.75,-31.370001000000002,1a
2019-07-15_141030:820,-0.44433599999999995,-0.056915,-0.162689,0.05349500000000001,0.006145,-0.006157,-19.68,-1.75,-31.370001000000002,1a
2019-07-15_141030:840,-0.44433599999999995,-0.070648,-0.161163,0.048979,0.00883,-0.005364,-19.68,-0.37,-30.370001000000002,1a
2019-07-15_141030:860,-0.44027700000000003,-0.078278,-0.159637,0.04553,0.010081999999999999,-0.006768000000000001,-19.68,-0.37,-30.370001000000002,1a
2019-07-15_141030:880,-0.421967,-0.0849,-0.161163,0.042477999999999995,0.008281,-0.009758,-20.870001000000002,1.06,-30.75,1a
2019-07-15_141030:900,-0.410278,-0.090485,-0.162689,0.040494999999999996,0.004375,-0.011071,-20.870001000000002,1.06,-30.75,1a
2019-07-15_141030:920,-0.417389,-0.09201000000000001,-0.171326,0.039579,-0.001118,-0.011406,-20.870001000000002,1.06,-30.75,1a
2019-07-15_141030:940,-0.44027700000000003,-0.090485,-0.17843599999999998,0.03903,-0.007558,-0.013146000000000001,-20.5,1.25,-30.75,1a
2019-07-15_141030:960,-0.463654,-0.08743300000000001,-0.185059,0.038816,-0.012074,-0.015252000000000002,-20.5,1.25,-30.75,1a
2019-07-15_141030:980,-0.458588,-0.083374,-0.192688,0.039305,-0.015309,-0.014672,-21.18,2.75,-30.75,1a
2019-07-15_141031:000,-0.45401,-0.07775900000000001,-0.192688,0.039945,-0.01598,-0.015128999999999998,-21.18,2.75,-30.75,1a
2019-07-15_141031:020,-0.45043900000000003,-0.076752,-0.19165,0.040373,-0.014394,-0.018029,-21.18,2.75,-30.75,1a
2019-07-15_141031:040,-0.44638100000000003,-0.083374,-0.190125,0.041624,-0.011403,-0.020562,-20.059998999999998,2.75,-31.870001000000002,1a
2019-07-15_141031:060,-0.437225,-0.081848,-0.186584,0.044614999999999995,-0.00829,-0.022484,-20.059998999999998,2.75,-31.870001000000002,1a
2019-07-15_141031:080,-0.423004,-0.078796,-0.185547,0.048307,-0.007344,-0.023490999999999998,-19.370001000000002,3.5,-29.75,1a
2019-07-15_141031:100,-0.420441,-0.073212,-0.18096900000000002,0.05218300000000001,-0.007741,-0.025261000000000002,-19.370001000000002,3.5,-29.75,1a
2019-07-15_141031:120,-0.423492,-0.061005,-0.18249500000000002,0.054899,-0.009145,-0.027398000000000002,-19.370001000000002,3.5,-29.75,1a
2019-07-15_141031:140,-0.42858900000000005,-0.05285599999999999,-0.187073,0.0567,-0.01125,-0.028344,-20.059998999999998,5.68,-30.25,1a
2019-07-15_141031:160,-0.435699,-0.042694,-0.193695,0.057676,-0.013325,-0.028526999999999997,-20.059998999999998,5.68,-30.25,1a
2019-07-15_141031:180,-0.44281000000000004,-0.035065,-0.19927999999999998,0.057737000000000004,-0.014851,-0.027458999999999997,-19.68,6.56,-31.75,1a
2019-07-15_141031:200,-0.455017,-0.029480000000000003,-0.203369,0.056883,-0.015065,-0.025811,-19.68,6.56,-31.75,1a
2019-07-15_141031:220,-0.465179,-0.028442000000000002,-0.20285,0.055417999999999995,-0.012654,-0.02401,-19.68,6.56,-31.75,1a
2019-07-15_141031:240,-0.46569799999999995,-0.027435,-0.201843,0.053373000000000004,-0.007679999999999999,-0.021172,-19.370001000000002,7.5,-29.75,1a
2019-07-15_141031:260,-0.46316499999999994,-0.026917,-0.192688,0.050901,-0.002095,-0.018119999999999997,-19.370001000000002,7.5,-29.75,1a
2019-07-15_141031:280,-0.460114,-0.031006,-0.185059,0.047941000000000004,0.003093,-0.016838,-19.68,9.0,-31.0,1a
2019-07-15_141031:300,-0.470276,-0.036072,-0.170807,0.044614999999999995,0.006633,-0.016259,-19.68,9.0,-31.0,1a
2019-07-15_141031:320,-0.47433500000000006,-0.042694,-0.158112,0.041685,0.008952,-0.014518999999999999,-19.68,9.0,-31.0,1a
2019-07-15_141031:340,-0.478912,-0.044219999999999995,-0.150482,0.039366000000000005,0.009929,-0.01339,-19.370001000000002,9.75,-29.75,1a
2019-07-15_141031:360,-0.49111899999999997,-0.048798,-0.14386,0.036588999999999997,0.009929,-0.014397,-19.370001000000002,9.75,-29.75,1a
2019-07-15_141031:380,-0.49468999999999996,-0.045745999999999995,-0.139282,0.035032,0.009746,-0.015862,-19.370001000000002,10.87,-29.5,1a
2019-07-15_141031:400,-0.49975600000000003,-0.046265,-0.13623,0.032926,0.010204000000000001,-0.01693,-19.370001000000002,10.87,-29.5,1a
2019-07-15_141031:420,-0.49316400000000005,-0.045745999999999995,-0.14032,0.031125999999999997,0.010997,-0.017174000000000002,-19.370001000000002,10.87,-29.5,1a
2019-07-15_141031:440,-0.510437,-0.048798,-0.141846,0.029477999999999997,0.011333,-0.017113,-20.5,12.0,-29.5,1a
2019-07-15_141031:460,-0.581116,-0.048798,-0.152527,0.028562,0.008678,-0.017846,-20.5,12.0,-29.5,1a
2019-07-15_141031:480,-0.509918,-0.043213,-0.144379,0.027098,0.007548999999999999,-0.017693,-20.5,12.75,-28.25,1a
2019-07-15_141031:500,-0.579071,-0.043701,-0.153534,0.025419,0.008342,-0.015526,-20.5,12.75,-28.25,1a
2019-07-15_141031:520,-0.565338,-0.041168,-0.158112,0.025297,0.007304000000000001,-0.016655,-20.5,12.75,-28.25,1a
2019-07-15_141031:540,-0.502808,-0.034546,-0.1586,0.023558000000000003,0.007945,-0.016503,-20.5,13.18,-27.059998999999998,1a
2019-07-15_141031:560,-0.467743,-0.031494,-0.170807,0.022917,0.008891,-0.013054,-20.5,13.18,-27.059998999999998,1a
2019-07-15_141031:580,-0.41232299999999994,-0.019318000000000002,-0.18096900000000002,0.022703,0.009073999999999999,-0.011528,-21.18,13.18,-27.059998999999998,1a
2019-07-15_141031:600,-0.394012,-0.009644,-0.190125,0.02136,0.00822,-0.010154999999999999,-21.18,13.18,-27.059998999999998,1a
2019-07-15_141031:620,-0.389954,-0.006072999999999999,-0.194214,0.019255,0.007823,-0.005883,-21.18,13.18,-27.059998999999998,1a
2019-07-15_141031:640,-0.417908,-0.0055850000000000006,-0.193176,0.016783000000000003,0.009226999999999999,-0.002648,-21.559998999999998,14.18,-26.68,1a
2019-07-15_141031:660,-0.43518100000000004,-0.009644,-0.18811,0.014463,0.011484999999999999,-0.0017629999999999998,-21.559998999999998,14.18,-26.68,1a
2019-07-15_141031:680,-0.44384799999999996,-0.020325,-0.185059,0.013151,0.012004,-0.000634,-22.0,13.87,-26.68,1a
2019-07-15_141031:700,-0.432159,-0.027954000000000003,-0.187592,0.012815,0.008891,0.001991,-22.0,13.87,-26.68,1a
2019-07-15_141031:720,-0.44027700000000003,-0.044219999999999995,-0.19574,0.013334,0.00349,0.003181,-22.0,13.87,-26.68,1a
2019-07-15_141031:740,-0.451477,-0.045226999999999996,-0.197266,0.015074,-0.001912,0.0033640000000000002,-22.0,15.0,-25.059998999999998,1a
2019-07-15_141031:760,-0.46823100000000006,-0.046752999999999996,-0.20385699999999998,0.01779,-0.0052380000000000005,0.002235,-22.0,15.0,-25.059998999999998,1a
2019-07-15_141031:780,-0.47079499999999996,-0.047791,-0.20285,0.020109000000000002,-0.0052380000000000005,-0.000328,-22.68,14.56,-25.870001000000002,1a
2019-07-15_141031:800,-0.48706099999999997,-0.039642000000000004,-0.189636,0.021696,-0.001637,-0.002495,-22.68,14.56,-25.870001000000002,1a
2019-07-15_141031:820,-0.489075,-0.038116000000000004,-0.186066,0.022244999999999997,0.004954999999999999,-0.002373,-22.68,14.56,-25.870001000000002,1a
2019-07-15_141031:840,-0.476379,-0.037108999999999996,-0.159637,0.022489,0.011881999999999998,-0.00158,-21.559998999999998,15.37,-25.059998999999998,1a
2019-07-15_141031:860,-0.46926899999999994,-0.035583,-0.153015,0.022703,0.016399,-0.001183,-21.559998999999998,15.37,-25.059998999999998,1a
2019-07-15_141031:880,-0.447388,-0.033539,-0.128601,0.022917,0.017833,-0.0010609999999999999,-22.68,15.0,-24.25,1a
2019-07-15_141031:900,-0.44638100000000003,-0.034546,-0.12301600000000001,0.023435,0.015513999999999998,-0.000908,-22.68,15.0,-24.25,1a
2019-07-15_141031:920,-0.44027700000000003,-0.035065,-0.11795,0.024015,0.011545999999999999,0.000343,-22.68,15.0,-24.25,1a
2019-07-15_141031:940,-0.440796,-0.035583,-0.12048299999999999,0.024168000000000002,0.00883,0.001228,-23.75,16.870001000000002,-24.68,1a
2019-07-15_141031:960,-0.432159,-0.036591000000000005,-0.117432,0.024565,0.00056,0.003486,-23.75,16.870001000000002,-24.68,1a
2019-07-15_141031:980,-0.437225,-0.037108999999999996,-0.12454200000000001,0.024748,-0.003773,0.003517,-22.68,17.559998999999998,-22.68,1a
2019-07-15_141032:000,-0.459595,-0.041168,-0.124054,0.02429,-0.006032,0.0030280000000000003,-22.68,17.559998999999998,-22.68,1a
2019-07-15_141032:020,-0.462128,-0.040161,-0.127594,0.02371,-0.00594,0.004219,-22.68,17.559998999999998,-22.68,1a
2019-07-15_141032:040,-0.467224,-0.041168,-0.132172,0.023435,-0.00475,0.004615,-22.68,17.559998999999998,-22.25,1a
2019-07-15_141032:060,-0.473846,-0.048798,-0.13269,0.022917,-0.0024920000000000003,0.002754,-22.68,17.559998999999998,-22.25,1a
2019-07-15_141032:080,-0.489075,-0.048279,-0.126068,0.022764,0.001292,0.001258,-22.68,19.5,-22.68,1a
2019-07-15_141032:100,-0.478912,-0.052338,-0.12454200000000001,0.022642,0.004497,-0.000512,-22.68,19.5,-22.68,1a
2019-07-15_141032:120,-0.481476,-0.042694,-0.118958,0.022244999999999997,0.007304000000000001,-0.0029219999999999997,-22.68,19.5,-22.68,1a
2019-07-15_141032:140,-0.47079499999999996,-0.047272,-0.116425,0.021238,0.006938,-0.005028,-23.370001000000002,19.5,-22.25,1a
2019-07-15_141032:160,-0.44027700000000003,-0.072693,-0.127106,0.021513,0.0029100000000000003,-0.004296,-23.370001000000002,19.5,-22.25,1a
2019-07-15_141032:180,-0.492126,-0.063019,-0.11843900000000002,0.023954,0.00056,-0.0033799999999999998,-23.059998999999998,19.870001000000002,-20.68,1a
2019-07-15_141032:200,-0.490601,-0.069122,-0.118958,0.025022,-0.001057,-0.008416,-23.059998999999998,19.870001000000002,-20.68,1a
2019-07-15_141032:220,-0.497742,-0.066589,-0.124054,0.026548000000000002,-0.001576,-0.00988,-23.059998999999998,19.870001000000002,-20.68,1a
2019-07-15_141032:240,-0.504333,-0.071686,-0.131165,0.027555,-0.001393,-0.009667,-23.370001000000002,19.75,-21.18,1a
2019-07-15_141032:260,-0.511444,-0.076752,-0.139801,0.029752999999999998,0.0009570000000000001,-0.012473999999999999,-23.370001000000002,19.75,-21.18,1a
2019-07-15_141032:280,-0.587708,-0.084381,-0.14032,0.030851,0.0008960000000000001,-0.01339,-23.370001000000002,20.870001000000002,-18.68,1a
2019-07-15_141032:300,-0.5419619999999999,-0.081848,-0.183533,0.036772000000000006,0.000499,-0.016899,-23.370001000000002,20.870001000000002,-18.68,1a
2019-07-15_141032:320,-0.588745,-0.08843999999999999,-0.13269,0.040891000000000004,0.007213,-0.024346,-23.370001000000002,20.870001000000002,-18.68,1a
2019-07-15_141032:340,-0.541443,-0.07775900000000001,-0.157593,0.044737,0.011791,-0.028069,-24.18,20.559998999999998,-19.5,1a
2019-07-15_141032:360,-0.512482,-0.0737,-0.147949,0.048063,0.012248,-0.02694,-24.18,20.559998999999998,-19.5,1a
2019-07-15_141032:380,-0.454529,-0.067108,-0.154541,0.048796,0.011943,-0.024346,-24.5,20.559998999999998,-18.0,1a
2019-07-15_141032:400,-0.446899,-0.070648,-0.147949,0.047666,0.011271999999999999,-0.017174000000000002,-24.5,20.559998999999998,-18.0,1a
2019-07-15_141032:420,-0.429108,-0.072693,-0.152008,0.045926999999999996,0.010875,-0.008140999999999999,-24.5,20.559998999999998,-18.0,1a
2019-07-15_141032:440,-0.411804,-0.082336,-0.141327,0.044858999999999996,0.011211,-0.005242,-25.68,21.75,-17.18,1a
2019-07-15_141032:460,-0.43670699999999996,-0.09149199999999999,-0.137268,0.041746,0.011058,-0.004174000000000001,-25.68,21.75,-17.18,1a
2019-07-15_141032:480,-0.437225,-0.096588,-0.133698,0.041105,0.010814,-0.0054859999999999996,-25.68,21.370001000000002,-15.56,1a
2019-07-15_141032:500,-0.45401,-0.08996599999999999,-0.135742,0.035917000000000004,0.006418999999999999,-0.004235,-25.68,21.370001000000002,-15.56,1a
2019-07-15_141032:520,-0.429108,-0.09301799999999999,-0.145905,0.031736,0.0019030000000000002,-0.000786,-25.68,21.370001000000002,-15.56,1a
2019-07-15_141032:540,-0.446899,-0.097107,-0.148956,0.027951999999999998,-0.0033159999999999995,-0.002373,-25.68,21.370001000000002,-16.0,1a
2019-07-15_141032:560,-0.45806899999999995,-0.092529,-0.152008,0.02429,-0.010487,-0.003045,-25.68,21.370001000000002,-16.0,1a
2019-07-15_141032:580,-0.46316499999999994,-0.08590700000000001,-0.16217,0.02136,-0.017384,-0.002983,-26.0,22.5,-13.56,1a
2019-07-15_141032:600,-0.457581,-0.078796,-0.163696,0.017851,-0.021352,-0.00457,-26.0,22.5,-13.56,1a
2019-07-15_141032:620,-0.462128,-0.07016,-0.163696,0.014006000000000001,-0.020558,-0.007622,-26.0,22.5,-13.56,1a
2019-07-15_141032:640,-0.46875,-0.064545,-0.1586,0.012022,-0.018452,-0.009087,-27.18,21.75,-13.18,1a
2019-07-15_141032:660,-0.46670500000000004,-0.063019,-0.152527,0.007444,-0.009999,-0.012322,-27.18,21.75,-13.18,1a
2019-07-15_141032:680,-0.465179,-0.06149299999999999,-0.149475,0.006254,-0.007619,-0.013268,-26.370001000000002,21.75,-13.18,1a
2019-07-15_141032:700,-0.45706199999999997,-0.061005,-0.138794,0.004576,-0.002187,-0.013725999999999999,-26.370001000000002,21.75,-13.18,1a
2019-07-15_141032:720,-0.449432,-0.06405599999999999,-0.134705,0.004057,-0.001302,-0.014183000000000001,-26.370001000000002,21.75,-13.18,1a
2019-07-15_141032:740,-0.445862,-0.065582,-0.130646,0.003996,-0.001698,-0.014580000000000001,-26.75,22.18,-13.5,1a
2019-07-15_141032:760,-0.443329,-0.064545,-0.131653,0.004667,-0.0045060000000000005,-0.015801,-26.75,22.18,-13.5,1a
2019-07-15_141032:780,-0.44281000000000004,-0.063019,-0.135742,0.004972,-0.006154,-0.016166999999999997,-26.75,22.18,-13.5,1a
2019-07-15_141032:800,-0.44384799999999996,-0.063019,-0.139282,0.00717,-0.009206,-0.018822,-27.18,20.370001000000002,-14.25,1a
2019-07-15_141032:820,-0.449432,-0.063019,-0.143372,0.00897,-0.008870000000000001,-0.020347999999999998,-27.18,20.370001000000002,-14.25,1a
2019-07-15_141032:840,-0.45806899999999995,-0.067596,-0.14743,0.010282,-0.008199,-0.020225999999999997,-26.370001000000002,21.870001000000002,-13.06,1a
2019-07-15_141032:860,-0.475372,-0.074738,-0.152008,0.015591999999999998,-0.0033159999999999995,-0.017296000000000002,-26.370001000000002,21.870001000000002,-13.06,1a
2019-07-15_141032:880,-0.484497,-0.076263,-0.151489,0.017851,-0.001057,-0.016198,-27.18,21.059998999999998,-13.87,1a
2019-07-15_141032:900,-0.48706099999999997,-0.075226,-0.145905,0.023954,0.006358,-0.013848,-27.18,21.059998999999998,-13.87,1a
2019-07-15_141032:920,-0.48706099999999997,-0.07016,-0.142853,0.027219999999999998,0.010997,-0.01339,-27.18,21.059998999999998,-13.87,1a
2019-07-15_141032:940,-0.5058590000000001,-0.063019,-0.132172,0.028349,0.01292,-0.013604,-28.68,19.68,-13.5,1a
2019-07-15_141032:960,-0.508423,-0.055908000000000006,-0.12506099999999998,0.029661,0.01704,-0.016166999999999997,-28.68,19.68,-13.5,1a
2019-07-15_141032:980,-0.504333,-0.049316000000000006,-0.116425,0.029661,0.018321,-0.017113,-28.25,20.0,-11.5,1a
2019-07-15_141033:000,-0.49316400000000005,-0.044739,-0.109802,0.028959,0.021373,-0.018456,-28.25,20.0,-11.5,1a
2019-07-15_141033:020,-0.482483,-0.035583,-0.105225,0.027494,0.021769999999999998,-0.018119999999999997,-28.25,20.0,-11.5,1a
2019-07-15_141033:040,-0.48349,-0.029968,-0.107269,0.027098,0.021678,-0.017846,-29.370001000000002,20.0,-12.25,1a
2019-07-15_141033:060,-0.495697,-0.023895,-0.10116599999999999,0.02429,0.020824000000000002,-0.015038,-29.370001000000002,20.0,-12.25,1a
2019-07-15_141033:080,-0.576538,-0.022369,-0.100647,0.023374000000000002,0.018962,-0.014061,-30.18,19.68,-10.68,1a
2019-07-15_141033:100,-0.533844,-0.013213999999999998,-0.112854,0.019071,0.013590999999999999,-0.009087,-30.18,19.68,-10.68,1a
2019-07-15_141033:120,-0.602478,-0.012695,-0.105743,0.017575999999999998,0.011881999999999998,-0.00515,-30.18,19.68,-10.68,1a
2019-07-15_141033:140,-0.568909,-0.012695,-0.12353499999999999,0.014402000000000002,0.009197,-0.001366,-31.0,19.25,-9.87,1a
2019-07-15_141033:160,-0.508911,-0.002014,-0.127106,0.010954,0.006876999999999999,-0.001519,-31.0,19.25,-9.87,1a
2019-07-15_141033:180,-0.475372,0.001495,-0.142853,0.007963,0.005412,0.0008619999999999999,-30.559998999999998,19.25,-9.56,1a
2019-07-15_141033:200,-0.452484,0.006592,-0.137268,0.004637,0.006418999999999999,-0.000512,-30.559998999999998,19.25,-9.56,1a
2019-07-15_141033:220,-0.433167,0.01828,-0.12506099999999998,-0.003237,0.012584,0.001625,-30.559998999999998,19.25,-9.56,1a
2019-07-15_141033:240,-0.430634,0.021332,-0.12200899999999999,-0.006197,0.01414,0.005226,-31.25,19.25,-9.0,1a
2019-07-15_141033:260,-0.44638100000000003,0.010651,-0.108276,-0.01523,0.017925,0.012458,-31.25,19.25,-9.0,1a
2019-07-15_141033:280,-0.447906,0.007111,-0.105743,-0.018099,0.018047,0.013800999999999999,-31.25,19.25,-9.0,1a
2019-07-15_141033:300,-0.420959,-0.004547,-0.10928299999999999,-0.023134000000000002,0.012737,0.015846000000000002,-32.5,18.18,-8.25,1a
2019-07-15_141033:320,-0.42147799999999996,-0.015228,-0.111847,-0.024263999999999997,0.009197,0.014259,-32.5,18.18,-8.25,1a
2019-07-15_141033:340,-0.45401,-0.026917,-0.132172,-0.02585,0.000285,0.010414,-31.25,20.0,-8.56,1a
2019-07-15_141033:360,-0.45706199999999997,-0.037108999999999996,-0.14843800000000001,-0.026064,-0.010487,0.007881,-31.25,20.0,-8.56,1a
2019-07-15_141033:380,-0.45043900000000003,-0.044219999999999995,-0.176422,-0.024935,-0.021687,0.005012,-31.68,19.25,-9.75,1a
2019-07-15_141033:400,-0.460114,-0.049316000000000006,-0.180481,-0.022677000000000003,-0.02773,0.001777,-31.68,19.25,-9.75,1a
2019-07-15_141033:420,-0.510437,-0.056915,-0.17538499999999999,-0.015505000000000001,-0.021626,-0.002434,-31.68,19.25,-9.75,1a
2019-07-15_141033:440,-0.515533,-0.058441,-0.164703,-0.012636,-0.015919,-0.003167,-31.68,19.68,-10.18,1a
2019-07-15_141033:460,-0.48858599999999996,-0.06149299999999999,-0.150482,-0.002718,-0.001027,0.000221,-31.68,19.68,-10.18,1a
2019-07-15_141033:480,-0.47433500000000006,-0.066071,-0.141327,0.001066,0.002239,0.001625,-31.68,19.68,-10.18,1a
2019-07-15_141033:500,-0.454529,-0.066071,-0.122528,0.012998,0.005686999999999999,0.003303,-31.68,18.559998999999998,-11.37,1a
2019-07-15_141033:520,-0.447388,-0.069122,-0.117432,0.016874,0.004894,0.003151,-31.68,18.559998999999998,-11.37,1a
2019-07-15_141033:540,-0.459595,-0.065582,-0.11538699999999999,0.024229,0.001842,0.002357,-31.68,18.559998999999998,-10.56,1a
2019-07-15_141033:560,-0.462128,-0.061005,-0.112854,0.029875,-0.001759,0.000526,-31.68,18.559998999999998,-10.56,1a
2019-07-15_141033:580,-0.45706199999999997,-0.054901,-0.11691300000000002,0.034574,-0.005543,-0.001397,-31.68,18.559998999999998,-10.56,1a
2019-07-15_141033:600,-0.45401,-0.049316000000000006,-0.12048299999999999,0.037718,-0.008992,-0.0038380000000000003,-31.68,19.25,-10.56,1a
2019-07-15_141033:620,-0.45706199999999997,-0.043701,-0.12558,0.039762,-0.012074,-0.005883,-31.68,19.25,-10.56,1a
2019-07-15_141033:640,-0.463654,-0.039642000000000004,-0.12658699999999998,0.04141,-0.014119,-0.0078049999999999994,-31.25,19.25,-10.18,1a
2019-07-15_141033:660,-0.472321,-0.034058,-0.127106,0.0426,-0.013538999999999999,-0.010003,-31.25,19.25,-10.18,1a
2019-07-15_141033:680,-0.471283,-0.03302,-0.12912,0.043028,-0.011922,-0.011803,-31.25,19.25,-10.18,1a
2019-07-15_141033:700,-0.461639,-0.03302,-0.133698,0.043363,-0.010854,-0.012383,-32.68,18.870001000000002,-9.5,1a
2019-07-15_141033:720,-0.46569799999999995,-0.030487,-0.137756,0.043547,-0.011006,-0.010856999999999999,-32.68,18.870001000000002,-9.5,1a
2019-07-15_141033:740,-0.477386,-0.031494,-0.141846,0.043485,-0.011525,-0.009087,-32.0,19.68,-10.18,1a
2019-07-15_141033:760,-0.486023,-0.031006,-0.141846,0.042997,-0.010792,-0.009087,-32.0,19.68,-10.18,1a
2019-07-15_141033:780,-0.49316400000000005,-0.032013,-0.152527,0.042356,-0.008748,-0.010491,-32.0,19.68,-10.18,1a
2019-07-15_141033:800,-0.497742,-0.032532,-0.160126,0.041807,-0.006551,-0.011681,-31.559998999999998,19.25,-9.75,1a
2019-07-15_141033:820,-0.49823,-0.03302,-0.163696,0.041075,-0.003834,-0.012597,-31.559998999999998,19.25,-9.75,1a
2019-07-15_141033:840,-0.5073850000000001,-0.036072,-0.164215,0.040952999999999996,0.000133,-0.012017,-34.25,19.25,-9.75,1a
2019-07-15_141033:860,-0.512482,-0.035583,-0.161652,0.041288,0.005443,-0.01162,-34.25,19.25,-9.75,1a
2019-07-15_141033:880,-0.543488,-0.038635,-0.156586,0.042234,0.011455,-0.012139,-34.25,19.25,-9.75,1a
2019-07-15_141033:900,-0.5922850000000001,-0.036591000000000005,-0.1586,0.043608,0.013805000000000001,-0.013604,-34.0,20.0,-8.87,1a
2019-07-15_141033:920,-0.491638,-0.035065,-0.131165,0.045652,0.01414,-0.014244,-34.0,20.0,-8.87,1a
2019-07-15_141033:940,-0.52774,-0.032013,-0.138275,0.047331,0.018169,-0.015648,-32.75,18.18,-7.68,1a
2019-07-15_141033:960,-0.5495909999999999,-0.026917,-0.12353499999999999,0.047911,0.019176,-0.014855000000000002,-32.75,18.18,-7.68,1a
2019-07-15_141033:980,-0.467224,-0.025421,-0.12558,0.048001999999999996,0.016704,-0.01162,-32.75,18.18,-7.68,1a
2019-07-15_141034:000,-0.43670699999999996,-0.028442000000000002,-0.12454200000000001,0.046018,0.013469,-0.007561,-35.060001,17.68,-6.18,1a
2019-07-15_141034:020,-0.445862,-0.032013,-0.12658699999999998,0.04376,0.008617,-0.0034409999999999996,-35.060001,17.68,-6.18,1a
2019-07-15_141034:040,-0.43670699999999996,-0.043213,-0.133179,0.040708,0.003246,0.001228,-34.68,18.5,-5.37,1a
2019-07-15_141034:060,-0.42248500000000005,-0.051330999999999995,-0.137756,0.037229000000000005,0.000346,0.003822,-34.68,18.5,-5.37,1a
2019-07-15_141034:080,-0.443329,-0.070648,-0.138275,0.034391000000000005,-0.001363,0.004097,-34.68,18.5,-5.37,1a
2019-07-15_141034:100,-0.444855,-0.080322,-0.14032,0.032133,-0.002248,0.002113,-34.68,18.059998999999998,-4.06,1a
2019-07-15_141034:120,-0.459595,-0.099121,-0.142334,0.031339,-0.0027660000000000002,-0.001,-34.68,18.059998999999998,-4.06,1a
2019-07-15_141034:140,-0.44891400000000004,-0.104706,-0.144897,0.032194,-0.002919,-0.00747,-35.5,18.059998999999998,-3.68,1a
2019-07-15_141034:160,-0.43518100000000004,-0.100159,-0.149963,0.03372,-0.0046890000000000005,-0.013268,-35.5,18.059998999999998,-3.68,1a
2019-07-15_141034:180,-0.433167,-0.100647,-0.158112,0.035765,-0.00948,-0.012261,-35.5,18.059998999999998,-3.68,1a
2019-07-15_141034:200,-0.44384799999999996,-0.095581,-0.17385899999999999,0.038023,-0.016590999999999998,-0.011071,-36.18,18.059998999999998,-2.5,1a
2019-07-15_141034:220,-0.448425,-0.08843999999999999,-0.187592,0.039945,-0.022755,-0.012535,-36.18,18.059998999999998,-2.5,1a
2019-07-15_141034:240,-0.46569799999999995,-0.081848,-0.204376,0.041960000000000004,-0.028858999999999996,-0.013146000000000001,-35.68,17.68,-3.68,1a
2019-07-15_141034:260,-0.47433500000000006,-0.076752,-0.20486500000000002,0.043088999999999995,-0.032704000000000004,-0.014916,-35.68,17.68,-3.68,1a
2019-07-15_141034:280,-0.477386,-0.065582,-0.199799,0.043088999999999995,-0.030507,-0.016319999999999998,-35.68,17.68,-3.68,1a
2019-07-15_141034:300,-0.471283,-0.058441,-0.189636,0.041960000000000004,-0.025136000000000002,-0.016991,-36.369999,17.25,-3.18,1a
2019-07-15_141034:320,-0.454529,-0.051330999999999995,-0.177429,0.039549,-0.019306999999999998,-0.018456,-36.369999,17.25,-3.18,1a
2019-07-15_141034:340,-0.444855,-0.047272,-0.167755,0.036436,-0.015309,-0.02044,-36.060001,17.0,-4.25,1a
2019-07-15_141034:360,-0.425018,-0.046265,-0.158112,0.032376999999999996,-0.013936000000000002,-0.021691,-36.060001,17.0,-4.25,1a
2019-07-15_141034:380,-0.440796,-0.048279,-0.157074,0.0296,-0.014577000000000001,-0.021874,-36.060001,17.0,-4.25,1a
2019-07-15_141034:400,-0.45706199999999997,-0.047272,-0.158112,0.027494,-0.014241,-0.022698,-36.869999,16.559998999999998,-3.56,1a
2019-07-15_141034:420,-0.458588,-0.044219999999999995,-0.162689,0.026608999999999997,-0.012256999999999999,-0.022362,-36.869999,16.559998999999998,-3.56,1a
2019-07-15_141034:440,-0.449432,-0.040649,-0.171326,0.025876999999999997,-0.009999,-0.020378,-37.560001,15.5,-6.25,1a
2019-07-15_141034:460,-0.444855,-0.038635,-0.177429,0.025633,-0.008534,-0.018181,-37.560001,15.5,-6.25,1a
2019-07-15_141034:480,-0.443329,-0.037598,-0.17996199999999998,0.024839,-0.007893,-0.016991,-37.560001,15.5,-6.25,1a
2019-07-15_141034:500,-0.45196499999999995,-0.034546,-0.177429,0.024412,-0.007619,-0.014916,-38.0,14.56,-5.18,1a
2019-07-15_141034:520,-0.452484,-0.034058,-0.1698,0.022825,-0.00594,-0.011925,-38.0,14.56,-5.18,1a
2019-07-15_141034:540,-0.45907600000000004,-0.032013,-0.170319,0.020322999999999997,-0.003621,-0.009026000000000001,-37.68,14.56,-4.68,1a
2019-07-15_141034:560,-0.45553599999999994,-0.032013,-0.164703,0.01721,-0.002034,-0.005577,-37.68,14.56,-4.68,1a
2019-07-15_141034:580,-0.459595,-0.035065,-0.164703,0.013090000000000001,-0.001393,-0.003624,-37.68,14.56,-4.68,1a
2019-07-15_141034:600,-0.471283,-0.040649,-0.161163,0.009153,-0.002095,-0.002983,-38.060001,14.56,-4.18,1a
2019-07-15_141034:620,-0.47079499999999996,-0.046265,-0.157593,0.005461,-0.002919,-0.003228,-38.060001,14.56,-4.18,1a
2019-07-15_141034:640,-0.46670500000000004,-0.049316000000000006,-0.154541,0.003111,-0.003438,-0.004509,-40.0,15.0,-5.06,1a
2019-07-15_141034:660,-0.467743,-0.049805,-0.15506,0.001463,-0.004109000000000001,-0.0054859999999999996,-40.0,15.0,-5.06,1a
2019-07-15_141034:680,-0.489075,-0.048279,-0.163177,0.001005,-0.0037119999999999996,-0.0057,-40.0,15.0,-5.06,1a
2019-07-15_141034:700,-0.5058590000000001,-0.046752999999999996,-0.169281,0.00128,-0.0008439999999999999,-0.005547,-39.18,13.75,-5.5,1a
2019-07-15_141034:720,-0.604004,-0.042175,-0.186584,0.0017980000000000001,-0.000172,-0.0057,-39.18,13.75,-5.5,1a
2019-07-15_141034:740,-0.525696,-0.038116000000000004,-0.19927999999999998,0.0017980000000000001,0.00056,-0.002098,-39.560001,14.06,-4.18,1a
2019-07-15_141034:760,-0.5867,-0.040649,-0.206909,0.002134,0.003978,-0.001,-39.560001,14.06,-4.18,1a
2019-07-15_141034:780,-0.5617979999999999,-0.034058,-0.21249400000000002,0.002317,0.006023,-0.0017929999999999999,-39.560001,14.06,-4.18,1a
2019-07-15_141034:800,-0.49365200000000004,-0.029480000000000003,-0.222687,0.00305,0.006541,0.00016,-40.369999,13.75,-5.06,1a
2019-07-15_141034:820,-0.475372,-0.029480000000000003,-0.224701,0.00424,0.005748,-0.0009689999999999999,-40.369999,13.75,-5.06,1a
2019-07-15_141034:840,-0.431122,-0.01828,-0.21453899999999998,0.005033,0.006418999999999999,-0.001641,-39.560001,13.37,-4.18,1a
2019-07-15_141034:860,-0.396057,-0.015747,-0.207916,0.005522,0.008556,0.002113,-39.560001,13.37,-4.18,1a
2019-07-15_141034:880,-0.366058,-0.014221000000000001,-0.198273,0.004667,0.010204000000000001,0.005745,-39.560001,13.37,-4.18,1a
2019-07-15_141034:900,-0.377747,-0.011687999999999999,-0.192688,0.002317,0.00941,0.010078,-40.0,13.87,-4.18,1a
2019-07-15_141034:920,-0.391968,-0.017792,-0.183014,-0.000185,0.006755,0.014441999999999998,-40.0,13.87,-4.18,1a
2019-07-15_141034:940,-0.389435,-0.020844,-0.186066,-0.003664,0.0008960000000000001,0.017036000000000003,-40.369999,13.87,-5.06,1a
2019-07-15_141034:960,-0.382812,-0.026427999999999997,-0.19622799999999999,-0.006807,-0.006825,0.019233,-40.369999,13.87,-5.06,1a
2019-07-15_141034:980,-0.392487,-0.038116000000000004,-0.21402,-0.009249,-0.017049,0.018043,-40.369999,13.87,-5.06,1a
2019-07-15_141035:000,-0.445374,-0.049805,-0.249115,-0.01111,-0.030994999999999998,0.014381,-40.369999,15.25,-5.06,1a
2019-07-15_141035:020,-0.465179,-0.05285599999999999,-0.257751,-0.01111,-0.032979,0.014990999999999999,-40.369999,15.25,-5.06,1a
2019-07-15_141035:040,-0.477905,-0.065582,-0.260284,-0.010195000000000001,-0.030385000000000002,0.013404,-40.0,15.56,-6.18,1a
2019-07-15_141035:060,-0.477386,-0.065063,-0.253693,-0.008912999999999999,-0.023793,0.008461,-40.0,15.56,-6.18,1a
2019-07-15_141035:080,-0.47332799999999997,-0.065063,-0.238434,-0.006136,-0.016041999999999997,0.00489,-40.0,15.56,-6.18,1a
2019-07-15_141035:100,-0.474854,-0.064545,-0.22979699999999997,-0.004,-0.007344,0.002845,-39.560001,16.0,-5.87,1a
2019-07-15_141035:120,-0.46469099999999997,-0.05996699999999999,-0.220123,-0.002382,0.000499,0.001716,-39.560001,16.0,-5.87,1a
2019-07-15_141035:140,-0.451477,-0.055908000000000006,-0.210968,-0.000734,0.006145,0.002754,-39.18,16.0,-7.87,1a
2019-07-15_141035:160,-0.43011499999999997,-0.054901,-0.20080599999999998,5.9e-05,0.008281,0.003975,-39.18,16.0,-7.87,1a
