timestamp,AccX,AccY,AccZ,GyroX,GyroY,GyroZ,MagX,MagY,MagZ,Activity
2019-07-15_144634:040,-0.43670699999999996,-0.057434000000000006,-0.245544,0.002775,0.002696,-0.00011499999999999999,-30.870001000000002,-21.18,-16.68,2c
2019-07-15_144634:060,-0.44638100000000003,-0.055908000000000006,-0.24096700000000001,0.003904,0.003703,-0.0010609999999999999,-30.870001000000002,-21.18,-16.68,2c
2019-07-15_144634:080,-0.459595,-0.049316000000000006,-0.23028600000000002,0.004301,0.006084,-0.0021899999999999997,-30.870001000000002,-21.18,-16.68,2c
2019-07-15_144634:100,-0.462646,-0.047791,-0.22116100000000002,0.004392,0.007365000000000001,-0.00216,-32.0,-21.5,-17.059998999999998,2c
2019-07-15_144634:120,-0.44281000000000004,-0.043213,-0.210968,0.002928,0.009807,0.001503,-32.0,-21.5,-17.059998999999998,2c
2019-07-15_144634:140,-0.429108,-0.045226999999999996,-0.21911599999999998,0.002195,0.009226999999999999,0.002784,-31.25,-20.370001000000002,-17.0,2c
2019-07-15_144634:160,-0.433655,-0.044219999999999995,-0.227264,0.000151,0.005748,0.002754,-31.25,-20.370001000000002,-17.0,2c
2019-07-15_144634:180,-0.447388,-0.042175,-0.22927899999999998,-0.000277,0.005107,0.002357,-31.25,-20.370001000000002,-17.0,2c
2019-07-15_144634:200,-0.45654300000000003,-0.041687,-0.231812,-0.000521,0.006633,0.001167,-31.25,-21.18,-17.870001000000002,2c
2019-07-15_144634:220,-0.467224,-0.038116000000000004,-0.22927899999999998,-0.001192,0.009868,0.000404,-31.25,-21.18,-17.870001000000002,2c
2019-07-15_144634:240,-0.477386,-0.024902,-0.22927899999999998,-0.001986,0.013987999999999999,0.002845,-32.369999,-20.370001000000002,-17.5,2c
2019-07-15_144634:260,-0.477386,-0.020325,-0.21402,-0.0033280000000000002,0.01884,0.005561,-32.369999,-20.370001000000002,-17.5,2c
2019-07-15_144634:280,-0.469757,-0.019318000000000002,-0.205902,-0.005556,0.022075,0.007026,-32.369999,-20.370001000000002,-17.5,2c
2019-07-15_144634:300,-0.45095799999999997,-0.016266,-0.194702,-0.0069299999999999995,0.022746000000000002,0.00782,-32.369999,-20.75,-16.25,2c
2019-07-15_144634:320,-0.447906,-0.01828,-0.186584,-0.011965,0.021434,0.010322,-32.369999,-20.75,-16.25,2c
2019-07-15_144634:340,-0.45196499999999995,-0.028961,-0.178955,-0.013918,0.020975999999999998,0.0102,-33.060001,-20.0,-17.059998999999998,2c
2019-07-15_144634:360,-0.45401,-0.035583,-0.174377,-0.018618,0.019237,0.009956,-33.060001,-20.0,-17.059998999999998,2c
2019-07-15_144634:380,-0.453003,-0.044219999999999995,-0.17538499999999999,-0.020876,0.017925,0.010994,-33.060001,-20.0,-17.059998999999998,2c
2019-07-15_144634:400,-0.45553599999999994,-0.053375,-0.175903,-0.021883,0.016916999999999998,0.010597,-32.75,-20.370001000000002,-13.87,2c
2019-07-15_144634:420,-0.455017,-0.059479,-0.174377,-0.021486,0.015636,0.009132,-32.75,-20.370001000000002,-13.87,2c
2019-07-15_144634:440,-0.45095799999999997,-0.063538,-0.170807,-0.021151,0.014537000000000001,0.008827,-33.5,-20.75,-14.25,2c
2019-07-15_144634:460,-0.44638100000000003,-0.068634,-0.170807,-0.020327,0.012859,0.008339,-33.5,-20.75,-14.25,2c
2019-07-15_144634:480,-0.449432,-0.071686,-0.170807,-0.018678999999999998,0.010661,0.007209,-33.5,-20.75,-14.25,2c
2019-07-15_144634:500,-0.448425,-0.072174,-0.171844,-0.017824,0.009807,0.00663,-33.5,-20.370001000000002,-13.87,2c
2019-07-15_144634:520,-0.452484,-0.069122,-0.17538499999999999,-0.015290999999999999,0.0071519999999999995,0.004829,-33.5,-20.370001000000002,-13.87,2c
2019-07-15_144634:540,-0.45806899999999995,-0.067596,-0.17996199999999998,-0.014712000000000001,0.006633,0.004707,-33.5,-20.0,-13.87,2c
2019-07-15_144634:560,-0.45907600000000004,-0.068115,-0.17843599999999998,-0.012636,0.005901,0.002754,-33.5,-20.0,-13.87,2c
2019-07-15_144634:580,-0.461121,-0.065582,-0.177948,-0.011323999999999999,0.00584,0.001258,-33.5,-20.0,-13.87,2c
2019-07-15_144634:600,-0.46417200000000003,-0.05996699999999999,-0.180481,-0.010927,0.006023,0.000831,-33.5,-20.0,-13.06,2c
2019-07-15_144634:620,-0.462128,-0.057434000000000006,-0.180481,-0.01111,0.006358,0.0007700000000000001,-33.5,-20.0,-13.06,2c
2019-07-15_144634:640,-0.45907600000000004,-0.059479,-0.180481,-0.011170999999999999,0.006297,0.000923,-34.560001,-20.0,-12.68,2c
2019-07-15_144634:660,-0.453003,-0.05996699999999999,-0.175903,-0.010042,0.005901,-0.001183,-34.560001,-20.0,-12.68,2c
2019-07-15_144634:680,-0.45553599999999994,-0.053375,-0.174896,-0.009188,0.0052899999999999996,-0.0028309999999999997,-34.560001,-20.0,-12.68,2c
2019-07-15_144634:700,-0.460114,-0.046752999999999996,-0.174896,-0.009340000000000001,0.005046,-0.002587,-34.25,-20.370001000000002,-11.87,2c
2019-07-15_144634:720,-0.461639,-0.045226999999999996,-0.174896,-0.010927,0.003764,-0.000389,-34.25,-20.370001000000002,-11.87,2c
2019-07-15_144634:740,-0.46417200000000003,-0.047791,-0.176422,-0.011507,0.003703,-0.001,-34.25,-19.25,-11.87,2c
2019-07-15_144634:760,-0.45907600000000004,-0.045226999999999996,-0.175903,-0.012575,0.00352,-0.002526,-34.25,-19.25,-11.87,2c
2019-07-15_144634:780,-0.460114,-0.043701,-0.174896,-0.01285,0.003093,-0.0017629999999999998,-34.25,-19.25,-11.87,2c
2019-07-15_144634:800,-0.46469099999999997,-0.040161,-0.177948,-0.013491,0.003246,-0.001702,-33.869999,-20.0,-11.87,2c
2019-07-15_144634:820,-0.467743,-0.034058,-0.177429,-0.015902,0.004314,-0.0017929999999999999,-33.869999,-20.0,-11.87,2c
2019-07-15_144634:840,-0.470276,-0.029968,-0.177429,-0.017153,0.005168,-0.0017929999999999999,-33.5,-19.68,-10.68,2c
2019-07-15_144634:860,-0.459595,-0.029480000000000003,-0.172852,-0.021486,0.007273999999999999,-0.0017929999999999999,-33.5,-19.68,-10.68,2c
2019-07-15_144634:880,-0.458588,-0.029968,-0.17385899999999999,-0.024111,0.006938,-0.001702,-33.5,-19.68,-10.68,2c
2019-07-15_144634:900,-0.467224,-0.028961,-0.176422,-0.026858,0.007426,-0.002251,-34.560001,-21.18,-11.87,2c
2019-07-15_144634:920,-0.460114,-0.031006,-0.17690999999999998,-0.030152999999999996,0.008098000000000001,-0.003899,-34.560001,-21.18,-11.87,2c
2019-07-15_144634:940,-0.447906,-0.037598,-0.177429,-0.031283,0.007548999999999999,-0.004509,-33.869999,-20.370001000000002,-10.68,2c
2019-07-15_144634:960,-0.448425,-0.044219999999999995,-0.180481,-0.031344,0.003978,-0.006218,-33.869999,-20.370001000000002,-10.68,2c
2019-07-15_144634:980,-0.447388,-0.047272,-0.176422,-0.029421,0.000682,-0.007622,-33.869999,-20.370001000000002,-10.68,2c
2019-07-15_144635:000,-0.461121,-0.043213,-0.180481,-0.027926,-0.000508,-0.008355,-34.25,-21.18,-11.5,2c
2019-07-15_144635:020,-0.46875,-0.039642000000000004,-0.18811,-0.023469999999999998,-0.0008439999999999999,-0.009758,-34.25,-21.18,-11.5,2c
2019-07-15_144635:040,-0.465179,-0.036591000000000005,-0.189636,-0.021943999999999998,-0.00063,-0.009423,-34.25,-21.5,-9.5,2c
2019-07-15_144635:060,-0.46417200000000003,-0.033539,-0.187073,-0.016543000000000002,-0.000386,-0.007561,-34.25,-21.5,-9.5,2c
2019-07-15_144635:080,-0.46316499999999994,-0.029480000000000003,-0.184021,-0.012758,-0.000508,-0.0063100000000000005,-34.25,-21.5,-9.5,2c
2019-07-15_144635:100,-0.46417200000000003,-0.020325,-0.18249500000000002,-0.011262999999999999,-0.000722,-0.0054859999999999996,-33.869999,-22.25,-8.68,2c
2019-07-15_144635:120,-0.461639,-0.017792,-0.17843599999999998,-0.007998,-0.0009660000000000001,-0.0028309999999999997,-33.869999,-22.25,-8.68,2c
2019-07-15_144635:140,-0.46060200000000007,-0.015747,-0.17944300000000002,-0.007143000000000001,-0.001454,-0.002037,-33.869999,-22.25,-8.68,2c
2019-07-15_144635:160,-0.459595,-0.014740000000000001,-0.178955,-0.005678,-0.002248,0.000221,-34.25,-22.25,-8.68,2c
2019-07-15_144635:180,-0.458588,-0.013702,-0.17944300000000002,-0.0056170000000000005,-0.00298,0.001167,-34.25,-22.25,-8.68,2c
2019-07-15_144635:200,-0.458588,-0.012695,-0.177429,-0.005465,-0.003102,0.001503,-33.5,-23.370001000000002,-9.87,2c
2019-07-15_144635:220,-0.463654,-0.011687999999999999,-0.174896,-0.006197,-0.003438,0.002388,-33.5,-23.370001000000002,-9.87,2c
2019-07-15_144635:240,-0.46417200000000003,-0.011687999999999999,-0.17690999999999998,-0.006411,-0.0033159999999999995,0.002449,-33.5,-22.68,-9.5,2c
2019-07-15_144635:260,-0.46469099999999997,-0.011687999999999999,-0.177948,-0.007998,-0.002522,0.002357,-33.5,-22.68,-9.5,2c
2019-07-15_144635:280,-0.467743,-0.016266,-0.175903,-0.008912999999999999,-0.001637,0.001655,-33.5,-22.68,-9.5,2c
2019-07-15_144635:300,-0.46417200000000003,-0.018799,-0.17690999999999998,-0.009066,-0.001698,0.001564,-33.5,-22.25,-9.18,2c
2019-07-15_144635:320,-0.463654,-0.020325,-0.17538499999999999,-0.009004999999999999,-0.001759,0.002357,-33.5,-22.25,-9.18,2c
2019-07-15_144635:340,-0.46875,-0.021332,-0.176422,-0.009004999999999999,-0.00179,0.0021739999999999997,-33.5,-22.25,-9.18,2c
2019-07-15_144635:360,-0.46926899999999994,-0.020844,-0.17690999999999998,-0.008516,-0.001302,0.001625,-33.5,-22.68,-9.18,2c
2019-07-15_144635:380,-0.462128,-0.019318000000000002,-0.176422,-0.007998,-0.001179,0.001258,-33.5,-22.68,-9.18,2c
2019-07-15_144635:400,-0.462646,-0.020325,-0.175903,-0.007815,-0.0009660000000000001,0.000984,-33.060001,-22.25,-10.37,2c
2019-07-15_144635:420,-0.460114,-0.019806,-0.17690999999999998,-0.007540000000000001,-0.001179,0.000831,-33.060001,-22.25,-10.37,2c
2019-07-15_144635:440,-0.46569799999999995,-0.020844,-0.180481,-0.006869,-0.001179,0.000343,-33.060001,-21.870001000000002,-9.18,2c
2019-07-15_144635:460,-0.46569799999999995,-0.01828,-0.18096900000000002,-0.006136,-0.000508,-0.0009689999999999999,-33.060001,-21.870001000000002,-9.18,2c
2019-07-15_144635:480,-0.46823100000000006,-0.015228,-0.18096900000000002,-0.005526,0.000285,-0.0013050000000000002,-33.060001,-21.870001000000002,-9.18,2c
2019-07-15_144635:500,-0.467224,-0.014740000000000001,-0.18096900000000002,-0.005129,0.00056,-0.0017629999999999998,-33.5,-22.25,-8.37,2c
2019-07-15_144635:520,-0.462646,-0.014221000000000001,-0.17944300000000002,-0.004336,0.000499,-0.0019149999999999998,-33.5,-22.25,-8.37,2c
2019-07-15_144635:540,-0.467224,-0.011687999999999999,-0.178955,-0.003512,0.000407,-0.001183,-33.5,-22.25,-8.37,2c
2019-07-15_144635:560,-0.465179,-0.012177,-0.177948,-0.002535,0.000468,-0.0012439999999999999,-33.5,-23.0,-8.68,2c
2019-07-15_144635:580,-0.46469099999999997,-0.006592,-0.176422,-0.002169,0.00056,-0.000634,-33.5,-23.0,-8.68,2c
2019-07-15_144635:600,-0.46060200000000007,-0.006592,-0.177429,-0.002169,0.000285,0.001503,-32.75,-22.68,-9.5,2c
2019-07-15_144635:620,-0.45806899999999995,-0.006592,-0.177429,-0.0022600000000000003,-0.001027,0.000648,-32.75,-22.68,-9.5,2c
2019-07-15_144635:640,-0.462646,-0.0035399999999999997,-0.183014,-0.0025050000000000003,-0.00124,7.000000000000001e-06,-32.75,-22.68,-9.5,2c
2019-07-15_144635:660,-0.461639,-0.004059,-0.18454,-0.002535,-0.001454,0.000404,-33.869999,-23.0,-9.87,2c
2019-07-15_144635:680,-0.46060200000000007,-0.0055850000000000006,-0.186584,-0.002932,-0.001637,0.000984,-33.869999,-23.0,-9.87,2c
2019-07-15_144635:700,-0.46060200000000007,-0.006072999999999999,-0.187073,-0.003512,-0.001698,0.000923,-33.5,-23.0,-9.87,2c
2019-07-15_144635:720,-0.45907600000000004,-0.007111,-0.18811,-0.0036340000000000005,-0.00179,0.001503,-33.5,-23.0,-9.87,2c
2019-07-15_144635:740,-0.460114,-0.007111,-0.190643,-0.003878,-0.001454,0.001442,-33.5,-23.0,-9.87,2c
2019-07-15_144635:760,-0.458588,-0.006072999999999999,-0.192688,-0.003939,-0.001698,0.0018989999999999999,-33.5,-21.870001000000002,-9.18,2c
2019-07-15_144635:780,-0.45706199999999997,-0.008636,-0.193176,-0.004275,-0.002187,0.0022960000000000003,-33.5,-21.870001000000002,-9.18,2c
2019-07-15_144635:800,-0.45654300000000003,-0.008118,-0.19622799999999999,-0.00403,-0.0024920000000000003,0.0022960000000000003,-33.060001,-22.68,-10.37,2c
2019-07-15_144635:820,-0.459595,-0.009644,-0.192688,-0.003817,-0.00237,0.002357,-33.060001,-22.68,-10.37,2c
2019-07-15_144635:840,-0.461639,-0.009644,-0.19574,-0.004152,-0.002156,0.003242,-33.060001,-22.68,-10.37,2c
2019-07-15_144635:860,-0.457581,-0.011687999999999999,-0.198273,-0.00461,-0.001454,0.004371,-33.060001,-22.68,-10.37,2c
2019-07-15_144635:880,-0.458588,-0.013213999999999998,-0.19775399999999999,-0.004671,-0.001179,0.003975,-33.060001,-22.68,-10.37,2c
2019-07-15_144635:900,-0.45806899999999995,-0.013702,-0.19622799999999999,-0.00461,-0.001118,0.002754,-31.559998999999998,-22.68,-10.37,2c
2019-07-15_144635:920,-0.458588,-0.013213999999999998,-0.192169,-0.004336,-0.000722,0.0026320000000000002,-31.559998999999998,-22.68,-10.37,2c
2019-07-15_144635:940,-0.45654300000000003,-0.013702,-0.19622799999999999,-0.004488000000000001,-0.00063,0.0029059999999999997,-31.559998999999998,-22.68,-10.37,2c
2019-07-15_144635:960,-0.454529,-0.014221000000000001,-0.196747,-0.004671,-0.00063,0.00309,-32.75,-22.25,-11.5,2c
2019-07-15_144635:980,-0.45553599999999994,-0.015228,-0.197266,-0.004671,-0.001057,0.002754,-32.75,-22.25,-11.5,2c
2019-07-15_144636:000,-0.45654300000000003,-0.017273,-0.19775399999999999,-0.004732,-0.00124,0.002388,-33.5,-22.25,-9.18,2c
2019-07-15_144636:020,-0.45654300000000003,-0.016753999999999998,-0.19775399999999999,-0.004336,-0.001027,0.001716,-33.5,-22.25,-9.18,2c
2019-07-15_144636:040,-0.458588,-0.017792,-0.199799,-0.003939,-0.000661,0.001564,-33.5,-22.25,-9.18,2c
2019-07-15_144636:060,-0.45806899999999995,-0.01828,-0.201324,-0.0036340000000000005,-0.0005690000000000001,0.001167,-33.869999,-22.25,-9.87,2c
2019-07-15_144636:080,-0.45706199999999997,-0.016266,-0.199799,-0.00339,-0.00044699999999999997,0.0007700000000000001,-33.869999,-22.25,-9.87,2c
2019-07-15_144636:100,-0.45907600000000004,-0.015747,-0.199799,-0.0032979999999999997,0.000133,0.00196,-33.060001,-22.25,-9.87,2c
2019-07-15_144636:120,-0.457581,-0.016266,-0.197266,-0.003573,0.000621,0.002571,-33.060001,-22.25,-9.87,2c
2019-07-15_144636:140,-0.45553599999999994,-0.016753999999999998,-0.198273,-0.0037560000000000002,0.000499,0.002693,-33.060001,-22.25,-9.87,2c
2019-07-15_144636:160,-0.455017,-0.019318000000000002,-0.198273,-0.003939,0.000682,0.002754,-33.5,-21.870001000000002,-9.18,2c
2019-07-15_144636:180,-0.453003,-0.020844,-0.198273,-0.004091,0.00056,0.002235,-33.5,-21.870001000000002,-9.18,2c
2019-07-15_144636:200,-0.453003,-0.020325,-0.19775399999999999,-0.004213000000000001,0.000285,0.001655,-33.5,-22.68,-10.37,2c
2019-07-15_144636:220,-0.455017,-0.019318000000000002,-0.19574,-0.004213000000000001,-0.00011100000000000001,0.001442,-33.5,-22.68,-10.37,2c
2019-07-15_144636:240,-0.45401,-0.020844,-0.198792,-0.004213000000000001,7.2e-05,0.000923,-33.5,-22.68,-10.37,2c
2019-07-15_144636:260,-0.454529,-0.020325,-0.199799,-0.004213000000000001,-0.000264,0.000984,-32.75,-22.25,-9.87,2c
2019-07-15_144636:280,-0.455017,-0.021851,-0.198792,-0.004,-0.00044699999999999997,0.001045,-32.75,-22.25,-9.87,2c
2019-07-15_144636:300,-0.454529,-0.021332,-0.198792,-0.0036340000000000005,-0.00063,0.00028199999999999997,-32.75,-21.870001000000002,-9.5,2c
2019-07-15_144636:320,-0.454529,-0.021851,-0.200317,-0.0032979999999999997,-0.0005690000000000001,0.000221,-32.75,-21.870001000000002,-9.5,2c
2019-07-15_144636:340,-0.455017,-0.021851,-0.201324,-0.0028399999999999996,-0.000508,0.000526,-32.75,-21.870001000000002,-9.5,2c
2019-07-15_144636:360,-0.45605500000000004,-0.020325,-0.20080599999999998,-0.002321,-0.000233,0.000709,-33.869999,-22.68,-9.5,2c
2019-07-15_144636:380,-0.45401,-0.018799,-0.20080599999999998,-0.002382,0.000346,-5.4000000000000005e-05,-33.869999,-22.68,-9.5,2c
2019-07-15_144636:400,-0.454529,-0.017792,-0.201324,-0.002718,0.000285,0.001503,-33.5,-22.25,-9.87,2c
2019-07-15_144636:420,-0.45401,-0.019318000000000002,-0.20080599999999998,-0.002779,-5e-05,0.002235,-33.5,-22.25,-9.87,2c
2019-07-15_144636:440,-0.453003,-0.01828,-0.20538299999999998,-0.00339,-0.000386,-0.000389,-33.5,-22.25,-9.87,2c
2019-07-15_144636:460,-0.454529,-0.017792,-0.20639000000000002,-0.003573,-0.000386,-0.000267,-33.060001,-22.25,-10.68,2c
2019-07-15_144636:480,-0.45401,-0.019806,-0.20742800000000003,-0.0036340000000000005,-0.0005690000000000001,0.000404,-33.060001,-22.25,-10.68,2c
2019-07-15_144636:500,-0.454529,-0.019318000000000002,-0.20639000000000002,-0.003664,-0.00044699999999999997,-0.00023700000000000001,-33.060001,-22.68,-10.68,2c
2019-07-15_144636:520,-0.45553599999999994,-0.019806,-0.20486500000000002,-0.003237,0.000346,-0.000176,-33.060001,-22.68,-10.68,2c
2019-07-15_144636:540,-0.453491,-0.019318000000000002,-0.206909,-0.002993,0.0009570000000000001,-0.00023700000000000001,-33.060001,-22.68,-10.68,2c
2019-07-15_144636:560,-0.451477,-0.019318000000000002,-0.20742800000000003,-0.002779,0.00114,-5.4000000000000005e-05,-33.060001,-22.68,-9.87,2c
2019-07-15_144636:580,-0.45043900000000003,-0.018799,-0.20486500000000002,-0.002718,0.0008960000000000001,0.000587,-33.060001,-22.68,-9.87,2c
2019-07-15_144636:600,-0.45196499999999995,-0.018799,-0.205902,-0.002535,0.00056,0.000648,-33.060001,-22.68,-11.87,2c
2019-07-15_144636:620,-0.453003,-0.018799,-0.20538299999999998,-0.002321,0.00016299999999999998,0.000404,-33.060001,-22.68,-11.87,2c
2019-07-15_144636:640,-0.45605500000000004,-0.019318000000000002,-0.20742800000000003,-0.0022600000000000003,0.000468,0.00028199999999999997,-33.060001,-22.68,-11.87,2c
2019-07-15_144636:660,-0.45553599999999994,-0.017792,-0.20742800000000003,-0.0025960000000000002,0.0008039999999999999,0.000587,-32.75,-21.870001000000002,-11.87,2c
2019-07-15_144636:680,-0.453491,-0.018799,-0.206909,-0.002443,0.001018,0.000648,-32.75,-21.870001000000002,-11.87,2c
2019-07-15_144636:700,-0.452484,-0.018799,-0.205902,-0.002657,0.001201,-0.000176,-33.060001,-22.68,-11.87,2c
2019-07-15_144636:720,-0.453003,-0.018799,-0.203369,-0.002657,0.001415,-5.4000000000000005e-05,-33.060001,-22.68,-11.87,2c
2019-07-15_144636:740,-0.45095799999999997,-0.020844,-0.20486500000000002,-0.002535,0.001292,0.000129,-33.060001,-22.68,-11.87,2c
2019-07-15_144636:760,-0.45401,-0.019806,-0.20639000000000002,-0.002535,0.001292,0.000221,-33.060001,-21.870001000000002,-11.5,2c
2019-07-15_144636:780,-0.45401,-0.019318000000000002,-0.20385699999999998,-0.002382,0.001415,0.00028199999999999997,-33.060001,-21.870001000000002,-11.5,2c
2019-07-15_144636:800,-0.45605500000000004,-0.019318000000000002,-0.20385699999999998,-0.002321,0.001415,0.000221,-33.060001,-22.25,-11.5,2c
2019-07-15_144636:820,-0.454529,-0.01828,-0.201324,-0.002443,0.0017809999999999998,0.00016,-33.060001,-22.25,-11.5,2c
2019-07-15_144636:840,-0.452484,-0.018799,-0.201843,-0.002321,0.0017809999999999998,0.000465,-33.060001,-22.25,-11.5,2c
2019-07-15_144636:860,-0.45043900000000003,-0.017792,-0.203369,-0.002535,0.001598,0.000587,-33.869999,-21.5,-11.06,2c
2019-07-15_144636:880,-0.45095799999999997,-0.019318000000000002,-0.203369,-0.002535,0.0010789999999999999,0.000526,-33.869999,-21.5,-11.06,2c
2019-07-15_144636:900,-0.45095799999999997,-0.018799,-0.205902,-0.002657,0.000621,0.000129,-33.869999,-21.870001000000002,-10.37,2c
2019-07-15_144636:920,-0.453003,-0.017792,-0.20639000000000002,-0.002657,0.00022400000000000002,-0.00023700000000000001,-33.869999,-21.870001000000002,-10.37,2c
2019-07-15_144636:940,-0.45553599999999994,-0.019806,-0.20385699999999998,-0.002443,0.0009570000000000001,-0.000512,-33.869999,-21.870001000000002,-10.37,2c
2019-07-15_144636:960,-0.451477,-0.018799,-0.19622799999999999,-0.0017109999999999998,0.0008960000000000001,-0.000176,-32.0,-21.5,-12.25,2c
2019-07-15_144636:980,-0.45553599999999994,-0.017792,-0.20538299999999998,-0.0015279999999999998,0.00056,0.000648,-32.0,-21.5,-12.25,2c
2019-07-15_144637:000,-0.453003,-0.017273,-0.20486500000000002,-0.0014060000000000001,0.000621,0.001625,-33.5,-22.25,-11.87,2c
2019-07-15_144637:020,-0.451477,-0.016753999999999998,-0.204376,-0.001925,0.0008039999999999999,0.001838,-33.5,-22.25,-11.87,2c
2019-07-15_144637:040,-0.44638100000000003,-0.017273,-0.204376,-0.002657,0.000133,0.00196,-33.5,-22.25,-11.87,2c
2019-07-15_144637:060,-0.44433599999999995,-0.018799,-0.20385699999999998,-0.0036950000000000004,-0.000661,0.001655,-32.75,-21.870001000000002,-11.06,2c
2019-07-15_144637:080,-0.445862,-0.018799,-0.204376,-0.00461,-0.001759,0.000709,-32.75,-21.870001000000002,-11.06,2c
2019-07-15_144637:100,-0.453003,-0.019806,-0.20538299999999998,-0.005221,-0.002309,-5.4000000000000005e-05,-32.369999,-22.25,-9.87,2c
2019-07-15_144637:120,-0.45553599999999994,-0.020325,-0.205902,-0.006075,-0.002095,0.00016,-32.369999,-22.25,-9.87,2c
2019-07-15_144637:140,-0.45553599999999994,-0.022369,-0.208954,-0.006197,-0.001454,0.001564,-32.369999,-22.25,-9.87,2c
2019-07-15_144637:160,-0.453003,-0.024384,-0.207916,-0.006136,-0.0009050000000000001,0.001564,-33.060001,-21.870001000000002,-10.68,2c
2019-07-15_144637:180,-0.45043900000000003,-0.024902,-0.207916,-0.006136,-0.001027,0.002235,-33.060001,-21.870001000000002,-10.68,2c
2019-07-15_144637:200,-0.44891400000000004,-0.025908999999999998,-0.20843499999999998,-0.005526,-0.00124,0.0037,-32.75,-21.18,-11.06,2c
2019-07-15_144637:220,-0.45043900000000003,-0.026917,-0.209961,-0.005007,-0.001576,0.001655,-32.75,-21.18,-11.06,2c
2019-07-15_144637:240,-0.44995100000000005,-0.024384,-0.213013,-0.004213000000000001,-0.00179,-0.000389,-32.75,-21.18,-11.06,2c
2019-07-15_144637:260,-0.449432,-0.023375999999999997,-0.210968,-0.0036950000000000004,-0.001393,0.000221,-33.060001,-21.870001000000002,-10.68,2c
2019-07-15_144637:280,-0.45043900000000003,-0.022858,-0.212006,-0.0033280000000000002,-0.001179,0.00016,-33.060001,-21.870001000000002,-10.68,2c
2019-07-15_144637:300,-0.45095799999999997,-0.021332,-0.213013,-0.003054,-0.001057,0.00016,-33.060001,-21.870001000000002,-11.87,2c
2019-07-15_144637:320,-0.449432,-0.019318000000000002,-0.212006,-0.0028399999999999996,-0.0009050000000000001,0.000404,-33.060001,-21.870001000000002,-11.87,2c
2019-07-15_144637:340,-0.449432,-0.01828,-0.21453899999999998,-0.0029010000000000004,-0.00063,0.001045,-33.060001,-21.870001000000002,-11.87,2c
2019-07-15_144637:360,-0.45095799999999997,-0.017273,-0.21505700000000003,-0.003512,-0.00063,0.001503,-33.060001,-21.870001000000002,-11.5,2c
2019-07-15_144637:380,-0.44891400000000004,-0.017792,-0.21606399999999998,-0.004275,-0.0005690000000000001,0.00196,-33.060001,-21.870001000000002,-11.5,2c
2019-07-15_144637:400,-0.44995100000000005,-0.018799,-0.21759,-0.005007,-0.000325,0.001838,-32.75,-21.870001000000002,-11.5,2c
2019-07-15_144637:420,-0.449432,-0.022369,-0.216583,-0.0056170000000000005,-0.00044699999999999997,0.001381,-32.75,-21.870001000000002,-11.5,2c
2019-07-15_144637:440,-0.45095799999999997,-0.023375999999999997,-0.21759,-0.005739,-0.00011100000000000001,0.001167,-32.75,-21.870001000000002,-11.5,2c
2019-07-15_144637:460,-0.45043900000000003,-0.023375999999999997,-0.21554600000000002,-0.0056170000000000005,0.000285,0.00132,-33.060001,-21.5,-11.87,2c
2019-07-15_144637:480,-0.45196499999999995,-0.024902,-0.21606399999999998,-0.0048850000000000005,0.0008960000000000001,0.001503,-33.060001,-21.5,-11.87,2c
2019-07-15_144637:500,-0.448425,-0.023375999999999997,-0.21505700000000003,-0.004275,0.0014759999999999999,0.000709,-32.0,-21.870001000000002,-11.87,2c
2019-07-15_144637:520,-0.447388,-0.021332,-0.213531,-0.003939,0.001537,0.000526,-32.0,-21.870001000000002,-11.87,2c
2019-07-15_144637:540,-0.44638100000000003,-0.021332,-0.213013,-0.003939,0.001598,0.000709,-32.0,-21.870001000000002,-11.87,2c
2019-07-15_144637:560,-0.446899,-0.021332,-0.212006,-0.004152,0.001353,0.0007700000000000001,-33.060001,-22.68,-11.5,2c
2019-07-15_144637:580,-0.448425,-0.020844,-0.21249400000000002,-0.00461,0.001018,0.000648,-33.060001,-22.68,-11.5,2c
2019-07-15_144637:600,-0.45043900000000003,-0.020844,-0.213531,-0.005129,0.00114,0.000404,-32.75,-21.870001000000002,-11.87,2c
2019-07-15_144637:620,-0.451477,-0.020325,-0.213013,-0.005556,0.001415,-5.4000000000000005e-05,-32.75,-21.870001000000002,-11.87,2c
2019-07-15_144637:640,-0.448425,-0.022369,-0.213531,-0.0056170000000000005,0.0016589999999999999,-5.4000000000000005e-05,-32.75,-21.870001000000002,-11.87,2c
2019-07-15_144637:660,-0.448425,-0.022369,-0.213013,-0.005465,0.0016589999999999999,0.00028199999999999997,-32.75,-21.870001000000002,-11.06,2c
2019-07-15_144637:680,-0.446899,-0.021851,-0.21453899999999998,-0.005129,0.001842,0.00028199999999999997,-32.75,-21.870001000000002,-11.06,2c
2019-07-15_144637:700,-0.44891400000000004,-0.021851,-0.216583,-0.004488000000000001,0.0016589999999999999,0.00016,-33.5,-22.25,-10.68,2c
2019-07-15_144637:720,-0.44891400000000004,-0.021332,-0.21505700000000003,-0.004275,0.001292,0.000465,-33.5,-22.25,-10.68,2c
2019-07-15_144637:740,-0.447906,-0.020325,-0.21606399999999998,-0.004,0.001415,0.000831,-33.5,-22.25,-10.68,2c
2019-07-15_144637:760,-0.447906,-0.021851,-0.21505700000000003,-0.003878,0.001537,0.001167,-32.369999,-21.5,-12.25,2c
2019-07-15_144637:780,-0.446899,-0.021332,-0.21505700000000003,-0.003817,0.001598,0.001442,-32.369999,-21.5,-12.25,2c
2019-07-15_144637:800,-0.447906,-0.021851,-0.216583,-0.003664,0.0012619999999999999,0.00132,-32.75,-21.18,-11.06,2c
2019-07-15_144637:820,-0.446899,-0.020844,-0.21505700000000003,-0.003664,0.001353,0.001503,-32.75,-21.18,-11.06,2c
2019-07-15_144637:840,-0.445374,-0.020325,-0.21606399999999998,-0.003939,0.00114,0.001442,-32.75,-21.18,-11.06,2c
2019-07-15_144637:860,-0.445862,-0.019806,-0.217072,-0.004091,0.0009570000000000001,0.001381,-33.060001,-21.870001000000002,-12.25,2c
2019-07-15_144637:880,-0.446899,-0.020844,-0.21505700000000003,-0.004397,0.000865,0.001167,-33.060001,-21.870001000000002,-12.25,2c
2019-07-15_144637:900,-0.44891400000000004,-0.022369,-0.21505700000000003,-0.004549,0.000865,0.0007700000000000001,-34.25,-21.870001000000002,-11.87,2c
2019-07-15_144637:920,-0.44995100000000005,-0.021851,-0.21554600000000002,-0.00461,0.001018,0.000648,-34.25,-21.870001000000002,-11.87,2c
2019-07-15_144637:940,-0.45095799999999997,-0.023895,-0.21606399999999998,-0.004213000000000001,0.001201,0.000923,-34.25,-21.870001000000002,-11.87,2c
2019-07-15_144637:960,-0.449432,-0.022858,-0.21402,-0.004091,0.001628,0.000465,-32.0,-21.870001000000002,-11.5,2c
2019-07-15_144637:980,-0.44384799999999996,-0.021332,-0.21554600000000002,-0.0037560000000000002,0.001842,0.00196,-32.0,-21.870001000000002,-11.5,2c
2019-07-15_144638:000,-0.447388,-0.023895,-0.216583,-0.003878,0.001628,0.002235,-32.75,-22.25,-11.5,2c
2019-07-15_144638:020,-0.447388,-0.021851,-0.21505700000000003,-0.003878,0.001537,-5.4000000000000005e-05,-32.75,-22.25,-11.5,2c
2019-07-15_144638:040,-0.447906,-0.021851,-0.21810900000000003,-0.0037560000000000002,0.001201,-0.000328,-32.75,-22.25,-11.5,2c
2019-07-15_144638:060,-0.447388,-0.024384,-0.21859699999999999,-0.0036340000000000005,0.001353,0.000526,-32.75,-22.25,-10.37,2c
2019-07-15_144638:080,-0.44995100000000005,-0.022858,-0.217072,-0.003054,0.0017809999999999998,-0.000176,-32.75,-22.25,-10.37,2c
2019-07-15_144638:100,-0.44891400000000004,-0.019318000000000002,-0.21911599999999998,-0.002535,0.002513,-0.000908,-33.060001,-21.870001000000002,-12.25,2c
2019-07-15_144638:120,-0.451477,-0.019318000000000002,-0.216583,-0.002535,0.0029100000000000003,-0.0010609999999999999,-33.060001,-21.870001000000002,-12.25,2c
2019-07-15_144638:140,-0.45095799999999997,-0.018799,-0.21810900000000003,-0.002779,0.0034289999999999998,-0.000725,-33.060001,-21.870001000000002,-12.25,2c
2019-07-15_144638:160,-0.44995100000000005,-0.01828,-0.217072,-0.00339,0.003124,0.00016,-32.369999,-21.5,-11.06,2c
2019-07-15_144638:180,-0.447906,-0.019318000000000002,-0.21606399999999998,-0.003817,0.003124,0.000221,-32.369999,-21.5,-11.06,2c
2019-07-15_144638:200,-0.448425,-0.020844,-0.21554600000000002,-0.004488000000000001,0.0031850000000000003,-0.000389,-33.060001,-21.18,-11.5,2c
2019-07-15_144638:220,-0.45043900000000003,-0.024384,-0.21505700000000003,-0.004397,0.003032,7.000000000000001e-06,-33.060001,-21.18,-11.5,2c
2019-07-15_144638:240,-0.45401,-0.026427999999999997,-0.21554600000000002,-0.004091,0.003246,-5.4000000000000005e-05,-33.060001,-21.18,-11.5,2c
2019-07-15_144638:260,-0.45401,-0.026427999999999997,-0.213531,-0.003237,0.003886,0.000129,-33.060001,-22.25,-11.06,2c
2019-07-15_144638:280,-0.45196499999999995,-0.027435,-0.210968,-0.001986,0.004771,0.000404,-33.060001,-22.25,-11.06,2c
2019-07-15_144638:300,-0.447906,-0.025421,-0.210968,-0.001131,0.0052899999999999996,-0.000573,-33.5,-22.25,-12.25,2c
2019-07-15_144638:320,-0.446899,-0.022858,-0.210968,-6.3e-05,0.005107,-0.000725,-33.5,-22.25,-12.25,2c
2019-07-15_144638:340,-0.44995100000000005,-0.023375999999999997,-0.20944200000000002,0.00045599999999999997,0.004954999999999999,-0.000573,-33.5,-22.25,-12.25,2c
2019-07-15_144638:360,-0.45095799999999997,-0.020325,-0.20944200000000002,0.000669,0.00471,-0.0010609999999999999,-32.0,-22.68,-11.06,2c
2019-07-15_144638:380,-0.44638100000000003,-0.017792,-0.208954,0.000608,0.004833,-0.001519,-32.0,-22.68,-11.06,2c
2019-07-15_144638:400,-0.44433599999999995,-0.016753999999999998,-0.207916,0.00045599999999999997,0.004375,-0.002098,-33.060001,-22.25,-10.37,2c
2019-07-15_144638:420,-0.446899,-0.015228,-0.20742800000000003,-0.00045999999999999996,0.003764,-0.002709,-33.060001,-22.25,-10.37,2c
2019-07-15_144638:440,-0.448425,-0.013213999999999998,-0.206909,-0.001314,0.003124,-0.00277,-33.060001,-22.25,-10.37,2c
2019-07-15_144638:460,-0.44891400000000004,-0.013702,-0.208954,-0.0021079999999999996,0.002849,-0.002526,-32.75,-22.25,-11.06,2c
2019-07-15_144638:480,-0.447906,-0.013213999999999998,-0.20843499999999998,-0.002932,0.002574,-0.002098,-32.75,-22.25,-11.06,2c
2019-07-15_144638:500,-0.448425,-0.012177,-0.208954,-0.0036340000000000005,0.002177,-0.001397,-32.369999,-22.68,-10.37,2c
2019-07-15_144638:520,-0.449432,-0.013702,-0.20742800000000003,-0.004091,0.0019030000000000002,-0.000512,-32.369999,-22.68,-10.37,2c
2019-07-15_144638:540,-0.447388,-0.015228,-0.20944200000000002,-0.004397,0.001537,6.8e-05,-32.369999,-22.68,-10.37,2c
2019-07-15_144638:560,-0.444855,-0.014740000000000001,-0.208954,-0.004793,0.001353,0.000496,-33.060001,-21.870001000000002,-11.06,2c
2019-07-15_144638:580,-0.445862,-0.014740000000000001,-0.20944200000000002,-0.005129,0.000682,0.000496,-33.060001,-21.870001000000002,-11.06,2c
2019-07-15_144638:600,-0.44995100000000005,-0.016753999999999998,-0.20944200000000002,-0.005556,-0.000264,0.000923,-32.369999,-22.25,-11.06,2c
2019-07-15_144638:620,-0.451477,-0.017273,-0.20843499999999998,-0.005953,-0.00063,0.001564,-32.369999,-22.25,-11.06,2c
2019-07-15_144638:640,-0.45043900000000003,-0.021332,-0.21148699999999998,-0.006258,-0.000722,0.001625,-32.369999,-22.25,-11.06,2c
2019-07-15_144638:660,-0.451477,-0.021851,-0.210968,-0.005953,-0.0008439999999999999,0.001777,-32.369999,-21.870001000000002,-11.5,2c
2019-07-15_144638:680,-0.454529,-0.022369,-0.209961,-0.005068,-0.000508,0.001655,-32.369999,-21.870001000000002,-11.5,2c
2019-07-15_144638:700,-0.45706199999999997,-0.021332,-0.21048000000000003,-0.004549,0.00022400000000000002,0.00196,-33.060001,-22.25,-9.87,2c
2019-07-15_144638:720,-0.45401,-0.019806,-0.20944200000000002,-0.004,0.001598,0.001777,-33.060001,-22.25,-9.87,2c
2019-07-15_144638:740,-0.451477,-0.018799,-0.20944200000000002,-0.00403,0.002177,0.002388,-33.060001,-22.25,-9.87,2c
2019-07-15_144638:760,-0.447388,-0.020325,-0.20843499999999998,-0.004091,0.002055,0.002845,-32.369999,-21.18,-12.25,2c
2019-07-15_144638:780,-0.44891400000000004,-0.019318000000000002,-0.206909,-0.00461,0.001842,0.0021739999999999997,-32.369999,-21.18,-12.25,2c
2019-07-15_144638:800,-0.44995100000000005,-0.01828,-0.21048000000000003,-0.005129,0.0012619999999999999,0.003517,-33.5,-21.870001000000002,-10.68,2c
2019-07-15_144638:820,-0.446899,-0.020325,-0.20843499999999998,-0.0058,0.000865,0.003975,-33.5,-21.870001000000002,-10.68,2c
2019-07-15_144638:840,-0.447388,-0.021332,-0.209961,-0.006319,0.000285,0.001716,-33.5,-21.870001000000002,-10.68,2c
2019-07-15_144638:860,-0.45196499999999995,-0.020844,-0.21048000000000003,-0.0066549999999999995,0.000285,0.000831,-33.060001,-22.68,-10.68,2c
2019-07-15_144638:880,-0.453003,-0.021851,-0.213013,-0.006684999999999999,0.000499,0.001442,-33.060001,-22.68,-10.68,2c
2019-07-15_144638:900,-0.45553599999999994,-0.024384,-0.213531,-0.006533,0.0008039999999999999,0.001106,-32.75,-22.68,-10.68,2c
2019-07-15_144638:920,-0.453003,-0.022858,-0.210968,-0.005953,0.0014759999999999999,0.000587,-32.75,-22.68,-10.68,2c
2019-07-15_144638:940,-0.451477,-0.022369,-0.21148699999999998,-0.0051600000000000005,0.001994,0.001045,-32.75,-22.68,-10.68,2c
2019-07-15_144638:960,-0.449432,-0.021851,-0.20944200000000002,-0.004732,0.002177,0.001716,-33.060001,-21.5,-9.87,2c
2019-07-15_144638:980,-0.449432,-0.021851,-0.20944200000000002,-0.00461,0.002177,0.00196,-33.060001,-21.5,-9.87,2c
2019-07-15_144639:000,-0.449432,-0.020325,-0.209961,-0.00461,0.002116,0.0018989999999999999,-33.060001,-22.25,-11.5,2c
2019-07-15_144639:020,-0.44891400000000004,-0.020325,-0.20944200000000002,-0.004671,0.002055,0.001564,-33.060001,-22.25,-11.5,2c
2019-07-15_144639:040,-0.45196499999999995,-0.021851,-0.21048000000000003,-0.00461,0.001628,0.001442,-33.060001,-22.25,-11.5,2c
2019-07-15_144639:060,-0.453003,-0.022858,-0.21249400000000002,-0.00461,0.001598,0.001167,-32.369999,-21.5,-10.37,2c
2019-07-15_144639:080,-0.453003,-0.023895,-0.210968,-0.004336,0.002391,0.00132,-32.369999,-21.5,-10.37,2c
2019-07-15_144639:100,-0.451477,-0.024384,-0.21048000000000003,-0.003817,0.002971,0.001716,-32.369999,-22.68,-10.37,2c
2019-07-15_144639:120,-0.44995100000000005,-0.022858,-0.208954,-0.003512,0.002849,0.000587,-32.369999,-22.68,-10.37,2c
2019-07-15_144639:140,-0.45095799999999997,-0.020325,-0.20944200000000002,-0.003237,0.002971,0.001228,-32.369999,-22.68,-10.37,2c
2019-07-15_144639:160,-0.44995100000000005,-0.023375999999999997,-0.207916,-0.00339,0.002757,0.001564,-33.060001,-21.870001000000002,-11.5,2c
2019-07-15_144639:180,-0.44891400000000004,-0.021851,-0.20843499999999998,-0.0034509999999999996,0.002757,0.000923,-33.060001,-21.870001000000002,-11.5,2c
2019-07-15_144639:200,-0.44995100000000005,-0.020844,-0.207916,-0.003573,0.002513,0.0008619999999999999,-32.75,-21.870001000000002,-11.06,2c
2019-07-15_144639:220,-0.45043900000000003,-0.022369,-0.207916,-0.0033280000000000002,0.002361,0.000404,-32.75,-21.870001000000002,-11.06,2c
2019-07-15_144639:240,-0.453003,-0.022369,-0.20742800000000003,-0.0032979999999999997,0.002239,0.000129,-32.75,-21.870001000000002,-11.06,2c
2019-07-15_144639:260,-0.45043900000000003,-0.021851,-0.205902,-0.0031149999999999997,0.001994,0.000221,-33.060001,-21.870001000000002,-10.68,2c
2019-07-15_144639:280,-0.45095799999999997,-0.019806,-0.205902,-0.002993,0.002116,0.00028199999999999997,-33.060001,-21.870001000000002,-10.68,2c
2019-07-15_144639:300,-0.449432,-0.019806,-0.20742800000000003,-0.003054,0.0019030000000000002,0.00028199999999999997,-33.5,-22.25,-11.06,2c
2019-07-15_144639:320,-0.44891400000000004,-0.01828,-0.20843499999999998,-0.002932,0.001842,0.00028199999999999997,-33.5,-22.25,-11.06,2c
2019-07-15_144639:340,-0.449432,-0.019318000000000002,-0.208954,-0.003237,0.0014759999999999999,0.00028199999999999997,-33.5,-22.25,-11.06,2c
2019-07-15_144639:360,-0.45095799999999997,-0.018799,-0.20843499999999998,-0.00339,0.0010789999999999999,0.00028199999999999997,-32.75,-22.68,-10.68,2c
2019-07-15_144639:380,-0.452484,-0.017792,-0.208954,-0.0036950000000000004,0.001201,0.000587,-32.75,-22.68,-10.68,2c
2019-07-15_144639:400,-0.452484,-0.01828,-0.208954,-0.004152,0.001292,0.001045,-32.0,-21.870001000000002,-11.5,2c
2019-07-15_144639:420,-0.452484,-0.018799,-0.20742800000000003,-0.00461,0.001353,0.001045,-32.0,-21.870001000000002,-11.5,2c
2019-07-15_144639:440,-0.451477,-0.020844,-0.20843499999999998,-0.004946,0.001537,0.001381,-32.0,-21.870001000000002,-11.5,2c
2019-07-15_144639:460,-0.452484,-0.021332,-0.20843499999999998,-0.0051600000000000005,0.001598,0.001442,-33.869999,-21.5,-12.25,2c
2019-07-15_144639:480,-0.449432,-0.024902,-0.206909,-0.0051600000000000005,0.001415,0.001258,-33.869999,-21.5,-12.25,2c
2019-07-15_144639:500,-0.449432,-0.026427999999999997,-0.208954,-0.00461,0.001292,0.001106,-32.75,-21.870001000000002,-11.06,2c
2019-07-15_144639:520,-0.452484,-0.027954000000000003,-0.20742800000000003,-0.0037560000000000002,0.0012619999999999999,0.000343,-32.75,-21.870001000000002,-11.06,2c
2019-07-15_144639:540,-0.44891400000000004,-0.027435,-0.207916,-0.002993,0.001018,-5.4000000000000005e-05,-32.75,-21.870001000000002,-11.06,2c
2019-07-15_144639:560,-0.45043900000000003,-0.026427999999999997,-0.209961,-0.0020469999999999998,0.000865,0.000343,-32.75,-21.5,-11.87,2c
2019-07-15_144639:580,-0.452484,-0.024902,-0.208954,-0.0015279999999999998,0.000621,0.000343,-32.75,-21.5,-11.87,2c
2019-07-15_144639:600,-0.453491,-0.024902,-0.212006,-0.001192,0.001201,7.000000000000001e-06,-33.5,-21.870001000000002,-11.06,2c
2019-07-15_144639:620,-0.451477,-0.021332,-0.209961,-0.001192,0.001964,-5.4000000000000005e-05,-33.5,-21.870001000000002,-11.06,2c
2019-07-15_144639:640,-0.451477,-0.021851,-0.210968,-0.001375,0.001964,0.001625,-33.5,-21.870001000000002,-11.06,2c
2019-07-15_144639:660,-0.445862,-0.022858,-0.20944200000000002,-0.001986,0.0016589999999999999,0.001381,-33.869999,-22.25,-9.87,2c
2019-07-15_144639:680,-0.45095799999999997,-0.023375999999999997,-0.21249400000000002,-0.002199,0.001415,-0.000908,-33.869999,-22.25,-9.87,2c
2019-07-15_144639:700,-0.45196499999999995,-0.022858,-0.213013,-0.002657,0.0014759999999999999,-0.000664,-32.75,-22.25,-10.68,2c
2019-07-15_144639:720,-0.452484,-0.024902,-0.212006,-0.002932,0.001598,7.000000000000001e-06,-32.75,-22.25,-10.68,2c
2019-07-15_144639:740,-0.45095799999999997,-0.024902,-0.213531,-0.003054,0.001842,-0.000573,-32.75,-22.25,-10.68,2c
2019-07-15_144639:760,-0.45095799999999997,-0.024902,-0.21148699999999998,-0.002993,0.001994,-0.000573,-33.5,-21.5,-10.37,2c
2019-07-15_144639:780,-0.44995100000000005,-0.023895,-0.20944200000000002,-0.002993,0.002391,-0.000725,-33.5,-21.5,-10.37,2c
2019-07-15_144639:800,-0.449432,-0.023895,-0.21048000000000003,-0.0029010000000000004,0.002361,-0.000725,-33.5,-21.870001000000002,-10.37,2c
2019-07-15_144639:820,-0.447906,-0.023895,-0.209961,-0.003054,0.002361,-0.00023700000000000001,-33.5,-21.870001000000002,-10.37,2c
2019-07-15_144639:840,-0.448425,-0.022369,-0.21249400000000002,-0.003054,0.001994,-0.000634,-33.5,-21.870001000000002,-10.37,2c
2019-07-15_144639:860,-0.45043900000000003,-0.022858,-0.20944200000000002,-0.0031149999999999997,0.0016589999999999999,-0.000573,-32.369999,-21.5,-10.68,2c
2019-07-15_144639:880,-0.45095799999999997,-0.021851,-0.20944200000000002,-0.0028399999999999996,0.00172,-0.000512,-32.369999,-21.5,-10.68,2c
2019-07-15_144639:900,-0.451477,-0.019318000000000002,-0.210968,-0.002932,0.0016589999999999999,-5.4000000000000005e-05,-33.060001,-21.870001000000002,-11.06,2c
2019-07-15_144639:920,-0.451477,-0.019318000000000002,-0.20944200000000002,-0.003512,0.00172,0.000984,-33.060001,-21.870001000000002,-11.06,2c
2019-07-15_144639:940,-0.453003,-0.018799,-0.21048000000000003,-0.004091,0.001842,0.0008619999999999999,-33.060001,-21.870001000000002,-11.06,2c
2019-07-15_144639:960,-0.453491,-0.017792,-0.21148699999999998,-0.0048850000000000005,0.002391,0.00016,-32.75,-21.5,-11.5,2c
2019-07-15_144639:980,-0.452484,-0.017792,-0.209961,-0.005556,0.002696,0.000526,-32.75,-21.5,-11.5,2c
2019-07-15_144640:000,-0.449432,-0.019806,-0.20944200000000002,-0.006258,0.002757,0.001106,-32.75,-21.870001000000002,-12.25,2c
2019-07-15_144640:020,-0.44995100000000005,-0.022858,-0.20742800000000003,-0.006075,0.002574,0.0008619999999999999,-32.75,-21.870001000000002,-12.25,2c
2019-07-15_144640:040,-0.45043900000000003,-0.023375999999999997,-0.206909,-0.005953,0.002239,0.000526,-32.75,-21.870001000000002,-12.25,2c
2019-07-15_144640:060,-0.45196499999999995,-0.022369,-0.20639000000000002,-0.005465,0.002239,0.000526,-33.060001,-22.25,-10.37,2c
2019-07-15_144640:080,-0.45401,-0.020844,-0.205902,-0.004946,0.0024519999999999998,0.000526,-33.060001,-22.25,-10.37,2c
2019-07-15_144640:100,-0.451477,-0.01828,-0.20486500000000002,-0.004824,0.002757,0.000343,-32.75,-21.5,-10.68,2c
2019-07-15_144640:120,-0.45095799999999997,-0.017792,-0.20538299999999998,-0.0048850000000000005,0.003032,0.000587,-32.75,-21.5,-10.68,2c
2019-07-15_144640:140,-0.45095799999999997,-0.01828,-0.20538299999999998,-0.0051600000000000005,0.002635,0.000648,-32.75,-21.5,-10.68,2c
2019-07-15_144640:160,-0.45095799999999997,-0.019318000000000002,-0.20486500000000002,-0.005526,0.002391,0.000404,-32.0,-21.870001000000002,-10.37,2c
2019-07-15_144640:180,-0.45196499999999995,-0.019806,-0.20486500000000002,-0.005861,0.002055,0.000496,-32.0,-21.870001000000002,-10.37,2c
2019-07-15_144640:200,-0.45196499999999995,-0.021332,-0.204376,-0.005678,0.001994,0.000465,-32.75,-21.5,-9.87,2c
2019-07-15_144640:220,-0.45095799999999997,-0.021332,-0.20385699999999998,-0.005526,0.002177,0.000587,-32.75,-21.5,-9.87,2c
2019-07-15_144640:240,-0.453491,-0.020325,-0.20486500000000002,-0.005068,0.001994,0.0007700000000000001,-32.75,-21.5,-9.87,2c
2019-07-15_144640:260,-0.454529,-0.020325,-0.20385699999999998,-0.004824,0.001842,0.0008619999999999999,-33.060001,-22.25,-9.87,2c
2019-07-15_144640:280,-0.455017,-0.020325,-0.20285,-0.004793,0.002239,0.000831,-33.060001,-22.25,-9.87,2c
2019-07-15_144640:300,-0.454529,-0.021851,-0.20385699999999998,-0.00461,0.0024519999999999998,0.000404,-33.060001,-22.25,-10.37,2c
2019-07-15_144640:320,-0.454529,-0.019318000000000002,-0.203369,-0.004488000000000001,0.002757,0.000343,-33.060001,-22.25,-10.37,2c
2019-07-15_144640:340,-0.454529,-0.021332,-0.20385699999999998,-0.004275,0.002849,0.00028199999999999997,-33.060001,-22.25,-10.37,2c
2019-07-15_144640:360,-0.453003,-0.020325,-0.20285,-0.004213000000000001,0.002971,0.000129,-33.869999,-22.25,-10.37,2c
2019-07-15_144640:380,-0.453003,-0.021851,-0.203369,-0.0037560000000000002,0.003093,-0.00011499999999999999,-33.869999,-22.25,-10.37,2c
2019-07-15_144640:400,-0.453491,-0.021332,-0.203369,-0.003512,0.002757,7.000000000000001e-06,-33.060001,-21.18,-9.5,2c
2019-07-15_144640:420,-0.45196499999999995,-0.019806,-0.20233199999999998,-0.003176,0.002788,-0.000573,-33.060001,-21.18,-9.5,2c
2019-07-15_144640:440,-0.45196499999999995,-0.01828,-0.20233199999999998,-0.0028399999999999996,0.002513,-0.000664,-33.060001,-21.18,-9.5,2c
2019-07-15_144640:460,-0.453003,-0.018799,-0.203369,-0.002535,0.002391,7.000000000000001e-06,-32.75,-21.870001000000002,-10.37,2c
2019-07-15_144640:480,-0.457581,-0.017792,-0.21148699999999998,-0.0025960000000000002,0.002055,-0.000634,-32.75,-21.870001000000002,-10.37,2c
2019-07-15_144640:500,-0.447388,-0.017273,-0.197266,-0.0033280000000000002,0.00352,0.000343,-33.060001,-21.5,-11.87,2c
2019-07-15_144640:520,-0.44891400000000004,-0.019318000000000002,-0.19574,-0.00339,0.0024519999999999998,0.002113,-33.060001,-21.5,-11.87,2c
2019-07-15_144640:540,-0.453003,-0.022369,-0.20080599999999998,-0.0036340000000000005,0.001598,0.0008619999999999999,-33.060001,-21.5,-11.87,2c
2019-07-15_144640:560,-0.45401,-0.019806,-0.201843,-0.0034509999999999996,0.0014759999999999999,-0.0009689999999999999,-32.369999,-21.870001000000002,-9.87,2c
2019-07-15_144640:580,-0.45706199999999997,-0.022858,-0.205902,-0.003237,0.001628,-0.000573,-32.369999,-21.870001000000002,-9.87,2c
2019-07-15_144640:600,-0.455017,-0.022858,-0.20486500000000002,-0.003054,0.002177,-0.000176,-32.75,-21.870001000000002,-11.06,2c
2019-07-15_144640:620,-0.45095799999999997,-0.022858,-0.201843,-0.002535,0.002116,-0.000725,-32.75,-21.870001000000002,-11.06,2c
2019-07-15_144640:640,-0.45043900000000003,-0.020844,-0.201324,-0.001925,0.002116,-0.000725,-32.75,-21.870001000000002,-11.06,2c
2019-07-15_144640:660,-0.452484,-0.019318000000000002,-0.20233199999999998,-0.00165,0.001598,-0.00045099999999999996,-33.5,-21.870001000000002,-9.87,2c
2019-07-15_144640:680,-0.451477,-0.019806,-0.201843,-0.0014060000000000001,0.001415,-0.00011499999999999999,-33.5,-21.870001000000002,-9.87,2c
2019-07-15_144640:700,-0.453003,-0.018799,-0.20385699999999998,-0.0015890000000000001,0.001292,0.000129,-33.060001,-22.68,-10.37,2c
2019-07-15_144640:720,-0.44995100000000005,-0.01828,-0.20233199999999998,-0.0017109999999999998,0.0008960000000000001,6.8e-05,-33.060001,-22.68,-10.37,2c
2019-07-15_144640:740,-0.45196499999999995,-0.017792,-0.203369,-0.0017109999999999998,0.000682,0.000343,-33.060001,-22.68,-10.37,2c
2019-07-15_144640:760,-0.452484,-0.018799,-0.203369,-0.0020469999999999998,1.1e-05,0.000404,-32.75,-21.870001000000002,-11.06,2c
2019-07-15_144640:780,-0.45605500000000004,-0.021851,-0.20538299999999998,-0.002199,0.00016299999999999998,0.000404,-32.75,-21.870001000000002,-11.06,2c
2019-07-15_144640:800,-0.45401,-0.019318000000000002,-0.204376,-0.0021079999999999996,0.000346,0.000526,-32.369999,-21.870001000000002,-10.68,2c
2019-07-15_144640:820,-0.453003,-0.021332,-0.20538299999999998,-0.001986,0.000621,0.000923,-32.369999,-21.870001000000002,-10.68,2c
2019-07-15_144640:840,-0.453003,-0.019806,-0.20385699999999998,-0.0022600000000000003,0.000743,0.000496,-32.369999,-21.870001000000002,-10.68,2c
2019-07-15_144640:860,-0.451477,-0.019318000000000002,-0.205902,-0.002199,0.0008039999999999999,0.000709,-33.060001,-22.25,-11.06,2c
2019-07-15_144640:880,-0.452484,-0.020325,-0.20486500000000002,-0.002657,0.00056,0.0008619999999999999,-33.060001,-22.25,-11.06,2c
2019-07-15_144640:900,-0.453003,-0.020844,-0.208954,-0.002993,0.000682,0.000709,-32.75,-21.5,-10.37,2c
2019-07-15_144640:920,-0.45196499999999995,-0.021851,-0.20742800000000003,-0.003054,0.000468,0.000648,-32.75,-21.5,-10.37,2c
2019-07-15_144640:940,-0.453003,-0.022858,-0.20742800000000003,-0.002993,0.00056,0.000221,-32.75,-21.5,-10.37,2c
2019-07-15_144640:960,-0.453491,-0.022369,-0.206909,-0.002657,0.000743,-0.00023700000000000001,-33.5,-22.25,-9.87,2c
2019-07-15_144640:980,-0.453003,-0.021332,-0.20639000000000002,-0.0022600000000000003,0.0009570000000000001,-0.000328,-33.5,-22.25,-9.87,2c
2019-07-15_144641:000,-0.45043900000000003,-0.019806,-0.20538299999999998,-0.0020469999999999998,0.001353,-0.000176,-33.5,-22.68,-11.06,2c
2019-07-15_144641:020,-0.452484,-0.020325,-0.20486500000000002,-0.0020469999999999998,0.001292,0.00028199999999999997,-33.5,-22.68,-11.06,2c
2019-07-15_144641:040,-0.45095799999999997,-0.020844,-0.20639000000000002,-0.001925,0.0010789999999999999,0.000221,-33.5,-22.68,-11.06,2c
2019-07-15_144641:060,-0.451477,-0.019806,-0.206909,-0.001772,0.0008039999999999999,0.000465,-32.369999,-21.870001000000002,-11.06,2c
2019-07-15_144641:080,-0.453491,-0.020325,-0.20639000000000002,-0.001467,0.000865,0.001045,-32.369999,-21.870001000000002,-11.06,2c
2019-07-15_144641:100,-0.453003,-0.020325,-0.208954,-0.0017109999999999998,0.0009570000000000001,0.001442,-33.5,-22.25,-11.5,2c
2019-07-15_144641:120,-0.452484,-0.020844,-0.20944200000000002,-0.001467,0.001201,0.001838,-33.5,-22.25,-11.5,2c
2019-07-15_144641:140,-0.455017,-0.021332,-0.20742800000000003,-0.0014060000000000001,0.001292,0.002052,-33.5,-22.25,-11.5,2c
2019-07-15_144641:160,-0.455017,-0.021851,-0.21048000000000003,-0.0015279999999999998,0.0016589999999999999,0.001228,-31.25,-22.25,-9.87,2c
2019-07-15_144641:180,-0.45401,-0.021332,-0.206909,-0.0015890000000000001,0.0024519999999999998,0.000526,-31.25,-22.25,-9.87,2c
2019-07-15_144641:200,-0.45196499999999995,-0.023375999999999997,-0.207916,-0.0015890000000000001,0.002788,0.000709,-33.060001,-22.25,-10.68,2c
2019-07-15_144641:220,-0.45043900000000003,-0.023375999999999997,-0.205902,-0.001864,0.002574,0.000709,-33.060001,-22.25,-10.68,2c
2019-07-15_144641:240,-0.44995100000000005,-0.024902,-0.20639000000000002,-0.0020469999999999998,0.002513,0.000465,-33.060001,-22.25,-10.68,2c
2019-07-15_144641:260,-0.453491,-0.024384,-0.20486500000000002,-0.0020469999999999998,0.002177,-5.4000000000000005e-05,-32.75,-22.25,-11.06,2c
2019-07-15_144641:280,-0.452484,-0.024902,-0.205902,-0.001986,0.001964,-0.000328,-32.75,-22.25,-11.06,2c
2019-07-15_144641:300,-0.453003,-0.023895,-0.20538299999999998,-0.001925,0.002116,-0.000634,-33.060001,-22.25,-11.87,2c
2019-07-15_144641:320,-0.452484,-0.023895,-0.203369,-0.001375,0.002239,-0.000664,-33.060001,-22.25,-11.87,2c
2019-07-15_144641:340,-0.453003,-0.023895,-0.20385699999999998,-0.001131,0.002361,-0.0008470000000000001,-33.060001,-22.25,-11.87,2c
2019-07-15_144641:360,-0.454529,-0.022369,-0.201843,-0.001192,0.002361,-0.000786,-32.75,-21.870001000000002,-9.18,2c
2019-07-15_144641:380,-0.45095799999999997,-0.021332,-0.203369,-0.00107,0.002391,0.000129,-32.75,-21.870001000000002,-9.18,2c
2019-07-15_144641:400,-0.453003,-0.020325,-0.201324,-0.001192,0.0023,6.8e-05,-33.060001,-22.25,-10.68,2c
2019-07-15_144641:420,-0.45196499999999995,-0.020844,-0.200317,-0.00165,0.002116,0.000465,-33.060001,-22.25,-10.68,2c
2019-07-15_144641:440,-0.44891400000000004,-0.023895,-0.20233199999999998,-0.002199,0.0014759999999999999,0.001777,-33.060001,-22.25,-10.68,2c
2019-07-15_144641:460,-0.452484,-0.024902,-0.20233199999999998,-0.002443,0.0009570000000000001,0.000648,-33.060001,-21.870001000000002,-10.68,2c
2019-07-15_144641:480,-0.453491,-0.023375999999999997,-0.20538299999999998,-0.0025960000000000002,0.000407,-0.0013050000000000002,-33.060001,-21.870001000000002,-10.68,2c
2019-07-15_144641:500,-0.453003,-0.022858,-0.205902,-0.002443,0.000743,-0.001,-33.060001,-22.25,-11.5,2c
2019-07-15_144641:520,-0.45401,-0.024902,-0.205902,-0.0025050000000000003,0.0008039999999999999,-0.000512,-33.060001,-22.25,-11.5,2c
2019-07-15_144641:540,-0.45605500000000004,-0.022369,-0.20538299999999998,-0.002169,0.00114,-0.000908,-33.060001,-22.25,-11.5,2c
2019-07-15_144641:560,-0.454529,-0.022858,-0.20486500000000002,-0.0020469999999999998,0.0019030000000000002,-0.0008470000000000001,-32.75,-21.870001000000002,-11.06,2c
2019-07-15_144641:580,-0.451477,-0.019318000000000002,-0.20385699999999998,-0.0021079999999999996,0.0023,-0.000176,-32.75,-21.870001000000002,-11.06,2c
2019-07-15_144641:600,-0.45043900000000003,-0.020325,-0.20385699999999998,-0.002718,0.002361,0.000587,-34.25,-21.870001000000002,-10.37,2c
2019-07-15_144641:620,-0.449432,-0.021332,-0.20385699999999998,-0.003176,0.001994,0.0008619999999999999,-34.25,-21.870001000000002,-10.37,2c
2019-07-15_144641:640,-0.449432,-0.021332,-0.20285,-0.003664,0.0014759999999999999,0.000404,-34.25,-21.870001000000002,-10.37,2c
2019-07-15_144641:660,-0.451477,-0.021851,-0.20639000000000002,-0.004,0.0008039999999999999,0.00016,-33.060001,-21.18,-11.87,2c
2019-07-15_144641:680,-0.452484,-0.024384,-0.204376,-0.004,0.000682,0.000343,-33.060001,-21.18,-11.87,2c
2019-07-15_144641:700,-0.453003,-0.024902,-0.20639000000000002,-0.0036950000000000004,0.000682,0.000343,-33.060001,-22.25,-10.68,2c
2019-07-15_144641:720,-0.454529,-0.024384,-0.20639000000000002,-0.0036340000000000005,0.00056,0.000648,-33.060001,-22.25,-10.68,2c
2019-07-15_144641:740,-0.45401,-0.022858,-0.205902,-0.003237,0.0008960000000000001,0.001167,-33.060001,-22.25,-10.68,2c
2019-07-15_144641:760,-0.453003,-0.023375999999999997,-0.20538299999999998,-0.00339,0.001201,0.000221,-33.060001,-21.870001000000002,-11.5,2c
2019-07-15_144641:780,-0.454529,-0.020325,-0.20742800000000003,-0.003664,0.0014759999999999999,0.0008619999999999999,-33.060001,-21.870001000000002,-11.5,2c
2019-07-15_144641:800,-0.452484,-0.022369,-0.20639000000000002,-0.004397,0.001598,0.000648,-33.060001,-21.870001000000002,-11.5,2c
2019-07-15_144641:820,-0.453003,-0.022369,-0.20639000000000002,-0.004336,0.001598,0.000709,-33.060001,-21.870001000000002,-11.5,2c
2019-07-15_144641:840,-0.453003,-0.023895,-0.20639000000000002,-0.004488000000000001,0.001598,0.000526,-33.060001,-21.870001000000002,-11.5,2c
2019-07-15_144641:860,-0.45401,-0.024902,-0.20538299999999998,-0.004,0.00172,0.000129,-32.369999,-21.870001000000002,-11.5,2c
2019-07-15_144641:880,-0.453491,-0.022858,-0.205902,-0.0036950000000000004,0.0019030000000000002,0.000343,-32.369999,-21.870001000000002,-11.5,2c
2019-07-15_144641:900,-0.453491,-0.023375999999999997,-0.20486500000000002,-0.00339,0.002177,0.000709,-33.060001,-22.25,-12.68,2c
2019-07-15_144641:920,-0.45196499999999995,-0.022369,-0.20486500000000002,-0.003176,0.0023,0.000923,-33.060001,-22.25,-12.68,2c
2019-07-15_144641:940,-0.449432,-0.023375999999999997,-0.20385699999999998,-0.0032979999999999997,0.002116,0.0007700000000000001,-33.060001,-22.25,-12.68,2c
2019-07-15_144641:960,-0.452484,-0.023375999999999997,-0.20538299999999998,-0.0032979999999999997,0.001994,0.000526,-32.75,-21.870001000000002,-10.37,2c
2019-07-15_144641:980,-0.453003,-0.022858,-0.20538299999999998,-0.00339,0.002361,0.000496,-32.75,-21.870001000000002,-10.37,2c
2019-07-15_144642:000,-0.45196499999999995,-0.025421,-0.205902,-0.0034509999999999996,0.0024519999999999998,0.000587,-32.75,-22.25,-10.68,2c
2019-07-15_144642:020,-0.44891400000000004,-0.025421,-0.204376,-0.0032979999999999997,0.001964,0.000496,-32.75,-22.25,-10.68,2c
2019-07-15_144642:040,-0.45196499999999995,-0.024902,-0.203369,-0.003237,0.001628,0.00016,-32.75,-22.25,-10.68,2c
2019-07-15_144642:060,-0.452484,-0.024902,-0.204376,-0.002779,0.0014759999999999999,-5.4000000000000005e-05,-32.75,-21.870001000000002,-11.87,2c
2019-07-15_144642:080,-0.453003,-0.024902,-0.20233199999999998,-0.0028399999999999996,0.001628,6.8e-05,-32.75,-21.870001000000002,-11.87,2c
2019-07-15_144642:100,-0.45196499999999995,-0.024902,-0.20538299999999998,-0.002657,0.001415,0.000221,-33.060001,-21.870001000000002,-11.06,2c
2019-07-15_144642:120,-0.452484,-0.023895,-0.20285,-0.0031149999999999997,0.001292,6.8e-05,-33.060001,-21.870001000000002,-11.06,2c
2019-07-15_144642:140,-0.454529,-0.023375999999999997,-0.20285,-0.003176,0.001415,0.00016,-33.060001,-21.870001000000002,-11.06,2c
2019-07-15_144642:160,-0.453003,-0.024384,-0.204376,-0.0033280000000000002,0.001537,0.000129,-33.060001,-21.870001000000002,-11.87,2c
2019-07-15_144642:180,-0.455017,-0.022858,-0.20385699999999998,-0.0034509999999999996,0.001628,0.000221,-33.060001,-21.870001000000002,-11.87,2c
2019-07-15_144642:200,-0.453491,-0.023895,-0.204376,-0.0034509999999999996,0.0016589999999999999,0.000129,-32.75,-21.870001000000002,-11.5,2c
2019-07-15_144642:220,-0.454529,-0.023375999999999997,-0.20385699999999998,-0.0033280000000000002,0.00172,-0.00011499999999999999,-32.75,-21.870001000000002,-11.5,2c
2019-07-15_144642:240,-0.454529,-0.022858,-0.20385699999999998,-0.003176,0.001964,0.00028199999999999997,-32.75,-21.870001000000002,-11.5,2c
2019-07-15_144642:260,-0.45401,-0.021851,-0.20285,-0.003176,0.002116,0.0007700000000000001,-32.369999,-21.5,-11.87,2c
2019-07-15_144642:280,-0.454529,-0.022369,-0.201843,-0.0033280000000000002,0.0024519999999999998,0.000709,-32.369999,-21.5,-11.87,2c
2019-07-15_144642:300,-0.45196499999999995,-0.022369,-0.20285,-0.0037560000000000002,0.002361,0.000496,-32.75,-21.870001000000002,-11.5,2c
2019-07-15_144642:320,-0.453003,-0.020844,-0.19927999999999998,-0.004091,0.002239,0.0021739999999999997,-32.75,-21.870001000000002,-11.5,2c
2019-07-15_144642:340,-0.452484,-0.022858,-0.20080599999999998,-0.004427,0.001842,0.002235,-32.75,-21.870001000000002,-11.5,2c
2019-07-15_144642:360,-0.447906,-0.025421,-0.20233199999999998,-0.004732,0.0009570000000000001,0.00028199999999999997,-33.060001,-21.870001000000002,-11.87,2c
2019-07-15_144642:380,-0.451477,-0.022858,-0.200317,-0.005007,0.000407,-0.00011499999999999999,-33.060001,-21.870001000000002,-11.87,2c
2019-07-15_144642:400,-0.453003,-0.023895,-0.201843,-0.0051600000000000005,0.000346,0.000526,-33.060001,-21.870001000000002,-13.5,2c
2019-07-15_144642:420,-0.454529,-0.025421,-0.20385699999999998,-0.005465,0.000621,0.000648,-33.060001,-21.870001000000002,-13.5,2c
2019-07-15_144642:440,-0.45401,-0.024902,-0.20486500000000002,-0.005068,0.001018,0.0007700000000000001,-33.060001,-21.870001000000002,-13.5,2c
2019-07-15_144642:460,-0.453003,-0.025421,-0.204376,-0.004946,0.0010789999999999999,0.000709,-32.75,-21.870001000000002,-11.5,2c
2019-07-15_144642:480,-0.452484,-0.025421,-0.20385699999999998,-0.004397,0.001201,0.001167,-32.75,-21.870001000000002,-11.5,2c
2019-07-15_144642:500,-0.45196499999999995,-0.026427999999999997,-0.20538299999999998,-0.004275,0.001201,0.001381,-33.060001,-21.870001000000002,-11.5,2c
2019-07-15_144642:520,-0.452484,-0.027435,-0.205902,-0.0037560000000000002,0.001353,0.001442,-33.060001,-21.870001000000002,-11.5,2c
2019-07-15_144642:540,-0.453003,-0.026917,-0.20639000000000002,-0.003512,0.001201,0.000709,-33.060001,-21.870001000000002,-11.5,2c
2019-07-15_144642:560,-0.452484,-0.025908999999999998,-0.206909,-0.003054,0.0010789999999999999,0.000587,-32.75,-21.870001000000002,-10.68,2c
2019-07-15_144642:580,-0.455017,-0.024902,-0.20639000000000002,-0.0028399999999999996,0.001537,0.000526,-32.75,-21.870001000000002,-10.68,2c
2019-07-15_144642:600,-0.45907600000000004,-0.023895,-0.20944200000000002,-0.003176,0.002116,0.000587,-32.369999,-21.870001000000002,-12.25,2c
2019-07-15_144642:620,-0.454529,-0.022858,-0.206909,-0.0036950000000000004,0.0029100000000000003,0.001045,-32.369999,-21.870001000000002,-12.25,2c
2019-07-15_144642:640,-0.452484,-0.023375999999999997,-0.204376,-0.004,0.0031850000000000003,0.00028199999999999997,-32.369999,-21.870001000000002,-12.25,2c
2019-07-15_144642:660,-0.45095799999999997,-0.024384,-0.20486500000000002,-0.004091,0.003032,-0.00023700000000000001,-32.75,-21.5,-11.5,2c
2019-07-15_144642:680,-0.45043900000000003,-0.024384,-0.20233199999999998,-0.004488000000000001,0.0024519999999999998,0.000526,-32.75,-21.5,-11.5,2c
2019-07-15_144642:700,-0.45095799999999997,-0.024902,-0.203369,-0.004336,0.002116,0.00028199999999999997,-33.5,-21.870001000000002,-11.5,2c
2019-07-15_144642:720,-0.453003,-0.025421,-0.20285,-0.003878,0.0023,-0.000664,-33.5,-21.870001000000002,-11.5,2c
2019-07-15_144642:740,-0.455017,-0.025908999999999998,-0.20285,-0.00339,0.0024519999999999998,-0.0009689999999999999,-33.5,-21.870001000000002,-11.5,2c
2019-07-15_144642:760,-0.453491,-0.024384,-0.203369,-0.0031149999999999997,0.002635,-0.0009689999999999999,-33.060001,-21.870001000000002,-11.5,2c
2019-07-15_144642:780,-0.451477,-0.023375999999999997,-0.201324,-0.002718,0.002391,-0.000664,-33.060001,-21.870001000000002,-11.5,2c
2019-07-15_144642:800,-0.45095799999999997,-0.022858,-0.20285,-0.002443,0.0023,-0.00045099999999999996,-32.75,-22.25,-10.37,2c
2019-07-15_144642:820,-0.45095799999999997,-0.021332,-0.20285,-0.0022600000000000003,0.00172,-0.000725,-32.75,-22.25,-10.37,2c
2019-07-15_144642:840,-0.453003,-0.019806,-0.203369,-0.0020469999999999998,0.001537,-0.0010609999999999999,-32.75,-22.25,-10.37,2c
2019-07-15_144642:860,-0.453003,-0.019806,-0.20385699999999998,-0.0021079999999999996,0.0014759999999999999,-0.0012439999999999999,-32.75,-21.5,-11.5,2c
2019-07-15_144642:880,-0.453491,-0.01828,-0.20285,-0.002657,0.001842,-0.000634,-32.75,-21.5,-11.5,2c
2019-07-15_144642:900,-0.45605500000000004,-0.017792,-0.20385699999999998,-0.003237,0.002239,-0.00011499999999999999,-33.060001,-21.870001000000002,-10.37,2c
2019-07-15_144642:920,-0.455017,-0.020325,-0.20385699999999998,-0.003573,0.002055,0.000343,-33.060001,-21.870001000000002,-10.37,2c
2019-07-15_144642:940,-0.45401,-0.021851,-0.201843,-0.003573,0.002177,0.000648,-33.060001,-21.870001000000002,-10.37,2c
2019-07-15_144642:960,-0.45196499999999995,-0.024384,-0.204376,-0.0033280000000000002,0.001964,0.000465,-33.060001,-21.5,-11.06,2c
2019-07-15_144642:980,-0.453491,-0.024384,-0.20285,-0.003237,0.002116,0.000648,-33.060001,-21.5,-11.06,2c
2019-07-15_144643:000,-0.453003,-0.023895,-0.20486500000000002,-0.0029010000000000004,0.001994,0.0007700000000000001,-33.869999,-21.870001000000002,-11.5,2c
2019-07-15_144643:020,-0.45401,-0.024384,-0.20385699999999998,-0.002718,0.002116,0.000587,-33.869999,-21.870001000000002,-11.5,2c
2019-07-15_144643:040,-0.455017,-0.022369,-0.20233199999999998,-0.0025050000000000003,0.002239,0.000404,-33.869999,-21.870001000000002,-11.5,2c
2019-07-15_144643:060,-0.455017,-0.021332,-0.201843,-0.002535,0.002177,0.00028199999999999997,-33.869999,-21.870001000000002,-11.87,2c
2019-07-15_144643:080,-0.453003,-0.020844,-0.20080599999999998,-0.002779,0.0024519999999999998,0.000526,-33.869999,-21.870001000000002,-11.87,2c
2019-07-15_144643:100,-0.453003,-0.019806,-0.20285,-0.0031149999999999997,0.0024519999999999998,0.000465,-33.5,-22.25,-11.87,2c
2019-07-15_144643:120,-0.453491,-0.020844,-0.20285,-0.0034509999999999996,0.001964,0.00028199999999999997,-33.5,-22.25,-11.87,2c
2019-07-15_144643:140,-0.45401,-0.019318000000000002,-0.206909,-0.0037560000000000002,0.001994,0.000129,-33.5,-22.25,-11.87,2c
2019-07-15_144643:160,-0.453003,-0.021851,-0.198792,-0.004152,0.0024519999999999998,6.8e-05,-33.060001,-22.25,-10.68,2c
2019-07-15_144643:180,-0.453491,-0.023895,-0.195221,-0.003878,0.002055,0.00028199999999999997,-33.060001,-22.25,-10.68,2c
2019-07-15_144643:200,-0.45401,-0.023375999999999997,-0.19775399999999999,-0.003176,0.0017809999999999998,0.000221,-32.75,-21.5,-13.06,2c
2019-07-15_144643:220,-0.457581,-0.019806,-0.20080599999999998,-0.0031149999999999997,0.002177,0.000129,-32.75,-21.5,-13.06,2c
2019-07-15_144643:240,-0.45654300000000003,-0.019806,-0.200317,-0.003512,0.0024519999999999998,0.002449,-32.75,-21.5,-13.06,2c
2019-07-15_144643:260,-0.45605500000000004,-0.023895,-0.198792,-0.003817,0.0023,0.0022960000000000003,-33.5,-22.68,-11.5,2c
2019-07-15_144643:280,-0.453003,-0.023895,-0.197266,-0.003939,0.002116,0.000404,-33.5,-22.68,-11.5,2c
2019-07-15_144643:300,-0.453003,-0.024384,-0.198273,-0.00403,0.0019030000000000002,-0.00023700000000000001,-32.369999,-22.25,-11.06,2c
2019-07-15_144643:320,-0.453003,-0.025421,-0.200317,-0.003939,0.001415,0.00028199999999999997,-32.369999,-22.25,-11.06,2c
2019-07-15_144643:340,-0.452484,-0.025421,-0.20080599999999998,-0.0037560000000000002,0.0014759999999999999,-5.4000000000000005e-05,-32.369999,-22.25,-11.06,2c
2019-07-15_144643:360,-0.451477,-0.025908999999999998,-0.20080599999999998,-0.0031149999999999997,0.0010789999999999999,-0.00045099999999999996,-33.5,-21.870001000000002,-11.06,2c
2019-07-15_144643:380,-0.452484,-0.024902,-0.200317,-0.002535,0.0009570000000000001,-0.00045099999999999996,-33.5,-21.870001000000002,-11.06,2c
2019-07-15_144643:400,-0.453003,-0.022369,-0.201843,-0.001864,0.000621,-0.000328,-33.5,-21.870001000000002,-11.06,2c
2019-07-15_144643:420,-0.45553599999999994,-0.021332,-0.201843,-0.0015890000000000001,0.001018,0.000129,-32.0,-21.870001000000002,-10.68,2c
2019-07-15_144643:440,-0.45553599999999994,-0.019318000000000002,-0.20080599999999998,-0.0015890000000000001,0.0012619999999999999,0.00016,-32.0,-21.870001000000002,-10.68,2c
2019-07-15_144643:460,-0.455017,-0.01828,-0.201324,-0.0020469999999999998,0.001415,0.000465,-33.5,-21.870001000000002,-11.06,2c
2019-07-15_144643:480,-0.45401,-0.017792,-0.20080599999999998,-0.0025960000000000002,0.001415,0.001045,-33.5,-21.870001000000002,-11.06,2c
2019-07-15_144643:500,-0.453003,-0.020325,-0.201324,-0.0033280000000000002,0.0010789999999999999,0.001625,-33.060001,-21.5,-11.87,2c
2019-07-15_144643:520,-0.45654300000000003,-0.021851,-0.20080599999999998,-0.003878,0.0009570000000000001,0.001381,-33.060001,-21.5,-11.87,2c
2019-07-15_144643:540,-0.455017,-0.023375999999999997,-0.203369,-0.004397,0.001598,0.001838,-33.060001,-21.5,-11.87,2c
2019-07-15_144643:560,-0.453491,-0.025908999999999998,-0.20285,-0.004488000000000001,0.0017809999999999998,0.002052,-32.369999,-21.870001000000002,-11.87,2c
2019-07-15_144643:580,-0.452484,-0.027435,-0.203369,-0.004732,0.001415,0.001106,-32.369999,-21.870001000000002,-11.87,2c
2019-07-15_144643:600,-0.453491,-0.027954000000000003,-0.203369,-0.004152,0.001292,0.000587,-32.369999,-21.870001000000002,-11.87,2c
2019-07-15_144643:620,-0.45553599999999994,-0.025908999999999998,-0.201324,-0.003573,0.001537,0.000526,-32.75,-22.25,-11.5,2c
2019-07-15_144643:640,-0.45401,-0.025421,-0.201324,-0.003176,0.0016589999999999999,0.000526,-32.75,-22.25,-11.5,2c
2019-07-15_144643:660,-0.45401,-0.022858,-0.20233199999999998,-0.0031149999999999997,0.0016589999999999999,0.000587,-32.75,-21.5,-11.06,2c
2019-07-15_144643:680,-0.449432,-0.022369,-0.201324,-0.0032979999999999997,0.0019030000000000002,0.000587,-32.75,-21.5,-11.06,2c
2019-07-15_144643:700,-0.45095799999999997,-0.023375999999999997,-0.20233199999999998,-0.00339,0.001598,0.000587,-32.369999,-21.18,-11.87,2c
2019-07-15_144643:720,-0.45553599999999994,-0.022858,-0.20233199999999998,-0.0034509999999999996,0.001201,-0.00045099999999999996,-32.369999,-21.18,-11.87,2c
2019-07-15_144643:740,-0.45605500000000004,-0.023895,-0.20285,-0.0032979999999999997,0.0010789999999999999,-0.000176,-32.369999,-21.18,-11.87,2c
2019-07-15_144643:760,-0.45553599999999994,-0.023895,-0.201324,-0.003054,0.001353,0.000496,-33.5,-21.870001000000002,-10.68,2c
2019-07-15_144643:780,-0.455017,-0.022369,-0.201843,-0.0025050000000000003,0.001537,0.0007700000000000001,-33.5,-21.870001000000002,-10.68,2c
2019-07-15_144643:800,-0.455017,-0.021332,-0.20233199999999998,-0.002443,0.001415,0.000984,-33.5,-21.870001000000002,-10.68,2c
2019-07-15_144643:820,-0.454529,-0.021851,-0.20233199999999998,-0.0025050000000000003,0.0014759999999999999,0.001167,-32.369999,-21.870001000000002,-11.87,2c
2019-07-15_144643:840,-0.453491,-0.021851,-0.20385699999999998,-0.003237,0.0012619999999999999,0.001503,-32.369999,-21.870001000000002,-11.87,2c
2019-07-15_144643:860,-0.45654300000000003,-0.023375999999999997,-0.201843,-0.003573,0.0016589999999999999,0.001442,-32.75,-22.68,-11.06,2c
2019-07-15_144643:880,-0.453491,-0.023895,-0.20080599999999998,-0.004213000000000001,0.001964,0.001045,-32.75,-22.68,-11.06,2c
2019-07-15_144643:900,-0.45553599999999994,-0.025908999999999998,-0.20233199999999998,-0.004488000000000001,0.001994,0.001045,-32.75,-21.5,-10.25,2c
2019-07-15_144643:920,-0.453003,-0.026917,-0.200317,-0.004213000000000001,0.001842,0.0008619999999999999,-32.75,-21.5,-10.25,2c
2019-07-15_144643:940,-0.452484,-0.025908999999999998,-0.20080599999999998,-0.004,0.0017809999999999998,0.000587,-32.75,-21.5,-10.25,2c
2019-07-15_144643:960,-0.453491,-0.026427999999999997,-0.199799,-0.003573,0.0012619999999999999,0.0007700000000000001,-32.369999,-21.870001000000002,-11.87,2c
2019-07-15_144643:980,-0.453003,-0.026917,-0.196747,-0.003054,0.001353,0.000923,-32.369999,-21.870001000000002,-11.87,2c
2019-07-15_144644:000,-0.453003,-0.026917,-0.199799,-0.002779,0.001628,0.000709,-32.369999,-21.870001000000002,-11.87,2c
2019-07-15_144644:020,-0.453003,-0.025908999999999998,-0.198792,-0.002443,0.001292,0.0007700000000000001,-32.75,-21.870001000000002,-10.68,2c
2019-07-15_144644:040,-0.453491,-0.025908999999999998,-0.19927999999999998,-0.002535,0.001353,0.000526,-32.75,-21.870001000000002,-10.68,2c
2019-07-15_144644:060,-0.455017,-0.024902,-0.201324,-0.002535,0.001292,0.000343,-33.060001,-20.75,-12.25,2c
2019-07-15_144644:080,-0.453491,-0.023895,-0.201843,-0.002321,0.001537,0.000496,-33.060001,-20.75,-12.25,2c
2019-07-15_144644:100,-0.45654300000000003,-0.020844,-0.200317,-0.0029010000000000004,0.001598,0.000343,-33.060001,-20.75,-12.25,2c
2019-07-15_144644:120,-0.45654300000000003,-0.021851,-0.201843,-0.003573,0.001628,0.00196,-33.869999,-22.25,-11.5,2c
2019-07-15_144644:140,-0.45401,-0.023375999999999997,-0.201843,-0.004427,0.0019030000000000002,0.002388,-33.869999,-22.25,-11.5,2c
2019-07-15_144644:160,-0.453003,-0.022858,-0.203369,-0.005343,0.0017809999999999998,0.000648,-33.5,-21.5,-12.25,2c
2019-07-15_144644:180,-0.453003,-0.024902,-0.20080599999999998,-0.005678,0.0010789999999999999,7.000000000000001e-06,-33.5,-21.5,-12.25,2c
2019-07-15_144644:200,-0.454529,-0.025421,-0.201843,-0.006014,0.0010789999999999999,0.000465,-33.5,-21.5,-12.25,2c
2019-07-15_144644:220,-0.455017,-0.026917,-0.203369,-0.005739,0.001201,0.00016,-32.75,-22.25,-10.37,2c
2019-07-15_144644:240,-0.453003,-0.026917,-0.20233199999999998,-0.005282,0.001598,-0.00011499999999999999,-32.75,-22.25,-10.37,2c
2019-07-15_144644:260,-0.451477,-0.025908999999999998,-0.20233199999999998,-0.004824,0.001598,0.000587,-33.060001,-21.5,-11.87,2c
2019-07-15_144644:280,-0.452484,-0.025421,-0.200317,-0.004549,0.0016589999999999999,0.000984,-33.060001,-21.5,-11.87,2c
2019-07-15_144644:300,-0.44891400000000004,-0.026917,-0.199799,-0.004427,0.001353,0.001228,-33.060001,-21.5,-11.87,2c
2019-07-15_144644:320,-0.44995100000000005,-0.025421,-0.20233199999999998,-0.004336,0.000621,0.000831,-33.869999,-21.870001000000002,-11.5,2c
2019-07-15_144644:340,-0.45605500000000004,-0.025421,-0.20385699999999998,-0.004397,0.000285,0.00028199999999999997,-33.869999,-21.870001000000002,-11.5,2c
2019-07-15_144644:360,-0.454529,-0.024902,-0.204376,-0.004336,0.00056,-5.4000000000000005e-05,-32.75,-21.870001000000002,-11.87,2c
2019-07-15_144644:380,-0.45706199999999997,-0.025908999999999998,-0.20385699999999998,-0.004213000000000001,0.0008039999999999999,-0.00023700000000000001,-32.75,-21.870001000000002,-11.87,2c
2019-07-15_144644:400,-0.454529,-0.026427999999999997,-0.20385699999999998,-0.004,0.001292,-0.00045099999999999996,-32.75,-21.870001000000002,-11.87,2c
2019-07-15_144644:420,-0.455017,-0.026917,-0.20285,-0.003817,0.00114,-5.4000000000000005e-05,-32.75,-21.5,-12.25,2c
2019-07-15_144644:440,-0.453003,-0.026427999999999997,-0.20233199999999998,-0.0036340000000000005,0.001628,-0.000176,-32.75,-21.5,-12.25,2c
2019-07-15_144644:460,-0.45401,-0.023895,-0.201843,-0.00339,0.0014759999999999999,-0.000573,-33.869999,-22.25,-12.25,2c
2019-07-15_144644:480,-0.455017,-0.022369,-0.20285,-0.0032979999999999997,0.001415,0.00016,-33.869999,-22.25,-12.25,2c
2019-07-15_144644:500,-0.455017,-0.021851,-0.20285,-0.003664,0.001415,6.8e-05,-33.869999,-22.25,-12.25,2c
2019-07-15_144644:520,-0.455017,-0.021332,-0.203369,-0.003939,0.001292,6.8e-05,-33.5,-21.870001000000002,-11.06,2c
2019-07-15_144644:540,-0.45605500000000004,-0.022858,-0.20233199999999998,-0.004397,0.0016589999999999999,6.8e-05,-33.5,-21.870001000000002,-11.06,2c
2019-07-15_144644:560,-0.454529,-0.022858,-0.20233199999999998,-0.004732,0.002055,-0.000328,-33.060001,-21.18,-11.5,2c
2019-07-15_144644:580,-0.453003,-0.023375999999999997,-0.201324,-0.004671,0.002116,-0.000328,-33.060001,-21.18,-11.5,2c
2019-07-15_144644:600,-0.45196499999999995,-0.022858,-0.201324,-0.00461,0.002239,-0.00045099999999999996,-33.060001,-21.18,-11.5,2c
2019-07-15_144644:620,-0.451477,-0.024384,-0.201324,-0.004488000000000001,0.0017809999999999998,-5.4000000000000005e-05,-32.75,-21.18,-10.68,2c
2019-07-15_144644:640,-0.454529,-0.022369,-0.201324,-0.004427,0.00172,-0.000267,-32.75,-21.18,-10.68,2c
2019-07-15_144644:660,-0.453003,-0.021851,-0.20233199999999998,-0.004427,0.001598,-5.4000000000000005e-05,-32.75,-21.870001000000002,-11.5,2c
2019-07-15_144644:680,-0.452484,-0.022858,-0.20080599999999998,-0.004549,0.001415,0.000343,-32.75,-21.870001000000002,-11.5,2c
2019-07-15_144644:700,-0.453003,-0.022369,-0.20233199999999998,-0.004427,0.0010789999999999999,0.000465,-32.75,-21.870001000000002,-11.5,2c
2019-07-15_144644:720,-0.453491,-0.021851,-0.20285,-0.00461,0.001018,0.000465,-34.25,-21.18,-11.5,2c
2019-07-15_144644:740,-0.45401,-0.021851,-0.20233199999999998,-0.004793,0.001201,0.000648,-34.25,-21.18,-11.5,2c
2019-07-15_144644:760,-0.453003,-0.022858,-0.203369,-0.005129,0.0012619999999999999,0.0008619999999999999,-32.75,-21.870001000000002,-11.5,2c
2019-07-15_144644:780,-0.453003,-0.022858,-0.203369,-0.004946,0.00114,0.000831,-32.75,-21.870001000000002,-11.5,2c
2019-07-15_144644:800,-0.45401,-0.024384,-0.20385699999999998,-0.005068,0.0008960000000000001,0.000587,-32.75,-21.870001000000002,-11.5,2c
2019-07-15_144644:820,-0.453003,-0.023375999999999997,-0.204376,-0.005007,0.000743,0.000526,-32.75,-21.18,-10.68,2c
2019-07-15_144644:840,-0.45401,-0.022858,-0.20486500000000002,-0.005007,0.000865,0.000465,-32.75,-21.18,-10.68,2c
2019-07-15_144644:860,-0.453003,-0.022369,-0.20385699999999998,-0.004793,0.0010789999999999999,0.000496,-33.060001,-21.870001000000002,-10.37,2c
2019-07-15_144644:880,-0.453491,-0.022858,-0.20233199999999998,-0.005007,0.0010789999999999999,0.000496,-33.060001,-21.870001000000002,-10.37,2c
2019-07-15_144644:900,-0.453003,-0.023895,-0.20486500000000002,-0.004732,0.001292,0.000526,-33.060001,-21.870001000000002,-10.37,2c
2019-07-15_144644:920,-0.45553599999999994,-0.023375999999999997,-0.20285,-0.004427,0.00114,0.000526,-33.060001,-21.5,-12.25,2c
2019-07-15_144644:940,-0.453491,-0.020844,-0.200317,-0.004152,0.001353,0.000343,-33.060001,-21.5,-12.25,2c
2019-07-15_144644:960,-0.451477,-0.022369,-0.20486500000000002,-0.004397,0.001018,0.00132,-32.75,-21.5,-10.68,2c
2019-07-15_144644:980,-0.45043900000000003,-0.023895,-0.20486500000000002,-0.004549,0.0008039999999999999,0.001228,-32.75,-21.5,-10.68,2c
2019-07-15_144645:000,-0.45706199999999997,-0.022369,-0.20385699999999998,-0.004488000000000001,0.000468,-0.000634,-32.75,-21.5,-10.68,2c
2019-07-15_144645:020,-0.457581,-0.020325,-0.203369,-0.004091,0.000621,-0.001519,-33.869999,-21.870001000000002,-11.5,2c
2019-07-15_144645:040,-0.455017,-0.018799,-0.203369,-0.004091,0.0017809999999999998,-0.001366,-33.869999,-21.870001000000002,-11.5,2c
2019-07-15_144645:060,-0.457581,-0.016266,-0.20285,-0.004397,0.0023,-0.00158,-32.369999,-21.870001000000002,-11.06,2c
2019-07-15_144645:080,-0.455017,-0.016266,-0.198792,-0.00461,0.002635,-0.00158,-32.369999,-21.870001000000002,-11.06,2c
2019-07-15_144645:100,-0.453003,-0.015747,-0.19927999999999998,-0.005129,0.002971,-0.0010609999999999999,-32.369999,-21.870001000000002,-11.06,2c
2019-07-15_144645:120,-0.44891400000000004,-0.017273,-0.200317,-0.005068,0.002635,-0.0010609999999999999,-33.060001,-22.25,-10.68,2c
2019-07-15_144645:140,-0.447388,-0.017792,-0.19927999999999998,-0.004824,0.001842,-0.0009689999999999999,-33.060001,-22.25,-10.68,2c
2019-07-15_144645:160,-0.453003,-0.018799,-0.203369,-0.00461,0.001353,-0.001,-32.75,-21.5,-11.06,2c
2019-07-15_144645:180,-0.453491,-0.017273,-0.20285,-0.004213000000000001,0.000865,-0.000725,-32.75,-21.5,-11.06,2c
2019-07-15_144645:200,-0.453003,-0.017792,-0.208954,-0.003817,0.000682,0.00028199999999999997,-32.75,-21.5,-11.06,2c
2019-07-15_144645:220,-0.45706199999999997,-0.016266,-0.209961,-0.0036340000000000005,0.000682,0.001106,-33.869999,-22.68,-10.68,2c
2019-07-15_144645:240,-0.457581,-0.015228,-0.21048000000000003,-0.004,0.001201,0.00196,-33.869999,-22.68,-10.68,2c
2019-07-15_144645:260,-0.459595,-0.015228,-0.21048000000000003,-0.004671,0.0023,0.0026320000000000002,-32.0,-22.25,-11.5,2c
2019-07-15_144645:280,-0.45654300000000003,-0.017273,-0.205902,-0.005556,0.003093,0.002754,-32.0,-22.25,-11.5,2c
2019-07-15_144645:300,-0.45401,-0.019318000000000002,-0.208954,-0.006136,0.00349,0.003181,-32.0,-22.25,-11.5,2c
2019-07-15_144645:320,-0.452484,-0.024902,-0.20538299999999998,-0.006014,0.003368,0.002784,-32.369999,-21.18,-10.68,2c
2019-07-15_144645:340,-0.45401,-0.024902,-0.203369,-0.005678,0.00352,0.001716,-32.369999,-21.18,-10.68,2c
2019-07-15_144645:360,-0.45605500000000004,-0.026917,-0.200317,-0.005007,0.004039,0.0008619999999999999,-32.0,-22.68,-10.37,2c
2019-07-15_144645:380,-0.45706199999999997,-0.023375999999999997,-0.19775399999999999,-0.004427,0.004497,0.00016,-32.0,-22.68,-10.37,2c
2019-07-15_144645:400,-0.453003,-0.023895,-0.19927999999999998,-0.003817,0.004771,0.000129,-32.0,-22.68,-10.37,2c
2019-07-15_144645:420,-0.45095799999999997,-0.022369,-0.19927999999999998,-0.0031149999999999997,0.004497,-0.00011499999999999999,-33.060001,-21.870001000000002,-11.06,2c
2019-07-15_144645:440,-0.45095799999999997,-0.021851,-0.19927999999999998,-0.0025960000000000002,0.003368,-0.000176,-33.060001,-21.870001000000002,-11.06,2c
2019-07-15_144645:460,-0.45095799999999997,-0.021851,-0.20080599999999998,-0.0021079999999999996,0.002849,-0.000176,-33.060001,-22.25,-10.68,2c
2019-07-15_144645:480,-0.453003,-0.020844,-0.19927999999999998,-0.0015279999999999998,0.002635,-5.4000000000000005e-05,-33.060001,-22.25,-10.68,2c
2019-07-15_144645:500,-0.45401,-0.018799,-0.201843,-0.001375,0.002391,0.000221,-33.060001,-22.25,-10.68,2c
2019-07-15_144645:520,-0.453491,-0.017792,-0.19927999999999998,-0.0015279999999999998,0.002574,0.000984,-32.369999,-22.25,-11.06,2c
2019-07-15_144645:540,-0.455017,-0.01828,-0.198792,-0.002169,0.002574,0.001625,-32.369999,-22.25,-11.06,2c
2019-07-15_144645:560,-0.453003,-0.018799,-0.19927999999999998,-0.003054,0.002513,0.0021739999999999997,-33.060001,-22.25,-11.06,2c
2019-07-15_144645:580,-0.453491,-0.01828,-0.198273,-0.004275,0.002055,0.002449,-33.060001,-22.25,-11.06,2c
2019-07-15_144645:600,-0.452484,-0.020844,-0.19775399999999999,-0.005221,0.0016589999999999999,0.002357,-33.060001,-22.25,-11.06,2c
2019-07-15_144645:620,-0.45401,-0.022858,-0.200317,-0.005678,0.001292,0.001777,-33.5,-23.0,-11.87,2c
2019-07-15_144645:640,-0.45553599999999994,-0.023895,-0.199799,-0.005953,0.001018,0.00132,-33.5,-23.0,-11.87,2c
2019-07-15_144645:660,-0.454529,-0.023375999999999997,-0.20080599999999998,-0.005678,0.0012619999999999999,0.000923,-32.0,-23.0,-9.5,2c
2019-07-15_144645:680,-0.45553599999999994,-0.025421,-0.199799,-0.005282,0.001598,0.000709,-32.0,-23.0,-9.5,2c
2019-07-15_144645:700,-0.45553599999999994,-0.023895,-0.200317,-0.004824,0.001537,0.000526,-32.0,-23.0,-9.5,2c
2019-07-15_144645:720,-0.455017,-0.022858,-0.198273,-0.004091,0.0017809999999999998,0.000221,-32.0,-21.870001000000002,-11.06,2c
2019-07-15_144645:740,-0.454529,-0.021851,-0.197266,-0.003878,0.002116,-0.000176,-32.0,-21.870001000000002,-11.06,2c
2019-07-15_144645:760,-0.452484,-0.020844,-0.198792,-0.0033280000000000002,0.001842,-0.00011499999999999999,-33.060001,-21.870001000000002,-11.5,2c
2019-07-15_144645:780,-0.45553599999999994,-0.021332,-0.19775399999999999,-0.003237,0.0014759999999999999,-0.0008470000000000001,-33.060001,-21.870001000000002,-11.5,2c
2019-07-15_144645:800,-0.45654300000000003,-0.017792,-0.196747,-0.0032979999999999997,0.00172,0.000526,-33.060001,-21.870001000000002,-11.5,2c
2019-07-15_144645:820,-0.455017,-0.017792,-0.19775399999999999,-0.003573,0.0016589999999999999,0.001625,-33.060001,-22.25,-9.87,2c
2019-07-15_144645:840,-0.45605500000000004,-0.018799,-0.19927999999999998,-0.003817,0.001415,0.000496,-33.060001,-22.25,-9.87,2c
2019-07-15_144645:860,-0.454529,-0.01828,-0.19927999999999998,-0.003878,0.0010789999999999999,-0.000664,-33.869999,-21.5,-11.5,2c
2019-07-15_144645:880,-0.45605500000000004,-0.019318000000000002,-0.19927999999999998,-0.00403,0.001018,-0.000267,-33.869999,-21.5,-11.5,2c
2019-07-15_144645:900,-0.45706199999999997,-0.019806,-0.200317,-0.003939,0.000865,0.000129,-33.869999,-21.5,-11.5,2c
2019-07-15_144645:920,-0.457581,-0.019806,-0.198273,-0.003817,0.001292,-0.00011499999999999999,-33.5,-21.870001000000002,-9.87,2c
2019-07-15_144645:940,-0.45401,-0.020325,-0.19927999999999998,-0.003512,0.001628,7.000000000000001e-06,-33.5,-21.870001000000002,-9.87,2c
2019-07-15_144645:960,-0.45401,-0.020325,-0.198273,-0.0032979999999999997,0.001842,0.0008619999999999999,-33.060001,-21.18,-10.68,2c
2019-07-15_144645:980,-0.45553599999999994,-0.020325,-0.19775399999999999,-0.00339,0.0016589999999999999,0.000831,-33.060001,-21.18,-10.68,2c
2019-07-15_144646:000,-0.45654300000000003,-0.020844,-0.198273,-0.0033280000000000002,0.00172,0.000587,-33.060001,-21.18,-10.68,2c
2019-07-15_144646:020,-0.45706199999999997,-0.020325,-0.19775399999999999,-0.003237,0.00172,0.000496,-33.060001,-22.25,-11.06,2c
2019-07-15_144646:040,-0.455017,-0.020325,-0.198792,-0.0033280000000000002,0.001628,0.000465,-33.060001,-22.25,-11.06,2c
2019-07-15_144646:060,-0.457581,-0.019318000000000002,-0.19775399999999999,-0.0034509999999999996,0.00172,0.000343,-33.869999,-21.870001000000002,-10.68,2c
2019-07-15_144646:080,-0.454529,-0.019806,-0.19775399999999999,-0.003664,0.001964,0.001167,-33.869999,-21.870001000000002,-10.68,2c
2019-07-15_144646:100,-0.454529,-0.020325,-0.19927999999999998,-0.0037560000000000002,0.001842,0.001442,-33.869999,-21.870001000000002,-10.68,2c
2019-07-15_144646:120,-0.455017,-0.020844,-0.199799,-0.003939,0.0019030000000000002,0.000404,-33.060001,-22.25,-10.68,2c
2019-07-15_144646:140,-0.45706199999999997,-0.020325,-0.19775399999999999,-0.004275,0.0019030000000000002,0.000526,-33.060001,-22.25,-10.68,2c
2019-07-15_144646:160,-0.45605500000000004,-0.022858,-0.198273,-0.004397,0.0019030000000000002,0.001228,-33.060001,-21.870001000000002,-11.5,2c
2019-07-15_144646:180,-0.454529,-0.022369,-0.197266,-0.004275,0.001964,0.001045,-33.060001,-21.870001000000002,-11.5,2c
2019-07-15_144646:200,-0.45553599999999994,-0.021851,-0.198273,-0.00403,0.001842,0.000526,-33.060001,-21.870001000000002,-11.5,2c
2019-07-15_144646:220,-0.45806899999999995,-0.021851,-0.19775399999999999,-0.0036950000000000004,0.002116,0.000404,-33.060001,-22.25,-11.06,2c
2019-07-15_144646:240,-0.457581,-0.020844,-0.196747,-0.0036950000000000004,0.0023,0.00028199999999999997,-33.060001,-22.25,-11.06,2c
2019-07-15_144646:260,-0.454529,-0.020325,-0.19622799999999999,-0.003573,0.002574,0.000404,-33.5,-21.870001000000002,-10.37,2c
2019-07-15_144646:280,-0.45401,-0.020844,-0.19574,-0.0033280000000000002,0.002239,0.000404,-33.5,-21.870001000000002,-10.37,2c
2019-07-15_144646:300,-0.455017,-0.020844,-0.197266,-0.00339,0.001842,0.000404,-33.5,-21.870001000000002,-10.37,2c
2019-07-15_144646:320,-0.455017,-0.021332,-0.196747,-0.00339,0.0016589999999999999,0.000526,-33.869999,-21.5,-10.68,2c
2019-07-15_144646:340,-0.455017,-0.021332,-0.197266,-0.0032979999999999997,0.001598,0.0007700000000000001,-33.869999,-21.5,-10.68,2c
2019-07-15_144646:360,-0.454529,-0.020325,-0.19775399999999999,-0.00339,0.001353,0.000923,-33.060001,-21.5,-11.06,2c
2019-07-15_144646:380,-0.45553599999999994,-0.021851,-0.197266,-0.0036340000000000005,0.001201,0.001106,-33.060001,-21.5,-11.06,2c
2019-07-15_144646:400,-0.45553599999999994,-0.020844,-0.19775399999999999,-0.0036340000000000005,0.001018,0.000831,-33.060001,-21.5,-11.06,2c
2019-07-15_144646:420,-0.458588,-0.023375999999999997,-0.197266,-0.0037560000000000002,0.001018,0.000923,-32.369999,-21.5,-10.68,2c
2019-07-15_144646:440,-0.45605500000000004,-0.023375999999999997,-0.197266,-0.003939,0.001537,0.0007700000000000001,-32.369999,-21.5,-10.68,2c
2019-07-15_144646:460,-0.45553599999999994,-0.023895,-0.197266,-0.003939,0.0017809999999999998,0.000496,-32.75,-21.5,-10.68,2c
2019-07-15_144646:480,-0.45605500000000004,-0.023895,-0.19622799999999999,-0.0036950000000000004,0.0017809999999999998,0.000221,-32.75,-21.5,-10.68,2c
2019-07-15_144646:500,-0.45401,-0.023895,-0.197266,-0.0033280000000000002,0.001537,6.8e-05,-32.75,-21.5,-10.68,2c
2019-07-15_144646:520,-0.45553599999999994,-0.021851,-0.197266,-0.0031149999999999997,0.0014759999999999999,7.000000000000001e-06,-32.369999,-21.870001000000002,-11.5,2c
2019-07-15_144646:540,-0.455017,-0.020844,-0.19775399999999999,-0.0029010000000000004,0.001628,-0.000176,-32.369999,-21.870001000000002,-11.5,2c
2019-07-15_144646:560,-0.455017,-0.019318000000000002,-0.198273,-0.0028399999999999996,0.00172,0.000221,-33.5,-21.870001000000002,-10.68,2c
2019-07-15_144646:580,-0.45605500000000004,-0.019318000000000002,-0.196747,-0.002932,0.001628,0.000496,-33.5,-21.870001000000002,-10.68,2c
2019-07-15_144646:600,-0.45654300000000003,-0.019318000000000002,-0.19775399999999999,-0.002993,0.0014759999999999999,0.00016,-33.5,-21.870001000000002,-10.68,2c
2019-07-15_144646:620,-0.45706199999999997,-0.019318000000000002,-0.19622799999999999,-0.003512,0.0017809999999999998,7.000000000000001e-06,-33.5,-21.5,-11.06,2c
2019-07-15_144646:640,-0.460114,-0.020325,-0.197266,-0.0037560000000000002,0.001994,0.001991,-33.5,-21.5,-11.06,2c
2019-07-15_144646:660,-0.452484,-0.022858,-0.19775399999999999,-0.004427,0.002177,0.001381,-33.060001,-22.68,-10.68,2c
2019-07-15_144646:680,-0.453491,-0.021851,-0.196747,-0.004427,0.001415,-0.0008470000000000001,-33.060001,-22.68,-10.68,2c
2019-07-15_144646:700,-0.45553599999999994,-0.021851,-0.198792,-0.004336,0.0009570000000000001,-0.0009689999999999999,-33.060001,-22.68,-10.68,2c
2019-07-15_144646:720,-0.45605500000000004,-0.023375999999999997,-0.19927999999999998,-0.004152,0.000865,-0.000512,-32.75,-21.870001000000002,-11.06,2c
2019-07-15_144646:740,-0.45654300000000003,-0.021851,-0.19927999999999998,-0.004091,0.001201,-0.0008470000000000001,-32.75,-21.870001000000002,-11.06,2c
2019-07-15_144646:760,-0.454529,-0.020325,-0.198792,-0.00339,0.001537,-0.000634,-33.060001,-21.870001000000002,-11.06,2c
2019-07-15_144646:780,-0.455017,-0.019318000000000002,-0.196747,-0.0032979999999999997,0.002055,-0.000634,-33.060001,-21.870001000000002,-11.06,2c
2019-07-15_144646:800,-0.45654300000000003,-0.01828,-0.19775399999999999,-0.0032979999999999997,0.001994,-0.000389,-33.060001,-21.870001000000002,-11.06,2c
2019-07-15_144646:820,-0.45553599999999994,-0.018799,-0.196747,-0.003512,0.001964,-0.00011499999999999999,-33.060001,-22.25,-9.87,2c
2019-07-15_144646:840,-0.455017,-0.019806,-0.19622799999999999,-0.003817,0.001964,0.000129,-33.060001,-22.25,-9.87,2c
2019-07-15_144646:860,-0.453491,-0.019318000000000002,-0.19775399999999999,-0.004,0.0017809999999999998,0.000129,-33.060001,-21.870001000000002,-11.87,2c
2019-07-15_144646:880,-0.453003,-0.019318000000000002,-0.19622799999999999,-0.004,0.001292,0.000404,-33.060001,-21.870001000000002,-11.87,2c
2019-07-15_144646:900,-0.45654300000000003,-0.020325,-0.19775399999999999,-0.003939,0.0009570000000000001,0.000496,-33.060001,-21.870001000000002,-11.87,2c
2019-07-15_144646:920,-0.45553599999999994,-0.019806,-0.197266,-0.003817,0.001292,0.001106,-32.75,-22.68,-11.5,2c
2019-07-15_144646:940,-0.454529,-0.020325,-0.19775399999999999,-0.003573,0.001415,0.001106,-32.75,-22.68,-11.5,2c
2019-07-15_144646:960,-0.457581,-0.020325,-0.198792,-0.0036340000000000005,0.0014759999999999999,0.00028199999999999997,-32.369999,-21.870001000000002,-10.37,2c
2019-07-15_144646:980,-0.45605500000000004,-0.020325,-0.197266,-0.0036340000000000005,0.0014759999999999999,0.000343,-32.369999,-21.870001000000002,-10.37,2c
2019-07-15_144647:000,-0.454529,-0.019318000000000002,-0.197266,-0.0037560000000000002,0.001598,0.000526,-32.369999,-21.870001000000002,-10.37,2c
2019-07-15_144647:020,-0.45654300000000003,-0.021332,-0.19775399999999999,-0.003817,0.0014759999999999999,0.000526,-33.060001,-21.870001000000002,-11.06,2c
2019-07-15_144647:040,-0.45553599999999994,-0.021332,-0.19927999999999998,-0.003939,0.001537,0.000129,-33.060001,-21.870001000000002,-11.06,2c
2019-07-15_144647:060,-0.45706199999999997,-0.020844,-0.19775399999999999,-0.0036950000000000004,0.001415,-0.000328,-32.75,-22.25,-10.68,2c
2019-07-15_144647:080,-0.455017,-0.022369,-0.197266,-0.003573,0.001537,-0.00023700000000000001,-32.75,-22.25,-10.68,2c
2019-07-15_144647:100,-0.45553599999999994,-0.021851,-0.198273,-0.003176,0.001353,-5.4000000000000005e-05,-32.75,-22.25,-10.68,2c
2019-07-15_144647:120,-0.45553599999999994,-0.020844,-0.19927999999999998,-0.0025960000000000002,0.001353,-0.00023700000000000001,-33.060001,-22.68,-11.5,2c
2019-07-15_144647:140,-0.45605500000000004,-0.019318000000000002,-0.19775399999999999,-0.002382,0.001628,-0.000328,-33.060001,-22.68,-11.5,2c
2019-07-15_144647:160,-0.45553599999999994,-0.018799,-0.198273,-0.002199,0.0017809999999999998,-0.00045099999999999996,-32.75,-22.25,-11.5,2c
2019-07-15_144647:180,-0.45553599999999994,-0.016753999999999998,-0.19775399999999999,-0.002321,0.001842,-0.000328,-32.75,-22.25,-11.5,2c
2019-07-15_144647:200,-0.45553599999999994,-0.01828,-0.197266,-0.002443,0.0016589999999999999,-0.00045099999999999996,-32.75,-22.25,-11.5,2c
2019-07-15_144647:220,-0.45605500000000004,-0.017273,-0.197266,-0.0025960000000000002,0.0019030000000000002,-0.000573,-33.060001,-21.870001000000002,-9.87,2c
2019-07-15_144647:240,-0.45654300000000003,-0.016266,-0.196747,-0.002932,0.0016589999999999999,-0.000389,-33.060001,-21.870001000000002,-9.87,2c
2019-07-15_144647:260,-0.454529,-0.016753999999999998,-0.197266,-0.0032979999999999997,0.001353,0.00016,-32.75,-22.68,-11.06,2c
2019-07-15_144647:280,-0.455017,-0.01828,-0.197266,-0.003878,0.0012619999999999999,0.00028199999999999997,-32.75,-22.68,-11.06,2c
2019-07-15_144647:300,-0.45605500000000004,-0.019318000000000002,-0.19775399999999999,-0.003939,0.00114,6.8e-05,-32.75,-22.68,-11.06,2c
2019-07-15_144647:320,-0.457581,-0.019318000000000002,-0.198792,-0.004275,0.0012619999999999999,-0.000176,-32.75,-22.25,-11.06,2c
2019-07-15_144647:340,-0.45806899999999995,-0.019318000000000002,-0.199799,-0.004152,0.001415,-0.00011499999999999999,-32.75,-22.25,-11.06,2c
2019-07-15_144647:360,-0.457581,-0.019806,-0.19927999999999998,-0.004213000000000001,0.0014759999999999999,-0.000176,-33.5,-21.5,-11.06,2c
2019-07-15_144647:380,-0.45553599999999994,-0.019318000000000002,-0.19775399999999999,-0.004,0.001628,-0.00011499999999999999,-33.5,-21.5,-11.06,2c
2019-07-15_144647:400,-0.45605500000000004,-0.019318000000000002,-0.19775399999999999,-0.003664,0.001842,-0.000512,-33.5,-21.5,-11.06,2c
2019-07-15_144647:420,-0.45654300000000003,-0.020325,-0.198792,-0.0033280000000000002,0.002055,-0.000328,-33.060001,-21.18,-10.37,2c
2019-07-15_144647:440,-0.45654300000000003,-0.019318000000000002,-0.197266,-0.0031149999999999997,0.002361,-0.000176,-33.060001,-21.18,-10.37,2c
2019-07-15_144647:460,-0.45553599999999994,-0.018799,-0.19574,-0.002718,0.002239,-0.000664,-33.060001,-22.25,-11.06,2c
2019-07-15_144647:480,-0.455017,-0.017792,-0.195221,-0.002779,0.002361,6.8e-05,-33.060001,-22.25,-11.06,2c
2019-07-15_144647:500,-0.45196499999999995,-0.01828,-0.194702,-0.002718,0.001842,0.00132,-33.060001,-22.25,-11.06,2c
2019-07-15_144647:520,-0.455017,-0.016266,-0.194702,-0.002932,0.001537,0.00016,-33.060001,-22.25,-11.06,2c
2019-07-15_144647:540,-0.45654300000000003,-0.014740000000000001,-0.196747,-0.0031149999999999997,0.0012619999999999999,-0.001458,-33.060001,-22.25,-11.06,2c
2019-07-15_144647:560,-0.45401,-0.016266,-0.198273,-0.0034509999999999996,0.001018,-0.000725,-32.75,-22.25,-9.5,2c
2019-07-15_144647:580,-0.455017,-0.016753999999999998,-0.197266,-0.0036340000000000005,0.0009570000000000001,-0.00011499999999999999,-32.75,-22.25,-9.5,2c
2019-07-15_144647:600,-0.45553599999999994,-0.017792,-0.19927999999999998,-0.0032979999999999997,0.000743,-0.000389,-32.75,-22.25,-9.5,2c
2019-07-15_144647:620,-0.45706199999999997,-0.015228,-0.198792,-0.002718,0.0008039999999999999,-0.000389,-32.75,-22.68,-11.06,2c
2019-07-15_144647:640,-0.45654300000000003,-0.014221000000000001,-0.19927999999999998,-0.002443,0.0012619999999999999,0.000465,-32.75,-22.68,-11.06,2c
2019-07-15_144647:660,-0.45654300000000003,-0.013213999999999998,-0.199799,-0.0028399999999999996,0.001415,0.001258,-33.5,-21.5,-10.37,2c
2019-07-15_144647:680,-0.45553599999999994,-0.012177,-0.19775399999999999,-0.0034509999999999996,0.0016589999999999999,0.001258,-33.5,-21.5,-10.37,2c
2019-07-15_144647:700,-0.45605500000000004,-0.015747,-0.19775399999999999,-0.004,0.001598,0.001045,-33.5,-21.5,-10.37,2c
2019-07-15_144647:720,-0.45401,-0.016266,-0.198273,-0.004549,0.0016589999999999999,0.000709,-33.5,-22.25,-10.68,2c
2019-07-15_144647:740,-0.454529,-0.01828,-0.19775399999999999,-0.004793,0.001415,0.000923,-33.5,-22.25,-10.68,2c
2019-07-15_144647:760,-0.458588,-0.019318000000000002,-0.198792,-0.004824,0.0012619999999999999,0.000831,-32.369999,-22.25,-11.5,2c
2019-07-15_144647:780,-0.45553599999999994,-0.020325,-0.197266,-0.004275,0.001353,0.001106,-32.369999,-22.25,-11.5,2c
2019-07-15_144647:800,-0.454529,-0.020325,-0.198273,-0.003878,0.001628,0.001503,-32.369999,-22.25,-11.5,2c
2019-07-15_144647:820,-0.454529,-0.019318000000000002,-0.201324,-0.0036340000000000005,0.0017809999999999998,0.000709,-33.869999,-22.25,-11.06,2c
2019-07-15_144647:840,-0.45806899999999995,-0.018799,-0.19927999999999998,-0.0033280000000000002,0.0016589999999999999,0.000648,-33.869999,-22.25,-11.06,2c
2019-07-15_144647:860,-0.458588,-0.016753999999999998,-0.198792,-0.003176,0.002055,0.000831,-33.5,-22.25,-11.87,2c
2019-07-15_144647:880,-0.45706199999999997,-0.016266,-0.19622799999999999,-0.003512,0.002391,0.000587,-33.5,-22.25,-11.87,2c
2019-07-15_144647:900,-0.45605500000000004,-0.017273,-0.19622799999999999,-0.003664,0.002696,0.000923,-33.5,-22.25,-11.87,2c
2019-07-15_144647:920,-0.45401,-0.019318000000000002,-0.19622799999999999,-0.003817,0.002391,0.001381,-32.75,-22.25,-11.06,2c
2019-07-15_144647:940,-0.454529,-0.019318000000000002,-0.195221,-0.003878,0.002116,0.001106,-32.75,-22.25,-11.06,2c
2019-07-15_144647:960,-0.45605500000000004,-0.019318000000000002,-0.19574,-0.003573,0.001994,0.0008619999999999999,-33.060001,-22.68,-10.68,2c
2019-07-15_144647:980,-0.455017,-0.018799,-0.194214,-0.0034509999999999996,0.0017809999999999998,0.0007700000000000001,-33.060001,-22.68,-10.68,2c
2019-07-15_144648:000,-0.453491,-0.018799,-0.19622799999999999,-0.003237,0.001842,0.0008619999999999999,-33.060001,-22.68,-10.68,2c
2019-07-15_144648:020,-0.453491,-0.018799,-0.19574,-0.0034509999999999996,0.001628,0.0008619999999999999,-33.060001,-21.5,-11.06,2c
2019-07-15_144648:040,-0.45401,-0.019806,-0.197266,-0.003512,0.00114,0.0008619999999999999,-33.060001,-21.5,-11.06,2c
2019-07-15_144648:060,-0.45605500000000004,-0.019806,-0.197266,-0.0033280000000000002,0.0009570000000000001,0.0008619999999999999,-33.5,-21.870001000000002,-10.68,2c
2019-07-15_144648:080,-0.458588,-0.020325,-0.198792,-0.0032979999999999997,0.000743,0.000709,-33.5,-21.870001000000002,-10.68,2c
2019-07-15_144648:100,-0.45654300000000003,-0.019318000000000002,-0.198273,-0.003054,0.0010789999999999999,0.000496,-33.5,-21.870001000000002,-10.68,2c
2019-07-15_144648:120,-0.45605500000000004,-0.017792,-0.19775399999999999,-0.003054,0.001353,0.000496,-32.75,-21.870001000000002,-10.68,2c
2019-07-15_144648:140,-0.45654300000000003,-0.01828,-0.198792,-0.0031149999999999997,0.001415,0.000465,-32.75,-21.870001000000002,-10.68,2c
2019-07-15_144648:160,-0.457581,-0.01828,-0.19775399999999999,-0.0032979999999999997,0.001598,0.000496,-32.75,-21.870001000000002,-11.06,2c
2019-07-15_144648:180,-0.45553599999999994,-0.018799,-0.196747,-0.0034509999999999996,0.0014759999999999999,0.000526,-32.75,-21.870001000000002,-11.06,2c
2019-07-15_144648:200,-0.45654300000000003,-0.020325,-0.19775399999999999,-0.0036340000000000005,0.0016589999999999999,0.000709,-32.75,-21.870001000000002,-11.06,2c
2019-07-15_144648:220,-0.45605500000000004,-0.020325,-0.19775399999999999,-0.003512,0.001842,0.000526,-32.75,-22.68,-10.68,2c
2019-07-15_144648:240,-0.453491,-0.019806,-0.197266,-0.0034509999999999996,0.002055,0.000343,-32.75,-22.68,-10.68,2c
2019-07-15_144648:260,-0.453491,-0.020325,-0.196747,-0.003237,0.001292,6.8e-05,-32.75,-22.25,-10.37,2c
2019-07-15_144648:280,-0.454529,-0.019318000000000002,-0.197266,-0.003237,0.0012619999999999999,-0.00023700000000000001,-32.75,-22.25,-10.37,2c
2019-07-15_144648:300,-0.45806899999999995,-0.019318000000000002,-0.19775399999999999,-0.0031149999999999997,0.0008960000000000001,-0.000389,-32.75,-22.25,-10.37,2c
2019-07-15_144648:320,-0.45553599999999994,-0.019318000000000002,-0.196747,-0.0031149999999999997,0.001018,6.8e-05,-33.5,-21.5,-11.5,2c
2019-07-15_144648:340,-0.457581,-0.019806,-0.198273,-0.002718,0.0010789999999999999,-0.000634,-33.5,-21.5,-11.5,2c
2019-07-15_144648:360,-0.455017,-0.017273,-0.196747,-0.0025960000000000002,0.0014759999999999999,0.000587,-32.75,-22.25,-11.06,2c
2019-07-15_144648:380,-0.45605500000000004,-0.01828,-0.19622799999999999,-0.0028399999999999996,0.001353,0.001777,-32.75,-22.25,-11.06,2c
2019-07-15_144648:400,-0.45806899999999995,-0.018799,-0.197266,-0.002993,0.001292,0.000343,-32.75,-22.25,-11.06,2c
2019-07-15_144648:420,-0.45553599999999994,-0.017792,-0.19775399999999999,-0.0033280000000000002,0.0010789999999999999,-0.0008470000000000001,-33.5,-21.5,-10.68,2c
2019-07-15_144648:440,-0.45553599999999994,-0.017792,-0.19775399999999999,-0.003573,0.0012619999999999999,-5.4000000000000005e-05,-33.5,-21.5,-10.68,2c
2019-07-15_144648:460,-0.45553599999999994,-0.019806,-0.20080599999999998,-0.003664,0.0012619999999999999,-0.000176,-33.060001,-21.870001000000002,-11.06,2c
2019-07-15_144648:480,-0.45706199999999997,-0.019318000000000002,-0.19622799999999999,-0.002993,0.00114,-0.000328,-33.060001,-21.870001000000002,-11.06,2c
2019-07-15_144648:500,-0.455017,-0.019318000000000002,-0.19574,-0.002718,0.001292,7.000000000000001e-06,-33.060001,-21.870001000000002,-11.06,2c
2019-07-15_144648:520,-0.45654300000000003,-0.017792,-0.198273,-0.002718,0.0014759999999999999,0.000709,-32.0,-21.5,-11.06,2c
2019-07-15_144648:540,-0.454529,-0.017273,-0.19775399999999999,-0.002932,0.001628,0.001106,-32.0,-21.5,-11.06,2c
2019-07-15_144648:560,-0.455017,-0.017792,-0.197266,-0.0033280000000000002,0.00172,0.000984,-33.5,-21.870001000000002,-11.87,2c
2019-07-15_144648:580,-0.45553599999999994,-0.017273,-0.19775399999999999,-0.0036950000000000004,0.001598,0.000465,-33.5,-21.870001000000002,-11.87,2c
2019-07-15_144648:600,-0.453491,-0.01828,-0.197266,-0.004275,0.0014759999999999999,0.00016,-33.5,-21.870001000000002,-11.87,2c
2019-07-15_144648:620,-0.455017,-0.020325,-0.197266,-0.004152,0.0009570000000000001,6.8e-05,-32.369999,-21.870001000000002,-10.37,2c
2019-07-15_144648:640,-0.458588,-0.020325,-0.199799,-0.004,0.00114,0.000526,-32.369999,-21.870001000000002,-10.37,2c
2019-07-15_144648:660,-0.45806899999999995,-0.019806,-0.198273,-0.003878,0.001415,0.000984,-32.75,-22.25,-10.68,2c
2019-07-15_144648:680,-0.45553599999999994,-0.020325,-0.19622799999999999,-0.003573,0.001537,0.000709,-32.75,-22.25,-10.68,2c
2019-07-15_144648:700,-0.45654300000000003,-0.018799,-0.198792,-0.0036340000000000005,0.001598,7.000000000000001e-06,-32.75,-22.25,-10.68,2c
2019-07-15_144648:720,-0.45553599999999994,-0.018799,-0.19775399999999999,-0.0036950000000000004,0.0017809999999999998,0.000526,-33.060001,-21.870001000000002,-11.06,2c
2019-07-15_144648:740,-0.45401,-0.019318000000000002,-0.19775399999999999,-0.003878,0.001537,0.000404,-33.060001,-21.870001000000002,-11.06,2c
2019-07-15_144648:760,-0.454529,-0.019318000000000002,-0.19775399999999999,-0.0036950000000000004,0.001598,0.00016,-32.75,-21.870001000000002,-11.5,2c
2019-07-15_144648:780,-0.45553599999999994,-0.019806,-0.19574,-0.003512,0.001292,0.000129,-32.75,-21.870001000000002,-11.5,2c
2019-07-15_144648:800,-0.45654300000000003,-0.020325,-0.19775399999999999,-0.0033280000000000002,0.001353,-5.4000000000000005e-05,-32.75,-21.870001000000002,-11.5,2c
2019-07-15_144648:820,-0.45806899999999995,-0.019806,-0.19775399999999999,-0.002993,0.001598,-0.00023700000000000001,-33.060001,-22.68,-10.37,2c
2019-07-15_144648:840,-0.45654300000000003,-0.01828,-0.19574,-0.0028399999999999996,0.001842,-0.000176,-33.060001,-22.68,-10.37,2c
2019-07-15_144648:860,-0.45401,-0.016266,-0.19775399999999999,-0.002779,0.00172,-5.4000000000000005e-05,-33.060001,-22.25,-11.5,2c
2019-07-15_144648:880,-0.453491,-0.015747,-0.197266,-0.0028399999999999996,0.001628,7.000000000000001e-06,-33.060001,-22.25,-11.5,2c
2019-07-15_144648:900,-0.454529,-0.016266,-0.19775399999999999,-0.002993,0.001353,6.8e-05,-33.060001,-22.25,-11.5,2c
2019-07-15_144648:920,-0.457581,-0.016266,-0.19775399999999999,-0.003237,0.001353,0.00016,-33.060001,-22.25,-9.87,2c
2019-07-15_144648:940,-0.45605500000000004,-0.017273,-0.199799,-0.0033280000000000002,0.001415,0.000496,-33.060001,-22.25,-9.87,2c
2019-07-15_144648:960,-0.45605500000000004,-0.016266,-0.198792,-0.003573,0.001415,0.000709,-32.75,-22.68,-11.5,2c
2019-07-15_144648:980,-0.457581,-0.017273,-0.198273,-0.0036950000000000004,0.001628,0.000648,-32.75,-22.68,-11.5,2c
2019-07-15_144649:000,-0.45605500000000004,-0.017273,-0.198273,-0.003939,0.001598,0.0007700000000000001,-32.75,-22.68,-11.5,2c
2019-07-15_144649:020,-0.45553599999999994,-0.017792,-0.199799,-0.00403,0.001994,0.000648,-33.060001,-21.870001000000002,-11.06,2c
2019-07-15_144649:040,-0.45654300000000003,-0.017792,-0.196747,-0.004091,0.001964,0.000465,-33.060001,-21.870001000000002,-11.06,2c
2019-07-15_144649:060,-0.455017,-0.01828,-0.197266,-0.004,0.001964,0.000526,-33.5,-22.68,-11.06,2c
2019-07-15_144649:080,-0.457581,-0.018799,-0.19775399999999999,-0.003878,0.0017809999999999998,0.000526,-33.5,-22.68,-11.06,2c
2019-07-15_144649:100,-0.45553599999999994,-0.019806,-0.196747,-0.0036950000000000004,0.00172,0.000709,-33.5,-22.68,-11.06,2c
2019-07-15_144649:120,-0.45553599999999994,-0.019318000000000002,-0.19927999999999998,-0.003512,0.001628,0.000831,-32.369999,-21.18,-11.06,2c
2019-07-15_144649:140,-0.45605500000000004,-0.01828,-0.197266,-0.003237,0.001598,0.000526,-32.369999,-21.18,-11.06,2c
2019-07-15_144649:160,-0.45654300000000003,-0.018799,-0.197266,-0.003176,0.001628,0.000465,-32.369999,-23.370001000000002,-11.06,2c
2019-07-15_144649:180,-0.45553599999999994,-0.017273,-0.197266,-0.003054,0.001415,0.000587,-32.369999,-23.370001000000002,-11.06,2c
2019-07-15_144649:200,-0.45553599999999994,-0.01828,-0.19775399999999999,-0.0029010000000000004,0.0014759999999999999,0.000923,-32.369999,-23.370001000000002,-11.06,2c
2019-07-15_144649:220,-0.45553599999999994,-0.019806,-0.196747,-0.0025960000000000002,0.0017809999999999998,0.000343,-32.75,-22.25,-10.68,2c
2019-07-15_144649:240,-0.45605500000000004,-0.016266,-0.194702,-0.0029010000000000004,0.00172,0.001564,-32.75,-22.25,-10.68,2c
2019-07-15_144649:260,-0.457581,-0.016266,-0.19574,-0.003237,0.002116,0.0026320000000000002,-32.75,-21.870001000000002,-10.37,2c
2019-07-15_144649:280,-0.44995100000000005,-0.01828,-0.197266,-0.0033280000000000002,0.00114,0.000923,-32.75,-21.870001000000002,-10.37,2c
2019-07-15_144649:300,-0.453491,-0.018799,-0.197266,-0.004,0.0008039999999999999,0.000221,-32.75,-21.870001000000002,-10.37,2c
2019-07-15_144649:320,-0.45553599999999994,-0.016753999999999998,-0.19927999999999998,-0.00403,0.000499,0.00132,-33.869999,-22.25,-10.68,2c
2019-07-15_144649:340,-0.45654300000000003,-0.019806,-0.19775399999999999,-0.004275,0.0008039999999999999,0.000831,-33.869999,-22.25,-10.68,2c
2019-07-15_144649:360,-0.45654300000000003,-0.019806,-0.200317,-0.004397,0.0010789999999999999,0.000587,-33.060001,-22.25,-11.5,2c
2019-07-15_144649:380,-0.45553599999999994,-0.018799,-0.19927999999999998,-0.00403,0.001628,0.000923,-33.060001,-22.25,-11.5,2c
2019-07-15_144649:400,-0.45605500000000004,-0.019806,-0.198273,-0.00403,0.001628,0.001045,-33.060001,-22.25,-11.5,2c
2019-07-15_144649:420,-0.45401,-0.019318000000000002,-0.199799,-0.004213000000000001,0.001537,0.001442,-32.369999,-21.870001000000002,-11.5,2c
2019-07-15_144649:440,-0.45605500000000004,-0.021332,-0.19775399999999999,-0.004397,0.001628,0.001381,-32.369999,-21.870001000000002,-11.5,2c
2019-07-15_144649:460,-0.45553599999999994,-0.021332,-0.19927999999999998,-0.004213000000000001,0.001628,0.000984,-33.869999,-22.25,-10.68,2c
2019-07-15_144649:480,-0.45605500000000004,-0.020844,-0.19927999999999998,-0.00403,0.001415,0.000709,-33.869999,-22.25,-10.68,2c
2019-07-15_144649:500,-0.45654300000000003,-0.020844,-0.199799,-0.00403,0.0017809999999999998,0.000526,-33.869999,-22.25,-10.68,2c
2019-07-15_144649:520,-0.458588,-0.021332,-0.19775399999999999,-0.004091,0.001994,0.001167,-32.369999,-22.25,-11.5,2c
2019-07-15_144649:540,-0.454529,-0.019806,-0.197266,-0.004152,0.002177,0.001564,-32.369999,-22.25,-11.5,2c
2019-07-15_144649:560,-0.45401,-0.022369,-0.198273,-0.004488000000000001,0.0023,0.000984,-33.060001,-23.0,-11.5,2c
2019-07-15_144649:580,-0.45553599999999994,-0.022858,-0.19775399999999999,-0.004427,0.001964,0.000496,-33.060001,-23.0,-11.5,2c
2019-07-15_144649:600,-0.454529,-0.021851,-0.197266,-0.004213000000000001,0.001964,0.000831,-33.060001,-23.0,-11.5,2c
2019-07-15_144649:620,-0.45553599999999994,-0.022369,-0.19927999999999998,-0.004091,0.001628,0.000831,-33.060001,-22.25,-11.06,2c
2019-07-15_144649:640,-0.455017,-0.021851,-0.19574,-0.003664,0.00172,0.000404,-33.060001,-22.25,-11.06,2c
2019-07-15_144649:660,-0.45553599999999994,-0.020325,-0.19775399999999999,-0.003664,0.0019030000000000002,0.000496,-32.369999,-22.25,-11.06,2c
2019-07-15_144649:680,-0.454529,-0.020844,-0.197266,-0.0036950000000000004,0.001598,0.000648,-32.369999,-22.25,-11.06,2c
2019-07-15_144649:700,-0.45553599999999994,-0.020325,-0.197266,-0.003878,0.001415,0.000831,-32.369999,-22.25,-11.06,2c
2019-07-15_144649:720,-0.45553599999999994,-0.020844,-0.198792,-0.003817,0.001353,0.000526,-33.060001,-21.870001000000002,-10.37,2c
2019-07-15_144649:740,-0.45401,-0.020844,-0.197266,-0.0036950000000000004,0.001292,0.000343,-33.060001,-21.870001000000002,-10.37,2c
2019-07-15_144649:760,-0.45605500000000004,-0.021851,-0.198273,-0.003573,0.0014759999999999999,0.000129,-33.5,-21.5,-10.37,2c
2019-07-15_144649:780,-0.45706199999999997,-0.019318000000000002,-0.19775399999999999,-0.00339,0.001628,0.000129,-33.5,-21.5,-10.37,2c
2019-07-15_144649:800,-0.45605500000000004,-0.018799,-0.198273,-0.003573,0.0019030000000000002,0.000343,-33.5,-21.5,-10.37,2c
2019-07-15_144649:820,-0.45553599999999994,-0.019318000000000002,-0.198792,-0.0037560000000000002,0.00172,0.000526,-32.75,-22.25,-10.37,2c
2019-07-15_144649:840,-0.45553599999999994,-0.019806,-0.197266,-0.004,0.0017809999999999998,0.000526,-32.75,-22.25,-10.37,2c
2019-07-15_144649:860,-0.455017,-0.019806,-0.19775399999999999,-0.004336,0.0016589999999999999,0.000496,-32.75,-21.870001000000002,-11.06,2c
2019-07-15_144649:880,-0.454529,-0.020325,-0.198792,-0.004152,0.001628,0.00016,-32.75,-21.870001000000002,-11.06,2c
2019-07-15_144649:900,-0.454529,-0.022369,-0.19775399999999999,-0.003939,0.0012619999999999999,6.8e-05,-32.75,-21.870001000000002,-11.06,2c
2019-07-15_144649:920,-0.45553599999999994,-0.022858,-0.198792,-0.003573,0.001292,-5.4000000000000005e-05,-32.369999,-22.25,-10.68,2c
2019-07-15_144649:940,-0.45605500000000004,-0.020844,-0.197266,-0.003054,0.0012619999999999999,-0.000176,-32.369999,-22.25,-10.68,2c
2019-07-15_144649:960,-0.457581,-0.020325,-0.198273,-0.0029010000000000004,0.0017809999999999998,-0.00023700000000000001,-32.369999,-23.0,-11.87,2c
2019-07-15_144649:980,-0.457581,-0.019318000000000002,-0.198273,-0.002932,0.0023,-0.00023700000000000001,-32.369999,-23.0,-11.87,2c
2019-07-15_144650:000,-0.45706199999999997,-0.01828,-0.198273,-0.002993,0.002116,-0.000267,-32.369999,-23.0,-11.87,2c
2019-07-15_144650:020,-0.454529,-0.018799,-0.198273,-0.003176,0.002177,-0.000328,-33.5,-21.870001000000002,-10.37,2c
2019-07-15_144650:040,-0.454529,-0.017792,-0.196747,-0.003176,0.001964,-0.000328,-33.5,-21.870001000000002,-10.37,2c
2019-07-15_144650:060,-0.45553599999999994,-0.01828,-0.19574,-0.003054,0.001842,7.000000000000001e-06,-32.75,-21.5,-10.37,2c
2019-07-15_144650:080,-0.45706199999999997,-0.01828,-0.19775399999999999,-0.002932,0.001964,-5.4000000000000005e-05,-32.75,-21.5,-10.37,2c
2019-07-15_144650:100,-0.45706199999999997,-0.017792,-0.196747,-0.003054,0.002361,0.000496,-32.75,-21.5,-10.37,2c
2019-07-15_144650:120,-0.45605500000000004,-0.017273,-0.198273,-0.0034509999999999996,0.002177,0.0022960000000000003,-32.0,-22.25,-11.87,2c
2019-07-15_144650:140,-0.45553599999999994,-0.019318000000000002,-0.194702,-0.003573,0.001964,0.001503,-32.0,-22.25,-11.87,2c
2019-07-15_144650:160,-0.454529,-0.019318000000000002,-0.196747,-0.003939,0.0017809999999999998,-0.000573,-32.75,-22.68,-11.06,2c
2019-07-15_144650:180,-0.454529,-0.017273,-0.196747,-0.004152,0.001353,-5.4000000000000005e-05,-32.75,-22.68,-11.06,2c
2019-07-15_144650:200,-0.45401,-0.018799,-0.19775399999999999,-0.004152,0.0012619999999999999,0.000404,-32.75,-22.68,-11.06,2c
2019-07-15_144650:220,-0.45553599999999994,-0.021851,-0.198792,-0.00403,0.0010789999999999999,0.00028199999999999997,-33.5,-21.18,-10.37,2c
2019-07-15_144650:240,-0.45706199999999997,-0.019806,-0.19775399999999999,-0.0031149999999999997,0.001201,0.00016,-33.5,-21.18,-10.37,2c
2019-07-15_144650:260,-0.45654300000000003,-0.020325,-0.198273,-0.0029010000000000004,0.001598,0.000648,-33.5,-22.25,-10.68,2c
2019-07-15_144650:280,-0.454529,-0.018799,-0.196747,-0.0029010000000000004,0.001537,0.001106,-33.5,-22.25,-10.68,2c
2019-07-15_144650:300,-0.45401,-0.018799,-0.19574,-0.003054,0.0012619999999999999,0.001106,-33.5,-22.25,-10.68,2c
2019-07-15_144650:320,-0.45553599999999994,-0.019318000000000002,-0.196747,-0.003512,0.001415,0.000709,-33.5,-22.25,-11.5,2c
2019-07-15_144650:340,-0.453003,-0.020844,-0.19574,-0.00339,0.001018,0.000709,-33.5,-22.25,-11.5,2c
2019-07-15_144650:360,-0.454529,-0.021332,-0.197266,-0.0034509999999999996,0.000865,0.000587,-33.060001,-23.0,-9.87,2c
2019-07-15_144650:380,-0.454529,-0.022858,-0.197266,-0.0032979999999999997,0.00022400000000000002,0.000587,-33.060001,-23.0,-9.87,2c
2019-07-15_144650:400,-0.45654300000000003,-0.023375999999999997,-0.19775399999999999,-0.002993,0.000468,0.001045,-33.060001,-23.0,-9.87,2c
2019-07-15_144650:420,-0.45907600000000004,-0.022858,-0.198792,-0.002779,0.000621,0.001228,-32.75,-22.25,-11.06,2c
2019-07-15_144650:440,-0.45401,-0.021332,-0.198273,-0.0025960000000000002,0.001201,7.000000000000001e-06,-32.75,-22.25,-11.06,2c
2019-07-15_144650:460,-0.457581,-0.019806,-0.200317,-0.002443,0.0012619999999999999,-0.000267,-33.060001,-22.25,-11.06,2c
2019-07-15_144650:480,-0.45706199999999997,-0.020325,-0.19927999999999998,-0.002932,0.001353,0.000465,-33.060001,-22.25,-11.06,2c
2019-07-15_144650:500,-0.45553599999999994,-0.018799,-0.198273,-0.0032979999999999997,0.0016589999999999999,-5.4000000000000005e-05,-33.060001,-22.25,-11.06,2c
2019-07-15_144650:520,-0.45706199999999997,-0.019806,-0.198273,-0.00339,0.001598,-5.4000000000000005e-05,-33.869999,-21.870001000000002,-11.06,2c
2019-07-15_144650:540,-0.45553599999999994,-0.020844,-0.197266,-0.003573,0.0016589999999999999,-0.00023700000000000001,-33.869999,-21.870001000000002,-11.06,2c
2019-07-15_144650:560,-0.45605500000000004,-0.019806,-0.196747,-0.0033280000000000002,0.0019030000000000002,-0.00023700000000000001,-32.369999,-21.5,-11.5,2c
2019-07-15_144650:580,-0.454529,-0.019806,-0.195221,-0.003237,0.00172,-0.000267,-32.369999,-21.5,-11.5,2c
2019-07-15_144650:600,-0.45553599999999994,-0.019806,-0.196747,-0.003237,0.001842,-0.000176,-32.369999,-21.5,-11.5,2c
2019-07-15_144650:620,-0.453003,-0.020325,-0.19622799999999999,-0.002993,0.001628,-0.00023700000000000001,-32.75,-22.68,-11.5,2c
2019-07-15_144650:640,-0.454529,-0.019806,-0.194702,-0.0028399999999999996,0.001201,-0.00011499999999999999,-32.75,-22.68,-11.5,2c
2019-07-15_144650:660,-0.45706199999999997,-0.018799,-0.197266,-0.0029010000000000004,0.00114,0.000129,-33.060001,-21.870001000000002,-11.5,2c
2019-07-15_144650:680,-0.45654300000000003,-0.018799,-0.19775399999999999,-0.0028399999999999996,0.001353,0.000343,-33.060001,-21.870001000000002,-11.5,2c
2019-07-15_144650:700,-0.45605500000000004,-0.018799,-0.196747,-0.003054,0.0012619999999999999,0.00016,-33.060001,-21.870001000000002,-11.5,2c
2019-07-15_144650:720,-0.45706199999999997,-0.018799,-0.19775399999999999,-0.00339,0.001598,0.000129,-33.060001,-21.870001000000002,-11.5,2c
2019-07-15_144650:740,-0.454529,-0.018799,-0.19622799999999999,-0.003573,0.001537,0.00028199999999999997,-33.060001,-21.870001000000002,-11.5,2c
2019-07-15_144650:760,-0.454529,-0.019806,-0.197266,-0.003573,0.001415,0.00016,-33.060001,-21.870001000000002,-11.5,2c
2019-07-15_144650:780,-0.45605500000000004,-0.020325,-0.196747,-0.003878,0.001292,0.000343,-32.0,-21.870001000000002,-10.68,2c
2019-07-15_144650:800,-0.45553599999999994,-0.020844,-0.19775399999999999,-0.003878,0.0014759999999999999,0.00028199999999999997,-32.0,-21.870001000000002,-10.68,2c
2019-07-15_144650:820,-0.455017,-0.019806,-0.197266,-0.0036950000000000004,0.001598,0.00028199999999999997,-32.369999,-22.25,-11.5,2c
2019-07-15_144650:840,-0.455017,-0.019318000000000002,-0.19775399999999999,-0.0036950000000000004,0.0012619999999999999,0.000404,-32.369999,-22.25,-11.5,2c
2019-07-15_144650:860,-0.45553599999999994,-0.019318000000000002,-0.19775399999999999,-0.0037560000000000002,0.001018,0.000404,-32.75,-22.68,-11.87,2c
2019-07-15_144650:880,-0.45654300000000003,-0.019318000000000002,-0.19775399999999999,-0.003878,0.001018,0.000465,-32.75,-22.68,-11.87,2c
2019-07-15_144650:900,-0.45654300000000003,-0.018799,-0.19775399999999999,-0.0037560000000000002,0.001018,0.00028199999999999997,-32.75,-22.68,-11.87,2c
2019-07-15_144650:920,-0.455017,-0.019318000000000002,-0.198792,-0.0037560000000000002,0.0014759999999999999,0.000129,-32.369999,-22.25,-10.68,2c
2019-07-15_144650:940,-0.45553599999999994,-0.019806,-0.198792,-0.003573,0.001628,0.00016,-32.369999,-22.25,-10.68,2c
2019-07-15_144650:960,-0.454529,-0.019806,-0.198792,-0.003237,0.001353,0.000404,-32.369999,-22.25,-10.68,2c
2019-07-15_144650:980,-0.455017,-0.019806,-0.197266,-0.002993,0.001292,-5.4000000000000005e-05,-33.869999,-22.25,-10.68,2c
2019-07-15_144651:000,-0.45654300000000003,-0.01828,-0.199799,-0.0031149999999999997,0.0012619999999999999,0.0008619999999999999,-33.869999,-22.25,-10.68,2c
2019-07-15_144651:020,-0.452484,-0.018799,-0.198792,-0.00339,0.0010789999999999999,0.0022960000000000003,-32.75,-22.68,-11.06,2c
2019-07-15_144651:040,-0.453003,-0.019318000000000002,-0.19775399999999999,-0.0037560000000000002,0.0008960000000000001,0.000648,-32.75,-22.68,-11.06,2c
2019-07-15_144651:060,-0.455017,-0.019318000000000002,-0.201324,-0.004213000000000001,0.000865,-0.00045099999999999996,-32.75,-22.68,-11.06,2c
2019-07-15_144651:080,-0.458588,-0.021332,-0.20486500000000002,-0.004397,0.000621,0.000129,-32.75,-23.0,-10.37,2c
2019-07-15_144651:100,-0.454529,-0.019806,-0.198792,-0.004671,0.001415,-5.4000000000000005e-05,-32.75,-23.0,-10.37,2c
2019-07-15_144651:120,-0.45401,-0.021851,-0.192169,-0.003817,0.001842,-0.000176,-32.369999,-21.870001000000002,-10.68,2c
2019-07-15_144651:140,-0.457581,-0.020325,-0.195221,-0.0029010000000000004,0.001415,6.8e-05,-32.369999,-21.870001000000002,-10.68,2c
2019-07-15_144651:160,-0.457581,-0.017792,-0.201324,-0.0025960000000000002,0.00172,0.000343,-32.369999,-21.870001000000002,-10.68,2c
2019-07-15_144651:180,-0.45553599999999994,-0.016753999999999998,-0.201843,-0.002657,0.001842,0.001106,-33.060001,-22.68,-10.25,2c
2019-07-15_144651:200,-0.454529,-0.018799,-0.199799,-0.002993,0.002055,0.001258,-33.060001,-22.68,-10.25,2c
2019-07-15_144651:220,-0.454529,-0.017792,-0.200317,-0.003573,0.002116,0.000984,-33.060001,-22.68,-10.37,2c
2019-07-15_144651:240,-0.45401,-0.019806,-0.199799,-0.003939,0.001842,0.0008619999999999999,-33.060001,-22.68,-10.37,2c
2019-07-15_144651:260,-0.455017,-0.020325,-0.200317,-0.004,0.001964,0.0007700000000000001,-33.060001,-22.68,-10.37,2c
2019-07-15_144651:280,-0.45605500000000004,-0.020844,-0.198273,-0.003878,0.0019030000000000002,0.000923,-32.75,-22.68,-11.5,2c
2019-07-15_144651:300,-0.455017,-0.022369,-0.197266,-0.003878,0.001994,0.001716,-32.75,-22.68,-11.5,2c
2019-07-15_144651:320,-0.453003,-0.024902,-0.199799,-0.0036340000000000005,0.002239,0.001381,-33.5,-21.18,-11.5,2c
2019-07-15_144651:340,-0.454529,-0.023895,-0.19775399999999999,-0.003176,0.001842,0.000526,-33.5,-21.18,-11.5,2c
2019-07-15_144651:360,-0.45654300000000003,-0.023375999999999997,-0.198792,-0.002657,0.001415,0.0007700000000000001,-33.5,-21.18,-11.5,2c
2019-07-15_144651:380,-0.45553599999999994,-0.021851,-0.199799,-0.002169,0.0017809999999999998,0.000587,-32.369999,-21.870001000000002,-10.68,2c
2019-07-15_144651:400,-0.45553599999999994,-0.020844,-0.200317,-0.001925,0.0016589999999999999,0.000587,-32.369999,-21.870001000000002,-10.68,2c
2019-07-15_144651:420,-0.45553599999999994,-0.021332,-0.199799,-0.001864,0.00172,0.000526,-33.5,-22.25,-9.87,2c
2019-07-15_144651:440,-0.45654300000000003,-0.019318000000000002,-0.198792,-0.001986,0.0019030000000000002,-0.00011499999999999999,-33.5,-22.25,-9.87,2c
2019-07-15_144651:460,-0.45654300000000003,-0.019318000000000002,-0.198792,-0.0020469999999999998,0.001994,-0.000176,-33.5,-22.25,-9.87,2c
2019-07-15_144651:480,-0.45654300000000003,-0.01828,-0.19775399999999999,-0.002169,0.002391,-0.00011499999999999999,-32.369999,-21.870001000000002,-10.37,2c
2019-07-15_144651:500,-0.45654300000000003,-0.016753999999999998,-0.197266,-0.0022600000000000003,0.0024519999999999998,0.000129,-32.369999,-21.870001000000002,-10.37,2c
2019-07-15_144651:520,-0.45401,-0.01828,-0.196747,-0.0028399999999999996,0.002177,0.000343,-32.75,-21.870001000000002,-10.37,2c
2019-07-15_144651:540,-0.454529,-0.017792,-0.195221,-0.003237,0.002391,0.0007700000000000001,-32.75,-21.870001000000002,-10.37,2c
2019-07-15_144651:560,-0.455017,-0.019806,-0.19622799999999999,-0.003573,0.0019030000000000002,0.001228,-32.75,-21.870001000000002,-10.37,2c
2019-07-15_144651:580,-0.454529,-0.019318000000000002,-0.196747,-0.0036950000000000004,0.0019030000000000002,0.000923,-32.369999,-22.25,-11.06,2c
2019-07-15_144651:600,-0.454529,-0.021332,-0.197266,-0.003664,0.0014759999999999999,0.0008619999999999999,-32.369999,-22.25,-11.06,2c
2019-07-15_144651:620,-0.457581,-0.020325,-0.19927999999999998,-0.003573,0.001628,0.000831,-33.5,-23.0,-11.87,2c
2019-07-15_144651:640,-0.45706199999999997,-0.021851,-0.196747,-0.0034509999999999996,0.0017809999999999998,0.000709,-33.5,-23.0,-11.87,2c
2019-07-15_144651:660,-0.45605500000000004,-0.020325,-0.19775399999999999,-0.00339,0.001964,0.001045,-33.5,-23.0,-11.87,2c
2019-07-15_144651:680,-0.45654300000000003,-0.022369,-0.19775399999999999,-0.00339,0.002116,0.000984,-33.869999,-22.68,-11.06,2c
2019-07-15_144651:700,-0.45706199999999997,-0.021332,-0.19622799999999999,-0.0034509999999999996,0.002239,0.000587,-33.869999,-22.68,-11.06,2c
2019-07-15_144651:720,-0.45806899999999995,-0.020844,-0.196747,-0.003664,0.0023,0.000343,-32.369999,-21.870001000000002,-11.5,2c
2019-07-15_144651:740,-0.45806899999999995,-0.020844,-0.195221,-0.003878,0.0023,0.00028199999999999997,-32.369999,-21.870001000000002,-11.5,2c
2019-07-15_144651:760,-0.45706199999999997,-0.021332,-0.194214,-0.004,0.0024519999999999998,0.00016,-32.369999,-21.870001000000002,-11.5,2c
2019-07-15_144651:780,-0.457581,-0.020844,-0.195221,-0.004091,0.0023,6.8e-05,-33.060001,-22.25,-11.5,2c
2019-07-15_144651:800,-0.454529,-0.022858,-0.195221,-0.0037560000000000002,0.002361,0.000404,-33.060001,-22.25,-11.5,2c
2019-07-15_144651:820,-0.45654300000000003,-0.024384,-0.19622799999999999,-0.0033280000000000002,0.002116,0.000496,-33.060001,-22.25,-11.5,2c
2019-07-15_144651:840,-0.45706199999999997,-0.025421,-0.194214,-0.002321,0.001994,-0.000389,-33.060001,-22.25,-11.5,2c
2019-07-15_144651:860,-0.454529,-0.021851,-0.191162,-0.0020469999999999998,0.002391,0.000526,-33.060001,-22.25,-11.5,2c
2019-07-15_144651:880,-0.45553599999999994,-0.022858,-0.193695,-0.0015279999999999998,0.002361,0.001991,-32.75,-21.870001000000002,-12.68,2c
2019-07-15_144651:900,-0.45196499999999995,-0.022858,-0.194214,-0.0015890000000000001,0.0019030000000000002,0.0008619999999999999,-32.75,-21.870001000000002,-12.68,2c
2019-07-15_144651:920,-0.45605500000000004,-0.019318000000000002,-0.194702,-0.00165,0.000865,-0.000512,-33.060001,-22.25,-9.5,2c
2019-07-15_144651:940,-0.45907600000000004,-0.019318000000000002,-0.194702,-0.001864,0.00056,0.000526,-33.060001,-22.25,-9.5,2c
2019-07-15_144651:960,-0.462128,-0.019318000000000002,-0.19574,-0.002535,0.0012619999999999999,0.000831,-33.060001,-22.25,-9.5,2c
2019-07-15_144651:980,-0.458588,-0.019318000000000002,-0.19574,-0.003176,0.001994,0.001045,-33.060001,-21.870001000000002,-10.68,2c
2019-07-15_144652:000,-0.455017,-0.019806,-0.194702,-0.0036340000000000005,0.001842,0.001564,-33.060001,-21.870001000000002,-10.68,2c
2019-07-15_144652:020,-0.454529,-0.023375999999999997,-0.19622799999999999,-0.003878,0.0017809999999999998,0.000923,-33.5,-21.870001000000002,-11.06,2c
2019-07-15_144652:040,-0.45706199999999997,-0.024384,-0.194214,-0.0036950000000000004,0.0014759999999999999,0.0008619999999999999,-33.5,-21.870001000000002,-11.06,2c
2019-07-15_144652:060,-0.457581,-0.025421,-0.194214,-0.00339,0.001537,0.001258,-33.5,-21.870001000000002,-11.06,2c
2019-07-15_144652:080,-0.455017,-0.025908999999999998,-0.19574,-0.0031149999999999997,0.001537,0.001106,-32.75,-21.870001000000002,-10.68,2c
2019-07-15_144652:100,-0.453491,-0.024902,-0.196747,-0.002657,0.0014759999999999999,0.001045,-32.75,-21.870001000000002,-10.68,2c
2019-07-15_144652:120,-0.45553599999999994,-0.022369,-0.197266,-0.002535,0.00114,0.001045,-33.5,-21.870001000000002,-11.06,2c
2019-07-15_144652:140,-0.45605500000000004,-0.020844,-0.19775399999999999,-0.0028399999999999996,0.0010789999999999999,0.001564,-33.5,-21.870001000000002,-11.06,2c
