timestamp,AccX,AccY,AccZ,GyroX,GyroY,GyroZ,MagX,MagY,MagZ,Activity
2019-07-15_112608:140,-0.399109,-0.008636,-0.29895,-0.007143000000000001,0.004497,0.000404,-18.559998999999998,-1.5,-15.0,3b
2019-07-15_112608:160,-0.39859,-0.004547,-0.29943800000000004,-0.007143000000000001,0.004894,-0.000512,-18.559998999999998,-1.5,-15.0,3b
2019-07-15_112608:180,-0.396057,-0.005065999999999999,-0.29943800000000004,-0.006807,0.004649,-0.000664,-18.559998999999998,-0.75,-14.5,3b
2019-07-15_112608:200,-0.396545,-0.005065999999999999,-0.295898,-0.006319,0.004375,-0.00011499999999999999,-18.559998999999998,-0.75,-14.5,3b
2019-07-15_112608:220,-0.397583,-0.0030210000000000002,-0.29538000000000003,-0.005922,0.004619,0.000129,-19.370001000000002,-1.25,-14.06,3b
2019-07-15_112608:240,-0.399109,-0.0030210000000000002,-0.293854,-0.005343,0.004771,-0.00011499999999999999,-19.370001000000002,-1.25,-14.06,3b
2019-07-15_112608:260,-0.39502,-0.002014,-0.29486100000000004,-0.005068,0.005046,-0.00023700000000000001,-19.370001000000002,-1.25,-14.06,3b
2019-07-15_112608:280,-0.393494,-0.000488,-0.29284699999999997,-0.004824,0.004894,-0.000267,-19.370001000000002,-2.06,-13.25,3b
2019-07-15_112608:300,-0.393005,0.000488,-0.29180900000000004,-0.005129,0.004314,-0.000176,-19.370001000000002,-2.06,-13.25,3b
2019-07-15_112608:320,-0.397064,0.001007,-0.29284699999999997,-0.005343,0.0036420000000000003,-0.000328,-19.870001000000002,-2.18,-15.0,3b
2019-07-15_112608:340,-0.399109,0.000488,-0.290802,-0.0056170000000000005,0.00349,-0.000664,-19.870001000000002,-2.18,-15.0,3b
2019-07-15_112608:360,-0.39859,0.0,-0.28927600000000003,-0.005861,0.003307,-0.000908,-19.870001000000002,-2.18,-15.0,3b
2019-07-15_112608:380,-0.40063499999999996,-0.000488,-0.28875700000000004,-0.005526,0.003246,-0.000176,-18.68,-2.18,-13.5,3b
2019-07-15_112608:400,-0.397064,-0.001007,-0.28775,-0.005404,0.0029100000000000003,-0.000573,-18.68,-2.18,-13.5,3b
2019-07-15_112608:420,-0.398071,-0.002014,-0.290283,-0.005129,0.002239,-0.0010609999999999999,-18.68,-2.18,-14.25,3b
2019-07-15_112608:440,-0.39502,-0.002014,-0.291321,-0.004427,0.001628,-0.001854,-18.68,-2.18,-14.25,3b
2019-07-15_112608:460,-0.396545,-0.001007,-0.293335,-0.003573,0.0008039999999999999,-0.002037,-18.68,-2.18,-14.25,3b
2019-07-15_112608:480,-0.398071,0.0,-0.293854,-0.002932,0.00056,-0.0017629999999999998,-19.059998999999998,-2.18,-13.75,3b
2019-07-15_112608:500,-0.396545,0.001007,-0.293854,-0.002443,0.000285,-0.001641,-19.059998999999998,-2.18,-13.75,3b
2019-07-15_112608:520,-0.398071,0.0030210000000000002,-0.296387,-0.001925,0.000682,-0.0019149999999999998,-19.5,-2.18,-13.87,3b
2019-07-15_112608:540,-0.397583,0.004059,-0.294373,-0.001986,0.000743,-0.0017629999999999998,-19.5,-2.18,-13.87,3b
2019-07-15_112608:560,-0.39859,0.004059,-0.297913,-0.002169,0.000621,-0.000786,-19.5,-2.18,-13.87,3b
2019-07-15_112608:580,-0.399109,0.001495,-0.29232800000000003,-0.0025960000000000002,0.00056,-0.000634,-19.5,-2.25,-15.06,3b
2019-07-15_112608:600,-0.402161,0.0,-0.29538000000000003,-0.002382,0.000865,-0.000786,-19.5,-2.25,-15.06,3b
2019-07-15_112608:620,-0.40011599999999997,-0.001495,-0.29232800000000003,-0.002199,0.001292,-0.001458,-19.059998999999998,-1.75,-14.25,3b
2019-07-15_112608:640,-0.397064,-0.0035399999999999997,-0.291321,-0.0015890000000000001,0.001353,-0.002037,-19.059998999999998,-1.75,-14.25,3b
2019-07-15_112608:660,-0.395538,-0.0030210000000000002,-0.29180900000000004,-0.000643,0.001292,-0.002251,-19.059998999999998,-1.75,-14.25,3b
2019-07-15_112608:680,-0.393494,-0.001495,-0.28927600000000003,0.000608,0.000621,-0.0019760000000000003,-18.68,-2.56,-14.25,3b
2019-07-15_112608:700,-0.387909,-0.001007,-0.28979499999999997,0.0019210000000000002,-0.000325,-0.002251,-18.68,-2.56,-14.25,3b
2019-07-15_112608:720,-0.390961,0.004547,-0.293335,0.002653,-0.001576,-0.002251,-19.059998999999998,-2.56,-13.87,3b
2019-07-15_112608:740,-0.391479,0.006072999999999999,-0.29180900000000004,0.003385,-0.003163,-0.001519,-19.059998999999998,-2.56,-13.87,3b
2019-07-15_112608:760,-0.398071,0.008636,-0.296387,0.002928,-0.0035600000000000002,-0.0012439999999999999,-19.059998999999998,-2.56,-13.87,3b
2019-07-15_112608:780,-0.40063499999999996,0.011169,-0.29538000000000003,0.002409,-0.003621,-0.00011499999999999999,-19.059998999999998,-2.56,-14.25,3b
2019-07-15_112608:800,-0.401642,0.009125,-0.295898,0.0016460000000000001,-0.002705,0.000221,-19.059998999999998,-2.56,-14.25,3b
2019-07-15_112608:820,-0.401642,0.009125,-0.296387,0.000547,-0.001759,0.000129,-19.059998999999998,-2.56,-13.5,3b
2019-07-15_112608:840,-0.399597,0.008636,-0.295898,-0.000277,-0.0009050000000000001,0.001167,-19.059998999999998,-2.56,-13.5,3b
2019-07-15_112608:860,-0.398071,0.007111,-0.296906,-0.001375,-0.000233,0.001716,-19.059998999999998,-2.56,-13.5,3b
2019-07-15_112608:880,-0.39502,0.006072999999999999,-0.295898,-0.002443,0.000407,0.002052,-18.370001000000002,-2.56,-14.5,3b
2019-07-15_112608:900,-0.389954,0.006592,-0.293335,-0.0036950000000000004,0.000468,0.002113,-18.370001000000002,-2.56,-14.5,3b
2019-07-15_112608:920,-0.388428,0.0035399999999999997,-0.295898,-0.004732,-0.000233,0.002449,-18.68,-3.25,-14.5,3b
2019-07-15_112608:940,-0.386383,0.0035399999999999997,-0.295898,-0.005556,-0.001027,0.002754,-18.68,-3.25,-14.5,3b
2019-07-15_112608:960,-0.386383,0.0,-0.298431,-0.006197,-0.002095,0.003151,-18.68,-3.25,-14.5,3b
2019-07-15_112608:980,-0.389435,-0.001007,-0.29943800000000004,-0.006594,-0.0027660000000000002,0.003181,-18.75,-2.18,-13.75,3b
2019-07-15_112609:000,-0.390961,-0.001495,-0.300476,-0.006991,-0.003285,0.0030280000000000003,-18.75,-2.18,-13.75,3b
2019-07-15_112609:020,-0.391479,-0.001495,-0.304016,-0.007265000000000001,-0.003438,0.002357,-18.370001000000002,-1.5,-15.0,3b
2019-07-15_112609:040,-0.39502,-0.0035399999999999997,-0.305054,-0.007204,-0.003102,0.001991,-18.370001000000002,-1.5,-15.0,3b
2019-07-15_112609:060,-0.392487,-0.0030210000000000002,-0.307068,-0.006807,-0.002095,0.001564,-18.370001000000002,-1.5,-15.0,3b
2019-07-15_112609:080,-0.383331,-0.0035399999999999997,-0.30654899999999996,-0.006411,-0.001698,0.001045,-19.18,-1.75,-14.5,3b
2019-07-15_112609:100,-0.381317,-0.0035399999999999997,-0.306061,-0.005526,-0.0018510000000000002,0.0008619999999999999,-19.18,-1.75,-14.5,3b
2019-07-15_112609:120,-0.387909,-0.0025329999999999997,-0.308594,-0.004671,-0.00237,0.000648,-18.75,-1.75,-14.18,3b
2019-07-15_112609:140,-0.39502,-0.001495,-0.306061,-0.004213000000000001,-0.0024920000000000003,0.000587,-18.75,-1.75,-14.18,3b
2019-07-15_112609:160,-0.393005,-0.0025329999999999997,-0.307587,-0.003878,-0.001576,0.001381,-18.75,-1.75,-14.18,3b
2019-07-15_112609:180,-0.387909,-0.000488,-0.30654899999999996,-0.0037560000000000002,-0.001057,0.001655,-18.059998999999998,-2.56,-15.0,3b
2019-07-15_112609:200,-0.390442,-0.000488,-0.309601,-0.004152,-0.0009050000000000001,0.0022960000000000003,-18.059998999999998,-2.56,-15.0,3b
2019-07-15_112609:220,-0.390442,-0.0025329999999999997,-0.311646,-0.004427,-0.0007830000000000001,0.002784,-18.059998999999998,-2.56,-15.06,3b
2019-07-15_112609:240,-0.390442,0.000488,-0.311127,-0.00461,-0.000661,0.0029059999999999997,-18.059998999999998,-2.56,-15.06,3b
2019-07-15_112609:260,-0.389954,0.0,-0.311646,-0.005282,-5e-05,0.003486,-18.059998999999998,-2.56,-15.06,3b
2019-07-15_112609:280,-0.391479,0.0,-0.311127,-0.006014,0.000407,0.004219,-19.18,-2.56,-13.87,3b
2019-07-15_112609:300,-0.388428,0.0,-0.312164,-0.0064719999999999995,0.000743,0.005104,-19.18,-2.56,-13.87,3b
2019-07-15_112609:320,-0.388428,0.000488,-0.308594,-0.007326000000000001,0.0008960000000000001,0.004951,-18.68,-2.18,-14.5,3b
2019-07-15_112609:340,-0.385376,-0.000488,-0.308594,-0.007723000000000001,0.000682,0.005409000000000001,-18.68,-2.18,-14.5,3b
2019-07-15_112609:360,-0.385864,-0.001007,-0.309601,-0.008578,0.000682,0.0055,-18.68,-2.18,-14.5,3b
2019-07-15_112609:380,-0.393005,-0.0025329999999999997,-0.308594,-0.008669,0.001018,0.0051649999999999995,-18.0,-1.75,-16.059998999999998,3b
2019-07-15_112609:400,-0.388916,-0.004547,-0.307587,-0.008851999999999999,0.001964,0.0037,-18.0,-1.75,-16.059998999999998,3b
2019-07-15_112609:420,-0.392487,-0.0055850000000000006,-0.308075,-0.008394,0.002177,0.0030280000000000003,-18.75,-2.18,-15.68,3b
2019-07-15_112609:440,-0.398071,-0.004059,-0.307587,-0.007540000000000001,0.0035810000000000004,0.0038829999999999997,-18.75,-2.18,-15.68,3b
2019-07-15_112609:460,-0.399597,-0.0025329999999999997,-0.309113,-0.006684999999999999,0.004833,0.004768,-18.75,-2.18,-15.68,3b
2019-07-15_112609:480,-0.392487,-0.0025329999999999997,-0.31012,-0.0058,0.006175,0.004646,-19.559998999999998,-1.75,-14.5,3b
2019-07-15_112609:500,-0.391968,0.0,-0.307587,-0.005221,0.006633,0.0043100000000000005,-19.559998999999998,-1.75,-14.5,3b
2019-07-15_112609:520,-0.387909,0.0,-0.307587,-0.005129,0.006755,0.004951,-18.5,-1.87,-14.5,3b
2019-07-15_112609:540,-0.380798,0.0,-0.30300900000000003,-0.0048850000000000005,0.005779,0.004646,-18.5,-1.87,-14.5,3b
2019-07-15_112609:560,-0.381317,0.0,-0.303528,-0.0048850000000000005,0.004436,0.003578,-18.5,-1.87,-14.5,3b
2019-07-15_112609:580,-0.384857,-0.001495,-0.303528,-0.004732,0.0035810000000000004,0.0029059999999999997,-20.0,-1.87,-14.18,3b
2019-07-15_112609:600,-0.38739,-0.004547,-0.303528,-0.00461,0.003246,0.002113,-20.0,-1.87,-14.18,3b
2019-07-15_112609:620,-0.380798,-0.004547,-0.305542,-0.004275,0.0029100000000000003,0.001655,-19.25,-2.0,-13.75,3b
2019-07-15_112609:640,-0.383331,-0.007599,-0.304535,-0.003878,0.001842,0.00132,-19.25,-2.0,-13.75,3b
2019-07-15_112609:660,-0.37674,-0.011169,-0.307587,-0.0033280000000000002,0.0012619999999999999,-0.00045099999999999996,-19.25,-2.0,-13.75,3b
2019-07-15_112609:680,-0.378754,-0.012177,-0.30654899999999996,-0.002199,-5e-05,-0.0019760000000000003,-19.68,-2.0,-13.75,3b
2019-07-15_112609:700,-0.385376,-0.009644,-0.304016,-0.000734,-0.001118,-0.002495,-19.68,-2.0,-13.75,3b
2019-07-15_112609:720,-0.388428,-0.0055850000000000006,-0.303528,0.000395,-0.001179,-0.002709,-20.059998999999998,-2.06,-14.18,3b
2019-07-15_112609:740,-0.396057,0.0,-0.304016,0.00048600000000000005,-0.001118,-0.002434,-20.059998999999998,-2.06,-14.18,3b
2019-07-15_112609:760,-0.384338,0.001495,-0.305542,-6.3e-05,0.000865,-0.0017629999999999998,-20.059998999999998,-2.06,-14.18,3b
2019-07-15_112609:780,-0.392487,0.0055850000000000006,-0.311646,-0.001314,-0.000661,-0.0010609999999999999,-19.25,-2.5,-14.5,3b
2019-07-15_112609:800,-0.378265,0.0025329999999999997,-0.30654899999999996,-0.002657,-0.001057,-0.000573,-19.25,-2.5,-14.5,3b
2019-07-15_112609:820,-0.383331,0.001495,-0.31012,-0.0036950000000000004,-0.001393,-0.000908,-18.870001000000002,-1.75,-14.5,3b
2019-07-15_112609:840,-0.382324,-0.000488,-0.309601,-0.004336,-0.001912,-0.000664,-18.870001000000002,-1.75,-14.5,3b
2019-07-15_112609:860,-0.38385,0.0,-0.310638,-0.004397,-0.002583,0.00016,-18.870001000000002,-1.75,-14.5,3b
2019-07-15_112609:880,-0.388428,-0.0030210000000000002,-0.311127,-0.004549,-0.003041,0.000526,-19.25,-2.06,-15.0,3b
2019-07-15_112609:900,-0.399597,-0.004547,-0.310638,-0.004488000000000001,-0.001576,0.001045,-19.25,-2.06,-15.0,3b
2019-07-15_112609:920,-0.398071,-0.004059,-0.311127,-0.004275,0.000407,0.001258,-19.25,-2.06,-15.68,3b
2019-07-15_112609:940,-0.394012,-0.004547,-0.311646,-0.004091,0.0019030000000000002,0.000984,-19.25,-2.06,-15.68,3b
2019-07-15_112609:960,-0.393494,-0.007599,-0.308594,-0.003817,0.0029100000000000003,0.000465,-19.25,-2.06,-15.68,3b
2019-07-15_112609:980,-0.392487,-0.010651,-0.308075,-0.003573,0.0034289999999999998,-0.001366,-19.0,-1.75,-15.0,3b
2019-07-15_112610:000,-0.382324,-0.013213999999999998,-0.30654899999999996,-0.003176,0.003124,-0.0035020000000000003,-19.0,-1.75,-15.0,3b
2019-07-15_112610:020,-0.38028,-0.012177,-0.307068,-0.002657,0.001994,-0.00515,-19.75,-1.37,-15.0,3b
2019-07-15_112610:040,-0.38739,-0.011169,-0.30249000000000004,-0.00165,0.0012619999999999999,-0.006706999999999999,-19.75,-1.37,-15.0,3b
2019-07-15_112610:060,-0.389435,-0.011169,-0.303528,-0.000796,0.001292,-0.007683,-19.75,-1.37,-15.0,3b
2019-07-15_112610:080,-0.388916,-0.007111,-0.305542,-2e-06,0.001598,-0.007622,-18.25,-2.06,-14.18,3b
2019-07-15_112610:100,-0.385864,-0.004059,-0.305542,0.000395,0.001292,-0.006829000000000001,-18.25,-2.06,-14.18,3b
2019-07-15_112610:120,-0.381805,0.001495,-0.307068,0.00048600000000000005,0.000499,-0.0054859999999999996,-19.370001000000002,-2.06,-14.18,3b
2019-07-15_112610:140,-0.38028,0.0030210000000000002,-0.305054,0.000395,-0.000172,-0.004235,-19.370001000000002,-2.06,-14.18,3b
2019-07-15_112610:160,-0.379272,0.006592,-0.304016,-0.000246,-0.001118,-0.0029219999999999997,-19.370001000000002,-2.06,-14.18,3b
2019-07-15_112610:180,-0.380798,0.008636,-0.307587,-0.001192,-0.002156,-0.00158,-17.75,-2.06,-13.75,3b
2019-07-15_112610:200,-0.380798,0.008118,-0.309113,-0.0022600000000000003,-0.0033770000000000002,-0.000389,-17.75,-2.06,-13.75,3b
2019-07-15_112610:220,-0.377747,0.0035399999999999997,-0.309113,-0.003054,-0.004567,-0.000389,-17.75,-3.0,-14.5,3b
2019-07-15_112610:240,-0.374695,0.0055850000000000006,-0.31012,-0.003817,-0.005818,0.00028199999999999997,-17.75,-3.0,-14.5,3b
2019-07-15_112610:260,-0.354858,0.0055850000000000006,-0.315704,-0.004671,-0.009724,0.000465,-17.75,-3.0,-14.5,3b
2019-07-15_112610:280,-0.344696,0.004547,-0.319275,-0.00635,-0.014972999999999998,-0.000512,-18.68,-2.18,-15.0,3b
2019-07-15_112610:300,-0.367584,0.004547,-0.311127,-0.006869,-0.018636,-0.001183,-18.68,-2.18,-15.0,3b
2019-07-15_112610:320,-0.382812,-0.002014,-0.31723,-0.007143000000000001,-0.017506,-0.003624,-17.870001000000002,-3.0,-15.5,3b
2019-07-15_112610:340,-0.420441,0.000488,-0.328949,-0.005953,-0.010487,-0.004967,-17.870001000000002,-3.0,-15.5,3b
2019-07-15_112610:360,-0.41333000000000003,0.004059,-0.335022,-0.004671,-0.0034990000000000004,-0.002037,-17.870001000000002,-3.0,-15.5,3b
2019-07-15_112610:380,-0.390442,0.008118,-0.338074,-0.0033280000000000002,0.0010789999999999999,0.000831,-17.559998999999998,-3.06,-15.75,3b
2019-07-15_112610:400,-0.375702,0.009125,-0.331482,-0.003054,0.003124,0.001045,-17.559998999999998,-3.06,-15.75,3b
2019-07-15_112610:420,-0.368591,0.012695,-0.32132,-0.003054,0.003703,0.002052,-18.5,-3.06,-16.68,3b
2019-07-15_112610:440,-0.367584,0.012177,-0.319794,-0.003512,0.002849,0.003822,-18.5,-3.06,-16.68,3b
2019-07-15_112610:460,-0.37674,0.006592,-0.319275,-0.00403,0.0029100000000000003,0.003975,-18.5,-3.06,-16.68,3b
2019-07-15_112610:480,-0.383331,0.005065999999999999,-0.324371,-0.004,0.003368,0.003578,-17.5,-3.5,-15.56,3b
2019-07-15_112610:500,-0.379272,0.0030210000000000002,-0.323853,-0.004427,0.005412,0.0029059999999999997,-17.5,-3.5,-15.56,3b
2019-07-15_112610:520,-0.37265,0.002014,-0.322327,-0.004671,0.005565,0.002693,-17.870001000000002,-3.06,-16.0,3b
2019-07-15_112610:540,-0.372162,0.005065999999999999,-0.325378,-0.005282,0.004954999999999999,0.00251,-17.870001000000002,-3.06,-16.0,3b
2019-07-15_112610:560,-0.379272,0.0035399999999999997,-0.325897,-0.005404,0.005412,0.002388,-17.870001000000002,-3.06,-16.0,3b
2019-07-15_112610:580,-0.377228,0.001007,-0.325897,-0.005404,0.005626,0.00196,-18.68,-3.5,-16.0,3b
2019-07-15_112610:600,-0.376221,0.0025329999999999997,-0.32132,-0.005404,0.005779,0.0022960000000000003,-18.68,-3.5,-16.0,3b
2019-07-15_112610:620,-0.374176,0.0,-0.318756,-0.005343,0.005748,0.002571,-18.68,-3.5,-16.370001000000002,3b
2019-07-15_112610:640,-0.373688,0.0,-0.317749,-0.005404,0.005412,0.002693,-18.68,-3.5,-16.370001000000002,3b
2019-07-15_112610:660,-0.381805,-0.002014,-0.321808,-0.005129,0.004954999999999999,0.002784,-18.68,-3.5,-16.370001000000002,3b
2019-07-15_112610:680,-0.374176,-0.001495,-0.316742,-0.005068,0.005016,0.002571,-19.370001000000002,-3.06,-14.06,3b
2019-07-15_112610:700,-0.374176,-0.000488,-0.309601,-0.005343,0.003703,0.002052,-19.370001000000002,-3.06,-14.06,3b
2019-07-15_112610:720,-0.378265,-0.0025329999999999997,-0.313171,-0.005068,0.0031850000000000003,0.002052,-19.370001000000002,-3.06,-16.75,3b
2019-07-15_112610:740,-0.380798,-0.0030210000000000002,-0.315704,-0.0048850000000000005,0.003246,0.001258,-19.370001000000002,-3.06,-16.75,3b
2019-07-15_112610:760,-0.382324,-0.004059,-0.317749,-0.004671,0.003307,0.000923,-19.370001000000002,-3.06,-16.75,3b
2019-07-15_112610:780,-0.375702,-0.0035399999999999997,-0.317749,-0.004427,0.0035810000000000004,0.000831,-18.68,-2.68,-14.75,3b
2019-07-15_112610:800,-0.381805,-0.0030210000000000002,-0.314697,-0.00403,0.003124,0.00016,-18.68,-2.68,-14.75,3b
2019-07-15_112610:820,-0.375214,-0.001007,-0.315704,-0.003878,0.003093,0.000221,-18.68,-3.06,-16.0,3b
2019-07-15_112610:840,-0.378265,-0.000488,-0.315216,-0.003664,0.002177,0.00016,-18.68,-3.06,-16.0,3b
2019-07-15_112610:860,-0.377747,0.001007,-0.313171,-0.0037560000000000002,0.0019030000000000002,0.000343,-18.68,-3.06,-16.0,3b
2019-07-15_112610:880,-0.377228,0.0030210000000000002,-0.314178,-0.00403,0.001598,0.000648,-19.370001000000002,-2.68,-13.68,3b
2019-07-15_112610:900,-0.376221,0.002014,-0.312164,-0.004336,0.0012619999999999999,0.000984,-19.370001000000002,-2.68,-13.68,3b
2019-07-15_112610:920,-0.377747,0.0035399999999999997,-0.313171,-0.004488000000000001,0.000865,0.0008619999999999999,-19.059998999999998,-2.68,-16.0,3b
2019-07-15_112610:940,-0.38028,0.0030210000000000002,-0.312164,-0.004793,0.0008960000000000001,0.000923,-19.059998999999998,-2.68,-16.0,3b
2019-07-15_112610:960,-0.379791,0.002014,-0.311646,-0.005465,0.000499,0.0008619999999999999,-19.059998999999998,-2.68,-16.0,3b
2019-07-15_112610:980,-0.37316900000000003,0.000488,-0.313171,-0.005465,0.00022400000000000002,0.0007700000000000001,-18.25,-3.5,-17.18,3b
2019-07-15_112611:000,-0.372162,0.0,-0.31369,-0.005007,-0.001454,-0.00023700000000000001,-18.25,-3.5,-17.18,3b
2019-07-15_112611:020,-0.37011700000000003,0.000488,-0.316742,-0.004824,-0.002095,-0.000634,-18.25,-3.5,-17.18,3b
2019-07-15_112611:040,-0.37316900000000003,0.001007,-0.318268,-0.0036950000000000004,-0.004018,-0.000786,-18.559998999999998,-3.06,-16.0,3b
2019-07-15_112611:060,-0.369598,0.002014,-0.318756,-0.0034509999999999996,-0.0040479999999999995,-0.000908,-18.559998999999998,-3.06,-16.0,3b
2019-07-15_112611:080,-0.36911,0.004059,-0.320282,-0.002993,-0.0046890000000000005,-0.001183,-19.68,-2.68,-16.25,3b
2019-07-15_112611:100,-0.36349499999999996,0.006072999999999999,-0.321808,-0.0025050000000000003,-0.005818,-0.0009689999999999999,-19.68,-2.68,-16.25,3b
2019-07-15_112611:120,-0.36044299999999996,0.006592,-0.324371,-0.0022600000000000003,-0.0071,-0.001397,-19.68,-2.68,-16.25,3b
2019-07-15_112611:140,-0.364014,0.007111,-0.322845,-0.002169,-0.008809,-0.0017929999999999999,-19.25,-2.68,-14.68,3b
2019-07-15_112611:160,-0.37011700000000003,0.006592,-0.325897,-0.002321,-0.010213,-0.000908,-19.25,-2.68,-14.68,3b
2019-07-15_112611:180,-0.375214,0.007599,-0.32995599999999997,-0.002382,-0.009724,-0.000725,-18.559998999999998,-3.06,-15.87,3b
2019-07-15_112611:200,-0.377747,0.008118,-0.33197,-0.0025960000000000002,-0.008137,-0.000908,-18.559998999999998,-3.06,-15.87,3b
2019-07-15_112611:220,-0.373688,0.009644,-0.335022,-0.0028399999999999996,-0.0072829999999999995,-0.0010609999999999999,-18.559998999999998,-3.06,-15.87,3b
2019-07-15_112611:240,-0.37265,0.007111,-0.33758499999999997,-0.0031149999999999997,-0.005574,-0.0008470000000000001,-18.18,-3.06,-15.87,3b
2019-07-15_112611:260,-0.37112399999999995,0.009125,-0.337067,-0.003176,-0.005299,-0.000634,-18.18,-3.06,-15.87,3b
2019-07-15_112611:280,-0.37316900000000003,0.009125,-0.339111,-0.00339,-0.004414,-0.000176,-17.75,-2.68,-17.5,3b
2019-07-15_112611:300,-0.370636,0.011687999999999999,-0.337067,-0.00339,-0.003041,0.000404,-17.75,-2.68,-17.5,3b
2019-07-15_112611:320,-0.370636,0.010162000000000001,-0.338074,-0.003664,-0.001912,0.000923,-17.75,-2.68,-17.5,3b
2019-07-15_112611:340,-0.370636,0.011169,-0.338074,-0.0036950000000000004,-0.001057,0.001625,-18.68,-3.06,-17.18,3b
2019-07-15_112611:360,-0.372162,0.010162000000000001,-0.33758499999999997,-0.004488000000000001,0.000407,0.0022960000000000003,-18.68,-3.06,-17.18,3b
2019-07-15_112611:380,-0.372162,0.010162000000000001,-0.340118,-0.00461,0.0008960000000000001,0.00251,-18.370001000000002,-2.25,-17.18,3b
2019-07-15_112611:400,-0.374695,0.008636,-0.33758499999999997,-0.0048850000000000005,0.001994,0.003151,-18.370001000000002,-2.25,-17.18,3b
2019-07-15_112611:420,-0.37112399999999995,0.009125,-0.340118,-0.005221,0.002971,0.004371,-18.370001000000002,-2.25,-17.18,3b
2019-07-15_112611:440,-0.366058,0.008636,-0.3396,-0.005404,0.003825,0.005745,-18.0,-3.06,-17.18,3b
2019-07-15_112611:460,-0.367584,0.0055850000000000006,-0.33605999999999997,-0.006075,0.004222,0.0065379999999999995,-18.0,-3.06,-17.18,3b
2019-07-15_112611:480,-0.367584,0.004059,-0.334534,-0.006869,0.004833,0.005684000000000001,-18.0,-2.68,-16.75,3b
2019-07-15_112611:500,-0.365021,0.000488,-0.32843,-0.007265000000000001,0.00471,0.005104,-18.0,-2.68,-16.75,3b
2019-07-15_112611:520,-0.363007,-0.001495,-0.32843,-0.007326000000000001,0.004649,0.0051649999999999995,-18.0,-2.68,-16.75,3b
2019-07-15_112611:540,-0.360962,-0.0030210000000000002,-0.325378,-0.006869,0.00352,0.00489,-18.370001000000002,-3.06,-17.18,3b
2019-07-15_112611:560,-0.358917,-0.004547,-0.324371,-0.006014,0.0023,0.004646,-18.370001000000002,-3.06,-17.18,3b
2019-07-15_112611:580,-0.36044299999999996,-0.004059,-0.324371,-0.0056170000000000005,0.001292,0.004951,-18.370001000000002,-2.25,-15.68,3b
2019-07-15_112611:600,-0.36706500000000003,-0.0055850000000000006,-0.325897,-0.005068,0.000346,0.004951,-18.370001000000002,-2.25,-15.68,3b
2019-07-15_112611:620,-0.373688,-0.004547,-0.333496,-0.004946,0.000621,0.004097,-18.370001000000002,-2.25,-15.68,3b
2019-07-15_112611:640,-0.373688,-0.0030210000000000002,-0.333496,-0.0048850000000000005,0.0014759999999999999,0.003517,-18.75,-2.68,-15.68,3b
2019-07-15_112611:660,-0.370636,-0.002014,-0.33300799999999997,-0.005129,0.0023,0.003639,-18.75,-2.68,-15.68,3b
2019-07-15_112611:680,-0.373688,-0.001495,-0.33605999999999997,-0.005343,0.0029100000000000003,0.003517,-18.370001000000002,-3.56,-16.0,3b
2019-07-15_112611:700,-0.37011700000000003,-0.0025329999999999997,-0.334534,-0.0056170000000000005,0.003917,0.003822,-18.370001000000002,-3.56,-16.0,3b
2019-07-15_112611:720,-0.36654699999999996,-0.0030210000000000002,-0.332489,-0.0058,0.004375,0.003975,-18.370001000000002,-3.56,-16.0,3b
2019-07-15_112611:740,-0.367584,-0.0035399999999999997,-0.331482,-0.005861,0.004954999999999999,0.004097,-19.059998999999998,-2.75,-16.370001000000002,3b
2019-07-15_112611:760,-0.363007,-0.004059,-0.330475,-0.006014,0.005168,0.004219,-19.059998999999998,-2.75,-16.370001000000002,3b
2019-07-15_112611:780,-0.36248800000000003,-0.005065999999999999,-0.330963,-0.006014,0.004954999999999999,0.004036,-18.68,-2.37,-15.68,3b
2019-07-15_112611:800,-0.36349499999999996,-0.006592,-0.32843,-0.006075,0.004497,0.003486,-18.68,-2.37,-15.68,3b
2019-07-15_112611:820,-0.364014,-0.006072999999999999,-0.329437,-0.005953,0.003825,0.002784,-18.68,-2.37,-15.68,3b
2019-07-15_112611:840,-0.36554000000000003,-0.004547,-0.32843,-0.0058,0.00352,0.002357,-18.75,-2.18,-15.68,3b
2019-07-15_112611:860,-0.36654699999999996,-0.004547,-0.32843,-0.005556,0.0035810000000000004,0.00196,-18.75,-2.18,-15.68,3b
2019-07-15_112611:880,-0.366058,-0.0030210000000000002,-0.32995599999999997,-0.005556,0.003703,0.001564,-18.75,-2.5,-15.68,3b
2019-07-15_112611:900,-0.36349499999999996,-0.0030210000000000002,-0.32843,-0.005221,0.00352,0.001106,-18.75,-2.5,-15.68,3b
2019-07-15_112611:920,-0.36349499999999996,-0.0030210000000000002,-0.326904,-0.005282,0.002971,0.000404,-18.75,-2.5,-15.68,3b
2019-07-15_112611:940,-0.366058,-0.000488,-0.328949,-0.005068,0.0023,-0.000176,-18.75,-2.18,-17.18,3b
2019-07-15_112611:960,-0.364014,0.0,-0.327423,-0.004793,0.001964,-0.000512,-18.75,-2.18,-17.18,3b
2019-07-15_112611:980,-0.36554000000000003,0.001007,-0.32843,-0.004549,0.001598,-0.0008470000000000001,-19.18,-2.87,-15.87,3b
2019-07-15_112612:000,-0.364014,0.0035399999999999997,-0.325897,-0.004275,0.00114,-0.0009689999999999999,-19.18,-2.87,-15.87,3b
2019-07-15_112612:020,-0.36248800000000003,0.004059,-0.328949,-0.004275,0.00056,-0.001,-19.18,-2.87,-15.87,3b
2019-07-15_112612:040,-0.363007,0.0055850000000000006,-0.330475,-0.004,1.1e-05,-0.000786,-19.18,-2.87,-14.75,3b
2019-07-15_112612:060,-0.36911,0.0055850000000000006,-0.33197,-0.004152,-0.000386,-0.000908,-19.18,-2.87,-14.75,3b
2019-07-15_112612:080,-0.365021,0.008118,-0.331482,-0.004213000000000001,-0.000233,0.000129,-18.370001000000002,-2.5,-15.68,3b
2019-07-15_112612:100,-0.366058,0.007111,-0.332489,-0.004549,-0.000661,0.000526,-18.370001000000002,-2.5,-15.68,3b
2019-07-15_112612:120,-0.364014,0.007599,-0.33300799999999997,-0.005068,-0.00063,0.000465,-18.370001000000002,-2.5,-15.68,3b
2019-07-15_112612:140,-0.364532,0.006592,-0.334534,-0.005282,-0.0005690000000000001,-0.00011499999999999999,-18.870001000000002,-2.18,-17.18,3b
2019-07-15_112612:160,-0.368591,0.005065999999999999,-0.335022,-0.005556,1.1e-05,6.8e-05,-18.870001000000002,-2.18,-17.18,3b
2019-07-15_112612:180,-0.37011700000000003,0.0025329999999999997,-0.334015,-0.005465,0.0009570000000000001,0.001106,-20.0,-2.5,-15.87,3b
2019-07-15_112612:200,-0.37112399999999995,0.001007,-0.334015,-0.004946,0.001964,0.001381,-20.0,-2.5,-15.87,3b
2019-07-15_112612:220,-0.371643,0.001007,-0.335541,-0.004549,0.002849,0.001777,-20.0,-2.5,-15.87,3b
2019-07-15_112612:240,-0.374176,0.0025329999999999997,-0.334534,-0.004213000000000001,0.003703,0.0021739999999999997,-18.75,-2.87,-15.56,3b
2019-07-15_112612:260,-0.375702,0.002014,-0.33197,-0.004275,0.004619,0.002571,-18.75,-2.87,-15.56,3b
2019-07-15_112612:280,-0.377747,0.0035399999999999997,-0.330475,-0.004488000000000001,0.004894,0.002845,-19.18,-2.18,-15.56,3b
2019-07-15_112612:300,-0.377747,0.002014,-0.327911,-0.005007,0.005351,0.003181,-19.18,-2.18,-15.56,3b
2019-07-15_112612:320,-0.373688,0.001495,-0.326904,-0.005526,0.005443,0.003578,-19.18,-2.18,-15.56,3b
2019-07-15_112612:340,-0.375214,-0.001007,-0.326904,-0.005556,0.0052899999999999996,0.003486,-19.18,-2.5,-15.56,3b
2019-07-15_112612:360,-0.378265,-0.002014,-0.32486,-0.005343,0.005351,0.003761,-19.18,-2.5,-15.56,3b
2019-07-15_112612:380,-0.379791,-0.000488,-0.321808,-0.0051600000000000005,0.005779,0.004707,-19.5,-3.25,-16.68,3b
2019-07-15_112612:400,-0.370636,-0.001495,-0.31723,-0.0048850000000000005,0.006358,0.004646,-19.5,-3.25,-16.68,3b
2019-07-15_112612:420,-0.367584,-0.002014,-0.318268,-0.004946,0.005901,0.004493,-19.5,-3.25,-16.68,3b
2019-07-15_112612:440,-0.364532,-0.0030210000000000002,-0.319275,-0.005068,0.0045579999999999996,0.004493,-19.5,-2.5,-15.56,3b
2019-07-15_112612:460,-0.368073,-0.0030210000000000002,-0.319275,-0.005282,0.003368,0.003761,-19.5,-2.5,-15.56,3b
2019-07-15_112612:480,-0.37112399999999995,-0.0035399999999999997,-0.320801,-0.005465,0.002757,0.0033640000000000002,-19.870001000000002,-2.5,-15.68,3b
2019-07-15_112612:500,-0.373688,-0.005065999999999999,-0.319275,-0.005343,0.002177,0.003151,-19.870001000000002,-2.5,-15.68,3b
2019-07-15_112612:520,-0.377747,-0.006072999999999999,-0.321808,-0.0051600000000000005,0.002239,0.002784,-19.870001000000002,-2.5,-15.68,3b
2019-07-15_112612:540,-0.377228,-0.007111,-0.322327,-0.004671,0.0031850000000000003,0.002754,-20.68,-2.25,-15.68,3b
2019-07-15_112612:560,-0.374176,-0.006072999999999999,-0.323334,-0.004336,0.00349,0.001991,-20.68,-2.25,-15.68,3b
2019-07-15_112612:580,-0.37265,-0.004059,-0.322327,-0.00403,0.003032,0.001655,-20.0,-2.56,-14.5,3b
2019-07-15_112612:600,-0.37265,-0.0025329999999999997,-0.320282,-0.004091,0.002788,0.001655,-20.0,-2.56,-14.5,3b
2019-07-15_112612:620,-0.374695,-0.0035399999999999997,-0.320801,-0.004397,0.0024519999999999998,0.001442,-20.0,-2.56,-14.5,3b
2019-07-15_112612:640,-0.378265,-0.0025329999999999997,-0.320801,-0.004549,0.002574,0.0007700000000000001,-19.559998999999998,-2.68,-15.68,3b
2019-07-15_112612:660,-0.376221,-0.0035399999999999997,-0.32132,-0.004824,0.002696,0.000343,-19.559998999999998,-2.68,-15.68,3b
2019-07-15_112612:680,-0.374176,-0.004059,-0.320282,-0.0048850000000000005,0.002788,0.000404,-20.370001000000002,-2.0,-16.0,3b
2019-07-15_112612:700,-0.372162,-0.0055850000000000006,-0.318756,-0.004671,0.002361,0.000129,-20.370001000000002,-2.0,-16.0,3b
2019-07-15_112612:720,-0.37316900000000003,-0.0035399999999999997,-0.32132,-0.004336,0.00172,7.000000000000001e-06,-20.370001000000002,-2.0,-16.0,3b
2019-07-15_112612:740,-0.374176,-0.0025329999999999997,-0.322327,-0.004152,0.0016589999999999999,0.000343,-20.0,-2.68,-14.75,3b
2019-07-15_112612:760,-0.378265,-0.0030210000000000002,-0.322845,-0.003878,0.00172,0.000709,-20.0,-2.68,-14.75,3b
2019-07-15_112612:780,-0.37674,-0.000488,-0.324371,-0.003817,0.002239,0.00016,-20.0,-2.37,-15.25,3b
2019-07-15_112612:800,-0.376221,-0.001007,-0.323853,-0.0036950000000000004,0.002635,0.00028199999999999997,-20.0,-2.37,-15.25,3b
2019-07-15_112612:820,-0.375702,-0.000488,-0.32132,-0.003817,0.002635,0.00028199999999999997,-20.0,-2.37,-15.25,3b
2019-07-15_112612:840,-0.37112399999999995,-0.001495,-0.320801,-0.003878,0.002635,7.000000000000001e-06,-20.75,-2.68,-15.68,3b
2019-07-15_112612:860,-0.37316900000000003,-0.001495,-0.319275,-0.004,0.002239,-0.00011499999999999999,-20.75,-2.68,-15.68,3b
2019-07-15_112612:880,-0.375214,-0.000488,-0.320801,-0.004,0.001964,-5.4000000000000005e-05,-20.370001000000002,-2.68,-14.87,3b
2019-07-15_112612:900,-0.377228,0.0,-0.321808,-0.00403,0.001964,-0.000267,-20.370001000000002,-2.68,-14.87,3b
2019-07-15_112612:920,-0.377747,0.0,-0.322845,-0.004152,0.001964,7.000000000000001e-06,-20.370001000000002,-2.68,-14.87,3b
2019-07-15_112612:940,-0.375702,0.000488,-0.320801,-0.00403,0.001964,0.00028199999999999997,-20.370001000000002,-2.37,-16.059998999999998,3b
2019-07-15_112612:960,-0.376221,0.0,-0.319794,-0.004,0.002116,0.00016,-20.370001000000002,-2.37,-16.059998999999998,3b
2019-07-15_112612:980,-0.375214,-0.000488,-0.319794,-0.003817,0.00172,7.000000000000001e-06,-20.0,-2.37,-15.75,3b
2019-07-15_112613:000,-0.37112399999999995,0.0,-0.316742,-0.0037560000000000002,0.001353,0.000343,-20.0,-2.37,-15.75,3b
2019-07-15_112613:020,-0.372162,-0.001007,-0.318756,-0.0036340000000000005,0.0008039999999999999,0.000343,-20.0,-2.37,-15.75,3b
2019-07-15_112613:040,-0.374176,0.0,-0.31723,-0.003664,-0.000172,0.000404,-19.559998999999998,-2.0,-14.87,3b
2019-07-15_112613:060,-0.377228,-0.001007,-0.319794,-0.0036340000000000005,7.2e-05,0.00132,-19.559998999999998,-2.0,-14.87,3b
2019-07-15_112613:080,-0.38028,-0.001007,-0.32132,-0.003512,0.00016299999999999998,0.001228,-20.0,-2.68,-14.75,3b
2019-07-15_112613:100,-0.379791,-0.001007,-0.321808,-0.0033280000000000002,0.0008039999999999999,0.001045,-20.0,-2.68,-14.75,3b
2019-07-15_112613:120,-0.374695,-0.001495,-0.322327,-0.0032979999999999997,0.001201,-0.00011499999999999999,-20.0,-2.68,-14.75,3b
2019-07-15_112613:140,-0.375702,0.0,-0.32132,-0.003054,0.001292,-0.000389,-20.059998999999998,-2.68,-15.37,3b
2019-07-15_112613:160,-0.373688,0.001495,-0.319275,-0.0028399999999999996,0.0012619999999999999,0.000923,-20.059998999999998,-2.68,-15.37,3b
2019-07-15_112613:180,-0.370636,0.001007,-0.317749,-0.002657,0.001018,0.001258,-20.870001000000002,-2.37,-14.87,3b
2019-07-15_112613:200,-0.373688,0.001007,-0.314697,-0.002169,0.001201,0.001655,-20.870001000000002,-2.37,-14.87,3b
2019-07-15_112613:220,-0.370636,0.0025329999999999997,-0.318268,-0.001772,0.001353,0.00196,-20.870001000000002,-2.37,-14.87,3b
2019-07-15_112613:240,-0.373688,0.001007,-0.323334,-0.001864,0.0009570000000000001,0.003639,-20.5,-2.68,-15.75,3b
2019-07-15_112613:260,-0.374695,-0.000488,-0.327423,-0.002382,0.000407,0.0053479999999999995,-20.5,-2.68,-15.75,3b
2019-07-15_112613:280,-0.377747,-0.0030210000000000002,-0.330963,-0.002993,7.2e-05,0.005104,-20.059998999999998,-2.37,-14.87,3b
2019-07-15_112613:300,-0.381805,-0.005065999999999999,-0.32995599999999997,-0.0034509999999999996,0.000468,0.004493,-20.059998999999998,-2.37,-14.87,3b
2019-07-15_112613:320,-0.38385,-0.007111,-0.32995599999999997,-0.003878,0.001537,0.003242,-20.059998999999998,-2.37,-14.87,3b
2019-07-15_112613:340,-0.383331,-0.006592,-0.327911,-0.004213000000000001,0.0031850000000000003,0.0030280000000000003,-20.5,-2.37,-15.75,3b
2019-07-15_112613:360,-0.380798,-0.010162000000000001,-0.325897,-0.00403,0.004649,0.003303,-20.5,-2.37,-15.75,3b
2019-07-15_112613:380,-0.373688,-0.009644,-0.324371,-0.0037560000000000002,0.005686999999999999,0.001716,-20.5,-2.37,-14.87,3b
2019-07-15_112613:400,-0.372162,-0.008636,-0.321808,-0.00339,0.005686999999999999,0.001381,-20.5,-2.37,-14.87,3b
2019-07-15_112613:420,-0.374176,-0.008636,-0.323853,-0.0028399999999999996,0.005229,0.001442,-20.5,-2.37,-14.87,3b
2019-07-15_112613:440,-0.374176,-0.006072999999999999,-0.316223,-0.002993,0.005229,0.000587,-20.5,-2.37,-15.75,3b
2019-07-15_112613:460,-0.374695,-0.007111,-0.311127,-0.002657,0.004833,0.000709,-20.5,-2.37,-15.75,3b
2019-07-15_112613:480,-0.377228,-0.006072999999999999,-0.315216,-0.0025050000000000003,0.004375,0.000221,-20.75,-2.06,-14.56,3b
2019-07-15_112613:500,-0.377228,-0.006072999999999999,-0.311646,-0.0025050000000000003,0.004497,-0.000389,-20.75,-2.06,-14.56,3b
2019-07-15_112613:520,-0.377747,-0.0055850000000000006,-0.316742,-0.002382,0.004314,-0.000725,-20.75,-2.06,-14.56,3b
2019-07-15_112613:540,-0.375214,-0.0055850000000000006,-0.318756,-0.002535,0.003825,-0.0013050000000000002,-20.059998999999998,-2.75,-15.37,3b
2019-07-15_112613:560,-0.374695,-0.004547,-0.320282,-0.002382,0.003093,-0.001641,-20.059998999999998,-2.75,-15.37,3b
2019-07-15_112613:580,-0.37674,-0.006072999999999999,-0.322327,-0.0021079999999999996,0.002055,-0.00158,-20.5,-2.06,-15.37,3b
2019-07-15_112613:600,-0.380798,-0.004547,-0.32132,-0.0015890000000000001,0.001598,-0.001458,-20.5,-2.06,-15.37,3b
2019-07-15_112613:620,-0.388428,-0.006072999999999999,-0.32132,-0.001009,0.002055,-0.0011220000000000002,-20.5,-2.06,-15.37,3b
2019-07-15_112613:640,-0.388428,-0.005065999999999999,-0.320801,-0.000918,0.00352,-0.001,-20.059998999999998,-2.75,-15.37,3b
2019-07-15_112613:660,-0.386383,-0.004547,-0.319275,-0.000918,0.004833,-0.000573,-20.059998999999998,-2.75,-15.37,3b
2019-07-15_112613:680,-0.384338,-0.004547,-0.318756,-0.001192,0.005686999999999999,-0.00045099999999999996,-20.75,-2.5,-14.06,3b
2019-07-15_112613:700,-0.383331,-0.0055850000000000006,-0.31369,-0.00165,0.006175,-0.000664,-20.75,-2.5,-14.06,3b
2019-07-15_112613:720,-0.381317,-0.007599,-0.313171,-0.0021079999999999996,0.00648,-0.0011220000000000002,-20.75,-2.5,-14.06,3b
2019-07-15_112613:740,-0.381317,-0.007599,-0.311127,-0.001986,0.006541,-0.001702,-20.059998999999998,-2.0,-14.87,3b
2019-07-15_112613:760,-0.380798,-0.009644,-0.31012,-0.00165,0.006358,-0.001702,-20.059998999999998,-2.0,-14.87,3b
2019-07-15_112613:780,-0.381805,-0.006592,-0.311127,-0.001314,0.005779,-0.001397,-20.5,-2.37,-14.87,3b
2019-07-15_112613:800,-0.383331,-0.0055850000000000006,-0.310638,-0.000796,0.005443,-0.000908,-20.5,-2.37,-14.87,3b
2019-07-15_112613:820,-0.386902,-0.004547,-0.310638,-0.000643,0.005351,-0.00045099999999999996,-20.5,-2.37,-14.87,3b
2019-07-15_112613:840,-0.386902,-0.004547,-0.309601,-0.000918,0.005443,-0.000328,-20.870001000000002,-2.0,-14.75,3b
2019-07-15_112613:860,-0.385864,-0.006592,-0.308594,-0.001375,0.005565,-0.00023700000000000001,-20.870001000000002,-2.0,-14.75,3b
2019-07-15_112613:880,-0.384338,-0.006072999999999999,-0.309601,-0.001772,0.005565,-5.4000000000000005e-05,-21.18,-2.37,-14.56,3b
2019-07-15_112613:900,-0.383331,-0.009125,-0.310638,-0.0020469999999999998,0.005229,0.000129,-21.18,-2.37,-14.56,3b
2019-07-15_112613:920,-0.385864,-0.010651,-0.309601,-0.0020469999999999998,0.005016,-0.00045099999999999996,-21.18,-2.37,-14.56,3b
2019-07-15_112613:940,-0.386383,-0.010162000000000001,-0.309113,-0.00165,0.004894,-0.000573,-20.870001000000002,-1.56,-14.18,3b
2019-07-15_112613:960,-0.388916,-0.010651,-0.308075,-0.001253,0.005046,-0.000634,-20.870001000000002,-1.56,-14.18,3b
2019-07-15_112613:980,-0.388428,-0.008636,-0.307068,-0.00107,0.005443,-0.000725,-20.5,-2.68,-15.75,3b
2019-07-15_112614:000,-0.384857,-0.007599,-0.30654899999999996,-0.00107,0.005565,-0.000908,-20.5,-2.68,-15.75,3b
2019-07-15_112614:020,-0.386383,-0.006592,-0.305542,-0.001375,0.005107,6.8e-05,-20.5,-2.68,-15.75,3b
2019-07-15_112614:040,-0.389954,-0.007111,-0.307068,-0.0018030000000000001,0.00471,-0.000176,-20.75,-2.06,-13.75,3b
2019-07-15_112614:060,-0.388916,-0.006592,-0.305542,-0.002199,0.005168,-0.000786,-20.75,-2.06,-13.75,3b
2019-07-15_112614:080,-0.383331,-0.009125,-0.30654899999999996,-0.0025050000000000003,0.0052899999999999996,-0.001458,-21.870001000000002,-2.68,-14.18,3b
2019-07-15_112614:100,-0.379272,-0.008636,-0.304016,-0.0025960000000000002,0.004649,-0.0019149999999999998,-21.870001000000002,-2.68,-14.18,3b
2019-07-15_112614:120,-0.379791,-0.010162000000000001,-0.303528,-0.0025050000000000003,0.0035810000000000004,-0.001397,-21.870001000000002,-2.68,-14.18,3b
2019-07-15_112614:140,-0.384338,-0.010162000000000001,-0.304535,-0.002199,0.002635,-0.001519,-21.18,-2.68,-13.87,3b
2019-07-15_112614:160,-0.386902,-0.008118,-0.303528,-0.00165,0.0024519999999999998,-0.0019149999999999998,-21.18,-2.68,-13.87,3b
2019-07-15_112614:180,-0.38739,-0.007599,-0.307068,-0.001467,0.0024519999999999998,-0.0019149999999999998,-21.25,-2.0,-14.87,3b
2019-07-15_112614:200,-0.388916,-0.007111,-0.306061,-0.001467,0.002635,-0.001854,-21.25,-2.0,-14.87,3b
2019-07-15_112614:220,-0.389435,-0.006072999999999999,-0.306061,-0.001467,0.002391,-0.0017929999999999999,-21.25,-2.0,-14.87,3b
2019-07-15_112614:240,-0.390442,-0.006072999999999999,-0.307068,-0.0015890000000000001,0.002574,-0.001397,-20.059998999999998,-2.0,-14.18,3b
2019-07-15_112614:260,-0.391968,-0.005065999999999999,-0.307068,-0.0017109999999999998,0.002849,-0.00158,-20.059998999999998,-2.0,-14.18,3b
2019-07-15_112614:280,-0.392487,-0.0055850000000000006,-0.307068,-0.001772,0.002971,-0.001458,-20.870001000000002,-2.37,-14.18,3b
2019-07-15_112614:300,-0.389435,-0.004059,-0.304016,-0.002169,0.003368,-0.000786,-20.870001000000002,-2.37,-14.18,3b
2019-07-15_112614:320,-0.391479,-0.004547,-0.306061,-0.0025050000000000003,0.003246,7.000000000000001e-06,-20.870001000000002,-2.37,-14.18,3b
2019-07-15_112614:340,-0.391968,-0.004547,-0.303528,-0.002932,0.0036420000000000003,-0.000664,-19.68,-2.37,-13.0,3b
2019-07-15_112614:360,-0.390961,-0.005065999999999999,-0.302002,-0.003512,0.003978,-0.001,-19.68,-2.37,-13.0,3b
2019-07-15_112614:380,-0.389435,-0.007111,-0.30249000000000004,-0.0036950000000000004,0.003825,-0.000389,-21.0,-2.0,-14.87,3b
2019-07-15_112614:400,-0.389954,-0.009644,-0.301483,-0.0036950000000000004,0.003917,-0.000573,-21.0,-2.0,-14.87,3b
2019-07-15_112614:420,-0.389435,-0.008118,-0.302002,-0.003573,0.0035810000000000004,-0.000786,-21.0,-2.0,-14.87,3b
2019-07-15_112614:440,-0.391968,-0.006592,-0.300964,-0.003176,0.0029100000000000003,-0.0009689999999999999,-20.5,-2.5,-13.25,3b
2019-07-15_112614:460,-0.393005,-0.0055850000000000006,-0.300964,-0.002932,0.002849,-0.000725,-20.5,-2.5,-13.25,3b
2019-07-15_112614:480,-0.393005,-0.0055850000000000006,-0.300476,-0.0031149999999999997,0.003124,-0.000664,-21.18,-2.5,-13.68,3b
2019-07-15_112614:500,-0.392487,-0.004547,-0.298431,-0.0033280000000000002,0.002971,-0.000725,-21.18,-2.5,-13.68,3b
2019-07-15_112614:520,-0.391479,-0.0055850000000000006,-0.29995700000000003,-0.0036340000000000005,0.0029100000000000003,-0.000634,-21.18,-2.5,-13.68,3b
2019-07-15_112614:540,-0.389954,-0.005065999999999999,-0.29895,-0.003817,0.002849,-0.000634,-21.18,-2.68,-14.06,3b
2019-07-15_112614:560,-0.391968,-0.006072999999999999,-0.29895,-0.0037560000000000002,0.002574,-0.000389,-21.18,-2.68,-14.06,3b
2019-07-15_112614:580,-0.393005,-0.006072999999999999,-0.29943800000000004,-0.0036340000000000005,0.0023,0.000129,-21.18,-2.68,-14.18,3b
2019-07-15_112614:600,-0.394531,-0.0055850000000000006,-0.29895,-0.0036340000000000005,0.002177,0.00028199999999999997,-21.18,-2.68,-14.18,3b
2019-07-15_112614:620,-0.39502,-0.004059,-0.29995700000000003,-0.003573,0.002177,0.000526,-21.18,-2.68,-14.18,3b
2019-07-15_112614:640,-0.393005,-0.006072999999999999,-0.29943800000000004,-0.003878,0.0024519999999999998,0.000648,-20.870001000000002,-3.06,-14.56,3b
2019-07-15_112614:660,-0.392487,-0.0055850000000000006,-0.29895,-0.004091,0.0023,0.0008619999999999999,-20.870001000000002,-3.06,-14.56,3b
2019-07-15_112614:680,-0.396057,-0.007111,-0.300476,-0.004275,0.0024519999999999998,0.0008619999999999999,-21.18,-2.37,-14.56,3b
2019-07-15_112614:700,-0.396545,-0.008636,-0.298431,-0.004275,0.002513,0.000496,-21.18,-2.37,-14.56,3b
2019-07-15_112614:720,-0.395538,-0.008636,-0.297913,-0.004397,0.002971,0.00028199999999999997,-21.18,-2.37,-14.56,3b
2019-07-15_112614:740,-0.394531,-0.009125,-0.29895,-0.004091,0.002971,0.00028199999999999997,-21.870001000000002,-2.0,-15.75,3b
2019-07-15_112614:760,-0.392487,-0.008636,-0.297913,-0.003817,0.0034289999999999998,0.000129,-21.870001000000002,-2.0,-15.75,3b
2019-07-15_112614:780,-0.391968,-0.007599,-0.29742399999999997,-0.0034509999999999996,0.003093,-0.000176,-21.059998999999998,-2.37,-14.18,3b
2019-07-15_112614:800,-0.392487,-0.0055850000000000006,-0.29742399999999997,-0.003054,0.002696,-5.4000000000000005e-05,-21.059998999999998,-2.37,-14.18,3b
2019-07-15_112614:820,-0.39502,-0.005065999999999999,-0.296906,-0.0031149999999999997,0.002177,-0.00011499999999999999,-21.059998999999998,-2.37,-14.18,3b
2019-07-15_112614:840,-0.396057,-0.004547,-0.295898,-0.003176,0.00172,7.000000000000001e-06,-19.559998999999998,-3.06,-13.75,3b
2019-07-15_112614:860,-0.396545,-0.004547,-0.29486100000000004,-0.003237,0.001964,6.8e-05,-19.559998999999998,-3.06,-13.75,3b
2019-07-15_112614:880,-0.396545,-0.004547,-0.29538000000000003,-0.003817,0.001994,-0.000328,-21.370001000000002,-2.68,-14.87,3b
2019-07-15_112614:900,-0.395538,-0.0055850000000000006,-0.294373,-0.0036950000000000004,0.002055,-0.000512,-21.370001000000002,-2.68,-14.87,3b
2019-07-15_112614:920,-0.394531,-0.006592,-0.29538000000000003,-0.003817,0.001842,-0.000328,-21.370001000000002,-2.68,-14.87,3b
2019-07-15_112614:940,-0.393005,-0.008636,-0.296387,-0.0034509999999999996,0.001415,-0.000573,-20.75,-2.68,-14.18,3b
2019-07-15_112614:960,-0.392487,-0.006592,-0.29486100000000004,-0.002932,0.000621,-0.001183,-20.75,-2.68,-14.18,3b
2019-07-15_112614:980,-0.396057,-0.004059,-0.29538000000000003,-0.0025050000000000003,0.000468,-0.00023700000000000001,-21.75,-3.06,-14.56,3b
2019-07-15_112615:000,-0.396545,-0.0035399999999999997,-0.29538000000000003,-0.002535,0.000285,0.000465,-21.75,-3.06,-14.56,3b
2019-07-15_112615:020,-0.394531,-0.002014,-0.296387,-0.002718,0.00022400000000000002,6.8e-05,-21.75,-3.06,-14.56,3b
2019-07-15_112615:040,-0.395538,-0.0025329999999999997,-0.298431,-0.003054,0.000285,-0.000328,-20.370001000000002,-2.68,-13.37,3b
2019-07-15_112615:060,-0.396545,-0.0025329999999999997,-0.297913,-0.003573,0.000407,-0.001458,-20.370001000000002,-2.68,-13.37,3b
2019-07-15_112615:080,-0.396545,-0.004059,-0.300476,-0.003573,0.000682,-0.000786,-21.870001000000002,-2.0,-14.56,3b
2019-07-15_112615:100,-0.395538,-0.004547,-0.298431,-0.003176,0.00114,7.000000000000001e-06,-21.870001000000002,-2.0,-14.56,3b
2019-07-15_112615:120,-0.394531,-0.004547,-0.29943800000000004,-0.002657,0.001415,7.000000000000001e-06,-21.870001000000002,-2.0,-14.56,3b
2019-07-15_112615:140,-0.39502,-0.0035399999999999997,-0.301483,-0.0022600000000000003,0.001598,0.00028199999999999997,-21.059998999999998,-2.68,-14.56,3b
2019-07-15_112615:160,-0.397064,-0.000488,-0.300476,-0.0028399999999999996,0.0017809999999999998,0.000709,-21.059998999999998,-2.68,-14.56,3b
2019-07-15_112615:180,-0.397064,0.0,-0.301483,-0.003573,0.002116,0.00132,-20.0,-2.37,-14.18,3b
2019-07-15_112615:200,-0.394012,-0.001007,-0.29895,-0.004427,0.002391,0.001258,-20.0,-2.37,-14.18,3b
2019-07-15_112615:220,-0.392487,-0.0025329999999999997,-0.29995700000000003,-0.005221,0.002391,0.0007700000000000001,-20.0,-2.37,-14.18,3b
2019-07-15_112615:240,-0.394531,-0.005065999999999999,-0.29943800000000004,-0.005465,0.002635,0.000496,-20.75,-2.68,-15.37,3b
2019-07-15_112615:260,-0.394012,-0.007111,-0.29995700000000003,-0.005404,0.0023,0.000984,-20.75,-2.68,-15.37,3b
2019-07-15_112615:280,-0.395538,-0.007111,-0.29895,-0.004671,0.0024519999999999998,0.001716,-20.75,-2.0,-13.37,3b
2019-07-15_112615:300,-0.391968,-0.008118,-0.298431,-0.00403,0.002635,0.001106,-20.75,-2.0,-13.37,3b
2019-07-15_112615:320,-0.394531,-0.005065999999999999,-0.29943800000000004,-0.003664,0.0023,0.0007700000000000001,-20.75,-2.0,-13.37,3b
2019-07-15_112615:340,-0.395538,-0.004547,-0.29895,-0.003512,0.002239,0.001228,-20.75,-2.37,-12.25,3b
2019-07-15_112615:360,-0.393494,-0.0030210000000000002,-0.296906,-0.004152,0.002116,0.000831,-20.75,-2.37,-12.25,3b
2019-07-15_112615:380,-0.39502,-0.0025329999999999997,-0.29742399999999997,-0.004793,0.001964,0.000831,-20.75,-2.37,-13.75,3b
2019-07-15_112615:400,-0.393005,-0.004547,-0.296387,-0.005129,0.0019030000000000002,0.000648,-20.75,-2.37,-13.75,3b
2019-07-15_112615:420,-0.392487,-0.005065999999999999,-0.298431,-0.005221,0.001353,0.00028199999999999997,-20.75,-2.37,-13.75,3b
2019-07-15_112615:440,-0.392487,-0.005065999999999999,-0.29742399999999997,-0.0048850000000000005,0.001537,0.000496,-20.370001000000002,-3.5,-14.18,3b
2019-07-15_112615:460,-0.394531,-0.0055850000000000006,-0.298431,-0.004671,0.001537,0.000587,-20.370001000000002,-3.5,-14.18,3b
2019-07-15_112615:480,-0.393494,-0.004547,-0.297913,-0.004336,0.0014759999999999999,0.000587,-20.75,-2.75,-14.56,3b
2019-07-15_112615:500,-0.393494,-0.0030210000000000002,-0.298431,-0.003939,0.0012619999999999999,0.0008619999999999999,-20.75,-2.75,-14.56,3b
2019-07-15_112615:520,-0.393494,-0.0025329999999999997,-0.300964,-0.004275,0.001018,0.000923,-20.75,-2.75,-14.56,3b
2019-07-15_112615:540,-0.394012,-0.001495,-0.301483,-0.004732,0.00114,0.000831,-21.059998999999998,-4.0,-15.37,3b
2019-07-15_112615:560,-0.39502,-0.001495,-0.302002,-0.005129,0.001201,0.000831,-21.059998999999998,-4.0,-15.37,3b
2019-07-15_112615:580,-0.394531,-0.0030210000000000002,-0.29538000000000003,-0.005526,0.0017809999999999998,0.000923,-21.059998999999998,-2.75,-14.18,3b
2019-07-15_112615:600,-0.392487,-0.004547,-0.295898,-0.005526,0.001415,0.001045,-21.059998999999998,-2.75,-14.18,3b
2019-07-15_112615:620,-0.394012,-0.0055850000000000006,-0.296387,-0.004824,0.001353,0.000923,-21.059998999999998,-2.75,-14.18,3b
2019-07-15_112615:640,-0.396057,-0.004059,-0.30300900000000003,-0.004336,0.001628,0.000984,-20.0,-2.75,-13.75,3b
2019-07-15_112615:660,-0.396057,-0.0055850000000000006,-0.300964,-0.003817,0.002055,0.001045,-20.0,-2.75,-13.75,3b
2019-07-15_112615:680,-0.396545,-0.004547,-0.301483,-0.0033280000000000002,0.0024519999999999998,0.000648,-21.370001000000002,-2.75,-13.75,3b
2019-07-15_112615:700,-0.393494,-0.0030210000000000002,-0.296906,-0.0032979999999999997,0.002513,0.000587,-21.370001000000002,-2.75,-13.75,3b
2019-07-15_112615:720,-0.393005,-0.004547,-0.297913,-0.00339,0.002239,0.000648,-21.370001000000002,-2.75,-13.75,3b
2019-07-15_112615:740,-0.394012,-0.0025329999999999997,-0.296387,-0.0036340000000000005,0.002055,6.8e-05,-21.370001000000002,-2.5,-13.75,3b
2019-07-15_112615:760,-0.394531,-0.002014,-0.295898,-0.0036950000000000004,0.0017809999999999998,0.000343,-21.370001000000002,-2.5,-13.75,3b
2019-07-15_112615:780,-0.39859,-0.004547,-0.296906,-0.003939,0.0016589999999999999,0.000709,-20.75,-2.5,-14.56,3b
2019-07-15_112615:800,-0.39859,-0.004059,-0.296387,-0.003939,0.001964,0.000526,-20.75,-2.5,-14.56,3b
2019-07-15_112615:820,-0.399109,-0.006072999999999999,-0.29742399999999997,-0.003817,0.002361,0.000648,-20.75,-2.5,-14.56,3b
2019-07-15_112615:840,-0.399109,-0.006592,-0.29742399999999997,-0.003664,0.002391,0.000648,-20.75,-3.18,-13.75,3b
2019-07-15_112615:860,-0.401642,-0.009644,-0.296387,-0.003176,0.002635,0.000648,-20.75,-3.18,-13.75,3b
2019-07-15_112615:880,-0.401123,-0.010162000000000001,-0.297913,-0.002321,0.003246,0.00016,-21.059998999999998,-2.5,-14.18,3b
2019-07-15_112615:900,-0.398071,-0.010162000000000001,-0.293854,-0.0014060000000000001,0.003764,-0.000389,-21.059998999999998,-2.5,-14.18,3b
2019-07-15_112615:920,-0.397583,-0.010162000000000001,-0.29538000000000003,-0.000399,0.004161,-0.0012439999999999999,-21.059998999999998,-2.5,-14.18,3b
2019-07-15_112615:940,-0.396057,-0.007599,-0.295898,0.000151,0.003703,-0.002709,-20.0,-2.75,-13.0,3b
2019-07-15_112615:960,-0.396057,-0.001007,-0.290802,-2e-06,0.0034289999999999998,-0.002037,-20.0,-2.75,-13.0,3b
2019-07-15_112615:980,-0.397583,0.0,-0.290283,-0.000734,0.0034289999999999998,-0.001183,-21.18,-2.5,-13.37,3b
2019-07-15_112616:000,-0.398071,0.0,-0.290283,-0.0021079999999999996,0.0036420000000000003,-0.0019760000000000003,-21.18,-2.5,-13.37,3b
2019-07-15_112616:020,-0.397064,0.001007,-0.28979499999999997,-0.0028399999999999996,0.003246,-0.002648,-21.18,-2.5,-13.37,3b
2019-07-15_112616:040,-0.394531,-0.001007,-0.29180900000000004,-0.0033280000000000002,0.002788,-0.004448,-20.059998999999998,-2.5,-13.0,3b
2019-07-15_112616:060,-0.393494,-0.000488,-0.29232800000000003,-0.003573,0.001842,-0.003624,-20.059998999999998,-2.5,-13.0,3b
2019-07-15_112616:080,-0.398071,0.0,-0.294373,-0.003237,0.001598,-0.0017629999999999998,-20.870001000000002,-3.18,-14.18,3b
2019-07-15_112616:100,-0.402161,0.0,-0.294373,-0.002932,0.00172,-0.001702,-20.870001000000002,-3.18,-14.18,3b
2019-07-15_112616:120,-0.40368699999999996,0.0,-0.29538000000000003,-0.002718,0.002513,-0.0009689999999999999,-20.870001000000002,-3.18,-14.18,3b
2019-07-15_112616:140,-0.40368699999999996,0.001495,-0.295898,-0.0028399999999999996,0.003032,0.000404,-21.18,-2.75,-14.56,3b
2019-07-15_112616:160,-0.399109,0.0,-0.293335,-0.0033280000000000002,0.003093,0.001167,-21.18,-2.75,-14.56,3b
2019-07-15_112616:180,-0.40011599999999997,0.0,-0.295898,-0.00339,0.003093,0.001655,-21.5,-3.56,-13.0,3b
2019-07-15_112616:200,-0.39859,-0.004059,-0.29486100000000004,-0.003817,0.003307,0.00132,-21.5,-3.56,-13.0,3b
2019-07-15_112616:220,-0.396545,-0.0035399999999999997,-0.294373,-0.003817,0.003368,0.000404,-21.5,-3.56,-13.0,3b
2019-07-15_112616:240,-0.396545,-0.0035399999999999997,-0.29284699999999997,-0.0036950000000000004,0.003307,0.00132,-20.870001000000002,-3.06,-13.37,3b
2019-07-15_112616:260,-0.39859,-0.0030210000000000002,-0.291321,-0.003878,0.0035810000000000004,0.001777,-20.870001000000002,-3.06,-13.37,3b
2019-07-15_112616:280,-0.401642,-0.0035399999999999997,-0.29284699999999997,-0.003878,0.0035810000000000004,0.001258,-21.0,-2.37,-13.37,3b
2019-07-15_112616:300,-0.398071,-0.0035399999999999997,-0.293335,-0.00403,0.003764,-0.000634,-21.0,-2.37,-13.37,3b
2019-07-15_112616:320,-0.398071,-0.000488,-0.29232800000000003,-0.00403,0.003703,-0.000176,-21.0,-2.37,-13.37,3b
2019-07-15_112616:340,-0.399109,-0.002014,-0.29232800000000003,-0.004,0.003368,7.000000000000001e-06,-21.5,-2.37,-13.37,3b
2019-07-15_112616:360,-0.40063499999999996,-0.002014,-0.290283,-0.004152,0.0031850000000000003,7.000000000000001e-06,-21.5,-2.37,-13.37,3b
2019-07-15_112616:380,-0.401642,-0.002014,-0.28875700000000004,-0.004091,0.003032,0.00016,-22.25,-3.5,-13.0,3b
2019-07-15_112616:400,-0.401642,-0.002014,-0.290283,-0.0036950000000000004,0.003093,0.000221,-22.25,-3.5,-13.0,3b
2019-07-15_112616:420,-0.402649,-0.001495,-0.288269,-0.0034509999999999996,0.003093,7.000000000000001e-06,-22.25,-3.5,-13.0,3b
2019-07-15_112616:440,-0.402649,0.0,-0.28875700000000004,-0.0033280000000000002,0.0031850000000000003,0.000221,-21.25,-2.68,-13.37,3b
2019-07-15_112616:460,-0.40011599999999997,0.0,-0.28674299999999997,-0.0036950000000000004,0.0029100000000000003,0.000923,-21.25,-2.68,-13.37,3b
2019-07-15_112616:480,-0.401642,-0.001007,-0.287231,-0.004091,0.002757,0.0008619999999999999,-21.0,-2.68,-13.0,3b
2019-07-15_112616:500,-0.39859,-0.0035399999999999997,-0.288269,-0.00403,0.002574,0.00028199999999999997,-21.0,-2.68,-13.0,3b
2019-07-15_112616:520,-0.399597,-0.002014,-0.28979499999999997,-0.0037560000000000002,0.002177,0.000343,-21.0,-2.68,-13.0,3b
2019-07-15_112616:540,-0.401642,-0.004547,-0.291321,-0.0033280000000000002,0.002177,0.000221,-21.0,-2.37,-13.75,3b
2019-07-15_112616:560,-0.402161,-0.005065999999999999,-0.28979499999999997,-0.002657,0.002055,0.000129,-21.0,-2.37,-13.75,3b
2019-07-15_112616:580,-0.406738,-0.0030210000000000002,-0.28927600000000003,-0.0022600000000000003,0.0024519999999999998,0.00016,-21.25,-2.37,-13.37,3b
2019-07-15_112616:600,-0.404694,-0.000488,-0.28927600000000003,-0.0022600000000000003,0.003246,0.000465,-21.25,-2.37,-13.37,3b
2019-07-15_112616:620,-0.402161,0.001007,-0.288269,-0.0031149999999999997,0.003825,0.000496,-21.25,-2.37,-13.37,3b
2019-07-15_112616:640,-0.399109,0.0,-0.28775,-0.003512,0.003825,0.000343,-21.25,-2.68,-13.0,3b
2019-07-15_112616:660,-0.398071,0.0,-0.28875700000000004,-0.004397,0.003246,0.000129,-21.25,-2.68,-13.0,3b
2019-07-15_112616:680,-0.399597,-0.002014,-0.28775,-0.004549,0.002849,6.8e-05,-21.25,-2.68,-13.0,3b
2019-07-15_112616:700,-0.399109,-0.0030210000000000002,-0.28775,-0.004824,0.0024519999999999998,0.00028199999999999997,-21.25,-3.87,-13.0,3b
2019-07-15_112616:720,-0.39859,-0.0025329999999999997,-0.287231,-0.004732,0.0019030000000000002,0.000343,-21.25,-3.87,-13.0,3b
2019-07-15_112616:740,-0.401642,-0.0035399999999999997,-0.28927600000000003,-0.004091,0.001628,0.000526,-21.559998999999998,-3.5,-12.56,3b
2019-07-15_112616:760,-0.401123,-0.0030210000000000002,-0.28875700000000004,-0.003878,0.001537,0.000648,-21.559998999999998,-3.5,-12.56,3b
2019-07-15_112616:780,-0.40316799999999997,0.0,-0.288269,-0.0036340000000000005,0.001628,0.00132,-21.0,-3.5,-13.0,3b
2019-07-15_112616:800,-0.40316799999999997,0.001495,-0.290802,-0.004091,0.001628,0.001991,-21.0,-3.5,-13.0,3b
2019-07-15_112616:820,-0.40368699999999996,0.0030210000000000002,-0.291321,-0.004793,0.002055,0.0026320000000000002,-21.0,-3.5,-13.0,3b
2019-07-15_112616:840,-0.406219,0.0025329999999999997,-0.29180900000000004,-0.0051600000000000005,0.002055,0.002784,-21.559998999999998,-3.06,-13.37,3b
2019-07-15_112616:860,-0.406219,-0.001495,-0.28979499999999997,-0.0064719999999999995,0.003093,0.0021739999999999997,-21.559998999999998,-3.06,-13.37,3b
2019-07-15_112616:880,-0.40570100000000003,-0.0035399999999999997,-0.291321,-0.006594,0.003124,0.002052,-21.559998999999998,-3.06,-13.37,3b
2019-07-15_112616:900,-0.401642,-0.007599,-0.28875700000000004,-0.005678,0.003886,0.001258,-21.0,-2.68,-12.56,3b
2019-07-15_112616:920,-0.402161,-0.007599,-0.286224,-0.0051600000000000005,0.0036420000000000003,0.001045,-21.0,-2.68,-12.56,3b
2019-07-15_112616:940,-0.40570100000000003,-0.007111,-0.285217,-0.004,0.003703,0.001777,-21.25,-2.68,-13.37,3b
2019-07-15_112616:960,-0.404175,-0.0055850000000000006,-0.282166,-0.003054,0.00352,0.001442,-21.25,-2.68,-13.37,3b
2019-07-15_112616:980,-0.402161,-0.001007,-0.28418000000000004,-0.003054,0.00349,0.00132,-21.25,-2.68,-13.37,3b
2019-07-15_112617:000,-0.402649,-0.0025329999999999997,-0.28418000000000004,-0.003237,0.00352,0.000984,-21.25,-2.37,-13.75,3b
2019-07-15_112617:020,-0.40368699999999996,-0.001495,-0.282654,-0.003817,0.003032,7.000000000000001e-06,-21.25,-2.37,-13.75,3b
2019-07-15_112617:040,-0.401123,-0.004547,-0.283173,-0.003878,0.002574,0.000526,-21.870001000000002,-2.68,-13.75,3b
2019-07-15_112617:060,-0.401123,-0.006592,-0.284698,-0.0036340000000000005,0.0024519999999999998,0.00132,-21.870001000000002,-2.68,-13.75,3b
2019-07-15_112617:080,-0.40011599999999997,-0.0055850000000000006,-0.285706,-0.0032979999999999997,0.001842,0.0008619999999999999,-22.25,-3.06,-14.56,3b
2019-07-15_112617:100,-0.402161,-0.005065999999999999,-0.28674299999999997,-0.0029010000000000004,0.001353,0.000984,-22.25,-3.06,-14.56,3b
2019-07-15_112617:120,-0.404175,-0.0025329999999999997,-0.29232800000000003,-0.0028399999999999996,0.0010789999999999999,0.001167,-22.25,-3.06,-14.56,3b
2019-07-15_112617:140,-0.40368699999999996,-0.001495,-0.281647,-0.0032979999999999997,0.0014759999999999999,0.001381,-21.5,-2.68,-13.0,3b
2019-07-15_112617:160,-0.40774499999999997,-0.0030210000000000002,-0.28369099999999997,-0.003664,0.001415,0.00132,-21.5,-2.68,-13.0,3b
2019-07-15_112617:180,-0.406738,-0.004059,-0.285217,-0.004397,0.001964,0.000831,-20.870001000000002,-2.68,-13.0,3b
2019-07-15_112617:200,-0.408752,-0.006592,-0.287231,-0.004793,0.002574,0.000221,-20.870001000000002,-2.68,-13.0,3b
2019-07-15_112617:220,-0.404175,-0.007111,-0.284698,-0.004427,0.002849,0.000343,-20.870001000000002,-2.68,-13.0,3b
2019-07-15_112617:240,-0.404694,-0.006072999999999999,-0.286224,-0.0037560000000000002,0.0029100000000000003,0.000526,-21.870001000000002,-2.68,-13.0,3b
2019-07-15_112617:260,-0.402161,-0.0030210000000000002,-0.283173,-0.0033280000000000002,0.002574,-5.4000000000000005e-05,-21.870001000000002,-2.68,-13.0,3b
2019-07-15_112617:280,-0.404175,-0.001007,-0.283173,-0.003054,0.002177,0.00028199999999999997,-22.0,-2.68,-11.37,3b
2019-07-15_112617:300,-0.404175,-0.000488,-0.28418000000000004,-0.003054,0.0019030000000000002,0.000831,-22.0,-2.68,-11.37,3b
2019-07-15_112617:320,-0.40368699999999996,0.001495,-0.285706,-0.0036340000000000005,0.0019030000000000002,0.0008619999999999999,-22.0,-2.68,-11.37,3b
2019-07-15_112617:340,-0.402649,0.0,-0.28674299999999997,-0.004,0.0016589999999999999,0.001381,-21.559998999999998,-2.68,-13.37,3b
2019-07-15_112617:360,-0.405212,-0.000488,-0.285217,-0.004732,0.001292,0.001625,-21.559998999999998,-2.68,-13.37,3b
2019-07-15_112617:380,-0.406738,-0.001495,-0.285706,-0.005068,0.001292,0.001777,-21.559998999999998,-2.68,-13.37,3b
2019-07-15_112617:400,-0.40823400000000004,-0.0025329999999999997,-0.285706,-0.005526,0.0016589999999999999,0.001625,-22.75,-2.68,-13.37,3b
2019-07-15_112617:420,-0.40823400000000004,-0.0035399999999999997,-0.28418000000000004,-0.005678,0.002239,0.001442,-22.75,-2.68,-13.37,3b
2019-07-15_112617:440,-0.40823400000000004,-0.004059,-0.286224,-0.005678,0.002574,0.00132,-21.870001000000002,-2.68,-13.75,3b
2019-07-15_112617:460,-0.406738,-0.004547,-0.283173,-0.005465,0.0029100000000000003,0.000923,-21.870001000000002,-2.68,-13.75,3b
2019-07-15_112617:480,-0.40368699999999996,-0.005065999999999999,-0.283173,-0.005068,0.003093,0.000709,-21.870001000000002,-2.68,-13.75,3b
2019-07-15_112617:500,-0.402649,-0.0055850000000000006,-0.282166,-0.004336,0.0029100000000000003,0.000526,-21.870001000000002,-2.68,-12.18,3b
2019-07-15_112617:520,-0.40368699999999996,-0.0030210000000000002,-0.282166,-0.003939,0.0023,0.000404,-21.870001000000002,-2.68,-12.18,3b
2019-07-15_112617:540,-0.405212,-0.001495,-0.28674299999999997,-0.003664,0.001537,0.000465,-21.559998999999998,-2.68,-13.0,3b
2019-07-15_112617:560,-0.40368699999999996,-0.000488,-0.281647,-0.003817,0.001292,0.000343,-21.559998999999998,-2.68,-13.0,3b
2019-07-15_112617:580,-0.404175,0.0,-0.281647,-0.004213000000000001,0.0012619999999999999,0.000709,-21.559998999999998,-2.68,-12.56,3b
2019-07-15_112617:600,-0.39859,-0.001007,-0.278595,-0.004427,0.0008960000000000001,0.0008619999999999999,-21.559998999999998,-2.68,-12.56,3b
2019-07-15_112617:620,-0.401642,-0.001007,-0.281647,-0.005007,-5e-05,0.000984,-21.559998999999998,-2.68,-12.56,3b
2019-07-15_112617:640,-0.395538,-0.002014,-0.282654,-0.005129,-0.001576,0.001167,-21.559998999999998,-2.37,-14.18,3b
2019-07-15_112617:660,-0.397583,-0.0030210000000000002,-0.28369099999999997,-0.0051600000000000005,-0.002309,0.001167,-21.559998999999998,-2.37,-14.18,3b
2019-07-15_112617:680,-0.399597,-0.004547,-0.284698,-0.004793,-0.004018,0.001167,-21.559998999999998,-2.37,-14.18,3b
2019-07-15_112617:700,-0.40011599999999997,-0.004059,-0.28927600000000003,-0.004793,-0.004414,0.001045,-21.5,-2.37,-13.0,3b
2019-07-15_112617:720,-0.401123,-0.0055850000000000006,-0.28775,-0.003939,-0.005025,0.0008619999999999999,-21.5,-2.37,-13.0,3b
2019-07-15_112617:740,-0.401642,-0.004059,-0.28875700000000004,-0.003573,-0.0052380000000000005,0.000648,-21.5,-3.06,-11.75,3b
2019-07-15_112617:760,-0.398071,-0.0030210000000000002,-0.28875700000000004,-0.0034509999999999996,-0.005482,0.000984,-21.5,-3.06,-11.75,3b
2019-07-15_112617:780,-0.394012,-0.002014,-0.290802,-0.003512,-0.00594,0.00132,-21.5,-3.06,-11.75,3b
2019-07-15_112617:800,-0.394531,-0.001495,-0.291321,-0.003664,-0.006764,0.001258,-21.18,-2.5,-13.37,3b
2019-07-15_112617:820,-0.393494,-0.0025329999999999997,-0.291321,-0.003878,-0.007405,0.00132,-21.18,-2.5,-13.37,3b
2019-07-15_112617:840,-0.397064,-0.0025329999999999997,-0.29538000000000003,-0.003939,-0.007558,0.00132,-21.18,-2.68,-12.56,3b
2019-07-15_112617:860,-0.397064,-0.001495,-0.29538000000000003,-0.004091,-0.007405,0.001503,-21.18,-2.68,-12.56,3b
2019-07-15_112617:880,-0.410278,-0.0030210000000000002,-0.296906,-0.004213000000000001,-0.006947,0.001716,-21.18,-2.68,-12.56,3b
2019-07-15_112617:900,-0.410797,-0.0025329999999999997,-0.29995700000000003,-0.004549,-0.004414,0.002052,-21.18,-2.75,-13.0,3b
2019-07-15_112617:920,-0.407227,-0.002014,-0.30300900000000003,-0.0048850000000000005,-0.002034,0.0021739999999999997,-21.18,-2.75,-13.0,3b
2019-07-15_112617:940,-0.397583,-0.0030210000000000002,-0.301483,-0.005556,-0.000661,0.001625,-20.75,-2.06,-13.75,3b
2019-07-15_112617:960,-0.393494,-0.004547,-0.298431,-0.0058,-0.000508,0.000984,-20.75,-2.06,-13.75,3b
2019-07-15_112617:980,-0.391968,-0.005065999999999999,-0.300476,-0.0056170000000000005,-0.000661,-0.000267,-20.75,-2.06,-13.75,3b
2019-07-15_112618:000,-0.391479,-0.006592,-0.297913,-0.0051600000000000005,-0.001027,0.00016,-20.870001000000002,-2.5,-14.68,3b
2019-07-15_112618:020,-0.390442,-0.006072999999999999,-0.29538000000000003,-0.004427,-0.00124,0.001167,-20.870001000000002,-2.5,-14.68,3b
2019-07-15_112618:040,-0.386902,-0.0035399999999999997,-0.295898,-0.004091,-0.001698,0.000923,-21.25,-2.37,-14.68,3b
2019-07-15_112618:060,-0.387909,-0.002014,-0.29742399999999997,-0.004,-0.002309,0.000709,-21.25,-2.37,-14.68,3b
2019-07-15_112618:080,-0.390442,-0.002014,-0.303528,-0.004275,-0.0027660000000000002,0.000496,-21.25,-2.37,-14.68,3b
2019-07-15_112618:100,-0.392487,-0.000488,-0.305054,-0.004671,-0.002888,0.000587,-21.370001000000002,-3.06,-14.68,3b
2019-07-15_112618:120,-0.392487,-0.002014,-0.305054,-0.004946,-0.0027660000000000002,0.000923,-21.370001000000002,-3.06,-14.68,3b
2019-07-15_112618:140,-0.392487,-0.002014,-0.303528,-0.005526,-0.002431,0.000587,-21.059998999999998,-2.68,-13.87,3b
2019-07-15_112618:160,-0.392487,-0.004547,-0.304535,-0.005282,-0.002309,0.000465,-21.059998999999998,-2.68,-13.87,3b
2019-07-15_112618:180,-0.389954,-0.0035399999999999997,-0.30654899999999996,-0.004946,-0.002248,0.000465,-21.059998999999998,-2.68,-13.87,3b
2019-07-15_112618:200,-0.392487,-0.0025329999999999997,-0.308075,-0.004793,-0.001912,0.000984,-20.68,-2.68,-13.87,3b
2019-07-15_112618:220,-0.38739,-0.0030210000000000002,-0.307587,-0.004427,-0.001454,0.000831,-20.68,-2.68,-13.87,3b
2019-07-15_112618:240,-0.380798,-0.0025329999999999997,-0.308075,-0.004427,-0.001637,0.00028199999999999997,-20.18,-2.68,-14.25,3b
2019-07-15_112618:260,-0.378265,-0.001495,-0.308075,-0.004213000000000001,-0.002705,0.000648,-20.18,-2.68,-14.25,3b
2019-07-15_112618:280,-0.376221,-0.0030210000000000002,-0.312653,-0.003664,-0.003773,0.000129,-20.18,-2.68,-14.25,3b
2019-07-15_112618:300,-0.37674,-0.0025329999999999997,-0.311646,-0.003237,-0.005025,0.000221,-20.559998999999998,-2.68,-15.06,3b
2019-07-15_112618:320,-0.376221,-0.001495,-0.313171,-0.0025050000000000003,-0.005818,0.001228,-20.559998999999998,-2.68,-15.06,3b
2019-07-15_112618:340,-0.377228,-0.0025329999999999997,-0.317749,-0.001925,-0.006673,0.001045,-21.059998999999998,-2.68,-14.37,3b
2019-07-15_112618:360,-0.382812,-0.001007,-0.317749,-0.001467,-0.006703,0.000984,-21.059998999999998,-2.68,-14.37,3b
2019-07-15_112618:380,-0.387909,-0.001007,-0.317749,-0.001375,-0.006215,0.0008619999999999999,-21.059998999999998,-2.68,-14.37,3b
2019-07-15_112618:400,-0.38739,-0.001007,-0.318756,-0.001986,-0.004811,0.00028199999999999997,-21.059998999999998,-3.06,-14.68,3b
2019-07-15_112618:420,-0.389435,0.001007,-0.319275,-0.0025050000000000003,-0.003285,0.00028199999999999997,-21.059998999999998,-3.06,-14.68,3b
2019-07-15_112618:440,-0.38385,0.000488,-0.316742,-0.002993,-0.001973,0.0008619999999999999,-21.0,-2.68,-14.25,3b
2019-07-15_112618:460,-0.381805,0.0,-0.315216,-0.0036340000000000005,-0.001393,0.000587,-21.0,-2.68,-14.25,3b
2019-07-15_112618:480,-0.380798,0.0,-0.316223,-0.003939,-0.0007830000000000001,0.000709,-21.0,-2.68,-14.25,3b
2019-07-15_112618:500,-0.378754,-0.001495,-0.31723,-0.004152,-0.000722,0.000496,-19.75,-2.68,-15.75,3b
2019-07-15_112618:520,-0.38385,-0.001007,-0.318756,-0.003939,-0.000233,0.001045,-19.75,-2.68,-15.75,3b
2019-07-15_112618:540,-0.381317,-0.001495,-0.318268,-0.003939,0.00016299999999999998,0.001838,-20.25,-2.68,-15.87,3b
2019-07-15_112618:560,-0.376221,-0.001495,-0.315704,-0.004152,0.000499,0.001777,-20.25,-2.68,-15.87,3b
2019-07-15_112618:580,-0.372162,-0.001495,-0.315216,-0.004336,0.000285,0.001381,-20.25,-2.68,-15.87,3b
2019-07-15_112618:600,-0.364532,-0.001007,-0.315704,-0.004671,-0.0007830000000000001,0.001381,-20.0,-2.68,-15.06,3b
2019-07-15_112618:620,-0.361969,-0.001495,-0.318756,-0.0048850000000000005,-0.002583,0.001167,-20.0,-2.68,-15.06,3b
2019-07-15_112618:640,-0.370636,-0.0030210000000000002,-0.326904,-0.0051600000000000005,-0.004567,0.000984,-20.370001000000002,-2.0,-16.25,3b
2019-07-15_112618:660,-0.379272,-0.005065999999999999,-0.32843,-0.005007,-0.0052380000000000005,0.000709,-20.370001000000002,-2.0,-16.25,3b
2019-07-15_112618:680,-0.388916,-0.005065999999999999,-0.32843,-0.004275,-0.003773,0.001442,-20.370001000000002,-2.0,-16.25,3b
2019-07-15_112618:700,-0.386383,-0.007111,-0.327423,-0.0036950000000000004,-0.001759,0.001381,-20.870001000000002,-2.68,-16.0,3b
2019-07-15_112618:720,-0.382812,-0.005065999999999999,-0.32486,-0.003237,-0.000233,0.001167,-20.870001000000002,-2.68,-16.0,3b
2019-07-15_112618:740,-0.379791,-0.0035399999999999997,-0.325378,-0.0028399999999999996,0.0008960000000000001,0.001838,-19.75,-2.37,-16.0,3b
2019-07-15_112618:760,-0.378265,-0.0035399999999999997,-0.322327,-0.003054,0.0014759999999999999,0.001564,-19.75,-2.37,-16.0,3b
2019-07-15_112618:780,-0.377228,-0.0030210000000000002,-0.32132,-0.003176,0.001994,0.001167,-19.75,-2.37,-16.0,3b
2019-07-15_112618:800,-0.376221,-0.0025329999999999997,-0.318756,-0.003512,0.002116,0.00132,-20.5,-2.37,-15.18,3b
2019-07-15_112618:820,-0.37674,-0.004547,-0.319275,-0.0036340000000000005,0.002116,0.000984,-20.5,-2.37,-15.18,3b
2019-07-15_112618:840,-0.380798,-0.006072999999999999,-0.320801,-0.003664,0.0024519999999999998,0.0008619999999999999,-20.870001000000002,-2.37,-16.370001000000002,3b
2019-07-15_112618:860,-0.379272,-0.007599,-0.320801,-0.002993,0.002849,0.001258,-20.870001000000002,-2.37,-16.370001000000002,3b
2019-07-15_112618:880,-0.377228,-0.007111,-0.32132,-0.002535,0.003032,0.000648,-20.870001000000002,-2.37,-16.370001000000002,3b
2019-07-15_112618:900,-0.377228,-0.0055850000000000006,-0.318756,-0.0020469999999999998,0.0031850000000000003,0.000984,-20.5,-2.37,-16.370001000000002,3b
2019-07-15_112618:920,-0.380798,-0.0055850000000000006,-0.318756,-0.0020469999999999998,0.003307,0.001258,-20.5,-2.37,-16.370001000000002,3b
2019-07-15_112618:940,-0.374695,-0.004547,-0.317749,-0.002382,0.003764,0.000923,-19.870001000000002,-2.37,-16.25,3b
2019-07-15_112618:960,-0.369598,-0.004547,-0.316742,-0.002657,0.003032,0.000343,-19.870001000000002,-2.37,-16.25,3b
2019-07-15_112618:980,-0.37011700000000003,-0.004547,-0.316742,-0.0032979999999999997,0.001842,-0.000725,-19.870001000000002,-2.37,-16.25,3b
2019-07-15_112619:000,-0.372162,-0.004059,-0.317749,-0.00339,0.00114,-0.000176,-20.559998999999998,-2.37,-16.059998999999998,3b
2019-07-15_112619:020,-0.375214,-0.006072999999999999,-0.318756,-0.0036340000000000005,0.000407,0.000587,-20.559998999999998,-2.37,-16.059998999999998,3b
2019-07-15_112619:040,-0.37265,-0.005065999999999999,-0.318756,-0.0036950000000000004,0.00016299999999999998,0.00028199999999999997,-20.559998999999998,-2.68,-16.370001000000002,3b
2019-07-15_112619:060,-0.370636,-0.004059,-0.318756,-0.0037560000000000002,-0.000264,0.000221,-20.559998999999998,-2.68,-16.370001000000002,3b
2019-07-15_112619:080,-0.372162,-0.004547,-0.322845,-0.003878,-0.0008439999999999999,6.8e-05,-20.559998999999998,-2.68,-16.370001000000002,3b
2019-07-15_112619:100,-0.375214,-0.0035399999999999997,-0.323853,-0.0036950000000000004,-0.001302,0.000465,-20.559998999999998,-2.37,-17.18,3b
2019-07-15_112619:120,-0.377228,-0.0035399999999999997,-0.324371,-0.0037560000000000002,-0.001302,0.000709,-20.559998999999998,-2.37,-17.18,3b
2019-07-15_112619:140,-0.375702,-0.0030210000000000002,-0.325897,-0.004152,-0.0009660000000000001,0.000709,-20.18,-1.56,-14.5,3b
2019-07-15_112619:160,-0.377747,-0.004059,-0.326385,-0.004091,-0.001057,0.0008619999999999999,-20.18,-1.56,-14.5,3b
2019-07-15_112619:180,-0.379791,-0.0030210000000000002,-0.327911,-0.004336,-0.00011100000000000001,0.00132,-20.18,-1.56,-14.5,3b
2019-07-15_112619:200,-0.378754,-0.0030210000000000002,-0.325897,-0.004397,0.000468,0.0018989999999999999,-20.559998999999998,-2.68,-16.059998999999998,3b
2019-07-15_112619:220,-0.375214,-0.005065999999999999,-0.327423,-0.004671,0.001598,0.00132,-20.559998999999998,-2.68,-16.059998999999998,3b
2019-07-15_112619:240,-0.373688,-0.0025329999999999997,-0.325897,-0.004824,0.001842,0.000984,-21.0,-2.37,-16.059998999999998,3b
2019-07-15_112619:260,-0.375214,-0.004547,-0.325897,-0.0048850000000000005,0.001994,0.002357,-21.0,-2.37,-16.059998999999998,3b
2019-07-15_112619:280,-0.377228,-0.006072999999999999,-0.326904,-0.005007,0.002177,0.001655,-21.0,-2.37,-16.059998999999998,3b
2019-07-15_112619:300,-0.374176,-0.007111,-0.326904,-0.005129,0.003093,0.001258,-20.559998999999998,-2.37,-16.25,3b
2019-07-15_112619:320,-0.375702,-0.008118,-0.325897,-0.004732,0.00352,0.001258,-20.559998999999998,-2.37,-16.25,3b
2019-07-15_112619:340,-0.376221,-0.007111,-0.324371,-0.00461,0.004039,0.000648,-20.559998999999998,-2.68,-16.25,3b
2019-07-15_112619:360,-0.374695,-0.006592,-0.322327,-0.004,0.004161,0.0007700000000000001,-20.559998999999998,-2.68,-16.25,3b
2019-07-15_112619:380,-0.371643,-0.0055850000000000006,-0.321808,-0.0036340000000000005,0.004222,0.000709,-20.559998999999998,-2.68,-16.25,3b
2019-07-15_112619:400,-0.37316900000000003,-0.005065999999999999,-0.320801,-0.0034509999999999996,0.003703,0.000496,-21.0,-2.37,-15.56,3b
2019-07-15_112619:420,-0.377747,-0.005065999999999999,-0.319275,-0.003176,0.003368,0.00016,-21.0,-2.37,-15.56,3b
2019-07-15_112619:440,-0.377747,-0.0025329999999999997,-0.318756,-0.0032979999999999997,0.003764,0.00016,-20.559998999999998,-2.0,-15.56,3b
2019-07-15_112619:460,-0.376221,-0.0035399999999999997,-0.319275,-0.0036950000000000004,0.003368,0.000496,-20.559998999999998,-2.0,-15.56,3b
2019-07-15_112619:480,-0.378265,-0.004547,-0.318756,-0.003817,0.00352,0.000587,-20.559998999999998,-2.0,-15.56,3b
2019-07-15_112619:500,-0.376221,-0.005065999999999999,-0.318268,-0.004,0.00349,0.0007700000000000001,-21.0,-2.37,-15.06,3b
2019-07-15_112619:520,-0.375214,-0.006592,-0.316223,-0.003817,0.0035810000000000004,0.000984,-21.0,-2.37,-15.06,3b
2019-07-15_112619:540,-0.377747,-0.006592,-0.316223,-0.0036340000000000005,0.003124,0.0007700000000000001,-21.0,-2.68,-16.0,3b
2019-07-15_112619:560,-0.38385,-0.0025329999999999997,-0.312653,-0.003512,0.003368,0.000526,-21.0,-2.68,-16.0,3b
2019-07-15_112619:580,-0.35131799999999996,-0.005065999999999999,-0.320282,-0.0034509999999999996,0.003917,0.000496,-21.0,-2.68,-16.0,3b
2019-07-15_112619:600,-0.382812,-0.0025329999999999997,-0.31723,-0.003573,0.0016589999999999999,0.000496,-20.559998999999998,-2.0,-14.75,3b
2019-07-15_112619:620,-0.381805,-0.004059,-0.314697,-0.003939,0.001415,0.000648,-20.559998999999998,-2.0,-14.75,3b
2019-07-15_112619:640,-0.384857,-0.004547,-0.318756,-0.004275,0.0012619999999999999,0.000709,-21.0,-2.0,-16.0,3b
2019-07-15_112619:660,-0.384857,-0.0035399999999999997,-0.319794,-0.004549,0.002391,0.000587,-21.0,-2.0,-16.0,3b
2019-07-15_112619:680,-0.372162,-0.007111,-0.319794,-0.004732,0.002971,0.000465,-21.0,-2.0,-16.0,3b
2019-07-15_112619:700,-0.37265,-0.008118,-0.322327,-0.00461,0.002788,0.000221,-21.370001000000002,-2.37,-14.75,3b
2019-07-15_112619:720,-0.377747,-0.010162000000000001,-0.318756,-0.004275,0.002574,0.00016,-21.370001000000002,-2.37,-14.75,3b
2019-07-15_112619:740,-0.378754,-0.009644,-0.318756,-0.003817,0.0024519999999999998,7.000000000000001e-06,-21.68,-3.06,-16.0,3b
2019-07-15_112619:760,-0.380798,-0.008636,-0.317749,-0.003176,0.002757,-0.000176,-21.68,-3.06,-16.0,3b
2019-07-15_112619:780,-0.375702,-0.007599,-0.318268,-0.0025960000000000002,0.003032,-5.4000000000000005e-05,-21.68,-3.06,-16.0,3b
2019-07-15_112619:800,-0.37674,-0.006592,-0.317749,-0.002199,0.002849,-0.000176,-20.559998999999998,-2.0,-15.18,3b
2019-07-15_112619:820,-0.379791,-0.0055850000000000006,-0.31723,-0.001925,0.002574,-0.000267,-20.559998999999998,-2.0,-15.18,3b
2019-07-15_112619:840,-0.380798,-0.004547,-0.316223,-0.001986,0.002574,-0.000389,-20.559998999999998,-2.68,-15.18,3b
2019-07-15_112619:860,-0.381805,-0.004547,-0.31723,-0.002199,0.002513,0.000129,-20.559998999999998,-2.68,-15.18,3b
2019-07-15_112619:880,-0.380798,-0.005065999999999999,-0.318756,-0.002779,0.0029100000000000003,0.001167,-20.559998999999998,-2.68,-15.18,3b
2019-07-15_112619:900,-0.383331,-0.007111,-0.313171,-0.0029010000000000004,0.002696,0.001167,-20.559998999999998,-2.0,-15.06,3b
2019-07-15_112619:920,-0.378265,-0.006592,-0.314697,-0.003176,0.002971,0.000587,-20.559998999999998,-2.0,-15.06,3b
2019-07-15_112619:940,-0.382812,-0.008636,-0.318756,-0.0033280000000000002,0.002757,-0.000634,-21.0,-1.56,-15.06,3b
2019-07-15_112619:960,-0.381805,-0.006592,-0.315704,-0.002993,0.0031850000000000003,-0.000634,-21.0,-1.56,-15.06,3b
2019-07-15_112619:980,-0.37316900000000003,-0.008118,-0.320282,-0.0029010000000000004,0.0031850000000000003,0.00016,-21.0,-1.56,-15.06,3b
2019-07-15_112620:000,-0.377228,-0.007111,-0.31723,-0.0031149999999999997,0.002635,-0.000176,-21.370001000000002,-2.0,-15.56,3b
2019-07-15_112620:020,-0.375702,-0.008118,-0.315216,-0.002993,0.002361,-0.000176,-21.370001000000002,-2.0,-15.56,3b
2019-07-15_112620:040,-0.383331,-0.008636,-0.31369,-0.002779,0.0023,-0.00011499999999999999,-20.559998999999998,-2.0,-15.68,3b
2019-07-15_112620:060,-0.38028,-0.009644,-0.312653,-0.002779,0.002788,-0.000176,-20.559998999999998,-2.0,-15.68,3b
2019-07-15_112620:080,-0.377747,-0.009644,-0.314697,-0.002443,0.003032,-0.00045099999999999996,-20.559998999999998,-2.0,-15.68,3b
2019-07-15_112620:100,-0.35791,-0.008118,-0.319794,-0.002382,0.0024519999999999998,-0.00045099999999999996,-20.559998999999998,-2.37,-14.87,3b
2019-07-15_112620:120,-0.394012,-0.006072999999999999,-0.314697,-0.0022600000000000003,0.00016299999999999998,-0.000634,-20.559998999999998,-2.37,-14.87,3b
2019-07-15_112620:140,-0.385376,-0.0055850000000000006,-0.314697,-0.002718,0.000865,-0.0009689999999999999,-21.370001000000002,-2.37,-15.18,3b
2019-07-15_112620:160,-0.388428,-0.0030210000000000002,-0.316223,-0.0029010000000000004,0.001598,-0.000634,-21.370001000000002,-2.37,-15.18,3b
2019-07-15_112620:180,-0.382812,-0.0055850000000000006,-0.318756,-0.003512,0.002849,-0.000328,-21.370001000000002,-2.37,-15.18,3b
2019-07-15_112620:200,-0.394012,-0.0030210000000000002,-0.314697,-0.003817,0.003307,-0.0010609999999999999,-20.559998999999998,-2.37,-14.87,3b
2019-07-15_112620:220,-0.367584,-0.004547,-0.319275,-0.004336,0.004436,-0.000512,-20.559998999999998,-2.37,-14.87,3b
2019-07-15_112620:240,-0.375214,-0.004059,-0.319275,-0.004397,0.002788,-0.00011499999999999999,-19.870001000000002,-2.68,-14.75,3b
2019-07-15_112620:260,-0.379272,-0.006592,-0.314178,-0.004549,0.001842,-0.000573,-19.870001000000002,-2.68,-14.75,3b
2019-07-15_112620:280,-0.381317,-0.006592,-0.31369,-0.004,0.001415,-0.000573,-19.870001000000002,-2.68,-14.75,3b
2019-07-15_112620:300,-0.381317,-0.0055850000000000006,-0.315216,-0.003573,0.0012619999999999999,-0.000512,-21.370001000000002,-2.68,-16.0,3b
2019-07-15_112620:320,-0.38385,-0.005065999999999999,-0.312653,-0.003176,0.00172,-0.000573,-21.370001000000002,-2.68,-16.0,3b
2019-07-15_112620:340,-0.385864,-0.0030210000000000002,-0.314697,-0.002779,0.001994,-0.000267,-21.0,-2.37,-15.56,3b
2019-07-15_112620:360,-0.382812,-0.0035399999999999997,-0.314697,-0.002535,0.002849,-0.00023700000000000001,-21.0,-2.37,-15.56,3b
2019-07-15_112620:380,-0.381317,-0.004059,-0.314697,-0.002779,0.002971,-0.000389,-21.0,-2.37,-15.56,3b
2019-07-15_112620:400,-0.379272,-0.0030210000000000002,-0.314178,-0.002718,0.0029100000000000003,-0.00023700000000000001,-21.68,-2.37,-16.25,3b
2019-07-15_112620:420,-0.384338,-0.004547,-0.311646,-0.0029010000000000004,0.002239,-0.000512,-21.68,-2.37,-16.25,3b
2019-07-15_112620:440,-0.386383,-0.006072999999999999,-0.31369,-0.002657,0.002361,-0.000634,-21.0,-2.0,-16.25,3b
2019-07-15_112620:460,-0.38385,-0.006592,-0.314697,-0.0025960000000000002,0.002635,-0.000664,-21.0,-2.0,-16.25,3b
2019-07-15_112620:480,-0.380798,-0.005065999999999999,-0.31369,-0.0025960000000000002,0.002757,-0.000634,-21.0,-2.0,-16.25,3b
2019-07-15_112620:500,-0.379272,-0.005065999999999999,-0.31369,-0.002535,0.0029100000000000003,-0.000328,-20.18,-2.37,-14.37,3b
2019-07-15_112620:520,-0.385376,-0.004547,-0.311646,-0.002443,0.002849,-0.000389,-20.18,-2.37,-14.37,3b
2019-07-15_112620:540,-0.37674,-0.001007,-0.311646,-0.002382,0.00352,7.000000000000001e-06,-20.559998999999998,-3.06,-14.75,3b
2019-07-15_112620:560,-0.37265,-0.004547,-0.31369,-0.0028399999999999996,0.002177,-0.00023700000000000001,-20.559998999999998,-3.06,-14.75,3b
2019-07-15_112620:580,-0.379272,-0.001495,-0.310638,-0.002993,0.00114,0.000129,-20.559998999999998,-3.06,-14.75,3b
2019-07-15_112620:600,-0.386383,-0.0030210000000000002,-0.311127,-0.0032979999999999997,0.001018,0.000496,-21.68,-2.68,-15.06,3b
2019-07-15_112620:620,-0.37112399999999995,-0.0030210000000000002,-0.312164,-0.003817,0.001201,0.000343,-21.68,-2.68,-15.06,3b
2019-07-15_112620:640,-0.386902,-0.0025329999999999997,-0.31369,-0.003939,0.000499,0.0008619999999999999,-20.18,-3.5,-15.56,3b
2019-07-15_112620:660,-0.389954,-0.004547,-0.311646,-0.004427,0.000865,0.001167,-20.18,-3.5,-15.56,3b
2019-07-15_112620:680,-0.391479,-0.006592,-0.31012,-0.004549,0.0014759999999999999,0.000709,-20.18,-3.5,-15.56,3b
2019-07-15_112620:700,-0.38028,-0.009125,-0.312164,-0.004488000000000001,0.002788,0.000709,-20.559998999999998,-2.37,-15.06,3b
2019-07-15_112620:720,-0.38385,-0.006592,-0.315704,-0.004,0.0016589999999999999,0.000923,-20.559998999999998,-2.37,-15.06,3b
2019-07-15_112620:740,-0.382324,-0.008118,-0.313171,-0.003664,0.001598,0.0007700000000000001,-20.559998999999998,-2.37,-16.0,3b
2019-07-15_112620:760,-0.383331,-0.006072999999999999,-0.312653,-0.003237,0.001628,0.000587,-20.559998999999998,-2.37,-16.0,3b
2019-07-15_112620:780,-0.381805,-0.005065999999999999,-0.311127,-0.0032979999999999997,0.0014759999999999999,0.0008619999999999999,-20.559998999999998,-2.37,-16.0,3b
2019-07-15_112620:800,-0.381805,-0.004059,-0.311127,-0.003512,0.0016589999999999999,0.0008619999999999999,-20.559998999999998,-2.68,-16.0,3b
2019-07-15_112620:820,-0.381805,-0.005065999999999999,-0.312653,-0.0037560000000000002,0.0012619999999999999,0.000465,-20.559998999999998,-2.68,-16.0,3b
2019-07-15_112620:840,-0.384857,-0.0030210000000000002,-0.312164,-0.004336,0.0012619999999999999,0.000709,-20.559998999999998,-2.37,-15.56,3b
2019-07-15_112620:860,-0.38739,-0.0035399999999999997,-0.311646,-0.004549,0.001415,0.001503,-20.559998999999998,-2.37,-15.56,3b
2019-07-15_112620:880,-0.390442,-0.004547,-0.312164,-0.004732,0.002055,0.0007700000000000001,-20.559998999999998,-2.37,-15.56,3b
2019-07-15_112620:900,-0.385376,-0.006072999999999999,-0.312653,-0.004732,0.002635,0.000465,-20.559998999999998,-2.37,-14.75,3b
2019-07-15_112620:920,-0.381317,-0.009644,-0.314178,-0.004091,0.003032,6.8e-05,-20.559998999999998,-2.37,-14.75,3b
2019-07-15_112620:940,-0.38028,-0.008118,-0.314697,-0.003237,0.002696,-5.4000000000000005e-05,-20.18,-2.75,-15.56,3b
2019-07-15_112620:960,-0.378265,-0.006072999999999999,-0.313171,-0.002443,0.001842,0.000465,-20.18,-2.75,-15.56,3b
2019-07-15_112620:980,-0.379791,-0.004547,-0.314697,-0.001986,0.0010789999999999999,0.000465,-20.18,-2.75,-15.56,3b
2019-07-15_112621:000,-0.383331,-0.004059,-0.313171,-0.002321,0.00022400000000000002,-5.4000000000000005e-05,-21.370001000000002,-2.75,-15.56,3b
2019-07-15_112621:020,-0.389954,-0.004547,-0.312653,-0.0029010000000000004,0.00022400000000000002,0.000129,-21.370001000000002,-2.75,-15.56,3b
2019-07-15_112621:040,-0.382324,-0.0030210000000000002,-0.312164,-0.0033280000000000002,0.0009570000000000001,0.000221,-20.559998999999998,-2.37,-15.06,3b
2019-07-15_112621:060,-0.392487,-0.0035399999999999997,-0.312653,-0.0036340000000000005,0.002116,0.000343,-20.559998999999998,-2.37,-15.06,3b
2019-07-15_112621:080,-0.384338,-0.0055850000000000006,-0.30654899999999996,-0.0036950000000000004,0.003307,-0.001,-20.559998999999998,-2.37,-15.06,3b
2019-07-15_112621:100,-0.36706500000000003,-0.006072999999999999,-0.315216,-0.0034509999999999996,0.004497,-0.002037,-19.870001000000002,-2.68,-14.75,3b
2019-07-15_112621:120,-0.382324,-0.004547,-0.307587,-0.002718,0.0023,-0.001366,-19.870001000000002,-2.68,-14.75,3b
2019-07-15_112621:140,-0.368591,-0.0055850000000000006,-0.308594,-0.002199,0.001201,-0.0010609999999999999,-21.0,-2.5,-15.56,3b
2019-07-15_112621:160,-0.375214,-0.002014,-0.309113,-0.0018030000000000001,0.000499,-0.000908,-21.0,-2.5,-15.56,3b
2019-07-15_112621:180,-0.375214,-0.000488,-0.312653,-0.001986,-0.00044699999999999997,-0.001397,-21.0,-2.5,-15.56,3b
2019-07-15_112621:200,-0.381805,0.001495,-0.31369,-0.002169,-0.0007830000000000001,-0.0012439999999999999,-20.559998999999998,-2.75,-16.0,3b
2019-07-15_112621:220,-0.383331,0.001495,-0.316742,-0.0025960000000000002,-0.0007830000000000001,-0.000512,-20.559998999999998,-2.75,-16.0,3b
2019-07-15_112621:240,-0.382324,0.000488,-0.317749,-0.002657,-0.000325,-0.000176,-21.0,-1.68,-14.75,3b
2019-07-15_112621:260,-0.381805,0.001007,-0.31723,-0.0031149999999999997,7.2e-05,0.000587,-21.0,-1.68,-14.75,3b
2019-07-15_112621:280,-0.38385,0.0,-0.318268,-0.003237,0.000285,0.001442,-21.0,-1.68,-14.75,3b
2019-07-15_112621:300,-0.38385,-0.000488,-0.316223,-0.003512,0.00016299999999999998,0.001838,-19.870001000000002,-2.75,-15.06,3b
2019-07-15_112621:320,-0.382812,0.000488,-0.316223,-0.003939,0.00022400000000000002,0.002388,-19.870001000000002,-2.75,-15.06,3b
2019-07-15_112621:340,-0.38028,0.0,-0.316742,-0.004549,0.00022400000000000002,0.002845,-20.559998999999998,-2.5,-15.06,3b
2019-07-15_112621:360,-0.384338,-0.002014,-0.315216,-0.0051600000000000005,0.00016299999999999998,0.002449,-20.559998999999998,-2.5,-15.06,3b
2019-07-15_112621:380,-0.38385,-0.0030210000000000002,-0.315216,-0.005526,0.001018,0.002235,-20.559998999999998,-2.5,-15.06,3b
2019-07-15_112621:400,-0.377228,-0.007599,-0.316223,-0.005526,0.0016589999999999999,0.002235,-19.870001000000002,-2.5,-15.06,3b
2019-07-15_112621:420,-0.375214,-0.007599,-0.315704,-0.005129,0.001598,0.001838,-19.870001000000002,-2.5,-15.06,3b
2019-07-15_112621:440,-0.371643,-0.008118,-0.320282,-0.004488000000000001,0.0008960000000000001,0.001716,-21.0,-2.75,-14.75,3b
2019-07-15_112621:460,-0.371643,-0.008636,-0.319794,-0.003939,0.00016299999999999998,0.001564,-21.0,-2.75,-14.75,3b
2019-07-15_112621:480,-0.375214,-0.008118,-0.31723,-0.003512,-0.000172,0.001045,-21.0,-2.75,-14.75,3b
2019-07-15_112621:500,-0.38028,-0.006592,-0.318756,-0.003237,7.2e-05,0.0008619999999999999,-19.870001000000002,-2.5,-14.75,3b
2019-07-15_112621:520,-0.38028,-0.006072999999999999,-0.316742,-0.003237,0.000407,0.000831,-19.870001000000002,-2.5,-14.75,3b
2019-07-15_112621:540,-0.381317,-0.004547,-0.318756,-0.003512,0.0009570000000000001,0.000984,-20.559998999999998,-2.75,-15.56,3b
2019-07-15_112621:560,-0.379272,-0.004547,-0.317749,-0.0036950000000000004,0.0009570000000000001,0.0008619999999999999,-20.559998999999998,-2.75,-15.56,3b
2019-07-15_112621:580,-0.379791,-0.005065999999999999,-0.318756,-0.004091,0.0008960000000000001,0.000587,-20.559998999999998,-2.75,-15.56,3b
2019-07-15_112621:600,-0.381317,-0.004547,-0.32132,-0.004397,0.0008960000000000001,0.0008619999999999999,-21.0,-2.75,-14.37,3b
2019-07-15_112621:620,-0.379272,-0.006592,-0.317749,-0.004152,0.001292,0.001167,-21.0,-2.75,-14.37,3b
2019-07-15_112621:640,-0.37674,-0.006592,-0.31723,-0.004213000000000001,0.001018,0.000923,-21.0,-2.5,-16.0,3b
2019-07-15_112621:660,-0.379272,-0.006072999999999999,-0.319275,-0.004427,0.0008960000000000001,0.0007700000000000001,-21.0,-2.5,-16.0,3b
2019-07-15_112621:680,-0.381317,-0.0055850000000000006,-0.317749,-0.004336,0.001537,0.001228,-21.0,-2.5,-16.0,3b
2019-07-15_112621:700,-0.385864,-0.006592,-0.320801,-0.004397,0.0016589999999999999,0.00132,-21.0,-2.5,-16.25,3b
2019-07-15_112621:720,-0.384338,-0.007111,-0.319794,-0.004275,0.002361,0.000465,-21.0,-2.5,-16.25,3b
2019-07-15_112621:740,-0.385376,-0.007111,-0.318268,-0.004,0.0029100000000000003,0.000221,-21.0,-2.75,-16.0,3b
2019-07-15_112621:760,-0.381317,-0.007599,-0.315216,-0.003573,0.003307,0.00016,-21.0,-2.75,-16.0,3b
2019-07-15_112621:780,-0.377747,-0.006592,-0.314697,-0.003176,0.0034289999999999998,0.000496,-21.0,-2.75,-16.0,3b
2019-07-15_112621:800,-0.374695,-0.0055850000000000006,-0.315216,-0.003176,0.002971,0.0007700000000000001,-20.18,-2.75,-15.56,3b
2019-07-15_112621:820,-0.377228,-0.004547,-0.31369,-0.002779,0.0023,-0.00011499999999999999,-20.18,-2.75,-15.56,3b
2019-07-15_112621:840,-0.381805,-0.004547,-0.315216,-0.002779,0.001964,-0.000573,-20.559998999999998,-2.5,-15.56,3b
2019-07-15_112621:860,-0.380798,-0.001495,-0.312653,-0.003176,0.002116,0.000923,-20.559998999999998,-2.5,-15.56,3b
2019-07-15_112621:880,-0.381317,-0.004547,-0.313171,-0.003573,0.001994,0.001106,-20.559998999999998,-2.5,-15.56,3b
2019-07-15_112621:900,-0.377228,-0.0035399999999999997,-0.31369,-0.0036340000000000005,0.001628,0.0007700000000000001,-20.18,-2.06,-16.0,3b
2019-07-15_112621:920,-0.378265,-0.0055850000000000006,-0.315704,-0.0036340000000000005,0.001018,-0.000176,-20.18,-2.06,-16.0,3b
2019-07-15_112621:940,-0.378754,-0.0055850000000000006,-0.316223,-0.0037560000000000002,0.00114,-0.000664,-21.0,-2.75,-14.75,3b
2019-07-15_112621:960,-0.382812,-0.004547,-0.318268,-0.003237,0.001353,0.0007700000000000001,-21.0,-2.75,-14.75,3b
2019-07-15_112621:980,-0.380798,-0.006072999999999999,-0.318756,-0.003054,0.0019030000000000002,0.00132,-21.0,-2.75,-14.75,3b
2019-07-15_112622:000,-0.382812,-0.0055850000000000006,-0.316742,-0.003176,0.002391,0.0007700000000000001,-20.18,-2.06,-15.06,3b
2019-07-15_112622:020,-0.382324,-0.0055850000000000006,-0.317749,-0.0032979999999999997,0.0031850000000000003,0.001045,-20.18,-2.06,-15.06,3b
2019-07-15_112622:040,-0.379791,-0.004547,-0.31723,-0.00339,0.003307,0.001106,-21.0,-3.18,-15.56,3b
2019-07-15_112622:060,-0.379791,-0.005065999999999999,-0.319275,-0.004275,0.003124,0.001045,-21.0,-3.18,-15.56,3b
2019-07-15_112622:080,-0.379791,-0.007111,-0.318268,-0.004488000000000001,0.002971,0.000831,-21.0,-3.18,-15.56,3b
2019-07-15_112622:100,-0.380798,-0.009644,-0.317749,-0.004427,0.0029100000000000003,0.000709,-21.0,-2.75,-14.75,3b
2019-07-15_112622:120,-0.381805,-0.009125,-0.314697,-0.004213000000000001,0.0035810000000000004,0.00016,-21.0,-2.75,-14.75,3b
2019-07-15_112622:140,-0.383331,-0.007111,-0.31369,-0.004,0.003703,0.000496,-21.370001000000002,-1.68,-15.56,3b
2019-07-15_112622:160,-0.382324,-0.007111,-0.31369,-0.0036950000000000004,0.003886,0.000984,-21.370001000000002,-1.68,-15.56,3b
2019-07-15_112622:180,-0.379791,-0.004547,-0.313171,-0.00403,0.0034289999999999998,0.000526,-21.370001000000002,-1.68,-15.56,3b
2019-07-15_112622:200,-0.38028,-0.004547,-0.312164,-0.004213000000000001,0.003124,0.000709,-21.0,-2.5,-14.75,3b
2019-07-15_112622:220,-0.381317,-0.004059,-0.311646,-0.004824,0.002574,0.001045,-21.0,-2.5,-14.75,3b
2019-07-15_112622:240,-0.381805,-0.006072999999999999,-0.312653,-0.005129,0.002391,0.000709,-21.370001000000002,-2.75,-15.56,3b
2019-07-15_112622:260,-0.385376,-0.007111,-0.311646,-0.0051600000000000005,0.002361,0.000923,-21.370001000000002,-2.75,-15.56,3b
2019-07-15_112622:280,-0.385864,-0.007599,-0.313171,-0.005007,0.0023,0.001106,-21.370001000000002,-2.75,-15.56,3b
2019-07-15_112622:300,-0.383331,-0.008118,-0.312164,-0.004549,0.002635,0.001106,-21.0,-2.5,-15.06,3b
2019-07-15_112622:320,-0.382812,-0.006592,-0.310638,-0.004213000000000001,0.002391,0.001106,-21.0,-2.5,-15.06,3b
2019-07-15_112622:340,-0.382324,-0.006072999999999999,-0.311646,-0.004275,0.0023,0.001258,-21.370001000000002,-2.5,-15.56,3b
2019-07-15_112622:360,-0.382324,-0.005065999999999999,-0.312653,-0.004397,0.002177,0.000984,-21.370001000000002,-2.5,-15.56,3b
2019-07-15_112622:380,-0.381805,-0.005065999999999999,-0.312653,-0.004549,0.0017809999999999998,0.00016,-21.370001000000002,-2.5,-15.56,3b
2019-07-15_112622:400,-0.384338,-0.005065999999999999,-0.312653,-0.004488000000000001,0.001964,-0.00011499999999999999,-21.68,-2.75,-15.56,3b
2019-07-15_112622:420,-0.385376,-0.004547,-0.312164,-0.00461,0.001964,-5.4000000000000005e-05,-21.68,-2.75,-15.56,3b
2019-07-15_112622:440,-0.386383,-0.004547,-0.311646,-0.004549,0.002239,6.8e-05,-21.68,-2.75,-14.75,3b
2019-07-15_112622:460,-0.386383,-0.004059,-0.310638,-0.004427,0.002635,0.000831,-21.68,-2.75,-14.75,3b
2019-07-15_112622:480,-0.384338,-0.004059,-0.311127,-0.004488000000000001,0.0029100000000000003,0.0008619999999999999,-21.68,-2.75,-14.75,3b
2019-07-15_112622:500,-0.383331,-0.0035399999999999997,-0.311127,-0.004488000000000001,0.002513,0.000923,-22.75,-2.5,-15.56,3b
2019-07-15_112622:520,-0.384338,-0.004547,-0.309601,-0.004671,0.002239,0.000923,-22.75,-2.5,-15.56,3b
2019-07-15_112622:540,-0.383331,-0.006592,-0.311127,-0.00461,0.002055,0.0008619999999999999,-21.0,-2.75,-14.75,3b
2019-07-15_112622:560,-0.38385,-0.007111,-0.311646,-0.004397,0.002055,0.000831,-21.0,-2.75,-14.75,3b
2019-07-15_112622:580,-0.385864,-0.007111,-0.310638,-0.0037560000000000002,0.001994,0.000343,-21.0,-2.75,-14.75,3b
2019-07-15_112622:600,-0.38385,-0.007599,-0.311127,-0.0036340000000000005,0.002177,0.000129,-22.0,-1.68,-15.56,3b
2019-07-15_112622:620,-0.384338,-0.007111,-0.310638,-0.003054,0.001994,-0.00011499999999999999,-22.0,-1.68,-15.56,3b
2019-07-15_112622:640,-0.383331,-0.004547,-0.311127,-0.0028399999999999996,0.002055,-5.4000000000000005e-05,-21.370001000000002,-2.5,-14.37,3b
2019-07-15_112622:660,-0.385376,-0.0030210000000000002,-0.31012,-0.002932,0.002239,6.8e-05,-21.370001000000002,-2.5,-14.37,3b
2019-07-15_112622:680,-0.383331,-0.000488,-0.309601,-0.00339,0.002055,7.000000000000001e-06,-21.370001000000002,-2.5,-14.37,3b
2019-07-15_112622:700,-0.384857,-0.002014,-0.309601,-0.004091,0.001842,0.000129,-20.559998999999998,-3.18,-14.75,3b
2019-07-15_112622:720,-0.384857,-0.0025329999999999997,-0.308594,-0.004732,0.001842,0.00016,-20.559998999999998,-3.18,-14.75,3b
2019-07-15_112622:740,-0.385864,-0.004547,-0.309601,-0.005007,0.001994,0.000343,-20.559998999999998,-3.18,-14.75,3b
2019-07-15_112622:760,-0.38385,-0.004547,-0.309601,-0.0048850000000000005,0.00172,0.00028199999999999997,-21.0,-1.68,-15.56,3b
2019-07-15_112622:780,-0.381805,-0.005065999999999999,-0.307587,-0.004671,0.001537,0.000404,-21.0,-1.68,-15.56,3b
2019-07-15_112622:800,-0.38385,-0.0035399999999999997,-0.31012,-0.004152,0.001292,0.000648,-20.18,-2.75,-14.0,3b
2019-07-15_112622:820,-0.385376,-0.004547,-0.309113,-0.003878,0.00114,0.000587,-20.18,-2.75,-14.0,3b
2019-07-15_112622:840,-0.386383,-0.0025329999999999997,-0.308594,-0.0036340000000000005,0.0008960000000000001,0.000129,-20.559998999999998,-2.5,-15.06,3b
2019-07-15_112622:860,-0.388916,-0.002014,-0.308075,-0.003573,0.000865,0.001106,-20.559998999999998,-2.5,-15.06,3b
2019-07-15_112622:880,-0.387909,-0.0030210000000000002,-0.308594,-0.0036950000000000004,0.001201,0.000984,-20.559998999999998,-2.5,-15.06,3b
2019-07-15_112622:900,-0.384338,-0.001007,-0.309601,-0.004091,0.001628,0.000221,-21.68,-2.5,-15.06,3b
2019-07-15_112622:920,-0.381317,-0.004547,-0.31012,-0.004,0.001415,0.000465,-21.68,-2.5,-15.06,3b
2019-07-15_112622:940,-0.382812,-0.002014,-0.311127,-0.00403,0.001201,-0.000725,-21.68,-2.5,-15.06,3b
2019-07-15_112622:960,-0.382812,-0.004059,-0.311127,-0.003817,0.0010789999999999999,6.8e-05,-21.370001000000002,-2.75,-14.0,3b
2019-07-15_112622:980,-0.382324,-0.004547,-0.309113,-0.003573,0.000743,0.000984,-21.370001000000002,-2.75,-14.0,3b
2019-07-15_112623:000,-0.381317,-0.002014,-0.310638,-0.0033280000000000002,0.000621,0.000587,-20.559998999999998,-2.06,-14.0,3b
2019-07-15_112623:020,-0.381805,-0.002014,-0.309601,-0.003237,0.00056,0.000923,-20.559998999999998,-2.06,-14.0,3b
2019-07-15_112623:040,-0.382812,-0.001007,-0.312653,-0.003573,0.000407,0.000923,-20.559998999999998,-2.06,-14.0,3b
2019-07-15_112623:060,-0.384338,-0.002014,-0.313171,-0.004,0.000499,0.000831,-21.370001000000002,-3.18,-15.06,3b
2019-07-15_112623:080,-0.384338,-0.0030210000000000002,-0.312653,-0.004427,0.000407,0.000831,-21.370001000000002,-3.18,-15.06,3b
2019-07-15_112623:100,-0.385864,-0.004059,-0.312653,-0.004488000000000001,0.000499,0.000587,-21.370001000000002,-2.75,-15.56,3b
2019-07-15_112623:120,-0.385376,-0.006072999999999999,-0.313171,-0.004275,0.0008960000000000001,0.0007700000000000001,-21.370001000000002,-2.75,-15.56,3b
2019-07-15_112623:140,-0.384338,-0.005065999999999999,-0.314697,-0.003878,0.001201,0.001258,-21.370001000000002,-2.75,-15.56,3b
2019-07-15_112623:160,-0.382812,-0.004547,-0.314178,-0.0034509999999999996,0.0012619999999999999,0.001258,-21.68,-3.18,-14.0,3b
2019-07-15_112623:180,-0.382324,-0.0030210000000000002,-0.31369,-0.0033280000000000002,0.001537,6.8e-05,-21.68,-3.18,-14.0,3b
2019-07-15_112623:200,-0.380798,-0.0030210000000000002,-0.313171,-0.0034509999999999996,0.0012619999999999999,0.000496,-21.0,-2.5,-15.56,3b
2019-07-15_112623:220,-0.381317,-0.004547,-0.31369,-0.0036340000000000005,0.0008960000000000001,0.0008619999999999999,-21.0,-2.5,-15.56,3b
2019-07-15_112623:240,-0.381805,-0.0030210000000000002,-0.314697,-0.003878,0.00114,0.000496,-21.370001000000002,-2.75,-14.75,3b
2019-07-15_112623:260,-0.382324,-0.0035399999999999997,-0.315216,-0.004091,0.001018,0.000648,-21.370001000000002,-2.75,-14.75,3b
2019-07-15_112623:280,-0.382812,-0.004059,-0.31369,-0.00403,0.001353,0.000526,-21.370001000000002,-2.75,-14.75,3b
2019-07-15_112623:300,-0.380798,-0.0035399999999999997,-0.314178,-0.00403,0.00172,0.000465,-20.559998999999998,-2.5,-15.06,3b
2019-07-15_112623:320,-0.381317,-0.004547,-0.313171,-0.0037560000000000002,0.001628,0.000465,-20.559998999999998,-2.5,-15.06,3b
2019-07-15_112623:340,-0.381805,-0.0030210000000000002,-0.314178,-0.003664,0.0016589999999999999,0.000526,-20.559998999999998,-2.5,-15.06,3b
2019-07-15_112623:360,-0.381317,-0.0030210000000000002,-0.314178,-0.0034509999999999996,0.001628,0.000587,-20.559998999999998,-3.18,-14.75,3b
2019-07-15_112623:380,-0.380798,-0.0035399999999999997,-0.313171,-0.003664,0.0016589999999999999,0.000831,-20.559998999999998,-3.18,-14.75,3b
2019-07-15_112623:400,-0.381317,-0.0030210000000000002,-0.314697,-0.0036340000000000005,0.001353,0.000709,-21.370001000000002,-2.06,-14.37,3b
2019-07-15_112623:420,-0.38028,-0.005065999999999999,-0.31369,-0.0036340000000000005,0.001201,0.000648,-21.370001000000002,-2.06,-14.37,3b
2019-07-15_112623:440,-0.383331,-0.004059,-0.313171,-0.0036340000000000005,0.001201,0.000496,-21.370001000000002,-2.06,-14.37,3b
2019-07-15_112623:460,-0.384857,-0.004059,-0.314178,-0.003512,0.001292,0.000526,-21.0,-2.5,-15.56,3b
2019-07-15_112623:480,-0.384338,-0.004059,-0.312653,-0.00339,0.001628,0.000587,-21.0,-2.5,-15.56,3b
2019-07-15_112623:500,-0.382812,-0.004059,-0.313171,-0.003512,0.001537,0.0007700000000000001,-21.0,-2.5,-15.06,3b
2019-07-15_112623:520,-0.384338,-0.0035399999999999997,-0.31369,-0.003573,0.001842,0.0008619999999999999,-21.0,-2.5,-15.06,3b
2019-07-15_112623:540,-0.384857,-0.0035399999999999997,-0.314178,-0.003817,0.001994,0.000709,-21.0,-2.5,-15.06,3b
2019-07-15_112623:560,-0.384338,-0.0025329999999999997,-0.315704,-0.004091,0.002055,0.000923,-21.0,-2.06,-16.0,3b
2019-07-15_112623:580,-0.383331,-0.004059,-0.313171,-0.004336,0.0024519999999999998,0.000923,-21.0,-2.06,-16.0,3b
2019-07-15_112623:600,-0.384338,-0.004547,-0.314178,-0.004397,0.002757,0.000831,-22.0,-2.75,-14.37,3b
2019-07-15_112623:620,-0.38385,-0.004059,-0.312164,-0.004336,0.002574,0.000831,-22.0,-2.75,-14.37,3b
2019-07-15_112623:640,-0.382324,-0.006072999999999999,-0.312164,-0.00403,0.002574,0.000648,-22.0,-2.75,-14.37,3b
2019-07-15_112623:660,-0.381805,-0.0055850000000000006,-0.31369,-0.004,0.002635,0.000404,-21.370001000000002,-2.06,-14.75,3b
2019-07-15_112623:680,-0.382324,-0.004547,-0.312653,-0.003939,0.002513,6.8e-05,-21.370001000000002,-2.06,-14.75,3b
2019-07-15_112623:700,-0.382324,-0.004059,-0.311127,-0.003939,0.002574,-5.4000000000000005e-05,-22.370001000000002,-2.75,-14.37,3b
2019-07-15_112623:720,-0.380798,-0.004547,-0.309113,-0.003939,0.002177,-0.00023700000000000001,-22.370001000000002,-2.75,-14.37,3b
2019-07-15_112623:740,-0.380798,-0.0055850000000000006,-0.316742,-0.003878,0.0012619999999999999,-0.000725,-22.370001000000002,-2.75,-14.37,3b
2019-07-15_112623:760,-0.380798,-0.0055850000000000006,-0.309113,-0.003878,0.00114,-0.000908,-21.370001000000002,-2.5,-15.56,3b
2019-07-15_112623:780,-0.379791,-0.007111,-0.307068,-0.0034509999999999996,0.000346,-0.001519,-21.370001000000002,-2.5,-15.56,3b
2019-07-15_112623:800,-0.378265,-0.005065999999999999,-0.309601,-0.003054,0.00016299999999999998,-0.001366,-21.68,-2.5,-14.0,3b
2019-07-15_112623:820,-0.385376,-0.0030210000000000002,-0.308594,-0.002718,-0.000661,-0.000634,-21.68,-2.5,-14.0,3b
2019-07-15_112623:840,-0.386383,-0.0030210000000000002,-0.312653,-0.002932,-0.000264,-0.0011220000000000002,-21.68,-2.5,-14.0,3b
2019-07-15_112623:860,-0.385864,0.000488,-0.313171,-0.003237,0.000285,-0.0012439999999999999,-21.0,-2.5,-14.75,3b
2019-07-15_112623:880,-0.380798,0.0,-0.314697,-0.0031149999999999997,0.000346,-0.000908,-21.0,-2.5,-14.75,3b
2019-07-15_112623:900,-0.378265,0.0,-0.316223,-0.003512,1.1e-05,-0.001641,-21.370001000000002,-2.75,-14.75,3b
2019-07-15_112623:920,-0.38028,-0.000488,-0.314697,-0.003176,-5e-05,-0.000389,-21.370001000000002,-2.75,-14.75,3b
2019-07-15_112623:940,-0.38028,-0.002014,-0.315704,-0.0028399999999999996,-0.000325,0.00016,-21.370001000000002,-2.75,-14.75,3b
2019-07-15_112623:960,-0.382812,-0.0025329999999999997,-0.316223,-0.002443,1.1e-05,-0.000267,-20.18,-2.5,-14.75,3b
2019-07-15_112623:980,-0.38028,-0.000488,-0.31723,-0.0022600000000000003,0.000468,-0.000267,-20.18,-2.5,-14.75,3b
2019-07-15_112624:000,-0.38028,0.000488,-0.317749,-0.002443,0.00022400000000000002,0.00016,-21.370001000000002,-2.5,-16.0,3b
2019-07-15_112624:020,-0.381317,0.002014,-0.315704,-0.002993,7.2e-05,0.000587,-21.370001000000002,-2.5,-16.0,3b
2019-07-15_112624:040,-0.380798,0.0,-0.316223,-0.0034509999999999996,0.00056,0.000709,-21.370001000000002,-2.5,-16.0,3b
2019-07-15_112624:060,-0.382324,-0.0025329999999999997,-0.318756,-0.003573,0.000621,0.000587,-20.18,-2.5,-14.37,3b
2019-07-15_112624:080,-0.380798,-0.0030210000000000002,-0.31723,-0.003817,0.00056,0.000526,-20.18,-2.5,-14.37,3b
2019-07-15_112624:100,-0.382324,-0.004547,-0.319275,-0.003573,0.0008960000000000001,0.001045,-21.0,-2.75,-14.75,3b
2019-07-15_112624:120,-0.379791,-0.005065999999999999,-0.315704,-0.00339,0.0014759999999999999,0.0007700000000000001,-21.0,-2.75,-14.75,3b
2019-07-15_112624:140,-0.381805,-0.004547,-0.318756,-0.003176,0.001842,-0.00023700000000000001,-21.0,-2.75,-14.75,3b
2019-07-15_112624:160,-0.38028,-0.001007,-0.318268,-0.0031149999999999997,0.001842,0.000129,-21.0,-2.5,-16.0,3b
2019-07-15_112624:180,-0.380798,-0.0025329999999999997,-0.316223,-0.003573,0.0016589999999999999,-5.4000000000000005e-05,-21.0,-2.5,-16.0,3b
2019-07-15_112624:200,-0.380798,-0.001007,-0.316223,-0.003939,0.001842,-0.00045099999999999996,-20.18,-2.5,-16.0,3b
2019-07-15_112624:220,-0.380798,-0.000488,-0.314697,-0.003939,0.001842,-0.000389,-20.18,-2.5,-16.0,3b
2019-07-15_112624:240,-0.381317,-0.001495,-0.315216,-0.004275,0.002177,-0.000573,-20.18,-2.5,-16.0,3b
2019-07-15_112624:260,-0.382812,-0.000488,-0.316742,-0.004397,0.002391,-0.00045099999999999996,-20.559998999999998,-2.75,-16.25,3b
2019-07-15_112624:280,-0.380798,-0.002014,-0.314178,-0.004213000000000001,0.002391,-0.000267,-20.559998999999998,-2.75,-16.25,3b
2019-07-15_112624:300,-0.381317,-0.001495,-0.315704,-0.004152,0.002239,-0.000267,-21.0,-2.75,-15.56,3b
2019-07-15_112624:320,-0.38028,-0.002014,-0.315216,-0.004152,0.0024519999999999998,-0.000176,-21.0,-2.75,-15.56,3b
2019-07-15_112624:340,-0.381317,-0.000488,-0.314178,-0.003939,0.0024519999999999998,-5.4000000000000005e-05,-21.0,-2.75,-15.56,3b
2019-07-15_112624:360,-0.381805,0.001007,-0.314697,-0.004091,0.002513,-0.00011499999999999999,-20.18,-2.75,-16.0,3b
2019-07-15_112624:380,-0.38028,0.000488,-0.315216,-0.004427,0.002361,0.000129,-20.18,-2.75,-16.0,3b
2019-07-15_112624:400,-0.380798,0.0,-0.31723,-0.004671,0.002513,7.000000000000001e-06,-20.18,-3.18,-15.06,3b
2019-07-15_112624:420,-0.379791,0.000488,-0.313171,-0.005007,0.002513,-5.4000000000000005e-05,-20.18,-3.18,-15.06,3b
2019-07-15_112624:440,-0.38028,0.0,-0.31369,-0.005068,0.002239,0.000129,-20.18,-3.18,-15.06,3b
2019-07-15_112624:460,-0.381805,-0.001007,-0.315216,-0.0051600000000000005,0.002055,0.00028199999999999997,-21.370001000000002,-3.56,-15.06,3b
2019-07-15_112624:480,-0.379791,-0.000488,-0.314697,-0.005007,0.002239,-5.4000000000000005e-05,-21.370001000000002,-3.56,-15.06,3b
2019-07-15_112624:500,-0.381317,-0.000488,-0.314697,-0.0048850000000000005,0.002177,0.000129,-20.18,-2.75,-15.06,3b
2019-07-15_112624:520,-0.381317,0.000488,-0.313171,-0.004824,0.0024519999999999998,6.8e-05,-20.18,-2.75,-15.06,3b
2019-07-15_112624:540,-0.381317,0.000488,-0.31369,-0.004732,0.0023,-0.00023700000000000001,-20.18,-2.75,-15.06,3b
2019-07-15_112624:560,-0.380798,0.001495,-0.313171,-0.004793,0.002116,-0.00023700000000000001,-21.370001000000002,-2.5,-15.06,3b
2019-07-15_112624:580,-0.383331,0.002014,-0.314178,-0.004946,0.0023,-0.000267,-21.370001000000002,-2.5,-15.06,3b
2019-07-15_112624:600,-0.383331,0.002014,-0.314178,-0.005068,0.002513,-0.000176,-21.68,-3.18,-14.37,3b
2019-07-15_112624:620,-0.381805,0.001007,-0.313171,-0.005007,0.002574,6.8e-05,-21.68,-3.18,-14.37,3b
2019-07-15_112624:640,-0.38028,0.001495,-0.31369,-0.004793,0.002696,6.8e-05,-21.68,-3.18,-14.37,3b
2019-07-15_112624:660,-0.379791,0.001495,-0.313171,-0.004946,0.0024519999999999998,7.000000000000001e-06,-20.18,-2.75,-15.06,3b
2019-07-15_112624:680,-0.384857,0.004547,-0.315216,-0.004671,0.002177,0.000465,-20.18,-2.75,-15.06,3b
2019-07-15_112624:700,-0.384338,0.004059,-0.313171,-0.004793,0.002361,0.000709,-20.18,-2.75,-15.56,3b
2019-07-15_112624:720,-0.385376,0.0055850000000000006,-0.313171,-0.005068,0.003124,0.001045,-20.18,-2.75,-15.56,3b
2019-07-15_112624:740,-0.385376,0.005065999999999999,-0.313171,-0.005221,0.003093,0.001625,-20.18,-2.75,-15.56,3b
2019-07-15_112624:760,-0.38385,0.0035399999999999997,-0.31012,-0.005221,0.003307,0.001106,-20.18,-3.18,-15.18,3b
2019-07-15_112624:780,-0.382812,0.0035399999999999997,-0.309113,-0.005465,0.003093,0.001777,-20.18,-3.18,-15.18,3b
2019-07-15_112624:800,-0.386383,0.000488,-0.31012,-0.005404,0.002971,0.002693,-21.0,-2.75,-14.75,3b
2019-07-15_112624:820,-0.382812,0.001007,-0.308075,-0.005556,0.003124,0.0021739999999999997,-21.0,-2.75,-14.75,3b
2019-07-15_112624:840,-0.383331,0.001007,-0.308594,-0.005739,0.002696,0.002113,-21.0,-2.75,-14.75,3b
2019-07-15_112624:860,-0.379791,0.0,-0.308594,-0.005953,0.002239,0.001228,-21.370001000000002,-2.75,-15.18,3b
2019-07-15_112624:880,-0.380798,-0.000488,-0.309601,-0.005739,0.001628,0.0007700000000000001,-21.370001000000002,-2.75,-15.18,3b
2019-07-15_112624:900,-0.384338,-0.001495,-0.309601,-0.005282,0.0010789999999999999,0.001228,-21.0,-2.5,-14.37,3b
2019-07-15_112624:920,-0.385864,-0.0025329999999999997,-0.309601,-0.004671,0.001201,0.0008619999999999999,-21.0,-2.5,-14.37,3b
2019-07-15_112624:940,-0.387909,0.0,-0.311127,-0.003817,0.001415,0.0008619999999999999,-21.0,-2.5,-14.37,3b
2019-07-15_112624:960,-0.38739,0.001007,-0.309601,-0.0033280000000000002,0.00172,0.000923,-21.68,-3.18,-14.0,3b
2019-07-15_112624:980,-0.385376,0.0025329999999999997,-0.309113,-0.003237,0.00172,0.000984,-21.68,-3.18,-14.0,3b
2019-07-15_112625:000,-0.38385,0.001495,-0.309113,-0.0032979999999999997,0.0016589999999999999,0.000984,-21.370001000000002,-3.18,-13.56,3b
2019-07-15_112625:020,-0.382324,0.0030210000000000002,-0.309601,-0.0036340000000000005,0.001537,0.000221,-21.370001000000002,-3.18,-13.56,3b
2019-07-15_112625:040,-0.382812,0.001495,-0.309601,-0.0036340000000000005,0.001353,0.000404,-21.370001000000002,-3.18,-13.56,3b
2019-07-15_112625:060,-0.38385,0.001007,-0.312653,-0.0036340000000000005,0.00114,0.000465,-21.0,-3.18,-15.56,3b
2019-07-15_112625:080,-0.384857,0.001007,-0.312653,-0.003512,0.001018,0.0007700000000000001,-21.0,-3.18,-15.56,3b
2019-07-15_112625:100,-0.384338,0.0,-0.312653,-0.0033280000000000002,0.001292,0.000221,-21.0,-2.5,-15.56,3b
2019-07-15_112625:120,-0.382812,0.0025329999999999997,-0.312164,-0.0031149999999999997,0.001353,-0.000786,-21.0,-2.5,-15.56,3b
2019-07-15_112625:140,-0.383331,0.001007,-0.312164,-0.002657,0.001292,7.000000000000001e-06,-21.0,-2.5,-15.56,3b
2019-07-15_112625:160,-0.383331,0.0030210000000000002,-0.315216,-0.002443,0.001292,-0.00023700000000000001,-20.559998999999998,-2.5,-14.0,3b
2019-07-15_112625:180,-0.383331,0.004059,-0.315216,-0.002443,0.001537,-0.0008470000000000001,-20.559998999999998,-2.5,-14.0,3b
2019-07-15_112625:200,-0.38385,0.004059,-0.316223,-0.002535,0.001537,-0.0008470000000000001,-21.0,-3.68,-15.56,3b
2019-07-15_112625:220,-0.384338,0.005065999999999999,-0.315216,-0.002535,0.001842,-0.000908,-21.0,-3.68,-15.56,3b
2019-07-15_112625:240,-0.383331,0.0035399999999999997,-0.314178,-0.0028399999999999996,0.001994,-0.000512,-21.0,-3.68,-15.56,3b
2019-07-15_112625:260,-0.382324,0.004547,-0.315216,-0.002718,0.002177,-0.000664,-21.0,-2.75,-14.37,3b
2019-07-15_112625:280,-0.382324,0.004059,-0.314697,-0.002657,0.002361,-0.000328,-21.0,-2.75,-14.37,3b
2019-07-15_112625:300,-0.384338,0.0035399999999999997,-0.313171,-0.0025050000000000003,0.002361,-5.4000000000000005e-05,-21.0,-2.5,-14.37,3b
2019-07-15_112625:320,-0.386383,0.0035399999999999997,-0.313171,-0.0022600000000000003,0.002757,-0.000328,-21.0,-2.5,-14.37,3b
2019-07-15_112625:340,-0.386383,0.0035399999999999997,-0.313171,-0.0022600000000000003,0.0029100000000000003,-0.00045099999999999996,-21.0,-2.5,-14.37,3b
2019-07-15_112625:360,-0.385376,0.004547,-0.312653,-0.002382,0.00352,-0.000328,-21.0,-2.87,-13.56,3b
2019-07-15_112625:380,-0.385376,0.004547,-0.310638,-0.002382,0.003703,-0.000328,-21.0,-2.87,-13.56,3b
2019-07-15_112625:400,-0.386383,0.004059,-0.312164,-0.002443,0.003886,-0.000786,-20.559998999999998,-2.56,-14.37,3b
2019-07-15_112625:420,-0.386383,0.004059,-0.309601,-0.0025960000000000002,0.003978,-0.001,-20.559998999999998,-2.56,-14.37,3b
2019-07-15_112625:440,-0.387909,0.0035399999999999997,-0.309601,-0.0025050000000000003,0.003886,-0.0010609999999999999,-20.559998999999998,-2.56,-14.37,3b
2019-07-15_112625:460,-0.386383,0.0025329999999999997,-0.308075,-0.0025960000000000002,0.004039,-0.001183,-21.0,-2.87,-14.75,3b
2019-07-15_112625:480,-0.38739,0.004059,-0.307587,-0.002535,0.004222,-0.0011220000000000002,-21.0,-2.87,-14.75,3b
2019-07-15_112625:500,-0.386902,0.0035399999999999997,-0.307587,-0.002443,0.003917,-0.0011220000000000002,-21.68,-3.68,-14.37,3b
2019-07-15_112625:520,-0.38739,0.0030210000000000002,-0.305542,-0.002382,0.003978,-0.0008470000000000001,-21.68,-3.68,-14.37,3b
2019-07-15_112625:540,-0.386902,0.0035399999999999997,-0.307068,-0.002443,0.0035810000000000004,-0.0009689999999999999,-21.68,-3.68,-14.37,3b
2019-07-15_112625:560,-0.386902,0.0055850000000000006,-0.30654899999999996,-0.002443,0.003307,-0.000725,-21.68,-2.75,-13.56,3b
2019-07-15_112625:580,-0.38739,0.005065999999999999,-0.303528,-0.0022600000000000003,0.0034289999999999998,-0.00045099999999999996,-21.68,-2.75,-13.56,3b
2019-07-15_112625:600,-0.38739,0.004059,-0.305542,-0.0025050000000000003,0.003124,-0.00023700000000000001,-21.68,-2.75,-15.18,3b
2019-07-15_112625:620,-0.38739,0.0055850000000000006,-0.304535,-0.002718,0.003032,-0.000176,-21.68,-2.75,-15.18,3b
2019-07-15_112625:640,-0.389954,0.0055850000000000006,-0.306061,-0.0032979999999999997,0.002696,-5.4000000000000005e-05,-21.68,-2.75,-15.18,3b
2019-07-15_112625:660,-0.388916,0.0035399999999999997,-0.303528,-0.003878,0.002757,-0.000267,-20.18,-3.18,-14.06,3b
2019-07-15_112625:680,-0.389954,0.002014,-0.30300900000000003,-0.004,0.002696,-0.000512,-20.18,-3.18,-14.06,3b
2019-07-15_112625:700,-0.388428,0.0,-0.305054,-0.004,0.002696,-0.0008470000000000001,-21.370001000000002,-2.75,-14.5,3b
2019-07-15_112625:720,-0.390961,0.0,-0.301483,-0.003573,0.002696,-0.00158,-21.370001000000002,-2.75,-14.5,3b
2019-07-15_112625:740,-0.390961,0.000488,-0.300476,-0.002932,0.002635,-0.001183,-21.370001000000002,-2.75,-14.5,3b
2019-07-15_112625:760,-0.391968,0.000488,-0.302002,-0.0025050000000000003,0.002391,-0.0008470000000000001,-20.18,-3.56,-14.06,3b
2019-07-15_112625:780,-0.389435,0.0055850000000000006,-0.301483,-0.002382,0.0023,-0.0019149999999999998,-20.18,-3.56,-14.06,3b
2019-07-15_112625:800,-0.386383,0.004547,-0.302002,-0.001864,0.002055,-0.002098,-21.370001000000002,-2.56,-14.37,3b
2019-07-15_112625:820,-0.387909,0.006072999999999999,-0.302002,-0.001772,0.001598,-0.003167,-21.370001000000002,-2.56,-14.37,3b
2019-07-15_112625:840,-0.38739,0.007599,-0.30300900000000003,-0.001925,0.0008960000000000001,-0.002709,-21.370001000000002,-2.56,-14.37,3b
2019-07-15_112625:860,-0.38739,0.007599,-0.30249000000000004,-0.0015890000000000001,0.0008039999999999999,-0.001397,-22.0,-3.68,-13.56,3b
2019-07-15_112625:880,-0.389435,0.009125,-0.304016,-0.001772,0.000682,-0.0013050000000000002,-22.0,-3.68,-13.56,3b
2019-07-15_112625:900,-0.389954,0.011169,-0.304535,-0.0018030000000000001,0.000743,-0.00045099999999999996,-21.370001000000002,-3.18,-13.68,3b
2019-07-15_112625:920,-0.389435,0.011687999999999999,-0.304535,-0.0025050000000000003,0.00056,0.00028199999999999997,-21.370001000000002,-3.18,-13.68,3b
2019-07-15_112625:940,-0.390442,0.010651,-0.307068,-0.0034509999999999996,0.000743,0.000648,-21.370001000000002,-3.18,-13.68,3b
2019-07-15_112625:960,-0.387909,0.008636,-0.307068,-0.004275,0.000682,0.001442,-21.059998999999998,-2.75,-15.68,3b
2019-07-15_112625:980,-0.387909,0.0035399999999999997,-0.305542,-0.004732,0.000865,0.001655,-21.059998999999998,-2.75,-15.68,3b
2019-07-15_112626:000,-0.388428,0.0035399999999999997,-0.30654899999999996,-0.0048850000000000005,0.000682,0.001838,-21.75,-3.56,-14.06,3b
2019-07-15_112626:020,-0.388916,0.001495,-0.306061,-0.004671,0.000743,0.002357,-21.75,-3.56,-14.06,3b
2019-07-15_112626:040,-0.388916,0.001007,-0.307587,-0.004488000000000001,0.001292,0.002967,-21.75,-3.56,-14.06,3b
2019-07-15_112626:060,-0.385376,0.0,-0.305542,-0.003817,0.001353,0.002784,-20.68,-3.18,-14.06,3b
2019-07-15_112626:080,-0.384857,0.000488,-0.30654899999999996,-0.0036950000000000004,0.001353,0.001838,-20.68,-3.18,-14.06,3b
2019-07-15_112626:100,-0.385864,0.001007,-0.307068,-0.0036950000000000004,0.00056,0.002357,-20.25,-4.0,-14.5,3b
2019-07-15_112626:120,-0.38739,0.001495,-0.306061,-0.0036950000000000004,0.00056,0.0022960000000000003,-20.25,-4.0,-14.5,3b
2019-07-15_112626:140,-0.38739,0.001495,-0.308075,-0.003664,0.000346,0.0021739999999999997,-20.25,-4.0,-14.5,3b
2019-07-15_112626:160,-0.387909,0.0030210000000000002,-0.307068,-0.003817,0.00056,0.0022960000000000003,-20.25,-2.75,-14.75,3b
2019-07-15_112626:180,-0.387909,0.0025329999999999997,-0.308594,-0.00403,0.000682,0.002357,-20.25,-2.75,-14.75,3b
2019-07-15_112626:200,-0.386902,0.0025329999999999997,-0.309113,-0.004397,0.000499,0.002388,-21.5,-3.56,-15.06,3b
2019-07-15_112626:220,-0.38739,0.0,-0.307587,-0.004549,0.000743,0.002571,-21.5,-3.56,-15.06,3b
2019-07-15_112626:240,-0.384857,0.001007,-0.31012,-0.004793,0.000865,0.002357,-21.5,-3.56,-15.06,3b
2019-07-15_112626:260,-0.386902,-0.001495,-0.310638,-0.004793,0.0008960000000000001,0.002449,-20.68,-2.5,-15.56,3b
2019-07-15_112626:280,-0.387909,-0.001495,-0.307587,-0.00461,0.0009570000000000001,0.002388,-20.68,-2.5,-15.56,3b
2019-07-15_112626:300,-0.38739,0.0,-0.308594,-0.004397,0.001537,0.002754,-21.059998999999998,-2.75,-13.56,3b
2019-07-15_112626:320,-0.386902,0.0,-0.309113,-0.004152,0.0016589999999999999,0.002571,-21.059998999999998,-2.75,-13.56,3b
2019-07-15_112626:340,-0.385376,0.0,-0.309113,-0.004152,0.0017809999999999998,0.002357,-21.059998999999998,-2.75,-13.56,3b
2019-07-15_112626:360,-0.386383,0.0,-0.31012,-0.004275,0.0019030000000000002,0.002052,-21.059998999999998,-3.56,-14.0,3b
2019-07-15_112626:380,-0.385376,0.0,-0.307587,-0.004427,0.0017809999999999998,0.001564,-21.059998999999998,-3.56,-14.0,3b
2019-07-15_112626:400,-0.385864,0.000488,-0.309113,-0.004336,0.0017809999999999998,0.00132,-21.059998999999998,-3.18,-15.06,3b
2019-07-15_112626:420,-0.385376,-0.001495,-0.308594,-0.004152,0.0017809999999999998,0.001045,-21.059998999999998,-3.18,-15.06,3b
2019-07-15_112626:440,-0.385864,-0.001007,-0.309113,-0.003817,0.001964,0.0007700000000000001,-21.059998999999998,-3.18,-15.06,3b
2019-07-15_112626:460,-0.385864,-0.0035399999999999997,-0.308075,-0.0034509999999999996,0.001994,0.000496,-21.75,-3.18,-14.75,3b
2019-07-15_112626:480,-0.385864,0.0,-0.307068,-0.0028399999999999996,0.0016589999999999999,0.00016,-21.75,-3.18,-14.75,3b
2019-07-15_112626:500,-0.38385,0.0,-0.308075,-0.002382,0.001598,-0.00011499999999999999,-21.5,-2.06,-15.56,3b
2019-07-15_112626:520,-0.384338,0.001007,-0.308075,-0.0021079999999999996,0.0012619999999999999,-0.000389,-21.5,-2.06,-15.56,3b
2019-07-15_112626:540,-0.38739,0.001495,-0.308594,-0.002169,0.00114,-0.000512,-21.5,-2.06,-15.56,3b
2019-07-15_112626:560,-0.38739,0.002014,-0.309113,-0.002169,0.001598,-0.000512,-21.059998999999998,-2.75,-13.56,3b
2019-07-15_112626:580,-0.386902,0.0030210000000000002,-0.312164,-0.002382,0.0017809999999999998,-0.000267,-21.059998999999998,-2.75,-13.56,3b
2019-07-15_112626:600,-0.385864,0.0035399999999999997,-0.309601,-0.0025960000000000002,0.0017809999999999998,-5.4000000000000005e-05,-21.5,-2.75,-14.75,3b
2019-07-15_112626:620,-0.385376,0.0025329999999999997,-0.307587,-0.0029010000000000004,0.00172,0.000129,-21.5,-2.75,-14.75,3b
2019-07-15_112626:640,-0.385864,0.002014,-0.31012,-0.0029010000000000004,0.00172,0.000404,-21.5,-2.75,-14.75,3b
2019-07-15_112626:660,-0.38739,0.001007,-0.309113,-0.0031149999999999997,0.0017809999999999998,7.000000000000001e-06,-21.059998999999998,-2.75,-14.0,3b
2019-07-15_112626:680,-0.389954,0.002014,-0.309113,-0.003176,0.002116,0.000526,-21.059998999999998,-2.75,-14.0,3b
2019-07-15_112626:700,-0.390442,0.002014,-0.307587,-0.003054,0.002574,0.001625,-21.059998999999998,-2.75,-14.37,3b
2019-07-15_112626:720,-0.388428,0.000488,-0.307068,-0.0036340000000000005,0.002757,0.000831,-21.059998999999998,-2.75,-14.37,3b
2019-07-15_112626:740,-0.386902,0.000488,-0.307068,-0.00339,0.002849,0.000831,-21.059998999999998,-2.75,-14.37,3b
2019-07-15_112626:760,-0.384857,-0.001495,-0.307587,-0.003573,0.002513,-0.000267,-21.059998999999998,-3.18,-16.0,3b
2019-07-15_112626:780,-0.386383,0.0,-0.307587,-0.0034509999999999996,0.002177,-0.000664,-21.059998999999998,-3.18,-16.0,3b
2019-07-15_112626:800,-0.38739,-0.001007,-0.307587,-0.002993,0.0023,0.000465,-21.059998999999998,-2.5,-14.75,3b
2019-07-15_112626:820,-0.386902,0.0,-0.308075,-0.0025960000000000002,0.0023,0.000221,-21.059998999999998,-2.5,-14.75,3b
2019-07-15_112626:840,-0.386902,0.001007,-0.308594,-0.0021079999999999996,0.0023,0.00028199999999999997,-21.059998999999998,-2.5,-14.75,3b
2019-07-15_112626:860,-0.389954,0.0025329999999999997,-0.308594,-0.002169,0.002177,0.000587,-21.059998999999998,-2.75,-14.75,3b
2019-07-15_112626:880,-0.391968,0.0035399999999999997,-0.307587,-0.0025960000000000002,0.002574,0.0007700000000000001,-21.059998999999998,-2.75,-14.75,3b
2019-07-15_112626:900,-0.393494,0.0030210000000000002,-0.307068,-0.0032979999999999997,0.003093,0.001258,-20.68,-4.06,-15.18,3b
2019-07-15_112626:920,-0.387909,0.001007,-0.305054,-0.003817,0.003307,0.001258,-20.68,-4.06,-15.18,3b
2019-07-15_112626:940,-0.388428,0.001007,-0.305542,-0.004397,0.003368,0.001381,-20.68,-4.06,-15.18,3b
2019-07-15_112626:960,-0.388428,-0.002014,-0.304016,-0.00461,0.003093,0.001564,-20.68,-2.87,-14.37,3b
2019-07-15_112626:980,-0.388916,-0.0030210000000000002,-0.30300900000000003,-0.004549,0.002971,0.001991,-20.68,-2.87,-14.37,3b
2019-07-15_112627:000,-0.389435,-0.0025329999999999997,-0.303528,-0.004397,0.003093,0.002052,-21.5,-2.56,-14.0,3b
2019-07-15_112627:020,-0.388428,-0.004059,-0.303528,-0.004152,0.003093,0.001106,-21.5,-2.56,-14.0,3b
2019-07-15_112627:040,-0.389954,-0.0025329999999999997,-0.30249000000000004,-0.00403,0.002849,0.00132,-21.5,-2.56,-14.0,3b
2019-07-15_112627:060,-0.389435,-0.0035399999999999997,-0.30300900000000003,-0.003939,0.002391,0.001564,-21.059998999999998,-3.25,-14.0,3b
2019-07-15_112627:080,-0.389435,-0.004547,-0.302002,-0.004,0.002239,0.000923,-21.059998999999998,-3.25,-14.0,3b
2019-07-15_112627:100,-0.390961,-0.0030210000000000002,-0.30300900000000003,-0.003817,0.002239,0.000984,-21.75,-2.18,-15.56,3b
2019-07-15_112627:120,-0.391968,-0.0030210000000000002,-0.304535,-0.0037560000000000002,0.002239,0.000831,-21.75,-2.18,-15.56,3b
2019-07-15_112627:140,-0.392487,-0.0030210000000000002,-0.303528,-0.0036340000000000005,0.002361,0.000526,-21.75,-2.18,-15.56,3b
2019-07-15_112627:160,-0.391968,-0.0025329999999999997,-0.30300900000000003,-0.0033280000000000002,0.0024519999999999998,0.000465,-20.68,-2.87,-14.75,3b
2019-07-15_112627:180,-0.391479,-0.0025329999999999997,-0.302002,-0.0033280000000000002,0.002177,0.000343,-20.68,-2.87,-14.75,3b
2019-07-15_112627:200,-0.390442,-0.001007,-0.30249000000000004,-0.0033280000000000002,0.002177,0.00028199999999999997,-22.059998999999998,-3.25,-14.37,3b
2019-07-15_112627:220,-0.391968,-0.001007,-0.303528,-0.0032979999999999997,0.002116,0.000343,-22.059998999999998,-3.25,-14.37,3b
2019-07-15_112627:240,-0.388428,-0.001007,-0.30300900000000003,-0.0034509999999999996,0.001994,0.000404,-22.059998999999998,-3.25,-14.37,3b
2019-07-15_112627:260,-0.388916,-0.002014,-0.303528,-0.00339,0.001964,0.000343,-21.5,-2.56,-14.75,3b
2019-07-15_112627:280,-0.388428,-0.002014,-0.30249000000000004,-0.003573,0.001598,0.000496,-21.5,-2.56,-14.75,3b
2019-07-15_112627:300,-0.388428,-0.001007,-0.30300900000000003,-0.0034509999999999996,0.001537,0.000587,-21.5,-1.75,-13.56,3b
2019-07-15_112627:320,-0.391968,-0.001007,-0.31012,-0.003512,0.0014759999999999999,0.000587,-21.5,-1.75,-13.56,3b
2019-07-15_112627:340,-0.388916,-0.001007,-0.301483,-0.0036950000000000004,0.001537,0.0007700000000000001,-21.5,-1.75,-13.56,3b
2019-07-15_112627:360,-0.388916,-0.001007,-0.304535,-0.003664,0.001598,0.0007700000000000001,-21.75,-3.25,-14.37,3b
2019-07-15_112627:380,-0.388428,-0.001007,-0.30300900000000003,-0.003817,0.0014759999999999999,0.000648,-21.75,-3.25,-14.37,3b
2019-07-15_112627:400,-0.390961,-0.0030210000000000002,-0.30654899999999996,-0.004,0.001628,0.000465,-21.5,-3.25,-14.37,3b
2019-07-15_112627:420,-0.389954,-0.0035399999999999997,-0.306061,-0.003939,0.0017809999999999998,0.00016,-21.5,-3.25,-14.37,3b
2019-07-15_112627:440,-0.388916,-0.0025329999999999997,-0.303528,-0.003664,0.0017809999999999998,-0.00011499999999999999,-21.5,-3.25,-14.37,3b
2019-07-15_112627:460,-0.389954,-0.0030210000000000002,-0.305542,-0.0034509999999999996,0.001842,7.000000000000001e-06,-21.059998999999998,-2.87,-14.37,3b
2019-07-15_112627:480,-0.389435,-0.002014,-0.304016,-0.0033280000000000002,0.0016589999999999999,6.8e-05,-21.059998999999998,-2.87,-14.37,3b
2019-07-15_112627:500,-0.390961,-0.000488,-0.304535,-0.0032979999999999997,0.0017809999999999998,0.000129,-21.059998999999998,-2.87,-15.06,3b
