timestamp,AccX,AccY,AccZ,GyroX,GyroY,GyroZ,MagX,MagY,MagZ,Activity
2019-07-15_143824:880,-0.344696,-0.041168,-0.346222,-0.004336,-0.001118,-0.001458,-37.369999,12.56,-16.5,2b
2019-07-15_143824:900,-0.344177,-0.037598,-0.34674099999999997,-0.0036950000000000004,-0.003438,-0.0019149999999999998,-37.369999,12.56,-16.5,2b
2019-07-15_143824:920,-0.35943600000000003,-0.032532,-0.345215,-0.0033280000000000002,-0.004231,-0.0037770000000000004,-37.060001,11.87,-16.5,2b
2019-07-15_143824:940,-0.372162,-0.029968,-0.338074,-0.0032979999999999997,-0.003163,-0.004418,-37.060001,11.87,-16.5,2b
2019-07-15_143824:960,-0.360962,-0.026427999999999997,-0.339111,-0.00339,-0.001637,-0.001183,-37.060001,11.87,-16.5,2b
2019-07-15_143824:980,-0.355896,-0.028961,-0.341644,-0.003878,-0.0024920000000000003,0.0022960000000000003,-37.369999,12.18,-16.5,2b
2019-07-15_143825:000,-0.34368899999999997,-0.028442000000000002,-0.34063699999999997,-0.005739,-0.003621,0.004615,-37.369999,12.18,-16.5,2b
2019-07-15_143825:020,-0.338593,-0.031006,-0.344177,-0.006684999999999999,-0.005543,0.008735,-37.75,11.5,-15.68,2b
2019-07-15_143825:040,-0.338074,-0.037108999999999996,-0.347229,-0.007876000000000001,-0.0074659999999999995,0.010017,-37.75,11.5,-15.68,2b
2019-07-15_143825:060,-0.345215,-0.043213,-0.352844,-0.008669,-0.007831999999999999,0.008888,-37.75,11.5,-15.68,2b
2019-07-15_143825:080,-0.34674099999999997,-0.048798,-0.355896,-0.008181,-0.007222,0.008339,-36.68,12.18,-16.5,2b
2019-07-15_143825:100,-0.347229,-0.050842,-0.361969,-0.007081999999999999,-0.005971,0.0073620000000000005,-36.68,12.18,-16.5,2b
2019-07-15_143825:120,-0.344696,-0.049805,-0.36654699999999996,-0.00635,-0.0045060000000000005,0.0055,-36.25,12.56,-16.870001000000002,2b
2019-07-15_143825:140,-0.34570300000000004,-0.045745999999999995,-0.366058,-0.005739,-0.0034990000000000004,0.00428,-36.25,12.56,-16.870001000000002,2b
2019-07-15_143825:160,-0.34368899999999997,-0.044219999999999995,-0.364014,-0.005678,-0.002309,0.0033640000000000002,-36.25,12.56,-16.870001000000002,2b
2019-07-15_143825:180,-0.345215,-0.042694,-0.358917,-0.006014,-0.001759,0.002052,-36.25,12.56,-16.5,2b
2019-07-15_143825:200,-0.34674099999999997,-0.042694,-0.36044299999999996,-0.006533,-0.001576,-5.4000000000000005e-05,-36.25,12.56,-16.5,2b
2019-07-15_143825:220,-0.353851,-0.042175,-0.358917,-0.007387,-0.000508,-0.0013050000000000002,-36.68,12.56,-17.25,2b
2019-07-15_143825:240,-0.34674099999999997,-0.041168,-0.35791,-0.007601,0.000346,-0.001641,-36.68,12.56,-17.25,2b
2019-07-15_143825:260,-0.34317,-0.041687,-0.35739099999999996,-0.007815,-0.000172,-0.0028309999999999997,-36.68,12.56,-17.25,2b
2019-07-15_143825:280,-0.341644,-0.039642000000000004,-0.358429,-0.007479,-0.001179,-0.003655,-36.68,13.0,-15.68,2b
2019-07-15_143825:300,-0.34674099999999997,-0.038635,-0.35638400000000003,-0.006807,-0.001698,-0.005028,-36.68,13.0,-15.68,2b
2019-07-15_143825:320,-0.347748,-0.038635,-0.35791,-0.006197,-0.002034,-0.005639,-36.68,11.87,-17.25,2b
2019-07-15_143825:340,-0.347748,-0.037108999999999996,-0.356903,-0.005129,-0.001698,-0.0057,-36.68,11.87,-17.25,2b
2019-07-15_143825:360,-0.34674099999999997,-0.037108999999999996,-0.360962,-0.004397,-0.00124,-0.006951000000000001,-36.68,11.87,-17.25,2b
2019-07-15_143825:380,-0.340118,-0.033539,-0.364532,-0.003237,-0.000722,-0.007622,-36.25,12.56,-17.68,2b
2019-07-15_143825:400,-0.339111,-0.031006,-0.365021,-0.0018030000000000001,-0.001057,-0.006706999999999999,-36.25,12.56,-17.68,2b
2019-07-15_143825:420,-0.34265100000000004,-0.027435,-0.370636,-0.0006730000000000001,-0.0009660000000000001,-0.005639,-35.560001,11.5,-18.5,2b
2019-07-15_143825:440,-0.344696,-0.027435,-0.368591,-2e-06,-0.000508,-0.005577,-35.560001,11.5,-18.5,2b
2019-07-15_143825:460,-0.34570300000000004,-0.022369,-0.36706500000000003,0.000273,0.0009570000000000001,-0.005364,-35.560001,11.5,-18.5,2b
2019-07-15_143825:480,-0.336548,-0.020844,-0.367584,-0.000185,0.0017809999999999998,-0.00277,-36.68,11.87,-16.870001000000002,2b
2019-07-15_143825:500,-0.333496,-0.022369,-0.368591,-0.001009,0.0017809999999999998,-0.002037,-36.68,11.87,-16.870001000000002,2b
2019-07-15_143825:520,-0.33300799999999997,-0.022858,-0.36706500000000003,-0.001864,0.00114,-0.002648,-37.060001,11.5,-17.68,2b
2019-07-15_143825:540,-0.34063699999999997,-0.025421,-0.369598,-0.0021079999999999996,0.0008039999999999999,-0.003319,-37.060001,11.5,-17.68,2b
2019-07-15_143825:560,-0.34570300000000004,-0.024902,-0.368073,-0.002199,0.0014759999999999999,-0.004174000000000001,-37.060001,11.5,-17.68,2b
2019-07-15_143825:580,-0.34317,-0.020844,-0.36654699999999996,-0.002443,0.002788,-0.0033799999999999998,-35.560001,11.87,-18.059998999999998,2b
2019-07-15_143825:600,-0.338593,-0.021332,-0.36706500000000003,-0.002993,0.003307,-0.001458,-35.560001,11.87,-18.059998999999998,2b
2019-07-15_143825:620,-0.339111,-0.022369,-0.369598,-0.0034509999999999996,0.0031850000000000003,-0.001,-36.68,10.75,-17.25,2b
2019-07-15_143825:640,-0.345215,-0.024902,-0.36706500000000003,-0.0036950000000000004,0.003307,-0.001458,-36.68,10.75,-17.25,2b
2019-07-15_143825:660,-0.349274,-0.024902,-0.367584,-0.003237,0.003917,-0.00216,-36.68,10.75,-17.25,2b
2019-07-15_143825:680,-0.35436999999999996,-0.023895,-0.36554000000000003,-0.002779,0.005229,-0.0017929999999999999,-37.369999,11.06,-16.870001000000002,2b
2019-07-15_143825:700,-0.345215,-0.021851,-0.360962,-0.003237,0.006816,-0.000634,-37.369999,11.06,-16.870001000000002,2b
2019-07-15_143825:720,-0.341644,-0.022369,-0.36248800000000003,-0.004,0.0069689999999999995,0.000923,-37.369999,11.5,-18.059998999999998,2b
2019-07-15_143825:740,-0.342163,-0.024902,-0.361969,-0.00461,0.006572,0.00132,-37.369999,11.5,-18.059998999999998,2b
2019-07-15_143825:760,-0.34674099999999997,-0.023895,-0.361481,-0.004824,0.00703,0.001167,-37.369999,11.5,-18.059998999999998,2b
2019-07-15_143825:780,-0.352844,-0.020325,-0.35943600000000003,-0.005007,0.008281,0.00132,-37.369999,11.06,-17.25,2b
2019-07-15_143825:800,-0.355377,-0.017273,-0.35791,-0.0056170000000000005,0.009807,0.001655,-37.369999,11.06,-17.25,2b
2019-07-15_143825:820,-0.35180700000000004,-0.015228,-0.353333,-0.006594,0.010722,0.003975,-36.68,11.06,-17.25,2b
2019-07-15_143825:840,-0.345215,-0.017792,-0.35180700000000004,-0.008333,0.010722,0.005287,-36.68,11.06,-17.25,2b
2019-07-15_143825:860,-0.34570300000000004,-0.021332,-0.349792,-0.010103000000000001,0.009623999999999999,0.005622,-36.68,11.06,-17.25,2b
2019-07-15_143825:880,-0.347229,-0.026917,-0.348267,-0.010927,0.008891,0.003975,-37.060001,10.37,-17.68,2b
2019-07-15_143825:900,-0.34875500000000004,-0.028961,-0.346222,-0.011385,0.008403,0.001838,-37.060001,10.37,-17.68,2b
2019-07-15_143825:920,-0.349274,-0.032013,-0.347748,-0.010836,0.008067,7.000000000000001e-06,-37.369999,11.5,-16.870001000000002,2b
2019-07-15_143825:940,-0.347748,-0.032532,-0.346222,-0.009981,0.007426,-0.0019760000000000003,-37.369999,11.5,-16.870001000000002,2b
2019-07-15_143825:960,-0.35180700000000004,-0.027954000000000003,-0.34674099999999997,-0.008669,0.006693999999999999,-0.003624,-37.369999,11.5,-16.870001000000002,2b
2019-07-15_143825:980,-0.355377,-0.026917,-0.34674099999999997,-0.007326000000000001,0.006358,-0.004021,-37.060001,10.75,-17.25,2b
2019-07-15_143826:000,-0.3508,-0.024384,-0.34570300000000004,-0.006075,0.006023,-0.004235,-37.060001,10.75,-17.25,2b
2019-07-15_143826:020,-0.349792,-0.022369,-0.344177,-0.004793,0.005443,-0.00396,-37.060001,10.75,-16.870001000000002,2b
2019-07-15_143826:040,-0.3508,-0.021332,-0.344177,-0.0036950000000000004,0.004314,-0.003319,-37.060001,10.75,-16.870001000000002,2b
2019-07-15_143826:060,-0.353851,-0.018799,-0.34317,-0.002779,0.00349,-0.002526,-37.060001,10.75,-16.870001000000002,2b
2019-07-15_143826:080,-0.359955,-0.017792,-0.341125,-0.001864,0.002971,-0.001183,-37.060001,11.06,-16.5,2b
2019-07-15_143826:100,-0.35638400000000003,-0.015228,-0.340118,-0.001253,0.003032,0.00028199999999999997,-37.060001,11.06,-16.5,2b
2019-07-15_143826:120,-0.354858,-0.014221000000000001,-0.339111,-0.001375,0.002696,0.001777,-37.369999,11.5,-16.5,2b
2019-07-15_143826:140,-0.352844,-0.014221000000000001,-0.337067,-0.0022600000000000003,0.0019030000000000002,0.00251,-37.369999,11.5,-16.5,2b
2019-07-15_143826:160,-0.348267,-0.012177,-0.33758499999999997,-0.003512,0.000621,0.003151,-37.369999,11.5,-16.5,2b
2019-07-15_143826:180,-0.34875500000000004,-0.015228,-0.33758499999999997,-0.0048850000000000005,-0.001454,0.003181,-37.060001,11.06,-15.68,2b
2019-07-15_143826:200,-0.35436999999999996,-0.016266,-0.34063699999999997,-0.006258,-0.00298,0.003181,-37.060001,11.06,-15.68,2b
2019-07-15_143826:220,-0.35791,-0.019318000000000002,-0.34368899999999997,-0.007540000000000001,-0.003438,0.0029059999999999997,-37.369999,10.75,-16.059998999999998,2b
2019-07-15_143826:240,-0.360962,-0.020844,-0.345215,-0.008211,-0.003102,0.0021739999999999997,-37.369999,10.75,-16.059998999999998,2b
2019-07-15_143826:260,-0.359955,-0.022369,-0.348267,-0.008394,-0.002309,0.001625,-37.369999,10.75,-16.059998999999998,2b
2019-07-15_143826:280,-0.36044299999999996,-0.024384,-0.350281,-0.008272,-0.00179,0.001258,-37.369999,11.5,-16.5,2b
2019-07-15_143826:300,-0.35791,-0.025908999999999998,-0.350281,-0.007479,-0.00124,0.000709,-37.369999,11.5,-16.5,2b
2019-07-15_143826:320,-0.353333,-0.023895,-0.353333,-0.006533,-0.000508,-0.00011499999999999999,-37.75,11.06,-16.5,2b
2019-07-15_143826:340,-0.3508,-0.022858,-0.353333,-0.005404,-0.000722,-0.000573,-37.75,11.06,-16.5,2b
2019-07-15_143826:360,-0.347748,-0.020325,-0.353333,-0.004488000000000001,-0.001363,-0.0008470000000000001,-37.75,11.06,-16.5,2b
2019-07-15_143826:380,-0.349274,-0.01828,-0.353333,-0.003512,-0.001912,-0.001,-37.060001,11.06,-16.059998999999998,2b
2019-07-15_143826:400,-0.349792,-0.015747,-0.354858,-0.002932,-0.00179,-0.0010609999999999999,-37.060001,11.06,-16.059998999999998,2b
2019-07-15_143826:420,-0.352325,-0.013213999999999998,-0.35436999999999996,-0.002718,-0.001454,-0.001641,-37.369999,10.37,-16.5,2b
2019-07-15_143826:440,-0.349792,-0.010651,-0.355377,-0.002779,-0.001179,-0.0017929999999999999,-37.369999,10.37,-16.5,2b
2019-07-15_143826:460,-0.349274,-0.010651,-0.35436999999999996,-0.002993,-0.0009050000000000001,-0.001702,-37.369999,10.37,-16.5,2b
2019-07-15_143826:480,-0.3508,-0.010162000000000001,-0.353851,-0.003512,-0.000661,-0.0012439999999999999,-37.75,11.5,-16.059998999999998,2b
2019-07-15_143826:500,-0.349792,-0.009125,-0.35436999999999996,-0.00403,-0.000661,-0.000634,-37.75,11.5,-16.059998999999998,2b
2019-07-15_143826:520,-0.344696,-0.011687999999999999,-0.355896,-0.004488000000000001,-0.0008439999999999999,-0.000267,-37.369999,11.06,-16.870001000000002,2b
2019-07-15_143826:540,-0.346222,-0.011169,-0.355896,-0.004732,-0.001393,-0.00011499999999999999,-37.369999,11.06,-16.870001000000002,2b
2019-07-15_143826:560,-0.350281,-0.014221000000000001,-0.35791,-0.00461,-0.001912,-0.00023700000000000001,-37.369999,11.06,-16.870001000000002,2b
2019-07-15_143826:580,-0.3508,-0.013213999999999998,-0.358429,-0.004488000000000001,-0.001393,-0.000725,-36.68,10.75,-16.870001000000002,2b
2019-07-15_143826:600,-0.35436999999999996,-0.013213999999999998,-0.35791,-0.004152,-0.001027,-0.001,-36.68,10.75,-16.870001000000002,2b
2019-07-15_143826:620,-0.35180700000000004,-0.014740000000000001,-0.358429,-0.003817,7.2e-05,-0.001183,-36.68,10.37,-17.68,2b
2019-07-15_143826:640,-0.349274,-0.010162000000000001,-0.354858,-0.0037560000000000002,0.000865,-0.00158,-36.68,10.37,-17.68,2b
2019-07-15_143826:660,-0.35180700000000004,-0.008636,-0.358429,-0.003664,0.00114,0.000221,-36.68,10.37,-17.68,2b
2019-07-15_143826:680,-0.35180700000000004,-0.012695,-0.358429,-0.0037560000000000002,0.001415,0.001228,-36.68,10.37,-16.5,2b
2019-07-15_143826:700,-0.347748,-0.013213999999999998,-0.358429,-0.003664,0.0019030000000000002,0.000465,-36.68,10.37,-16.5,2b
2019-07-15_143826:720,-0.34317,-0.011687999999999999,-0.36044299999999996,-0.0036340000000000005,0.001842,0.000526,-36.68,10.37,-16.870001000000002,2b
2019-07-15_143826:740,-0.342163,-0.012177,-0.358429,-0.003664,0.001292,0.001258,-36.68,10.37,-16.870001000000002,2b
2019-07-15_143826:760,-0.344696,-0.013213999999999998,-0.358429,-0.003664,0.0009570000000000001,0.000709,-36.68,10.37,-16.870001000000002,2b
2019-07-15_143826:780,-0.345215,-0.012695,-0.35791,-0.003664,0.001415,0.000526,-36.68,10.37,-17.68,2b
2019-07-15_143826:800,-0.34674099999999997,-0.013702,-0.35943600000000003,-0.0033280000000000002,0.0017809999999999998,0.000465,-36.68,10.37,-17.68,2b
2019-07-15_143826:820,-0.347229,-0.013213999999999998,-0.358917,-0.00339,0.002177,0.000343,-36.68,10.75,-16.870001000000002,2b
2019-07-15_143826:840,-0.34875500000000004,-0.011687999999999999,-0.35638400000000003,-0.002993,0.001964,0.0007700000000000001,-36.68,10.75,-16.870001000000002,2b
2019-07-15_143826:860,-0.34875500000000004,-0.012177,-0.356903,-0.003176,0.002361,0.000709,-36.68,10.75,-16.870001000000002,2b
2019-07-15_143826:880,-0.349792,-0.010651,-0.355896,-0.0033280000000000002,0.002239,0.0008619999999999999,-37.369999,10.0,-17.68,2b
2019-07-15_143826:900,-0.3508,-0.012177,-0.352325,-0.0034509999999999996,0.002513,0.001167,-37.369999,10.0,-17.68,2b
2019-07-15_143826:920,-0.35131799999999996,-0.012177,-0.353851,-0.00403,0.0024519999999999998,0.001838,-38.18,10.0,-18.059998999999998,2b
2019-07-15_143826:940,-0.3508,-0.012695,-0.352325,-0.004427,0.002788,0.002357,-38.18,10.0,-18.059998999999998,2b
2019-07-15_143826:960,-0.347748,-0.015228,-0.352325,-0.004732,0.002635,0.001655,-38.18,10.0,-18.059998999999998,2b
2019-07-15_143826:980,-0.34570300000000004,-0.017792,-0.353333,-0.0048850000000000005,0.002788,0.001442,-38.18,11.5,-16.5,2b
2019-07-15_143827:000,-0.344696,-0.020844,-0.352844,-0.004549,0.001994,0.001655,-38.18,11.5,-16.5,2b
2019-07-15_143827:020,-0.344177,-0.020325,-0.35436999999999996,-0.004213000000000001,0.001292,0.001106,-36.68,10.37,-17.25,2b
2019-07-15_143827:040,-0.348267,-0.019806,-0.354858,-0.003573,0.0008960000000000001,0.000526,-36.68,10.37,-17.25,2b
2019-07-15_143827:060,-0.349792,-0.01828,-0.354858,-0.003054,0.0009570000000000001,6.8e-05,-36.68,10.37,-17.25,2b
2019-07-15_143827:080,-0.350281,-0.016753999999999998,-0.355896,-0.002657,0.001537,-0.000328,-36.68,10.37,-16.870001000000002,2b
2019-07-15_143827:100,-0.350281,-0.015747,-0.355896,-0.002535,0.00172,-0.00045099999999999996,-36.68,10.37,-16.870001000000002,2b
2019-07-15_143827:120,-0.349792,-0.014740000000000001,-0.356903,-0.002443,0.002055,-0.00045099999999999996,-36.25,10.75,-16.5,2b
2019-07-15_143827:140,-0.3508,-0.013702,-0.354858,-0.0025050000000000003,0.002391,-0.000267,-36.25,10.75,-16.5,2b
2019-07-15_143827:160,-0.349274,-0.014221000000000001,-0.353851,-0.002718,0.002574,-0.000176,-36.25,10.75,-16.5,2b
2019-07-15_143827:180,-0.349274,-0.014221000000000001,-0.353851,-0.002993,0.0024519999999999998,-0.00023700000000000001,-37.060001,10.0,-16.5,2b
2019-07-15_143827:200,-0.349792,-0.014740000000000001,-0.359955,-0.003176,0.002177,7.000000000000001e-06,-37.060001,10.0,-16.5,2b
2019-07-15_143827:220,-0.348267,-0.014221000000000001,-0.3508,-0.00339,0.0024519999999999998,0.000129,-37.75,10.75,-16.5,2b
2019-07-15_143827:240,-0.34674099999999997,-0.016753999999999998,-0.347229,-0.00339,0.001994,0.000343,-37.75,10.75,-16.5,2b
2019-07-15_143827:260,-0.347748,-0.013213999999999998,-0.350281,-0.002932,0.001628,0.00016,-37.75,10.75,-16.5,2b
2019-07-15_143827:280,-0.35180700000000004,-0.015228,-0.356903,-0.002932,0.001353,0.000404,-37.369999,10.0,-17.68,2b
2019-07-15_143827:300,-0.34674099999999997,-0.015747,-0.355896,-0.003176,0.001842,0.00028199999999999997,-37.369999,10.0,-17.68,2b
2019-07-15_143827:320,-0.347229,-0.016753999999999998,-0.354858,-0.003176,0.001628,-0.00011499999999999999,-37.369999,10.37,-17.25,2b
2019-07-15_143827:340,-0.348267,-0.016266,-0.354858,-0.002993,0.001537,-0.00045099999999999996,-37.369999,10.37,-17.25,2b
2019-07-15_143827:360,-0.349274,-0.016753999999999998,-0.356903,-0.002657,0.001415,-0.000908,-37.369999,10.37,-17.25,2b
2019-07-15_143827:380,-0.352844,-0.016753999999999998,-0.356903,-0.002535,0.001353,-0.0009689999999999999,-37.060001,10.75,-16.870001000000002,2b
2019-07-15_143827:400,-0.352325,-0.01828,-0.354858,-0.0021079999999999996,0.0017809999999999998,-0.001,-37.060001,10.75,-16.870001000000002,2b
2019-07-15_143827:420,-0.35131799999999996,-0.014740000000000001,-0.355896,-0.0015890000000000001,0.002757,-0.001702,-37.060001,10.0,-17.25,2b
2019-07-15_143827:440,-0.352844,-0.014740000000000001,-0.355377,-0.0015890000000000001,0.003093,-0.000176,-37.060001,10.0,-17.25,2b
2019-07-15_143827:460,-0.347229,-0.016266,-0.35436999999999996,-0.0014060000000000001,0.003093,0.000984,-37.060001,10.0,-17.25,2b
2019-07-15_143827:480,-0.34674099999999997,-0.015747,-0.353333,-0.0015890000000000001,0.002971,-0.00023700000000000001,-37.75,10.37,-16.059998999999998,2b
2019-07-15_143827:500,-0.34570300000000004,-0.015228,-0.353333,-0.0017109999999999998,0.002696,-0.000664,-37.75,10.37,-16.059998999999998,2b
2019-07-15_143827:520,-0.34570300000000004,-0.014740000000000001,-0.353333,-0.001925,0.002116,-0.000573,-37.060001,10.0,-16.5,2b
2019-07-15_143827:540,-0.348267,-0.014740000000000001,-0.35180700000000004,-0.001986,0.002116,-0.000664,-37.060001,10.0,-16.5,2b
2019-07-15_143827:560,-0.349792,-0.015228,-0.353851,-0.0022600000000000003,0.002116,-0.0010609999999999999,-37.060001,10.0,-16.5,2b
2019-07-15_143827:580,-0.34875500000000004,-0.015228,-0.353851,-0.002321,0.002177,-0.0010609999999999999,-37.060001,10.37,-17.25,2b
2019-07-15_143827:600,-0.352325,-0.016753999999999998,-0.352844,-0.002199,0.002361,-0.0010609999999999999,-37.060001,10.37,-17.25,2b
2019-07-15_143827:620,-0.352844,-0.01828,-0.350281,-0.0017109999999999998,0.002239,-0.001,-37.060001,10.37,-16.5,2b
2019-07-15_143827:640,-0.353851,-0.019806,-0.35131799999999996,-0.001192,0.002177,-0.00011499999999999999,-37.060001,10.37,-16.5,2b
2019-07-15_143827:660,-0.353851,-0.021851,-0.35436999999999996,-0.000246,0.002361,0.000221,-37.060001,10.37,-16.5,2b
2019-07-15_143827:680,-0.354858,-0.021851,-0.355377,0.000883,0.002513,-5.4000000000000005e-05,-37.369999,10.0,-16.870001000000002,2b
2019-07-15_143827:700,-0.352325,-0.019318000000000002,-0.35180700000000004,0.0017980000000000001,0.002757,0.000496,-37.369999,10.0,-16.870001000000002,2b
2019-07-15_143827:720,-0.349274,-0.020325,-0.352844,0.0022559999999999998,0.002788,0.001503,-38.18,9.56,-16.059998999999998,2b
2019-07-15_143827:740,-0.348267,-0.023375999999999997,-0.347748,0.002775,0.002361,0.0022960000000000003,-38.18,9.56,-16.059998999999998,2b
2019-07-15_143827:760,-0.3508,-0.022858,-0.347748,0.0032020000000000004,0.0017809999999999998,0.001258,-38.18,9.56,-16.059998999999998,2b
2019-07-15_143827:780,-0.347748,-0.019806,-0.34875500000000004,0.0032020000000000004,0.0017809999999999998,0.00028199999999999997,-37.060001,11.06,-16.870001000000002,2b
2019-07-15_143827:800,-0.34875500000000004,-0.018799,-0.349274,0.002989,0.001292,0.000587,-37.060001,11.06,-16.870001000000002,2b
2019-07-15_143827:820,-0.350281,-0.017792,-0.349274,0.002195,0.0010789999999999999,0.000465,-37.75,10.75,-16.059998999999998,2b
2019-07-15_143827:840,-0.34674099999999997,-0.01828,-0.350281,0.001463,0.000468,-0.00023700000000000001,-37.75,10.75,-16.059998999999998,2b
2019-07-15_143827:860,-0.346222,-0.015747,-0.35180700000000004,0.000334,-0.000233,-0.000328,-37.75,10.75,-16.059998999999998,2b
2019-07-15_143827:880,-0.345215,-0.014740000000000001,-0.352325,-0.001375,-0.001118,-0.00011499999999999999,-37.75,10.37,-15.68,2b
2019-07-15_143827:900,-0.345215,-0.014740000000000001,-0.353333,-0.002993,-0.0024920000000000003,-0.00023700000000000001,-37.75,10.37,-15.68,2b
2019-07-15_143827:920,-0.352325,-0.014740000000000001,-0.35180700000000004,-0.004824,-0.0032240000000000003,0.000831,-37.060001,10.75,-15.68,2b
2019-07-15_143827:940,-0.361969,-0.019318000000000002,-0.353333,-0.005221,-0.002248,0.0008619999999999999,-37.060001,10.75,-15.68,2b
2019-07-15_143827:960,-0.36044299999999996,-0.020844,-0.35436999999999996,-0.005556,0.000499,0.0007700000000000001,-37.060001,10.75,-15.68,2b
2019-07-15_143827:980,-0.353851,-0.024902,-0.35638400000000003,-0.0048850000000000005,0.001353,0.00132,-36.68,10.37,-15.68,2b
2019-07-15_143828:000,-0.349274,-0.027435,-0.355377,-0.00403,0.0016589999999999999,0.001564,-36.68,10.37,-15.68,2b
2019-07-15_143828:020,-0.347748,-0.026917,-0.354858,-0.0036340000000000005,0.0016589999999999999,0.001381,-37.369999,11.06,-16.5,2b
2019-07-15_143828:040,-0.34875500000000004,-0.025908999999999998,-0.354858,-0.002657,0.0016589999999999999,0.002052,-37.369999,11.06,-16.5,2b
2019-07-15_143828:060,-0.349274,-0.023895,-0.35436999999999996,-0.0029010000000000004,0.001842,0.001838,-37.369999,11.06,-16.5,2b
2019-07-15_143828:080,-0.35131799999999996,-0.023895,-0.35436999999999996,-0.003176,0.001994,0.001045,-37.75,10.75,-17.25,2b
2019-07-15_143828:100,-0.350281,-0.023375999999999997,-0.354858,-0.0032979999999999997,0.002361,0.0008619999999999999,-37.75,10.75,-17.25,2b
2019-07-15_143828:120,-0.34875500000000004,-0.021851,-0.356903,-0.0037560000000000002,0.002239,0.001106,-37.060001,10.0,-17.25,2b
2019-07-15_143828:140,-0.348267,-0.020844,-0.35436999999999996,-0.004427,0.002391,0.001258,-37.060001,10.0,-17.25,2b
2019-07-15_143828:160,-0.347229,-0.019806,-0.353333,-0.0051600000000000005,0.002239,0.001167,-37.060001,10.0,-17.25,2b
2019-07-15_143828:180,-0.35131799999999996,-0.019806,-0.358429,-0.005465,0.001994,0.001442,-37.060001,10.37,-16.059998999999998,2b
2019-07-15_143828:200,-0.34674099999999997,-0.022858,-0.354858,-0.006411,0.002239,0.001228,-37.060001,10.37,-16.059998999999998,2b
2019-07-15_143828:220,-0.34674099999999997,-0.020844,-0.349792,-0.006684999999999999,0.0023,0.001258,-37.060001,10.37,-16.5,2b
2019-07-15_143828:240,-0.353333,-0.019806,-0.352844,-0.007448000000000001,0.002116,0.002784,-37.060001,10.37,-16.5,2b
2019-07-15_143828:260,-0.3508,-0.020844,-0.352325,-0.00812,0.0023,0.0022960000000000003,-37.060001,10.37,-16.5,2b
2019-07-15_143828:280,-0.352844,-0.020844,-0.35739099999999996,-0.008851999999999999,0.002513,0.001258,-37.369999,10.37,-17.25,2b
2019-07-15_143828:300,-0.34875500000000004,-0.024384,-0.352844,-0.009004999999999999,0.0024519999999999998,0.00132,-37.369999,10.37,-17.25,2b
2019-07-15_143828:320,-0.346222,-0.024384,-0.353333,-0.009004999999999999,0.002177,0.001228,-38.18,10.75,-16.059998999999998,2b
2019-07-15_143828:340,-0.345215,-0.025908999999999998,-0.35131799999999996,-0.008608,0.00172,0.000831,-38.18,10.75,-16.059998999999998,2b
2019-07-15_143828:360,-0.344177,-0.026427999999999997,-0.35131799999999996,-0.008059,0.00114,0.000465,-38.18,10.75,-16.059998999999998,2b
2019-07-15_143828:380,-0.347748,-0.024902,-0.353851,-0.007784,0.001018,0.000404,-37.369999,10.37,-16.5,2b
2019-07-15_143828:400,-0.349274,-0.023375999999999997,-0.35180700000000004,-0.006991,0.000468,0.000465,-37.369999,10.37,-16.5,2b
2019-07-15_143828:420,-0.352844,-0.021332,-0.353851,-0.006869,0.000621,0.000221,-37.369999,10.37,-16.5,2b
2019-07-15_143828:440,-0.352844,-0.020325,-0.353851,-0.0066549999999999995,0.0016589999999999999,-5.4000000000000005e-05,-37.369999,10.37,-16.5,2b
2019-07-15_143828:460,-0.3508,-0.019806,-0.355377,-0.006684999999999999,0.001628,0.000221,-37.369999,10.37,-16.5,2b
2019-07-15_143828:480,-0.350281,-0.015747,-0.35638400000000003,-0.007081999999999999,0.0016589999999999999,0.000496,-37.75,11.06,-17.25,2b
2019-07-15_143828:500,-0.349274,-0.016753999999999998,-0.353333,-0.007387,0.0016589999999999999,0.000404,-37.75,11.06,-17.25,2b
2019-07-15_143828:520,-0.353333,-0.017792,-0.353851,-0.007601,0.0016589999999999999,0.000343,-38.869999,10.37,-17.68,2b
2019-07-15_143828:540,-0.350281,-0.017792,-0.35131799999999996,-0.007998,0.002116,0.000984,-38.869999,10.37,-17.68,2b
2019-07-15_143828:560,-0.349792,-0.017792,-0.352325,-0.007876000000000001,0.001994,0.000343,-38.869999,10.37,-17.68,2b
2019-07-15_143828:580,-0.347229,-0.017792,-0.352325,-0.007723000000000001,0.001994,-0.00011499999999999999,-36.68,10.75,-16.059998999999998,2b
2019-07-15_143828:600,-0.347229,-0.017273,-0.3508,-0.007051999999999999,0.001353,7.000000000000001e-06,-36.68,10.75,-16.059998999999998,2b
2019-07-15_143828:620,-0.349274,-0.017273,-0.353333,-0.006684999999999999,0.001018,6.8e-05,-37.369999,9.56,-16.059998999999998,2b
2019-07-15_143828:640,-0.34875500000000004,-0.015747,-0.353333,-0.005526,0.001018,-0.00023700000000000001,-37.369999,9.56,-16.059998999999998,2b
2019-07-15_143828:660,-0.350281,-0.014740000000000001,-0.355377,-0.004946,0.001292,6.8e-05,-37.369999,9.56,-16.059998999999998,2b
2019-07-15_143828:680,-0.350281,-0.014740000000000001,-0.354858,-0.004397,0.001201,0.00016,-37.060001,10.37,-17.68,2b
2019-07-15_143828:700,-0.346222,-0.010162000000000001,-0.355377,-0.004152,0.001018,0.000221,-37.060001,10.37,-17.68,2b
2019-07-15_143828:720,-0.34265100000000004,-0.008636,-0.355896,-0.004397,0.000621,0.000343,-37.060001,10.75,-17.25,2b
2019-07-15_143828:740,-0.347229,-0.005065999999999999,-0.353333,-0.004946,-0.0005690000000000001,0.001381,-37.060001,10.75,-17.25,2b
2019-07-15_143828:760,-0.349274,-0.004059,-0.353333,-0.005861,-0.000264,0.0021739999999999997,-37.060001,10.75,-17.25,2b
2019-07-15_143828:780,-0.352325,-0.005065999999999999,-0.352844,-0.006136,-0.000172,0.00251,-37.060001,10.37,-16.870001000000002,2b
2019-07-15_143828:800,-0.35436999999999996,-0.006592,-0.35131799999999996,-0.007540000000000001,0.00056,0.003151,-37.060001,10.37,-16.870001000000002,2b
2019-07-15_143828:820,-0.35638400000000003,-0.010651,-0.352325,-0.007723000000000001,0.000865,0.003151,-37.75,9.56,-16.870001000000002,2b
2019-07-15_143828:840,-0.355896,-0.013702,-0.353851,-0.007448000000000001,0.002116,0.00251,-37.75,9.56,-16.870001000000002,2b
2019-07-15_143828:860,-0.355377,-0.015228,-0.352325,-0.007204,0.003093,0.002449,-37.75,9.56,-16.870001000000002,2b
2019-07-15_143828:880,-0.349274,-0.016753999999999998,-0.353851,-0.0066549999999999995,0.003307,0.002357,-36.68,9.56,-17.25,2b
2019-07-15_143828:900,-0.34317,-0.01828,-0.352844,-0.005953,0.002239,0.001838,-36.68,9.56,-17.25,2b
2019-07-15_143828:920,-0.34317,-0.017273,-0.354858,-0.005404,0.001964,0.0018989999999999999,-36.68,9.56,-17.25,2b
2019-07-15_143828:940,-0.344696,-0.014221000000000001,-0.354858,-0.004336,0.0009570000000000001,0.001564,-37.75,10.0,-17.25,2b
2019-07-15_143828:960,-0.344177,-0.013213999999999998,-0.353851,-0.003878,0.000682,0.001716,-37.75,10.0,-17.25,2b
2019-07-15_143828:980,-0.347748,-0.011687999999999999,-0.355377,-0.003664,0.000865,0.001655,-37.060001,10.0,-17.25,2b
2019-07-15_143829:000,-0.347229,-0.010651,-0.355377,-0.0036950000000000004,0.001018,0.001564,-37.060001,10.0,-17.25,2b
2019-07-15_143829:020,-0.348267,-0.011169,-0.358429,-0.004,0.000865,0.001655,-37.060001,10.0,-17.25,2b
2019-07-15_143829:040,-0.350281,-0.011169,-0.355896,-0.004275,0.001201,0.0021739999999999997,-36.68,10.0,-16.870001000000002,2b
2019-07-15_143829:060,-0.350281,-0.013213999999999998,-0.355896,-0.004397,0.001292,0.002235,-36.68,10.0,-16.870001000000002,2b
2019-07-15_143829:080,-0.349274,-0.012695,-0.352844,-0.004671,0.001353,0.002052,-37.369999,9.25,-18.059998999999998,2b
2019-07-15_143829:100,-0.349274,-0.015228,-0.355896,-0.004793,0.0012619999999999999,0.0029059999999999997,-37.369999,9.25,-18.059998999999998,2b
2019-07-15_143829:120,-0.35180700000000004,-0.016266,-0.35436999999999996,-0.005007,0.0010789999999999999,0.0029059999999999997,-37.369999,9.25,-18.059998999999998,2b
2019-07-15_143829:140,-0.352325,-0.016753999999999998,-0.35436999999999996,-0.005007,0.0016589999999999999,0.001503,-36.68,11.06,-16.870001000000002,2b
2019-07-15_143829:160,-0.352325,-0.015228,-0.353333,-0.004671,0.002574,0.000923,-36.68,11.06,-16.870001000000002,2b
2019-07-15_143829:180,-0.347748,-0.016753999999999998,-0.354858,-0.004488000000000001,0.002696,0.0007700000000000001,-36.25,10.0,-18.059998999999998,2b
2019-07-15_143829:200,-0.34674099999999997,-0.015228,-0.355896,-0.004275,0.002849,0.00028199999999999997,-36.25,10.0,-18.059998999999998,2b
2019-07-15_143829:220,-0.34674099999999997,-0.013702,-0.35638400000000003,-0.004152,0.002757,6.8e-05,-37.75,10.37,-18.059998999999998,2b
2019-07-15_143829:240,-0.34674099999999997,-0.014221000000000001,-0.355896,-0.0037560000000000002,0.002696,-0.000328,-37.75,10.37,-18.059998999999998,2b
2019-07-15_143829:260,-0.346222,-0.011169,-0.356903,-0.003512,0.002635,0.000129,-37.75,10.37,-18.059998999999998,2b
2019-07-15_143829:280,-0.346222,-0.011687999999999999,-0.35436999999999996,-0.003573,0.002055,0.001228,-37.060001,10.75,-17.25,2b
2019-07-15_143829:300,-0.348267,-0.010162000000000001,-0.353851,-0.0036340000000000005,0.002055,0.001106,-37.060001,10.75,-17.25,2b
2019-07-15_143829:320,-0.34875500000000004,-0.009644,-0.35436999999999996,-0.004275,0.0019030000000000002,0.001167,-36.68,10.75,-16.5,2b
2019-07-15_143829:340,-0.35180700000000004,-0.011169,-0.353851,-0.004397,0.001994,0.001045,-36.68,10.75,-16.5,2b
2019-07-15_143829:360,-0.352325,-0.013702,-0.352844,-0.0048850000000000005,0.002513,0.000923,-36.68,10.75,-16.5,2b
2019-07-15_143829:380,-0.35436999999999996,-0.014740000000000001,-0.35180700000000004,-0.0048850000000000005,0.0029100000000000003,0.001258,-37.369999,10.75,-16.870001000000002,2b
2019-07-15_143829:400,-0.350281,-0.015228,-0.35180700000000004,-0.004488000000000001,0.003032,0.001991,-37.369999,10.75,-16.870001000000002,2b
2019-07-15_143829:420,-0.350281,-0.017273,-0.352844,-0.004336,0.003093,0.001838,-37.369999,10.75,-16.870001000000002,2b
2019-07-15_143829:440,-0.349792,-0.017273,-0.352325,-0.0036340000000000005,0.002788,0.001045,-37.369999,10.37,-16.5,2b
2019-07-15_143829:460,-0.349274,-0.017273,-0.352325,-0.0036340000000000005,0.002849,0.001167,-37.369999,10.37,-16.5,2b
2019-07-15_143829:480,-0.352325,-0.015747,-0.353333,-0.003176,0.002391,0.000587,-37.060001,10.37,-16.5,2b
2019-07-15_143829:500,-0.352325,-0.014740000000000001,-0.3508,-0.0032979999999999997,0.002635,0.000343,-37.060001,10.37,-16.5,2b
2019-07-15_143829:520,-0.35131799999999996,-0.011687999999999999,-0.35131799999999996,-0.0032979999999999997,0.0024519999999999998,6.8e-05,-36.68,10.75,-17.68,2b
2019-07-15_143829:540,-0.350281,-0.011169,-0.349792,-0.0033280000000000002,0.002513,6.8e-05,-36.68,10.75,-17.68,2b
2019-07-15_143829:560,-0.349274,-0.011687999999999999,-0.347748,-0.003664,0.002361,-0.0008470000000000001,-36.68,10.75,-17.68,2b
2019-07-15_143829:580,-0.3508,-0.010162000000000001,-0.350281,-0.003664,0.0024519999999999998,-0.000664,-37.75,10.75,-16.870001000000002,2b
2019-07-15_143829:600,-0.349274,-0.010651,-0.348267,-0.0036340000000000005,0.001964,-0.000328,-37.75,10.75,-16.870001000000002,2b
2019-07-15_143829:620,-0.350281,-0.009125,-0.349792,-0.0037560000000000002,0.001628,-0.000512,-37.75,11.06,-16.5,2b
2019-07-15_143829:640,-0.352844,-0.009125,-0.35131799999999996,-0.0034509999999999996,0.001415,-0.00011499999999999999,-37.75,11.06,-16.5,2b
2019-07-15_143829:660,-0.35436999999999996,-0.010651,-0.35131799999999996,-0.0034509999999999996,0.001292,-5.4000000000000005e-05,-37.75,11.06,-16.5,2b
2019-07-15_143829:680,-0.35739099999999996,-0.008636,-0.35131799999999996,-0.0032979999999999997,0.0016589999999999999,-5.4000000000000005e-05,-37.060001,10.37,-18.059998999999998,2b
2019-07-15_143829:700,-0.35638400000000003,-0.008118,-0.34875500000000004,-0.00339,0.0023,0.000129,-37.060001,10.37,-18.059998999999998,2b
2019-07-15_143829:720,-0.35131799999999996,-0.008636,-0.35131799999999996,-0.0036340000000000005,0.002971,0.000648,-37.060001,10.37,-18.059998999999998,2b
2019-07-15_143829:740,-0.348267,-0.010651,-0.35131799999999996,-0.0036950000000000004,0.002757,0.0008619999999999999,-37.75,10.37,-17.68,2b
2019-07-15_143829:760,-0.348267,-0.014221000000000001,-0.353851,-0.0037560000000000002,0.002177,0.001106,-37.75,10.37,-17.68,2b
2019-07-15_143829:780,-0.349274,-0.014740000000000001,-0.353333,-0.0032979999999999997,0.001353,0.001167,-37.060001,10.75,-17.25,2b
2019-07-15_143829:800,-0.349792,-0.013702,-0.35180700000000004,-0.002932,0.001292,0.000648,-37.060001,10.75,-17.25,2b
2019-07-15_143829:820,-0.35180700000000004,-0.011169,-0.353333,-0.002443,0.001537,0.000923,-37.060001,10.75,-17.25,2b
2019-07-15_143829:840,-0.352844,-0.010162000000000001,-0.35180700000000004,-0.0025050000000000003,0.001598,0.001228,-35.869999,11.06,-17.25,2b
2019-07-15_143829:860,-0.35131799999999996,-0.012177,-0.353333,-0.002443,0.0019030000000000002,0.001167,-35.869999,11.06,-17.25,2b
2019-07-15_143829:880,-0.353333,-0.011687999999999999,-0.353333,-0.0028399999999999996,0.002055,0.001045,-37.060001,10.75,-16.059998999999998,2b
2019-07-15_143829:900,-0.352844,-0.012695,-0.35131799999999996,-0.003237,0.0023,0.001167,-37.060001,10.75,-16.059998999999998,2b
2019-07-15_143829:920,-0.352844,-0.014740000000000001,-0.352844,-0.0033280000000000002,0.001964,0.000984,-37.060001,10.75,-16.059998999999998,2b
2019-07-15_143829:940,-0.35436999999999996,-0.015747,-0.350281,-0.003054,0.002361,0.001045,-37.060001,10.37,-16.870001000000002,2b
2019-07-15_143829:960,-0.352325,-0.017273,-0.350281,-0.002657,0.002391,0.001625,-37.060001,10.37,-16.870001000000002,2b
2019-07-15_143829:980,-0.352844,-0.016266,-0.34875500000000004,-0.0025960000000000002,0.002391,0.001442,-37.369999,10.0,-16.870001000000002,2b
2019-07-15_143830:000,-0.354858,-0.019806,-0.3508,-0.002443,0.001994,0.002693,-37.369999,10.0,-16.870001000000002,2b
2019-07-15_143830:020,-0.353333,-0.017792,-0.3508,-0.002718,0.002116,0.002449,-37.369999,10.0,-16.870001000000002,2b
2019-07-15_143830:040,-0.353851,-0.017273,-0.352325,-0.002718,0.001842,0.001045,-37.060001,10.75,-17.25,2b
2019-07-15_143830:060,-0.35436999999999996,-0.016753999999999998,-0.350281,-0.0025960000000000002,0.002055,-0.00023700000000000001,-37.060001,10.75,-17.25,2b
2019-07-15_143830:080,-0.35436999999999996,-0.017273,-0.350281,-0.002718,0.002635,-0.00011499999999999999,-37.369999,10.37,-16.870001000000002,2b
2019-07-15_143830:100,-0.353851,-0.014740000000000001,-0.348267,-0.002535,0.002757,-0.00011499999999999999,-37.369999,10.37,-16.870001000000002,2b
2019-07-15_143830:120,-0.353851,-0.013213999999999998,-0.348267,-0.002932,0.003093,-0.000176,-37.369999,10.37,-16.870001000000002,2b
2019-07-15_143830:140,-0.35180700000000004,-0.012695,-0.347748,-0.002993,0.003093,7.000000000000001e-06,-37.369999,10.75,-16.870001000000002,2b
2019-07-15_143830:160,-0.353851,-0.013702,-0.348267,-0.0033280000000000002,0.002696,0.000648,-37.369999,10.75,-16.870001000000002,2b
2019-07-15_143830:180,-0.352844,-0.014221000000000001,-0.349792,-0.0036950000000000004,0.002239,0.001167,-37.060001,11.87,-16.870001000000002,2b
2019-07-15_143830:200,-0.353333,-0.015747,-0.348267,-0.004091,0.001964,0.000984,-37.060001,11.87,-16.870001000000002,2b
2019-07-15_143830:220,-0.35180700000000004,-0.017273,-0.349792,-0.003939,0.001598,0.000984,-37.060001,11.87,-16.870001000000002,2b
2019-07-15_143830:240,-0.354858,-0.020325,-0.347748,-0.0036950000000000004,0.0014759999999999999,0.000343,-37.369999,10.0,-16.870001000000002,2b
2019-07-15_143830:260,-0.35739099999999996,-0.020844,-0.349792,-0.002993,0.00172,7.000000000000001e-06,-37.369999,10.0,-16.870001000000002,2b
2019-07-15_143830:280,-0.356903,-0.019318000000000002,-0.349274,-0.002443,0.002239,0.000831,-37.060001,10.75,-16.5,2b
2019-07-15_143830:300,-0.354858,-0.019318000000000002,-0.349274,-0.0017109999999999998,0.002788,0.001167,-37.060001,10.75,-16.5,2b
2019-07-15_143830:320,-0.352844,-0.016753999999999998,-0.349274,-0.001772,0.002635,0.00028199999999999997,-37.060001,10.75,-16.5,2b
2019-07-15_143830:340,-0.352325,-0.017273,-0.34875500000000004,-0.0018030000000000001,0.002513,7.000000000000001e-06,-37.75,11.06,-16.5,2b
2019-07-15_143830:360,-0.353851,-0.014740000000000001,-0.347229,-0.0022600000000000003,0.002116,0.000465,-37.75,11.06,-16.5,2b
2019-07-15_143830:380,-0.354858,-0.017273,-0.348267,-0.0028399999999999996,0.002177,0.000343,-37.75,11.06,-16.870001000000002,2b
2019-07-15_143830:400,-0.35638400000000003,-0.017792,-0.34674099999999997,-0.0032979999999999997,0.001994,0.000343,-37.75,11.06,-16.870001000000002,2b
2019-07-15_143830:420,-0.355377,-0.017792,-0.349274,-0.003512,0.002361,0.000129,-37.75,11.06,-16.870001000000002,2b
2019-07-15_143830:440,-0.354858,-0.01828,-0.347748,-0.003664,0.002361,6.8e-05,-37.060001,10.75,-15.68,2b
2019-07-15_143830:460,-0.352844,-0.019806,-0.346222,-0.003512,0.002116,0.000129,-37.060001,10.75,-15.68,2b
2019-07-15_143830:480,-0.352325,-0.020325,-0.34674099999999997,-0.0033280000000000002,0.0023,6.8e-05,-37.369999,11.87,-16.059998999999998,2b
2019-07-15_143830:500,-0.35436999999999996,-0.017792,-0.347229,-0.0031149999999999997,0.001994,-0.000176,-37.369999,11.87,-16.059998999999998,2b
2019-07-15_143830:520,-0.35436999999999996,-0.01828,-0.348267,-0.0029010000000000004,0.00172,-0.00023700000000000001,-37.369999,11.87,-16.059998999999998,2b
2019-07-15_143830:540,-0.35638400000000003,-0.017792,-0.34875500000000004,-0.002718,0.001628,-0.000267,-37.75,11.87,-16.870001000000002,2b
2019-07-15_143830:560,-0.35791,-0.016753999999999998,-0.347748,-0.002443,0.0017809999999999998,-0.000176,-37.75,11.87,-16.870001000000002,2b
2019-07-15_143830:580,-0.353851,-0.017273,-0.34875500000000004,-0.002382,0.0019030000000000002,-0.000176,-37.369999,11.06,-16.059998999999998,2b
2019-07-15_143830:600,-0.353851,-0.015747,-0.347748,-0.002382,0.002055,6.8e-05,-37.369999,11.06,-16.059998999999998,2b
2019-07-15_143830:620,-0.355377,-0.015747,-0.347748,-0.002535,0.002116,6.8e-05,-37.369999,11.06,-16.059998999999998,2b
2019-07-15_143830:640,-0.35436999999999996,-0.015747,-0.347229,-0.002993,0.001994,6.8e-05,-36.68,10.75,-15.68,2b
2019-07-15_143830:660,-0.356903,-0.015747,-0.34674099999999997,-0.0033280000000000002,0.002055,0.00016,-36.68,10.75,-15.68,2b
2019-07-15_143830:680,-0.35638400000000003,-0.016753999999999998,-0.347229,-0.003664,0.002055,0.00028199999999999997,-37.75,11.06,-16.5,2b
2019-07-15_143830:700,-0.35791,-0.018799,-0.347748,-0.003664,0.0023,0.00016,-37.75,11.06,-16.5,2b
2019-07-15_143830:720,-0.353333,-0.01828,-0.348267,-0.003512,0.002513,6.8e-05,-37.75,11.06,-16.5,2b
2019-07-15_143830:740,-0.352325,-0.01828,-0.347748,-0.003573,0.002239,-0.000267,-37.369999,10.75,-17.25,2b
2019-07-15_143830:760,-0.353333,-0.018799,-0.347748,-0.0033280000000000002,0.001842,-0.000267,-37.369999,10.75,-17.25,2b
2019-07-15_143830:780,-0.355377,-0.01828,-0.347748,-0.0032979999999999997,0.001628,-0.000634,-37.369999,11.06,-16.5,2b
2019-07-15_143830:800,-0.35638400000000003,-0.017273,-0.345215,-0.003054,0.001598,-0.000664,-37.369999,11.06,-16.5,2b
2019-07-15_143830:820,-0.35638400000000003,-0.017273,-0.347229,-0.0029010000000000004,0.0019030000000000002,-0.000634,-37.369999,11.06,-16.5,2b
2019-07-15_143830:840,-0.35739099999999996,-0.014740000000000001,-0.34674099999999997,-0.002932,0.0017809999999999998,-0.0011220000000000002,-37.75,11.06,-16.5,2b
2019-07-15_143830:860,-0.36044299999999996,-0.013702,-0.346222,-0.003054,0.002239,0.000129,-37.75,11.06,-16.5,2b
2019-07-15_143830:880,-0.35638400000000003,-0.015228,-0.34674099999999997,-0.00339,0.0023,0.001381,-37.060001,11.5,-16.5,2b
2019-07-15_143830:900,-0.35739099999999996,-0.016266,-0.346222,-0.003817,0.002177,0.001167,-37.060001,11.5,-16.5,2b
2019-07-15_143830:920,-0.35943600000000003,-0.015747,-0.352844,-0.003939,0.002055,0.000129,-37.060001,11.5,-16.5,2b
2019-07-15_143830:940,-0.350281,-0.017273,-0.339111,-0.004427,0.002513,-0.000512,-38.18,10.75,-15.68,2b
2019-07-15_143830:960,-0.353333,-0.017273,-0.340118,-0.004336,0.0016589999999999999,-0.000512,-38.18,10.75,-15.68,2b
2019-07-15_143830:980,-0.353851,-0.015228,-0.34063699999999997,-0.0037560000000000002,0.001018,-0.000573,-37.75,10.0,-16.059998999999998,2b
2019-07-15_143831:000,-0.358429,-0.016266,-0.348267,-0.003512,0.000865,-0.000512,-37.75,10.0,-16.059998999999998,2b
2019-07-15_143831:020,-0.358917,-0.016266,-0.346222,-0.0034509999999999996,0.001018,-0.00011499999999999999,-37.75,10.0,-16.059998999999998,2b
2019-07-15_143831:040,-0.360962,-0.014740000000000001,-0.347229,-0.0033280000000000002,0.0012619999999999999,0.00028199999999999997,-37.75,10.75,-17.25,2b
2019-07-15_143831:060,-0.35638400000000003,-0.013213999999999998,-0.346222,-0.0033280000000000002,0.001598,0.000496,-37.75,10.75,-17.25,2b
2019-07-15_143831:080,-0.355377,-0.014740000000000001,-0.347229,-0.003664,0.001628,0.0008619999999999999,-37.75,10.75,-16.059998999999998,2b
2019-07-15_143831:100,-0.35436999999999996,-0.017792,-0.34674099999999997,-0.003664,0.001628,0.0008619999999999999,-37.75,10.75,-16.059998999999998,2b
2019-07-15_143831:120,-0.355896,-0.020325,-0.347748,-0.0036950000000000004,0.0014759999999999999,0.001228,-37.75,10.75,-16.059998999999998,2b
2019-07-15_143831:140,-0.358429,-0.021851,-0.347748,-0.0031149999999999997,0.001292,0.000923,-36.25,11.06,-16.870001000000002,2b
2019-07-15_143831:160,-0.35638400000000003,-0.021332,-0.347748,-0.0025960000000000002,0.001415,0.001228,-36.25,11.06,-16.870001000000002,2b
2019-07-15_143831:180,-0.355896,-0.020844,-0.34570300000000004,-0.0020469999999999998,0.001598,0.0007700000000000001,-37.75,11.06,-18.059998999999998,2b
2019-07-15_143831:200,-0.355377,-0.019318000000000002,-0.344696,-0.001925,0.0016589999999999999,-0.00045099999999999996,-37.75,11.06,-18.059998999999998,2b
2019-07-15_143831:220,-0.353851,-0.016753999999999998,-0.34674099999999997,-0.001986,0.001353,-5.4000000000000005e-05,-37.75,11.06,-18.059998999999998,2b
2019-07-15_143831:240,-0.353333,-0.015747,-0.347748,-0.002321,0.0012619999999999999,0.00028199999999999997,-37.75,11.06,-16.5,2b
2019-07-15_143831:260,-0.35638400000000003,-0.016753999999999998,-0.347748,-0.002932,0.0009570000000000001,-0.00011499999999999999,-37.75,11.06,-16.5,2b
2019-07-15_143831:280,-0.358429,-0.015228,-0.348267,-0.00339,0.000865,-0.000267,-37.369999,11.5,-16.5,2b
2019-07-15_143831:300,-0.36044299999999996,-0.017273,-0.348267,-0.0037560000000000002,0.001353,-0.000267,-37.369999,11.5,-16.5,2b
2019-07-15_143831:320,-0.35943600000000003,-0.016753999999999998,-0.34875500000000004,-0.003939,0.001842,-0.00045099999999999996,-37.369999,11.5,-16.5,2b
2019-07-15_143831:340,-0.358917,-0.016266,-0.347229,-0.003878,0.002055,-0.000328,-37.75,10.75,-17.25,2b
2019-07-15_143831:360,-0.356903,-0.016266,-0.344696,-0.004091,0.002361,-0.000328,-37.75,10.75,-17.25,2b
2019-07-15_143831:380,-0.355377,-0.015228,-0.344696,-0.004,0.0023,-0.000176,-38.18,10.75,-15.68,2b
2019-07-15_143831:400,-0.354858,-0.016266,-0.346222,-0.004,0.0024519999999999998,7.000000000000001e-06,-38.18,10.75,-15.68,2b
2019-07-15_143831:420,-0.355377,-0.016266,-0.344696,-0.003664,0.0016589999999999999,0.00016,-38.18,10.75,-15.68,2b
2019-07-15_143831:440,-0.354858,-0.016753999999999998,-0.346222,-0.003512,0.001628,0.000496,-37.369999,10.37,-16.059998999999998,2b
2019-07-15_143831:460,-0.35739099999999996,-0.015228,-0.34674099999999997,-0.003237,0.0014759999999999999,0.000587,-37.369999,10.37,-16.059998999999998,2b
2019-07-15_143831:480,-0.35739099999999996,-0.016266,-0.347748,-0.003237,0.001292,0.000526,-37.060001,10.37,-16.059998999999998,2b
2019-07-15_143831:500,-0.35739099999999996,-0.015228,-0.346222,-0.00339,0.001598,0.000648,-37.060001,10.37,-16.059998999999998,2b
2019-07-15_143831:520,-0.35739099999999996,-0.014740000000000001,-0.347748,-0.0036340000000000005,0.0017809999999999998,0.0008619999999999999,-37.060001,10.37,-16.059998999999998,2b
2019-07-15_143831:540,-0.356903,-0.016753999999999998,-0.34570300000000004,-0.003817,0.001628,0.0007700000000000001,-36.68,11.5,-17.25,2b
2019-07-15_143831:560,-0.356903,-0.017273,-0.34674099999999997,-0.004,0.001842,0.000984,-36.68,11.5,-17.25,2b
2019-07-15_143831:580,-0.356903,-0.019318000000000002,-0.34875500000000004,-0.003878,0.0019030000000000002,0.000587,-37.369999,10.0,-16.5,2b
2019-07-15_143831:600,-0.35943600000000003,-0.019318000000000002,-0.347229,-0.0036340000000000005,0.0019030000000000002,0.000404,-37.369999,10.0,-16.5,2b
2019-07-15_143831:620,-0.36044299999999996,-0.018799,-0.34674099999999997,-0.0034509999999999996,0.002177,0.000496,-37.369999,10.0,-16.5,2b
2019-07-15_143831:640,-0.358429,-0.017273,-0.346222,-0.003237,0.002757,0.000526,-36.68,10.75,-16.059998999999998,2b
2019-07-15_143831:660,-0.355377,-0.014740000000000001,-0.346222,-0.0034509999999999996,0.002635,0.000496,-36.68,10.75,-16.059998999999998,2b
2019-07-15_143831:680,-0.35436999999999996,-0.014221000000000001,-0.34570300000000004,-0.003878,0.002361,0.00016,-37.369999,11.06,-16.870001000000002,2b
2019-07-15_143831:700,-0.355896,-0.014740000000000001,-0.344177,-0.004152,0.002177,0.000221,-37.369999,11.06,-16.870001000000002,2b
2019-07-15_143831:720,-0.358429,-0.015747,-0.345215,-0.004336,0.002239,6.8e-05,-37.369999,11.06,-16.870001000000002,2b
2019-07-15_143831:740,-0.36044299999999996,-0.015747,-0.34368899999999997,-0.00403,0.002239,0.000496,-37.75,10.75,-16.5,2b
2019-07-15_143831:760,-0.356903,-0.017792,-0.344177,-0.003817,0.002239,0.0007700000000000001,-37.75,10.75,-16.5,2b
2019-07-15_143831:780,-0.35436999999999996,-0.013213999999999998,-0.34317,-0.004,0.002177,0.001381,-37.060001,10.75,-15.25,2b
2019-07-15_143831:800,-0.358429,-0.015747,-0.34265100000000004,-0.004,0.001964,0.002571,-37.060001,10.75,-15.25,2b
2019-07-15_143831:820,-0.359955,-0.016753999999999998,-0.34368899999999997,-0.004549,0.001628,0.00251,-37.060001,10.75,-15.25,2b
2019-07-15_143831:840,-0.36044299999999996,-0.01828,-0.344696,-0.004946,0.001842,0.001167,-37.75,9.56,-16.059998999999998,2b
2019-07-15_143831:860,-0.35739099999999996,-0.01828,-0.347229,-0.005129,0.0019030000000000002,6.8e-05,-37.75,9.56,-16.059998999999998,2b
2019-07-15_143831:880,-0.354858,-0.019806,-0.346222,-0.00461,0.00172,0.000648,-37.369999,10.75,-16.059998999999998,2b
2019-07-15_143831:900,-0.35436999999999996,-0.021332,-0.344696,-0.00403,0.001628,0.000404,-37.369999,10.75,-16.059998999999998,2b
2019-07-15_143831:920,-0.355377,-0.020325,-0.346222,-0.00339,0.001415,-0.00023700000000000001,-37.369999,10.75,-16.059998999999998,2b
2019-07-15_143831:940,-0.35638400000000003,-0.017792,-0.347748,-0.002779,0.001292,0.00028199999999999997,-37.060001,10.0,-16.870001000000002,2b
2019-07-15_143831:960,-0.35943600000000003,-0.016266,-0.345215,-0.0025050000000000003,0.001353,0.000648,-37.060001,10.0,-16.870001000000002,2b
2019-07-15_143831:980,-0.359955,-0.013702,-0.34674099999999997,-0.002779,0.001628,0.000923,-37.75,11.06,-16.059998999999998,2b
2019-07-15_143832:000,-0.358429,-0.014740000000000001,-0.344696,-0.003512,0.0016589999999999999,0.001045,-37.75,11.06,-16.059998999999998,2b
2019-07-15_143832:020,-0.358429,-0.014740000000000001,-0.345215,-0.004336,0.001964,0.001045,-37.75,11.06,-16.059998999999998,2b
2019-07-15_143832:040,-0.358429,-0.016266,-0.344696,-0.004732,0.001964,0.000984,-37.060001,11.06,-16.059998999999998,2b
2019-07-15_143832:060,-0.359955,-0.018799,-0.344696,-0.0048850000000000005,0.002116,0.001106,-37.060001,11.06,-16.059998999999998,2b
2019-07-15_143832:080,-0.359955,-0.018799,-0.34317,-0.004671,0.002055,0.000984,-37.060001,10.37,-16.870001000000002,2b
2019-07-15_143832:100,-0.35943600000000003,-0.019318000000000002,-0.342163,-0.004275,0.0024519999999999998,0.001258,-37.060001,10.37,-16.870001000000002,2b
2019-07-15_143832:120,-0.36044299999999996,-0.019806,-0.34317,-0.003878,0.0024519999999999998,0.001167,-37.060001,10.37,-16.870001000000002,2b
2019-07-15_143832:140,-0.358429,-0.018799,-0.344177,-0.003664,0.002513,0.000221,-37.060001,11.06,-16.5,2b
2019-07-15_143832:160,-0.35791,-0.01828,-0.344177,-0.0034509999999999996,0.002361,0.00028199999999999997,-37.060001,11.06,-16.5,2b
2019-07-15_143832:180,-0.356903,-0.01828,-0.344177,-0.0034509999999999996,0.0019030000000000002,0.000648,-38.18,10.75,-15.25,2b
2019-07-15_143832:200,-0.356903,-0.01828,-0.34368899999999997,-0.003176,0.00172,0.00028199999999999997,-38.18,10.75,-15.25,2b
2019-07-15_143832:220,-0.358429,-0.016753999999999998,-0.34570300000000004,-0.003237,0.00172,0.000343,-38.18,10.75,-15.25,2b
2019-07-15_143832:240,-0.35943600000000003,-0.017273,-0.34570300000000004,-0.0033280000000000002,0.0016589999999999999,6.8e-05,-35.869999,10.75,-16.059998999999998,2b
2019-07-15_143832:260,-0.35943600000000003,-0.017273,-0.344696,-0.0032979999999999997,0.0017809999999999998,-0.00011499999999999999,-35.869999,10.75,-16.059998999999998,2b
2019-07-15_143832:280,-0.358917,-0.016266,-0.344696,-0.0033280000000000002,0.001964,-5.4000000000000005e-05,-38.18,10.75,-16.5,2b
2019-07-15_143832:300,-0.356903,-0.015747,-0.34265100000000004,-0.0033280000000000002,0.0017809999999999998,6.8e-05,-38.18,10.75,-16.5,2b
2019-07-15_143832:320,-0.358429,-0.015228,-0.344177,-0.0032979999999999997,0.001628,6.8e-05,-38.18,10.75,-16.5,2b
2019-07-15_143832:340,-0.35943600000000003,-0.015747,-0.34317,-0.003512,0.0016589999999999999,6.8e-05,-38.18,10.37,-16.059998999999998,2b
2019-07-15_143832:360,-0.358917,-0.015228,-0.342163,-0.0034509999999999996,0.0017809999999999998,0.000404,-38.18,10.37,-16.059998999999998,2b
2019-07-15_143832:380,-0.358429,-0.016266,-0.344177,-0.003512,0.001628,0.000831,-37.060001,10.75,-15.68,2b
2019-07-15_143832:400,-0.359955,-0.016266,-0.342163,-0.003878,0.001598,0.001106,-37.060001,10.75,-15.68,2b
2019-07-15_143832:420,-0.35739099999999996,-0.016266,-0.34265100000000004,-0.004091,0.001537,0.001258,-37.060001,10.75,-15.68,2b
2019-07-15_143832:440,-0.358429,-0.016753999999999998,-0.34368899999999997,-0.004336,0.001292,0.001106,-38.18,10.75,-16.870001000000002,2b
2019-07-15_143832:460,-0.358917,-0.018799,-0.34317,-0.004213000000000001,0.0014759999999999999,0.001045,-38.18,10.75,-16.870001000000002,2b
2019-07-15_143832:480,-0.358429,-0.020844,-0.345215,-0.004152,0.001353,0.000984,-37.369999,11.06,-15.68,2b
2019-07-15_143832:500,-0.35791,-0.020325,-0.34368899999999997,-0.003817,0.001292,0.000709,-37.369999,11.06,-15.68,2b
2019-07-15_143832:520,-0.359955,-0.020325,-0.344177,-0.003512,0.001415,0.000526,-37.369999,11.06,-15.68,2b
2019-07-15_143832:540,-0.359955,-0.01828,-0.34570300000000004,-0.0033280000000000002,0.001628,0.000465,-37.369999,10.75,-15.25,2b
2019-07-15_143832:560,-0.359955,-0.017792,-0.345215,-0.0033280000000000002,0.00172,0.00028199999999999997,-37.369999,10.75,-15.25,2b
2019-07-15_143832:580,-0.359955,-0.016753999999999998,-0.34368899999999997,-0.0036340000000000005,0.0019030000000000002,0.00016,-38.18,10.37,-16.059998999999998,2b
2019-07-15_143832:600,-0.358917,-0.017273,-0.34368899999999997,-0.003817,0.00172,0.00028199999999999997,-38.18,10.37,-16.059998999999998,2b
2019-07-15_143832:620,-0.359955,-0.015747,-0.34317,-0.004,0.0017809999999999998,0.000221,-38.18,10.37,-16.059998999999998,2b
2019-07-15_143832:640,-0.35638400000000003,-0.016266,-0.344177,-0.00403,0.00172,0.000221,-37.75,11.06,-16.059998999999998,2b
2019-07-15_143832:660,-0.355896,-0.017792,-0.34317,-0.004,0.001842,0.00016,-37.75,11.06,-16.059998999999998,2b
2019-07-15_143832:680,-0.35791,-0.01828,-0.344177,-0.004,0.001353,6.8e-05,-37.369999,10.75,-16.5,2b
2019-07-15_143832:700,-0.358917,-0.017792,-0.34317,-0.0036950000000000004,0.0012619999999999999,7.000000000000001e-06,-37.369999,10.75,-16.5,2b
2019-07-15_143832:720,-0.361969,-0.01828,-0.344177,-0.0036340000000000005,0.00114,6.8e-05,-37.369999,10.75,-16.5,2b
2019-07-15_143832:740,-0.35943600000000003,-0.01828,-0.345215,-0.002932,0.001415,0.00028199999999999997,-37.75,11.06,-16.5,2b
2019-07-15_143832:760,-0.35943600000000003,-0.014221000000000001,-0.341125,-0.003054,0.0014759999999999999,0.00016,-37.75,11.06,-16.5,2b
2019-07-15_143832:780,-0.361481,-0.014740000000000001,-0.344177,-0.003054,0.0019030000000000002,0.001442,-37.060001,10.37,-16.5,2b
2019-07-15_143832:800,-0.358917,-0.013702,-0.34317,-0.003817,0.0017809999999999998,0.001716,-37.060001,10.37,-16.5,2b
2019-07-15_143832:820,-0.35791,-0.014740000000000001,-0.344696,-0.004671,0.001598,0.0008619999999999999,-37.060001,10.37,-16.5,2b
2019-07-15_143832:840,-0.356903,-0.017792,-0.344696,-0.005221,0.001292,-0.000328,-37.75,10.75,-16.5,2b
2019-07-15_143832:860,-0.355377,-0.019806,-0.344177,-0.005221,0.001018,0.000129,-37.75,10.75,-16.5,2b
2019-07-15_143832:880,-0.355377,-0.021332,-0.346222,-0.004336,0.000682,0.000129,-37.369999,11.06,-15.68,2b
2019-07-15_143832:900,-0.358917,-0.01828,-0.34368899999999997,-0.00339,0.000743,-0.000725,-37.369999,11.06,-15.68,2b
2019-07-15_143832:920,-0.35943600000000003,-0.015747,-0.345215,-0.002718,0.0012619999999999999,-0.00045099999999999996,-37.369999,11.06,-15.68,2b
2019-07-15_143832:940,-0.35943600000000003,-0.012695,-0.345215,-0.002535,0.001415,0.000221,-38.560001,10.75,-16.5,2b
2019-07-15_143832:960,-0.358917,-0.012177,-0.34317,-0.0028399999999999996,0.00172,0.001045,-38.560001,10.75,-16.5,2b
2019-07-15_143832:980,-0.35943600000000003,-0.014221000000000001,-0.344696,-0.00339,0.001628,0.0008619999999999999,-37.060001,10.75,-17.25,2b
2019-07-15_143833:000,-0.36044299999999996,-0.012177,-0.34317,-0.003878,0.0016589999999999999,0.000648,-37.060001,10.75,-17.25,2b
2019-07-15_143833:020,-0.35943600000000003,-0.014221000000000001,-0.344696,-0.004397,0.0016589999999999999,0.001503,-37.060001,10.75,-17.25,2b
2019-07-15_143833:040,-0.35791,-0.017273,-0.344696,-0.004427,0.001598,0.002052,-37.369999,10.37,-14.87,2b
2019-07-15_143833:060,-0.35638400000000003,-0.018799,-0.345215,-0.004152,0.0014759999999999999,0.0022960000000000003,-37.369999,10.37,-14.87,2b
2019-07-15_143833:080,-0.35791,-0.01828,-0.346222,-0.003817,0.001537,0.002693,-37.75,10.37,-15.68,2b
2019-07-15_143833:100,-0.35739099999999996,-0.018799,-0.34368899999999997,-0.003512,0.0014759999999999999,0.002357,-37.75,10.37,-15.68,2b
2019-07-15_143833:120,-0.35943600000000003,-0.016753999999999998,-0.344696,-0.0033280000000000002,0.001964,0.000923,-37.75,10.37,-15.68,2b
2019-07-15_143833:140,-0.359955,-0.015228,-0.34368899999999997,-0.00339,0.0017809999999999998,0.0008619999999999999,-37.75,10.75,-16.5,2b
2019-07-15_143833:160,-0.35943600000000003,-0.016266,-0.344696,-0.0037560000000000002,0.0019030000000000002,0.0021739999999999997,-37.75,10.75,-16.5,2b
2019-07-15_143833:180,-0.36044299999999996,-0.017792,-0.344696,-0.004427,0.001964,0.001777,-37.369999,11.06,-16.059998999999998,2b
2019-07-15_143833:200,-0.361969,-0.016753999999999998,-0.34674099999999997,-0.005129,0.001415,0.001381,-37.369999,11.06,-16.059998999999998,2b
2019-07-15_143833:220,-0.353333,-0.021851,-0.3396,-0.005526,0.0017809999999999998,0.001381,-37.369999,11.06,-16.059998999999998,2b
2019-07-15_143833:240,-0.355896,-0.021332,-0.341125,-0.004946,0.001292,0.001106,-36.68,11.06,-16.5,2b
2019-07-15_143833:260,-0.352844,-0.01828,-0.33605999999999997,-0.003878,0.0008960000000000001,0.000343,-36.68,11.06,-16.5,2b
2019-07-15_143833:280,-0.364532,-0.017792,-0.347229,-0.0036340000000000005,0.000346,-0.000267,-37.75,10.37,-16.059998999999998,2b
2019-07-15_143833:300,-0.36044299999999996,-0.014740000000000001,-0.34317,-0.0037560000000000002,0.00114,7.000000000000001e-06,-37.75,10.37,-16.059998999999998,2b
2019-07-15_143833:320,-0.358917,-0.015747,-0.344177,-0.003939,0.001415,0.0007700000000000001,-37.75,10.37,-16.059998999999998,2b
2019-07-15_143833:340,-0.355377,-0.013702,-0.341125,-0.004336,0.001353,0.001564,-37.060001,10.37,-16.059998999999998,2b
2019-07-15_143833:360,-0.353851,-0.012695,-0.341644,-0.005221,0.000621,0.002235,-37.060001,10.37,-16.059998999999998,2b
2019-07-15_143833:380,-0.35436999999999996,-0.016266,-0.34265100000000004,-0.005953,-5e-05,0.0026320000000000002,-38.18,11.06,-16.870001000000002,2b
2019-07-15_143833:400,-0.352844,-0.016753999999999998,-0.344177,-0.006684999999999999,-0.0009050000000000001,0.002357,-38.18,11.06,-16.870001000000002,2b
2019-07-15_143833:420,-0.35638400000000003,-0.019806,-0.347229,-0.0069299999999999995,-0.001454,0.001991,-38.18,11.06,-16.870001000000002,2b
2019-07-15_143833:440,-0.36349499999999996,-0.020325,-0.347748,-0.007051999999999999,-0.00124,0.000587,-37.75,11.06,-16.059998999999998,2b
2019-07-15_143833:460,-0.363007,-0.019806,-0.347229,-0.006807,-0.000508,-0.000267,-37.75,11.06,-16.059998999999998,2b
2019-07-15_143833:480,-0.361481,-0.019806,-0.347748,-0.00635,0.00056,0.00028199999999999997,-38.18,11.06,-16.5,2b
2019-07-15_143833:500,-0.36044299999999996,-0.020325,-0.346222,-0.005526,0.0010789999999999999,0.000465,-38.18,11.06,-16.5,2b
2019-07-15_143833:520,-0.355896,-0.020325,-0.34570300000000004,-0.004824,0.001353,0.000404,-38.18,11.06,-16.5,2b
2019-07-15_143833:540,-0.353851,-0.020325,-0.344177,-0.003939,0.0012619999999999999,0.000526,-37.369999,11.5,-15.68,2b
2019-07-15_143833:560,-0.353333,-0.017792,-0.344696,-0.0036340000000000005,0.000621,0.000648,-37.369999,11.5,-15.68,2b
2019-07-15_143833:580,-0.35791,-0.016266,-0.344696,-0.003176,0.000133,0.000526,-37.75,10.37,-16.5,2b
2019-07-15_143833:600,-0.353851,-0.015747,-0.34368899999999997,-0.0031149999999999997,0.000133,0.00016,-37.75,10.37,-16.5,2b
2019-07-15_143833:620,-0.354858,-0.014221000000000001,-0.34570300000000004,-0.00339,1.1e-05,7.000000000000001e-06,-37.75,10.37,-16.5,2b
2019-07-15_143833:640,-0.354858,-0.015228,-0.34570300000000004,-0.0034509999999999996,-0.0005690000000000001,0.0007700000000000001,-37.369999,10.75,-16.5,2b
2019-07-15_143833:660,-0.355377,-0.014740000000000001,-0.346222,-0.003817,-0.00063,-5.4000000000000005e-05,-37.369999,10.75,-16.5,2b
2019-07-15_143833:680,-0.358429,-0.014221000000000001,-0.34875500000000004,-0.004152,-0.0007830000000000001,0.00016,-37.369999,10.0,-16.5,2b
2019-07-15_143833:700,-0.354858,-0.016753999999999998,-0.346222,-0.004275,-0.0005690000000000001,0.000709,-37.369999,10.0,-16.5,2b
2019-07-15_143833:720,-0.354858,-0.014740000000000001,-0.347748,-0.004549,-0.000264,0.00028199999999999997,-37.369999,10.0,-16.5,2b
2019-07-15_143833:740,-0.35638400000000003,-0.016266,-0.35180700000000004,-0.004793,1.1e-05,0.001381,-37.369999,10.75,-16.5,2b
2019-07-15_143833:760,-0.349792,-0.019318000000000002,-0.35180700000000004,-0.005007,0.000285,0.001777,-37.369999,10.75,-16.5,2b
2019-07-15_143833:780,-0.353333,-0.019318000000000002,-0.353851,-0.00461,7.2e-05,0.00028199999999999997,-38.18,11.06,-16.5,2b
2019-07-15_143833:800,-0.35739099999999996,-0.019318000000000002,-0.352325,-0.003878,0.00022400000000000002,-0.001702,-38.18,11.06,-16.5,2b
2019-07-15_143833:820,-0.35943600000000003,-0.015747,-0.3508,-0.002932,0.0010789999999999999,-0.0023120000000000003,-38.18,11.06,-16.5,2b
2019-07-15_143833:840,-0.35791,-0.010162000000000001,-0.34875500000000004,-0.002779,0.002055,-0.0019149999999999998,-37.75,11.06,-16.059998999999998,2b
2019-07-15_143833:860,-0.35436999999999996,-0.007111,-0.34674099999999997,-0.002657,0.002849,-0.001458,-37.75,11.06,-16.059998999999998,2b
2019-07-15_143833:880,-0.35131799999999996,-0.006072999999999999,-0.34674099999999997,-0.003573,0.002757,-0.001397,-37.75,10.37,-16.059998999999998,2b
2019-07-15_143833:900,-0.349792,-0.007599,-0.345215,-0.004427,0.0023,-0.0010609999999999999,-37.75,10.37,-16.059998999999998,2b
2019-07-15_143833:920,-0.34875500000000004,-0.012695,-0.34875500000000004,-0.005129,0.0014759999999999999,-0.000267,-37.75,10.37,-16.059998999999998,2b
2019-07-15_143833:940,-0.349274,-0.015747,-0.3508,-0.005068,0.000407,0.00016,-37.060001,11.06,-16.5,2b
2019-07-15_143833:960,-0.353333,-0.018799,-0.349274,-0.004091,-0.000233,0.00016,-37.060001,11.06,-16.5,2b
2019-07-15_143833:980,-0.35638400000000003,-0.017792,-0.350281,-0.0028399999999999996,-0.000508,-0.00011499999999999999,-38.18,10.75,-16.5,2b
2019-07-15_143834:000,-0.35739099999999996,-0.016266,-0.347229,-0.00165,0.000499,6.8e-05,-38.18,10.75,-16.5,2b
2019-07-15_143834:020,-0.35638400000000003,-0.013213999999999998,-0.34875500000000004,-0.001009,0.0008960000000000001,0.000709,-38.18,10.75,-16.5,2b
2019-07-15_143834:040,-0.355377,-0.010651,-0.345215,-0.001314,0.0016589999999999999,0.0007700000000000001,-37.369999,10.37,-15.68,2b
2019-07-15_143834:060,-0.349274,-0.010651,-0.346222,-0.001772,0.001537,0.000587,-37.369999,10.37,-15.68,2b
2019-07-15_143834:080,-0.346222,-0.012695,-0.349792,-0.002718,0.001292,0.001045,-37.060001,10.75,-16.059998999999998,2b
2019-07-15_143834:100,-0.344696,-0.016266,-0.35131799999999996,-0.003817,0.00022400000000000002,0.001167,-37.060001,10.75,-16.059998999999998,2b
2019-07-15_143834:120,-0.349274,-0.018799,-0.355377,-0.004152,-0.00124,0.000923,-37.060001,10.75,-16.059998999999998,2b
2019-07-15_143834:140,-0.349792,-0.019318000000000002,-0.353851,-0.003878,-0.001637,0.00016,-37.369999,10.37,-18.059998999999998,2b
2019-07-15_143834:160,-0.355377,-0.020325,-0.355896,-0.0033280000000000002,-0.00124,-0.000786,-37.369999,10.37,-18.059998999999998,2b
2019-07-15_143834:180,-0.354858,-0.019318000000000002,-0.35638400000000003,-0.002382,-0.00011100000000000001,-0.001458,-38.18,10.75,-16.5,2b
2019-07-15_143834:200,-0.35180700000000004,-0.017273,-0.355377,-0.002169,0.00016299999999999998,-0.001519,-38.18,10.75,-16.5,2b
2019-07-15_143834:220,-0.350281,-0.016266,-0.355377,-0.001925,0.000743,-0.0017929999999999999,-38.18,10.75,-16.5,2b
2019-07-15_143834:240,-0.349792,-0.016753999999999998,-0.355377,-0.0021079999999999996,0.0009570000000000001,-0.0023120000000000003,-37.060001,11.06,-16.5,2b
2019-07-15_143834:260,-0.347748,-0.019318000000000002,-0.352844,-0.0022600000000000003,0.000621,-0.003228,-37.060001,11.06,-16.5,2b
2019-07-15_143834:280,-0.348267,-0.018799,-0.353333,-0.0021079999999999996,0.000407,-0.004357,-37.75,10.75,-16.870001000000002,2b
2019-07-15_143834:300,-0.352844,-0.018799,-0.352325,-0.00165,0.000407,-0.004631000000000001,-37.75,10.75,-16.870001000000002,2b
2019-07-15_143834:320,-0.353851,-0.018799,-0.35436999999999996,-0.0009789999999999998,0.000621,-0.004509,-37.75,10.75,-16.870001000000002,2b
2019-07-15_143834:340,-0.352325,-0.015747,-0.355377,-6.3e-05,0.0012619999999999999,-0.004113,-37.75,10.75,-16.059998999999998,2b
2019-07-15_143834:360,-0.35131799999999996,-0.013702,-0.35436999999999996,0.000395,0.001598,-0.003319,-37.75,10.75,-16.059998999999998,2b
2019-07-15_143834:380,-0.35131799999999996,-0.008636,-0.353851,0.000395,0.001842,-0.00277,-37.060001,9.56,-17.68,2b
2019-07-15_143834:400,-0.35131799999999996,-0.006072999999999999,-0.352325,-0.000277,0.002055,-0.0021899999999999997,-37.060001,9.56,-17.68,2b
2019-07-15_143834:420,-0.353333,-0.006072999999999999,-0.353333,-0.0014060000000000001,0.002391,-0.001854,-37.060001,9.56,-17.68,2b
2019-07-15_143834:440,-0.353333,-0.0055850000000000006,-0.353851,-0.002443,0.002849,-0.001641,-37.369999,11.06,-16.5,2b
2019-07-15_143834:460,-0.3508,-0.008636,-0.352844,-0.003573,0.003093,-0.001458,-37.369999,11.06,-16.5,2b
2019-07-15_143834:480,-0.349792,-0.010162000000000001,-0.35180700000000004,-0.004213000000000001,0.0029100000000000003,-0.0009689999999999999,-37.060001,10.0,-15.68,2b
2019-07-15_143834:500,-0.352325,-0.012177,-0.35131799999999996,-0.004336,0.002513,-0.00045099999999999996,-37.060001,10.0,-15.68,2b
2019-07-15_143834:520,-0.353333,-0.012695,-0.352325,-0.00403,0.002696,-0.000512,-37.060001,10.0,-15.68,2b
2019-07-15_143834:540,-0.352844,-0.013702,-0.349792,-0.003512,0.0029100000000000003,-0.000664,-37.369999,10.37,-16.870001000000002,2b
2019-07-15_143834:560,-0.35180700000000004,-0.012695,-0.350281,-0.0031149999999999997,0.0029100000000000003,-0.00045099999999999996,-37.369999,10.37,-16.870001000000002,2b
2019-07-15_143834:580,-0.3508,-0.012177,-0.350281,-0.002993,0.003032,-0.000328,-37.75,9.56,-18.059998999999998,2b
2019-07-15_143834:600,-0.350281,-0.012177,-0.35131799999999996,-0.002932,0.002574,-0.00045099999999999996,-37.75,9.56,-18.059998999999998,2b
2019-07-15_143834:620,-0.35131799999999996,-0.009125,-0.350281,-0.002779,0.002177,7.000000000000001e-06,-37.75,9.56,-18.059998999999998,2b
2019-07-15_143834:640,-0.35131799999999996,-0.009125,-0.350281,-0.002718,0.002055,-0.00045099999999999996,-36.68,10.0,-16.059998999999998,2b
2019-07-15_143834:660,-0.350281,-0.007111,-0.347748,-0.002993,0.0023,0.000404,-36.68,10.0,-16.059998999999998,2b
2019-07-15_143834:680,-0.352844,-0.008118,-0.350281,-0.003512,0.002116,0.001503,-37.060001,10.0,-16.870001000000002,2b
2019-07-15_143834:700,-0.356903,-0.010651,-0.34875500000000004,-0.003939,0.0019030000000000002,0.001106,-37.060001,10.0,-16.870001000000002,2b
2019-07-15_143834:720,-0.354858,-0.012177,-0.349274,-0.00403,0.002361,-0.000328,-37.060001,10.0,-16.870001000000002,2b
2019-07-15_143834:740,-0.353333,-0.009644,-0.349274,-0.0037560000000000002,0.002116,-0.000512,-37.369999,10.0,-18.5,2b
2019-07-15_143834:760,-0.352325,-0.010162000000000001,-0.348267,-0.003817,0.002177,6.8e-05,-37.369999,10.0,-18.5,2b
2019-07-15_143834:780,-0.349792,-0.009644,-0.348267,-0.003664,0.0023,0.00016,-38.560001,10.0,-17.25,2b
2019-07-15_143834:800,-0.350281,-0.008118,-0.347748,-0.0036340000000000005,0.002116,0.00016,-38.560001,10.0,-17.25,2b
2019-07-15_143834:820,-0.352844,-0.009644,-0.349792,-0.0034509999999999996,0.001628,0.000343,-38.560001,10.0,-17.25,2b
2019-07-15_143834:840,-0.352844,-0.008636,-0.3508,-0.003573,0.0014759999999999999,0.000465,-38.560001,10.37,-16.870001000000002,2b
2019-07-15_143834:860,-0.353851,-0.009125,-0.349792,-0.0034509999999999996,0.001537,0.000831,-38.560001,10.37,-16.870001000000002,2b
2019-07-15_143834:880,-0.35436999999999996,-0.010162000000000001,-0.350281,-0.003512,0.001598,0.000984,-37.75,10.0,-17.25,2b
2019-07-15_143834:900,-0.355377,-0.008636,-0.350281,-0.003573,0.001964,0.001167,-37.75,10.0,-17.25,2b
2019-07-15_143834:920,-0.355377,-0.011169,-0.3508,-0.0037560000000000002,0.001994,0.000984,-37.75,10.0,-17.25,2b
2019-07-15_143834:940,-0.35436999999999996,-0.009125,-0.348267,-0.0036950000000000004,0.002574,0.001106,-37.060001,11.06,-16.870001000000002,2b
2019-07-15_143834:960,-0.353333,-0.011687999999999999,-0.349274,-0.00403,0.002574,0.001228,-37.060001,11.06,-16.870001000000002,2b
2019-07-15_143834:980,-0.352325,-0.012177,-0.348267,-0.004091,0.002574,0.001655,-37.369999,9.56,-15.68,2b
2019-07-15_143835:000,-0.353333,-0.013213999999999998,-0.348267,-0.004,0.002361,0.001258,-37.369999,9.56,-15.68,2b
2019-07-15_143835:020,-0.3508,-0.014740000000000001,-0.347748,-0.003939,0.001994,0.000404,-37.369999,9.56,-15.68,2b
2019-07-15_143835:040,-0.355377,-0.014740000000000001,-0.348267,-0.00339,0.001628,0.0007700000000000001,-37.75,10.37,-16.870001000000002,2b
2019-07-15_143835:060,-0.354858,-0.013213999999999998,-0.34674099999999997,-0.002993,0.0016589999999999999,0.000831,-37.75,10.37,-16.870001000000002,2b
2019-07-15_143835:080,-0.354858,-0.012177,-0.347748,-0.0029010000000000004,0.0014759999999999999,0.000343,-38.18,10.0,-16.059998999999998,2b
2019-07-15_143835:100,-0.355896,-0.008636,-0.348267,-0.003237,0.00172,0.000526,-38.18,10.0,-16.059998999999998,2b
2019-07-15_143835:120,-0.35436999999999996,-0.007599,-0.346222,-0.0037560000000000002,0.00172,0.000709,-38.18,10.0,-16.059998999999998,2b
2019-07-15_143835:140,-0.353851,-0.009644,-0.34875500000000004,-0.004397,0.0017809999999999998,0.000923,-37.369999,10.0,-16.059998999999998,2b
2019-07-15_143835:160,-0.352844,-0.012695,-0.347748,-0.004671,0.001537,0.000648,-37.369999,10.0,-16.059998999999998,2b
2019-07-15_143835:180,-0.352325,-0.013702,-0.34875500000000004,-0.004549,0.001201,0.000648,-37.369999,10.0,-17.68,2b
2019-07-15_143835:200,-0.3508,-0.015228,-0.34875500000000004,-0.004275,0.000865,0.000831,-37.369999,10.0,-17.68,2b
2019-07-15_143835:220,-0.35436999999999996,-0.015747,-0.349274,-0.0036340000000000005,0.0008039999999999999,0.000648,-37.369999,10.0,-17.68,2b
2019-07-15_143835:240,-0.352844,-0.017273,-0.349792,-0.0031149999999999997,0.0008960000000000001,0.000587,-37.060001,10.37,-16.870001000000002,2b
2019-07-15_143835:260,-0.35131799999999996,-0.016753999999999998,-0.349274,-0.002718,0.000621,0.000465,-37.060001,10.37,-16.870001000000002,2b
2019-07-15_143835:280,-0.35180700000000004,-0.014740000000000001,-0.35180700000000004,-0.0025050000000000003,0.00022400000000000002,0.000221,-37.369999,9.56,-17.25,2b
2019-07-15_143835:300,-0.353851,-0.016753999999999998,-0.352844,-0.0025960000000000002,0.000499,-5.4000000000000005e-05,-37.369999,9.56,-17.25,2b
2019-07-15_143835:320,-0.354858,-0.016266,-0.352844,-0.002321,0.0008039999999999999,-0.000634,-37.369999,9.56,-17.25,2b
2019-07-15_143835:340,-0.356903,-0.014740000000000001,-0.352325,-0.002321,0.0010789999999999999,-0.000908,-36.68,10.0,-16.870001000000002,2b
2019-07-15_143835:360,-0.35638400000000003,-0.013213999999999998,-0.350281,-0.0022600000000000003,0.0017809999999999998,-0.0009689999999999999,-36.68,10.0,-16.870001000000002,2b
2019-07-15_143835:380,-0.352844,-0.009125,-0.350281,-0.002382,0.001964,-0.000908,-37.75,10.0,-17.25,2b
2019-07-15_143835:400,-0.3508,-0.009125,-0.350281,-0.0031149999999999997,0.001537,-0.000634,-37.75,10.0,-17.25,2b
2019-07-15_143835:420,-0.355377,-0.011687999999999999,-0.34875500000000004,-0.0031149999999999997,0.001415,-0.000328,-37.75,10.0,-17.25,2b
2019-07-15_143835:440,-0.353333,-0.012177,-0.348267,-0.002932,0.001353,-0.000389,-37.060001,10.37,-16.870001000000002,2b
2019-07-15_143835:460,-0.352844,-0.010162000000000001,-0.347748,-0.0031149999999999997,0.001598,-0.00045099999999999996,-37.060001,10.37,-16.870001000000002,2b
2019-07-15_143835:480,-0.352844,-0.011169,-0.349274,-0.0029010000000000004,0.001415,-0.00045099999999999996,-38.18,9.56,-15.25,2b
2019-07-15_143835:500,-0.352844,-0.011169,-0.349792,-0.002932,0.0012619999999999999,-0.000786,-38.18,9.56,-15.25,2b
2019-07-15_143835:520,-0.353851,-0.010162000000000001,-0.350281,-0.0029010000000000004,0.001292,-0.0009689999999999999,-38.18,9.56,-15.25,2b
2019-07-15_143835:540,-0.353851,-0.011169,-0.35180700000000004,-0.002718,0.001353,-0.0009689999999999999,-37.369999,10.0,-17.25,2b
2019-07-15_143835:560,-0.352325,-0.010162000000000001,-0.34875500000000004,-0.0025050000000000003,0.001353,-0.000908,-37.369999,10.0,-17.25,2b
2019-07-15_143835:580,-0.35180700000000004,-0.009125,-0.3508,-0.002443,0.001415,-0.000634,-37.369999,10.75,-16.870001000000002,2b
2019-07-15_143835:600,-0.35436999999999996,-0.009644,-0.35180700000000004,-0.0025050000000000003,0.001598,-0.000512,-37.369999,10.75,-16.870001000000002,2b
2019-07-15_143835:620,-0.3508,-0.008636,-0.349792,-0.002718,0.001415,0.000831,-37.369999,10.75,-16.870001000000002,2b
2019-07-15_143835:640,-0.35180700000000004,-0.009125,-0.350281,-0.003054,0.0010789999999999999,0.001442,-37.369999,10.37,-15.68,2b
2019-07-15_143835:660,-0.355377,-0.011687999999999999,-0.3508,-0.0033280000000000002,0.001201,0.000587,-37.369999,10.37,-15.68,2b
2019-07-15_143835:680,-0.35436999999999996,-0.011687999999999999,-0.35131799999999996,-0.0036340000000000005,0.001598,-0.000389,-38.18,10.75,-16.870001000000002,2b
2019-07-15_143835:700,-0.353333,-0.011169,-0.35180700000000004,-0.003817,0.001628,0.000404,-38.18,10.75,-16.870001000000002,2b
2019-07-15_143835:720,-0.35180700000000004,-0.012695,-0.349792,-0.003817,0.001598,0.000587,-38.18,10.75,-16.870001000000002,2b
2019-07-15_143835:740,-0.35180700000000004,-0.012177,-0.350281,-0.003573,0.001598,0.00016,-38.18,10.0,-17.25,2b
2019-07-15_143835:760,-0.35180700000000004,-0.009644,-0.349274,-0.003512,0.0017809999999999998,0.000221,-38.18,10.0,-17.25,2b
2019-07-15_143835:780,-0.352844,-0.010162000000000001,-0.35180700000000004,-0.0034509999999999996,0.001598,0.000648,-37.75,10.37,-16.5,2b
2019-07-15_143835:800,-0.353851,-0.010162000000000001,-0.35638400000000003,-0.003573,0.0014759999999999999,0.0008619999999999999,-37.75,10.37,-16.5,2b
2019-07-15_143835:820,-0.355377,-0.008636,-0.349792,-0.004,0.001994,0.001228,-37.75,10.37,-16.5,2b
2019-07-15_143835:840,-0.35436999999999996,-0.011169,-0.345215,-0.004,0.001994,0.001167,-37.369999,10.37,-16.059998999999998,2b
2019-07-15_143835:860,-0.355896,-0.009125,-0.346222,-0.004427,0.002391,0.001258,-37.369999,10.37,-16.059998999999998,2b
2019-07-15_143835:880,-0.355896,-0.009644,-0.353333,-0.004427,0.002391,0.001564,-37.369999,10.0,-16.5,2b
2019-07-15_143835:900,-0.35131799999999996,-0.012177,-0.348267,-0.005007,0.002513,0.001564,-37.369999,10.0,-16.5,2b
2019-07-15_143835:920,-0.352844,-0.012695,-0.348267,-0.005068,0.002177,0.001777,-37.369999,10.0,-16.5,2b
2019-07-15_143835:940,-0.352844,-0.013213999999999998,-0.34674099999999997,-0.0048850000000000005,0.001994,0.0021739999999999997,-37.369999,9.56,-16.5,2b
2019-07-15_143835:960,-0.35436999999999996,-0.014740000000000001,-0.34674099999999997,-0.0048850000000000005,0.0017809999999999998,0.001106,-37.369999,9.56,-16.5,2b
2019-07-15_143835:980,-0.35180700000000004,-0.012695,-0.349274,-0.004427,0.001598,0.001045,-36.25,10.75,-16.870001000000002,2b
2019-07-15_143836:000,-0.35131799999999996,-0.012695,-0.34875500000000004,-0.004488000000000001,0.0010789999999999999,0.001716,-36.25,10.75,-16.870001000000002,2b
2019-07-15_143836:020,-0.35180700000000004,-0.014740000000000001,-0.349274,-0.004427,0.000743,0.001625,-36.25,10.75,-16.870001000000002,2b
2019-07-15_143836:040,-0.352844,-0.012177,-0.348267,-0.004397,0.000621,0.0008619999999999999,-37.060001,9.56,-16.059998999999998,2b
2019-07-15_143836:060,-0.353851,-0.013702,-0.349792,-0.004275,0.00056,0.000984,-37.060001,9.56,-16.059998999999998,2b
2019-07-15_143836:080,-0.353333,-0.012695,-0.35131799999999996,-0.004213000000000001,0.0008960000000000001,0.000648,-37.75,10.75,-17.25,2b
2019-07-15_143836:100,-0.35180700000000004,-0.013702,-0.352325,-0.004213000000000001,0.0009570000000000001,0.000648,-37.75,10.75,-17.25,2b
2019-07-15_143836:120,-0.352325,-0.014221000000000001,-0.352325,-0.0033280000000000002,0.0010789999999999999,0.000343,-37.75,10.75,-17.25,2b
2019-07-15_143836:140,-0.354858,-0.012177,-0.35180700000000004,-0.003176,0.0012619999999999999,0.00028199999999999997,-37.369999,9.56,-16.870001000000002,2b
2019-07-15_143836:160,-0.355896,-0.009644,-0.3508,-0.002718,0.001628,0.000831,-37.369999,9.56,-16.870001000000002,2b
2019-07-15_143836:180,-0.35436999999999996,-0.007111,-0.349792,-0.002932,0.0017809999999999998,0.001167,-37.369999,10.0,-16.870001000000002,2b
2019-07-15_143836:200,-0.353333,-0.008118,-0.350281,-0.003878,0.0019030000000000002,0.001716,-37.369999,10.0,-16.870001000000002,2b
2019-07-15_143836:220,-0.353333,-0.009644,-0.3508,-0.004336,0.001964,0.001716,-37.369999,10.0,-16.870001000000002,2b
2019-07-15_143836:240,-0.353333,-0.011169,-0.35180700000000004,-0.004793,0.002055,0.001503,-38.18,10.37,-16.870001000000002,2b
2019-07-15_143836:260,-0.35436999999999996,-0.013213999999999998,-0.347748,-0.0048850000000000005,0.002177,0.00132,-38.18,10.37,-16.870001000000002,2b
2019-07-15_143836:280,-0.354858,-0.013213999999999998,-0.348267,-0.004824,0.002391,0.001625,-38.18,10.37,-16.870001000000002,2b
2019-07-15_143836:300,-0.354858,-0.012695,-0.34674099999999997,-0.004213000000000001,0.002361,0.001838,-37.060001,10.37,-16.5,2b
2019-07-15_143836:320,-0.3508,-0.009644,-0.344696,-0.004152,0.002239,0.001503,-37.060001,10.37,-16.5,2b
2019-07-15_143836:340,-0.349274,-0.011169,-0.34875500000000004,-0.004275,0.001964,0.0018989999999999999,-37.369999,10.37,-16.870001000000002,2b
2019-07-15_143836:360,-0.349274,-0.012695,-0.349274,-0.0048850000000000005,0.000682,0.002113,-37.369999,10.37,-16.870001000000002,2b
2019-07-15_143836:380,-0.35131799999999996,-0.014221000000000001,-0.349792,-0.005068,0.00016299999999999998,0.0018989999999999999,-37.369999,10.37,-16.870001000000002,2b
2019-07-15_143836:400,-0.355896,-0.016753999999999998,-0.3508,-0.005068,1.1e-05,0.001625,-37.369999,10.37,-16.870001000000002,2b
2019-07-15_143836:420,-0.35638400000000003,-0.016753999999999998,-0.352844,-0.004671,0.000468,0.001381,-37.369999,10.37,-16.870001000000002,2b
2019-07-15_143836:440,-0.353333,-0.015747,-0.353333,-0.00403,0.001292,0.001167,-37.369999,10.37,-15.68,2b
2019-07-15_143836:460,-0.352844,-0.016266,-0.35131799999999996,-0.003573,0.0014759999999999999,0.00132,-37.369999,10.37,-15.68,2b
2019-07-15_143836:480,-0.352325,-0.014221000000000001,-0.35180700000000004,-0.0034509999999999996,0.001598,0.001106,-37.369999,11.06,-17.25,2b
2019-07-15_143836:500,-0.353851,-0.012695,-0.3508,-0.003237,0.0014759999999999999,0.001106,-37.369999,11.06,-17.25,2b
2019-07-15_143836:520,-0.35638400000000003,-0.011169,-0.349274,-0.00339,0.0014759999999999999,0.001258,-37.369999,11.06,-17.25,2b
2019-07-15_143836:540,-0.35436999999999996,-0.013213999999999998,-0.349792,-0.003512,0.0016589999999999999,0.00132,-37.369999,10.75,-16.870001000000002,2b
2019-07-15_143836:560,-0.353333,-0.012177,-0.347229,-0.003817,0.001842,0.001106,-37.369999,10.75,-16.870001000000002,2b
2019-07-15_143836:580,-0.354858,-0.012695,-0.348267,-0.004091,0.002055,0.002388,-37.369999,10.75,-16.870001000000002,2b
2019-07-15_143836:600,-0.353333,-0.015228,-0.348267,-0.004427,0.002055,0.003151,-37.060001,10.37,-15.68,2b
2019-07-15_143836:620,-0.353851,-0.015747,-0.349274,-0.004824,0.00172,0.002357,-37.060001,10.37,-15.68,2b
2019-07-15_143836:640,-0.350281,-0.017792,-0.3508,-0.0048850000000000005,0.0019030000000000002,0.001503,-38.18,11.06,-16.870001000000002,2b
2019-07-15_143836:660,-0.352325,-0.016266,-0.347748,-0.0048850000000000005,0.001292,0.001258,-38.18,11.06,-16.870001000000002,2b
2019-07-15_143836:680,-0.350281,-0.017273,-0.350281,-0.004427,0.0012619999999999999,0.001777,-38.18,11.06,-16.870001000000002,2b
2019-07-15_143836:700,-0.3508,-0.016266,-0.350281,-0.004,0.001415,0.000984,-37.369999,10.75,-16.059998999999998,2b
2019-07-15_143836:720,-0.350281,-0.014221000000000001,-0.3508,-0.0037560000000000002,0.0014759999999999999,0.000648,-37.369999,10.75,-16.059998999999998,2b
2019-07-15_143836:740,-0.350281,-0.014221000000000001,-0.350281,-0.0037560000000000002,0.001201,0.000648,-36.68,11.5,-16.870001000000002,2b
2019-07-15_143836:760,-0.354858,-0.013702,-0.348267,-0.00403,0.001018,0.000465,-36.68,11.5,-16.870001000000002,2b
2019-07-15_143836:780,-0.355377,-0.013702,-0.349274,-0.00403,0.0009570000000000001,0.000404,-38.869999,10.0,-16.5,2b
2019-07-15_143836:800,-0.354858,-0.013213999999999998,-0.349792,-0.004275,0.001292,0.000496,-38.869999,10.0,-16.5,2b
2019-07-15_143836:820,-0.353333,-0.013702,-0.34875500000000004,-0.00461,0.001415,0.000526,-38.869999,10.0,-16.5,2b
2019-07-15_143836:840,-0.353851,-0.015228,-0.349792,-0.00461,0.001292,0.000496,-38.18,10.37,-16.870001000000002,2b
2019-07-15_143836:860,-0.35436999999999996,-0.014740000000000001,-0.349274,-0.004488000000000001,0.001353,0.000648,-38.18,10.37,-16.870001000000002,2b
2019-07-15_143836:880,-0.354858,-0.014740000000000001,-0.349792,-0.004397,0.001537,0.001564,-38.18,10.37,-16.870001000000002,2b
2019-07-15_143836:900,-0.354858,-0.014740000000000001,-0.349274,-0.00403,0.001598,0.001838,-37.369999,10.37,-16.5,2b
2019-07-15_143836:920,-0.35436999999999996,-0.014221000000000001,-0.348267,-0.00403,0.0017809999999999998,0.001655,-37.369999,10.37,-16.5,2b
2019-07-15_143836:940,-0.352844,-0.015228,-0.349274,-0.004213000000000001,0.001964,0.00196,-37.369999,10.75,-16.5,2b
2019-07-15_143836:960,-0.35436999999999996,-0.017273,-0.350281,-0.00403,0.0019030000000000002,0.0021739999999999997,-37.369999,10.75,-16.5,2b
2019-07-15_143836:980,-0.354858,-0.01828,-0.349792,-0.003878,0.001842,0.002235,-37.369999,10.75,-16.5,2b
2019-07-15_143837:000,-0.355896,-0.017792,-0.349274,-0.003573,0.001842,0.001991,-37.369999,11.5,-17.25,2b
2019-07-15_143837:020,-0.35638400000000003,-0.017792,-0.349792,-0.0031149999999999997,0.002391,0.002052,-37.369999,11.5,-17.25,2b
2019-07-15_143837:040,-0.354858,-0.020325,-0.349274,-0.002718,0.002635,0.00196,-37.060001,10.75,-15.68,2b
2019-07-15_143837:060,-0.35180700000000004,-0.01828,-0.349792,-0.002199,0.0031850000000000003,0.001106,-37.060001,10.75,-15.68,2b
2019-07-15_143837:080,-0.352325,-0.018799,-0.348267,-0.0017109999999999998,0.0031850000000000003,0.00028199999999999997,-37.060001,10.75,-15.68,2b
2019-07-15_143837:100,-0.354858,-0.018799,-0.347748,-0.001131,0.0031850000000000003,-0.000389,-37.060001,11.06,-16.5,2b
2019-07-15_143837:120,-0.36044299999999996,-0.019318000000000002,-0.347748,-0.0009789999999999998,0.0034289999999999998,-0.000573,-37.060001,11.06,-16.5,2b
2019-07-15_143837:140,-0.359955,-0.019318000000000002,-0.34875500000000004,-0.000643,0.0042829999999999995,-0.000725,-37.369999,10.75,-16.5,2b
2019-07-15_143837:160,-0.356903,-0.021332,-0.34674099999999997,-0.00045999999999999996,0.004771,-0.000908,-37.369999,10.75,-16.5,2b
2019-07-15_143837:180,-0.353333,-0.021332,-0.34875500000000004,-6.3e-05,0.004954999999999999,-0.00158,-37.369999,10.75,-16.5,2b
2019-07-15_143837:200,-0.352844,-0.018799,-0.34570300000000004,0.00011999999999999999,0.004894,-0.002495,-37.75,11.06,-16.5,2b
2019-07-15_143837:220,-0.353333,-0.018799,-0.344696,5.9e-05,0.004497,-0.003167,-37.75,11.06,-16.5,2b
2019-07-15_143837:240,-0.35131799999999996,-0.015747,-0.34570300000000004,-0.000185,0.0041,-0.003045,-37.369999,10.75,-16.5,2b
2019-07-15_143837:260,-0.349792,-0.015228,-0.34265100000000004,-0.000399,0.0034289999999999998,-0.00216,-37.369999,10.75,-16.5,2b
2019-07-15_143837:280,-0.352844,-0.012177,-0.344696,-0.0009789999999999998,0.002574,-0.0019760000000000003,-37.369999,10.75,-16.5,2b
2019-07-15_143837:300,-0.353333,-0.012177,-0.345215,-0.001772,0.002239,-0.001519,-37.369999,10.75,-16.870001000000002,2b
2019-07-15_143837:320,-0.35638400000000003,-0.014740000000000001,-0.345215,-0.002535,0.0014759999999999999,-0.0011220000000000002,-37.369999,10.75,-16.870001000000002,2b
2019-07-15_143837:340,-0.358917,-0.014740000000000001,-0.347748,-0.003878,0.001628,-0.001397,-37.060001,10.37,-15.68,2b
2019-07-15_143837:360,-0.36044299999999996,-0.017792,-0.34570300000000004,-0.004152,0.001598,-0.001366,-37.060001,10.37,-15.68,2b
2019-07-15_143837:380,-0.360962,-0.01828,-0.347229,-0.003939,0.002116,-0.001397,-37.060001,10.37,-15.68,2b
2019-07-15_143837:400,-0.359955,-0.017273,-0.345215,-0.003573,0.002177,-0.001702,-37.369999,11.5,-15.68,2b
2019-07-15_143837:420,-0.352325,-0.015747,-0.34570300000000004,-0.0033280000000000002,0.002177,-0.00045099999999999996,-37.369999,11.5,-15.68,2b
2019-07-15_143837:440,-0.355377,-0.014740000000000001,-0.344696,-0.00339,0.001628,0.0008619999999999999,-37.75,10.75,-15.25,2b
2019-07-15_143837:460,-0.355377,-0.013702,-0.34368899999999997,-0.003664,0.00114,0.000831,-37.75,10.75,-15.25,2b
2019-07-15_143837:480,-0.355896,-0.014221000000000001,-0.345215,-0.004091,0.000743,-0.000176,-37.75,10.75,-15.25,2b
2019-07-15_143837:500,-0.354858,-0.014221000000000001,-0.34570300000000004,-0.004427,0.000865,-0.000389,-37.75,10.0,-15.68,2b
2019-07-15_143837:520,-0.35638400000000003,-0.015228,-0.345215,-0.004732,0.0008960000000000001,0.000404,-37.75,10.0,-15.68,2b
2019-07-15_143837:540,-0.355377,-0.016266,-0.346222,-0.004488000000000001,0.000865,0.00028199999999999997,-38.18,10.37,-16.5,2b
2019-07-15_143837:560,-0.35739099999999996,-0.016753999999999998,-0.34570300000000004,-0.004336,0.000682,-0.00023700000000000001,-38.18,10.37,-16.5,2b
2019-07-15_143837:580,-0.356903,-0.016266,-0.348267,-0.0036950000000000004,0.000865,-0.00011499999999999999,-38.18,10.37,-16.5,2b
2019-07-15_143837:600,-0.356903,-0.015747,-0.347748,-0.003573,0.001018,-0.00011499999999999999,-37.75,11.06,-16.5,2b
2019-07-15_143837:620,-0.35739099999999996,-0.013213999999999998,-0.347748,-0.003512,0.0010789999999999999,-0.000176,-37.75,11.06,-16.5,2b
2019-07-15_143837:640,-0.358429,-0.011169,-0.34875500000000004,-0.003573,0.001353,0.00016,-37.75,10.75,-16.870001000000002,2b
2019-07-15_143837:660,-0.358917,-0.011169,-0.347748,-0.004152,0.001415,-0.000328,-37.75,10.75,-16.870001000000002,2b
2019-07-15_143837:680,-0.358429,-0.011169,-0.347748,-0.004488000000000001,0.0016589999999999999,0.000221,-37.75,10.75,-16.870001000000002,2b
2019-07-15_143837:700,-0.356903,-0.012177,-0.347229,-0.00461,0.001994,0.000496,-37.060001,10.37,-16.5,2b
2019-07-15_143837:720,-0.355896,-0.010651,-0.34674099999999997,-0.004549,0.001964,0.000923,-37.060001,10.37,-16.5,2b
2019-07-15_143837:740,-0.355896,-0.012695,-0.347229,-0.00461,0.0016589999999999999,0.001716,-38.560001,10.37,-15.68,2b
2019-07-15_143837:760,-0.355377,-0.013702,-0.345215,-0.004671,0.0016589999999999999,0.001045,-38.560001,10.37,-15.68,2b
2019-07-15_143837:780,-0.353851,-0.014221000000000001,-0.347748,-0.004488000000000001,0.0014759999999999999,0.001045,-38.560001,10.37,-15.68,2b
2019-07-15_143837:800,-0.355377,-0.016753999999999998,-0.34570300000000004,-0.004275,0.0009570000000000001,0.001564,-37.369999,10.75,-16.870001000000002,2b
2019-07-15_143837:820,-0.35638400000000003,-0.016753999999999998,-0.347748,-0.004,0.0009570000000000001,0.001228,-37.369999,10.75,-16.870001000000002,2b
2019-07-15_143837:840,-0.35739099999999996,-0.016753999999999998,-0.346222,-0.003817,0.0010789999999999999,0.000923,-37.060001,11.06,-16.059998999999998,2b
2019-07-15_143837:860,-0.35638400000000003,-0.014740000000000001,-0.346222,-0.0036340000000000005,0.0010789999999999999,0.000496,-37.060001,11.06,-16.059998999999998,2b
2019-07-15_143837:880,-0.356903,-0.014221000000000001,-0.349274,-0.003573,0.001292,0.000465,-37.060001,11.06,-16.059998999999998,2b
2019-07-15_143837:900,-0.356903,-0.014221000000000001,-0.347748,-0.0037560000000000002,0.0012619999999999999,0.000496,-37.369999,10.37,-16.5,2b
2019-07-15_143837:920,-0.35638400000000003,-0.012695,-0.34674099999999997,-0.0036340000000000005,0.0014759999999999999,0.000343,-37.369999,10.37,-16.5,2b
2019-07-15_143837:940,-0.355896,-0.014740000000000001,-0.34875500000000004,-0.003664,0.001598,0.000496,-37.369999,10.37,-15.68,2b
2019-07-15_143837:960,-0.355896,-0.014740000000000001,-0.34570300000000004,-0.0037560000000000002,0.001353,0.000465,-37.369999,10.37,-15.68,2b
2019-07-15_143837:980,-0.35638400000000003,-0.014740000000000001,-0.347229,-0.0036950000000000004,0.001537,0.000587,-37.369999,10.37,-15.68,2b
2019-07-15_143838:000,-0.35739099999999996,-0.014221000000000001,-0.345215,-0.0036950000000000004,0.0014759999999999999,0.000709,-36.68,11.06,-15.68,2b
2019-07-15_143838:020,-0.35739099999999996,-0.013213999999999998,-0.34570300000000004,-0.003817,0.001628,0.000709,-36.68,11.06,-15.68,2b
2019-07-15_143838:040,-0.355896,-0.014221000000000001,-0.346222,-0.003939,0.001537,0.001045,-37.369999,11.06,-17.68,2b
2019-07-15_143838:060,-0.35638400000000003,-0.012695,-0.34317,-0.004,0.0016589999999999999,0.001045,-37.369999,11.06,-17.68,2b
2019-07-15_143838:080,-0.35638400000000003,-0.012177,-0.34570300000000004,-0.004488000000000001,0.001292,0.001381,-37.369999,11.06,-17.68,2b
2019-07-15_143838:100,-0.354858,-0.013213999999999998,-0.346222,-0.005007,0.001415,0.001625,-38.18,11.06,-16.870001000000002,2b
2019-07-15_143838:120,-0.355896,-0.014740000000000001,-0.34570300000000004,-0.005343,0.001201,0.001625,-38.18,11.06,-16.870001000000002,2b
2019-07-15_143838:140,-0.35638400000000003,-0.016266,-0.34570300000000004,-0.005404,0.0009570000000000001,0.001625,-37.060001,10.37,-16.059998999999998,2b
2019-07-15_143838:160,-0.355377,-0.017792,-0.345215,-0.005129,0.001201,0.001564,-37.060001,10.37,-16.059998999999998,2b
2019-07-15_143838:180,-0.354858,-0.016753999999999998,-0.347748,-0.0048850000000000005,0.001292,0.001258,-37.060001,10.37,-16.059998999999998,2b
2019-07-15_143838:200,-0.353851,-0.016753999999999998,-0.348267,-0.004732,0.0012619999999999999,0.001167,-37.369999,11.06,-16.059998999999998,2b
2019-07-15_143838:220,-0.35436999999999996,-0.016753999999999998,-0.34875500000000004,-0.004336,0.000865,0.000587,-37.369999,11.06,-16.059998999999998,2b
2019-07-15_143838:240,-0.355896,-0.017273,-0.347748,-0.003817,0.0008039999999999999,-5.4000000000000005e-05,-37.369999,10.0,-16.870001000000002,2b
2019-07-15_143838:260,-0.358429,-0.014740000000000001,-0.34875500000000004,-0.0033280000000000002,0.0010789999999999999,0.000465,-37.369999,10.0,-16.870001000000002,2b
2019-07-15_143838:280,-0.356903,-0.014740000000000001,-0.348267,-0.003054,0.001292,0.000129,-37.369999,10.0,-16.870001000000002,2b
2019-07-15_143838:300,-0.355896,-0.012177,-0.34570300000000004,-0.0031149999999999997,0.001628,0.000496,-37.75,10.0,-16.870001000000002,2b
2019-07-15_143838:320,-0.358429,-0.011169,-0.34875500000000004,-0.003573,0.001537,0.001838,-37.75,10.0,-16.870001000000002,2b
2019-07-15_143838:340,-0.358429,-0.010651,-0.34674099999999997,-0.004488000000000001,0.0016589999999999999,0.001625,-37.75,10.37,-15.68,2b
2019-07-15_143838:360,-0.35638400000000003,-0.013213999999999998,-0.347748,-0.004946,0.0019030000000000002,0.001106,-37.75,10.37,-15.68,2b
2019-07-15_143838:380,-0.353851,-0.015228,-0.348267,-0.005282,0.001628,0.000465,-37.75,10.37,-15.68,2b
2019-07-15_143838:400,-0.35436999999999996,-0.015747,-0.34674099999999997,-0.005068,0.001415,0.000526,-37.75,9.56,-17.25,2b
2019-07-15_143838:420,-0.353851,-0.017792,-0.347748,-0.004732,0.0012619999999999999,0.000709,-37.75,9.56,-17.25,2b
2019-07-15_143838:440,-0.354858,-0.016266,-0.34875500000000004,-0.004,0.001201,0.00028199999999999997,-37.75,10.37,-16.870001000000002,2b
2019-07-15_143838:460,-0.35638400000000003,-0.014740000000000001,-0.346222,-0.00339,0.001201,0.000404,-37.75,10.37,-16.870001000000002,2b
2019-07-15_143838:480,-0.35638400000000003,-0.014221000000000001,-0.347748,-0.002993,0.0017809999999999998,0.000496,-37.75,10.37,-16.870001000000002,2b
2019-07-15_143838:500,-0.356903,-0.011687999999999999,-0.347229,-0.0031149999999999997,0.00172,0.000984,-37.060001,10.37,-15.68,2b
2019-07-15_143838:520,-0.358429,-0.011169,-0.347229,-0.003573,0.001964,0.001228,-37.060001,10.37,-15.68,2b
2019-07-15_143838:540,-0.35791,-0.013213999999999998,-0.347229,-0.003939,0.0023,0.000923,-37.060001,10.37,-16.059998999999998,2b
2019-07-15_143838:560,-0.355377,-0.014740000000000001,-0.34674099999999997,-0.004213000000000001,0.0023,0.001106,-37.060001,10.37,-16.059998999999998,2b
2019-07-15_143838:580,-0.35739099999999996,-0.01828,-0.347229,-0.003878,0.002055,0.000648,-37.060001,10.37,-16.059998999999998,2b
2019-07-15_143838:600,-0.35436999999999996,-0.019806,-0.346222,-0.0034509999999999996,0.0019030000000000002,-5.4000000000000005e-05,-37.060001,10.37,-16.059998999999998,2b
2019-07-15_143838:620,-0.355377,-0.018799,-0.34317,-0.002535,0.001994,6.8e-05,-37.060001,10.37,-16.059998999999998,2b
2019-07-15_143838:640,-0.356903,-0.016753999999999998,-0.344696,-0.0021079999999999996,0.001842,0.00016,-37.369999,11.06,-17.25,2b
2019-07-15_143838:660,-0.35436999999999996,-0.014740000000000001,-0.34317,-0.0018030000000000001,0.001598,-0.000389,-37.369999,11.06,-17.25,2b
2019-07-15_143838:680,-0.35638400000000003,-0.012695,-0.345215,-0.002382,0.001537,-0.000267,-37.369999,11.06,-17.25,2b
2019-07-15_143838:700,-0.355377,-0.010162000000000001,-0.345215,-0.002932,0.0008960000000000001,0.000221,-37.75,10.75,-16.059998999999998,2b
2019-07-15_143838:720,-0.353851,-0.010651,-0.34570300000000004,-0.0037560000000000002,0.0008039999999999999,6.8e-05,-37.75,10.75,-16.059998999999998,2b
2019-07-15_143838:740,-0.353851,-0.011687999999999999,-0.347229,-0.004336,0.00056,0.000404,-37.060001,10.0,-15.25,2b
2019-07-15_143838:760,-0.35436999999999996,-0.013213999999999998,-0.346222,-0.004824,0.00022400000000000002,0.00028199999999999997,-37.060001,10.0,-15.25,2b
2019-07-15_143838:780,-0.35638400000000003,-0.013213999999999998,-0.349792,-0.004824,0.00022400000000000002,0.000404,-37.060001,10.0,-15.25,2b
2019-07-15_143838:800,-0.355896,-0.015747,-0.348267,-0.004732,0.000499,0.000923,-37.369999,10.37,-16.059998999999998,2b
2019-07-15_143838:820,-0.354858,-0.015228,-0.34875500000000004,-0.004336,0.00056,0.001167,-37.369999,10.37,-16.059998999999998,2b
2019-07-15_143838:840,-0.355896,-0.015228,-0.34875500000000004,-0.003817,0.000621,0.001167,-37.369999,11.06,-15.68,2b
2019-07-15_143838:860,-0.354858,-0.016266,-0.348267,-0.0034509999999999996,0.000682,0.001503,-37.369999,11.06,-15.68,2b
2019-07-15_143838:880,-0.354858,-0.014740000000000001,-0.347229,-0.003054,0.000407,0.001625,-37.369999,11.06,-15.68,2b
2019-07-15_143838:900,-0.355896,-0.013213999999999998,-0.347748,-0.002993,0.000468,0.001503,-36.68,10.75,-16.870001000000002,2b
2019-07-15_143838:920,-0.355377,-0.012177,-0.34875500000000004,-0.0031149999999999997,0.000682,0.001258,-36.68,10.75,-16.870001000000002,2b
2019-07-15_143838:940,-0.354858,-0.013702,-0.34875500000000004,-0.0034509999999999996,0.000621,0.001228,-37.369999,10.75,-15.68,2b
2019-07-15_143838:960,-0.35791,-0.014740000000000001,-0.346222,-0.003573,0.0008960000000000001,0.001106,-37.369999,10.75,-15.68,2b
2019-07-15_143838:980,-0.356903,-0.014740000000000001,-0.347229,-0.0036950000000000004,0.0012619999999999999,0.0008619999999999999,-37.369999,10.75,-15.68,2b
2019-07-15_143839:000,-0.355896,-0.014740000000000001,-0.349274,-0.003817,0.001598,0.0007700000000000001,-37.060001,10.37,-16.059998999999998,2b
2019-07-15_143839:020,-0.354858,-0.013702,-0.348267,-0.003817,0.0014759999999999999,0.000831,-37.060001,10.37,-16.059998999999998,2b
2019-07-15_143839:040,-0.353851,-0.016266,-0.348267,-0.003878,0.001537,0.000984,-37.369999,10.75,-16.870001000000002,2b
2019-07-15_143839:060,-0.353333,-0.015747,-0.34875500000000004,-0.003878,0.001415,0.000923,-37.369999,10.75,-16.870001000000002,2b
2019-07-15_143839:080,-0.35436999999999996,-0.016266,-0.347748,-0.004,0.001537,0.000923,-37.369999,10.75,-16.870001000000002,2b
2019-07-15_143839:100,-0.35436999999999996,-0.017792,-0.348267,-0.003939,0.001353,0.000831,-37.369999,11.06,-17.25,2b
2019-07-15_143839:120,-0.353333,-0.016266,-0.348267,-0.004,0.0010789999999999999,0.000526,-37.369999,11.06,-17.25,2b
2019-07-15_143839:140,-0.35131799999999996,-0.016266,-0.3508,-0.003939,0.0012619999999999999,0.000465,-37.75,10.37,-17.68,2b
2019-07-15_143839:160,-0.353333,-0.017792,-0.349274,-0.003817,0.0008960000000000001,0.00016,-37.75,10.37,-17.68,2b
2019-07-15_143839:180,-0.353333,-0.017273,-0.350281,-0.0037560000000000002,0.0008039999999999999,6.8e-05,-37.75,10.37,-17.68,2b
2019-07-15_143839:200,-0.356903,-0.017792,-0.349274,-0.003573,0.0009570000000000001,0.000343,-37.369999,10.75,-17.68,2b
2019-07-15_143839:220,-0.358917,-0.01828,-0.349792,-0.002932,0.0010789999999999999,0.000404,-37.369999,10.75,-17.68,2b
2019-07-15_143839:240,-0.353333,-0.018799,-0.347748,-0.0025960000000000002,0.0019030000000000002,0.001167,-37.369999,10.75,-17.68,2b
2019-07-15_143839:260,-0.355377,-0.017792,-0.349792,-0.002321,0.00172,0.002052,-37.369999,10.75,-17.68,2b
2019-07-15_143839:280,-0.354858,-0.017273,-0.349274,-0.002535,0.00172,0.00251,-37.369999,10.75,-17.68,2b
2019-07-15_143839:300,-0.35131799999999996,-0.017792,-0.3508,-0.0028399999999999996,0.00172,0.001442,-37.75,10.75,-16.5,2b
2019-07-15_143839:320,-0.3508,-0.015747,-0.35131799999999996,-0.003054,0.001415,0.000343,-37.75,10.75,-16.5,2b
2019-07-15_143839:340,-0.3508,-0.016266,-0.349274,-0.002993,0.0012619999999999999,0.000709,-38.18,10.75,-17.25,2b
2019-07-15_143839:360,-0.352325,-0.014740000000000001,-0.348267,-0.003176,0.0008960000000000001,0.000343,-38.18,10.75,-17.25,2b
2019-07-15_143839:380,-0.353851,-0.014740000000000001,-0.349792,-0.0031149999999999997,0.0008039999999999999,0.000404,-38.18,10.75,-17.25,2b
2019-07-15_143839:400,-0.353851,-0.014740000000000001,-0.350281,-0.003237,0.001201,0.000465,-38.18,10.0,-15.68,2b
2019-07-15_143839:420,-0.353333,-0.013213999999999998,-0.35131799999999996,-0.003573,0.001415,0.000831,-38.18,10.0,-15.68,2b
2019-07-15_143839:440,-0.354858,-0.011687999999999999,-0.349792,-0.0036950000000000004,0.00114,0.001777,-37.75,11.06,-16.059998999999998,2b
2019-07-15_143839:460,-0.355896,-0.012695,-0.349274,-0.004152,0.00114,0.002449,-37.75,11.06,-16.059998999999998,2b
2019-07-15_143839:480,-0.355377,-0.013213999999999998,-0.349274,-0.004549,0.001537,0.002784,-37.75,11.06,-16.059998999999998,2b
2019-07-15_143839:500,-0.35436999999999996,-0.014221000000000001,-0.3508,-0.004793,0.001842,0.0030280000000000003,-37.060001,11.06,-16.5,2b
2019-07-15_143839:520,-0.354858,-0.015228,-0.3508,-0.005068,0.0016589999999999999,0.0033640000000000002,-37.060001,11.06,-16.5,2b
2019-07-15_143839:540,-0.355896,-0.016753999999999998,-0.349792,-0.005129,0.00172,0.00309,-37.369999,10.75,-17.25,2b
2019-07-15_143839:560,-0.35638400000000003,-0.017792,-0.34674099999999997,-0.005282,0.0019030000000000002,0.003242,-37.369999,10.75,-17.25,2b
2019-07-15_143839:580,-0.35436999999999996,-0.019318000000000002,-0.347748,-0.005221,0.002116,0.003242,-37.369999,10.75,-17.25,2b
2019-07-15_143839:600,-0.35131799999999996,-0.021332,-0.34875500000000004,-0.005343,0.0023,0.0022960000000000003,-37.060001,11.5,-18.059998999999998,2b
2019-07-15_143839:620,-0.35180700000000004,-0.021851,-0.34875500000000004,-0.004793,0.002055,0.002052,-37.060001,11.5,-18.059998999999998,2b
2019-07-15_143839:640,-0.352844,-0.022858,-0.348267,-0.004336,0.001537,0.001991,-37.369999,10.75,-16.5,2b
2019-07-15_143839:660,-0.355377,-0.023375999999999997,-0.347748,-0.003939,0.001292,0.0008619999999999999,-37.369999,10.75,-16.5,2b
2019-07-15_143839:680,-0.355377,-0.022858,-0.34674099999999997,-0.0032979999999999997,0.001415,0.000465,-37.369999,10.75,-16.5,2b
2019-07-15_143839:700,-0.355377,-0.020844,-0.349274,-0.0029010000000000004,0.001598,7.000000000000001e-06,-37.060001,11.87,-15.68,2b
2019-07-15_143839:720,-0.354858,-0.019806,-0.347748,-0.002718,0.0016589999999999999,-0.00045099999999999996,-37.060001,11.87,-15.68,2b
2019-07-15_143839:740,-0.352844,-0.020325,-0.347229,-0.002535,0.0014759999999999999,-0.000512,-37.369999,11.87,-16.5,2b
2019-07-15_143839:760,-0.35131799999999996,-0.019806,-0.348267,-0.002535,0.0014759999999999999,-0.000634,-37.369999,11.87,-16.5,2b
2019-07-15_143839:780,-0.35180700000000004,-0.020844,-0.348267,-0.002443,0.001018,-0.000664,-37.369999,11.87,-16.5,2b
2019-07-15_143839:800,-0.353851,-0.019318000000000002,-0.349792,-0.002169,0.0010789999999999999,-0.000786,-37.060001,11.06,-17.25,2b
2019-07-15_143839:820,-0.354858,-0.018799,-0.350281,-0.0017109999999999998,0.000865,-0.0009689999999999999,-37.060001,11.06,-17.25,2b
2019-07-15_143839:840,-0.355377,-0.016753999999999998,-0.350281,-0.001772,0.0008039999999999999,-0.00045099999999999996,-37.060001,10.75,-16.870001000000002,2b
2019-07-15_143839:860,-0.355377,-0.015228,-0.349792,-0.001986,0.000865,-0.00011499999999999999,-37.060001,10.75,-16.870001000000002,2b
2019-07-15_143839:880,-0.353851,-0.015747,-0.349274,-0.0028399999999999996,0.0009570000000000001,0.000496,-37.060001,10.75,-16.870001000000002,2b
2019-07-15_143839:900,-0.354858,-0.017273,-0.349274,-0.0036340000000000005,0.0010789999999999999,0.000984,-37.75,11.06,-17.25,2b
2019-07-15_143839:920,-0.353333,-0.019318000000000002,-0.349274,-0.004275,0.001353,0.001045,-37.75,11.06,-17.25,2b
2019-07-15_143839:940,-0.352844,-0.021851,-0.3508,-0.004549,0.001292,0.000923,-36.68,10.75,-17.25,2b
2019-07-15_143839:960,-0.352844,-0.022369,-0.350281,-0.004397,0.001292,0.000923,-36.68,10.75,-17.25,2b
2019-07-15_143839:980,-0.352844,-0.022369,-0.35131799999999996,-0.0037560000000000002,0.0010789999999999999,0.0007700000000000001,-36.68,10.75,-17.25,2b
2019-07-15_143840:000,-0.355377,-0.021851,-0.3508,-0.0032979999999999997,0.0012619999999999999,0.0008619999999999999,-37.060001,11.06,-17.68,2b
2019-07-15_143840:020,-0.354858,-0.021332,-0.350281,-0.0029010000000000004,0.001598,0.001045,-37.060001,11.06,-17.68,2b
2019-07-15_143840:040,-0.35436999999999996,-0.019318000000000002,-0.350281,-0.0028399999999999996,0.001964,0.000526,-37.060001,11.5,-16.5,2b
2019-07-15_143840:060,-0.352325,-0.020325,-0.349274,-0.002932,0.001842,0.00028199999999999997,-37.060001,11.5,-16.5,2b
2019-07-15_143840:080,-0.353851,-0.019318000000000002,-0.350281,-0.0031149999999999997,0.00172,7.000000000000001e-06,-37.060001,11.5,-16.5,2b
2019-07-15_143840:100,-0.353333,-0.020844,-0.3508,-0.003176,0.001628,-0.000328,-36.25,11.06,-17.68,2b
2019-07-15_143840:120,-0.354858,-0.020325,-0.349274,-0.003237,0.001628,-0.000176,-36.25,11.06,-17.68,2b
2019-07-15_143840:140,-0.353851,-0.021332,-0.34875500000000004,-0.002993,0.0019030000000000002,-0.000176,-37.060001,10.75,-16.870001000000002,2b
2019-07-15_143840:160,-0.352325,-0.01828,-0.34674099999999997,-0.003054,0.0019030000000000002,-0.000512,-37.060001,10.75,-16.870001000000002,2b
2019-07-15_143840:180,-0.355896,-0.017792,-0.349274,-0.003054,0.001994,0.001045,-37.060001,10.75,-16.870001000000002,2b
2019-07-15_143840:200,-0.354858,-0.018799,-0.347748,-0.003512,0.002116,0.00132,-37.75,10.75,-16.870001000000002,2b
2019-07-15_143840:220,-0.35638400000000003,-0.017273,-0.34674099999999997,-0.004213000000000001,0.0017809999999999998,0.000496,-37.75,10.75,-16.870001000000002,2b
2019-07-15_143840:240,-0.352844,-0.020325,-0.34875500000000004,-0.004732,0.00172,-0.000328,-37.060001,11.5,-16.059998999999998,2b
2019-07-15_143840:260,-0.349792,-0.021332,-0.347229,-0.005221,0.001537,-0.000573,-37.060001,11.5,-16.059998999999998,2b
2019-07-15_143840:280,-0.349274,-0.023375999999999997,-0.350281,-0.005007,0.001201,-0.000328,-37.060001,11.5,-16.059998999999998,2b
2019-07-15_143840:300,-0.349274,-0.022369,-0.35180700000000004,-0.004427,0.0009570000000000001,-0.000664,-37.369999,11.5,-16.870001000000002,2b
2019-07-15_143840:320,-0.35436999999999996,-0.022369,-0.35180700000000004,-0.003573,0.00056,-0.0009689999999999999,-37.369999,11.5,-16.870001000000002,2b
2019-07-15_143840:340,-0.354858,-0.019318000000000002,-0.352325,-0.003054,0.0008039999999999999,-0.000908,-38.560001,11.5,-16.870001000000002,2b
2019-07-15_143840:360,-0.355377,-0.01828,-0.35180700000000004,-0.0025960000000000002,0.001201,-0.000786,-38.560001,11.5,-16.870001000000002,2b
2019-07-15_143840:380,-0.355377,-0.017273,-0.353333,-0.0025960000000000002,0.001598,-0.0010609999999999999,-38.560001,11.5,-16.870001000000002,2b
2019-07-15_143840:400,-0.35638400000000003,-0.016266,-0.35131799999999996,-0.0028399999999999996,0.002177,-0.0008470000000000001,-37.369999,10.75,-16.059998999999998,2b
2019-07-15_143840:420,-0.354858,-0.016266,-0.352325,-0.003176,0.002391,-0.000664,-37.369999,10.75,-16.059998999999998,2b
2019-07-15_143840:440,-0.354858,-0.01828,-0.348267,-0.003664,0.0029100000000000003,-0.0009689999999999999,-37.75,10.75,-15.68,2b
2019-07-15_143840:460,-0.356903,-0.018799,-0.347748,-0.003573,0.002788,-0.000634,-37.75,10.75,-15.68,2b
2019-07-15_143840:480,-0.354858,-0.016753999999999998,-0.347748,-0.003512,0.002849,7.000000000000001e-06,-37.75,10.75,-15.68,2b
2019-07-15_143840:500,-0.354858,-0.01828,-0.347748,-0.003664,0.002788,-0.000634,-37.369999,10.75,-16.5,2b
2019-07-15_143840:520,-0.352844,-0.016266,-0.34570300000000004,-0.0034509999999999996,0.002574,-0.000634,-37.369999,10.75,-16.5,2b
2019-07-15_143840:540,-0.3508,-0.016266,-0.347229,-0.003573,0.002116,0.000129,-37.369999,10.75,-16.5,2b
2019-07-15_143840:560,-0.352844,-0.015747,-0.34570300000000004,-0.0036340000000000005,0.001537,0.000129,-37.369999,10.75,-16.5,2b
2019-07-15_143840:580,-0.353851,-0.014740000000000001,-0.34674099999999997,-0.003817,0.001353,-5.4000000000000005e-05,-37.369999,10.75,-16.5,2b
2019-07-15_143840:600,-0.353851,-0.015747,-0.347748,-0.003817,0.001201,-0.00011499999999999999,-38.18,10.0,-15.68,2b
2019-07-15_143840:620,-0.35436999999999996,-0.016266,-0.349274,-0.003939,0.0010789999999999999,-5.4000000000000005e-05,-38.18,10.0,-15.68,2b
2019-07-15_143840:640,-0.355377,-0.016266,-0.349792,-0.003939,0.001292,7.000000000000001e-06,-37.369999,10.37,-16.5,2b
2019-07-15_143840:660,-0.355377,-0.017792,-0.349792,-0.0037560000000000002,0.001353,-5.4000000000000005e-05,-37.369999,10.37,-16.5,2b
2019-07-15_143840:680,-0.354858,-0.01828,-0.349274,-0.0032979999999999997,0.001537,7.000000000000001e-06,-37.369999,10.37,-16.5,2b
2019-07-15_143840:700,-0.355896,-0.01828,-0.34875500000000004,-0.0031149999999999997,0.001628,7.000000000000001e-06,-37.369999,11.06,-16.059998999999998,2b
2019-07-15_143840:720,-0.35436999999999996,-0.015747,-0.348267,-0.002779,0.001598,7.000000000000001e-06,-37.369999,11.06,-16.059998999999998,2b
2019-07-15_143840:740,-0.354858,-0.015747,-0.349792,-0.0029010000000000004,0.001598,0.000221,-37.369999,10.75,-16.5,2b
2019-07-15_143840:760,-0.353851,-0.015747,-0.347748,-0.0031149999999999997,0.001598,0.00028199999999999997,-37.369999,10.75,-16.5,2b
2019-07-15_143840:780,-0.353851,-0.014221000000000001,-0.347748,-0.0032979999999999997,0.001537,0.000343,-37.369999,10.75,-16.5,2b
2019-07-15_143840:800,-0.353851,-0.014740000000000001,-0.349792,-0.003664,0.001415,0.000465,-37.060001,10.75,-16.5,2b
2019-07-15_143840:820,-0.354858,-0.014740000000000001,-0.347748,-0.00403,0.001628,0.000648,-37.060001,10.75,-16.5,2b
2019-07-15_143840:840,-0.355896,-0.016266,-0.350281,-0.004,0.0016589999999999999,0.0007700000000000001,-37.369999,11.06,-17.25,2b
2019-07-15_143840:860,-0.354858,-0.017273,-0.348267,-0.004091,0.0014759999999999999,0.0008619999999999999,-37.369999,11.06,-17.25,2b
2019-07-15_143840:880,-0.353333,-0.015747,-0.349274,-0.00403,0.0017809999999999998,0.000923,-37.369999,11.06,-17.25,2b
2019-07-15_143840:900,-0.355896,-0.015747,-0.347748,-0.003878,0.001598,0.000984,-37.369999,10.75,-16.5,2b
2019-07-15_143840:920,-0.355377,-0.016753999999999998,-0.347748,-0.004,0.001842,0.001045,-37.369999,10.75,-16.5,2b
2019-07-15_143840:940,-0.355377,-0.016753999999999998,-0.34875500000000004,-0.004,0.002055,0.001045,-37.75,11.06,-17.68,2b
2019-07-15_143840:960,-0.354858,-0.016753999999999998,-0.34674099999999997,-0.0037560000000000002,0.0019030000000000002,0.000923,-37.75,11.06,-17.68,2b
2019-07-15_143840:980,-0.354858,-0.016753999999999998,-0.34875500000000004,-0.003878,0.001994,0.001045,-37.75,11.06,-17.68,2b
2019-07-15_143841:000,-0.352844,-0.017273,-0.34875500000000004,-0.0037560000000000002,0.001964,0.000923,-37.060001,10.37,-15.68,2b
2019-07-15_143841:020,-0.352325,-0.017792,-0.348267,-0.0036950000000000004,0.0017809999999999998,0.000648,-37.060001,10.37,-15.68,2b
2019-07-15_143841:040,-0.354858,-0.017792,-0.347748,-0.003573,0.001598,0.000587,-37.75,10.37,-15.68,2b
2019-07-15_143841:060,-0.354858,-0.01828,-0.347748,-0.003664,0.001628,0.000831,-37.75,10.37,-15.68,2b
2019-07-15_143841:080,-0.355896,-0.017792,-0.347229,-0.00339,0.0014759999999999999,0.0008619999999999999,-37.75,10.37,-15.68,2b
2019-07-15_143841:100,-0.359955,-0.017792,-0.34674099999999997,-0.00339,0.001537,0.000587,-37.369999,9.56,-16.059998999999998,2b
2019-07-15_143841:120,-0.354858,-0.013702,-0.344696,-0.003512,0.001842,0.001442,-37.369999,9.56,-16.059998999999998,2b
2019-07-15_143841:140,-0.35436999999999996,-0.015747,-0.346222,-0.004,0.0016589999999999999,0.002357,-37.060001,10.37,-16.059998999999998,2b
2019-07-15_143841:160,-0.355377,-0.015228,-0.347748,-0.004824,0.001537,0.0021739999999999997,-37.060001,10.37,-16.059998999999998,2b
2019-07-15_143841:180,-0.352325,-0.017792,-0.34875500000000004,-0.005404,0.0012619999999999999,0.001381,-37.060001,10.37,-16.059998999999998,2b
2019-07-15_143841:200,-0.35436999999999996,-0.020325,-0.348267,-0.005953,0.0009570000000000001,0.0007700000000000001,-37.75,10.37,-17.25,2b
2019-07-15_143841:220,-0.353333,-0.022858,-0.349274,-0.005556,0.0008039999999999999,0.001106,-37.75,10.37,-17.25,2b
2019-07-15_143841:240,-0.353851,-0.023895,-0.349274,-0.004671,0.000743,0.000526,-37.75,10.75,-17.25,2b
2019-07-15_143841:260,-0.35436999999999996,-0.020844,-0.350281,-0.0036950000000000004,0.000865,-0.00011499999999999999,-37.75,10.75,-17.25,2b
2019-07-15_143841:280,-0.35436999999999996,-0.019318000000000002,-0.35131799999999996,-0.0029010000000000004,0.001018,-5.4000000000000005e-05,-37.75,10.75,-17.25,2b
2019-07-15_143841:300,-0.354858,-0.015747,-0.3508,-0.0028399999999999996,0.001353,-0.000176,-37.75,10.75,-16.870001000000002,2b
2019-07-15_143841:320,-0.356903,-0.014221000000000001,-0.350281,-0.0029010000000000004,0.0016589999999999999,0.000404,-37.75,10.75,-16.870001000000002,2b
2019-07-15_143841:340,-0.35739099999999996,-0.014221000000000001,-0.35131799999999996,-0.00339,0.002177,0.000465,-37.369999,10.37,-16.870001000000002,2b
2019-07-15_143841:360,-0.35739099999999996,-0.012695,-0.349274,-0.003939,0.002513,0.000526,-37.369999,10.37,-16.870001000000002,2b
2019-07-15_143841:380,-0.353333,-0.015747,-0.34875500000000004,-0.004427,0.0024519999999999998,0.000923,-37.369999,10.37,-16.870001000000002,2b
2019-07-15_143841:400,-0.35436999999999996,-0.017273,-0.34875500000000004,-0.004793,0.002391,0.0007700000000000001,-37.75,10.37,-16.059998999999998,2b
2019-07-15_143841:420,-0.354858,-0.018799,-0.34674099999999997,-0.004488000000000001,0.002055,0.0008619999999999999,-37.75,10.37,-16.059998999999998,2b
2019-07-15_143841:440,-0.35638400000000003,-0.019318000000000002,-0.347229,-0.004091,0.002177,0.000984,-37.75,10.75,-16.5,2b
2019-07-15_143841:460,-0.35638400000000003,-0.018799,-0.34674099999999997,-0.003664,0.0019030000000000002,0.001228,-37.75,10.75,-16.5,2b
2019-07-15_143841:480,-0.353333,-0.019318000000000002,-0.344696,-0.003664,0.002055,0.000343,-37.75,10.75,-16.5,2b
2019-07-15_143841:500,-0.354858,-0.01828,-0.346222,-0.003512,0.0019030000000000002,0.000343,-37.369999,11.06,-16.059998999999998,2b
2019-07-15_143841:520,-0.354858,-0.018799,-0.34570300000000004,-0.0034509999999999996,0.0016589999999999999,0.000709,-37.369999,11.06,-16.059998999999998,2b
2019-07-15_143841:540,-0.355377,-0.017792,-0.347748,-0.00339,0.001353,0.000129,-37.060001,11.06,-17.25,2b
2019-07-15_143841:560,-0.355896,-0.017273,-0.347229,-0.0032979999999999997,0.0014759999999999999,0.000129,-37.060001,11.06,-17.25,2b
2019-07-15_143841:580,-0.355377,-0.017792,-0.347748,-0.00339,0.001537,-5.4000000000000005e-05,-37.060001,11.06,-17.25,2b
2019-07-15_143841:600,-0.354858,-0.016266,-0.34875500000000004,-0.0036340000000000005,0.001415,-0.000176,-37.75,12.18,-16.5,2b
2019-07-15_143841:620,-0.353851,-0.015747,-0.348267,-0.0034509999999999996,0.001353,-5.4000000000000005e-05,-37.75,12.18,-16.5,2b
2019-07-15_143841:640,-0.358917,-0.014740000000000001,-0.358429,-0.003817,0.0016589999999999999,-0.000267,-37.369999,10.75,-16.059998999999998,2b
2019-07-15_143841:660,-0.353851,-0.015228,-0.34368899999999997,-0.004091,0.002177,0.00028199999999999997,-37.369999,10.75,-16.059998999999998,2b
2019-07-15_143841:680,-0.347748,-0.017273,-0.33300799999999997,-0.003176,0.0012619999999999999,0.000221,-37.369999,10.75,-16.059998999999998,2b
2019-07-15_143841:700,-0.360962,-0.014221000000000001,-0.34674099999999997,-0.0033280000000000002,0.0010789999999999999,0.000465,-37.369999,11.06,-16.5,2b
2019-07-15_143841:720,-0.355377,-0.014740000000000001,-0.347748,-0.00339,0.001292,0.001106,-37.369999,11.06,-16.5,2b
2019-07-15_143841:740,-0.358429,-0.015228,-0.352325,-0.0036950000000000004,0.0017809999999999998,0.001442,-37.369999,10.37,-16.870001000000002,2b
2019-07-15_143841:760,-0.355896,-0.015747,-0.34875500000000004,-0.003939,0.001964,0.001228,-37.369999,10.37,-16.870001000000002,2b
2019-07-15_143841:780,-0.354858,-0.015747,-0.349274,-0.004275,0.001964,0.00132,-37.369999,10.37,-16.870001000000002,2b
2019-07-15_143841:800,-0.353851,-0.016753999999999998,-0.34674099999999997,-0.004336,0.0016589999999999999,0.00132,-37.369999,11.06,-16.5,2b
2019-07-15_143841:820,-0.35436999999999996,-0.017273,-0.347748,-0.004427,0.001842,0.001228,-37.369999,11.06,-16.5,2b
2019-07-15_143841:840,-0.35436999999999996,-0.017792,-0.347748,-0.004213000000000001,0.001598,0.001228,-37.369999,10.75,-16.5,2b
2019-07-15_143841:860,-0.35436999999999996,-0.017273,-0.348267,-0.00403,0.00172,0.001106,-37.369999,10.75,-16.5,2b
2019-07-15_143841:880,-0.35436999999999996,-0.019318000000000002,-0.347229,-0.003817,0.001598,0.000831,-37.369999,10.75,-16.5,2b
2019-07-15_143841:900,-0.355377,-0.01828,-0.34875500000000004,-0.003664,0.001598,0.000709,-37.369999,11.06,-16.5,2b
2019-07-15_143841:920,-0.355377,-0.017273,-0.34674099999999997,-0.00339,0.001353,0.0008619999999999999,-37.369999,11.06,-16.5,2b
2019-07-15_143841:940,-0.35638400000000003,-0.016753999999999998,-0.347229,-0.003512,0.001353,0.001106,-37.75,10.75,-16.870001000000002,2b
2019-07-15_143841:960,-0.353851,-0.017273,-0.347229,-0.003512,0.001292,0.00132,-37.75,10.75,-16.870001000000002,2b
2019-07-15_143841:980,-0.355896,-0.017792,-0.348267,-0.0036340000000000005,0.001201,0.001258,-37.75,10.75,-16.870001000000002,2b
2019-07-15_143842:000,-0.35638400000000003,-0.018799,-0.34570300000000004,-0.003664,0.001201,0.001167,-37.369999,11.5,-16.870001000000002,2b
2019-07-15_143842:020,-0.358917,-0.018799,-0.344696,-0.003664,0.0016589999999999999,0.001045,-37.369999,11.5,-16.870001000000002,2b
2019-07-15_143842:040,-0.35739099999999996,-0.017792,-0.34674099999999997,-0.0036950000000000004,0.0017809999999999998,0.000709,-37.75,11.5,-16.870001000000002,2b
2019-07-15_143842:060,-0.354858,-0.018799,-0.346222,-0.003817,0.0016589999999999999,0.000831,-37.75,11.5,-16.870001000000002,2b
2019-07-15_143842:080,-0.353851,-0.019318000000000002,-0.346222,-0.003878,0.001415,0.000648,-37.75,11.5,-16.870001000000002,2b
2019-07-15_143842:100,-0.354858,-0.019318000000000002,-0.347748,-0.003664,0.001415,0.000496,-36.25,11.06,-16.5,2b
2019-07-15_143842:120,-0.354858,-0.018799,-0.344696,-0.003512,0.00114,0.000709,-36.25,11.06,-16.5,2b
2019-07-15_143842:140,-0.353851,-0.018799,-0.34875500000000004,-0.0034509999999999996,0.0008960000000000001,0.000343,-38.18,10.0,-16.870001000000002,2b
2019-07-15_143842:160,-0.35638400000000003,-0.017792,-0.347229,-0.0036340000000000005,0.00114,0.000587,-38.18,10.0,-16.870001000000002,2b
2019-07-15_143842:180,-0.35638400000000003,-0.017792,-0.349274,-0.0036950000000000004,0.0012619999999999999,0.001564,-38.18,10.0,-16.870001000000002,2b
2019-07-15_143842:200,-0.354858,-0.016753999999999998,-0.347748,-0.004336,0.0012619999999999999,0.001045,-37.369999,11.5,-16.870001000000002,2b
2019-07-15_143842:220,-0.355896,-0.019806,-0.347229,-0.004427,0.001353,-5.4000000000000005e-05,-37.369999,11.5,-16.870001000000002,2b
2019-07-15_143842:240,-0.355377,-0.018799,-0.349274,-0.00461,0.0014759999999999999,-0.000389,-37.75,11.5,-16.059998999999998,2b
2019-07-15_143842:260,-0.353851,-0.020325,-0.349792,-0.003939,0.001537,0.00016,-37.75,11.5,-16.059998999999998,2b
2019-07-15_143842:280,-0.353851,-0.021332,-0.3508,-0.0034509999999999996,0.0016589999999999999,-0.000176,-37.75,11.5,-16.059998999999998,2b
2019-07-15_143842:300,-0.353333,-0.018799,-0.350281,-0.002932,0.001628,-0.00045099999999999996,-37.060001,10.75,-16.5,2b
2019-07-15_143842:320,-0.352844,-0.017792,-0.348267,-0.002657,0.0016589999999999999,0.000129,-37.060001,10.75,-16.5,2b
2019-07-15_143842:340,-0.35638400000000003,-0.015747,-0.349792,-0.002718,0.0019030000000000002,0.000343,-37.75,10.75,-16.5,2b
2019-07-15_143842:360,-0.35638400000000003,-0.016266,-0.349274,-0.0031149999999999997,0.002116,0.000343,-37.75,10.75,-16.5,2b
2019-07-15_143842:380,-0.35739099999999996,-0.014740000000000001,-0.347748,-0.0034509999999999996,0.002391,0.000404,-37.75,10.75,-16.5,2b
2019-07-15_143842:400,-0.35791,-0.016266,-0.347748,-0.0037560000000000002,0.0024519999999999998,0.00028199999999999997,-38.18,11.5,-16.059998999999998,2b
2019-07-15_143842:420,-0.356903,-0.017792,-0.34570300000000004,-0.003817,0.002635,0.0007700000000000001,-38.18,11.5,-16.059998999999998,2b
2019-07-15_143842:440,-0.354858,-0.018799,-0.34674099999999997,-0.003664,0.002635,0.000923,-37.75,10.75,-16.5,2b
2019-07-15_143842:460,-0.354858,-0.017792,-0.345215,-0.0036340000000000005,0.0024519999999999998,0.0008619999999999999,-37.75,10.75,-16.5,2b
2019-07-15_143842:480,-0.35739099999999996,-0.019318000000000002,-0.34570300000000004,-0.003664,0.002635,0.000984,-37.75,10.75,-16.5,2b
2019-07-15_143842:500,-0.35638400000000003,-0.01828,-0.34570300000000004,-0.003573,0.0023,0.00132,-37.75,10.75,-16.870001000000002,2b
2019-07-15_143842:520,-0.353851,-0.01828,-0.34317,-0.003817,0.002055,0.000465,-37.75,10.75,-16.870001000000002,2b
2019-07-15_143842:540,-0.354858,-0.017273,-0.34317,-0.0037560000000000002,0.0016589999999999999,0.00028199999999999997,-37.060001,11.06,-16.059998999999998,2b
2019-07-15_143842:560,-0.35436999999999996,-0.01828,-0.346222,-0.003664,0.001353,0.000923,-37.060001,11.06,-16.059998999999998,2b
2019-07-15_143842:580,-0.355377,-0.019318000000000002,-0.346222,-0.0036340000000000005,0.001018,0.000526,-37.060001,11.06,-16.059998999999998,2b
2019-07-15_143842:600,-0.354858,-0.01828,-0.34674099999999997,-0.00339,0.0008960000000000001,0.000465,-37.060001,11.5,-16.059998999999998,2b
2019-07-15_143842:620,-0.355896,-0.018799,-0.34674099999999997,-0.00339,0.00114,0.00028199999999999997,-37.060001,11.5,-16.059998999999998,2b
2019-07-15_143842:640,-0.35638400000000003,-0.017273,-0.347748,-0.0032979999999999997,0.001018,0.00016,-37.369999,10.75,-16.5,2b
2019-07-15_143842:660,-0.35436999999999996,-0.016753999999999998,-0.347229,-0.003237,0.0008960000000000001,0.000221,-37.369999,10.75,-16.5,2b
2019-07-15_143842:680,-0.353333,-0.017792,-0.34674099999999997,-0.0033280000000000002,0.0009570000000000001,0.000221,-37.369999,10.75,-16.5,2b
2019-07-15_143842:700,-0.354858,-0.01828,-0.34875500000000004,-0.0033280000000000002,0.000621,0.000129,-37.369999,10.75,-16.5,2b
2019-07-15_143842:720,-0.355377,-0.017273,-0.347229,-0.0032979999999999997,0.000468,0.000221,-37.369999,10.75,-16.5,2b
2019-07-15_143842:740,-0.35791,-0.015747,-0.34875500000000004,-0.0032979999999999997,0.000682,0.00028199999999999997,-36.68,11.06,-16.5,2b
2019-07-15_143842:760,-0.358429,-0.015747,-0.347748,-0.003237,0.0009570000000000001,0.000465,-36.68,11.06,-16.5,2b
2019-07-15_143842:780,-0.355896,-0.015228,-0.347229,-0.003664,0.0014759999999999999,0.001045,-36.68,11.06,-16.5,2b
2019-07-15_143842:800,-0.355896,-0.015747,-0.348267,-0.003878,0.001353,0.001106,-36.68,11.06,-17.25,2b
2019-07-15_143842:820,-0.352844,-0.016266,-0.347748,-0.004488000000000001,0.0014759999999999999,0.001442,-36.68,11.06,-17.25,2b
2019-07-15_143842:840,-0.352844,-0.019318000000000002,-0.34875500000000004,-0.004671,0.001415,0.001442,-37.060001,11.5,-16.870001000000002,2b
2019-07-15_143842:860,-0.352325,-0.021332,-0.349274,-0.004397,0.001353,0.001564,-37.060001,11.5,-16.870001000000002,2b
2019-07-15_143842:880,-0.355377,-0.022369,-0.349792,-0.004397,0.0010789999999999999,0.001258,-37.060001,11.5,-16.870001000000002,2b
2019-07-15_143842:900,-0.356903,-0.022369,-0.350281,-0.0032979999999999997,0.001353,0.0007700000000000001,-37.369999,10.75,-16.5,2b
2019-07-15_143842:920,-0.35739099999999996,-0.021851,-0.34875500000000004,-0.002932,0.0016589999999999999,0.000526,-37.369999,10.75,-16.5,2b
2019-07-15_143842:940,-0.356903,-0.019806,-0.347748,-0.002382,0.002177,0.00016,-37.369999,10.75,-16.5,2b
2019-07-15_143842:960,-0.356903,-0.018799,-0.34875500000000004,-0.002169,0.0023,0.00016,-37.060001,10.75,-15.25,2b
2019-07-15_143842:980,-0.354858,-0.017273,-0.347748,-0.002718,0.001964,0.000221,-37.060001,10.75,-15.25,2b
2019-07-15_143843:000,-0.353851,-0.017792,-0.347748,-0.002779,0.001994,6.8e-05,-36.68,11.06,-17.25,2b
2019-07-15_143843:020,-0.356903,-0.016753999999999998,-0.34570300000000004,-0.003512,0.001628,0.000404,-36.68,11.06,-17.25,2b
2019-07-15_143843:040,-0.354858,-0.017792,-0.347229,-0.00403,0.001537,0.000526,-37.060001,10.75,-17.25,2b
2019-07-15_143843:060,-0.354858,-0.017792,-0.34674099999999997,-0.004427,0.001598,0.0007700000000000001,-37.060001,10.75,-17.25,2b
2019-07-15_143843:080,-0.353851,-0.020325,-0.347229,-0.004397,0.001598,0.000984,-37.060001,10.75,-17.25,2b
2019-07-15_143843:100,-0.352325,-0.020844,-0.348267,-0.004213000000000001,0.001201,0.000923,-37.369999,11.06,-16.5,2b
2019-07-15_143843:120,-0.354858,-0.021332,-0.347748,-0.003817,0.0010789999999999999,0.000709,-37.369999,11.06,-16.5,2b
2019-07-15_143843:140,-0.35739099999999996,-0.019806,-0.347748,-0.0033280000000000002,0.001201,0.000496,-37.369999,11.06,-16.5,2b
2019-07-15_143843:160,-0.356903,-0.020325,-0.348267,-0.002932,0.001018,0.0007700000000000001,-37.369999,11.06,-16.5,2b
2019-07-15_143843:180,-0.35739099999999996,-0.016753999999999998,-0.346222,-0.002932,0.0014759999999999999,0.000496,-37.369999,11.06,-16.5,2b
2019-07-15_143843:200,-0.35436999999999996,-0.016266,-0.346222,-0.0032979999999999997,0.0016589999999999999,0.001167,-38.18,10.75,-17.25,2b
2019-07-15_143843:220,-0.353851,-0.019318000000000002,-0.346222,-0.003573,0.001415,0.002388,-38.18,10.75,-17.25,2b
2019-07-15_143843:240,-0.353851,-0.020844,-0.347229,-0.004397,0.0009570000000000001,0.001503,-37.369999,10.37,-16.5,2b
2019-07-15_143843:260,-0.352844,-0.021851,-0.34875500000000004,-0.00461,0.00056,0.000404,-37.369999,10.37,-16.5,2b
2019-07-15_143843:280,-0.35436999999999996,-0.022858,-0.349274,-0.004275,0.000346,0.00016,-37.369999,10.37,-16.5,2b
