timestamp,AccX,AccY,AccZ,GyroX,GyroY,GyroZ,MagX,MagY,MagZ,Activity
2019-07-15_122151:780,-0.491638,0.015228,-0.096069,-0.010317,0.004039,-0.0009689999999999999,-36.68,-22.0,-1.18,3a
2019-07-15_122151:800,-0.506378,0.024902,-0.09149199999999999,-0.006197,0.006876999999999999,-0.0013050000000000002,-36.68,-22.0,-1.18,3a
2019-07-15_122151:820,-0.501282,0.032532,-0.09353600000000001,-0.003664,0.010143000000000001,-0.000176,-36.68,-22.0,-1.18,3a
2019-07-15_122151:840,-0.49468999999999996,0.03302,-0.094055,-0.0025960000000000002,0.012523000000000001,0.002449,-37.0,-21.870001000000002,-0.75,3a
2019-07-15_122151:860,-0.500275,0.034058,-0.095581,-0.002535,0.011545999999999999,0.004829,-37.0,-21.870001000000002,-0.75,3a
2019-07-15_122151:880,-0.495697,0.028442000000000002,-0.085388,-0.002535,0.010204000000000001,0.006965000000000001,-37.68,-21.5,1.56,3a
2019-07-15_122151:900,-0.492645,0.021332,-0.07928500000000001,-0.002657,0.008556,0.007423000000000001,-37.68,-21.5,1.56,3a
2019-07-15_122151:920,-0.474854,0.014221000000000001,-0.075226,-0.0022600000000000003,0.006358,0.004829,-37.68,-21.5,1.56,3a
2019-07-15_122151:940,-0.465179,0.004547,-0.077271,-0.0015890000000000001,0.001415,0.003242,-37.0,-21.559998999999998,1.87,3a
2019-07-15_122151:960,-0.476379,0.001495,-0.075745,-2e-06,-0.002644,0.00196,-37.0,-21.559998999999998,1.87,3a
2019-07-15_122151:980,-0.494171,-0.000488,-0.069641,0.001737,-0.002095,-0.0009689999999999999,-37.369999,-21.18,0.56,3a
2019-07-15_122152:000,-0.49722299999999997,-0.0035399999999999997,-0.065063,0.003782,0.000743,-0.004418,-37.369999,-21.18,0.56,3a
2019-07-15_122152:020,-0.48300200000000004,-0.007111,-0.059479,0.005796,0.003978,-0.00747,-37.369999,-21.18,0.56,3a
2019-07-15_122152:040,-0.478912,-0.007111,-0.056915,0.007902,0.005351,-0.009423,-37.369999,-22.0,0.56,3a
2019-07-15_122152:060,-0.46823100000000006,0.005065999999999999,-0.06253099999999999,0.010099,0.002849,-0.010888,-37.369999,-22.0,0.56,3a
2019-07-15_122152:080,-0.48654200000000003,0.010162000000000001,-0.058960000000000005,0.010954,0.0010789999999999999,-0.010551999999999999,-37.0,-22.0,1.0,3a
2019-07-15_122152:100,-0.49468999999999996,0.019318000000000002,-0.054901,0.010771,0.002055,-0.0078049999999999994,-37.0,-22.0,1.0,3a
2019-07-15_122152:120,-0.49975600000000003,0.020844,-0.051330999999999995,0.00955,0.0041,-0.005425,-37.0,-22.0,1.0,3a
2019-07-15_122152:140,-0.49468999999999996,0.020844,-0.05438200000000001,0.007963,0.004954999999999999,-0.004448,-37.0,-22.0,0.56,3a
2019-07-15_122152:160,-0.47332799999999997,0.020325,-0.062012,0.006498,0.00352,-0.004052,-37.0,-22.0,0.56,3a
2019-07-15_122152:180,-0.484009,0.017273,-0.066071,0.005033,0.00056,-0.0033799999999999998,-35.869999,-22.68,-0.5,3a
2019-07-15_122152:200,-0.489594,0.012177,-0.065063,0.004331000000000001,-0.0018510000000000002,-0.002709,-35.869999,-22.68,-0.5,3a
2019-07-15_122152:220,-0.49468999999999996,0.013702,-0.063019,0.003843,-0.002888,-0.0017929999999999999,-35.869999,-22.68,-0.5,3a
2019-07-15_122152:240,-0.501282,0.012695,-0.067108,0.002867,-0.002187,-0.0023120000000000003,-37.75,-22.370001000000002,-0.87,3a
2019-07-15_122152:260,-0.503845,0.014221000000000001,-0.068634,0.0022559999999999998,-0.001118,-0.003563,-37.75,-22.370001000000002,-0.87,3a
2019-07-15_122152:280,-0.49316400000000005,0.012177,-0.071686,0.002317,-0.000661,-0.0032890000000000003,-36.560001,-22.68,-0.87,3a
2019-07-15_122152:300,-0.490112,0.010162000000000001,-0.075745,0.0022559999999999998,-0.001393,-0.0023120000000000003,-36.560001,-22.68,-0.87,3a
2019-07-15_122152:320,-0.48754899999999995,0.008636,-0.076263,0.002195,-0.001179,0.000831,-36.560001,-22.68,-0.87,3a
2019-07-15_122152:340,-0.48858599999999996,0.005065999999999999,-0.081848,0.002012,-0.001576,0.004219,-36.25,-22.370001000000002,-0.18,3a
2019-07-15_122152:360,-0.48196400000000006,0.000488,-0.087952,0.002378,-0.003041,0.005836,-36.25,-22.370001000000002,-0.18,3a
2019-07-15_122152:380,-0.485016,0.0,-0.09149199999999999,0.002653,-0.0054210000000000005,0.006476999999999999,-35.869999,-22.370001000000002,-0.18,3a
2019-07-15_122152:400,-0.489075,-0.002014,-0.092529,0.003141,-0.006886,0.005836,-35.869999,-22.370001000000002,-0.18,3a
2019-07-15_122152:420,-0.49722299999999997,-0.0030210000000000002,-0.090485,0.002989,-0.006764,0.004615,-35.869999,-22.370001000000002,-0.18,3a
2019-07-15_122152:440,-0.501282,-0.0030210000000000002,-0.089478,0.003141,-0.0052380000000000005,0.0043100000000000005,-35.869999,-22.370001000000002,-1.25,3a
2019-07-15_122152:460,-0.495697,-0.0030210000000000002,-0.085388,0.003141,-0.0037119999999999996,0.002449,-35.869999,-22.370001000000002,-1.25,3a
2019-07-15_122152:480,-0.49365200000000004,0.000488,-0.088959,0.003385,-0.003682,0.00196,-36.560001,-22.370001000000002,-1.25,3a
2019-07-15_122152:500,-0.48706099999999997,0.0035399999999999997,-0.095062,0.003935,-0.006551,0.002388,-36.560001,-22.370001000000002,-1.25,3a
2019-07-15_122152:520,-0.49517799999999995,0.009644,-0.09301799999999999,0.003843,-0.008595,0.003639,-36.560001,-22.370001000000002,-1.25,3a
2019-07-15_122152:540,-0.502319,0.014740000000000001,-0.092529,0.0035380000000000003,-0.008595,0.004158,-36.25,-22.0,-3.25,3a
2019-07-15_122152:560,-0.518066,0.017792,-0.08996599999999999,0.002317,-0.004414,0.003975,-36.25,-22.0,-3.25,3a
2019-07-15_122152:580,-0.51297,0.021851,-0.09301799999999999,0.002073,-0.002644,0.003761,-36.560001,-22.68,-1.25,3a
2019-07-15_122152:600,-0.49316400000000005,0.018799,-0.09149199999999999,0.00045599999999999997,-0.00011100000000000001,0.003975,-36.560001,-22.68,-1.25,3a
2019-07-15_122152:620,-0.482483,0.016266,-0.097595,-0.000582,-0.001454,0.0026320000000000002,-36.560001,-22.68,-1.25,3a
2019-07-15_122152:640,-0.481476,0.014740000000000001,-0.095062,-0.0009789999999999998,-0.0024920000000000003,0.00251,-37.369999,-21.18,-2.5,3a
2019-07-15_122152:660,-0.491638,0.009644,-0.096069,-0.0015890000000000001,-0.002644,0.001258,-37.369999,-21.18,-2.5,3a
2019-07-15_122152:680,-0.489594,0.009125,-0.097107,-0.001772,-0.002156,0.000465,-37.369999,-22.0,-2.5,3a
2019-07-15_122152:700,-0.49468999999999996,0.008636,-0.105225,-0.001986,-0.0034990000000000004,-0.000328,-37.369999,-22.0,-2.5,3a
2019-07-15_122152:720,-0.49316400000000005,0.004547,-0.108795,-0.000796,-0.006093,-0.002587,-37.369999,-22.0,-2.5,3a
2019-07-15_122152:740,-0.495697,0.010651,-0.108276,0.000151,-0.006428,-0.00396,-36.560001,-21.559998999999998,-4.0,3a
2019-07-15_122152:760,-0.496704,0.010162000000000001,-0.103699,0.003507,-0.0024920000000000003,-0.0066760000000000005,-36.560001,-21.559998999999998,-4.0,3a
2019-07-15_122152:780,-0.494171,0.014221000000000001,-0.100159,0.004301,-0.00044699999999999997,-0.007164,-36.25,-21.18,-3.25,3a
2019-07-15_122152:800,-0.478912,0.014740000000000001,-0.09301799999999999,0.005796,0.004161,-0.004448,-36.25,-21.18,-3.25,3a
2019-07-15_122152:820,-0.47079499999999996,0.017792,-0.08743300000000001,0.005918,0.004619,-0.002648,-36.25,-21.18,-3.25,3a
2019-07-15_122152:840,-0.46670500000000004,0.016753999999999998,-0.08590700000000001,0.005857,0.004649,-0.00277,-37.0,-22.370001000000002,-4.0,3a
2019-07-15_122152:860,-0.46926899999999994,0.020325,-0.078796,0.005979,0.004161,-0.005577,-37.0,-22.370001000000002,-4.0,3a
2019-07-15_122152:880,-0.484497,0.023375999999999997,-0.078796,0.006193,0.003978,-0.007347,-37.0,-22.370001000000002,-3.68,3a
2019-07-15_122152:900,-0.477905,0.025908999999999998,-0.086914,0.006651000000000001,-0.0005690000000000001,-0.008629000000000001,-37.0,-22.370001000000002,-3.68,3a
2019-07-15_122152:920,-0.475372,0.029480000000000003,-0.10116599999999999,0.007109000000000001,-0.0074659999999999995,-0.007958,-37.0,-22.370001000000002,-3.68,3a
2019-07-15_122152:940,-0.48654200000000003,0.031494,-0.108276,0.007047,-0.008595,-0.0075,-36.25,-23.0,-2.87,3a
2019-07-15_122152:960,-0.501282,0.032013,-0.112854,0.006651000000000001,-0.00829,-0.003319,-36.25,-23.0,-2.87,3a
2019-07-15_122152:980,-0.506378,0.031006,-0.11438,0.006314999999999999,-0.0074659999999999995,-0.0017629999999999998,-35.5,-22.370001000000002,-2.87,3a
2019-07-15_122153:000,-0.495697,0.031494,-0.117432,0.004301,-0.003682,0.0043100000000000005,-35.5,-22.370001000000002,-2.87,3a
2019-07-15_122153:020,-0.492645,0.027954000000000003,-0.11233499999999999,0.002134,-0.001912,0.0084,-35.5,-22.370001000000002,-2.87,3a
2019-07-15_122153:040,-0.478912,0.022369,-0.110321,0.000944,-0.001057,0.009346,-35.5,-22.370001000000002,-4.5,3a
2019-07-15_122153:060,-0.467224,0.018799,-0.108795,-0.001925,-0.003041,0.010139,-35.5,-22.370001000000002,-4.5,3a
2019-07-15_122153:080,-0.45654300000000003,0.010162000000000001,-0.116425,-0.002382,-0.00475,0.009742,-35.5,-22.370001000000002,-4.5,3a
2019-07-15_122153:100,-0.46670500000000004,0.0035399999999999997,-0.12558,-0.003176,-0.010731000000000001,0.006019,-36.560001,-22.68,-4.5,3a
2019-07-15_122153:120,-0.488068,-0.001007,-0.131653,-0.002779,-0.011678000000000001,0.004036,-36.560001,-22.68,-4.5,3a
2019-07-15_122153:140,-0.503326,-0.0025329999999999997,-0.132172,-0.002657,-0.010854,0.003486,-36.25,-22.0,-5.68,3a
2019-07-15_122153:160,-0.489594,-0.004059,-0.134216,-0.0017109999999999998,-0.006428,0.003761,-36.25,-22.0,-5.68,3a
2019-07-15_122153:180,-0.488068,-0.002014,-0.13623,-0.0014060000000000001,-0.005543,0.0043100000000000005,-36.25,-21.559998999999998,-6.75,3a
2019-07-15_122153:200,-0.477905,-0.001495,-0.131165,-0.0021079999999999996,-0.004414,0.005439,-36.25,-21.559998999999998,-6.75,3a
2019-07-15_122153:220,-0.47180200000000005,-0.0030210000000000002,-0.127594,-0.003573,-0.005482,0.005561,-36.25,-21.559998999999998,-6.75,3a
2019-07-15_122153:240,-0.46875,-0.0030210000000000002,-0.12558,-0.0036950000000000004,-0.006551,0.005012,-36.25,-22.68,-6.37,3a
2019-07-15_122153:260,-0.474854,-0.006592,-0.127594,-0.004091,-0.009145,0.001045,-36.25,-22.68,-6.37,3a
2019-07-15_122153:280,-0.48706099999999997,-0.008636,-0.128113,-0.0037560000000000002,-0.009022,-0.00023700000000000001,-36.25,-22.68,-6.37,3a
2019-07-15_122153:300,-0.49365200000000004,-0.009644,-0.13269,-0.0025960000000000002,-0.006490000000000001,-0.002495,-36.560001,-22.0,-6.37,3a
2019-07-15_122153:320,-0.49468999999999996,-0.008636,-0.13623,-0.001925,-0.005177,-0.002892,-36.560001,-22.0,-6.37,3a
2019-07-15_122153:340,-0.49722299999999997,-0.004059,-0.139801,-0.0006730000000000001,-0.0024920000000000003,-0.003045,-36.560001,-20.870001000000002,-6.0,3a
2019-07-15_122153:360,-0.49823,-0.001495,-0.139282,0.00048600000000000005,0.00056,-0.003045,-36.560001,-20.870001000000002,-6.0,3a
2019-07-15_122153:380,-0.492126,0.001007,-0.137756,0.001188,0.00352,-0.0032890000000000003,-35.869999,-21.559998999999998,-7.18,3a
2019-07-15_122153:400,-0.48654200000000003,0.001007,-0.135742,0.001402,0.005504,-0.004113,-35.869999,-21.559998999999998,-7.18,3a
2019-07-15_122153:420,-0.48196400000000006,0.001495,-0.129639,0.0016460000000000001,0.006145,-0.004753,-35.869999,-21.559998999999998,-7.18,3a
2019-07-15_122153:440,-0.475861,0.0,-0.127594,0.002134,0.005961999999999999,-0.006096,-35.869999,-21.559998999999998,-7.18,3a
2019-07-15_122153:460,-0.48196400000000006,-0.001007,-0.122528,0.002989,0.004954999999999999,-0.007347,-35.869999,-21.559998999999998,-7.18,3a
2019-07-15_122153:480,-0.475861,-0.001007,-0.119965,0.004301,0.004375,-0.008202,-35.869999,-21.559998999999998,-7.18,3a
2019-07-15_122153:500,-0.47280900000000003,-0.002014,-0.117432,0.005765999999999999,0.003246,-0.008294,-36.560001,-22.0,-6.37,3a
2019-07-15_122153:520,-0.47280900000000003,0.001007,-0.116425,0.007047,0.001353,-0.007744,-36.560001,-22.0,-6.37,3a
2019-07-15_122153:540,-0.489075,0.0035399999999999997,-0.121002,0.007963,-0.0005690000000000001,-0.0066760000000000005,-35.060001,-22.370001000000002,-6.37,3a
2019-07-15_122153:560,-0.49111899999999997,0.0055850000000000006,-0.12301600000000001,0.008298999999999999,-0.0007830000000000001,-0.005181,-35.060001,-22.370001000000002,-6.37,3a
2019-07-15_122153:580,-0.49111899999999997,0.0030210000000000002,-0.128601,0.008298999999999999,-0.000264,-0.0034409999999999996,-35.060001,-22.370001000000002,-6.37,3a
2019-07-15_122153:600,-0.48706099999999997,0.0030210000000000002,-0.130646,0.008116,0.000468,-0.002373,-35.5,-22.370001000000002,-6.75,3a
2019-07-15_122153:620,-0.486023,0.002014,-0.131653,0.007902,0.000499,-0.0017629999999999998,-35.5,-22.370001000000002,-6.75,3a
2019-07-15_122153:640,-0.48095699999999997,0.000488,-0.133698,0.0075049999999999995,0.000407,-0.0019149999999999998,-35.5,-22.0,-8.37,3a
2019-07-15_122153:660,-0.47943100000000005,0.0,-0.134705,0.006986,0.000285,-0.0019760000000000003,-35.5,-22.0,-8.37,3a
2019-07-15_122153:680,-0.47995,-0.001495,-0.137268,0.00604,0.00056,-0.0021899999999999997,-35.5,-22.0,-8.37,3a
2019-07-15_122153:700,-0.481476,-0.0030210000000000002,-0.14032,0.005064,0.000743,-0.002709,-35.869999,-22.0,-8.0,3a
2019-07-15_122153:720,-0.48095699999999997,-0.006072999999999999,-0.142334,0.004454,0.000407,-0.0032890000000000003,-35.869999,-22.0,-8.0,3a
2019-07-15_122153:740,-0.48553500000000005,-0.007111,-0.144897,0.0041789999999999996,0.000499,-0.004448,-34.75,-22.370001000000002,-7.56,3a
2019-07-15_122153:760,-0.490112,-0.007111,-0.137756,0.004331000000000001,0.0012619999999999999,-0.005944,-34.75,-22.370001000000002,-7.56,3a
2019-07-15_122153:780,-0.495697,-0.0055850000000000006,-0.139801,0.005064,0.003124,-0.0057,-34.75,-22.370001000000002,-7.56,3a
2019-07-15_122153:800,-0.486023,-0.005065999999999999,-0.13623,0.005765999999999999,0.005229,-0.004448,-35.060001,-22.370001000000002,-7.18,3a
2019-07-15_122153:820,-0.47280900000000003,-0.004059,-0.134705,0.006376,0.005626,-0.003319,-35.060001,-22.370001000000002,-7.18,3a
2019-07-15_122153:840,-0.46926899999999994,-0.004059,-0.135223,0.00717,0.005016,-0.002251,-35.869999,-22.370001000000002,-8.75,3a
2019-07-15_122153:860,-0.46469099999999997,-0.004547,-0.132172,0.007902,0.003764,-0.003624,-35.869999,-22.370001000000002,-8.75,3a
2019-07-15_122153:880,-0.467743,-0.002014,-0.131165,0.008512,0.002513,-0.003899,-35.869999,-22.370001000000002,-8.75,3a
2019-07-15_122153:900,-0.46823100000000006,-0.0025329999999999997,-0.131653,0.009214,0.0012619999999999999,-0.002892,-34.369999,-22.370001000000002,-8.75,3a
2019-07-15_122153:920,-0.46926899999999994,-0.000488,-0.133698,0.009428,-0.00011100000000000001,-0.002983,-34.369999,-22.370001000000002,-8.75,3a
2019-07-15_122153:940,-0.470276,0.0,-0.139282,0.009825,-0.0009050000000000001,-0.004753,-35.060001,-22.0,-8.75,3a
2019-07-15_122153:960,-0.472321,0.002014,-0.139282,0.009825,-0.0018510000000000002,-0.006554000000000001,-35.060001,-22.0,-8.75,3a
2019-07-15_122153:980,-0.47332799999999997,0.0035399999999999997,-0.143372,0.009977,-0.002827,-0.005974,-35.060001,-22.0,-8.75,3a
2019-07-15_122154:000,-0.47332799999999997,0.001495,-0.143372,0.009977,-0.003834,-0.005822,-35.060001,-22.68,-9.18,3a
2019-07-15_122154:020,-0.477386,0.007111,-0.142853,0.010374,-0.005147,-0.0054859999999999996,-35.060001,-22.68,-9.18,3a
2019-07-15_122154:040,-0.477905,0.009125,-0.142334,0.010038,-0.00536,-0.004631000000000001,-34.369999,-22.68,-9.18,3a
2019-07-15_122154:060,-0.48043800000000003,0.013213999999999998,-0.140808,0.008848,-0.005482,-0.0034409999999999996,-34.369999,-22.68,-9.18,3a
2019-07-15_122154:080,-0.48095699999999997,0.013213999999999998,-0.144379,0.007566,-0.005177,-0.0017629999999999998,-34.369999,-22.68,-9.18,3a
2019-07-15_122154:100,-0.48300200000000004,0.017273,-0.145905,0.005796,-0.005086,-0.00011499999999999999,-34.0,-23.0,-9.18,3a
2019-07-15_122154:120,-0.486023,0.016266,-0.145386,0.0034460000000000003,-0.004567,0.001564,-34.0,-23.0,-9.18,3a
2019-07-15_122154:140,-0.48706099999999997,0.013213999999999998,-0.145386,0.001188,-0.003896,0.003425,-34.369999,-23.370001000000002,-11.87,3a
2019-07-15_122154:160,-0.489594,0.009125,-0.145905,-0.001314,-0.00298,0.004829,-34.369999,-23.370001000000002,-11.87,3a
2019-07-15_122154:180,-0.48043800000000003,0.005065999999999999,-0.144897,-0.003939,-0.002248,0.005958,-34.369999,-23.370001000000002,-11.87,3a
2019-07-15_122154:200,-0.478912,0.001007,-0.146423,-0.005343,-0.002522,0.006019,-34.0,-22.68,-10.68,3a
2019-07-15_122154:220,-0.48095699999999997,0.000488,-0.14743,-0.0064719999999999995,-0.002431,0.005226,-34.0,-22.68,-10.68,3a
2019-07-15_122154:240,-0.482483,-0.002014,-0.14743,-0.007204,-0.00179,0.0055,-34.369999,-22.370001000000002,-11.5,3a
2019-07-15_122154:260,-0.47995,-0.004547,-0.148956,-0.007601,-0.0009660000000000001,0.00489,-34.369999,-22.370001000000002,-11.5,3a
2019-07-15_122154:280,-0.47842399999999996,-0.0030210000000000002,-0.149475,-0.007326000000000001,-0.00063,0.003913000000000001,-34.369999,-22.370001000000002,-11.5,3a
2019-07-15_122154:300,-0.477905,-0.002014,-0.147949,-0.0066549999999999995,-0.0009050000000000001,0.003517,-34.369999,-22.370001000000002,-10.37,3a
2019-07-15_122154:320,-0.476379,0.0,-0.146423,-0.0058,-0.001057,0.0033640000000000002,-34.369999,-22.370001000000002,-10.37,3a
2019-07-15_122154:340,-0.478912,0.0030210000000000002,-0.144897,-0.005007,-0.000386,0.003425,-34.369999,-22.0,-10.68,3a
2019-07-15_122154:360,-0.476379,0.004059,-0.142334,-0.004671,-5e-05,0.003822,-34.369999,-22.0,-10.68,3a
2019-07-15_122154:380,-0.46926899999999994,0.006592,-0.143372,-0.004427,-5e-05,0.004158,-34.369999,-22.0,-10.68,3a
2019-07-15_122154:400,-0.466217,0.008636,-0.142334,-0.004671,-0.0008439999999999999,0.004432,-34.75,-22.370001000000002,-11.5,3a
2019-07-15_122154:420,-0.47280900000000003,0.008636,-0.14386,-0.004671,-0.001637,0.005226,-34.75,-22.370001000000002,-11.5,3a
2019-07-15_122154:440,-0.477905,0.009125,-0.145905,-0.005343,-0.0018510000000000002,0.005684000000000001,-34.75,-22.370001000000002,-11.5,3a
2019-07-15_122154:460,-0.48043800000000003,0.006072999999999999,-0.146912,-0.006533,-0.001637,0.005287,-34.75,-22.370001000000002,-11.5,3a
2019-07-15_122154:480,-0.477905,0.0035399999999999997,-0.150482,-0.007723000000000001,-0.001698,0.00489,-34.75,-22.370001000000002,-11.5,3a
2019-07-15_122154:500,-0.488068,0.0,-0.154022,-0.008333,-0.00124,0.004493,-34.75,-22.25,-12.25,3a
2019-07-15_122154:520,-0.48349,-0.000488,-0.148956,-0.008974,-0.00044699999999999997,0.003761,-34.75,-22.25,-12.25,3a
2019-07-15_122154:540,-0.48553500000000005,-0.002014,-0.152008,-0.009004999999999999,0.000468,0.003151,-34.75,-21.559998999999998,-11.06,3a
2019-07-15_122154:560,-0.484009,-0.004059,-0.149963,-0.009004999999999999,0.001353,0.002449,-34.75,-21.559998999999998,-11.06,3a
2019-07-15_122154:580,-0.478912,-0.005065999999999999,-0.151489,-0.008454999999999999,0.0019030000000000002,0.00196,-34.75,-21.559998999999998,-11.06,3a
2019-07-15_122154:600,-0.474854,-0.0035399999999999997,-0.152008,-0.007876000000000001,0.0024519999999999998,0.001716,-34.75,-21.559998999999998,-10.68,3a
2019-07-15_122154:620,-0.472321,-0.002014,-0.151001,-0.007448000000000001,0.003124,0.00196,-34.75,-21.559998999999998,-10.68,3a
2019-07-15_122154:640,-0.476379,-0.001495,-0.151001,-0.007051999999999999,0.0041,0.002052,-35.869999,-22.0,-11.5,3a
2019-07-15_122154:660,-0.469757,-0.000488,-0.149963,-0.006869,0.004222,0.001503,-35.869999,-22.0,-11.5,3a
2019-07-15_122154:680,-0.47180200000000005,0.0,-0.152008,-0.006991,0.003917,0.001442,-35.869999,-22.0,-11.5,3a
2019-07-15_122154:700,-0.47433500000000006,0.001007,-0.152008,-0.007387,0.0034289999999999998,0.001442,-35.060001,-22.0,-10.68,3a
2019-07-15_122154:720,-0.478912,0.0,-0.151489,-0.007784,0.0035810000000000004,0.0008619999999999999,-35.060001,-22.0,-10.68,3a
2019-07-15_122154:740,-0.48654200000000003,0.0030210000000000002,-0.151001,-0.008181,0.0042829999999999995,0.000923,-34.75,-22.68,-10.37,3a
2019-07-15_122154:760,-0.48095699999999997,0.0030210000000000002,-0.148956,-0.008974,0.005565,0.001716,-34.75,-22.68,-10.37,3a
2019-07-15_122154:780,-0.47995,0.0030210000000000002,-0.150482,-0.009798000000000001,0.006418999999999999,0.002113,-34.75,-22.68,-10.37,3a
2019-07-15_122154:800,-0.472321,0.0035399999999999997,-0.148956,-0.01047,0.006418999999999999,0.002235,-34.75,-22.0,-10.68,3a
2019-07-15_122154:820,-0.47180200000000005,0.0035399999999999997,-0.149475,-0.011262999999999999,0.005351,0.003151,-34.75,-22.0,-10.68,3a
2019-07-15_122154:840,-0.46670500000000004,0.001007,-0.145905,-0.011904000000000001,0.003246,0.004493,-34.75,-22.370001000000002,-10.0,3a
2019-07-15_122154:860,-0.46926899999999994,-0.000488,-0.142853,-0.012240000000000001,0.0009570000000000001,0.004615,-34.75,-22.370001000000002,-10.0,3a
2019-07-15_122154:880,-0.47689799999999993,-0.0025329999999999997,-0.144379,-0.012362,-0.000233,0.004554,-34.75,-22.370001000000002,-10.0,3a
2019-07-15_122154:900,-0.48754899999999995,-0.004547,-0.142334,-0.012057,-0.000722,0.004036,-35.869999,-21.559998999999998,-9.5,3a
2019-07-15_122154:920,-0.477905,-0.007111,-0.140808,-0.011507,0.000621,0.003761,-35.869999,-21.559998999999998,-9.5,3a
2019-07-15_122154:940,-0.47842399999999996,-0.007599,-0.141846,-0.01047,0.0009570000000000001,0.003639,-35.5,-21.18,-10.0,3a
2019-07-15_122154:960,-0.484009,-0.005065999999999999,-0.139282,-0.009585,0.0017809999999999998,0.003486,-35.5,-21.18,-10.0,3a
2019-07-15_122154:980,-0.48654200000000003,-0.0055850000000000006,-0.138275,-0.008974,0.003124,0.003151,-35.5,-21.18,-10.0,3a
2019-07-15_122155:000,-0.463654,-0.001495,-0.142853,-0.00873,0.003124,0.002754,-34.75,-22.0,-8.37,3a
2019-07-15_122155:020,-0.46060200000000007,-0.000488,-0.147949,-0.009127,0.0010789999999999999,0.002754,-34.75,-22.0,-8.37,3a
2019-07-15_122155:040,-0.47943100000000005,-0.008118,-0.145386,-0.009585,-0.00063,0.003151,-36.25,-22.0,-10.37,3a
2019-07-15_122155:060,-0.494171,-0.008636,-0.143372,-0.009463,-0.000722,0.003578,-36.25,-22.0,-10.37,3a
2019-07-15_122155:080,-0.492645,-0.0055850000000000006,-0.145386,-0.008669,0.0024519999999999998,0.003975,-36.25,-22.0,-10.37,3a
2019-07-15_122155:100,-0.478912,-0.0055850000000000006,-0.145386,-0.008669,0.004771,0.003761,-35.060001,-21.559998999999998,-8.37,3a
2019-07-15_122155:120,-0.47079499999999996,-0.004059,-0.144897,-0.008791,0.004436,0.004219,-35.060001,-21.559998999999998,-8.37,3a
2019-07-15_122155:140,-0.46469099999999997,-0.004547,-0.145386,-0.008974,0.002757,0.004768,-35.5,-21.559998999999998,-8.75,3a
2019-07-15_122155:160,-0.47332799999999997,-0.000488,-0.142334,-0.009585,0.0012619999999999999,0.0043100000000000005,-35.5,-21.559998999999998,-8.75,3a
2019-07-15_122155:180,-0.489075,-0.0035399999999999997,-0.144897,-0.010775,0.000865,0.0037,-35.5,-21.559998999999998,-8.75,3a
2019-07-15_122155:200,-0.47689799999999993,-0.006072999999999999,-0.148956,-0.012118,7.2e-05,0.002693,-35.5,-21.559998999999998,-8.0,3a
2019-07-15_122155:220,-0.46823100000000006,-0.007111,-0.151001,-0.012758,-0.001057,0.0018989999999999999,-35.5,-21.559998999999998,-8.0,3a
2019-07-15_122155:240,-0.46875,-0.006072999999999999,-0.156067,-0.013430000000000001,-0.001759,0.001503,-35.869999,-21.559998999999998,-8.75,3a
2019-07-15_122155:260,-0.477386,-0.009125,-0.150482,-0.013827,-0.002034,0.001381,-35.869999,-21.559998999999998,-8.75,3a
2019-07-15_122155:280,-0.475372,-0.011169,-0.159119,-0.013491,-0.0018510000000000002,0.001716,-35.869999,-21.559998999999998,-8.75,3a
2019-07-15_122155:300,-0.48095699999999997,-0.012695,-0.156586,-0.012758,-0.001302,0.002357,-34.75,-21.18,-9.5,3a
2019-07-15_122155:320,-0.47943100000000005,-0.007599,-0.156586,-0.011568,-0.00044699999999999997,0.003151,-34.75,-21.18,-9.5,3a
2019-07-15_122155:340,-0.46316499999999994,-0.007599,-0.163177,-0.010865999999999999,0.000285,0.00428,-35.869999,-21.18,-8.75,3a
2019-07-15_122155:360,-0.478912,-0.007111,-0.158112,-0.010317,-0.0008439999999999999,0.004829,-35.869999,-21.18,-8.75,3a
2019-07-15_122155:380,-0.48043800000000003,-0.008118,-0.156067,-0.009859,-0.0005690000000000001,0.004646,-35.869999,-21.18,-8.75,3a
2019-07-15_122155:400,-0.485016,-0.006592,-0.154541,-0.009585,0.00114,0.003913000000000001,-36.25,-22.0,-9.18,3a
2019-07-15_122155:420,-0.486023,-0.0055850000000000006,-0.151489,-0.009463,0.003093,0.0030280000000000003,-36.25,-22.0,-9.18,3a
2019-07-15_122155:440,-0.478912,-0.0055850000000000006,-0.14743,-0.009249,0.004497,0.003151,-35.5,-21.559998999999998,-7.56,3a
2019-07-15_122155:460,-0.470276,-0.006072999999999999,-0.146912,-0.008578,0.00471,0.003242,-35.5,-21.559998999999998,-7.56,3a
2019-07-15_122155:480,-0.476379,-0.007599,-0.147949,-0.007937,0.004161,0.002967,-35.5,-21.559998999999998,-7.56,3a
2019-07-15_122155:500,-0.48043800000000003,-0.009644,-0.148956,-0.007081999999999999,0.002849,0.0021739999999999997,-36.25,-21.18,-8.37,3a
2019-07-15_122155:520,-0.477386,-0.011169,-0.147949,-0.005953,0.0029100000000000003,0.000831,-36.25,-21.18,-8.37,3a
2019-07-15_122155:540,-0.47943100000000005,-0.010651,-0.145905,-0.004824,0.002849,-0.000664,-35.869999,-21.18,-8.37,3a
2019-07-15_122155:560,-0.484009,-0.008636,-0.141846,-0.003573,0.002757,-0.002373,-35.869999,-21.18,-8.37,3a
2019-07-15_122155:580,-0.477905,-0.009125,-0.14386,-0.002535,0.003368,-0.004235,-35.869999,-21.18,-8.37,3a
2019-07-15_122155:600,-0.481476,-0.0055850000000000006,-0.14386,-0.001314,0.003124,-0.005639,-35.869999,-21.18,-8.0,3a
2019-07-15_122155:620,-0.47995,-0.0035399999999999997,-0.143372,-0.000399,0.003246,-0.006035,-35.869999,-21.18,-8.0,3a
2019-07-15_122155:640,-0.476379,-0.002014,-0.141846,0.000334,0.0034289999999999998,-0.0057,-36.560001,-20.870001000000002,-8.0,3a
2019-07-15_122155:660,-0.475861,0.0,-0.137268,0.000791,0.0029100000000000003,-0.004448,-36.560001,-20.870001000000002,-8.0,3a
2019-07-15_122155:680,-0.47280900000000003,0.000488,-0.140808,0.001066,0.003124,-0.004113,-36.560001,-20.870001000000002,-8.0,3a
2019-07-15_122155:700,-0.46926899999999994,0.0030210000000000002,-0.142853,0.000944,0.002757,-0.00457,-36.25,-20.870001000000002,-8.37,3a
2019-07-15_122155:720,-0.465179,0.0035399999999999997,-0.144897,0.000791,0.001598,-0.003655,-36.25,-20.870001000000002,-8.37,3a
2019-07-15_122155:740,-0.462646,0.001495,-0.144897,0.000151,0.000468,-0.002098,-35.869999,-21.18,-7.56,3a
2019-07-15_122155:760,-0.472321,0.004059,-0.145905,-0.000246,-0.00063,-0.0011220000000000002,-35.869999,-21.18,-7.56,3a
2019-07-15_122155:780,-0.472321,0.004547,-0.149963,-0.000918,-0.000661,-0.000328,-35.869999,-21.18,-7.56,3a
2019-07-15_122155:800,-0.477905,0.001495,-0.153534,-0.00165,-0.0009050000000000001,0.000648,-35.5,-22.0,-9.5,3a
2019-07-15_122155:820,-0.482483,0.0,-0.15506,-0.0018030000000000001,-0.000508,0.002052,-35.5,-22.0,-9.5,3a
2019-07-15_122155:840,-0.478912,-0.002014,-0.153015,-0.002169,-0.000386,0.002571,-36.25,-21.559998999999998,-8.37,3a
2019-07-15_122155:860,-0.477905,-0.002014,-0.149963,-0.0022600000000000003,-0.000264,0.0021739999999999997,-36.25,-21.559998999999998,-8.37,3a
2019-07-15_122155:880,-0.481476,-0.0030210000000000002,-0.152008,-0.0031149999999999997,-5e-05,0.001442,-36.25,-21.559998999999998,-8.37,3a
2019-07-15_122155:900,-0.47842399999999996,-0.002014,-0.151001,-0.0033280000000000002,0.000133,0.001167,-35.5,-21.18,-8.75,3a
2019-07-15_122155:920,-0.477905,-0.0035399999999999997,-0.153534,-0.004,0.000743,0.000221,-35.5,-21.18,-8.75,3a
2019-07-15_122155:940,-0.475861,-0.0030210000000000002,-0.154022,-0.004275,0.0009570000000000001,0.000221,-34.0,-21.18,-8.75,3a
2019-07-15_122155:960,-0.472321,-0.004547,-0.152008,-0.004213000000000001,0.000682,7.000000000000001e-06,-34.0,-21.18,-8.75,3a
2019-07-15_122155:980,-0.47180200000000005,-0.0035399999999999997,-0.154541,-0.003817,7.2e-05,-0.000267,-34.0,-21.18,-8.75,3a
2019-07-15_122156:000,-0.476379,-0.004547,-0.15506,-0.003512,-0.000661,-0.000664,-36.25,-21.559998999999998,-9.18,3a
2019-07-15_122156:020,-0.47433500000000006,-0.004059,-0.15506,-0.003176,-0.0009050000000000001,-0.001,-36.25,-21.559998999999998,-9.18,3a
2019-07-15_122156:040,-0.484497,-0.0035399999999999997,-0.155548,-0.002657,-0.000264,-0.000634,-35.869999,-21.559998999999998,-8.75,3a
2019-07-15_122156:060,-0.485016,-0.004547,-0.154541,-0.002779,0.0008039999999999999,-0.001,-35.869999,-21.559998999999998,-8.75,3a
2019-07-15_122156:080,-0.48654200000000003,-0.0030210000000000002,-0.15506,-0.0025960000000000002,0.002239,-0.000908,-35.869999,-21.559998999999998,-8.75,3a
2019-07-15_122156:100,-0.481476,-0.0030210000000000002,-0.153534,-0.002535,0.00352,-0.000908,-35.060001,-21.18,-8.75,3a
2019-07-15_122156:120,-0.47689799999999993,-0.004547,-0.151001,-0.002382,0.003917,-0.000664,-35.060001,-21.18,-8.75,3a
2019-07-15_122156:140,-0.472321,-0.004547,-0.149963,-0.0020469999999999998,0.0035810000000000004,-0.000573,-36.25,-22.0,-8.0,3a
2019-07-15_122156:160,-0.467224,-0.004547,-0.146423,-0.0018030000000000001,0.002849,-0.000389,-36.25,-22.0,-8.0,3a
2019-07-15_122156:180,-0.46469099999999997,-0.004547,-0.146912,-0.001375,0.0019030000000000002,0.000129,-36.25,-22.0,-8.0,3a
2019-07-15_122156:200,-0.47079499999999996,-0.004059,-0.148956,-0.000918,0.000468,0.00016,-36.560001,-22.370001000000002,-8.75,3a
2019-07-15_122156:220,-0.473846,-0.004059,-0.150482,-0.0006730000000000001,7.2e-05,-0.000573,-36.560001,-22.370001000000002,-8.75,3a
2019-07-15_122156:240,-0.47433500000000006,-0.002014,-0.151489,-0.00045999999999999996,1.1e-05,-0.0011220000000000002,-35.869999,-21.559998999999998,-8.75,3a
2019-07-15_122156:260,-0.46823100000000006,-0.001007,-0.153015,-0.000643,0.000407,-0.001519,-35.869999,-21.559998999999998,-8.75,3a
2019-07-15_122156:280,-0.47332799999999997,-0.001007,-0.153015,-0.000918,0.000133,-0.002251,-35.869999,-21.559998999999998,-8.75,3a
2019-07-15_122156:300,-0.470276,0.002014,-0.151489,-0.001192,-0.000172,-0.002892,-34.75,-22.0,-9.5,3a
2019-07-15_122156:320,-0.47280900000000003,0.0030210000000000002,-0.153015,-0.001375,-0.000661,-0.003228,-34.75,-22.0,-9.5,3a
2019-07-15_122156:340,-0.48095699999999997,0.004059,-0.154541,-0.00165,-0.00124,-0.002983,-35.869999,-22.0,-8.75,3a
2019-07-15_122156:360,-0.484497,0.004059,-0.149963,-0.00165,-0.001027,-0.0021899999999999997,-35.869999,-22.0,-8.75,3a
2019-07-15_122156:380,-0.484497,0.004059,-0.149963,-0.002382,0.00022400000000000002,-0.001458,-35.869999,-22.0,-8.75,3a
2019-07-15_122156:400,-0.485016,0.005065999999999999,-0.14843800000000001,-0.002657,0.001415,-0.000512,-35.060001,-22.370001000000002,-9.5,3a
2019-07-15_122156:420,-0.48196400000000006,0.0035399999999999997,-0.145905,-0.002993,0.002177,7.000000000000001e-06,-35.060001,-22.370001000000002,-9.5,3a
2019-07-15_122156:440,-0.477905,0.001007,-0.144897,-0.0032979999999999997,0.001842,6.8e-05,-35.869999,-21.559998999999998,-9.18,3a
2019-07-15_122156:460,-0.472321,0.0,-0.140808,-0.003237,0.001292,0.00028199999999999997,-35.869999,-21.559998999999998,-9.18,3a
2019-07-15_122156:480,-0.467743,-0.000488,-0.139801,-0.0029010000000000004,0.000407,0.000831,-35.869999,-21.559998999999998,-9.18,3a
2019-07-15_122156:500,-0.460114,-0.002014,-0.140808,-0.0025050000000000003,-0.0008439999999999999,0.001503,-34.75,-22.0,-10.68,3a
2019-07-15_122156:520,-0.461639,0.000488,-0.142334,-0.0025960000000000002,-0.0027660000000000002,0.00251,-34.75,-22.0,-10.68,3a
2019-07-15_122156:540,-0.472321,0.002014,-0.145905,-0.0025960000000000002,-0.00417,0.0038829999999999997,-35.060001,-21.559998999999998,-8.37,3a
2019-07-15_122156:560,-0.47433500000000006,0.001007,-0.151001,-0.0033280000000000002,-0.004445,0.0033640000000000002,-35.060001,-21.559998999999998,-8.37,3a
2019-07-15_122156:580,-0.474854,0.001495,-0.156586,-0.0034509999999999996,-0.004353,0.002113,-35.060001,-21.559998999999998,-8.37,3a
2019-07-15_122156:600,-0.469757,0.0035399999999999997,-0.159119,-0.003817,-0.004353,0.000648,-34.369999,-21.559998999999998,-9.18,3a
2019-07-15_122156:620,-0.47332799999999997,0.002014,-0.162689,-0.004488000000000001,-0.0040479999999999995,0.00016,-34.369999,-21.559998999999998,-9.18,3a
2019-07-15_122156:640,-0.47943100000000005,0.0030210000000000002,-0.163177,-0.005007,-0.004445,0.000709,-35.5,-22.0,-10.37,3a
2019-07-15_122156:660,-0.48095699999999997,0.0,-0.166229,-0.005007,-0.0039570000000000004,0.001258,-35.5,-22.0,-10.37,3a
2019-07-15_122156:680,-0.48043800000000003,0.000488,-0.166229,-0.005007,-0.0027660000000000002,0.001045,-35.5,-22.0,-10.37,3a
2019-07-15_122156:700,-0.477905,-0.001007,-0.165222,-0.0048850000000000005,-0.001515,0.000923,-35.060001,-21.559998999999998,-8.75,3a
2019-07-15_122156:720,-0.475372,0.0,-0.163696,-0.004946,-0.00044699999999999997,0.001106,-35.060001,-21.559998999999998,-8.75,3a
2019-07-15_122156:740,-0.47433500000000006,-0.000488,-0.163696,-0.004732,0.000133,0.001442,-35.5,-21.18,-10.37,3a
2019-07-15_122156:760,-0.477905,-0.0035399999999999997,-0.161163,-0.004488000000000001,0.00114,0.001258,-35.5,-21.18,-10.37,3a
2019-07-15_122156:780,-0.47180200000000005,-0.001007,-0.160126,-0.004,0.001964,0.0008619999999999999,-35.5,-21.18,-10.37,3a
2019-07-15_122156:800,-0.46823100000000006,-0.002014,-0.160126,-0.003817,0.002116,0.000221,-35.060001,-21.559998999999998,-10.0,3a
2019-07-15_122156:820,-0.461121,-0.001007,-0.160126,-0.003878,0.001537,0.000221,-35.060001,-21.559998999999998,-10.0,3a
2019-07-15_122156:840,-0.46823100000000006,-0.001495,-0.162689,-0.003817,0.000346,0.000587,-35.5,-22.0,-11.06,3a
2019-07-15_122156:860,-0.470276,-0.001007,-0.164215,-0.003664,0.000133,0.00016,-35.5,-22.0,-11.06,3a
2019-07-15_122156:880,-0.46823100000000006,-0.001495,-0.165222,-0.004091,-0.0005690000000000001,-0.000328,-35.5,-22.0,-11.06,3a
2019-07-15_122156:900,-0.467224,-0.001007,-0.166748,-0.004,-0.001179,7.000000000000001e-06,-35.060001,-21.559998999999998,-10.0,3a
2019-07-15_122156:920,-0.470276,-0.001007,-0.167755,-0.003817,-0.001973,0.000221,-35.060001,-21.559998999999998,-10.0,3a
2019-07-15_122156:940,-0.471283,-0.0025329999999999997,-0.168274,-0.003878,-0.002156,-0.000176,-35.5,-21.18,-10.0,3a
2019-07-15_122156:960,-0.473846,-0.0025329999999999997,-0.167755,-0.0037560000000000002,-0.0018510000000000002,-0.000634,-35.5,-21.18,-10.0,3a
2019-07-15_122156:980,-0.477905,-0.0025329999999999997,-0.167267,-0.0036950000000000004,-0.001698,-0.000267,-35.5,-21.18,-10.0,3a
2019-07-15_122157:000,-0.476379,-0.004547,-0.169281,-0.003512,-0.0005690000000000001,-0.000573,-35.5,-22.0,-10.37,3a
2019-07-15_122157:020,-0.47433500000000006,-0.0030210000000000002,-0.167267,-0.0031149999999999997,0.000621,-0.001183,-35.5,-22.0,-10.37,3a
2019-07-15_122157:040,-0.474854,-0.001495,-0.168793,-0.002779,0.0008039999999999999,-0.001519,-35.060001,-21.559998999999998,-9.5,3a
2019-07-15_122157:060,-0.47280900000000003,-0.002014,-0.166748,-0.002779,0.000743,-0.001458,-35.060001,-21.559998999999998,-9.5,3a
2019-07-15_122157:080,-0.47943100000000005,0.000488,-0.165741,-0.0025960000000000002,0.0014759999999999999,-0.001641,-35.060001,-21.559998999999998,-9.5,3a
2019-07-15_122157:100,-0.477905,0.0,-0.164703,-0.002382,0.0023,-0.0019149999999999998,-35.5,-21.559998999999998,-10.37,3a
2019-07-15_122157:120,-0.47689799999999993,0.001007,-0.164215,-0.002932,0.002849,-0.002709,-35.5,-21.559998999999998,-10.37,3a
2019-07-15_122157:140,-0.46875,0.0030210000000000002,-0.1586,-0.0028399999999999996,0.003246,-0.001519,-35.5,-22.0,-10.37,3a
2019-07-15_122157:160,-0.460114,0.0025329999999999997,-0.153534,-0.002657,0.002849,-0.0008470000000000001,-35.5,-22.0,-10.37,3a
2019-07-15_122157:180,-0.449432,0.0055850000000000006,-0.151489,-0.002932,0.0014759999999999999,-0.000512,-35.5,-22.0,-10.37,3a
2019-07-15_122157:200,-0.445862,0.006072999999999999,-0.153534,-0.00339,-0.001057,0.000587,-34.369999,-22.0,-10.37,3a
2019-07-15_122157:220,-0.446899,0.006072999999999999,-0.159637,-0.004152,-0.004231,0.000343,-34.369999,-22.0,-10.37,3a
2019-07-15_122157:240,-0.459595,0.0035399999999999997,-0.169281,-0.004824,-0.007222,-0.000176,-34.369999,-21.559998999999998,-10.0,3a
2019-07-15_122157:260,-0.47280900000000003,-0.001007,-0.17385899999999999,-0.005404,-0.007558,-0.000725,-34.369999,-21.559998999999998,-10.0,3a
2019-07-15_122157:280,-0.48196400000000006,-0.0025329999999999997,-0.17690999999999998,-0.005526,-0.005574,-0.0008470000000000001,-34.369999,-21.559998999999998,-10.0,3a
2019-07-15_122157:300,-0.475372,-0.004059,-0.181488,-0.005007,-0.003041,-0.000512,-35.060001,-22.0,-10.37,3a
2019-07-15_122157:320,-0.47280900000000003,-0.0030210000000000002,-0.18249500000000002,-0.003939,-0.002095,-0.001458,-35.060001,-22.0,-10.37,3a
2019-07-15_122157:340,-0.475861,-0.002014,-0.184021,-0.0029010000000000004,-0.002431,-0.00216,-35.5,-22.25,-11.5,3a
2019-07-15_122157:360,-0.47332799999999997,-0.001007,-0.17944300000000002,-0.0020469999999999998,-0.002034,-0.001854,-35.5,-22.25,-11.5,3a
2019-07-15_122157:380,-0.46417200000000003,0.001007,-0.180481,-0.001009,-0.001302,-0.0012439999999999999,-35.5,-22.25,-11.5,3a
2019-07-15_122157:400,-0.46060200000000007,0.0035399999999999997,-0.178955,-0.000643,-0.00124,-0.001641,-34.369999,-22.0,-11.06,3a
2019-07-15_122157:420,-0.460114,0.0055850000000000006,-0.178955,-0.000582,-0.001576,-0.0013050000000000002,-34.369999,-22.0,-11.06,3a
2019-07-15_122157:440,-0.47180200000000005,0.005065999999999999,-0.182007,-0.0006730000000000001,-0.001576,-0.0008470000000000001,-35.5,-22.0,-11.06,3a
2019-07-15_122157:460,-0.47689799999999993,0.0035399999999999997,-0.178955,-0.000796,-0.000233,-0.00158,-35.5,-22.0,-11.06,3a
2019-07-15_122157:480,-0.47842399999999996,0.0035399999999999997,-0.181488,-0.000643,0.001415,-0.00277,-35.5,-22.0,-11.06,3a
2019-07-15_122157:500,-0.47280900000000003,0.006592,-0.175903,-0.000521,0.002788,-0.002709,-34.75,-22.25,-10.56,3a
2019-07-15_122157:520,-0.463654,0.006592,-0.17385899999999999,-0.000796,0.003124,-0.00158,-34.75,-22.25,-10.56,3a
2019-07-15_122157:540,-0.466217,0.007111,-0.17385899999999999,-0.000857,0.002849,-0.000267,-35.060001,-22.0,-10.56,3a
2019-07-15_122157:560,-0.471283,0.006592,-0.1698,-0.001192,0.003032,-0.0008470000000000001,-35.060001,-22.0,-10.56,3a
2019-07-15_122157:580,-0.467224,0.010162000000000001,-0.169281,-0.0014060000000000001,0.002788,-0.00158,-35.060001,-22.0,-10.56,3a
2019-07-15_122157:600,-0.463654,0.007599,-0.168793,-0.0015890000000000001,0.002239,-0.0013050000000000002,-34.75,-21.559998999999998,-10.25,3a
2019-07-15_122157:620,-0.46417200000000003,0.009125,-0.169281,-0.0015890000000000001,0.001537,-0.000267,-34.75,-21.559998999999998,-10.25,3a
2019-07-15_122157:640,-0.46670500000000004,0.007111,-0.170807,-0.0018030000000000001,0.0008039999999999999,0.000526,-34.369999,-23.0,-11.06,3a
2019-07-15_122157:660,-0.467743,0.006072999999999999,-0.172333,-0.001864,0.00056,0.000648,-34.369999,-23.0,-11.06,3a
2019-07-15_122157:680,-0.47180200000000005,0.006072999999999999,-0.17690999999999998,-0.002382,0.000499,0.0008619999999999999,-34.369999,-23.0,-11.06,3a
2019-07-15_122157:700,-0.471283,0.006072999999999999,-0.174896,-0.002321,0.0008039999999999999,0.000923,-34.0,-23.370001000000002,-10.25,3a
2019-07-15_122157:720,-0.47180200000000005,0.005065999999999999,-0.177429,-0.002443,0.001598,0.001106,-34.0,-23.370001000000002,-10.25,3a
2019-07-15_122157:740,-0.47180200000000005,0.004059,-0.174377,-0.002443,0.001994,0.000221,-34.369999,-22.0,-12.18,3a
2019-07-15_122157:760,-0.472321,0.0030210000000000002,-0.172852,-0.001986,0.002757,0.00016,-34.369999,-22.0,-12.18,3a
2019-07-15_122157:780,-0.46670500000000004,0.0030210000000000002,-0.17385899999999999,-0.0015890000000000001,0.002849,0.000587,-34.369999,-22.0,-12.18,3a
2019-07-15_122157:800,-0.469757,0.0025329999999999997,-0.171844,-0.000857,0.0029100000000000003,0.001045,-34.369999,-22.370001000000002,-10.56,3a
2019-07-15_122157:820,-0.46469099999999997,0.0030210000000000002,-0.1698,-0.000399,0.003124,0.001838,-34.369999,-22.370001000000002,-10.56,3a
2019-07-15_122157:840,-0.461639,0.002014,-0.169281,-0.000338,0.002757,0.001503,-34.369999,-22.25,-11.37,3a
2019-07-15_122157:860,-0.46469099999999997,0.002014,-0.171326,-0.00045999999999999996,0.002239,0.001258,-34.369999,-22.25,-11.37,3a
2019-07-15_122157:880,-0.469757,0.001007,-0.171844,-0.00045999999999999996,0.001964,0.001106,-34.369999,-22.25,-11.37,3a
2019-07-15_122157:900,-0.47433500000000006,0.000488,-0.171844,-0.000734,0.002391,0.000923,-34.369999,-22.68,-10.56,3a
2019-07-15_122157:920,-0.474854,-0.000488,-0.172852,-0.00045999999999999996,0.0036420000000000003,0.000923,-34.369999,-22.68,-10.56,3a
2019-07-15_122157:940,-0.46875,-0.002014,-0.17385899999999999,5.9e-05,0.004314,0.00028199999999999997,-34.75,-21.18,-11.0,3a
2019-07-15_122157:960,-0.466217,0.0,-0.17538499999999999,0.000608,0.0045579999999999996,0.0007700000000000001,-34.75,-21.18,-11.0,3a
2019-07-15_122157:980,-0.467224,0.000488,-0.17385899999999999,0.0012490000000000001,0.003825,0.001991,-34.75,-21.18,-11.0,3a
2019-07-15_122158:000,-0.471283,0.001495,-0.17337,0.0017980000000000001,0.003703,0.003517,-33.560001,-22.25,-11.5,3a
2019-07-15_122158:020,-0.472321,0.0025329999999999997,-0.1698,0.001982,0.0042829999999999995,0.0053479999999999995,-33.560001,-22.25,-11.5,3a
2019-07-15_122158:040,-0.47180200000000005,0.0030210000000000002,-0.168274,0.001402,0.00471,0.006416,-34.75,-22.0,-11.5,3a
2019-07-15_122158:060,-0.46417200000000003,-0.001007,-0.166748,0.000608,0.004833,0.006691,-34.75,-22.0,-11.5,3a
2019-07-15_122158:080,-0.461639,-0.000488,-0.168274,-0.000124,0.004161,0.006874,-34.75,-22.0,-11.5,3a
2019-07-15_122158:100,-0.46060200000000007,-0.004547,-0.168274,-0.00107,0.002971,0.006476999999999999,-35.060001,-21.559998999999998,-11.06,3a
2019-07-15_122158:120,-0.462128,-0.006592,-0.169281,-0.001864,0.0017809999999999998,0.0058969999999999995,-35.060001,-21.559998999999998,-11.06,3a
2019-07-15_122158:140,-0.46060200000000007,-0.010651,-0.172333,-0.0025960000000000002,0.000407,0.005226,-35.060001,-21.559998999999998,-12.25,3a
2019-07-15_122158:160,-0.45907600000000004,-0.010651,-0.170319,-0.002993,-0.000661,0.004432,-35.060001,-21.559998999999998,-12.25,3a
2019-07-15_122158:180,-0.45553599999999994,-0.015747,-0.168793,-0.003176,-0.002034,0.003242,-35.060001,-21.559998999999998,-12.25,3a
2019-07-15_122158:200,-0.45605500000000004,-0.017273,-0.168274,-0.002932,-0.003438,0.0021739999999999997,-34.75,-20.870001000000002,-11.0,3a
2019-07-15_122158:220,-0.46060200000000007,-0.01828,-0.168793,-0.0025960000000000002,-0.0052380000000000005,0.0008619999999999999,-34.75,-20.870001000000002,-11.0,3a
2019-07-15_122158:240,-0.46670500000000004,-0.020325,-0.1698,-0.0018030000000000001,-0.005971,-0.000573,-34.75,-21.18,-11.87,3a
2019-07-15_122158:260,-0.470276,-0.01828,-0.171844,-0.00107,-0.005482,-0.0028309999999999997,-34.75,-21.18,-11.87,3a
2019-07-15_122158:280,-0.473846,-0.016266,-0.17385899999999999,-0.000521,-0.004811,-0.00396,-34.75,-21.18,-11.87,3a
2019-07-15_122158:300,-0.47332799999999997,-0.013213999999999998,-0.17538499999999999,5.9e-05,-0.00417,-0.003624,-35.060001,-20.870001000000002,-11.5,3a
2019-07-15_122158:320,-0.470276,-0.009125,-0.17538499999999999,0.00011999999999999999,-0.0033159999999999995,-0.004052,-35.060001,-20.870001000000002,-11.5,3a
2019-07-15_122158:340,-0.461639,-0.008636,-0.177948,0.00048600000000000005,-0.00298,-0.00515,-35.5,-20.870001000000002,-11.5,3a
2019-07-15_122158:360,-0.45907600000000004,-0.0055850000000000006,-0.180481,0.000608,-0.003102,-0.005425,-35.5,-20.870001000000002,-11.5,3a
2019-07-15_122158:380,-0.465179,-0.004059,-0.183533,0.000608,-0.00298,-0.00515,-35.5,-20.870001000000002,-11.5,3a
2019-07-15_122158:400,-0.466217,-0.005065999999999999,-0.184021,0.000669,-0.002919,-0.0038380000000000003,-34.75,-21.559998999999998,-12.25,3a
2019-07-15_122158:420,-0.467743,-0.004547,-0.18096900000000002,0.000852,-0.002431,-0.0028309999999999997,-34.75,-21.559998999999998,-12.25,3a
2019-07-15_122158:440,-0.467224,-0.004547,-0.17944300000000002,0.001005,-0.002187,-0.002373,-34.369999,-20.870001000000002,-11.5,3a
2019-07-15_122158:460,-0.47180200000000005,-0.004547,-0.17944300000000002,0.000608,-0.001027,-0.001397,-34.369999,-20.870001000000002,-11.5,3a
2019-07-15_122158:480,-0.47180200000000005,-0.004059,-0.178955,-0.000185,1.1e-05,-0.000634,-34.369999,-20.870001000000002,-11.5,3a
2019-07-15_122158:500,-0.47180200000000005,-0.005065999999999999,-0.17690999999999998,-0.000338,0.00016299999999999998,-0.000176,-34.369999,-21.18,-13.5,3a
2019-07-15_122158:520,-0.46569799999999995,-0.0055850000000000006,-0.175903,-0.0015279999999999998,0.000743,-0.000512,-34.369999,-21.18,-13.5,3a
2019-07-15_122158:540,-0.46469099999999997,-0.006592,-0.176422,-0.001864,0.00056,-0.000573,-34.75,-21.559998999999998,-13.5,3a
2019-07-15_122158:560,-0.466217,-0.008118,-0.17538499999999999,-0.002535,0.000621,-5.4000000000000005e-05,-34.75,-21.559998999999998,-13.5,3a
2019-07-15_122158:580,-0.449432,-0.007599,-0.181488,-0.002382,0.000285,7.000000000000001e-06,-34.75,-21.559998999999998,-13.5,3a
2019-07-15_122158:600,-0.46569799999999995,-0.010651,-0.185547,-0.0018030000000000001,-0.001973,-0.0013050000000000002,-34.369999,-22.0,-11.87,3a
2019-07-15_122158:620,-0.465179,-0.010162000000000001,-0.186584,-0.000582,-0.002034,-0.002251,-34.369999,-22.0,-11.87,3a
2019-07-15_122158:640,-0.47079499999999996,-0.008636,-0.189117,0.000669,-0.001637,-0.002892,-34.369999,-22.0,-13.06,3a
2019-07-15_122158:660,-0.47280900000000003,-0.004059,-0.188599,0.001402,-0.00124,-0.003319,-34.369999,-22.0,-13.06,3a
2019-07-15_122158:680,-0.466217,-0.0035399999999999997,-0.18811,0.001982,-0.000325,-0.002892,-34.369999,-22.0,-13.06,3a
2019-07-15_122158:700,-0.46670500000000004,-0.0030210000000000002,-0.189117,0.002378,0.000285,-0.002495,-34.0,-21.559998999999998,-13.0,3a
2019-07-15_122158:720,-0.459595,-0.004059,-0.186584,0.002317,0.000682,-0.000786,-34.0,-21.559998999999998,-13.0,3a
2019-07-15_122158:740,-0.466217,-0.002014,-0.183014,0.002195,0.0008960000000000001,-5.4000000000000005e-05,-34.0,-22.0,-12.25,3a
2019-07-15_122158:760,-0.45401,-0.0035399999999999997,-0.183533,0.001402,0.000468,0.000923,-34.0,-22.0,-12.25,3a
2019-07-15_122158:780,-0.47079499999999996,-0.001007,-0.181488,0.000608,0.000346,0.001045,-34.0,-22.0,-12.25,3a
2019-07-15_122158:800,-0.462646,-0.004547,-0.186066,-0.000277,-0.0009660000000000001,0.001106,-34.369999,-21.559998999999998,-12.68,3a
2019-07-15_122158:820,-0.45196499999999995,-0.0030210000000000002,-0.187073,-0.001131,-0.001698,0.000465,-34.369999,-21.559998999999998,-12.68,3a
2019-07-15_122158:840,-0.462646,-0.004547,-0.193695,-0.0014060000000000001,-0.001973,-0.000389,-33.560001,-22.0,-11.87,3a
2019-07-15_122158:860,-0.461121,-0.005065999999999999,-0.19165,-0.001467,-0.001698,-0.002098,-33.560001,-22.0,-11.87,3a
2019-07-15_122158:880,-0.46670500000000004,-0.006072999999999999,-0.195221,-0.001253,-0.001118,-0.002526,-33.560001,-22.0,-11.87,3a
2019-07-15_122158:900,-0.46670500000000004,-0.004059,-0.19574,-0.001131,-0.000661,-0.00277,-34.369999,-21.559998999999998,-13.87,3a
2019-07-15_122158:920,-0.467743,-0.0030210000000000002,-0.194702,-0.00045999999999999996,0.000865,-0.002434,-34.369999,-21.559998999999998,-13.87,3a
2019-07-15_122158:940,-0.465179,-0.0025329999999999997,-0.193695,-0.000124,0.001292,-0.0017929999999999999,-34.369999,-21.559998999999998,-13.87,3a
2019-07-15_122158:960,-0.461639,-0.001007,-0.19165,-0.000124,0.0017809999999999998,7.000000000000001e-06,-34.0,-21.18,-13.5,3a
2019-07-15_122158:980,-0.46926899999999994,0.0,-0.189117,-0.000796,0.002391,-0.000267,-34.0,-21.18,-13.5,3a
2019-07-15_122159:000,-0.470276,0.0,-0.186066,-0.001467,0.002788,-0.000389,-33.560001,-20.870001000000002,-14.68,3a
2019-07-15_122159:020,-0.472321,0.0,-0.182007,-0.003939,0.004771,0.001442,-33.560001,-20.870001000000002,-14.68,3a
2019-07-15_122159:040,-0.46417200000000003,-0.007111,-0.17944300000000002,-0.004824,0.004771,0.001625,-33.560001,-20.870001000000002,-14.68,3a
2019-07-15_122159:060,-0.44995100000000005,-0.010651,-0.18249500000000002,-0.006197,0.003307,0.000526,-34.0,-22.0,-13.87,3a
2019-07-15_122159:080,-0.44433599999999995,-0.015228,-0.183014,-0.0058,0.001018,-0.00011499999999999999,-34.0,-22.0,-13.87,3a
2019-07-15_122159:100,-0.451477,-0.015228,-0.185059,-0.005221,1.1e-05,-0.000786,-34.0,-21.18,-13.06,3a
2019-07-15_122159:120,-0.46316499999999994,-0.015228,-0.18096900000000002,-0.00403,-0.00063,-0.003167,-34.0,-21.18,-13.06,3a
2019-07-15_122159:140,-0.45706199999999997,-0.010162000000000001,-0.185547,-0.002718,-0.0007830000000000001,-0.004509,-34.0,-21.18,-13.06,3a
2019-07-15_122159:160,-0.454529,-0.009644,-0.186584,-0.001253,-0.001179,-0.0017629999999999998,-34.0,-20.870001000000002,-14.25,3a
2019-07-15_122159:180,-0.454529,-0.010162000000000001,-0.189117,-0.000246,-0.00298,-0.000267,-34.0,-20.870001000000002,-14.25,3a
2019-07-15_122159:200,-0.46469099999999997,-0.005065999999999999,-0.193176,0.000151,-0.0033770000000000002,-0.00011499999999999999,-34.0,-21.559998999999998,-13.5,3a
2019-07-15_122159:220,-0.474854,-0.004547,-0.19165,-0.000124,-0.001302,-0.001854,-34.0,-21.559998999999998,-13.5,3a
2019-07-15_122159:240,-0.467224,0.0,-0.18811,-0.000399,-0.000233,-0.001397,-34.0,-21.559998999999998,-13.5,3a
2019-07-15_122159:260,-0.45907600000000004,-0.002014,-0.190125,-0.002382,0.000346,-0.000328,-33.560001,-22.370001000000002,-13.5,3a
2019-07-15_122159:280,-0.45553599999999994,-0.002014,-0.18811,-0.002932,-0.00011100000000000001,-0.000664,-33.560001,-22.370001000000002,-13.5,3a
2019-07-15_122159:300,-0.460114,-0.004059,-0.188599,-0.003512,-0.001363,-0.000267,-33.560001,-22.0,-14.25,3a
2019-07-15_122159:320,-0.462128,-0.005065999999999999,-0.187592,-0.0036950000000000004,-0.001515,-0.0009689999999999999,-33.560001,-22.0,-14.25,3a
2019-07-15_122159:340,-0.463654,-0.0030210000000000002,-0.187073,-0.003817,-0.001057,0.000129,-34.369999,-22.0,-13.87,3a
2019-07-15_122159:360,-0.462646,-0.005065999999999999,-0.190643,-0.0033280000000000002,-0.0009050000000000001,-0.00045099999999999996,-34.369999,-22.0,-13.87,3a
2019-07-15_122159:380,-0.459595,-0.002014,-0.185547,-0.0025960000000000002,-0.000661,-0.000908,-34.369999,-22.0,-13.87,3a
2019-07-15_122159:400,-0.457581,-0.001495,-0.186584,-0.0022600000000000003,-0.000386,-0.0012439999999999999,-33.560001,-20.870001000000002,-13.87,3a
2019-07-15_122159:420,-0.45654300000000003,0.0,-0.187073,-0.0022600000000000003,-0.00044699999999999997,-0.0019149999999999998,-33.560001,-20.870001000000002,-13.87,3a
2019-07-15_122159:440,-0.453491,0.001007,-0.18811,-0.0021079999999999996,-0.000661,-0.000512,-33.560001,-20.870001000000002,-13.87,3a
2019-07-15_122159:460,-0.45095799999999997,0.002014,-0.190125,-0.002169,-0.001302,-0.00011499999999999999,-35.060001,-22.0,-13.87,3a
2019-07-15_122159:480,-0.453003,0.000488,-0.195221,-0.0021079999999999996,-0.002644,-0.000267,-35.060001,-22.0,-13.87,3a
2019-07-15_122159:500,-0.45806899999999995,0.000488,-0.198792,-0.001864,-0.003438,-0.00023700000000000001,-33.25,-21.559998999999998,-13.87,3a
2019-07-15_122159:520,-0.46469099999999997,0.000488,-0.198273,-0.001772,-0.0033159999999999995,7.000000000000001e-06,-33.25,-21.559998999999998,-13.87,3a
2019-07-15_122159:540,-0.467743,0.000488,-0.20233199999999998,-0.0021079999999999996,-0.001759,0.0007700000000000001,-33.25,-21.559998999999998,-13.87,3a
2019-07-15_122159:560,-0.461121,0.000488,-0.20080599999999998,-0.002718,-0.000233,0.001442,-33.560001,-22.68,-15.0,3a
2019-07-15_122159:580,-0.45553599999999994,-0.001007,-0.20080599999999998,-0.00339,0.000468,0.001564,-33.560001,-22.68,-15.0,3a
2019-07-15_122159:600,-0.45605500000000004,-0.004547,-0.20538299999999998,-0.0037560000000000002,0.000865,0.001381,-33.560001,-22.0,-16.18,3a
2019-07-15_122159:620,-0.458588,-0.006072999999999999,-0.203369,-0.003939,0.000865,0.0008619999999999999,-33.560001,-22.0,-16.18,3a
2019-07-15_122159:640,-0.458588,-0.006592,-0.20233199999999998,-0.003664,0.001415,0.000129,-32.869999,-22.0,-14.68,3a
2019-07-15_122159:660,-0.45605500000000004,-0.007599,-0.199799,-0.002993,0.002055,-0.000389,-32.869999,-22.0,-14.68,3a
2019-07-15_122159:680,-0.455017,-0.007111,-0.199799,-0.002657,0.002635,-0.000176,-32.869999,-22.0,-14.68,3a
2019-07-15_122159:700,-0.45196499999999995,-0.007111,-0.204376,-0.0020469999999999998,0.002361,-0.00011499999999999999,-33.25,-21.559998999999998,-14.68,3a
2019-07-15_122159:720,-0.45095799999999997,-0.007111,-0.20385699999999998,-0.001192,0.0014759999999999999,-0.00011499999999999999,-33.25,-21.559998999999998,-14.68,3a
2019-07-15_122159:740,-0.449432,-0.007599,-0.20385699999999998,-0.000734,0.000407,0.000129,-33.25,-21.559998999999998,-14.68,3a
2019-07-15_122159:760,-0.45605500000000004,-0.008118,-0.203369,-0.000277,-0.000325,7.000000000000001e-06,-33.25,-21.559998999999998,-15.0,3a
2019-07-15_122159:780,-0.457581,-0.004059,-0.20233199999999998,5.9e-05,-0.00011100000000000001,0.000587,-33.25,-21.559998999999998,-15.0,3a
2019-07-15_122159:800,-0.45806899999999995,-0.005065999999999999,-0.20233199999999998,-0.000277,0.000133,0.001167,-32.5,-22.0,-15.5,3a
2019-07-15_122159:820,-0.466217,-0.0055850000000000006,-0.20285,-0.000918,0.001353,0.001045,-32.5,-22.0,-15.5,3a
2019-07-15_122159:840,-0.467743,-0.005065999999999999,-0.203369,-0.0015890000000000001,0.003093,0.001258,-32.5,-22.0,-15.5,3a
2019-07-15_122159:860,-0.457581,-0.006592,-0.20385699999999998,-0.002321,0.004039,0.001258,-32.869999,-21.559998999999998,-14.68,3a
2019-07-15_122159:880,-0.454529,-0.007111,-0.20538299999999998,-0.002932,0.004497,0.000648,-32.869999,-21.559998999999998,-14.68,3a
2019-07-15_122159:900,-0.462128,-0.006592,-0.20233199999999998,-0.003176,0.004375,-0.000786,-34.0,-21.559998999999998,-15.0,3a
2019-07-15_122159:920,-0.46670500000000004,-0.0055850000000000006,-0.198273,-0.00339,0.004649,-0.00158,-34.0,-21.559998999999998,-15.0,3a
2019-07-15_122159:940,-0.45706199999999997,-0.004547,-0.19622799999999999,-0.00339,0.004833,-0.001854,-34.0,-21.559998999999998,-15.0,3a
2019-07-15_122159:960,-0.458588,-0.0030210000000000002,-0.195221,-0.0032979999999999997,0.004954999999999999,-0.003167,-33.25,-21.18,-15.87,3a
2019-07-15_122159:980,-0.463654,-0.0035399999999999997,-0.193695,-0.003176,0.004954999999999999,-0.004418,-33.25,-21.18,-15.87,3a
2019-07-15_122200:000,-0.457581,-0.005065999999999999,-0.191162,-0.0031149999999999997,0.006175,-0.003563,-33.560001,-22.0,-15.0,3a
2019-07-15_122200:020,-0.46469099999999997,-0.008118,-0.191162,-0.0028399999999999996,0.00703,-0.0019149999999999998,-33.560001,-22.0,-15.0,3a
2019-07-15_122200:040,-0.463654,-0.008636,-0.192688,-0.002199,0.008006000000000001,-0.001397,-33.560001,-22.0,-15.0,3a
2019-07-15_122200:060,-0.461639,-0.011169,-0.192688,-0.0015279999999999998,0.008556,-0.00158,-34.0,-22.68,-13.5,3a
2019-07-15_122200:080,-0.45553599999999994,-0.010651,-0.194702,-0.000796,0.008342,-0.001641,-34.0,-22.68,-13.5,3a
2019-07-15_122200:100,-0.46417200000000003,-0.012695,-0.188599,-0.000246,0.007365000000000001,-0.002373,-32.869999,-22.0,-14.25,3a
2019-07-15_122200:120,-0.470276,-0.013702,-0.186066,0.000669,0.007823,-0.003655,-32.869999,-22.0,-14.25,3a
2019-07-15_122200:140,-0.455017,-0.012177,-0.189117,0.001737,0.008006000000000001,-0.0054859999999999996,-32.869999,-22.0,-14.25,3a
2019-07-15_122200:160,-0.462646,-0.010162000000000001,-0.186584,0.003141,0.006693999999999999,-0.007286,-33.25,-22.0,-14.68,3a
2019-07-15_122200:180,-0.462646,-0.004547,-0.175903,0.003996,0.006023,-0.008812,-33.25,-22.0,-14.68,3a
2019-07-15_122200:200,-0.45806899999999995,0.0,-0.17385899999999999,0.00424,0.005901,-0.008934000000000001,-33.25,-22.370001000000002,-13.87,3a
2019-07-15_122200:220,-0.445862,0.004547,-0.169281,0.004301,0.00471,-0.008477,-33.25,-22.370001000000002,-13.87,3a
2019-07-15_122200:240,-0.45553599999999994,0.006592,-0.171326,0.0041789999999999996,0.003032,-0.008598999999999999,-33.25,-22.370001000000002,-13.87,3a
2019-07-15_122200:260,-0.45605500000000004,0.008636,-0.17538499999999999,0.003324,0.002177,-0.0075,-33.560001,-22.68,-14.25,3a
2019-07-15_122200:280,-0.45806899999999995,0.009125,-0.183533,0.002806,0.001353,-0.006431999999999999,-33.560001,-22.68,-14.25,3a
2019-07-15_122200:300,-0.465179,0.010651,-0.186584,0.0027140000000000003,0.000407,-0.005181,-32.869999,-22.0,-13.87,3a
2019-07-15_122200:320,-0.470276,0.011687999999999999,-0.185547,0.00247,0.00114,-0.0038380000000000003,-32.869999,-22.0,-13.87,3a
2019-07-15_122200:340,-0.477386,0.007599,-0.187073,0.002134,0.002513,-0.0017929999999999999,-32.869999,-22.0,-13.87,3a
2019-07-15_122200:360,-0.47332799999999997,0.005065999999999999,-0.187073,0.002195,0.004222,0.00016,-33.25,-22.370001000000002,-15.0,3a
2019-07-15_122200:380,-0.46823100000000006,0.005065999999999999,-0.184021,0.002531,0.005626,0.001625,-33.25,-22.370001000000002,-15.0,3a
2019-07-15_122200:400,-0.46926899999999994,0.004547,-0.183533,0.002806,0.006175,0.00196,-33.25,-22.25,-15.0,3a
2019-07-15_122200:420,-0.46316499999999994,0.000488,-0.183533,0.002806,0.005961999999999999,0.0007700000000000001,-33.25,-22.25,-15.0,3a
2019-07-15_122200:440,-0.463654,0.001007,-0.185547,0.00366,0.004894,-0.00023700000000000001,-33.25,-22.25,-15.0,3a
2019-07-15_122200:460,-0.47180200000000005,-0.001495,-0.183533,0.004728,0.003978,-0.0013050000000000002,-32.060001,-22.0,-14.68,3a
2019-07-15_122200:480,-0.47433500000000006,-0.002014,-0.181488,0.006254,0.0042829999999999995,-0.002983,-32.060001,-22.0,-14.68,3a
2019-07-15_122200:500,-0.48196400000000006,0.000488,-0.17996199999999998,0.008451,0.004833,-0.00396,-33.25,-22.68,-15.87,3a
2019-07-15_122200:520,-0.477386,0.0030210000000000002,-0.178955,0.010374,0.006145,-0.005364,-33.25,-22.68,-15.87,3a
2019-07-15_122200:540,-0.477905,0.010651,-0.177948,0.0119,0.007304000000000001,-0.005944,-33.25,-22.68,-15.87,3a
2019-07-15_122200:560,-0.472321,0.011687999999999999,-0.17337,0.012693000000000001,0.008739,-0.005242,-32.869999,-22.0,-14.68,3a
2019-07-15_122200:580,-0.46926899999999994,0.011687999999999999,-0.167267,0.012815,0.009746,-0.005547,-32.869999,-22.0,-14.68,3a
2019-07-15_122200:600,-0.46316499999999994,0.011687999999999999,-0.166229,0.012875999999999999,0.010020000000000001,-0.005944,-32.5,-22.68,-15.87,3a
2019-07-15_122200:620,-0.45654300000000003,0.010162000000000001,-0.164215,0.012602,0.009531999999999999,-0.006706999999999999,-32.5,-22.68,-15.87,3a
2019-07-15_122200:640,-0.459595,0.011169,-0.166748,0.012144,0.008434,-0.007164,-32.5,-22.68,-15.87,3a
2019-07-15_122200:660,-0.458588,0.008118,-0.169281,0.0119,0.006572,-0.007347,-32.5,-22.0,-14.87,3a
2019-07-15_122200:680,-0.47079499999999996,0.0055850000000000006,-0.169281,0.011807999999999999,0.004771,-0.007164,-32.5,-22.0,-14.87,3a
2019-07-15_122200:700,-0.48196400000000006,0.0025329999999999997,-0.165741,0.012022,0.004497,-0.006706999999999999,-33.25,-22.68,-14.68,3a
2019-07-15_122200:720,-0.489594,0.000488,-0.160126,0.012358,0.006297,-0.007012000000000001,-33.25,-22.68,-14.68,3a
2019-07-15_122200:740,-0.481476,0.000488,-0.154541,0.012998,0.009288,-0.0064930000000000005,-33.25,-22.68,-14.68,3a
2019-07-15_122200:760,-0.46926899999999994,0.002014,-0.15506,0.013212,0.011058,-0.005181,-32.869999,-22.68,-15.5,3a
2019-07-15_122200:780,-0.462646,0.0030210000000000002,-0.149475,0.012998,0.011333,-0.004906000000000001,-32.869999,-22.68,-15.5,3a
2019-07-15_122200:800,-0.459595,0.004059,-0.149963,0.012358,0.010997,-0.004753,-33.25,-22.68,-15.37,3a
2019-07-15_122200:820,-0.453491,0.0055850000000000006,-0.14843800000000001,0.011747,0.010081999999999999,-0.004692,-33.25,-22.68,-15.37,3a
2019-07-15_122200:840,-0.457581,0.006592,-0.151489,0.010679000000000001,0.008006000000000001,-0.004021,-33.25,-22.68,-15.37,3a
2019-07-15_122200:860,-0.462646,0.009644,-0.156067,0.009245,0.005412,-0.003045,-32.869999,-22.0,-15.75,3a
2019-07-15_122200:880,-0.46823100000000006,0.010162000000000001,-0.159119,0.007383,0.003703,-0.002098,-32.869999,-22.0,-15.75,3a
2019-07-15_122200:900,-0.470276,0.011687999999999999,-0.160645,0.005461,0.002574,-0.001519,-33.25,-22.370001000000002,-15.5,3a
2019-07-15_122200:920,-0.474854,0.010651,-0.159637,0.003324,0.001842,-0.0012439999999999999,-33.25,-22.370001000000002,-15.5,3a
2019-07-15_122200:940,-0.477386,0.010651,-0.161163,0.001524,0.0017809999999999998,-0.0012439999999999999,-33.25,-22.370001000000002,-15.5,3a
2019-07-15_122200:960,-0.475861,0.009125,-0.16217,-0.000124,0.002116,-0.001458,-33.25,-22.0,-16.18,3a
2019-07-15_122200:980,-0.475861,0.006592,-0.1586,-0.001192,0.002788,-0.0013050000000000002,-33.25,-22.0,-16.18,3a
2019-07-15_122201:000,-0.475372,0.007111,-0.154541,-0.002321,0.0035810000000000004,-0.000786,-32.5,-22.370001000000002,-16.559998999999998,3a
2019-07-15_122201:020,-0.470276,0.008118,-0.154022,-0.002993,0.003124,0.000648,-32.5,-22.370001000000002,-16.559998999999998,3a
2019-07-15_122201:040,-0.462646,0.009125,-0.152527,-0.003664,0.001842,0.001442,-32.5,-22.370001000000002,-16.559998999999998,3a
2019-07-15_122201:060,-0.477905,0.013213999999999998,-0.153534,-0.004336,0.000743,0.0018989999999999999,-33.25,-22.0,-15.37,3a
2019-07-15_122201:080,-0.482483,0.010651,-0.147949,-0.005343,0.0008039999999999999,0.00309,-33.25,-22.0,-15.37,3a
2019-07-15_122201:100,-0.474854,0.011169,-0.153534,-0.006411,0.001537,0.004768,-32.5,-22.25,-15.87,3a
2019-07-15_122201:120,-0.469757,0.010162000000000001,-0.149963,-0.007876000000000001,0.0010789999999999999,0.0058969999999999995,-32.5,-22.25,-15.87,3a
2019-07-15_122201:140,-0.46469099999999997,0.007111,-0.157593,-0.009524,0.0010789999999999999,0.006569,-32.5,-22.25,-15.87,3a
2019-07-15_122201:160,-0.467224,0.0035399999999999997,-0.160645,-0.011385,0.0009570000000000001,0.006019,-34.0,-22.0,-14.68,3a
2019-07-15_122201:180,-0.47180200000000005,0.002014,-0.160645,-0.012911,0.001415,0.004615,-34.0,-22.0,-14.68,3a
2019-07-15_122201:200,-0.471283,-0.000488,-0.161163,-0.013521,0.0016589999999999999,0.003303,-33.560001,-22.0,-16.559998999999998,3a
2019-07-15_122201:220,-0.46823100000000006,-0.0025329999999999997,-0.160645,-0.013643,0.001994,0.003425,-33.560001,-22.0,-16.559998999999998,3a
2019-07-15_122201:240,-0.47689799999999993,-0.004059,-0.161652,-0.013368999999999999,0.001994,0.004097,-33.560001,-22.0,-16.559998999999998,3a
2019-07-15_122201:260,-0.472321,-0.0030210000000000002,-0.160645,-0.013094,0.002055,0.005012,-34.0,-22.0,-15.87,3a
2019-07-15_122201:280,-0.48706099999999997,-0.005065999999999999,-0.16217,-0.013308,0.002239,0.005104,-34.0,-22.0,-15.87,3a
2019-07-15_122201:300,-0.504333,-0.0030210000000000002,-0.159637,-0.013521,0.002849,0.00489,-33.25,-22.0,-15.0,3a
2019-07-15_122201:320,-0.48095699999999997,-0.004059,-0.156586,-0.013643,0.005016,0.0051649999999999995,-33.25,-22.0,-15.0,3a
2019-07-15_122201:340,-0.474854,-0.002014,-0.157593,-0.014223,0.005686999999999999,0.004707,-33.25,-22.0,-15.0,3a
2019-07-15_122201:360,-0.473846,-0.002014,-0.14843800000000001,-0.014956,0.005565,0.004829,-33.560001,-20.870001000000002,-15.87,3a
2019-07-15_122201:380,-0.47280900000000003,-0.0025329999999999997,-0.145386,-0.015566,0.004833,0.00428,-33.560001,-20.870001000000002,-15.87,3a
2019-07-15_122201:400,-0.467224,-0.001495,-0.147949,-0.015780000000000002,0.003886,0.003639,-33.560001,-21.18,-13.5,3a
2019-07-15_122201:420,-0.46569799999999995,-0.001495,-0.146912,-0.015962999999999998,0.002177,0.003486,-33.560001,-21.18,-13.5,3a
2019-07-15_122201:440,-0.47180200000000005,0.0,-0.145386,-0.015688,0.000682,0.003425,-33.560001,-21.18,-13.5,3a
2019-07-15_122201:460,-0.472321,-0.001007,-0.146423,-0.015627000000000002,0.00022400000000000002,0.003822,-33.560001,-22.25,-14.68,3a
2019-07-15_122201:480,-0.465179,0.0,-0.14743,-0.01523,0.00022400000000000002,0.0038829999999999997,-33.560001,-22.25,-14.68,3a
2019-07-15_122201:500,-0.470276,0.000488,-0.149963,-0.015047,-0.0008439999999999999,0.0038829999999999997,-34.0,-21.559998999999998,-14.25,3a
2019-07-15_122201:520,-0.46569799999999995,0.0,-0.148956,-0.015047,-0.000661,0.003425,-34.0,-21.559998999999998,-14.25,3a
2019-07-15_122201:540,-0.472321,-0.002014,-0.151001,-0.015016999999999999,-0.0009660000000000001,0.00309,-34.0,-21.559998999999998,-14.25,3a
2019-07-15_122201:560,-0.46569799999999995,-0.007599,-0.155548,-0.014650999999999999,-0.001363,0.00196,-33.25,-22.0,-14.68,3a
2019-07-15_122201:580,-0.48095699999999997,-0.015228,-0.160126,-0.013581999999999999,-0.001973,0.000404,-33.25,-22.0,-14.68,3a
2019-07-15_122201:600,-0.49111899999999997,-0.020844,-0.159119,-0.011233,-0.001393,-0.0011220000000000002,-34.0,-22.25,-13.87,3a
2019-07-15_122201:620,-0.494171,-0.020844,-0.158112,-0.008059,-0.00063,-0.0028309999999999997,-34.0,-22.25,-13.87,3a
2019-07-15_122201:640,-0.500793,-0.017273,-0.156586,-0.004793,0.000133,-0.004052,-34.0,-22.25,-13.87,3a
2019-07-15_122201:660,-0.501282,-0.015228,-0.153534,-0.002382,0.001292,-0.004692,-34.0,-21.559998999999998,-13.5,3a
2019-07-15_122201:680,-0.48095699999999997,-0.010651,-0.149963,-0.000124,0.001994,-0.004692,-34.0,-21.559998999999998,-13.5,3a
2019-07-15_122201:700,-0.47280900000000003,-0.0055850000000000006,-0.154541,0.0019210000000000002,0.0029100000000000003,-0.005364,-33.25,-22.370001000000002,-14.25,3a
2019-07-15_122201:720,-0.461639,-0.0030210000000000002,-0.14843800000000001,0.003507,0.001353,-0.006829000000000001,-33.25,-22.370001000000002,-14.25,3a
2019-07-15_122201:740,-0.459595,-0.001007,-0.148956,0.004667,-0.000172,-0.007012000000000001,-33.25,-22.370001000000002,-14.25,3a
2019-07-15_122201:760,-0.46060200000000007,0.000488,-0.150482,0.005796,-0.001057,-0.00689,-33.25,-22.68,-13.87,3a
2019-07-15_122201:780,-0.460114,0.0035399999999999997,-0.152527,0.006712,-0.0018510000000000002,-0.006829000000000001,-33.25,-22.68,-13.87,3a
2019-07-15_122201:800,-0.453491,0.006592,-0.157593,0.0076879999999999995,-0.00237,-0.0063100000000000005,-33.560001,-23.0,-14.25,3a
2019-07-15_122201:820,-0.45553599999999994,0.008118,-0.1586,0.00836,-0.0037119999999999996,-0.0057,-33.560001,-23.0,-14.25,3a
2019-07-15_122201:840,-0.461639,0.011169,-0.163696,0.008818000000000001,-0.004964,-0.00515,-33.560001,-23.0,-14.25,3a
2019-07-15_122201:860,-0.467224,0.013702,-0.167755,0.009153,-0.005543,-0.003899,-32.869999,-23.0,-14.25,3a
2019-07-15_122201:880,-0.473846,0.012695,-0.171844,0.00897,-0.006093,-0.00277,-32.869999,-23.0,-14.25,3a
2019-07-15_122201:900,-0.477905,0.012695,-0.175903,0.008756,-0.006154,-0.0017629999999999998,-33.560001,-23.0,-16.559998999999998,3a
2019-07-15_122201:920,-0.484009,0.012695,-0.17538499999999999,0.008634000000000001,-0.005177,-0.001519,-33.560001,-23.0,-16.559998999999998,3a
2019-07-15_122201:940,-0.48654200000000003,0.009644,-0.174896,0.008634000000000001,-0.003285,-0.000634,-33.560001,-23.0,-16.559998999999998,3a
2019-07-15_122201:960,-0.486023,0.006072999999999999,-0.171844,0.008818000000000001,-0.001118,-0.000389,-32.869999,-22.25,-15.87,3a
2019-07-15_122201:980,-0.48196400000000006,0.0030210000000000002,-0.168274,0.009428,0.000621,-0.00011499999999999999,-32.869999,-22.25,-15.87,3a
2019-07-15_122202:000,-0.47180200000000005,0.0025329999999999997,-0.17385899999999999,0.009977,0.0008039999999999999,0.000709,-32.869999,-22.25,-15.87,3a
2019-07-15_122202:020,-0.46875,0.0035399999999999997,-0.168793,0.010282,0.000682,0.000984,-32.869999,-22.25,-15.87,3a
2019-07-15_122202:040,-0.467224,0.001495,-0.166229,0.009947,0.0008039999999999999,0.0007700000000000001,-32.869999,-22.25,-15.87,3a
2019-07-15_122202:060,-0.46875,0.0,-0.167267,0.009641,0.000682,0.000831,-32.5,-22.0,-17.0,3a
2019-07-15_122202:080,-0.46926899999999994,-0.0035399999999999997,-0.170319,0.009764,0.00056,6.8e-05,-32.5,-22.0,-17.0,3a
2019-07-15_122202:100,-0.46316499999999994,-0.005065999999999999,-0.169281,0.009977,0.00022400000000000002,-0.000786,-32.869999,-22.0,-15.87,3a
2019-07-15_122202:120,-0.465179,-0.008636,-0.1698,0.010343000000000001,-0.000264,-0.001458,-32.869999,-22.0,-15.87,3a
2019-07-15_122202:140,-0.467743,-0.008636,-0.172852,0.010740000000000001,-0.00063,-0.002709,-32.869999,-22.0,-15.87,3a
2019-07-15_122202:160,-0.46670500000000004,-0.008636,-0.171844,0.011503,-0.000661,-0.0035020000000000003,-32.869999,-21.559998999999998,-17.0,3a
2019-07-15_122202:180,-0.467224,-0.007111,-0.172333,0.011869,-0.0005690000000000001,-0.004631000000000001,-32.869999,-21.559998999999998,-17.0,3a
2019-07-15_122202:200,-0.46569799999999995,-0.0035399999999999997,-0.171326,0.012205,-0.0005690000000000001,-0.004753,-32.18,-21.559998999999998,-16.559998999999998,3a
2019-07-15_122202:220,-0.459595,-0.0025329999999999997,-0.170319,0.012205,-0.0009660000000000001,-0.004235,-32.18,-21.559998999999998,-16.559998999999998,3a
2019-07-15_122202:240,-0.45605500000000004,-0.0030210000000000002,-0.1698,0.012022,-0.002156,-0.004357,-32.18,-21.559998999999998,-16.559998999999998,3a
2019-07-15_122202:260,-0.455017,-0.002014,-0.171326,0.011961,-0.003682,-0.004235,-32.5,-21.059998999999998,-18.18,3a
2019-07-15_122202:280,-0.45654300000000003,-0.0055850000000000006,-0.172333,0.012205,-0.005818,-0.004296,-32.5,-21.059998999999998,-18.18,3a
2019-07-15_122202:300,-0.453003,-0.005065999999999999,-0.172333,0.012602,-0.007344,-0.00396,-32.060001,-21.559998999999998,-17.0,3a
2019-07-15_122202:320,-0.46316499999999994,-0.0055850000000000006,-0.177948,0.012875999999999999,-0.008199,-0.0037159999999999997,-32.060001,-21.559998999999998,-17.0,3a
2019-07-15_122202:340,-0.466217,-0.005065999999999999,-0.18096900000000002,0.012937,-0.007741,-0.004448,-32.060001,-21.559998999999998,-17.0,3a
2019-07-15_122202:360,-0.474854,-0.0025329999999999997,-0.183533,0.012631999999999999,-0.005757,-0.004815,-31.75,-21.059998999999998,-18.18,3a
2019-07-15_122202:380,-0.477386,0.000488,-0.185059,0.011807999999999999,-0.0039570000000000004,-0.004296,-31.75,-21.059998999999998,-18.18,3a
2019-07-15_122202:400,-0.47332799999999997,0.001495,-0.189117,0.010679000000000001,-0.00237,-0.0035020000000000003,-31.5,-21.059998999999998,-19.0,3a
2019-07-15_122202:420,-0.46823100000000006,0.0025329999999999997,-0.189636,0.009092,-0.001057,-0.002495,-31.5,-21.059998999999998,-19.0,3a
2019-07-15_122202:440,-0.475372,0.004059,-0.191162,0.0073219999999999995,7.2e-05,-0.0021899999999999997,-31.5,-21.059998999999998,-19.0,3a
2019-07-15_122202:460,-0.47943100000000005,0.005065999999999999,-0.19165,0.005033,0.001842,-0.0019149999999999998,-31.059998999999998,-20.75,-19.0,3a
2019-07-15_122202:480,-0.494171,0.000488,-0.186584,0.0027140000000000003,0.0041,-0.000328,-31.059998999999998,-20.75,-19.0,3a
2019-07-15_122202:500,-0.489075,-0.000488,-0.180481,0.00045599999999999997,0.007273999999999999,0.001167,-30.68,-20.370001000000002,-20.18,3a
2019-07-15_122202:520,-0.48300200000000004,-0.004059,-0.174896,-0.0015890000000000001,0.009349,0.000831,-30.68,-20.370001000000002,-20.18,3a
2019-07-15_122202:540,-0.46875,-0.005065999999999999,-0.171326,-0.002382,0.010356,0.000343,-30.68,-20.370001000000002,-20.18,3a
2019-07-15_122202:560,-0.46060200000000007,-0.006592,-0.171844,-0.0029010000000000004,0.009807,0.000709,-32.5,-20.75,-19.75,3a
2019-07-15_122202:580,-0.45806899999999995,-0.0055850000000000006,-0.171326,-0.003176,0.008556,0.001258,-32.5,-20.75,-19.75,3a
2019-07-15_122202:600,-0.461639,-0.0035399999999999997,-0.170319,-0.003237,0.007365000000000001,0.001442,-32.060001,-20.75,-19.0,3a
2019-07-15_122202:620,-0.46569799999999995,0.0,-0.167267,-0.003664,0.007365000000000001,0.000709,-32.060001,-20.75,-19.0,3a
2019-07-15_122202:640,-0.473846,0.000488,-0.164215,-0.005068,0.007670999999999999,0.001381,-32.060001,-20.75,-19.0,3a
2019-07-15_122202:660,-0.47433500000000006,0.0030210000000000002,-0.165741,-0.006594,0.007823,0.0021739999999999997,-32.18,-20.370001000000002,-19.370001000000002,3a
2019-07-15_122202:680,-0.473846,0.000488,-0.167267,-0.007815,0.008434,0.001716,-32.18,-20.370001000000002,-19.370001000000002,3a
2019-07-15_122202:700,-0.471283,0.0,-0.169281,-0.009188,0.008891,-0.000267,-32.18,-20.75,-19.370001000000002,3a
2019-07-15_122202:720,-0.471283,0.001007,-0.170319,-0.010134,0.008739,-0.001366,-32.18,-20.75,-19.370001000000002,3a
2019-07-15_122202:740,-0.472321,0.001007,-0.171844,-0.010592,0.008495,-0.000389,-32.18,-20.75,-19.370001000000002,3a
2019-07-15_122202:760,-0.47433500000000006,-0.002014,-0.167267,-0.010836,0.008434,0.000984,-32.869999,-20.370001000000002,-18.18,3a
2019-07-15_122202:780,-0.47842399999999996,-0.001007,-0.167267,-0.010378,0.009623999999999999,0.0018989999999999999,-32.869999,-20.370001000000002,-18.18,3a
2019-07-15_122202:800,-0.475372,-0.000488,-0.160126,-0.009706999999999999,0.011089,0.002449,-32.18,-21.059998999999998,-18.559998999999998,3a
2019-07-15_122202:820,-0.47689799999999993,-0.004059,-0.159637,-0.008974,0.012187,0.003486,-32.18,-21.059998999999998,-18.559998999999998,3a
2019-07-15_122202:840,-0.478912,-0.007599,-0.159637,-0.008211,0.013316,0.004554,-32.18,-21.059998999999998,-18.559998999999998,3a
2019-07-15_122202:860,-0.473846,-0.010651,-0.154541,-0.007204,0.014659,0.004951,-32.18,-20.370001000000002,-17.75,3a
2019-07-15_122202:880,-0.47079499999999996,-0.013702,-0.153534,-0.006075,0.014506999999999999,0.004707,-32.18,-20.370001000000002,-17.75,3a
2019-07-15_122202:900,-0.47332799999999997,-0.019318000000000002,-0.150482,-0.004671,0.013927000000000002,0.0043100000000000005,-32.5,-20.75,-17.370001000000002,3a
2019-07-15_122202:920,-0.46875,-0.019318000000000002,-0.14843800000000001,-0.0033280000000000002,0.013133,0.003486,-32.5,-20.75,-17.370001000000002,3a
2019-07-15_122202:940,-0.472321,-0.021851,-0.145905,-0.0018030000000000001,0.012462,0.0026320000000000002,-32.5,-20.75,-17.370001000000002,3a
2019-07-15_122202:960,-0.46670500000000004,-0.022369,-0.14386,0.000212,0.011852,0.000465,-32.869999,-20.370001000000002,-17.370001000000002,3a
2019-07-15_122202:980,-0.46569799999999995,-0.020325,-0.143372,0.0019210000000000002,0.009929,-0.000908,-32.869999,-20.370001000000002,-17.370001000000002,3a
2019-07-15_122203:000,-0.465179,-0.020844,-0.143372,0.003843,0.007670999999999999,-0.0017929999999999999,-33.25,-21.059998999999998,-16.18,3a
2019-07-15_122203:020,-0.46569799999999995,-0.021332,-0.142853,0.005522,0.005901,-0.002983,-33.25,-21.059998999999998,-16.18,3a
2019-07-15_122203:040,-0.463654,-0.021332,-0.144379,0.0076879999999999995,0.0036420000000000003,-0.004174000000000001,-33.25,-21.059998999999998,-16.18,3a
2019-07-15_122203:060,-0.462128,-0.018799,-0.142853,0.009641,0.0012619999999999999,-0.005303,-33.25,-21.059998999999998,-16.559998999999998,3a
2019-07-15_122203:080,-0.47079499999999996,-0.018799,-0.141327,0.011686,-0.0009050000000000001,-0.006768000000000001,-33.25,-21.059998999999998,-16.559998999999998,3a
2019-07-15_122203:100,-0.484497,-0.024384,-0.141846,0.014006000000000001,-0.001454,-0.007836,-34.369999,-20.75,-17.75,3a
2019-07-15_122203:120,-0.486023,-0.026917,-0.14032,0.01721,0.000285,-0.008873,-34.369999,-20.75,-17.75,3a
2019-07-15_122203:140,-0.48754899999999995,-0.026427999999999997,-0.144897,0.021055,0.002391,-0.00927,-34.369999,-20.75,-17.75,3a
2019-07-15_122203:160,-0.485016,-0.024384,-0.145386,0.0249,0.004375,-0.008477,-32.869999,-20.75,-17.370001000000002,3a
2019-07-15_122203:180,-0.48349,-0.016266,-0.143372,0.028349,0.005748,-0.007073,-32.869999,-20.75,-17.370001000000002,3a
2019-07-15_122203:200,-0.48300200000000004,-0.008636,-0.14386,0.030149000000000002,0.006633,-0.006096,-32.869999,-20.370001000000002,-16.559998999999998,3a
2019-07-15_122203:220,-0.47995,-0.000488,-0.138794,0.03021,0.007273999999999999,-0.005089,-32.869999,-20.370001000000002,-16.559998999999998,3a
2019-07-15_122203:240,-0.474854,0.0030210000000000002,-0.136749,0.028745,0.00703,-0.004418,-32.869999,-20.370001000000002,-16.559998999999998,3a
2019-07-15_122203:260,-0.47180200000000005,0.007599,-0.133698,0.02609,0.005901,-0.004174000000000001,-32.869999,-20.0,-19.0,3a
2019-07-15_122203:280,-0.472321,0.008118,-0.133179,0.022703,0.004619,-0.003624,-32.869999,-20.0,-19.0,3a
2019-07-15_122203:300,-0.473846,0.006592,-0.131653,0.018736000000000003,0.00349,-0.003624,-32.18,-19.559998999999998,-17.75,3a
2019-07-15_122203:320,-0.473846,0.008636,-0.130127,0.015074,0.002361,-0.0037159999999999997,-32.18,-19.559998999999998,-17.75,3a
2019-07-15_122203:340,-0.47079499999999996,0.006072999999999999,-0.131653,0.011503,0.0008960000000000001,-0.0032890000000000003,-32.18,-19.559998999999998,-17.75,3a
2019-07-15_122203:360,-0.47079499999999996,0.004547,-0.132172,0.007902,-0.000722,-0.003045,-33.25,-20.0,-19.370001000000002,3a
2019-07-15_122203:380,-0.46926899999999994,0.0035399999999999997,-0.131653,0.004637,-0.002827,-0.0019760000000000003,-33.25,-20.0,-19.370001000000002,3a
2019-07-15_122203:400,-0.470276,0.0030210000000000002,-0.130127,0.001737,-0.004903,-0.00023700000000000001,-33.560001,-18.870001000000002,-19.0,3a
2019-07-15_122203:420,-0.477386,0.000488,-0.132172,-0.000796,-0.007344,0.000343,-33.560001,-18.870001000000002,-19.0,3a
2019-07-15_122203:440,-0.484497,-0.001007,-0.13623,-0.0033280000000000002,-0.008351,0.0018989999999999999,-33.560001,-18.870001000000002,-19.0,3a
2019-07-15_122203:460,-0.490601,-0.0035399999999999997,-0.136749,-0.004793,-0.007497,0.003242,-32.869999,-19.25,-19.0,3a
2019-07-15_122203:480,-0.490112,-0.010162000000000001,-0.139801,-0.005861,-0.005299,0.003639,-32.869999,-19.25,-19.0,3a
2019-07-15_122203:500,-0.48858599999999996,-0.013213999999999998,-0.140808,-0.005922,-0.003163,0.003181,-32.5,-20.0,-19.0,3a
2019-07-15_122203:520,-0.484009,-0.017273,-0.142853,-0.005343,-0.001302,0.00251,-32.5,-20.0,-19.0,3a
2019-07-15_122203:540,-0.48300200000000004,-0.018799,-0.144379,-0.004732,-0.000508,0.001777,-32.5,-20.0,-19.0,3a
2019-07-15_122203:560,-0.47689799999999993,-0.01828,-0.145386,-0.004,0.000743,0.000648,-32.5,-19.25,-21.370001000000002,3a
2019-07-15_122203:580,-0.47943100000000005,-0.015228,-0.144379,-0.003512,0.000743,-0.000664,-32.5,-19.25,-21.370001000000002,3a
2019-07-15_122203:600,-0.475861,-0.016266,-0.14743,-0.0033280000000000002,0.0009570000000000001,-0.002037,-32.869999,-19.559998999999998,-20.18,3a
2019-07-15_122203:620,-0.474854,-0.015228,-0.146912,-0.0032979999999999997,0.0012619999999999999,-0.003563,-32.869999,-19.559998999999998,-20.18,3a
2019-07-15_122203:640,-0.47842399999999996,-0.015747,-0.144897,-0.002657,0.001353,-0.0033799999999999998,-32.869999,-19.559998999999998,-20.18,3a
2019-07-15_122203:660,-0.476379,-0.016753999999999998,-0.147949,-0.0020469999999999998,0.0009570000000000001,-0.0037159999999999997,-32.5,-18.870001000000002,-19.75,3a
2019-07-15_122203:680,-0.469757,-0.015228,-0.146423,-0.001192,0.00056,-0.0038380000000000003,-32.5,-18.870001000000002,-19.75,3a
2019-07-15_122203:700,-0.471283,-0.016266,-0.146912,0.00011999999999999999,-0.000325,-0.004052,-32.5,-18.870001000000002,-20.18,3a
2019-07-15_122203:720,-0.47332799999999997,-0.016266,-0.150482,0.001341,-0.001576,-0.004113,-32.5,-18.870001000000002,-20.18,3a
2019-07-15_122203:740,-0.47689799999999993,-0.017792,-0.152527,0.002775,-0.002095,-0.003228,-32.5,-18.870001000000002,-20.18,3a
2019-07-15_122203:760,-0.48349,-0.016266,-0.154541,0.004301,-0.001912,-0.003563,-32.869999,-19.559998999999998,-20.5,3a
2019-07-15_122203:780,-0.48300200000000004,-0.015747,-0.153534,0.005918,-0.001027,-0.004357,-32.869999,-19.559998999999998,-20.5,3a
2019-07-15_122203:800,-0.485016,-0.011169,-0.153534,0.007109000000000001,7.2e-05,-0.005577,-32.869999,-20.0,-20.18,3a
2019-07-15_122203:820,-0.49111899999999997,-0.006592,-0.151001,0.0072310000000000004,0.0014759999999999999,-0.006035,-32.869999,-20.0,-20.18,3a
2019-07-15_122203:840,-0.49468999999999996,-0.0025329999999999997,-0.151489,0.006834000000000001,0.00352,-0.006554000000000001,-32.869999,-20.0,-20.18,3a
2019-07-15_122203:860,-0.484009,-0.001495,-0.150482,0.005522,0.005016,-0.0075,-31.75,-20.0,-19.75,3a
2019-07-15_122203:880,-0.477905,0.0055850000000000006,-0.147949,0.004331000000000001,0.005779,-0.0075,-31.75,-20.0,-19.75,3a
2019-07-15_122203:900,-0.47842399999999996,0.009644,-0.14743,0.00247,0.006358,-0.00689,-32.5,-20.370001000000002,-20.5,3a
2019-07-15_122203:920,-0.48095699999999997,0.011169,-0.146912,0.000334,0.006236,-0.005364,-32.5,-20.370001000000002,-20.5,3a
2019-07-15_122203:940,-0.46670500000000004,0.011687999999999999,-0.142334,-0.00165,0.00584,-0.0028309999999999997,-32.5,-20.370001000000002,-20.5,3a
2019-07-15_122203:960,-0.466217,0.013213999999999998,-0.14386,-0.0036340000000000005,0.004497,-0.001397,-31.5,-20.0,-20.5,3a
2019-07-15_122203:980,-0.46670500000000004,0.015228,-0.142853,-0.005739,0.002849,7.000000000000001e-06,-31.5,-20.0,-20.5,3a
2019-07-15_122204:000,-0.467743,0.015228,-0.142853,-0.007876000000000001,0.001628,0.001716,-31.75,-19.559998999999998,-21.0,3a
2019-07-15_122204:020,-0.47079499999999996,0.013213999999999998,-0.145386,-0.010378,0.00056,0.002845,-31.75,-19.559998999999998,-21.0,3a
2019-07-15_122204:040,-0.47280900000000003,0.011169,-0.145386,-0.012392,0.00022400000000000002,0.004036,-31.75,-19.559998999999998,-21.0,3a
2019-07-15_122204:060,-0.47995,0.009125,-0.145905,-0.014376,0.000133,0.005104,-32.18,-19.559998999999998,-20.18,3a
2019-07-15_122204:080,-0.48043800000000003,0.006072999999999999,-0.145386,-0.015688,0.0008039999999999999,0.005684000000000001,-32.18,-19.559998999999998,-20.18,3a
2019-07-15_122204:100,-0.481476,0.001007,-0.145905,-0.016634,0.0014759999999999999,0.005409000000000001,-31.75,-19.559998999999998,-21.0,3a
2019-07-15_122204:120,-0.48196400000000006,0.0,-0.145386,-0.016939,0.002239,0.005104,-31.75,-19.559998999999998,-21.0,3a
2019-07-15_122204:140,-0.481476,-0.0030210000000000002,-0.143372,-0.017031,0.002757,0.005012,-31.75,-19.559998999999998,-21.0,3a
2019-07-15_122204:160,-0.481476,-0.004059,-0.140808,-0.017306000000000002,0.003093,0.004768,-32.5,-20.75,-20.18,3a
2019-07-15_122204:180,-0.473846,-0.002014,-0.136749,-0.017366999999999997,0.002788,0.00489,-32.5,-20.75,-20.18,3a
2019-07-15_122204:200,-0.47180200000000005,-0.001007,-0.136749,-0.017366999999999997,0.001964,0.005104,-32.869999,-20.75,-19.0,3a
2019-07-15_122204:220,-0.47332799999999997,-0.000488,-0.136749,-0.017884999999999998,0.001018,0.004707,-32.869999,-20.75,-19.0,3a
2019-07-15_122204:240,-0.476379,0.001495,-0.137268,-0.018221,0.00022400000000000002,0.004036,-32.869999,-20.75,-19.0,3a
2019-07-15_122204:260,-0.48095699999999997,0.0025329999999999997,-0.141846,-0.019198,-0.000172,0.0033640000000000002,-32.18,-20.0,-19.0,3a
2019-07-15_122204:280,-0.48754899999999995,0.004059,-0.141327,-0.02054,0.000682,0.002235,-32.18,-20.0,-19.0,3a
2019-07-15_122204:300,-0.489594,0.002014,-0.144897,-0.023195,0.0035810000000000004,-0.00216,-32.869999,-20.370001000000002,-19.370001000000002,3a
2019-07-15_122204:320,-0.48300200000000004,0.001495,-0.147949,-0.024111,0.003825,-0.0032890000000000003,-32.869999,-20.370001000000002,-19.370001000000002,3a
2019-07-15_122204:340,-0.477905,0.000488,-0.148956,-0.025271000000000002,0.003886,-0.004113,-32.869999,-20.370001000000002,-19.370001000000002,3a
2019-07-15_122204:360,-0.474854,-0.001007,-0.146912,-0.025727999999999997,0.003032,-0.004296,-32.869999,-20.370001000000002,-18.559998999999998,3a
2019-07-15_122204:380,-0.472321,0.0,-0.137268,-0.024782,0.001598,-0.004753,-32.869999,-20.370001000000002,-18.559998999999998,3a
2019-07-15_122204:400,-0.47079499999999996,0.000488,-0.138794,-0.023928,0.00114,-0.004692,-32.18,-21.059998999999998,-18.559998999999998,3a
2019-07-15_122204:420,-0.473846,0.0030210000000000002,-0.13623,-0.021853,-0.000722,-0.003899,-32.18,-21.059998999999998,-18.559998999999998,3a
2019-07-15_122204:440,-0.47689799999999993,0.005065999999999999,-0.138275,-0.020600999999999998,-0.0008439999999999999,-0.0034409999999999996,-32.18,-21.059998999999998,-18.559998999999998,3a
2019-07-15_122204:460,-0.478912,0.012695,-0.14032,-0.020266,-0.0007830000000000001,-0.0032890000000000003,-32.5,-21.5,-19.0,3a
2019-07-15_122204:480,-0.478912,0.014740000000000001,-0.140808,-0.01935,-0.00124,-0.002037,-32.5,-21.5,-19.0,3a
2019-07-15_122204:500,-0.47995,0.020325,-0.14386,-0.019472,-0.001057,-0.00158,-32.5,-21.5,-19.0,3a
2019-07-15_122204:520,-0.47995,0.019806,-0.14386,-0.019808000000000003,-0.00124,-0.000725,-32.18,-22.559998999999998,-17.370001000000002,3a
2019-07-15_122204:540,-0.47689799999999993,0.020844,-0.144379,-0.019747,-0.001973,-0.00045099999999999996,-32.18,-22.559998999999998,-17.370001000000002,3a
2019-07-15_122204:560,-0.47433500000000006,0.020325,-0.144379,-0.019472,-0.002095,6.8e-05,-32.18,-22.559998999999998,-18.559998999999998,3a
2019-07-15_122204:580,-0.478912,0.01828,-0.141846,-0.018892,-0.002431,0.002754,-32.18,-22.559998999999998,-18.559998999999998,3a
2019-07-15_122204:600,-0.47995,0.017792,-0.144379,-0.018435,-0.002309,0.003517,-31.5,-22.059998999999998,-17.75,3a
2019-07-15_122204:620,-0.474854,0.015228,-0.144379,-0.015962999999999998,-0.002309,0.0065379999999999995,-31.5,-22.059998999999998,-17.75,3a
2019-07-15_122204:640,-0.472321,0.012177,-0.144379,-0.013888,-0.0024920000000000003,0.008003,-31.5,-22.059998999999998,-17.75,3a
2019-07-15_122204:660,-0.47180200000000005,0.010651,-0.146912,-0.012697,-0.002644,0.009009999999999999,-31.059998999999998,-22.059998999999998,-17.0,3a
2019-07-15_122204:680,-0.477905,0.010651,-0.146912,-0.009706999999999999,-0.00298,0.010719,-31.059998999999998,-22.059998999999998,-17.0,3a
2019-07-15_122204:700,-0.481476,0.013702,-0.14843800000000001,-0.009249,-0.0024920000000000003,0.011146,-31.059998999999998,-22.059998999999998,-17.0,3a
2019-07-15_122204:720,-0.478912,0.014221000000000001,-0.14843800000000001,-0.008669,-0.001118,0.011054999999999999,-31.5,-22.870001000000002,-16.870001000000002,3a
2019-07-15_122204:740,-0.477386,0.013213999999999998,-0.14843800000000001,-0.008974,-0.0007830000000000001,0.009803000000000001,-31.5,-22.870001000000002,-16.870001000000002,3a
2019-07-15_122204:760,-0.47280900000000003,0.012695,-0.148956,-0.009127,-0.000661,0.009681,-32.5,-22.18,-17.0,3a
2019-07-15_122204:780,-0.475372,0.010651,-0.147949,-0.010103000000000001,-0.001057,0.009071,-32.5,-22.18,-17.0,3a
2019-07-15_122204:800,-0.477905,0.010162000000000001,-0.148956,-0.010378,-0.00124,0.008612999999999999,-32.18,-22.18,-16.870001000000002,3a
2019-07-15_122204:820,-0.475861,0.007599,-0.149475,-0.011507,-0.001515,0.007698,-32.18,-22.18,-16.870001000000002,3a
2019-07-15_122204:840,-0.47842399999999996,0.004547,-0.149475,-0.011965,-0.001454,0.006934999999999999,-32.18,-22.18,-16.870001000000002,3a
2019-07-15_122204:860,-0.47943100000000005,0.004547,-0.152527,-0.012118,-0.00124,0.006691,-31.75,-21.059998999999998,-16.5,3a
2019-07-15_122204:880,-0.477386,0.001495,-0.151489,-0.012179,-0.001179,0.0058969999999999995,-31.75,-21.059998999999998,-16.5,3a
2019-07-15_122204:900,-0.475861,0.001007,-0.151489,-0.012118,-0.001118,0.005287,-31.75,-21.059998999999998,-16.5,3a
2019-07-15_122204:920,-0.477905,0.0,-0.152008,-0.011781999999999999,-0.001118,0.004371,-32.5,-21.870001000000002,-15.75,3a
2019-07-15_122204:940,-0.48043800000000003,-0.000488,-0.154541,-0.010775,-0.000264,0.0037,-32.5,-21.870001000000002,-15.75,3a
2019-07-15_122204:960,-0.476379,-0.001007,-0.156586,-0.01047,1.1e-05,0.003517,-31.75,-21.5,-16.870001000000002,3a
2019-07-15_122204:980,-0.474854,0.0,-0.15506,-0.009463,0.000682,0.003242,-31.75,-21.5,-16.870001000000002,3a
2019-07-15_122205:000,-0.47332799999999997,0.001495,-0.15506,-0.009249,0.000743,0.003303,-31.75,-21.5,-16.870001000000002,3a
2019-07-15_122205:020,-0.47332799999999997,0.002014,-0.15506,-0.00873,0.000865,0.003425,-32.18,-22.18,-15.75,3a
2019-07-15_122205:040,-0.470276,0.001007,-0.156067,-0.008516,0.0008039999999999999,0.003517,-32.18,-22.18,-15.75,3a
2019-07-15_122205:060,-0.472321,0.001007,-0.155548,-0.008333,0.000499,0.003578,-33.25,-21.5,-17.25,3a
2019-07-15_122205:080,-0.473846,0.002014,-0.156067,-0.00812,0.000346,0.003761,-33.25,-21.5,-17.25,3a
2019-07-15_122205:100,-0.47433500000000006,0.0025329999999999997,-0.1586,-0.008333,0.00056,0.003822,-33.25,-21.5,-17.25,3a
2019-07-15_122205:120,-0.474854,0.001007,-0.1586,-0.008669,0.000682,0.004493,-33.25,-21.870001000000002,-16.059998999999998,3a
2019-07-15_122205:140,-0.47280900000000003,0.000488,-0.157593,-0.00873,0.000621,0.004829,-33.25,-21.870001000000002,-16.059998999999998,3a
2019-07-15_122205:160,-0.47689799999999993,-0.001007,-0.157593,-0.00873,0.000865,0.004646,-32.5,-21.870001000000002,-17.25,3a
2019-07-15_122205:180,-0.477905,-0.0025329999999999997,-0.157074,-0.008912999999999999,0.0014759999999999999,0.0043100000000000005,-32.5,-21.870001000000002,-17.25,3a
2019-07-15_122205:200,-0.475372,-0.000488,-0.157074,-0.008974,0.002361,0.003517,-32.5,-21.870001000000002,-17.25,3a
2019-07-15_122205:220,-0.476379,-0.001495,-0.157074,-0.009309999999999999,0.002574,0.003151,-33.560001,-22.25,-15.75,3a
2019-07-15_122205:240,-0.47689799999999993,-0.001007,-0.155548,-0.009646,0.002757,0.002967,-33.560001,-22.25,-15.75,3a
2019-07-15_122205:260,-0.473846,-0.001495,-0.156067,-0.010195000000000001,0.002757,0.002388,-33.25,-22.18,-15.37,3a
2019-07-15_122205:280,-0.475372,-0.001007,-0.157593,-0.010531,0.002788,0.001716,-33.25,-22.18,-15.37,3a
2019-07-15_122205:300,-0.47433500000000006,-0.000488,-0.157593,-0.010927,0.002574,0.00132,-33.25,-22.18,-15.37,3a
2019-07-15_122205:320,-0.47433500000000006,-0.000488,-0.156586,-0.011233,0.002361,0.000923,-32.5,-21.5,-15.37,3a
2019-07-15_122205:340,-0.474854,-0.001007,-0.155548,-0.011233,0.002574,0.000709,-32.5,-21.5,-15.37,3a
2019-07-15_122205:360,-0.473846,-0.002014,-0.15506,-0.010927,0.002696,0.000129,-33.560001,-21.059998999999998,-16.059998999999998,3a
2019-07-15_122205:380,-0.472321,-0.001495,-0.153015,-0.01047,0.002757,-0.00023700000000000001,-33.560001,-21.059998999999998,-16.059998999999998,3a
2019-07-15_122205:400,-0.473846,0.0,-0.154022,-0.00992,0.0023,-0.000664,-33.560001,-21.059998999999998,-16.059998999999998,3a
2019-07-15_122205:420,-0.47280900000000003,-0.001007,-0.153534,-0.009309999999999999,0.001994,-0.0013050000000000002,-33.25,-21.870001000000002,-15.75,3a
2019-07-15_122205:440,-0.473846,0.0,-0.151489,-0.00873,0.001994,-0.00216,-33.25,-21.870001000000002,-15.75,3a
2019-07-15_122205:460,-0.47433500000000006,0.000488,-0.153015,-0.007998,0.001964,-0.002648,-32.869999,-21.870001000000002,-16.059998999999998,3a
2019-07-15_122205:480,-0.476379,0.0035399999999999997,-0.150482,-0.007387,0.001842,-0.003167,-32.869999,-21.870001000000002,-16.059998999999998,3a
2019-07-15_122205:500,-0.477386,0.0030210000000000002,-0.151001,-0.0066549999999999995,0.002055,-0.0034409999999999996,-32.869999,-21.870001000000002,-16.059998999999998,3a
2019-07-15_122205:520,-0.47689799999999993,0.004059,-0.151001,-0.005739,0.002391,-0.003563,-32.18,-21.870001000000002,-15.75,3a
2019-07-15_122205:540,-0.47433500000000006,0.0055850000000000006,-0.149963,-0.004946,0.002361,-0.0033799999999999998,-32.18,-21.870001000000002,-15.75,3a
2019-07-15_122205:560,-0.47943100000000005,0.006592,-0.14843800000000001,-0.00403,0.001994,-0.002251,-32.869999,-22.559998999999998,-14.87,3a
2019-07-15_122205:580,-0.475861,0.009644,-0.148956,-0.003573,0.0019030000000000002,-0.0012439999999999999,-32.869999,-22.559998999999998,-14.87,3a
2019-07-15_122205:600,-0.47689799999999993,0.009125,-0.151001,-0.003054,0.0017809999999999998,-0.000634,-32.869999,-22.559998999999998,-14.87,3a
2019-07-15_122205:620,-0.473846,0.011687999999999999,-0.151489,-0.002779,0.001994,-0.0008470000000000001,-32.18,-22.559998999999998,-14.18,3a
2019-07-15_122205:640,-0.47280900000000003,0.011169,-0.15506,-0.002443,0.0017809999999999998,7.000000000000001e-06,-32.18,-22.559998999999998,-14.18,3a
2019-07-15_122205:660,-0.46926899999999994,0.012695,-0.148956,-0.0025960000000000002,0.0016589999999999999,0.0008619999999999999,-32.869999,-22.559998999999998,-15.37,3a
2019-07-15_122205:680,-0.475861,0.012695,-0.153534,-0.002993,0.001201,0.001777,-32.869999,-22.559998999999998,-15.37,3a
2019-07-15_122205:700,-0.473846,0.013213999999999998,-0.151489,-0.0031149999999999997,0.0016589999999999999,0.0021739999999999997,-32.869999,-22.559998999999998,-15.37,3a
2019-07-15_122205:720,-0.47332799999999997,0.011687999999999999,-0.154022,-0.003939,0.0017809999999999998,0.002693,-32.869999,-22.559998999999998,-16.059998999999998,3a
2019-07-15_122205:740,-0.473846,0.010651,-0.154541,-0.004549,0.001628,0.003242,-32.869999,-22.559998999999998,-16.059998999999998,3a
2019-07-15_122205:760,-0.473846,0.009125,-0.154541,-0.0051600000000000005,0.001415,0.003578,-31.75,-21.870001000000002,-14.87,3a
2019-07-15_122205:780,-0.474854,0.005065999999999999,-0.154541,-0.005556,0.0012619999999999999,0.003425,-31.75,-21.870001000000002,-14.87,3a
2019-07-15_122205:800,-0.47433500000000006,0.0025329999999999997,-0.154022,-0.005739,0.0012619999999999999,0.0030280000000000003,-31.75,-21.870001000000002,-14.87,3a
2019-07-15_122205:820,-0.476379,0.001495,-0.153534,-0.0056170000000000005,0.001292,0.002571,-32.869999,-22.559998999999998,-14.56,3a
2019-07-15_122205:840,-0.475861,0.000488,-0.153015,-0.005282,0.001415,0.0021739999999999997,-32.869999,-22.559998999999998,-14.56,3a
2019-07-15_122205:860,-0.47433500000000006,0.001007,-0.151489,-0.004549,0.001537,0.002357,-33.560001,-21.870001000000002,-16.059998999999998,3a
2019-07-15_122205:880,-0.471283,0.0,-0.151489,-0.004,0.0014759999999999999,0.001716,-33.560001,-21.870001000000002,-16.059998999999998,3a
2019-07-15_122205:900,-0.472321,0.001007,-0.152008,-0.0036950000000000004,0.000865,0.001167,-33.560001,-21.870001000000002,-16.059998999999998,3a
2019-07-15_122205:920,-0.472321,0.005065999999999999,-0.149475,-0.0033280000000000002,0.000682,0.001106,-31.5,-21.5,-14.87,3a
2019-07-15_122205:940,-0.472321,0.006072999999999999,-0.150482,-0.0031149999999999997,0.000407,0.001106,-31.5,-21.5,-14.87,3a
2019-07-15_122205:960,-0.473846,0.007599,-0.152008,-0.003054,-0.000172,0.001258,-33.25,-22.18,-15.37,3a
2019-07-15_122205:980,-0.47433500000000006,0.009125,-0.152008,-0.003237,-0.00044699999999999997,0.001716,-33.25,-22.18,-15.37,3a
2019-07-15_122206:000,-0.48095699999999997,0.008118,-0.152527,-0.003512,-5e-05,0.002357,-33.25,-22.18,-15.37,3a
2019-07-15_122206:020,-0.48196400000000006,0.008636,-0.151489,-0.003939,0.00056,0.002571,-32.18,-21.870001000000002,-14.56,3a
2019-07-15_122206:040,-0.48043800000000003,0.006592,-0.152008,-0.004427,0.001628,0.002754,-32.18,-21.870001000000002,-14.56,3a
2019-07-15_122206:060,-0.47943100000000005,0.006072999999999999,-0.151489,-0.004732,0.001964,0.002571,-32.869999,-22.18,-15.37,3a
2019-07-15_122206:080,-0.47943100000000005,0.0055850000000000006,-0.149963,-0.004946,0.002574,0.0021739999999999997,-32.869999,-22.18,-15.37,3a
2019-07-15_122206:100,-0.476379,0.002014,-0.151489,-0.005404,0.003032,0.001838,-32.869999,-22.18,-15.37,3a
2019-07-15_122206:120,-0.474854,0.0,-0.149963,-0.005404,0.003124,0.001564,-33.25,-22.18,-14.56,3a
2019-07-15_122206:140,-0.474854,-0.001007,-0.149963,-0.005129,0.003307,0.001228,-33.25,-22.18,-14.56,3a
2019-07-15_122206:160,-0.477386,-0.000488,-0.149475,-0.004793,0.00349,0.000831,-32.869999,-21.870001000000002,-15.75,3a
2019-07-15_122206:180,-0.478912,0.000488,-0.145905,-0.004397,0.00352,0.000923,-32.869999,-21.870001000000002,-15.75,3a
2019-07-15_122206:200,-0.477905,0.0,-0.14843800000000001,-0.004213000000000001,0.003886,0.000831,-32.869999,-21.870001000000002,-15.75,3a
2019-07-15_122206:220,-0.475861,0.001007,-0.146912,-0.004,0.003917,0.000648,-33.560001,-22.18,-14.18,3a
2019-07-15_122206:240,-0.47433500000000006,0.000488,-0.146423,-0.00403,0.0031850000000000003,0.000526,-33.560001,-22.18,-14.18,3a
2019-07-15_122206:260,-0.475372,0.002014,-0.145905,-0.004213000000000001,0.002849,0.000404,-33.25,-21.870001000000002,-15.75,3a
2019-07-15_122206:280,-0.475372,0.000488,-0.14386,-0.004336,0.002513,0.000343,-33.25,-21.870001000000002,-15.75,3a
2019-07-15_122206:300,-0.473846,0.0,-0.144379,-0.004336,0.002116,-5.4000000000000005e-05,-33.25,-21.870001000000002,-15.75,3a
2019-07-15_122206:320,-0.47433500000000006,0.001007,-0.146423,-0.004397,0.001628,-0.000389,-33.25,-21.870001000000002,-16.5,3a
2019-07-15_122206:340,-0.477386,0.001495,-0.147949,-0.004488000000000001,0.001415,-0.00023700000000000001,-33.25,-21.870001000000002,-16.5,3a
2019-07-15_122206:360,-0.47842399999999996,0.002014,-0.148956,-0.004549,0.0014759999999999999,-0.00011499999999999999,-33.25,-22.18,-14.56,3a
2019-07-15_122206:380,-0.47842399999999996,0.0025329999999999997,-0.14743,-0.004671,0.0017809999999999998,7.000000000000001e-06,-33.25,-22.18,-14.56,3a
2019-07-15_122206:400,-0.476379,0.0030210000000000002,-0.14743,-0.004793,0.0017809999999999998,7.000000000000001e-06,-33.25,-22.18,-14.56,3a
2019-07-15_122206:420,-0.477386,0.0035399999999999997,-0.14843800000000001,-0.004824,0.0017809999999999998,0.000129,-33.25,-21.5,-15.37,3a
2019-07-15_122206:440,-0.477386,0.0035399999999999997,-0.148956,-0.004824,0.001628,0.000404,-33.25,-21.5,-15.37,3a
2019-07-15_122206:460,-0.477386,0.0035399999999999997,-0.149963,-0.005129,0.001964,0.000526,-32.869999,-21.870001000000002,-15.37,3a
2019-07-15_122206:480,-0.476379,0.005065999999999999,-0.147949,-0.005129,0.0019030000000000002,0.000496,-32.869999,-21.870001000000002,-15.37,3a
2019-07-15_122206:500,-0.475372,0.0025329999999999997,-0.147949,-0.005068,0.0016589999999999999,0.000404,-32.869999,-21.870001000000002,-15.37,3a
2019-07-15_122206:520,-0.475861,0.002014,-0.148956,-0.0048850000000000005,0.0017809999999999998,0.000526,-33.25,-22.25,-15.75,3a
2019-07-15_122206:540,-0.477905,0.002014,-0.148956,-0.004732,0.00172,-5.4000000000000005e-05,-33.25,-22.25,-15.75,3a
2019-07-15_122206:560,-0.475372,0.001495,-0.146912,-0.004427,0.001628,-0.000176,-32.869999,-22.18,-13.75,3a
2019-07-15_122206:580,-0.477386,0.000488,-0.150482,-0.0037560000000000002,0.00172,0.000587,-32.869999,-22.18,-13.75,3a
2019-07-15_122206:600,-0.47332799999999997,0.0025329999999999997,-0.148956,-0.003512,0.001842,0.00016,-32.869999,-22.18,-13.75,3a
2019-07-15_122206:620,-0.475372,0.001007,-0.150482,-0.0029010000000000004,0.001537,-0.000328,-33.25,-21.870001000000002,-14.56,3a
2019-07-15_122206:640,-0.475372,0.0055850000000000006,-0.150482,-0.0025960000000000002,0.001292,-0.00158,-33.25,-21.870001000000002,-14.56,3a
2019-07-15_122206:660,-0.475861,0.0030210000000000002,-0.152527,-0.002199,0.0012619999999999999,-0.000908,-34.0,-22.559998999999998,-14.56,3a
2019-07-15_122206:680,-0.476379,0.0035399999999999997,-0.149475,-0.001864,0.001201,-0.000389,-34.0,-22.559998999999998,-14.56,3a
2019-07-15_122206:700,-0.475372,0.005065999999999999,-0.150482,-0.001772,0.0016589999999999999,-0.00011499999999999999,-34.0,-22.559998999999998,-14.56,3a
2019-07-15_122206:720,-0.475372,0.004547,-0.153015,-0.0015890000000000001,0.0017809999999999998,0.00016,-33.25,-22.18,-14.87,3a
2019-07-15_122206:740,-0.474854,0.005065999999999999,-0.151489,-0.00165,0.001964,0.0007700000000000001,-33.25,-22.18,-14.87,3a
2019-07-15_122206:760,-0.475861,0.006072999999999999,-0.152008,-0.002169,0.001537,0.001258,-32.869999,-22.18,-14.18,3a
2019-07-15_122206:780,-0.47332799999999997,0.0035399999999999997,-0.151489,-0.002718,0.0014759999999999999,0.001777,-32.869999,-22.18,-14.18,3a
2019-07-15_122206:800,-0.473846,0.0025329999999999997,-0.152008,-0.003054,0.001018,0.001442,-32.869999,-22.18,-14.18,3a
2019-07-15_122206:820,-0.474854,0.001495,-0.151001,-0.003573,0.00056,0.001167,-34.0,-21.5,-14.18,3a
2019-07-15_122206:840,-0.47943100000000005,0.000488,-0.151489,-0.0033280000000000002,0.00056,0.001442,-34.0,-21.5,-14.18,3a
2019-07-15_122206:860,-0.477905,-0.000488,-0.152008,-0.00339,0.00114,0.001564,-33.560001,-21.870001000000002,-14.87,3a
2019-07-15_122206:880,-0.477905,-0.000488,-0.150482,-0.002993,0.001537,0.001716,-33.560001,-21.870001000000002,-14.87,3a
2019-07-15_122206:900,-0.477905,0.0,-0.150482,-0.002993,0.00172,0.000984,-33.560001,-21.870001000000002,-14.87,3a
2019-07-15_122206:920,-0.477905,0.002014,-0.149963,-0.0028399999999999996,0.0019030000000000002,0.001258,-33.560001,-22.559998999999998,-15.37,3a
2019-07-15_122206:940,-0.47689799999999993,0.002014,-0.14743,-0.003176,0.001964,0.001106,-33.560001,-22.559998999999998,-15.37,3a
2019-07-15_122206:960,-0.47689799999999993,0.001495,-0.148956,-0.0034509999999999996,0.002055,0.000831,-33.560001,-21.5,-16.5,3a
2019-07-15_122206:980,-0.477386,0.000488,-0.146912,-0.003664,0.0023,0.0008619999999999999,-33.560001,-21.5,-16.5,3a
2019-07-15_122207:000,-0.475372,0.0,-0.14743,-0.004213000000000001,0.0023,0.000465,-33.560001,-21.5,-16.5,3a
2019-07-15_122207:020,-0.474854,0.000488,-0.145386,-0.004152,0.0023,0.000404,-33.25,-21.5,-14.56,3a
2019-07-15_122207:040,-0.475861,0.0,-0.14386,-0.004,0.002055,0.000404,-33.25,-21.5,-14.56,3a
2019-07-15_122207:060,-0.476379,0.0,-0.145386,-0.0036950000000000004,0.00172,0.00016,-32.869999,-22.18,-15.75,3a
2019-07-15_122207:080,-0.478912,0.000488,-0.143372,-0.003573,0.0014759999999999999,0.000129,-32.869999,-22.18,-15.75,3a
2019-07-15_122207:100,-0.48095699999999997,0.000488,-0.146912,-0.00339,0.001964,0.000343,-32.869999,-22.18,-15.75,3a
2019-07-15_122207:120,-0.47842399999999996,0.001495,-0.146912,-0.0033280000000000002,0.001964,0.000221,-34.0,-22.18,-14.56,3a
2019-07-15_122207:140,-0.478912,0.0030210000000000002,-0.14386,-0.0032979999999999997,0.002177,0.000526,-34.0,-22.18,-14.56,3a
2019-07-15_122207:160,-0.47842399999999996,0.005065999999999999,-0.145905,-0.0037560000000000002,0.002513,0.0008619999999999999,-34.0,-22.18,-16.059998999999998,3a
2019-07-15_122207:180,-0.47689799999999993,0.005065999999999999,-0.143372,-0.004152,0.002513,0.000831,-34.0,-22.18,-16.059998999999998,3a
2019-07-15_122207:200,-0.475372,0.0035399999999999997,-0.144379,-0.004488000000000001,0.002391,0.001106,-34.0,-22.18,-16.059998999999998,3a
2019-07-15_122207:220,-0.474854,0.0025329999999999997,-0.144897,-0.005007,0.002177,0.001228,-32.869999,-21.5,-15.37,3a
2019-07-15_122207:240,-0.475372,0.002014,-0.142853,-0.005343,0.001598,0.00132,-32.869999,-21.5,-15.37,3a
2019-07-15_122207:260,-0.475372,0.000488,-0.144379,-0.005404,0.001201,0.001381,-32.869999,-21.870001000000002,-15.75,3a
2019-07-15_122207:280,-0.476379,-0.000488,-0.144897,-0.005282,0.00114,0.001045,-32.869999,-21.870001000000002,-15.75,3a
2019-07-15_122207:300,-0.478912,-0.001007,-0.145905,-0.005068,0.001201,0.000923,-32.869999,-21.870001000000002,-15.75,3a
2019-07-15_122207:320,-0.47842399999999996,-0.001007,-0.14743,-0.004732,0.001292,0.000984,-33.25,-22.559998999999998,-16.059998999999998,3a
2019-07-15_122207:340,-0.477905,-0.001495,-0.145386,-0.00461,0.0014759999999999999,0.000709,-33.25,-22.559998999999998,-16.059998999999998,3a
2019-07-15_122207:360,-0.47995,-0.001007,-0.14743,-0.004275,0.001598,0.000831,-33.25,-21.5,-15.37,3a
2019-07-15_122207:380,-0.477905,0.000488,-0.145386,-0.004,0.00172,0.000709,-33.25,-21.5,-15.37,3a
2019-07-15_122207:400,-0.477905,0.0,-0.146912,-0.00403,0.00172,0.0007700000000000001,-33.25,-21.5,-15.37,3a
2019-07-15_122207:420,-0.47689799999999993,0.001007,-0.14386,-0.004213000000000001,0.001842,0.001045,-32.869999,-21.5,-15.75,3a
2019-07-15_122207:440,-0.47842399999999996,0.0,-0.144379,-0.004336,0.00172,0.001045,-32.869999,-21.5,-15.75,3a
2019-07-15_122207:460,-0.476379,0.0,-0.144897,-0.004732,0.001628,0.0008619999999999999,-33.25,-20.75,-14.56,3a
2019-07-15_122207:480,-0.47689799999999993,-0.000488,-0.145386,-0.004671,0.0014759999999999999,0.000709,-33.25,-20.75,-14.56,3a
2019-07-15_122207:500,-0.47689799999999993,-0.001495,-0.145386,-0.004824,0.001353,0.000343,-33.25,-20.75,-14.56,3a
2019-07-15_122207:520,-0.47842399999999996,0.0,-0.145905,-0.0048850000000000005,0.001598,6.8e-05,-33.560001,-21.870001000000002,-15.37,3a
2019-07-15_122207:540,-0.47689799999999993,-0.001495,-0.145386,-0.004488000000000001,0.001537,-0.000176,-33.560001,-21.870001000000002,-15.37,3a
2019-07-15_122207:560,-0.476379,-0.002014,-0.14743,-0.004,0.00172,7.000000000000001e-06,-32.18,-22.18,-13.37,3a
2019-07-15_122207:580,-0.47689799999999993,-0.0025329999999999997,-0.145386,-0.00339,0.001415,-0.00023700000000000001,-32.18,-22.18,-13.37,3a
2019-07-15_122207:600,-0.47995,0.000488,-0.14843800000000001,-0.0028399999999999996,0.001628,-0.000664,-32.18,-22.18,-13.37,3a
2019-07-15_122207:620,-0.48196400000000006,0.001007,-0.14743,-0.002443,0.0024519999999999998,0.000343,-32.5,-21.870001000000002,-14.56,3a
2019-07-15_122207:640,-0.476379,0.0030210000000000002,-0.14743,-0.002718,0.002788,0.000404,-32.5,-21.870001000000002,-14.56,3a
2019-07-15_122207:660,-0.475861,0.004059,-0.14743,-0.002932,0.002757,0.000587,-34.0,-21.870001000000002,-14.87,3a
2019-07-15_122207:680,-0.47433500000000006,0.005065999999999999,-0.145386,-0.003664,0.0024519999999999998,-0.000664,-34.0,-21.870001000000002,-14.87,3a
2019-07-15_122207:700,-0.476379,0.004059,-0.146912,-0.0037560000000000002,0.002055,-0.000573,-34.0,-21.870001000000002,-14.87,3a
2019-07-15_122207:720,-0.477905,0.002014,-0.145386,-0.004,0.002177,0.000129,-32.869999,-21.5,-14.56,3a
2019-07-15_122207:740,-0.477905,0.001007,-0.145905,-0.0037560000000000002,0.002635,6.8e-05,-32.869999,-21.5,-14.56,3a
2019-07-15_122207:760,-0.47689799999999993,0.0025329999999999997,-0.144379,-0.0032979999999999997,0.002574,0.000465,-34.369999,-21.870001000000002,-16.059998999999998,3a
2019-07-15_122207:780,-0.477386,0.0025329999999999997,-0.144379,-0.003054,0.002513,0.000648,-34.369999,-21.870001000000002,-16.059998999999998,3a
2019-07-15_122207:800,-0.477905,0.0030210000000000002,-0.144897,-0.003054,0.002696,0.000984,-34.369999,-21.870001000000002,-16.059998999999998,3a
2019-07-15_122207:820,-0.47842399999999996,0.0025329999999999997,-0.14386,-0.0034509999999999996,0.002849,0.001106,-34.369999,-22.18,-14.87,3a
2019-07-15_122207:840,-0.47433500000000006,0.002014,-0.146423,-0.003664,0.002757,0.0008619999999999999,-34.369999,-22.18,-14.87,3a
2019-07-15_122207:860,-0.47433500000000006,0.001495,-0.148956,-0.003939,0.001994,0.000587,-33.25,-22.18,-14.56,3a
2019-07-15_122207:880,-0.482483,0.0,-0.14032,-0.003817,0.002696,0.00028199999999999997,-33.25,-22.18,-14.56,3a
2019-07-15_122207:900,-0.488068,-0.001495,-0.148956,-0.004091,0.003246,-0.00011499999999999999,-33.25,-22.18,-14.56,3a
2019-07-15_122207:920,-0.489075,-0.002014,-0.145905,-0.0036950000000000004,0.00471,0.000404,-32.5,-21.5,-13.75,3a
2019-07-15_122207:940,-0.48654200000000003,-0.001007,-0.145905,-0.0032979999999999997,0.006297,-0.000389,-32.5,-21.5,-13.75,3a
2019-07-15_122207:960,-0.489075,0.0,-0.143372,-0.0028399999999999996,0.007426,-0.000573,-33.25,-21.870001000000002,-15.37,3a
2019-07-15_122207:980,-0.49111899999999997,0.002014,-0.14032,-0.0028399999999999996,0.009226999999999999,7.000000000000001e-06,-33.25,-21.870001000000002,-15.37,3a
2019-07-15_122208:000,-0.48754899999999995,0.0025329999999999997,-0.140808,-0.003237,0.011211,-0.000786,-33.25,-21.870001000000002,-15.37,3a
2019-07-15_122208:020,-0.48349,0.0025329999999999997,-0.137756,-0.003573,0.012584,-0.000908,-34.0,-21.5,-14.56,3a
2019-07-15_122208:040,-0.47995,0.000488,-0.133179,-0.0036340000000000005,0.012065000000000001,-0.0008470000000000001,-34.0,-21.5,-14.56,3a
2019-07-15_122208:060,-0.477905,0.000488,-0.131653,-0.00339,0.011943,-0.001366,-34.369999,-22.18,-13.37,3a
2019-07-15_122208:080,-0.48858599999999996,0.0,-0.130127,-0.003054,0.012126000000000001,-0.001366,-34.369999,-22.18,-13.37,3a
2019-07-15_122208:100,-0.488068,0.000488,-0.130127,-0.0025960000000000002,0.01292,-0.001702,-34.369999,-22.18,-13.37,3a
2019-07-15_122208:120,-0.481476,0.000488,-0.127594,-0.0021079999999999996,0.013133,-0.001458,-34.0,-21.870001000000002,-13.75,3a
2019-07-15_122208:140,-0.477386,0.001495,-0.126068,-0.0017109999999999998,0.012798,-0.000786,-34.0,-21.870001000000002,-13.75,3a
2019-07-15_122208:160,-0.48043800000000003,0.001495,-0.12353499999999999,-0.001314,0.012126000000000001,-0.000786,-34.0,-21.5,-13.75,3a
2019-07-15_122208:180,-0.482483,0.0025329999999999997,-0.121002,-0.00107,0.011668000000000001,-0.000634,-34.0,-21.5,-13.75,3a
2019-07-15_122208:200,-0.484009,0.0030210000000000002,-0.119965,-0.001009,0.011668000000000001,-0.000664,-34.0,-21.5,-13.75,3a
2019-07-15_122208:220,-0.48300200000000004,0.0030210000000000002,-0.119476,-0.001192,0.01115,-0.000664,-34.0,-21.870001000000002,-12.56,3a
2019-07-15_122208:240,-0.477905,0.0030210000000000002,-0.11795,-0.001192,0.010265,-0.00023700000000000001,-34.0,-21.870001000000002,-12.56,3a
2019-07-15_122208:260,-0.478912,0.0035399999999999997,-0.11691300000000002,-0.001253,0.009073999999999999,6.8e-05,-34.0,-21.5,-12.18,3a
2019-07-15_122208:280,-0.48706099999999997,0.0030210000000000002,-0.11438,-0.001314,0.008342,6.8e-05,-34.0,-21.5,-12.18,3a
2019-07-15_122208:300,-0.48754899999999995,0.004059,-0.11438,-0.001314,0.00822,-0.000328,-34.0,-21.5,-12.18,3a
2019-07-15_122208:320,-0.484009,0.0030210000000000002,-0.111847,-0.00165,0.008159,7.000000000000001e-06,-34.5,-22.18,-12.56,3a
2019-07-15_122208:340,-0.48196400000000006,0.000488,-0.10928299999999999,-0.0017109999999999998,0.008006000000000001,7.000000000000001e-06,-34.5,-22.18,-12.56,3a
2019-07-15_122208:360,-0.48349,0.0030210000000000002,-0.110321,-0.001467,0.007213,-5.4000000000000005e-05,-34.869999,-21.5,-12.18,3a
2019-07-15_122208:380,-0.48349,0.0035399999999999997,-0.108795,-0.001192,0.006297,6.8e-05,-34.869999,-21.5,-12.18,3a
2019-07-15_122208:400,-0.48858599999999996,0.004059,-0.10928299999999999,-0.001772,0.005779,-0.000176,-34.869999,-21.5,-12.18,3a
2019-07-15_122208:420,-0.488068,0.004059,-0.108276,-0.0018030000000000001,0.005901,0.00016,-34.5,-21.5,-11.37,3a
2019-07-15_122208:440,-0.48654200000000003,0.004059,-0.108795,-0.002199,0.006175,0.000496,-34.5,-21.5,-11.37,3a
2019-07-15_122208:460,-0.486023,0.004059,-0.108276,-0.0025050000000000003,0.006175,0.000496,-35.18,-21.059998999999998,-12.56,3a
2019-07-15_122208:480,-0.489594,0.004059,-0.10775799999999999,-0.0028399999999999996,0.005779,0.000496,-35.18,-21.059998999999998,-12.56,3a
2019-07-15_122208:500,-0.489075,0.0025329999999999997,-0.107269,-0.002932,0.00584,0.000923,-35.18,-21.059998999999998,-12.56,3a
2019-07-15_122208:520,-0.48754899999999995,0.001495,-0.104706,-0.002993,0.00584,0.00132,-36.0,-21.870001000000002,-11.87,3a
2019-07-15_122208:540,-0.485016,0.002014,-0.103699,-0.003176,0.005748,0.001381,-36.0,-21.870001000000002,-11.87,3a
2019-07-15_122208:560,-0.488068,0.0,-0.101685,-0.003237,0.005351,0.001655,-35.18,-22.559998999999998,-11.5,3a
2019-07-15_122208:580,-0.48858599999999996,0.000488,-0.09963999999999999,-0.0031149999999999997,0.005107,0.001625,-35.18,-22.559998999999998,-11.5,3a
2019-07-15_122208:600,-0.48654200000000003,0.0,-0.097595,-0.002932,0.004771,0.001381,-35.18,-22.559998999999998,-11.5,3a
2019-07-15_122208:620,-0.48858599999999996,-0.001007,-0.097595,-0.002657,0.004161,0.001381,-33.68,-22.18,-12.25,3a
2019-07-15_122208:640,-0.490112,-0.001495,-0.095581,-0.0025960000000000002,0.003886,0.000709,-33.68,-22.18,-12.25,3a
2019-07-15_122208:660,-0.48754899999999995,0.0,-0.096069,-0.0025050000000000003,0.0034289999999999998,0.000709,-34.5,-21.870001000000002,-12.18,3a
2019-07-15_122208:680,-0.49365200000000004,-0.001007,-0.092529,-0.0022600000000000003,0.003124,0.001625,-34.5,-21.870001000000002,-12.18,3a
2019-07-15_122208:700,-0.489075,0.0,-0.09353600000000001,-0.002321,0.003032,0.001838,-34.5,-21.870001000000002,-12.18,3a
2019-07-15_122208:720,-0.492645,-0.000488,-0.094055,-0.002169,0.002849,0.001777,-36.0,-21.5,-11.75,3a
2019-07-15_122208:740,-0.49365200000000004,0.0,-0.094055,-0.0025960000000000002,0.0029100000000000003,0.001106,-36.0,-21.5,-11.75,3a
2019-07-15_122208:760,-0.492126,0.001007,-0.09454299999999999,-0.002657,0.0036420000000000003,0.00132,-34.869999,-21.5,-12.68,3a
2019-07-15_122208:780,-0.491638,0.0,-0.09301799999999999,-0.002932,0.0041,0.0021739999999999997,-34.869999,-21.5,-12.68,3a
2019-07-15_122208:800,-0.489594,-0.000488,-0.09301799999999999,-0.003176,0.004314,0.002357,-34.869999,-21.5,-12.68,3a
2019-07-15_122208:820,-0.490601,-0.001495,-0.092529,-0.0034509999999999996,0.004161,0.002449,-34.369999,-21.5,-11.37,3a
2019-07-15_122208:840,-0.494171,-0.0025329999999999997,-0.090485,-0.003664,0.004497,0.002235,-34.369999,-21.5,-11.37,3a
2019-07-15_122208:860,-0.49517799999999995,-0.0025329999999999997,-0.091003,-0.003878,0.0045579999999999996,0.001991,-34.369999,-21.5,-11.75,3a
2019-07-15_122208:880,-0.492645,-0.0030210000000000002,-0.088959,-0.00403,0.004894,0.001777,-34.369999,-21.5,-11.75,3a
2019-07-15_122208:900,-0.495697,-0.0025329999999999997,-0.090485,-0.004152,0.004954999999999999,0.00132,-34.369999,-21.5,-11.75,3a
2019-07-15_122208:920,-0.494171,-0.0030210000000000002,-0.088959,-0.004,0.005565,0.0008619999999999999,-34.75,-21.870001000000002,-10.25,3a
2019-07-15_122208:940,-0.496216,-0.0025329999999999997,-0.087952,-0.003939,0.005565,0.000526,-34.75,-21.870001000000002,-10.25,3a
2019-07-15_122208:960,-0.49111899999999997,-0.001007,-0.086914,-0.003817,0.006023,0.000984,-34.869999,-21.5,-11.0,3a
2019-07-15_122208:980,-0.489594,-0.001495,-0.083862,-0.003817,0.005961999999999999,0.000984,-34.869999,-21.5,-11.0,3a
2019-07-15_122209:000,-0.491638,-0.002014,-0.084381,-0.003939,0.00584,0.00016,-34.869999,-21.5,-11.0,3a
2019-07-15_122209:020,-0.49111899999999997,-0.002014,-0.085388,-0.0037560000000000002,0.005626,0.000648,-34.5,-21.5,-11.0,3a
2019-07-15_122209:040,-0.489594,-0.0025329999999999997,-0.085388,-0.0037560000000000002,0.005412,0.0008619999999999999,-34.5,-21.5,-11.0,3a
2019-07-15_122209:060,-0.49316400000000005,0.0,-0.08743300000000001,-0.003573,0.00471,0.000526,-35.560001,-21.5,-10.56,3a
2019-07-15_122209:080,-0.492126,-0.001007,-0.085388,-0.0037560000000000002,0.0042829999999999995,0.000465,-35.560001,-21.5,-10.56,3a
2019-07-15_122209:100,-0.49316400000000005,0.000488,-0.085388,-0.003878,0.003978,0.000465,-35.560001,-21.5,-10.56,3a
2019-07-15_122209:120,-0.49111899999999997,-0.000488,-0.08590700000000001,-0.004213000000000001,0.003764,0.000831,-35.560001,-21.5,-10.25,3a
2019-07-15_122209:140,-0.490601,-0.002014,-0.083374,-0.004336,0.0034289999999999998,0.000984,-35.560001,-21.5,-10.25,3a
2019-07-15_122209:160,-0.489594,-0.0030210000000000002,-0.083862,-0.004488000000000001,0.0031850000000000003,0.001442,-34.869999,-21.059998999999998,-9.87,3a
2019-07-15_122209:180,-0.489594,-0.004547,-0.082855,-0.004427,0.002635,0.001564,-34.869999,-21.059998999999998,-9.87,3a
2019-07-15_122209:200,-0.49111899999999997,-0.005065999999999999,-0.082855,-0.004336,0.002391,0.001442,-34.869999,-21.059998999999998,-9.87,3a
2019-07-15_122209:220,-0.489594,-0.0055850000000000006,-0.082336,-0.004275,0.002361,0.000984,-35.18,-21.5,-9.87,3a
2019-07-15_122209:240,-0.49365200000000004,-0.0055850000000000006,-0.081848,-0.004091,0.002239,0.000709,-35.18,-21.5,-9.87,3a
2019-07-15_122209:260,-0.49365200000000004,-0.004059,-0.083374,-0.00403,0.0017809999999999998,0.000496,-35.560001,-21.870001000000002,-11.37,3a
2019-07-15_122209:280,-0.49316400000000005,-0.004059,-0.081329,-0.004091,0.0017809999999999998,0.000496,-35.560001,-21.870001000000002,-11.37,3a
2019-07-15_122209:300,-0.494171,-0.004059,-0.082336,-0.004152,0.00172,0.000496,-35.560001,-21.870001000000002,-11.37,3a
2019-07-15_122209:320,-0.494171,-0.0030210000000000002,-0.081848,-0.004336,0.00172,0.000526,-35.560001,-21.870001000000002,-10.25,3a
2019-07-15_122209:340,-0.491638,-0.0035399999999999997,-0.08081100000000001,-0.004427,0.001537,0.000648,-35.560001,-21.870001000000002,-10.25,3a
2019-07-15_122209:360,-0.490112,-0.004059,-0.081329,-0.004397,0.001353,0.0007700000000000001,-35.560001,-21.059998999999998,-10.56,3a
2019-07-15_122209:380,-0.48858599999999996,-0.0035399999999999997,-0.079803,-0.004397,0.001018,0.001167,-35.560001,-21.059998999999998,-10.56,3a
2019-07-15_122209:400,-0.48754899999999995,-0.0035399999999999997,-0.081329,-0.004488000000000001,0.000682,0.001258,-35.560001,-21.059998999999998,-10.56,3a
2019-07-15_122209:420,-0.48858599999999996,-0.004059,-0.080322,-0.004275,-0.00011100000000000001,0.001381,-36.369999,-21.059998999999998,-10.56,3a
2019-07-15_122209:440,-0.489594,-0.0030210000000000002,-0.080322,-0.004275,-0.0007830000000000001,0.001838,-36.369999,-21.059998999999998,-10.56,3a
2019-07-15_122209:460,-0.490601,-0.004547,-0.082336,-0.004213000000000001,-0.001363,0.002235,-36.369999,-21.5,-10.68,3a
2019-07-15_122209:480,-0.496704,-0.0055850000000000006,-0.082336,-0.003939,-0.001302,0.0022960000000000003,-36.369999,-21.5,-10.68,3a
2019-07-15_122209:500,-0.49722299999999997,-0.006072999999999999,-0.0849,-0.004,-0.000722,0.002449,-36.369999,-21.5,-10.68,3a
2019-07-15_122209:520,-0.495697,-0.006592,-0.085388,-0.003878,-0.00011100000000000001,0.0022960000000000003,-35.560001,-21.5,-9.5,3a
2019-07-15_122209:540,-0.49468999999999996,-0.007599,-0.085388,-0.0036950000000000004,0.000133,0.002052,-35.560001,-21.5,-9.5,3a
2019-07-15_122209:560,-0.494171,-0.008118,-0.086426,-0.003512,0.00016299999999999998,0.001655,-36.369999,-20.75,-11.06,3a
2019-07-15_122209:580,-0.492126,-0.006592,-0.085388,-0.003573,0.000865,0.00132,-36.369999,-20.75,-11.06,3a
2019-07-15_122209:600,-0.494171,-0.006072999999999999,-0.08743300000000001,-0.003664,0.0009570000000000001,0.0008619999999999999,-36.369999,-20.75,-11.06,3a
2019-07-15_122209:620,-0.494171,-0.006072999999999999,-0.08590700000000001,-0.0036950000000000004,0.001537,0.000404,-36.0,-20.370001000000002,-11.06,3a
2019-07-15_122209:640,-0.492126,-0.007111,-0.08590700000000001,-0.00403,0.001842,0.00028199999999999997,-36.0,-20.370001000000002,-11.06,3a
2019-07-15_122209:660,-0.490112,-0.007599,-0.08743300000000001,-0.003939,0.001842,6.8e-05,-36.68,-21.059998999999998,-12.25,3a
2019-07-15_122209:680,-0.49316400000000005,-0.008636,-0.085388,-0.0036950000000000004,0.001415,-0.00045099999999999996,-36.68,-21.059998999999998,-12.25,3a
2019-07-15_122209:700,-0.49316400000000005,-0.007599,-0.084381,-0.003573,0.0016589999999999999,0.000129,-36.68,-21.059998999999998,-12.25,3a
2019-07-15_122209:720,-0.49517799999999995,-0.008636,-0.08590700000000001,-0.003237,0.001598,0.000404,-36.369999,-20.0,-11.87,3a
2019-07-15_122209:740,-0.490112,-0.006072999999999999,-0.083374,-0.0031149999999999997,0.00172,0.000221,-36.369999,-20.0,-11.87,3a
2019-07-15_122209:760,-0.489594,-0.008118,-0.086426,-0.0029010000000000004,0.0016589999999999999,-0.000267,-36.0,-21.059998999999998,-11.5,3a
2019-07-15_122209:780,-0.49111899999999997,-0.006592,-0.086426,-0.0028399999999999996,0.001292,-0.0008470000000000001,-36.0,-21.059998999999998,-11.5,3a
2019-07-15_122209:800,-0.492126,-0.006072999999999999,-0.086914,-0.002718,0.00114,-0.000176,-36.0,-21.059998999999998,-11.5,3a
2019-07-15_122209:820,-0.494171,-0.006592,-0.086914,-0.002657,0.001537,-0.00011499999999999999,-35.18,-20.75,-11.06,3a
2019-07-15_122209:840,-0.491638,-0.007599,-0.08590700000000001,-0.0025050000000000003,0.0016589999999999999,-0.00011499999999999999,-35.18,-20.75,-11.06,3a
2019-07-15_122209:860,-0.491638,-0.0055850000000000006,-0.0849,-0.002382,0.00172,0.00016,-36.0,-21.059998999999998,-9.5,3a
2019-07-15_122209:880,-0.49365200000000004,-0.006592,-0.0849,-0.002321,0.001598,0.000587,-36.0,-21.059998999999998,-9.5,3a
2019-07-15_122209:900,-0.49468999999999996,-0.006072999999999999,-0.08590700000000001,-0.0025960000000000002,0.001598,0.0008619999999999999,-36.0,-21.059998999999998,-9.5,3a
2019-07-15_122209:920,-0.49468999999999996,-0.005065999999999999,-0.085388,-0.0029010000000000004,0.0017809999999999998,0.000831,-35.560001,-20.370001000000002,-11.5,3a
2019-07-15_122209:940,-0.492645,-0.007111,-0.084381,-0.00339,0.00172,0.00028199999999999997,-35.560001,-20.370001000000002,-11.5,3a
2019-07-15_122209:960,-0.492645,-0.007599,-0.0849,-0.00339,0.001964,-5.4000000000000005e-05,-36.369999,-21.059998999999998,-11.06,3a
2019-07-15_122209:980,-0.497742,-0.010651,-0.082855,-0.003512,0.002055,-0.000786,-36.369999,-21.059998999999998,-11.06,3a
2019-07-15_122210:000,-0.49468999999999996,-0.008118,-0.082336,-0.0032979999999999997,0.002788,-0.000664,-36.369999,-21.059998999999998,-11.06,3a
2019-07-15_122210:020,-0.492126,-0.009125,-0.081848,-0.0028399999999999996,0.003246,-0.0009689999999999999,-36.0,-21.059998999999998,-11.5,3a
2019-07-15_122210:040,-0.492126,-0.006592,-0.079803,-0.002321,0.002971,-0.001519,-36.0,-21.059998999999998,-11.5,3a
2019-07-15_122210:060,-0.49316400000000005,-0.004059,-0.080322,-0.002169,0.002757,-0.000725,-35.560001,-21.059998999999998,-11.06,3a
2019-07-15_122210:080,-0.49316400000000005,-0.0030210000000000002,-0.081848,-0.002321,0.0024519999999999998,-0.000664,-35.560001,-21.059998999999998,-11.06,3a
2019-07-15_122210:100,-0.492645,-0.001007,-0.081329,-0.002718,0.002239,-0.000176,-35.560001,-21.059998999999998,-11.06,3a
2019-07-15_122210:120,-0.49365200000000004,-0.001007,-0.08081100000000001,-0.003237,0.002177,0.000221,-35.18,-21.870001000000002,-10.0,3a
2019-07-15_122210:140,-0.49316400000000005,0.0,-0.08081100000000001,-0.003664,0.001994,0.000648,-35.18,-21.870001000000002,-10.0,3a
2019-07-15_122210:160,-0.49365200000000004,-0.001495,-0.08081100000000001,-0.003664,0.001964,0.001106,-35.560001,-21.5,-10.68,3a
