timestamp,AccX,AccY,AccZ,GyroX,GyroY,GyroZ,MagX,MagY,MagZ,Activity
2019-07-15_180608:120,-0.332489,0.0,-0.36044299999999996,-0.010042,-0.000233,0.0030280000000000003,-28.68,-23.559998999999998,-19.18,2d
2019-07-15_180608:140,-0.349792,0.0,-0.359955,-0.009737,-0.001759,0.000404,-28.68,-23.559998999999998,-19.18,2d
2019-07-15_180608:160,-0.37674,0.0030210000000000002,-0.35180700000000004,-0.008578,-0.001698,-0.0017929999999999999,-28.25,-23.18,-19.18,2d
2019-07-15_180608:180,-0.388428,0.005065999999999999,-0.340118,-0.008059,0.0012619999999999999,-0.0019760000000000003,-28.25,-23.18,-19.18,2d
2019-07-15_180608:200,-0.352844,0.0030210000000000002,-0.338074,-0.008059,0.003978,0.0030280000000000003,-28.25,-23.18,-19.18,2d
2019-07-15_180608:220,-0.327423,-0.005065999999999999,-0.34317,-0.008578,0.002177,0.010322,-27.559998999999998,-22.75,-18.870001000000002,2d
2019-07-15_180608:240,-0.32486,-0.010651,-0.34875500000000004,-0.008791,-0.001454,0.013191,-27.559998999999998,-22.75,-18.870001000000002,2d
2019-07-15_180608:260,-0.336548,-0.011687999999999999,-0.353851,-0.009309999999999999,-0.005025,0.01139,-28.0,-22.5,-18.870001000000002,2d
2019-07-15_180608:280,-0.34674099999999997,-0.014740000000000001,-0.353333,-0.00873,-0.006093,0.010139,-28.0,-22.5,-18.870001000000002,2d
2019-07-15_180608:300,-0.344696,-0.014221000000000001,-0.35791,-0.007937,-0.00475,0.00782,-28.0,-22.5,-18.870001000000002,2d
2019-07-15_180608:320,-0.336548,-0.013213999999999998,-0.360962,-0.007540000000000001,-0.0033159999999999995,0.005409000000000001,-28.25,-23.18,-17.68,2d
2019-07-15_180608:340,-0.329437,-0.012177,-0.368073,-0.00635,-0.0032240000000000003,0.005104,-28.25,-23.18,-17.68,2d
2019-07-15_180608:360,-0.334534,-0.011687999999999999,-0.36554000000000003,-0.005007,-0.0034990000000000004,0.003242,-28.68,-23.18,-18.870001000000002,2d
2019-07-15_180608:380,-0.32995599999999997,-0.007599,-0.363007,-0.0036340000000000005,-0.002644,0.002235,-28.68,-23.18,-18.870001000000002,2d
2019-07-15_180608:400,-0.34368899999999997,-0.004547,-0.36349499999999996,-0.002199,-0.001912,0.002754,-28.68,-23.18,-18.870001000000002,2d
2019-07-15_180608:420,-0.32486,-0.001495,-0.370636,-0.001864,-0.001912,0.002235,-28.68,-22.75,-17.68,2d
2019-07-15_180608:440,-0.32843,0.0,-0.37265,-0.001986,-0.0033770000000000002,0.002784,-28.68,-22.75,-17.68,2d
2019-07-15_180608:460,-0.34368899999999997,-0.002014,-0.368591,-0.002443,-0.0039570000000000004,0.003913000000000001,-27.559998999999998,-22.5,-19.18,2d
2019-07-15_180608:480,-0.33758499999999997,-0.0055850000000000006,-0.368073,-0.00403,-0.0024920000000000003,0.004554,-27.559998999999998,-22.5,-19.18,2d
2019-07-15_180608:500,-0.33758499999999997,-0.007599,-0.377228,-0.005526,-0.001515,0.007087,-27.559998999999998,-22.5,-19.18,2d
2019-07-15_180608:520,-0.335541,-0.010162000000000001,-0.378265,-0.007387,-0.0009660000000000001,0.00727,-28.25,-22.5,-19.18,2d
2019-07-15_180608:540,-0.334015,-0.012177,-0.379791,-0.008454999999999999,-0.0009050000000000001,0.004097,-28.25,-22.5,-19.18,2d
2019-07-15_180608:560,-0.34368899999999997,-0.007111,-0.376221,-0.008333,-0.0009660000000000001,0.002357,-28.0,-22.75,-18.870001000000002,2d
2019-07-15_180608:580,-0.342163,-0.014221000000000001,-0.371643,-0.008181,0.00016299999999999998,0.00132,-28.0,-22.75,-18.870001000000002,2d
2019-07-15_180608:600,-0.339111,-0.007111,-0.37265,-0.007387,0.000865,-0.000328,-28.0,-22.75,-18.870001000000002,2d
2019-07-15_180608:620,-0.341644,-0.006072999999999999,-0.37011700000000003,-0.006411,0.001598,7.000000000000001e-06,-28.0,-23.18,-18.870001000000002,2d
2019-07-15_180608:640,-0.339111,-0.0055850000000000006,-0.368073,-0.005404,0.0019030000000000002,-0.000176,-28.0,-23.18,-18.870001000000002,2d
2019-07-15_180608:660,-0.339111,-0.002014,-0.365021,-0.004427,0.002239,-0.001366,-29.059998999999998,-22.75,-18.5,2d
2019-07-15_180608:680,-0.33300799999999997,-0.000488,-0.358429,-0.0034509999999999996,0.002177,-0.001702,-29.059998999999998,-22.75,-18.5,2d
2019-07-15_180608:700,-0.327423,0.0025329999999999997,-0.353851,-0.002718,0.001292,-0.0011220000000000002,-29.059998999999998,-22.75,-18.5,2d
2019-07-15_180608:720,-0.334534,0.0055850000000000006,-0.35638400000000003,-0.0029010000000000004,-0.00011100000000000001,7.000000000000001e-06,-27.559998999999998,-23.18,-19.18,2d
2019-07-15_180608:740,-0.339111,0.006072999999999999,-0.36554000000000003,-0.0036340000000000005,-0.000722,0.001258,-27.559998999999998,-23.18,-19.18,2d
2019-07-15_180608:760,-0.335022,0.004059,-0.37112399999999995,-0.004793,-0.000386,0.001838,-27.559998999999998,-22.18,-19.18,2d
2019-07-15_180608:780,-0.337067,0.000488,-0.374695,-0.005861,-0.000233,0.00132,-27.559998999999998,-22.18,-19.18,2d
2019-07-15_180608:800,-0.340118,-0.001007,-0.374695,-0.0066549999999999995,1.1e-05,-0.00011499999999999999,-27.559998999999998,-22.18,-19.18,2d
2019-07-15_180608:820,-0.3508,-0.004059,-0.378754,-0.006745999999999999,0.000743,-0.0008470000000000001,-28.68,-22.75,-19.18,2d
2019-07-15_180608:840,-0.356903,-0.0055850000000000006,-0.380798,-0.006319,0.0034289999999999998,-0.0008470000000000001,-28.68,-22.75,-19.18,2d
2019-07-15_180608:860,-0.34674099999999997,-0.004547,-0.38028,-0.005678,0.007304000000000001,0.00016,-28.25,-22.5,-19.68,2d
2019-07-15_180608:880,-0.338074,-0.004059,-0.373688,-0.005282,0.009288,0.000526,-28.25,-22.5,-19.68,2d
2019-07-15_180608:900,-0.33300799999999997,-0.001495,-0.368591,-0.004824,0.009929,0.000129,-28.25,-22.5,-19.68,2d
2019-07-15_180608:920,-0.320801,-0.002014,-0.364532,-0.004397,0.00941,0.001258,-28.0,-22.75,-19.18,2d
2019-07-15_180608:940,-0.325897,0.0,-0.36248800000000003,-0.00403,0.007365000000000001,0.00251,-28.0,-22.75,-19.18,2d
2019-07-15_180608:960,-0.331482,0.000488,-0.35943600000000003,-0.0036950000000000004,0.005351,0.002784,-28.25,-22.75,-18.870001000000002,2d
2019-07-15_180608:980,-0.334534,0.0,-0.35638400000000003,-0.0037560000000000002,0.003764,0.002784,-28.25,-22.75,-18.870001000000002,2d
2019-07-15_180609:000,-0.33605999999999997,-0.001495,-0.359955,-0.004275,0.002849,0.003242,-28.25,-22.75,-18.870001000000002,2d
2019-07-15_180609:020,-0.335541,-0.001007,-0.361481,-0.004671,0.002239,0.002784,-29.059998999999998,-22.5,-19.18,2d
2019-07-15_180609:040,-0.328949,-0.0025329999999999997,-0.361481,-0.005343,0.001842,0.001838,-29.059998999999998,-22.5,-19.18,2d
2019-07-15_180609:060,-0.327423,-0.0035399999999999997,-0.361481,-0.005678,0.0008960000000000001,0.0021739999999999997,-28.0,-22.5,-18.5,2d
2019-07-15_180609:080,-0.334534,-0.008118,-0.365021,-0.006014,-0.000264,0.0030280000000000003,-28.0,-22.5,-18.5,2d
2019-07-15_180609:100,-0.335022,-0.010162000000000001,-0.36911,-0.005861,-0.000661,0.002357,-28.0,-22.5,-18.5,2d
2019-07-15_180609:120,-0.339111,-0.011687999999999999,-0.367584,-0.0051600000000000005,-0.0007830000000000001,0.001228,-29.75,-22.18,-19.18,2d
2019-07-15_180609:140,-0.340118,-0.013213999999999998,-0.36554000000000003,-0.004213000000000001,-0.000386,0.000648,-29.75,-22.18,-19.18,2d
2019-07-15_180609:160,-0.342163,-0.013702,-0.363007,-0.0032979999999999997,-0.000172,0.000496,-29.5,-22.75,-18.059998999999998,2d
2019-07-15_180609:180,-0.342163,-0.011687999999999999,-0.359955,-0.001925,0.00056,-0.00011499999999999999,-29.5,-22.75,-18.059998999999998,2d
2019-07-15_180609:200,-0.342163,-0.009125,-0.36706500000000003,-0.0009789999999999998,0.001292,-0.001458,-29.5,-22.75,-18.059998999999998,2d
2019-07-15_180609:220,-0.34265100000000004,-0.007111,-0.36911,-0.000338,0.002055,-0.002373,-29.059998999999998,-22.75,-18.5,2d
2019-07-15_180609:240,-0.34063699999999997,-0.0055850000000000006,-0.367584,-0.000124,0.002574,-0.002983,-29.059998999999998,-22.75,-18.5,2d
2019-07-15_180609:260,-0.341644,-0.0035399999999999997,-0.36706500000000003,-2e-06,0.003093,-0.003655,-28.25,-22.5,-19.18,2d
2019-07-15_180609:280,-0.349274,-0.0025329999999999997,-0.366058,-0.000185,0.00352,-0.003167,-28.25,-22.5,-19.18,2d
2019-07-15_180609:300,-0.34570300000000004,-0.0030210000000000002,-0.365021,-0.000643,0.004771,-0.002648,-28.25,-22.5,-19.18,2d
2019-07-15_180609:320,-0.340118,-0.0030210000000000002,-0.36248800000000003,-0.001131,0.005779,-0.0021899999999999997,-28.25,-22.75,-18.5,2d
2019-07-15_180609:340,-0.334534,-0.004547,-0.360962,-0.0015279999999999998,0.005779,-0.001519,-28.25,-22.75,-18.5,2d
2019-07-15_180609:360,-0.32843,-0.0035399999999999997,-0.361481,-0.0025050000000000003,0.004222,-0.0021899999999999997,-28.68,-23.18,-19.68,2d
2019-07-15_180609:380,-0.327911,-0.002014,-0.35739099999999996,-0.002718,0.003307,-0.002434,-28.68,-23.18,-19.68,2d
2019-07-15_180609:400,-0.330963,-0.004059,-0.35943600000000003,-0.0031149999999999997,0.0010789999999999999,-0.001641,-28.68,-23.18,-19.68,2d
2019-07-15_180609:420,-0.332489,-0.0030210000000000002,-0.358429,-0.003573,-0.00011100000000000001,-0.001854,-29.5,-22.5,-18.5,2d
2019-07-15_180609:440,-0.341125,-0.002014,-0.358429,-0.003573,-0.000386,-0.0019149999999999998,-29.5,-22.5,-18.5,2d
2019-07-15_180609:460,-0.34063699999999997,-0.0030210000000000002,-0.359955,-0.004152,-0.00044699999999999997,-0.002373,-29.059998999999998,-22.18,-18.870001000000002,2d
2019-07-15_180609:480,-0.34063699999999997,-0.001495,-0.361481,-0.004793,-0.00044699999999999997,-0.002526,-29.059998999999998,-22.18,-18.870001000000002,2d
2019-07-15_180609:500,-0.33758499999999997,-0.002014,-0.364014,-0.005556,-0.000325,-0.0028309999999999997,-29.059998999999998,-22.18,-18.870001000000002,2d
2019-07-15_180609:520,-0.3396,-0.0030210000000000002,-0.363007,-0.006319,-5e-05,-0.0037770000000000004,-28.25,-22.5,-19.18,2d
2019-07-15_180609:540,-0.3396,-0.0035399999999999997,-0.363007,-0.006684999999999999,-0.000172,-0.00457,-28.25,-22.5,-19.18,2d
2019-07-15_180609:560,-0.340118,-0.0035399999999999997,-0.365021,-0.006807,-0.000172,-0.0054859999999999996,-28.0,-22.75,-18.870001000000002,2d
2019-07-15_180609:580,-0.341644,-0.0035399999999999997,-0.36248800000000003,-0.006594,0.00022400000000000002,-0.006554000000000001,-28.0,-22.75,-18.870001000000002,2d
2019-07-15_180609:600,-0.347229,-0.002014,-0.36044299999999996,-0.006136,0.0008960000000000001,-0.006157,-28.0,-22.75,-18.870001000000002,2d
2019-07-15_180609:620,-0.3508,-0.0035399999999999997,-0.36349499999999996,-0.005343,0.002177,-0.005577,-28.0,-23.559998999999998,-18.870001000000002,2d
2019-07-15_180609:640,-0.344177,-0.002014,-0.361481,-0.004427,0.002971,-0.006554000000000001,-28.0,-23.559998999999998,-18.870001000000002,2d
2019-07-15_180609:660,-0.34317,0.0,-0.36248800000000003,-0.0032979999999999997,0.002788,-0.007897,-28.0,-23.18,-18.870001000000002,2d
2019-07-15_180609:680,-0.33605999999999997,0.004547,-0.358917,-0.002443,0.002177,-0.007164,-28.0,-23.18,-18.870001000000002,2d
2019-07-15_180609:700,-0.337067,0.006072999999999999,-0.36044299999999996,-0.00165,0.0016589999999999999,-0.006371,-28.0,-23.18,-18.870001000000002,2d
2019-07-15_180609:720,-0.340118,0.009644,-0.36248800000000003,-0.00107,0.001353,-0.006371,-27.559998999999998,-23.559998999999998,-18.059998999999998,2d
2019-07-15_180609:740,-0.34063699999999997,0.010651,-0.364014,-0.0009789999999999998,0.001842,-0.005639,-27.559998999999998,-23.559998999999998,-18.059998999999998,2d
2019-07-15_180609:760,-0.338074,0.012177,-0.366058,-0.00107,0.00172,-0.004967,-27.559998999999998,-24.25,-17.68,2d
2019-07-15_180609:780,-0.33758499999999997,0.013213999999999998,-0.363007,-0.001253,0.001842,-0.004753,-27.559998999999998,-24.25,-17.68,2d
2019-07-15_180609:800,-0.3396,0.011169,-0.364014,-0.001467,0.002116,-0.004296,-27.559998999999998,-24.25,-17.68,2d
2019-07-15_180609:820,-0.340118,0.012177,-0.366058,-0.0017109999999999998,0.002696,-0.003899,-27.559998999999998,-24.0,-19.68,2d
2019-07-15_180609:840,-0.333496,0.009125,-0.368591,-0.0017109999999999998,0.002513,-0.004357,-27.559998999999998,-24.0,-19.68,2d
2019-07-15_180609:860,-0.33758499999999997,0.008118,-0.368073,-0.001009,0.0019030000000000002,-0.004815,-27.559998999999998,-23.559998999999998,-18.5,2d
2019-07-15_180609:880,-0.339111,0.008636,-0.365021,-0.000124,0.001628,-0.004753,-27.559998999999998,-23.559998999999998,-18.5,2d
2019-07-15_180609:900,-0.33758499999999997,0.012177,-0.36349499999999996,0.000791,0.0017809999999999998,-0.004235,-27.559998999999998,-23.559998999999998,-18.5,2d
2019-07-15_180609:920,-0.34063699999999997,0.013702,-0.363007,0.001585,0.002177,-0.0035020000000000003,-28.0,-24.0,-19.18,2d
2019-07-15_180609:940,-0.334534,0.017792,-0.36248800000000003,0.0016760000000000002,0.001994,-0.004448,-28.0,-24.0,-19.18,2d
2019-07-15_180609:960,-0.334534,0.019806,-0.364532,0.0012490000000000001,0.001353,-0.0035020000000000003,-27.559998999999998,-24.25,-19.18,2d
2019-07-15_180609:980,-0.3396,0.017273,-0.361969,0.000944,0.00056,-0.0013050000000000002,-27.559998999999998,-24.25,-19.18,2d
2019-07-15_180610:000,-0.344177,0.016753999999999998,-0.360962,-2e-06,0.000621,-0.0009689999999999999,-27.559998999999998,-24.25,-19.18,2d
2019-07-15_180610:020,-0.347229,0.015747,-0.360962,-0.000399,0.001353,-0.001,-27.25,-24.0,-19.68,2d
2019-07-15_180610:040,-0.341125,0.014740000000000001,-0.363007,-0.000918,0.0024519999999999998,-0.001702,-27.25,-24.0,-19.68,2d
2019-07-15_180610:060,-0.338074,0.014740000000000001,-0.363007,-0.000918,0.002849,-0.001854,-27.559998999999998,-23.559998999999998,-18.870001000000002,2d
2019-07-15_180610:080,-0.33758499999999997,0.013702,-0.36248800000000003,-0.00107,0.002696,-0.001458,-27.559998999999998,-23.559998999999998,-18.870001000000002,2d
2019-07-15_180610:100,-0.339111,0.013213999999999998,-0.36044299999999996,-0.001131,0.002513,-0.001519,-27.559998999999998,-23.559998999999998,-18.870001000000002,2d
2019-07-15_180610:120,-0.34265100000000004,0.011169,-0.360962,-0.001131,0.002391,-0.000328,-27.559998999999998,-24.0,-18.5,2d
2019-07-15_180610:140,-0.341125,0.009125,-0.363007,-0.001009,0.002971,-5.4000000000000005e-05,-27.559998999999998,-24.0,-18.5,2d
2019-07-15_180610:160,-0.341644,0.007599,-0.363007,-0.000857,0.0029100000000000003,-0.000176,-26.870001000000002,-24.0,-18.870001000000002,2d
2019-07-15_180610:180,-0.34063699999999997,0.0035399999999999997,-0.361481,-0.000277,0.002849,-5.4000000000000005e-05,-26.870001000000002,-24.0,-18.870001000000002,2d
2019-07-15_180610:200,-0.342163,0.0030210000000000002,-0.360962,0.000791,0.002696,-0.00045099999999999996,-26.870001000000002,-24.0,-18.870001000000002,2d
2019-07-15_180610:220,-0.342163,0.000488,-0.361969,0.0016460000000000001,0.003124,-0.0012439999999999999,-27.559998999999998,-24.0,-20.0,2d
2019-07-15_180610:240,-0.344696,0.002014,-0.363007,0.002653,0.003246,-0.001854,-27.559998999999998,-24.0,-20.0,2d
2019-07-15_180610:260,-0.347748,0.002014,-0.35943600000000003,0.003141,0.0042829999999999995,-0.002495,-27.25,-23.559998999999998,-20.0,2d
2019-07-15_180610:280,-0.34570300000000004,0.004059,-0.359955,0.003507,0.004954999999999999,-0.002892,-27.25,-23.559998999999998,-20.0,2d
2019-07-15_180610:300,-0.34317,0.0055850000000000006,-0.359955,0.003721,0.005686999999999999,-0.003167,-27.25,-23.559998999999998,-20.0,2d
2019-07-15_180610:320,-0.33758499999999997,0.007111,-0.361481,0.003599,0.005961999999999999,-0.003106,-27.559998999999998,-23.559998999999998,-18.870001000000002,2d
2019-07-15_180610:340,-0.33605999999999997,0.010162000000000001,-0.36044299999999996,0.0032020000000000004,0.005107,-0.003106,-27.559998999999998,-23.559998999999998,-18.870001000000002,2d
2019-07-15_180610:360,-0.335541,0.010162000000000001,-0.35943600000000003,0.002806,0.004649,-0.0017929999999999999,-26.870001000000002,-23.559998999999998,-19.18,2d
2019-07-15_180610:380,-0.334534,0.009644,-0.36248800000000003,0.001982,0.0036420000000000003,-0.000573,-26.870001000000002,-23.559998999999998,-19.18,2d
2019-07-15_180610:400,-0.336548,0.011169,-0.36349499999999996,0.001066,0.002788,0.00016,-26.870001000000002,-23.559998999999998,-19.18,2d
2019-07-15_180610:420,-0.341644,0.008636,-0.363007,0.000395,0.002116,0.000496,-26.870001000000002,-24.0,-18.870001000000002,2d
2019-07-15_180610:440,-0.344177,0.007111,-0.36349499999999996,-0.000246,0.002055,0.000496,-26.870001000000002,-24.0,-18.870001000000002,2d
2019-07-15_180610:460,-0.345215,0.006592,-0.36248800000000003,-0.000734,0.002361,0.000709,-28.0,-24.0,-19.68,2d
2019-07-15_180610:480,-0.34265100000000004,0.008118,-0.35943600000000003,-0.001314,0.002574,0.001167,-28.0,-24.0,-19.68,2d
2019-07-15_180610:500,-0.33758499999999997,0.012177,-0.358429,-0.0021079999999999996,0.002391,0.001503,-28.0,-24.0,-19.68,2d
2019-07-15_180610:520,-0.33300799999999997,0.012695,-0.360962,-0.003237,0.00172,0.000984,-27.559998999999998,-23.559998999999998,-18.870001000000002,2d
2019-07-15_180610:540,-0.333496,0.011169,-0.35739099999999996,-0.004091,0.000682,0.001258,-27.559998999999998,-23.559998999999998,-18.870001000000002,2d
2019-07-15_180610:560,-0.334534,0.011169,-0.35739099999999996,-0.0051600000000000005,-0.000325,0.001442,-26.5,-24.0,-17.68,2d
2019-07-15_180610:580,-0.33300799999999997,0.009125,-0.356903,-0.006258,-0.001118,0.0018989999999999999,-26.5,-24.0,-17.68,2d
2019-07-15_180610:600,-0.334015,0.008636,-0.358429,-0.006991,-0.00237,0.0030280000000000003,-26.5,-24.0,-17.68,2d
2019-07-15_180610:620,-0.332489,0.005065999999999999,-0.361481,-0.007723000000000001,-0.002888,0.002754,-27.25,-24.0,-18.870001000000002,2d
2019-07-15_180610:640,-0.334534,0.005065999999999999,-0.36248800000000003,-0.008669,-0.003102,0.0026320000000000002,-27.25,-24.0,-18.870001000000002,2d
2019-07-15_180610:660,-0.35180700000000004,-0.000488,-0.363007,-0.009127,-0.003285,0.003303,-27.559998999999998,-24.0,-20.0,2d
2019-07-15_180610:680,-0.35180700000000004,0.000488,-0.364014,-0.009798000000000001,-0.002644,0.00251,-27.559998999999998,-24.0,-20.0,2d
2019-07-15_180610:700,-0.352844,0.0,-0.37265,-0.009188,-0.002034,0.002693,-27.559998999999998,-24.0,-20.0,2d
2019-07-15_180610:720,-0.352325,0.0,-0.37316900000000003,-0.008578,-0.001118,0.00196,-26.870001000000002,-23.18,-19.25,2d
2019-07-15_180610:740,-0.35180700000000004,0.0025329999999999997,-0.368073,-0.007601,-5e-05,0.002784,-26.870001000000002,-23.18,-19.25,2d
2019-07-15_180610:760,-0.35131799999999996,0.001495,-0.36706500000000003,-0.006684999999999999,0.001842,0.004158,-26.059998999999998,-23.559998999999998,-19.18,2d
2019-07-15_180610:780,-0.338074,0.0035399999999999997,-0.356903,-0.006014,0.0036420000000000003,0.004554,-26.059998999999998,-23.559998999999998,-19.18,2d
2019-07-15_180610:800,-0.331482,0.004059,-0.35791,-0.005465,0.003978,0.004554,-26.059998999999998,-23.559998999999998,-19.18,2d
2019-07-15_180610:820,-0.328949,0.006592,-0.35638400000000003,-0.005465,0.002361,0.004036,-27.25,-23.559998999999998,-19.68,2d
2019-07-15_180610:840,-0.32995599999999997,0.009644,-0.354858,-0.005343,0.000285,0.0038829999999999997,-27.25,-23.559998999999998,-19.68,2d
2019-07-15_180610:860,-0.330963,0.008118,-0.355377,-0.005526,-0.001576,0.003913000000000001,-28.0,-24.0,-19.68,2d
2019-07-15_180610:880,-0.331482,0.009125,-0.353333,-0.006319,-0.0033159999999999995,0.0043100000000000005,-28.0,-24.0,-19.68,2d
2019-07-15_180610:900,-0.333496,0.005065999999999999,-0.358917,-0.006594,-0.004292,0.005043,-28.0,-24.0,-19.68,2d
2019-07-15_180610:920,-0.333496,0.0025329999999999997,-0.363007,-0.007387,-0.004567,0.0060799999999999995,-27.559998999999998,-24.0,-20.370001000000002,2d
2019-07-15_180610:940,-0.339111,0.0,-0.364532,-0.007815,-0.005299,0.00727,-27.559998999999998,-24.0,-20.370001000000002,2d
2019-07-15_180610:960,-0.34674099999999997,-0.002014,-0.36654699999999996,-0.007876000000000001,-0.005299,0.007881,-28.0,-23.559998999999998,-19.18,2d
2019-07-15_180610:980,-0.347229,-0.0035399999999999997,-0.36654699999999996,-0.007998,-0.003773,0.00663,-28.0,-23.559998999999998,-19.18,2d
2019-07-15_180611:000,-0.346222,-0.0035399999999999997,-0.370636,-0.00812,-0.002248,0.005745,-28.0,-23.559998999999998,-19.18,2d
2019-07-15_180611:020,-0.34265100000000004,-0.0030210000000000002,-0.373688,-0.008181,-0.0009660000000000001,0.006813,-27.559998999999998,-24.0,-20.0,2d
2019-07-15_180611:040,-0.336548,-0.0035399999999999997,-0.374176,-0.008333,-0.000233,0.007209,-27.559998999999998,-24.0,-20.0,2d
2019-07-15_180611:060,-0.331482,-0.004059,-0.373688,-0.00812,-0.000233,0.006141,-27.25,-22.75,-19.18,2d
2019-07-15_180611:080,-0.327911,-0.0030210000000000002,-0.37011700000000003,-0.007662,-0.000508,0.005104,-27.25,-22.75,-19.18,2d
2019-07-15_180611:100,-0.32995599999999997,-0.0055850000000000006,-0.37011700000000003,-0.007204,-0.0007830000000000001,0.0037,-27.25,-22.75,-19.18,2d
2019-07-15_180611:120,-0.32995599999999997,-0.0035399999999999997,-0.370636,-0.006319,-0.00063,0.002784,-27.25,-22.75,-18.870001000000002,2d
2019-07-15_180611:140,-0.331482,-0.0025329999999999997,-0.369598,-0.005282,-0.000508,0.002113,-27.25,-22.75,-18.870001000000002,2d
2019-07-15_180611:160,-0.332489,-0.001007,-0.372162,-0.0048850000000000005,0.00022400000000000002,0.001442,-27.25,-23.18,-19.68,2d
2019-07-15_180611:180,-0.324371,0.001495,-0.372162,-0.0048850000000000005,-5e-05,0.000831,-27.25,-23.18,-19.68,2d
2019-07-15_180611:200,-0.323334,0.0,-0.37316900000000003,-0.0048850000000000005,-0.000722,0.001228,-27.25,-23.18,-19.68,2d
2019-07-15_180611:220,-0.325378,0.0,-0.373688,-0.004732,-0.002156,0.001228,-27.559998999999998,-23.18,-20.0,2d
2019-07-15_180611:240,-0.32995599999999997,-0.001007,-0.37265,-0.004549,-0.00298,0.0008619999999999999,-27.559998999999998,-23.18,-20.0,2d
2019-07-15_180611:260,-0.33197,-0.002014,-0.371643,-0.004091,-0.003041,0.0008619999999999999,-27.25,-23.559998999999998,-19.18,2d
2019-07-15_180611:280,-0.333496,-0.0025329999999999997,-0.36911,-0.003512,-0.002888,0.001991,-27.25,-23.559998999999998,-19.18,2d
2019-07-15_180611:300,-0.331482,-0.0030210000000000002,-0.372162,-0.002993,-0.002919,0.0022960000000000003,-27.25,-23.559998999999998,-19.18,2d
2019-07-15_180611:320,-0.332489,-0.002014,-0.372162,-0.002443,-0.002827,0.002571,-27.25,-23.559998999999998,-20.0,2d
2019-07-15_180611:340,-0.341644,-0.001007,-0.374695,-0.001772,-0.0018510000000000002,0.0026320000000000002,-27.25,-23.559998999999998,-20.0,2d
2019-07-15_180611:360,-0.338074,-0.0025329999999999997,-0.375702,-0.0015279999999999998,-0.000325,0.002235,-28.0,-23.559998999999998,-20.0,2d
2019-07-15_180611:380,-0.330475,-0.001495,-0.37316900000000003,-0.0018030000000000001,0.000407,0.0030280000000000003,-28.0,-23.559998999999998,-20.0,2d
2019-07-15_180611:400,-0.326385,-0.0035399999999999997,-0.370636,-0.0022600000000000003,7.2e-05,0.00428,-28.0,-23.559998999999998,-20.0,2d
2019-07-15_180611:420,-0.325897,-0.005065999999999999,-0.37265,-0.002718,-0.000233,0.004493,-26.870001000000002,-23.18,-20.370001000000002,2d
2019-07-15_180611:440,-0.326385,-0.006072999999999999,-0.374695,-0.0031149999999999997,-0.0005690000000000001,0.0033640000000000002,-26.870001000000002,-23.18,-20.370001000000002,2d
2019-07-15_180611:460,-0.325897,-0.008118,-0.375214,-0.0032979999999999997,-0.0008439999999999999,0.002754,-27.25,-23.18,-19.68,2d
2019-07-15_180611:480,-0.32486,-0.007599,-0.375702,-0.0034509999999999996,-0.0009050000000000001,0.0021739999999999997,-27.25,-23.18,-19.68,2d
2019-07-15_180611:500,-0.329437,-0.009125,-0.375214,-0.003512,-0.001027,0.001503,-27.25,-23.18,-19.68,2d
2019-07-15_180611:520,-0.334015,-0.007111,-0.376221,-0.0032979999999999997,-5e-05,0.00132,-26.5,-23.18,-20.370001000000002,2d
2019-07-15_180611:540,-0.336548,-0.006072999999999999,-0.37265,-0.003512,0.000468,0.0007700000000000001,-26.5,-23.18,-20.370001000000002,2d
2019-07-15_180611:560,-0.32995599999999997,-0.0025329999999999997,-0.37011700000000003,-0.0037560000000000002,0.001201,0.000404,-27.25,-23.18,-19.68,2d
2019-07-15_180611:580,-0.32843,-0.002014,-0.37011700000000003,-0.004213000000000001,0.001292,0.001564,-27.25,-23.18,-19.68,2d
2019-07-15_180611:600,-0.318756,-0.002014,-0.37265,-0.004824,0.0008039999999999999,0.002967,-27.25,-23.18,-19.68,2d
2019-07-15_180611:620,-0.320282,-0.001007,-0.372162,-0.0056170000000000005,-5e-05,0.002845,-27.25,-22.5,-21.18,2d
2019-07-15_180611:640,-0.321808,-0.002014,-0.374695,-0.006197,-0.00124,0.00196,-27.25,-22.5,-21.18,2d
2019-07-15_180611:660,-0.32132,-0.001007,-0.375702,-0.006533,-0.001454,0.001564,-27.559998999999998,-23.18,-19.68,2d
2019-07-15_180611:680,-0.32486,-0.0030210000000000002,-0.379272,-0.007051999999999999,-0.001576,0.002235,-27.559998999999998,-23.18,-19.68,2d
2019-07-15_180611:700,-0.327423,-0.0030210000000000002,-0.38028,-0.007479,-0.001454,0.002845,-27.559998999999998,-23.18,-19.68,2d
2019-07-15_180611:720,-0.320801,-0.0025329999999999997,-0.381805,-0.007448000000000001,-0.001027,0.003242,-27.559998999999998,-22.75,-19.68,2d
2019-07-15_180611:740,-0.334534,-0.0025329999999999997,-0.38028,-0.007784,0.000499,0.003242,-27.559998999999998,-22.75,-19.68,2d
2019-07-15_180611:760,-0.326385,-0.0025329999999999997,-0.382324,-0.008272,0.001628,0.0029059999999999997,-27.25,-23.18,-20.370001000000002,2d
2019-07-15_180611:780,-0.323853,-0.0030210000000000002,-0.385376,-0.008791,0.002116,0.002754,-27.25,-23.18,-20.370001000000002,2d
2019-07-15_180611:800,-0.323334,-0.0030210000000000002,-0.379791,-0.009004999999999999,0.002239,0.001991,-27.25,-23.18,-20.370001000000002,2d
2019-07-15_180611:820,-0.316223,-0.0035399999999999997,-0.38028,-0.009127,0.001628,0.001106,-26.870001000000002,-23.18,-19.18,2d
2019-07-15_180611:840,-0.323334,-0.0055850000000000006,-0.38028,-0.009004999999999999,0.0010789999999999999,0.000404,-26.870001000000002,-23.18,-19.18,2d
2019-07-15_180611:860,-0.324371,-0.006072999999999999,-0.379791,-0.008791,0.001292,0.000129,-28.0,-23.18,-19.18,2d
2019-07-15_180611:880,-0.32843,-0.006592,-0.383331,-0.00812,0.00172,0.000404,-28.0,-23.18,-19.18,2d
2019-07-15_180611:900,-0.323853,-0.006592,-0.380798,-0.007448000000000001,0.002788,-0.000634,-28.0,-23.18,-19.18,2d
2019-07-15_180611:920,-0.32132,-0.004059,-0.381317,-0.006869,0.0029100000000000003,-0.0013050000000000002,-26.5,-22.75,-20.870001000000002,2d
2019-07-15_180611:940,-0.315216,-0.000488,-0.378754,-0.005556,0.0024519999999999998,-0.001458,-26.5,-22.75,-20.870001000000002,2d
2019-07-15_180611:960,-0.313171,0.000488,-0.38028,-0.005282,0.001964,-0.000908,-27.559998999999998,-22.75,-18.5,2d
2019-07-15_180611:980,-0.31723,0.0035399999999999997,-0.38028,-0.004946,0.000499,0.0007700000000000001,-27.559998999999998,-22.75,-18.5,2d
2019-07-15_180612:000,-0.32132,0.001495,-0.381317,-0.004732,0.00016299999999999998,0.000587,-27.559998999999998,-22.75,-18.5,2d
2019-07-15_180612:020,-0.322845,0.004547,-0.380798,-0.004732,0.000407,0.000343,-26.870001000000002,-23.18,-18.870001000000002,2d
2019-07-15_180612:040,-0.323853,0.005065999999999999,-0.380798,-0.004488000000000001,0.000682,0.000343,-26.870001000000002,-23.18,-18.870001000000002,2d
2019-07-15_180612:060,-0.322327,0.007111,-0.382324,-0.004793,0.000743,0.000526,-26.870001000000002,-23.18,-19.68,2d
2019-07-15_180612:080,-0.319794,0.007599,-0.38028,-0.0048850000000000005,0.000621,0.000923,-26.870001000000002,-23.18,-19.68,2d
2019-07-15_180612:100,-0.325897,0.0055850000000000006,-0.38028,-0.005221,0.000468,0.001106,-26.870001000000002,-23.18,-19.68,2d
2019-07-15_180612:120,-0.327423,0.006072999999999999,-0.384857,-0.005282,0.0008039999999999999,0.001106,-27.25,-24.0,-19.68,2d
2019-07-15_180612:140,-0.326385,0.005065999999999999,-0.384338,-0.005465,0.001842,0.001381,-27.25,-24.0,-19.68,2d
2019-07-15_180612:160,-0.322845,0.005065999999999999,-0.382324,-0.005282,0.002361,0.001655,-28.0,-22.75,-20.370001000000002,2d
2019-07-15_180612:180,-0.319275,0.0055850000000000006,-0.381805,-0.005343,0.002513,0.0021739999999999997,-28.0,-22.75,-20.370001000000002,2d
2019-07-15_180612:200,-0.319275,0.0035399999999999997,-0.379791,-0.005129,0.001842,0.0026320000000000002,-28.0,-22.75,-20.370001000000002,2d
2019-07-15_180612:220,-0.318268,0.0025329999999999997,-0.378265,-0.005129,0.001537,0.002845,-26.870001000000002,-23.18,-19.18,2d
2019-07-15_180612:240,-0.317749,0.002014,-0.376221,-0.005007,0.000743,0.0030280000000000003,-26.870001000000002,-23.18,-19.18,2d
2019-07-15_180612:260,-0.316742,0.001495,-0.37674,-0.004946,0.000346,0.0029059999999999997,-27.559998999999998,-22.75,-19.68,2d
2019-07-15_180612:280,-0.312653,0.001007,-0.376221,-0.00461,-0.001027,0.002388,-27.559998999999998,-22.75,-19.68,2d
2019-07-15_180612:300,-0.312164,0.0,-0.378265,-0.004275,-0.0024920000000000003,0.002113,-27.559998999999998,-22.75,-19.68,2d
2019-07-15_180612:320,-0.31369,0.0,-0.379791,-0.00403,-0.0033770000000000002,0.002052,-27.25,-22.75,-19.18,2d
2019-07-15_180612:340,-0.311646,0.0,-0.379791,-0.003664,-0.004811,0.00196,-27.25,-22.75,-19.18,2d
2019-07-15_180612:360,-0.319275,0.0,-0.380798,-0.003573,-0.00536,0.001777,-27.25,-22.75,-19.68,2d
2019-07-15_180612:380,-0.329437,-0.000488,-0.381805,-0.0028399999999999996,-0.004842,0.001381,-27.25,-22.75,-19.68,2d
2019-07-15_180612:400,-0.330963,0.000488,-0.386383,-0.002779,-0.001393,0.000496,-27.25,-22.75,-19.68,2d
2019-07-15_180612:420,-0.333496,0.000488,-0.388428,-0.002779,1.1e-05,0.000343,-26.870001000000002,-23.559998999999998,-20.0,2d
2019-07-15_180612:440,-0.328949,0.0,-0.389954,-0.003054,0.004039,-0.001854,-26.870001000000002,-23.559998999999998,-20.0,2d
2019-07-15_180612:460,-0.322845,0.001007,-0.390442,-0.003176,0.004619,-0.002373,-27.25,-23.559998999999998,-18.059998999999998,2d
2019-07-15_180612:480,-0.31369,0.000488,-0.386383,-0.003512,0.00471,-0.002587,-27.25,-23.559998999999998,-18.059998999999998,2d
2019-07-15_180612:500,-0.310638,0.001007,-0.386383,-0.003817,0.003978,-0.002892,-27.25,-23.559998999999998,-18.059998999999998,2d
2019-07-15_180612:520,-0.31369,0.000488,-0.382324,-0.003878,0.0036420000000000003,-0.002709,-27.25,-23.18,-19.68,2d
2019-07-15_180612:540,-0.311646,0.0030210000000000002,-0.380798,-0.0036340000000000005,0.0023,-0.001,-27.25,-23.18,-19.68,2d
2019-07-15_180612:560,-0.319275,0.001007,-0.382812,-0.0036340000000000005,0.002116,-0.000908,-27.559998999999998,-23.559998999999998,-19.68,2d
2019-07-15_180612:580,-0.32132,0.001495,-0.385376,-0.003054,0.0023,-0.001519,-27.559998999999998,-23.559998999999998,-19.68,2d
2019-07-15_180612:600,-0.320282,0.0055850000000000006,-0.38385,-0.003054,0.002361,-0.001458,-27.559998999999998,-23.559998999999998,-19.68,2d
2019-07-15_180612:620,-0.318756,0.005065999999999999,-0.385376,-0.003176,0.002391,-0.0010609999999999999,-27.25,-23.18,-19.68,2d
2019-07-15_180612:640,-0.316742,0.0055850000000000006,-0.381317,-0.003237,0.0024519999999999998,-0.000512,-27.25,-23.18,-19.68,2d
2019-07-15_180612:660,-0.315216,0.005065999999999999,-0.383331,-0.003237,0.002239,-0.000725,-27.25,-23.18,-19.68,2d
2019-07-15_180612:680,-0.316223,0.005065999999999999,-0.381317,-0.0032979999999999997,0.001842,-0.001,-26.5,-22.75,-18.870001000000002,2d
2019-07-15_180612:700,-0.315704,0.006592,-0.381317,-0.0032979999999999997,0.001628,-0.000573,-26.5,-22.75,-18.870001000000002,2d
2019-07-15_180612:720,-0.319275,0.008118,-0.38385,-0.003512,0.001537,-0.000267,-26.870001000000002,-22.5,-21.18,2d
2019-07-15_180612:740,-0.319275,0.0055850000000000006,-0.380798,-0.003878,0.001628,0.000343,-26.870001000000002,-22.5,-21.18,2d
2019-07-15_180612:760,-0.322845,0.0035399999999999997,-0.381317,-0.003939,0.001628,0.000496,-26.870001000000002,-22.75,-19.68,2d
2019-07-15_180612:780,-0.320282,0.0035399999999999997,-0.38385,-0.003664,0.0017809999999999998,7.000000000000001e-06,-26.870001000000002,-22.75,-19.68,2d
2019-07-15_180612:800,-0.318756,0.002014,-0.382812,-0.0034509999999999996,0.001842,-0.00023700000000000001,-26.870001000000002,-22.75,-19.68,2d
2019-07-15_180612:820,-0.316742,0.004059,-0.384338,-0.003054,0.0014759999999999999,-0.000634,-27.25,-24.0,-20.370001000000002,2d
2019-07-15_180612:840,-0.318268,0.0055850000000000006,-0.382324,-0.0028399999999999996,0.0012619999999999999,-0.000512,-27.25,-24.0,-20.370001000000002,2d
2019-07-15_180612:860,-0.318268,0.005065999999999999,-0.382324,-0.002779,0.001292,-0.000176,-26.870001000000002,-23.18,-19.68,2d
2019-07-15_180612:880,-0.322327,0.004059,-0.382812,-0.003054,0.001415,-0.0010609999999999999,-26.870001000000002,-23.18,-19.68,2d
2019-07-15_180612:900,-0.319275,0.0035399999999999997,-0.383331,-0.003176,0.002116,-0.001366,-26.870001000000002,-23.18,-19.68,2d
2019-07-15_180612:920,-0.320801,0.0025329999999999997,-0.384338,-0.002993,0.002391,-0.0013050000000000002,-26.5,-23.559998999999998,-19.68,2d
2019-07-15_180612:940,-0.318756,0.0030210000000000002,-0.378754,-0.002718,0.002239,-0.001641,-26.5,-23.559998999999998,-19.68,2d
2019-07-15_180612:960,-0.317749,0.001495,-0.381805,-0.002169,0.002361,-0.001702,-26.5,-23.559998999999998,-19.68,2d
2019-07-15_180612:980,-0.319275,0.0025329999999999997,-0.382812,-0.001772,0.0019030000000000002,-0.002037,-26.059998999999998,-23.18,-18.870001000000002,2d
2019-07-15_180613:000,-0.319794,0.0055850000000000006,-0.381805,-0.001467,0.001964,-0.0019760000000000003,-26.059998999999998,-23.18,-18.870001000000002,2d
2019-07-15_180613:020,-0.319275,0.005065999999999999,-0.381317,-0.001192,0.001964,-0.00158,-26.5,-24.0,-18.5,2d
2019-07-15_180613:040,-0.318756,0.004547,-0.381805,-0.001131,0.0019030000000000002,-0.0010609999999999999,-26.5,-24.0,-18.5,2d
2019-07-15_180613:060,-0.320801,0.005065999999999999,-0.380798,-0.000857,0.002177,-0.000908,-26.5,-24.0,-18.5,2d
2019-07-15_180613:080,-0.317749,0.005065999999999999,-0.38385,-0.000857,0.002361,-0.0010609999999999999,-26.5,-24.0,-20.370001000000002,2d
2019-07-15_180613:100,-0.318268,0.006592,-0.382812,-0.000918,0.002391,-0.0010609999999999999,-26.5,-24.0,-20.370001000000002,2d
2019-07-15_180613:120,-0.317749,0.007111,-0.382324,-0.001131,0.002391,-0.000634,-27.559998999999998,-23.18,-20.370001000000002,2d
2019-07-15_180613:140,-0.317749,0.007599,-0.381805,-0.001375,0.0023,-0.00045099999999999996,-27.559998999999998,-23.18,-20.370001000000002,2d
2019-07-15_180613:160,-0.320282,0.007599,-0.383331,-0.001772,0.002513,-0.00011499999999999999,-27.559998999999998,-23.18,-20.370001000000002,2d
2019-07-15_180613:180,-0.316223,0.007111,-0.382812,-0.002199,0.002574,6.8e-05,-27.25,-23.18,-20.0,2d
2019-07-15_180613:200,-0.315216,0.007111,-0.38028,-0.002657,0.002055,-5.4000000000000005e-05,-27.25,-23.18,-20.0,2d
2019-07-15_180613:220,-0.315704,0.004547,-0.380798,-0.003237,0.0012619999999999999,7.000000000000001e-06,-26.5,-22.75,-20.75,2d
2019-07-15_180613:240,-0.318756,0.0055850000000000006,-0.38028,-0.0033280000000000002,0.0008960000000000001,-0.000267,-26.5,-22.75,-20.75,2d
2019-07-15_180613:260,-0.316223,0.005065999999999999,-0.38028,-0.0036950000000000004,0.0008039999999999999,-0.00011499999999999999,-26.5,-22.75,-20.75,2d
2019-07-15_180613:280,-0.317749,0.004547,-0.383331,-0.003817,0.00056,-5.4000000000000005e-05,-26.870001000000002,-23.559998999999998,-21.18,2d
2019-07-15_180613:300,-0.318756,0.0035399999999999997,-0.382324,-0.00403,0.000407,-0.000328,-26.870001000000002,-23.559998999999998,-21.18,2d
2019-07-15_180613:320,-0.322845,0.004059,-0.382324,-0.003878,0.000468,-0.000176,-26.5,-24.0,-20.0,2d
2019-07-15_180613:340,-0.32132,0.0030210000000000002,-0.382812,-0.003817,0.000682,0.00016,-26.5,-24.0,-20.0,2d
2019-07-15_180613:360,-0.32132,0.0055850000000000006,-0.38385,-0.003878,0.0012619999999999999,0.000404,-26.870001000000002,-24.0,-18.870001000000002,2d
2019-07-15_180613:380,-0.322327,0.0035399999999999997,-0.383331,-0.003878,0.001415,0.0008619999999999999,-26.870001000000002,-24.0,-18.870001000000002,2d
2019-07-15_180613:400,-0.32132,0.004059,-0.382812,-0.003939,0.001842,0.000923,-26.870001000000002,-24.0,-18.870001000000002,2d
2019-07-15_180613:420,-0.320801,0.006072999999999999,-0.383331,-0.004,0.002177,0.000709,-26.870001000000002,-22.75,-21.18,2d
2019-07-15_180613:440,-0.32486,0.004059,-0.382812,-0.003878,0.002361,0.000465,-26.870001000000002,-22.75,-21.18,2d
2019-07-15_180613:460,-0.325378,0.006072999999999999,-0.38385,-0.00403,0.003032,0.000343,-26.870001000000002,-22.75,-21.18,2d
2019-07-15_180613:480,-0.322845,0.0055850000000000006,-0.382324,-0.004091,0.00352,0.000923,-26.5,-23.559998999999998,-20.370001000000002,2d
2019-07-15_180613:500,-0.323853,0.007111,-0.381317,-0.004275,0.003764,0.0008619999999999999,-26.5,-23.559998999999998,-20.370001000000002,2d
2019-07-15_180613:520,-0.319794,0.008636,-0.380798,-0.004824,0.004039,0.001716,-26.870001000000002,-24.0,-20.75,2d
2019-07-15_180613:540,-0.323853,0.007599,-0.379272,-0.005068,0.003764,0.0026320000000000002,-26.870001000000002,-24.0,-20.75,2d
2019-07-15_180613:560,-0.318268,0.006072999999999999,-0.379791,-0.0058,0.003917,0.00251,-26.870001000000002,-24.0,-20.75,2d
2019-07-15_180613:580,-0.32132,0.004059,-0.379791,-0.005861,0.003368,0.001503,-26.5,-24.25,-21.18,2d
2019-07-15_180613:600,-0.319794,0.0055850000000000006,-0.378265,-0.0058,0.0029100000000000003,0.000404,-26.5,-24.25,-21.18,2d
2019-07-15_180613:620,-0.32132,0.004059,-0.378754,-0.0056170000000000005,0.002513,0.001045,-27.25,-22.75,-20.0,2d
2019-07-15_180613:640,-0.321808,0.002014,-0.378754,-0.0051600000000000005,0.002391,0.00132,-27.25,-22.75,-20.0,2d
2019-07-15_180613:660,-0.321808,0.004059,-0.378754,-0.004732,0.002391,0.001167,-27.25,-22.75,-20.0,2d
2019-07-15_180613:680,-0.321808,0.0025329999999999997,-0.378265,-0.004091,0.002574,0.00132,-26.5,-23.18,-19.18,2d
2019-07-15_180613:700,-0.32132,0.0030210000000000002,-0.377228,-0.003878,0.002361,0.000831,-26.5,-23.18,-19.18,2d
2019-07-15_180613:720,-0.32132,0.001495,-0.378265,-0.0034509999999999996,0.002177,0.001106,-27.25,-23.18,-19.18,2d
2019-07-15_180613:740,-0.322845,0.002014,-0.378265,-0.003176,0.001994,0.000709,-27.25,-23.18,-19.18,2d
2019-07-15_180613:760,-0.324371,0.0035399999999999997,-0.379272,-0.002932,0.001964,0.00016,-27.25,-23.18,-19.18,2d
2019-07-15_180613:780,-0.322327,0.0030210000000000002,-0.386383,-0.002535,0.001964,0.000129,-26.5,-23.18,-19.18,2d
2019-07-15_180613:800,-0.32132,0.004059,-0.37674,-0.002382,0.002055,-0.000176,-26.5,-23.18,-19.18,2d
2019-07-15_180613:820,-0.319794,0.004547,-0.379791,-0.002199,0.0016589999999999999,-0.000176,-26.5,-23.559998999999998,-18.870001000000002,2d
2019-07-15_180613:840,-0.325897,0.006592,-0.377747,-0.001986,0.001415,0.000343,-26.5,-23.559998999999998,-18.870001000000002,2d
2019-07-15_180613:860,-0.32486,0.004547,-0.378265,-0.001925,0.001842,0.000465,-26.5,-23.559998999999998,-18.870001000000002,2d
2019-07-15_180613:880,-0.324371,0.006072999999999999,-0.379791,-0.0025050000000000003,0.002116,-0.000389,-27.559998999999998,-23.18,-20.0,2d
2019-07-15_180613:900,-0.319275,0.005065999999999999,-0.380798,-0.002718,0.001842,0.00028199999999999997,-27.559998999999998,-23.18,-20.0,2d
2019-07-15_180613:920,-0.319275,0.0055850000000000006,-0.378754,-0.002535,0.001353,0.000831,-26.870001000000002,-23.18,-19.18,2d
2019-07-15_180613:940,-0.319275,0.005065999999999999,-0.37674,-0.002779,0.000407,0.000465,-26.870001000000002,-23.18,-19.18,2d
2019-07-15_180613:960,-0.323334,0.0055850000000000006,-0.378265,-0.003237,-0.000325,0.000496,-26.870001000000002,-23.18,-19.18,2d
2019-07-15_180613:980,-0.319275,0.0055850000000000006,-0.378265,-0.00339,1.1e-05,0.000496,-27.25,-23.18,-20.370001000000002,2d
2019-07-15_180614:000,-0.318268,0.005065999999999999,-0.379272,-0.003512,-0.000325,0.000343,-27.25,-23.18,-20.370001000000002,2d
2019-07-15_180614:020,-0.31723,0.005065999999999999,-0.380798,-0.003176,-0.00063,0.000709,-26.870001000000002,-23.18,-20.0,2d
2019-07-15_180614:040,-0.316223,0.005065999999999999,-0.381805,-0.00339,-0.00124,0.0008619999999999999,-26.870001000000002,-23.18,-20.0,2d
2019-07-15_180614:060,-0.311646,0.0035399999999999997,-0.384857,-0.003573,-0.00063,0.001045,-26.870001000000002,-23.18,-20.0,2d
2019-07-15_180614:080,-0.324371,0.004547,-0.382324,-0.003512,-0.001302,0.001381,-26.059998999999998,-23.18,-19.18,2d
2019-07-15_180614:100,-0.32486,0.005065999999999999,-0.384338,-0.0034509999999999996,-0.0005690000000000001,0.00132,-26.059998999999998,-23.18,-19.18,2d
2019-07-15_180614:120,-0.326385,0.006072999999999999,-0.384857,-0.00403,0.000621,0.001258,-26.5,-23.559998999999998,-20.75,2d
2019-07-15_180614:140,-0.325378,0.004059,-0.384857,-0.004152,0.001628,0.001655,-26.5,-23.559998999999998,-20.75,2d
2019-07-15_180614:160,-0.323853,0.0030210000000000002,-0.383331,-0.004336,0.002361,0.001716,-26.5,-23.559998999999998,-20.75,2d
2019-07-15_180614:180,-0.319794,0.001495,-0.381805,-0.004275,0.003093,0.001716,-26.870001000000002,-22.75,-19.68,2d
2019-07-15_180614:200,-0.321808,0.0,-0.380798,-0.004152,0.003368,0.001564,-26.870001000000002,-22.75,-19.68,2d
2019-07-15_180614:220,-0.320282,0.0,-0.381317,-0.004091,0.003246,0.001381,-27.25,-23.559998999999998,-20.0,2d
2019-07-15_180614:240,-0.320282,0.000488,-0.379791,-0.0037560000000000002,0.003032,0.001106,-27.25,-23.559998999999998,-20.0,2d
2019-07-15_180614:260,-0.321808,0.0,-0.377747,-0.0034509999999999996,0.0029100000000000003,0.000984,-27.25,-23.559998999999998,-20.0,2d
2019-07-15_180614:280,-0.321808,-0.001007,-0.379272,-0.003176,0.002849,0.000587,-27.25,-23.559998999999998,-19.68,2d
2019-07-15_180614:300,-0.323334,0.0,-0.379791,-0.002718,0.002971,0.000526,-27.25,-23.559998999999998,-19.68,2d
2019-07-15_180614:320,-0.322327,-0.000488,-0.381317,-0.002382,0.003307,0.000496,-27.25,-23.18,-21.559998999999998,2d
2019-07-15_180614:340,-0.320801,0.0,-0.379272,-0.001986,0.0035810000000000004,0.000465,-27.25,-23.18,-21.559998999999998,2d
2019-07-15_180614:360,-0.321808,0.0025329999999999997,-0.38028,-0.001864,0.003124,0.000343,-27.25,-23.18,-21.559998999999998,2d
2019-07-15_180614:380,-0.321808,0.0025329999999999997,-0.378754,-0.001864,0.003032,0.000496,-27.559998999999998,-23.18,-20.75,2d
2019-07-15_180614:400,-0.322845,0.0030210000000000002,-0.377747,-0.0022600000000000003,0.0029100000000000003,0.000465,-27.559998999999998,-23.18,-20.75,2d
2019-07-15_180614:420,-0.321808,0.002014,-0.377228,-0.0025960000000000002,0.002513,0.000709,-26.059998999999998,-23.18,-19.68,2d
2019-07-15_180614:440,-0.320801,0.001495,-0.377747,-0.0028399999999999996,0.002635,0.000923,-26.059998999999998,-23.18,-19.68,2d
2019-07-15_180614:460,-0.319275,0.000488,-0.378754,-0.0029010000000000004,0.002574,0.000496,-26.059998999999998,-23.18,-19.68,2d
2019-07-15_180614:480,-0.320801,0.000488,-0.379791,-0.0029010000000000004,0.0019030000000000002,0.000129,-26.870001000000002,-22.75,-20.75,2d
2019-07-15_180614:500,-0.323334,0.000488,-0.378754,-0.002932,0.0019030000000000002,0.001258,-26.870001000000002,-22.75,-20.75,2d
2019-07-15_180614:520,-0.323853,0.000488,-0.379272,-0.0034509999999999996,0.001628,0.001503,-28.0,-23.18,-19.68,2d
2019-07-15_180614:540,-0.321808,0.000488,-0.378265,-0.003664,0.0017809999999999998,0.000923,-28.0,-23.18,-19.68,2d
2019-07-15_180614:560,-0.324371,-0.000488,-0.379272,-0.003817,0.001598,-0.00023700000000000001,-28.0,-23.18,-19.68,2d
2019-07-15_180614:580,-0.323853,0.0,-0.378754,-0.003939,0.0019030000000000002,-0.00011499999999999999,-26.870001000000002,-23.18,-19.18,2d
2019-07-15_180614:600,-0.324371,-0.002014,-0.38028,-0.004,0.0019030000000000002,0.000465,-26.870001000000002,-23.18,-19.18,2d
2019-07-15_180614:620,-0.322845,-0.001007,-0.379272,-0.0036950000000000004,0.002055,0.000221,-26.059998999999998,-23.559998999999998,-20.370001000000002,2d
2019-07-15_180614:640,-0.320282,0.0,-0.378265,-0.003237,0.002055,0.00028199999999999997,-26.059998999999998,-23.559998999999998,-20.370001000000002,2d
2019-07-15_180614:660,-0.317749,-0.000488,-0.378754,-0.002932,0.0019030000000000002,0.000587,-26.059998999999998,-23.559998999999998,-20.370001000000002,2d
2019-07-15_180614:680,-0.317749,0.001007,-0.377747,-0.003176,0.001018,0.000587,-27.559998999999998,-23.559998999999998,-20.370001000000002,2d
2019-07-15_180614:700,-0.31723,0.0,-0.378265,-0.0033280000000000002,0.000285,0.000923,-27.559998999999998,-23.559998999999998,-20.370001000000002,2d
2019-07-15_180614:720,-0.316223,0.0,-0.379272,-0.003664,-0.000264,0.000587,-26.870001000000002,-22.75,-20.0,2d
2019-07-15_180614:740,-0.314697,0.0,-0.378265,-0.00403,-0.0009050000000000001,0.00016,-26.870001000000002,-22.75,-20.0,2d
2019-07-15_180614:760,-0.311646,-0.001007,-0.379272,-0.004275,-0.001698,0.00016,-26.870001000000002,-22.75,-20.0,2d
2019-07-15_180614:780,-0.313171,0.0,-0.381805,-0.004336,-0.002888,-0.00011499999999999999,-27.25,-23.18,-19.68,2d
2019-07-15_180614:800,-0.316223,-0.001007,-0.38385,-0.004152,-0.0037119999999999996,0.000465,-27.25,-23.18,-19.68,2d
2019-07-15_180614:820,-0.319275,-0.002014,-0.384857,-0.0036340000000000005,-0.004018,0.001167,-26.870001000000002,-23.559998999999998,-20.75,2d
2019-07-15_180614:840,-0.318756,-0.001007,-0.382812,-0.0032979999999999997,-0.003834,0.0008619999999999999,-26.870001000000002,-23.559998999999998,-20.75,2d
2019-07-15_180614:860,-0.320801,-0.001007,-0.384857,-0.002718,-0.0037119999999999996,0.001442,-26.870001000000002,-23.559998999999998,-20.75,2d
2019-07-15_180614:880,-0.320801,-0.001007,-0.384857,-0.002199,-0.003163,0.002571,-26.5,-22.75,-20.0,2d
2019-07-15_180614:900,-0.317749,0.0,-0.385376,-0.001864,-0.002431,0.00309,-26.5,-22.75,-20.0,2d
2019-07-15_180614:920,-0.31369,0.0,-0.384857,-0.0020469999999999998,-0.002156,0.003517,-27.25,-23.559998999999998,-21.18,2d
2019-07-15_180614:940,-0.316742,0.000488,-0.382812,-0.002382,-0.00237,0.0037,-27.25,-23.559998999999998,-21.18,2d
2019-07-15_180614:960,-0.316223,0.0,-0.385376,-0.002718,-0.0024920000000000003,0.004036,-27.25,-23.559998999999998,-21.18,2d
2019-07-15_180614:980,-0.311646,-0.001007,-0.386383,-0.0034509999999999996,-0.002248,0.004158,-26.870001000000002,-22.75,-20.870001000000002,2d
2019-07-15_180615:000,-0.314697,-0.000488,-0.386902,-0.004,-0.002583,0.003639,-26.870001000000002,-22.75,-20.870001000000002,2d
2019-07-15_180615:020,-0.320801,-0.0025329999999999997,-0.389435,-0.004336,-0.0024920000000000003,0.0037,-26.5,-23.18,-20.370001000000002,2d
2019-07-15_180615:040,-0.320282,-0.0035399999999999997,-0.389954,-0.004671,-0.001515,0.003303,-26.5,-23.18,-20.370001000000002,2d
2019-07-15_180615:060,-0.319275,-0.004059,-0.390961,-0.005007,-0.00044699999999999997,0.002693,-26.5,-23.18,-20.370001000000002,2d
2019-07-15_180615:080,-0.323853,-0.004059,-0.392487,-0.004793,0.000346,0.00251,-27.25,-22.75,-21.18,2d
2019-07-15_180615:100,-0.324371,-0.0055850000000000006,-0.392487,-0.0048850000000000005,0.00172,0.0021739999999999997,-27.25,-22.75,-21.18,2d
2019-07-15_180615:120,-0.322327,-0.0055850000000000006,-0.392487,-0.004793,0.003886,0.001655,-26.5,-23.18,-20.0,2d
2019-07-15_180615:140,-0.318756,-0.0055850000000000006,-0.390442,-0.004549,0.004894,0.001228,-26.5,-23.18,-20.0,2d
2019-07-15_180615:160,-0.32486,-0.0055850000000000006,-0.389435,-0.004397,0.005779,0.000923,-26.5,-23.18,-20.0,2d
2019-07-15_180615:180,-0.320801,-0.006592,-0.390442,-0.0036950000000000004,0.006876999999999999,0.0008619999999999999,-26.059998999999998,-23.18,-21.18,2d
2019-07-15_180615:200,-0.317749,-0.0055850000000000006,-0.388916,-0.0037560000000000002,0.007488,0.00028199999999999997,-26.059998999999998,-23.18,-21.18,2d
2019-07-15_180615:220,-0.312653,-0.005065999999999999,-0.38739,-0.0036950000000000004,0.007701,0.000221,-26.870001000000002,-23.18,-19.18,2d
2019-07-15_180615:240,-0.31369,-0.006072999999999999,-0.382812,-0.00339,0.007426,0.000343,-26.870001000000002,-23.18,-19.18,2d
2019-07-15_180615:260,-0.316223,-0.006072999999999999,-0.383331,-0.0032979999999999997,0.006572,-0.000512,-26.870001000000002,-23.18,-19.18,2d
2019-07-15_180615:280,-0.317749,-0.006592,-0.381805,-0.0028399999999999996,0.006541,-0.000634,-27.25,-23.18,-21.18,2d
2019-07-15_180615:300,-0.31723,-0.005065999999999999,-0.380798,-0.002443,0.00648,-0.000725,-27.25,-23.18,-21.18,2d
2019-07-15_180615:320,-0.314178,-0.004547,-0.379272,-0.0018030000000000001,0.005901,-0.000664,-26.870001000000002,-23.18,-20.370001000000002,2d
2019-07-15_180615:340,-0.31369,-0.005065999999999999,-0.37674,-0.0018030000000000001,0.005686999999999999,-0.000512,-26.870001000000002,-23.18,-20.370001000000002,2d
2019-07-15_180615:360,-0.31369,-0.004547,-0.38028,-0.001375,0.0042829999999999995,-0.000908,-26.870001000000002,-23.18,-20.370001000000002,2d
2019-07-15_180615:380,-0.314178,-0.0025329999999999997,-0.379272,-0.000857,0.0035810000000000004,-0.000908,-27.559998999999998,-23.559998999999998,-19.18,2d
2019-07-15_180615:400,-0.314178,-0.002014,-0.381317,-0.000643,0.0031850000000000003,-0.0009689999999999999,-27.559998999999998,-23.559998999999998,-19.18,2d
2019-07-15_180615:420,-0.315216,-0.001495,-0.383331,-0.000734,0.0024519999999999998,-0.0011220000000000002,-27.25,-22.75,-20.75,2d
2019-07-15_180615:440,-0.316742,-0.002014,-0.380798,-0.000643,0.002116,-0.0008470000000000001,-27.25,-22.75,-20.75,2d
2019-07-15_180615:460,-0.319275,-0.0025329999999999997,-0.383331,-0.000796,0.002116,-0.000634,-27.25,-22.75,-20.75,2d
2019-07-15_180615:480,-0.319275,-0.002014,-0.383331,-0.000734,0.002361,-0.000512,-26.059998999999998,-22.75,-21.18,2d
2019-07-15_180615:500,-0.321808,-0.0025329999999999997,-0.379791,-0.001192,0.0023,-0.000634,-26.059998999999998,-22.75,-21.18,2d
2019-07-15_180615:520,-0.324371,-0.0030210000000000002,-0.379791,-0.0014060000000000001,0.0024519999999999998,0.000465,-27.559998999999998,-22.75,-19.18,2d
2019-07-15_180615:540,-0.323853,-0.0035399999999999997,-0.38028,-0.001772,0.002971,0.000709,-27.559998999999998,-22.75,-19.18,2d
2019-07-15_180615:560,-0.322845,-0.0055850000000000006,-0.380798,-0.002321,0.003246,0.000404,-27.559998999999998,-22.75,-19.18,2d
2019-07-15_180615:580,-0.322845,-0.006072999999999999,-0.381317,-0.002657,0.003124,-0.000267,-26.870001000000002,-22.5,-20.0,2d
2019-07-15_180615:600,-0.32132,-0.007599,-0.377747,-0.0029010000000000004,0.003246,7.000000000000001e-06,-26.870001000000002,-22.5,-20.0,2d
2019-07-15_180615:620,-0.322327,-0.009125,-0.375702,-0.002932,0.003124,-0.00011499999999999999,-26.870001000000002,-23.18,-21.18,2d
2019-07-15_180615:640,-0.319794,-0.008636,-0.375214,-0.002932,0.003093,-0.000725,-26.870001000000002,-23.18,-21.18,2d
2019-07-15_180615:660,-0.320801,-0.009644,-0.374695,-0.0025050000000000003,0.002788,-0.001,-26.870001000000002,-23.18,-21.18,2d
2019-07-15_180615:680,-0.315704,-0.009125,-0.375214,-0.002321,0.002513,-0.0011220000000000002,-27.559998999999998,-22.75,-19.25,2d
2019-07-15_180615:700,-0.316223,-0.008118,-0.375214,-0.0020469999999999998,0.001537,-0.001183,-27.559998999999998,-22.75,-19.25,2d
2019-07-15_180615:720,-0.314178,-0.008118,-0.374176,-0.001925,0.000285,-0.000908,-28.25,-22.5,-20.370001000000002,2d
2019-07-15_180615:740,-0.316223,-0.008636,-0.374695,-0.001864,-0.000661,-0.000786,-28.25,-22.5,-20.370001000000002,2d
2019-07-15_180615:760,-0.315216,-0.007111,-0.375214,-0.001925,-0.001515,-0.000786,-28.25,-22.5,-20.370001000000002,2d
2019-07-15_180615:780,-0.31723,-0.007599,-0.379791,-0.001925,-0.002522,-0.000664,-26.870001000000002,-22.75,-20.0,2d
2019-07-15_180615:800,-0.316742,-0.006072999999999999,-0.38028,-0.002169,-0.003041,-0.000908,-26.870001000000002,-22.75,-20.0,2d
2019-07-15_180615:820,-0.31723,-0.007111,-0.38028,-0.0025960000000000002,-0.0035600000000000002,-0.00045099999999999996,-26.870001000000002,-23.18,-19.68,2d
2019-07-15_180615:840,-0.313171,-0.0035399999999999997,-0.378265,-0.0032979999999999997,-0.004292,0.00016,-26.870001000000002,-23.18,-19.68,2d
2019-07-15_180615:860,-0.315704,-0.0055850000000000006,-0.378754,-0.003878,-0.005086,0.000526,-26.870001000000002,-23.18,-19.68,2d
2019-07-15_180615:880,-0.319275,-0.006592,-0.379272,-0.00461,-0.005543,0.000465,-26.5,-22.75,-20.0,2d
2019-07-15_180615:900,-0.320801,-0.009125,-0.379791,-0.005129,-0.0052380000000000005,0.000465,-26.5,-22.75,-20.0,2d
2019-07-15_180615:920,-0.318268,-0.010162000000000001,-0.38385,-0.005129,-0.004292,0.000404,-27.25,-22.75,-20.0,2d
2019-07-15_180615:940,-0.315216,-0.009644,-0.38385,-0.004824,-0.0040479999999999995,0.001228,-27.25,-22.75,-20.0,2d
2019-07-15_180615:960,-0.31369,-0.008636,-0.383331,-0.004946,-0.004018,0.001777,-27.25,-22.75,-20.0,2d
2019-07-15_180615:980,-0.31012,-0.007599,-0.384338,-0.005007,-0.004292,0.00251,-26.870001000000002,-22.5,-20.870001000000002,2d
2019-07-15_180616:000,-0.311127,-0.007111,-0.385864,-0.004946,-0.004964,0.0026320000000000002,-26.870001000000002,-22.5,-20.870001000000002,2d
2019-07-15_180616:020,-0.312164,-0.006592,-0.389435,-0.005282,-0.005482,0.00251,-26.059998999999998,-23.18,-20.75,2d
2019-07-15_180616:040,-0.317749,-0.009125,-0.388916,-0.005221,-0.0054210000000000005,0.002571,-26.059998999999998,-23.18,-20.75,2d
2019-07-15_180616:060,-0.320282,-0.010162000000000001,-0.392487,-0.005221,-0.003896,0.002113,-26.059998999999998,-23.18,-20.75,2d
2019-07-15_180616:080,-0.315704,-0.009125,-0.393005,-0.004671,-0.002827,0.001838,-26.870001000000002,-22.5,-20.75,2d
2019-07-15_180616:100,-0.314178,-0.010162000000000001,-0.394531,-0.004213000000000001,-0.002187,0.001991,-26.870001000000002,-22.5,-20.75,2d
2019-07-15_180616:120,-0.31723,-0.009125,-0.394012,-0.004091,-0.001759,0.001991,-26.870001000000002,-22.5,-22.370001000000002,2d
2019-07-15_180616:140,-0.32995599999999997,-0.011169,-0.397583,-0.0036950000000000004,-0.000233,0.001655,-26.870001000000002,-22.5,-22.370001000000002,2d
2019-07-15_180616:160,-0.330963,-0.011687999999999999,-0.397064,-0.003512,0.0029100000000000003,0.000496,-26.870001000000002,-22.5,-22.370001000000002,2d
2019-07-15_180616:180,-0.322845,-0.010651,-0.396545,-0.003176,0.005443,0.000129,-26.5,-22.5,-22.0,2d
2019-07-15_180616:200,-0.309601,-0.008118,-0.390961,-0.003176,0.006297,-0.00011499999999999999,-26.5,-22.5,-22.0,2d
2019-07-15_180616:220,-0.303528,-0.006592,-0.38739,-0.00339,0.005443,0.000221,-26.870001000000002,-22.75,-21.18,2d
2019-07-15_180616:240,-0.304016,-0.0055850000000000006,-0.382324,-0.003817,0.004161,0.000709,-26.870001000000002,-22.75,-21.18,2d
2019-07-15_180616:260,-0.305054,-0.006072999999999999,-0.383331,-0.004213000000000001,0.0029100000000000003,0.000465,-26.870001000000002,-22.75,-21.18,2d
2019-07-15_180616:280,-0.304016,-0.006592,-0.38385,-0.004397,0.001537,6.8e-05,-27.559998999999998,-22.5,-21.559998999999998,2d
2019-07-15_180616:300,-0.30300900000000003,-0.006592,-0.384857,-0.004427,0.00016299999999999998,7.000000000000001e-06,-27.559998999999998,-22.5,-21.559998999999998,2d
2019-07-15_180616:320,-0.305542,-0.006592,-0.385864,-0.004397,-0.001118,-0.000328,-26.870001000000002,-23.18,-21.559998999999998,2d
2019-07-15_180616:340,-0.30654899999999996,-0.006592,-0.386383,-0.004549,-0.002095,-0.000176,-26.870001000000002,-23.18,-21.559998999999998,2d
2019-07-15_180616:360,-0.311646,-0.0055850000000000006,-0.388916,-0.004549,-0.0027660000000000002,-0.00023700000000000001,-26.870001000000002,-23.18,-21.559998999999998,2d
2019-07-15_180616:380,-0.318268,-0.006072999999999999,-0.389954,-0.004213000000000001,-0.002187,7.000000000000001e-06,-26.870001000000002,-22.5,-21.559998999999998,2d
2019-07-15_180616:400,-0.32132,-0.007111,-0.390961,-0.004,-0.0009660000000000001,0.00016,-26.870001000000002,-22.5,-21.559998999999998,2d
2019-07-15_180616:420,-0.330963,-0.007599,-0.397583,-0.003878,0.0010789999999999999,0.000526,-26.059998999999998,-23.18,-21.18,2d
2019-07-15_180616:440,-0.323853,-0.008636,-0.39859,-0.0037560000000000002,0.004314,0.001655,-26.059998999999998,-23.18,-21.18,2d
2019-07-15_180616:460,-0.314178,-0.008636,-0.40011599999999997,-0.0032979999999999997,0.006023,0.002449,-26.059998999999998,-23.18,-21.18,2d
2019-07-15_180616:480,-0.30654899999999996,-0.007599,-0.39502,-0.003054,0.006938,0.002693,-26.059998999999998,-23.18,-21.559998999999998,2d
2019-07-15_180616:500,-0.30249000000000004,-0.009125,-0.389435,-0.0028399999999999996,0.005961999999999999,0.002449,-26.059998999999998,-23.18,-21.559998999999998,2d
2019-07-15_180616:520,-0.29895,-0.010651,-0.385376,-0.0022600000000000003,0.00471,0.0030280000000000003,-26.5,-23.18,-21.18,2d
2019-07-15_180616:540,-0.29895,-0.008118,-0.382812,-0.0021079999999999996,0.002849,0.00251,-26.5,-23.18,-21.18,2d
2019-07-15_180616:560,-0.300476,-0.008636,-0.382324,-0.001467,0.0009570000000000001,0.002784,-26.5,-23.18,-21.18,2d
2019-07-15_180616:580,-0.303528,-0.009125,-0.382812,-0.001314,-0.0009660000000000001,0.002784,-26.870001000000002,-22.5,-20.370001000000002,2d
2019-07-15_180616:600,-0.311127,-0.009644,-0.382812,-0.0017109999999999998,-0.001637,0.002449,-26.870001000000002,-22.5,-20.370001000000002,2d
2019-07-15_180616:620,-0.31723,-0.009125,-0.388428,-0.001864,-0.001912,0.002845,-27.25,-22.5,-22.0,2d
2019-07-15_180616:640,-0.317749,-0.009644,-0.389435,-0.002535,-0.001027,0.002845,-27.25,-22.5,-22.0,2d
2019-07-15_180616:660,-0.312653,-0.009644,-0.391479,-0.002993,-0.00044699999999999997,0.002784,-27.25,-22.5,-22.0,2d
2019-07-15_180616:680,-0.313171,-0.008118,-0.391968,-0.003664,-5e-05,0.001838,-26.059998999999998,-22.18,-20.370001000000002,2d
2019-07-15_180616:700,-0.311127,-0.009644,-0.393005,-0.004336,0.000499,0.001106,-26.059998999999998,-22.18,-20.370001000000002,2d
2019-07-15_180616:720,-0.310638,-0.011169,-0.393494,-0.004732,0.0009570000000000001,0.001258,-27.25,-22.18,-20.870001000000002,2d
2019-07-15_180616:740,-0.311127,-0.012177,-0.391479,-0.005007,0.0014759999999999999,0.000465,-27.25,-22.18,-20.870001000000002,2d
2019-07-15_180616:760,-0.31012,-0.011687999999999999,-0.391968,-0.0051600000000000005,0.0017809999999999998,7.000000000000001e-06,-27.25,-22.18,-20.870001000000002,2d
2019-07-15_180616:780,-0.309601,-0.013702,-0.391968,-0.004732,0.0023,0.000221,-26.870001000000002,-22.18,-21.18,2d
2019-07-15_180616:800,-0.307068,-0.012695,-0.392487,-0.004488000000000001,0.002055,0.000129,-26.870001000000002,-22.18,-21.18,2d
2019-07-15_180616:820,-0.313171,-0.012177,-0.391968,-0.0037560000000000002,0.0017809999999999998,0.000587,-27.559998999999998,-22.5,-21.18,2d
2019-07-15_180616:840,-0.309113,-0.011169,-0.389954,-0.0034509999999999996,0.001964,0.000496,-27.559998999999998,-22.5,-21.18,2d
2019-07-15_180616:860,-0.316742,-0.010162000000000001,-0.391968,-0.0034509999999999996,0.001964,0.000343,-27.559998999999998,-22.5,-21.18,2d
2019-07-15_180616:880,-0.315704,-0.008636,-0.393494,-0.003573,0.002635,-5.4000000000000005e-05,-26.5,-22.75,-21.18,2d
2019-07-15_180616:900,-0.312653,-0.006592,-0.393494,-0.004,0.00352,0.000129,-26.5,-22.75,-21.18,2d
2019-07-15_180616:920,-0.310638,-0.008118,-0.391968,-0.004275,0.003978,0.000587,-26.059998999999998,-21.75,-22.0,2d
2019-07-15_180616:940,-0.307587,-0.007111,-0.388428,-0.004671,0.003886,0.001106,-26.059998999999998,-21.75,-22.0,2d
2019-07-15_180616:960,-0.306061,-0.006592,-0.388428,-0.005404,0.003368,0.000587,-26.059998999999998,-21.75,-22.0,2d
2019-07-15_180616:980,-0.308075,-0.006592,-0.388916,-0.005922,0.002513,0.000343,-26.5,-22.75,-20.75,2d
2019-07-15_180617:000,-0.309601,-0.007599,-0.387909,-0.00635,0.002116,0.000526,-26.5,-22.75,-20.75,2d
2019-07-15_180617:020,-0.310638,-0.009125,-0.388916,-0.006807,0.00172,0.000587,-26.5,-22.75,-20.370001000000002,2d
2019-07-15_180617:040,-0.314178,-0.008636,-0.386383,-0.007051999999999999,0.0016589999999999999,0.000587,-26.5,-22.75,-20.370001000000002,2d
2019-07-15_180617:060,-0.334015,-0.011687999999999999,-0.386383,-0.006684999999999999,0.002177,0.000496,-26.5,-22.75,-20.370001000000002,2d
2019-07-15_180617:080,-0.296387,-0.011687999999999999,-0.390442,-0.006014,0.004375,0.000221,-26.870001000000002,-22.18,-21.559998999999998,2d
2019-07-15_180617:100,-0.318268,-0.009125,-0.392487,-0.005556,0.0034289999999999998,0.000129,-26.870001000000002,-22.18,-21.559998999999998,2d
2019-07-15_180617:120,-0.304016,-0.008118,-0.386383,-0.005221,0.0036420000000000003,0.000465,-27.25,-22.5,-20.370001000000002,2d
2019-07-15_180617:140,-0.31369,-0.007111,-0.392487,-0.0048850000000000005,0.003124,0.001167,-27.25,-22.5,-20.370001000000002,2d
2019-07-15_180617:160,-0.310638,-0.007111,-0.387909,-0.004671,0.003246,0.000709,-27.25,-22.5,-20.370001000000002,2d
2019-07-15_180617:180,-0.31369,-0.0055850000000000006,-0.388916,-0.004549,0.00352,0.000526,-27.25,-22.18,-20.870001000000002,2d
2019-07-15_180617:200,-0.309601,-0.0055850000000000006,-0.38739,-0.004549,0.003703,0.0007700000000000001,-27.25,-22.18,-20.870001000000002,2d
2019-07-15_180617:220,-0.313171,-0.005065999999999999,-0.389954,-0.004824,0.003703,0.000587,-27.25,-22.18,-20.370001000000002,2d
2019-07-15_180617:240,-0.312653,-0.0055850000000000006,-0.386902,-0.0051600000000000005,0.00352,0.000831,-27.25,-22.18,-20.370001000000002,2d
2019-07-15_180617:260,-0.313171,-0.005065999999999999,-0.387909,-0.005404,0.003703,0.000831,-27.25,-22.18,-20.370001000000002,2d
2019-07-15_180617:280,-0.314178,-0.004547,-0.386383,-0.005678,0.0035810000000000004,0.000984,-27.559998999999998,-22.75,-20.370001000000002,2d
2019-07-15_180617:300,-0.314697,-0.006072999999999999,-0.384857,-0.005861,0.003703,0.001625,-27.559998999999998,-22.75,-20.370001000000002,2d
2019-07-15_180617:320,-0.315216,-0.0055850000000000006,-0.384857,-0.006136,0.0036420000000000003,0.001625,-26.5,-23.18,-20.870001000000002,2d
2019-07-15_180617:340,-0.314178,-0.0055850000000000006,-0.382812,-0.006319,0.003978,0.001777,-26.5,-23.18,-20.870001000000002,2d
2019-07-15_180617:360,-0.313171,-0.006072999999999999,-0.384857,-0.006594,0.00352,0.001655,-26.5,-23.18,-20.870001000000002,2d
2019-07-15_180617:380,-0.309113,-0.0055850000000000006,-0.383331,-0.006684999999999999,0.0031850000000000003,0.001503,-26.5,-22.75,-20.0,2d
2019-07-15_180617:400,-0.311127,-0.0055850000000000006,-0.383331,-0.006411,0.002696,0.000831,-26.5,-22.75,-20.0,2d
2019-07-15_180617:420,-0.312653,-0.0055850000000000006,-0.386902,-0.0064719999999999995,0.0019030000000000002,0.000587,-26.870001000000002,-22.5,-20.870001000000002,2d
2019-07-15_180617:440,-0.311127,-0.006072999999999999,-0.381317,-0.006319,0.001628,0.000709,-26.870001000000002,-22.5,-20.870001000000002,2d
2019-07-15_180617:460,-0.312653,-0.0055850000000000006,-0.384857,-0.00635,0.001201,0.000648,-26.870001000000002,-22.5,-20.870001000000002,2d
2019-07-15_180617:480,-0.314697,-0.006072999999999999,-0.385376,-0.006136,0.0012619999999999999,0.0007700000000000001,-27.559998999999998,-22.75,-20.370001000000002,2d
2019-07-15_180617:500,-0.318756,-0.005065999999999999,-0.389954,-0.005556,0.001353,-5.4000000000000005e-05,-27.559998999999998,-22.75,-20.370001000000002,2d
2019-07-15_180617:520,-0.318756,-0.006072999999999999,-0.38739,-0.004946,0.001598,-0.000512,-28.0,-23.18,-19.68,2d
2019-07-15_180617:540,-0.315216,-0.004547,-0.386902,-0.004671,0.0023,-0.001366,-28.0,-23.18,-19.68,2d
2019-07-15_180617:560,-0.315704,-0.0030210000000000002,-0.388428,-0.004213000000000001,0.002513,-0.001397,-28.0,-23.18,-19.68,2d
2019-07-15_180617:580,-0.312653,-0.004059,-0.388428,-0.0036950000000000004,0.0023,-0.001366,-28.0,-22.75,-20.0,2d
2019-07-15_180617:600,-0.31723,0.0,-0.38385,-0.0037560000000000002,0.001994,-0.001458,-28.0,-22.75,-20.0,2d
2019-07-15_180617:620,-0.32132,-0.001007,-0.38385,-0.00339,0.002361,7.000000000000001e-06,-26.870001000000002,-22.5,-20.370001000000002,2d
2019-07-15_180617:640,-0.315704,0.0,-0.38385,-0.0036340000000000005,0.002696,0.00028199999999999997,-26.870001000000002,-22.5,-20.370001000000002,2d
2019-07-15_180617:660,-0.315216,0.0,-0.384857,-0.0037560000000000002,0.002513,-5.4000000000000005e-05,-26.870001000000002,-22.5,-20.370001000000002,2d
2019-07-15_180617:680,-0.317749,0.0,-0.382324,-0.003878,0.002391,-0.000664,-27.25,-23.18,-20.0,2d
2019-07-15_180617:700,-0.317749,-0.000488,-0.383331,-0.00403,0.002788,6.8e-05,-27.25,-23.18,-20.0,2d
2019-07-15_180617:720,-0.31723,-0.001495,-0.38385,-0.004397,0.002788,-5.4000000000000005e-05,-27.25,-22.75,-21.18,2d
2019-07-15_180617:740,-0.312164,0.0,-0.383331,-0.004488000000000001,0.002635,-0.000664,-27.25,-22.75,-21.18,2d
2019-07-15_180617:760,-0.313171,-0.000488,-0.381805,-0.004671,0.002513,-0.000725,-27.25,-22.75,-21.18,2d
2019-07-15_180617:780,-0.311646,-0.001007,-0.385376,-0.00461,0.001964,-0.001183,-27.25,-24.0,-19.68,2d
2019-07-15_180617:800,-0.312653,0.0,-0.384338,-0.004732,0.001292,-0.0008470000000000001,-27.25,-24.0,-19.68,2d
2019-07-15_180617:820,-0.316742,-0.001495,-0.385864,-0.004671,0.0009570000000000001,-0.000634,-26.870001000000002,-23.18,-19.68,2d
2019-07-15_180617:840,-0.322845,0.0,-0.38385,-0.004549,0.001292,-0.000786,-26.870001000000002,-23.18,-19.68,2d
2019-07-15_180617:860,-0.314697,0.000488,-0.384338,-0.004397,0.001415,-0.000725,-26.870001000000002,-23.18,-19.68,2d
2019-07-15_180617:880,-0.316223,0.0,-0.384857,-0.004488000000000001,0.001415,-0.000634,-27.559998999999998,-23.18,-20.870001000000002,2d
2019-07-15_180617:900,-0.314178,0.001007,-0.385376,-0.004213000000000001,0.001353,6.8e-05,-27.559998999999998,-23.18,-20.870001000000002,2d
2019-07-15_180617:920,-0.312653,0.0,-0.384857,-0.004427,0.001018,0.000709,-27.25,-24.68,-19.68,2d
2019-07-15_180617:940,-0.314697,0.0,-0.384338,-0.00403,0.000682,0.0008619999999999999,-27.25,-24.68,-19.68,2d
2019-07-15_180617:960,-0.314178,-0.000488,-0.386383,-0.003817,0.0009570000000000001,6.8e-05,-27.25,-24.68,-19.68,2d
2019-07-15_180617:980,-0.314178,0.0,-0.386383,-0.0036950000000000004,0.0009570000000000001,0.000343,-26.870001000000002,-23.559998999999998,-19.68,2d
2019-07-15_180618:000,-0.316223,0.0,-0.387909,-0.003512,0.0009570000000000001,0.0008619999999999999,-26.870001000000002,-23.559998999999998,-19.68,2d
2019-07-15_180618:020,-0.314697,0.002014,-0.387909,-0.003664,0.001018,0.0007700000000000001,-27.25,-23.18,-20.870001000000002,2d
2019-07-15_180618:040,-0.316742,0.001495,-0.388428,-0.0037560000000000002,0.0014759999999999999,0.000923,-27.25,-23.18,-20.870001000000002,2d
2019-07-15_180618:060,-0.316742,0.000488,-0.386383,-0.0037560000000000002,0.002116,0.000526,-27.25,-23.18,-20.870001000000002,2d
2019-07-15_180618:080,-0.316742,0.0025329999999999997,-0.384857,-0.003939,0.001994,0.000526,-26.059998999999998,-22.5,-20.370001000000002,2d
2019-07-15_180618:100,-0.314178,0.000488,-0.386902,-0.003939,0.002055,0.000831,-26.059998999999998,-22.5,-20.370001000000002,2d
2019-07-15_180618:120,-0.314697,0.001007,-0.38739,-0.003939,0.00172,0.000587,-26.870001000000002,-23.559998999999998,-20.370001000000002,2d
2019-07-15_180618:140,-0.314178,-0.001495,-0.386383,-0.0036950000000000004,0.001994,0.00016,-26.870001000000002,-23.559998999999998,-20.370001000000002,2d
2019-07-15_180618:160,-0.315704,-0.000488,-0.384857,-0.0034509999999999996,0.001994,-0.000176,-26.870001000000002,-23.559998999999998,-20.370001000000002,2d
2019-07-15_180618:180,-0.316742,-0.001495,-0.386383,-0.0029010000000000004,0.002177,-0.000634,-26.5,-23.559998999999998,-19.68,2d
2019-07-15_180618:200,-0.314697,-0.001007,-0.384857,-0.0025960000000000002,0.002361,-0.000786,-26.5,-23.559998999999998,-19.68,2d
2019-07-15_180618:220,-0.315704,0.0,-0.386383,-0.0025050000000000003,0.0024519999999999998,-0.000664,-26.5,-22.75,-20.0,2d
2019-07-15_180618:240,-0.316223,0.001007,-0.386383,-0.0022600000000000003,0.002361,-0.000786,-26.5,-22.75,-20.0,2d
2019-07-15_180618:260,-0.316223,0.0030210000000000002,-0.384857,-0.002657,0.002177,-0.000634,-26.5,-22.75,-20.0,2d
2019-07-15_180618:280,-0.316223,0.0030210000000000002,-0.384857,-0.002932,0.0023,-0.00045099999999999996,-27.559998999999998,-22.75,-19.68,2d
2019-07-15_180618:300,-0.316223,0.0030210000000000002,-0.384338,-0.00339,0.002177,-0.000573,-27.559998999999998,-22.75,-19.68,2d
2019-07-15_180618:320,-0.317749,0.0030210000000000002,-0.384338,-0.003573,0.002177,-0.000176,-27.559998999999998,-22.75,-20.870001000000002,2d
2019-07-15_180618:340,-0.317749,0.000488,-0.38385,-0.0036950000000000004,0.0023,0.000129,-27.559998999999998,-22.75,-20.870001000000002,2d
2019-07-15_180618:360,-0.31723,0.000488,-0.38385,-0.0034509999999999996,0.002361,0.00016,-27.559998999999998,-22.75,-20.870001000000002,2d
2019-07-15_180618:380,-0.31723,0.0,-0.383331,-0.0032979999999999997,0.002574,0.00028199999999999997,-27.559998999999998,-24.0,-20.370001000000002,2d
2019-07-15_180618:400,-0.31723,0.0,-0.382812,-0.00339,0.002361,0.000221,-27.559998999999998,-24.0,-20.370001000000002,2d
2019-07-15_180618:420,-0.316223,0.001007,-0.381317,-0.0031149999999999997,0.0023,0.000221,-27.25,-22.75,-20.370001000000002,2d
2019-07-15_180618:440,-0.316223,0.001007,-0.382812,-0.003237,0.001964,-0.00011499999999999999,-27.25,-22.75,-20.370001000000002,2d
2019-07-15_180618:460,-0.316223,0.000488,-0.383331,-0.0032979999999999997,0.002177,0.000404,-27.25,-22.75,-20.370001000000002,2d
2019-07-15_180618:480,-0.319275,0.002014,-0.384338,-0.0033280000000000002,0.002177,0.000648,-27.25,-23.559998999999998,-20.370001000000002,2d
2019-07-15_180618:500,-0.318268,0.002014,-0.382812,-0.00339,0.002239,0.00028199999999999997,-27.25,-23.559998999999998,-20.370001000000002,2d
2019-07-15_180618:520,-0.316223,0.000488,-0.38385,-0.003939,0.002239,0.000404,-26.5,-23.559998999999998,-20.370001000000002,2d
2019-07-15_180618:540,-0.31723,0.0035399999999999997,-0.382324,-0.004,0.002391,0.001991,-26.5,-23.559998999999998,-20.370001000000002,2d
2019-07-15_180618:560,-0.319275,0.0025329999999999997,-0.38385,-0.004824,0.002116,0.002357,-26.5,-23.559998999999998,-20.370001000000002,2d
2019-07-15_180618:580,-0.315216,0.0025329999999999997,-0.384338,-0.005129,0.002239,0.002388,-26.059998999999998,-23.18,-20.870001000000002,2d
2019-07-15_180618:600,-0.315704,0.0,-0.384338,-0.005526,0.001964,0.001655,-26.059998999999998,-23.18,-20.870001000000002,2d
2019-07-15_180618:620,-0.319275,0.0,-0.384338,-0.005556,0.0019030000000000002,0.001655,-26.059998999999998,-23.18,-20.870001000000002,2d
2019-07-15_180618:640,-0.31723,-0.002014,-0.38385,-0.005465,0.00172,0.002357,-26.870001000000002,-23.18,-20.0,2d
2019-07-15_180618:660,-0.319275,-0.001495,-0.384338,-0.005007,0.001964,0.001838,-26.870001000000002,-23.18,-20.0,2d
2019-07-15_180618:680,-0.321808,-0.001495,-0.38385,-0.005068,0.002177,0.001716,-26.5,-23.18,-19.18,2d
2019-07-15_180618:700,-0.32132,-0.001007,-0.383331,-0.004824,0.003246,0.00132,-26.5,-23.18,-19.18,2d
2019-07-15_180618:720,-0.319794,-0.001495,-0.385864,-0.004824,0.003307,0.001258,-26.5,-23.18,-19.18,2d
2019-07-15_180618:740,-0.32132,-0.000488,-0.385864,-0.004671,0.00349,0.001106,-26.870001000000002,-23.559998999999998,-20.0,2d
2019-07-15_180618:760,-0.318756,0.0,-0.382324,-0.00461,0.00349,0.000831,-26.870001000000002,-23.559998999999998,-20.0,2d
2019-07-15_180618:780,-0.323334,-0.000488,-0.38385,-0.00461,0.003703,0.000129,-27.559998999999998,-23.18,-19.25,2d
2019-07-15_180618:800,-0.317749,0.000488,-0.377228,-0.004732,0.003978,-0.000512,-27.559998999999998,-23.18,-19.25,2d
2019-07-15_180618:820,-0.323853,0.000488,-0.382324,-0.004732,0.003825,-0.000512,-27.559998999999998,-23.18,-19.25,2d
2019-07-15_180618:840,-0.324371,0.0,-0.382812,-0.004946,0.003978,-0.00011499999999999999,-26.870001000000002,-23.18,-19.68,2d
2019-07-15_180618:860,-0.32132,0.001007,-0.381317,-0.005068,0.004039,0.00028199999999999997,-26.870001000000002,-23.18,-19.68,2d
2019-07-15_180618:880,-0.316742,0.0030210000000000002,-0.379791,-0.004824,0.004039,0.00028199999999999997,-27.25,-23.18,-20.75,2d
2019-07-15_180618:900,-0.317749,0.001495,-0.378265,-0.004671,0.003032,-5.4000000000000005e-05,-27.25,-23.18,-20.75,2d
2019-07-15_180618:920,-0.312653,0.004547,-0.379272,-0.004488000000000001,0.002757,0.000709,-27.559998999999998,-23.18,-19.68,2d
2019-07-15_180618:940,-0.31369,0.005065999999999999,-0.378754,-0.004427,0.001018,0.002052,-27.559998999999998,-23.18,-19.68,2d
2019-07-15_180618:960,-0.31723,0.005065999999999999,-0.378265,-0.004397,0.000346,0.00196,-27.559998999999998,-23.18,-19.68,2d
2019-07-15_180618:980,-0.318756,0.0055850000000000006,-0.382324,-0.004213000000000001,0.00016299999999999998,0.0018989999999999999,-26.870001000000002,-22.75,-19.18,2d
2019-07-15_180619:000,-0.32132,0.005065999999999999,-0.38028,-0.004152,0.00016299999999999998,0.0021739999999999997,-26.870001000000002,-22.75,-19.18,2d
2019-07-15_180619:020,-0.319794,0.0025329999999999997,-0.384338,-0.004397,0.000133,0.002113,-26.870001000000002,-22.75,-19.18,2d
2019-07-15_180619:040,-0.321808,0.002014,-0.384857,-0.004152,0.0008039999999999999,0.002052,-28.25,-23.18,-18.5,2d
2019-07-15_180619:060,-0.319794,0.0025329999999999997,-0.383331,-0.004,0.001292,0.00196,-28.25,-23.18,-18.5,2d
2019-07-15_180619:080,-0.319275,0.001495,-0.38739,-0.003664,0.001598,0.001442,-27.559998999999998,-23.18,-20.0,2d
2019-07-15_180619:100,-0.32132,0.001007,-0.386902,-0.0031149999999999997,0.001537,0.001258,-27.559998999999998,-23.18,-20.0,2d
2019-07-15_180619:120,-0.320801,0.001007,-0.385376,-0.002718,0.0019030000000000002,0.001258,-27.25,-23.559998999999998,-18.5,2d
2019-07-15_180619:140,-0.322845,0.000488,-0.386383,-0.002382,0.002239,0.001381,-27.25,-23.559998999999998,-18.5,2d
2019-07-15_180619:160,-0.322327,0.000488,-0.386383,-0.0018030000000000001,0.002971,0.001228,-27.25,-23.559998999999998,-18.5,2d
2019-07-15_180619:180,-0.320282,0.001007,-0.386902,-0.0015279999999999998,0.003368,0.000984,-28.0,-23.559998999999998,-20.0,2d
2019-07-15_180619:200,-0.318756,0.0,-0.384857,-0.001009,0.003886,0.000984,-28.0,-23.559998999999998,-20.0,2d
2019-07-15_180619:220,-0.318756,0.000488,-0.384857,-0.001009,0.0036420000000000003,0.0008619999999999999,-28.0,-23.559998999999998,-20.0,2d
2019-07-15_180619:240,-0.321808,0.002014,-0.38385,-0.000918,0.003825,0.001106,-28.0,-23.18,-19.18,2d
2019-07-15_180619:260,-0.322327,0.000488,-0.38385,-0.000796,0.004222,0.00132,-28.0,-23.18,-19.18,2d
2019-07-15_180619:280,-0.323334,0.001007,-0.382812,-0.0009789999999999998,0.004649,0.001655,-26.870001000000002,-23.559998999999998,-20.0,2d
2019-07-15_180619:300,-0.32132,0.000488,-0.382812,-0.001192,0.004771,0.001777,-26.870001000000002,-23.559998999999998,-20.0,2d
2019-07-15_180619:320,-0.323334,-0.000488,-0.381317,-0.001314,0.005443,0.00196,-26.870001000000002,-23.559998999999998,-20.0,2d
2019-07-15_180619:340,-0.326904,-0.002014,-0.382324,-0.0015279999999999998,0.006023,0.001991,-28.0,-22.5,-20.370001000000002,2d
2019-07-15_180619:360,-0.32995599999999997,-0.001495,-0.381317,-0.0018030000000000001,0.006938,0.0022960000000000003,-28.0,-22.5,-20.370001000000002,2d
2019-07-15_180619:380,-0.326904,-0.0030210000000000002,-0.381317,-0.0020469999999999998,0.008067,0.0021739999999999997,-27.559998999999998,-22.18,-20.0,2d
2019-07-15_180619:400,-0.326385,-0.001007,-0.378265,-0.002321,0.008739,0.002235,-27.559998999999998,-22.18,-20.0,2d
2019-07-15_180619:420,-0.324371,-0.0030210000000000002,-0.375702,-0.002535,0.008891,0.002754,-27.559998999999998,-22.18,-20.0,2d
2019-07-15_180619:440,-0.321808,-0.0030210000000000002,-0.37316900000000003,-0.0028399999999999996,0.008678,0.0033640000000000002,-27.559998999999998,-23.18,-19.68,2d
2019-07-15_180619:460,-0.324371,-0.004059,-0.375214,-0.003512,0.007945,0.003303,-27.559998999999998,-23.18,-19.68,2d
2019-07-15_180619:480,-0.324371,-0.004547,-0.37265,-0.003817,0.007304000000000001,0.003181,-27.559998999999998,-22.5,-19.18,2d
2019-07-15_180619:500,-0.327423,-0.006072999999999999,-0.371643,-0.004488000000000001,0.006938,0.003517,-27.559998999999998,-22.5,-19.18,2d
2019-07-15_180619:520,-0.329437,-0.006592,-0.36911,-0.004946,0.006816,0.004432,-27.559998999999998,-22.5,-19.18,2d
2019-07-15_180619:540,-0.33197,-0.009644,-0.36911,-0.005343,0.006693999999999999,0.004554,-28.25,-22.75,-18.5,2d
2019-07-15_180619:560,-0.331482,-0.009644,-0.369598,-0.005007,0.006693999999999999,0.0038829999999999997,-28.25,-22.75,-18.5,2d
2019-07-15_180619:580,-0.330475,-0.011687999999999999,-0.37112399999999995,-0.0048850000000000005,0.00648,0.0022960000000000003,-28.25,-22.75,-19.25,2d
2019-07-15_180619:600,-0.330963,-0.011169,-0.36911,-0.004671,0.006418999999999999,0.001442,-28.25,-22.75,-19.25,2d
2019-07-15_180619:620,-0.332489,-0.013213999999999998,-0.36654699999999996,-0.004,0.006084,0.001625,-28.25,-22.75,-19.25,2d
2019-07-15_180619:640,-0.333496,-0.012695,-0.36706500000000003,-0.0036340000000000005,0.006145,0.000831,-28.25,-22.5,-18.870001000000002,2d
2019-07-15_180619:660,-0.334015,-0.011687999999999999,-0.366058,-0.002779,0.006145,0.000129,-28.25,-22.5,-18.870001000000002,2d
2019-07-15_180619:680,-0.333496,-0.011687999999999999,-0.36654699999999996,-0.002321,0.006023,-0.000573,-29.059998999999998,-22.5,-20.0,2d
2019-07-15_180619:700,-0.33197,-0.009644,-0.36349499999999996,-0.001986,0.006175,-0.000573,-29.059998999999998,-22.5,-20.0,2d
2019-07-15_180619:720,-0.33300799999999997,-0.008636,-0.364532,-0.0015890000000000001,0.005626,-0.00011499999999999999,-29.059998999999998,-22.5,-20.0,2d
2019-07-15_180619:740,-0.335022,-0.008118,-0.363007,-0.00165,0.005443,-0.000267,-29.059998999999998,-22.5,-18.870001000000002,2d
2019-07-15_180619:760,-0.339111,-0.007599,-0.363007,-0.0015279999999999998,0.004954999999999999,-0.000725,-29.059998999999998,-22.5,-18.870001000000002,2d
2019-07-15_180619:780,-0.341125,-0.010651,-0.363007,-0.0015890000000000001,0.005107,-0.000573,-29.059998999999998,-22.18,-18.870001000000002,2d
2019-07-15_180619:800,-0.340118,-0.009644,-0.36248800000000003,-0.0018030000000000001,0.0052899999999999996,-0.0011220000000000002,-29.059998999999998,-22.18,-18.870001000000002,2d
2019-07-15_180619:820,-0.34368899999999997,-0.011687999999999999,-0.36044299999999996,-0.00165,0.005107,-0.001397,-29.059998999999998,-22.18,-18.870001000000002,2d
2019-07-15_180619:840,-0.344696,-0.010651,-0.35791,-0.001467,0.005686999999999999,-0.001458,-29.059998999999998,-22.5,-18.5,2d
2019-07-15_180619:860,-0.345215,-0.012695,-0.356903,-0.0014060000000000001,0.006175,-0.001366,-29.059998999999998,-22.5,-18.5,2d
2019-07-15_180619:880,-0.344696,-0.012177,-0.355377,-0.001192,0.00648,-0.00216,-28.68,-21.75,-17.25,2d
2019-07-15_180619:900,-0.341125,-0.013213999999999998,-0.352325,-0.001009,0.006572,-0.002434,-28.68,-21.75,-17.25,2d
2019-07-15_180619:920,-0.339111,-0.014740000000000001,-0.35131799999999996,-0.000582,0.006236,-0.0029219999999999997,-28.68,-21.75,-17.25,2d
2019-07-15_180619:940,-0.3396,-0.014221000000000001,-0.35131799999999996,-6.3e-05,0.005351,-0.004113,-28.68,-23.18,-18.5,2d
2019-07-15_180619:960,-0.341125,-0.014740000000000001,-0.349792,0.00073,0.004222,-0.004906000000000001,-28.68,-23.18,-18.5,2d
2019-07-15_180619:980,-0.34317,-0.012695,-0.347748,0.0012490000000000001,0.003825,-0.0054859999999999996,-28.25,-23.18,-18.059998999999998,2d
2019-07-15_180620:000,-0.344696,-0.011687999999999999,-0.344696,0.001585,0.003368,-0.005974,-28.25,-23.18,-18.059998999999998,2d
2019-07-15_180620:020,-0.335022,-0.009644,-0.34570300000000004,0.00186,0.003032,-0.006035,-28.25,-23.18,-18.059998999999998,2d
2019-07-15_180620:040,-0.335541,-0.008118,-0.34875500000000004,0.002134,0.0019030000000000002,-0.006035,-29.5,-22.5,-17.68,2d
2019-07-15_180620:060,-0.334015,-0.0055850000000000006,-0.352844,0.002531,0.000499,-0.006218,-29.5,-22.5,-17.68,2d
2019-07-15_180620:080,-0.339111,-0.0035399999999999997,-0.35638400000000003,0.002653,-0.0008439999999999999,-0.005883,-28.68,-22.75,-18.870001000000002,2d
2019-07-15_180620:100,-0.34265100000000004,-0.0025329999999999997,-0.358429,0.002653,-0.001973,-0.004418,-28.68,-22.75,-18.870001000000002,2d
2019-07-15_180620:120,-0.34674099999999997,-0.001007,-0.36349499999999996,0.002134,-0.002522,-0.002892,-28.68,-22.75,-18.870001000000002,2d
2019-07-15_180620:140,-0.353333,-0.002014,-0.364532,0.001524,-0.0024920000000000003,-0.0011220000000000002,-28.68,-22.5,-18.5,2d
2019-07-15_180620:160,-0.355896,-0.0030210000000000002,-0.364532,0.000334,-0.00237,0.00016,-28.68,-22.5,-18.5,2d
2019-07-15_180620:180,-0.355377,-0.0030210000000000002,-0.364532,-0.0006730000000000001,-0.001302,0.000496,-28.68,-23.559998999999998,-19.68,2d
2019-07-15_180620:200,-0.353333,-0.005065999999999999,-0.363007,-0.001864,-0.000233,0.000526,-28.68,-23.559998999999998,-19.68,2d
2019-07-15_180620:220,-0.3508,-0.007111,-0.361969,-0.002993,0.0008039999999999999,0.000404,-28.68,-23.559998999999998,-19.68,2d
2019-07-15_180620:240,-0.349792,-0.008636,-0.360962,-0.003817,0.001628,0.000129,-28.68,-22.5,-19.68,2d
2019-07-15_180620:260,-0.347229,-0.011687999999999999,-0.360962,-0.004275,0.001964,0.000496,-28.68,-22.5,-19.68,2d
2019-07-15_180620:280,-0.349274,-0.011687999999999999,-0.358917,-0.00403,0.001994,0.001167,-28.68,-22.75,-20.0,2d
2019-07-15_180620:300,-0.34674099999999997,-0.011169,-0.35436999999999996,-0.003939,0.001994,0.001655,-28.68,-22.75,-20.0,2d
2019-07-15_180620:320,-0.346222,-0.012177,-0.352844,-0.003664,0.002055,0.002449,-28.68,-22.75,-20.0,2d
2019-07-15_180620:340,-0.34570300000000004,-0.011169,-0.353851,-0.003573,0.001964,0.0026320000000000002,-28.25,-23.559998999999998,-18.870001000000002,2d
2019-07-15_180620:360,-0.344177,-0.011169,-0.355896,-0.003664,0.001628,0.002693,-28.25,-23.559998999999998,-18.870001000000002,2d
2019-07-15_180620:380,-0.347229,-0.010162000000000001,-0.354858,-0.0036950000000000004,0.001292,0.0029059999999999997,-28.68,-22.75,-18.870001000000002,2d
2019-07-15_180620:400,-0.348267,-0.009125,-0.35436999999999996,-0.004213000000000001,0.001415,0.0029059999999999997,-28.68,-22.75,-18.870001000000002,2d
2019-07-15_180620:420,-0.348267,-0.010162000000000001,-0.35436999999999996,-0.004671,0.001353,0.0029059999999999997,-28.68,-22.75,-18.870001000000002,2d
2019-07-15_180620:440,-0.346222,-0.009644,-0.356903,-0.005465,0.001628,0.002571,-28.68,-22.5,-19.68,2d
2019-07-15_180620:460,-0.345215,-0.009644,-0.35638400000000003,-0.006136,0.001415,0.002449,-28.68,-22.5,-19.68,2d
2019-07-15_180620:480,-0.346222,-0.008636,-0.356903,-0.006533,0.0008960000000000001,0.00251,-28.0,-22.18,-20.370001000000002,2d
2019-07-15_180620:500,-0.344696,-0.009125,-0.355377,-0.007081999999999999,0.000621,0.002571,-28.0,-22.18,-20.370001000000002,2d
2019-07-15_180620:520,-0.34317,-0.009644,-0.35739099999999996,-0.007265000000000001,0.00056,0.002693,-28.0,-22.18,-20.370001000000002,2d
2019-07-15_180620:540,-0.342163,-0.012695,-0.35739099999999996,-0.007143000000000001,0.000346,0.002693,-28.68,-22.5,-19.68,2d
2019-07-15_180620:560,-0.34317,-0.010162000000000001,-0.35638400000000003,-0.007204,0.00022400000000000002,0.0029059999999999997,-28.68,-22.5,-19.68,2d
2019-07-15_180620:580,-0.344177,-0.012695,-0.358917,-0.0066549999999999995,0.00022400000000000002,0.003822,-28.68,-22.75,-19.68,2d
2019-07-15_180620:600,-0.3396,-0.012695,-0.358429,-0.006684999999999999,0.000407,0.003639,-28.68,-22.75,-19.68,2d
2019-07-15_180620:620,-0.344177,-0.014221000000000001,-0.36248800000000003,-0.0064719999999999995,-0.000172,0.003181,-28.68,-22.75,-19.68,2d
2019-07-15_180620:640,-0.344696,-0.015747,-0.361481,-0.006594,-5e-05,0.001838,-29.059998999999998,-22.5,-18.059998999999998,2d
2019-07-15_180620:660,-0.341644,-0.014740000000000001,-0.360962,-0.006258,0.000133,0.000923,-29.059998999999998,-22.5,-18.059998999999998,2d
2019-07-15_180620:680,-0.341644,-0.016753999999999998,-0.361969,-0.005556,0.000468,0.0007700000000000001,-28.68,-22.5,-19.25,2d
2019-07-15_180620:700,-0.340118,-0.015228,-0.361481,-0.0048850000000000005,0.000865,-0.00011499999999999999,-28.68,-22.5,-19.25,2d
2019-07-15_180620:720,-0.339111,-0.015747,-0.360962,-0.003939,0.0008960000000000001,-0.0009689999999999999,-28.68,-22.5,-19.25,2d
2019-07-15_180620:740,-0.339111,-0.014221000000000001,-0.36044299999999996,-0.002993,0.001018,-0.0011220000000000002,-28.68,-22.75,-18.5,2d
2019-07-15_180620:760,-0.338593,-0.011687999999999999,-0.36248800000000003,-0.0021079999999999996,0.000865,-0.000664,-28.68,-22.75,-18.5,2d
2019-07-15_180620:780,-0.336548,-0.008118,-0.363007,-0.00165,0.000407,-0.000267,-28.68,-22.75,-17.25,2d
2019-07-15_180620:800,-0.33758499999999997,-0.007599,-0.36248800000000003,-0.001864,0.000285,-0.00045099999999999996,-28.68,-22.75,-17.25,2d
2019-07-15_180620:820,-0.338593,-0.005065999999999999,-0.365021,-0.0022600000000000003,7.2e-05,-0.000267,-28.68,-22.75,-17.25,2d
2019-07-15_180620:840,-0.339111,-0.005065999999999999,-0.36554000000000003,-0.0028399999999999996,0.00016299999999999998,7.000000000000001e-06,-28.25,-22.5,-18.5,2d
2019-07-15_180620:860,-0.338593,-0.0055850000000000006,-0.364014,-0.0036950000000000004,0.000285,0.000129,-28.25,-22.5,-18.5,2d
2019-07-15_180620:880,-0.338074,-0.006592,-0.364532,-0.004671,0.00022400000000000002,0.000709,-28.0,-22.5,-19.18,2d
2019-07-15_180620:900,-0.338074,-0.006592,-0.36248800000000003,-0.005343,0.000346,0.00132,-28.0,-22.5,-19.18,2d
2019-07-15_180620:920,-0.334015,-0.009125,-0.363007,-0.005861,0.000285,0.001228,-28.0,-22.5,-19.18,2d
2019-07-15_180620:940,-0.33605999999999997,-0.011687999999999999,-0.363007,-0.006014,7.2e-05,0.000831,-28.68,-22.5,-20.0,2d
2019-07-15_180620:960,-0.337067,-0.012177,-0.363007,-0.005739,-0.000325,0.000984,-28.68,-22.5,-20.0,2d
2019-07-15_180620:980,-0.336548,-0.010162000000000001,-0.364532,-0.005343,-0.000386,0.0008619999999999999,-28.68,-22.5,-19.18,2d
2019-07-15_180621:000,-0.335022,-0.009644,-0.36554000000000003,-0.005007,-0.000508,0.000709,-28.68,-22.5,-19.18,2d
2019-07-15_180621:020,-0.337067,-0.008636,-0.365021,-0.00461,-0.0005690000000000001,0.000709,-28.68,-22.5,-19.18,2d
2019-07-15_180621:040,-0.336548,-0.007111,-0.36706500000000003,-0.004152,-0.0005690000000000001,0.0007700000000000001,-28.68,-22.18,-19.68,2d
2019-07-15_180621:060,-0.337067,-0.007111,-0.36654699999999996,-0.004091,-0.000325,0.0008619999999999999,-28.68,-22.18,-19.68,2d
2019-07-15_180621:080,-0.335022,-0.006072999999999999,-0.365021,-0.004213000000000001,-0.00044699999999999997,0.000831,-29.059998999999998,-22.5,-20.870001000000002,2d
2019-07-15_180621:100,-0.335022,-0.0055850000000000006,-0.36706500000000003,-0.004488000000000001,-0.000661,0.000984,-29.059998999999998,-22.5,-20.870001000000002,2d
2019-07-15_180621:120,-0.33605999999999997,-0.0055850000000000006,-0.367584,-0.004793,-0.0005690000000000001,0.000923,-29.059998999999998,-22.5,-20.870001000000002,2d
2019-07-15_180621:140,-0.335541,-0.006072999999999999,-0.36911,-0.0048850000000000005,-0.000661,0.000831,-28.25,-22.5,-18.870001000000002,2d
2019-07-15_180621:160,-0.333496,-0.008118,-0.36911,-0.005007,-0.000722,0.000984,-28.25,-22.5,-18.870001000000002,2d
2019-07-15_180621:180,-0.33300799999999997,-0.008118,-0.370636,-0.0048850000000000005,-0.0005690000000000001,0.001167,-29.059998999999998,-23.18,-19.68,2d
2019-07-15_180621:200,-0.333496,-0.008118,-0.37011700000000003,-0.0048850000000000005,-0.0009660000000000001,0.0021739999999999997,-29.059998999999998,-23.18,-19.68,2d
2019-07-15_180621:220,-0.33605999999999997,-0.007599,-0.370636,-0.005129,-0.0009050000000000001,0.001838,-29.059998999999998,-23.18,-19.68,2d
2019-07-15_180621:240,-0.335541,-0.007111,-0.36911,-0.005404,-0.000325,0.001716,-28.25,-22.18,-18.870001000000002,2d
2019-07-15_180621:260,-0.338074,-0.007599,-0.370636,-0.005526,7.2e-05,0.0018989999999999999,-28.25,-22.18,-18.870001000000002,2d
2019-07-15_180621:280,-0.334015,-0.009125,-0.37011700000000003,-0.0058,0.000285,0.001503,-28.0,-22.75,-18.870001000000002,2d
2019-07-15_180621:300,-0.332489,-0.010162000000000001,-0.370636,-0.005678,0.000407,0.001258,-28.0,-22.75,-18.870001000000002,2d
2019-07-15_180621:320,-0.33197,-0.010162000000000001,-0.371643,-0.005282,0.000407,0.001381,-28.0,-22.75,-18.870001000000002,2d
2019-07-15_180621:340,-0.32995599999999997,-0.009125,-0.37112399999999995,-0.005129,0.000133,0.001381,-28.25,-22.5,-18.870001000000002,2d
2019-07-15_180621:360,-0.32995599999999997,-0.008636,-0.369598,-0.004549,-0.000172,0.001503,-28.25,-22.5,-18.870001000000002,2d
2019-07-15_180621:380,-0.33300799999999997,-0.009644,-0.370636,-0.004397,-5e-05,0.001625,-28.25,-22.5,-18.870001000000002,2d
2019-07-15_180621:400,-0.330963,-0.007599,-0.37112399999999995,-0.004091,1.1e-05,0.001564,-28.25,-22.5,-18.870001000000002,2d
2019-07-15_180621:420,-0.333496,-0.007599,-0.37316900000000003,-0.004152,-0.000172,0.001167,-28.25,-22.5,-18.870001000000002,2d
2019-07-15_180621:440,-0.332489,-0.0055850000000000006,-0.370636,-0.004336,0.000133,0.0008619999999999999,-28.0,-22.5,-18.870001000000002,2d
2019-07-15_180621:460,-0.33300799999999997,-0.008636,-0.37011700000000003,-0.004,1.1e-05,0.000984,-28.0,-22.5,-18.870001000000002,2d
2019-07-15_180621:480,-0.331482,-0.008118,-0.37011700000000003,-0.003878,-5e-05,0.001167,-28.25,-23.18,-19.25,2d
2019-07-15_180621:500,-0.332489,-0.006072999999999999,-0.36911,-0.0036950000000000004,-5e-05,0.001503,-28.25,-23.18,-19.25,2d
2019-07-15_180621:520,-0.331482,-0.008118,-0.37112399999999995,-0.0036950000000000004,0.00016299999999999998,0.001716,-28.25,-23.18,-19.25,2d
2019-07-15_180621:540,-0.330475,-0.007111,-0.37112399999999995,-0.0037560000000000002,0.000133,0.001625,-28.68,-22.18,-18.059998999999998,2d
2019-07-15_180621:560,-0.32843,-0.007111,-0.37112399999999995,-0.0036950000000000004,-0.000264,0.001716,-28.68,-22.18,-18.059998999999998,2d
2019-07-15_180621:580,-0.326904,-0.007599,-0.373688,-0.00403,-0.0005690000000000001,0.001716,-28.25,-22.5,-18.5,2d
2019-07-15_180621:600,-0.322845,-0.009125,-0.36654699999999996,-0.004336,-0.001027,0.00132,-28.25,-22.5,-18.5,2d
2019-07-15_180621:620,-0.323853,-0.008118,-0.36911,-0.003878,-0.001973,0.001381,-28.25,-22.5,-18.5,2d
2019-07-15_180621:640,-0.32486,-0.009644,-0.37265,-0.0034509999999999996,-0.002309,0.0018989999999999999,-28.68,-22.18,-19.68,2d
2019-07-15_180621:660,-0.326904,-0.011169,-0.37265,-0.003054,-0.002705,0.001381,-28.68,-22.18,-19.68,2d
2019-07-15_180621:680,-0.330475,-0.008636,-0.375214,-0.003237,-0.002705,0.0018989999999999999,-28.68,-21.75,-20.870001000000002,2d
2019-07-15_180621:700,-0.328949,-0.010162000000000001,-0.375702,-0.0031149999999999997,-0.002309,0.002754,-28.68,-21.75,-20.870001000000002,2d
2019-07-15_180621:720,-0.327423,-0.006072999999999999,-0.377747,-0.003878,-0.00237,0.002113,-28.68,-21.75,-20.870001000000002,2d
2019-07-15_180621:740,-0.32843,-0.009125,-0.378754,-0.004336,-0.002431,0.001442,-28.68,-22.5,-19.25,2d
2019-07-15_180621:760,-0.331482,-0.010162000000000001,-0.380798,-0.005007,-0.001759,0.000526,-28.68,-22.5,-19.25,2d
2019-07-15_180621:780,-0.33197,-0.011169,-0.380798,-0.005068,-0.001027,0.00132,-28.68,-22.5,-19.68,2d
2019-07-15_180621:800,-0.331482,-0.014221000000000001,-0.379791,-0.004793,7.2e-05,0.001442,-28.68,-22.5,-19.68,2d
2019-07-15_180621:820,-0.330963,-0.013213999999999998,-0.378265,-0.004336,0.0010789999999999999,0.000526,-28.68,-22.5,-19.68,2d
2019-07-15_180621:840,-0.325897,-0.012177,-0.378265,-0.003878,0.001598,0.000587,-29.059998999999998,-22.75,-18.870001000000002,2d
2019-07-15_180621:860,-0.323334,-0.011687999999999999,-0.37674,-0.0033280000000000002,0.0019030000000000002,0.000465,-29.059998999999998,-22.75,-18.870001000000002,2d
2019-07-15_180621:880,-0.325378,-0.012177,-0.378265,-0.0032979999999999997,0.0016589999999999999,0.000404,-27.559998999999998,-22.18,-20.370001000000002,2d
2019-07-15_180621:900,-0.326904,-0.011687999999999999,-0.377747,-0.003237,0.0017809999999999998,-5.4000000000000005e-05,-27.559998999999998,-22.18,-20.370001000000002,2d
2019-07-15_180621:920,-0.325378,-0.011687999999999999,-0.377747,-0.003237,0.001964,-0.000664,-27.559998999999998,-22.18,-20.370001000000002,2d
2019-07-15_180621:940,-0.325897,-0.012177,-0.37674,-0.0031149999999999997,0.00172,-0.001,-28.0,-22.5,-20.0,2d
2019-07-15_180621:960,-0.326904,-0.013213999999999998,-0.375702,-0.002718,0.0016589999999999999,-0.001,-28.0,-22.5,-20.0,2d
2019-07-15_180621:980,-0.327911,-0.013702,-0.374695,-0.002535,0.001628,-0.001458,-28.68,-22.5,-20.0,2d
2019-07-15_180622:000,-0.326904,-0.011169,-0.374695,-0.0022600000000000003,0.001598,-0.001366,-28.68,-22.5,-20.0,2d
2019-07-15_180622:020,-0.324371,-0.010162000000000001,-0.376221,-0.0022600000000000003,0.001598,-0.001,-28.68,-22.5,-20.0,2d
2019-07-15_180622:040,-0.321808,-0.009644,-0.377747,-0.002382,0.001415,-0.00216,-28.68,-22.75,-19.25,2d
2019-07-15_180622:060,-0.322327,-0.006072999999999999,-0.375702,-0.002443,0.0009570000000000001,-0.00158,-28.68,-22.75,-19.25,2d
2019-07-15_180622:080,-0.323334,-0.008118,-0.377747,-0.002535,0.00056,-0.000664,-28.68,-22.059998999999998,-19.68,2d
2019-07-15_180622:100,-0.325897,-0.007599,-0.378265,-0.0031149999999999997,0.00056,-0.000573,-28.68,-22.059998999999998,-19.68,2d
2019-07-15_180622:120,-0.32995599999999997,-0.006592,-0.38028,-0.0032979999999999997,0.0010789999999999999,-0.000176,-28.68,-22.059998999999998,-19.68,2d
2019-07-15_180622:140,-0.325378,-0.008636,-0.378265,-0.003664,0.00172,-0.00023700000000000001,-27.559998999999998,-22.5,-20.0,2d
2019-07-15_180622:160,-0.325378,-0.008636,-0.379272,-0.003939,0.001964,-5.4000000000000005e-05,-27.559998999999998,-22.5,-20.0,2d
2019-07-15_180622:180,-0.323853,-0.010162000000000001,-0.379791,-0.004152,0.002239,-5.4000000000000005e-05,-28.25,-22.5,-19.25,2d
2019-07-15_180622:200,-0.323853,-0.010651,-0.379791,-0.004,0.0023,-0.00011499999999999999,-28.25,-22.5,-19.25,2d
2019-07-15_180622:220,-0.321808,-0.010162000000000001,-0.377747,-0.003664,0.002574,-0.000267,-28.25,-22.5,-19.25,2d
2019-07-15_180622:240,-0.320282,-0.010162000000000001,-0.37674,-0.003573,0.002574,-0.00045099999999999996,-27.559998999999998,-22.75,-20.370001000000002,2d
2019-07-15_180622:260,-0.319794,-0.009644,-0.377228,-0.0034509999999999996,0.001994,-0.000328,-27.559998999999998,-22.75,-20.370001000000002,2d
2019-07-15_180622:280,-0.321808,-0.009125,-0.377747,-0.0034509999999999996,0.001537,-0.000176,-28.0,-22.75,-20.370001000000002,2d
2019-07-15_180622:300,-0.324371,-0.008636,-0.377228,-0.003664,0.001201,-0.00045099999999999996,-28.0,-22.75,-20.370001000000002,2d
2019-07-15_180622:320,-0.324371,-0.007111,-0.377747,-0.0036340000000000005,0.001628,-0.000512,-28.0,-22.75,-20.370001000000002,2d
2019-07-15_180622:340,-0.322845,-0.007599,-0.378754,-0.003939,0.001628,-0.000512,-28.68,-22.18,-20.0,2d
2019-07-15_180622:360,-0.324371,-0.007111,-0.378754,-0.004275,0.00172,-0.0008470000000000001,-28.68,-22.18,-20.0,2d
2019-07-15_180622:380,-0.325897,-0.006592,-0.378754,-0.004397,0.001537,-0.000786,-27.559998999999998,-22.5,-19.68,2d
2019-07-15_180622:400,-0.324371,-0.006592,-0.377228,-0.004427,0.001628,-0.000573,-27.559998999999998,-22.5,-19.68,2d
2019-07-15_180622:420,-0.327423,-0.006072999999999999,-0.378265,-0.004488000000000001,0.0014759999999999999,-0.00045099999999999996,-27.559998999999998,-22.5,-19.68,2d
2019-07-15_180622:440,-0.327423,-0.006592,-0.377747,-0.00461,0.00172,-0.00011499999999999999,-28.0,-22.75,-20.0,2d
2019-07-15_180622:460,-0.326904,-0.006592,-0.377747,-0.004397,0.002239,0.000221,-28.0,-22.75,-20.0,2d
2019-07-15_180622:480,-0.326385,-0.007111,-0.377747,-0.004488000000000001,0.002361,0.00028199999999999997,-28.0,-22.5,-18.870001000000002,2d
2019-07-15_180622:500,-0.326385,-0.006072999999999999,-0.375702,-0.004275,0.002513,0.000587,-28.0,-22.5,-18.870001000000002,2d
2019-07-15_180622:520,-0.32486,-0.005065999999999999,-0.375702,-0.004397,0.002635,0.0008619999999999999,-28.0,-22.5,-18.870001000000002,2d
2019-07-15_180622:540,-0.32486,-0.006592,-0.375214,-0.004427,0.002574,0.0008619999999999999,-28.25,-22.18,-19.68,2d
2019-07-15_180622:560,-0.323853,-0.006592,-0.375214,-0.004671,0.0024519999999999998,0.000984,-28.25,-22.18,-19.68,2d
2019-07-15_180622:580,-0.324371,-0.0055850000000000006,-0.374176,-0.00461,0.002055,0.000984,-26.870001000000002,-23.18,-20.370001000000002,2d
2019-07-15_180622:600,-0.32486,-0.007111,-0.375214,-0.004732,0.002116,0.0008619999999999999,-26.870001000000002,-23.18,-20.370001000000002,2d
2019-07-15_180622:620,-0.327423,-0.006072999999999999,-0.37674,-0.00461,0.002177,0.000496,-26.870001000000002,-23.18,-20.370001000000002,2d
2019-07-15_180622:640,-0.326904,-0.006592,-0.376221,-0.004488000000000001,0.002055,0.000526,-28.0,-22.5,-19.68,2d
2019-07-15_180622:660,-0.32843,-0.006072999999999999,-0.374695,-0.004152,0.002116,0.000526,-28.0,-22.5,-19.68,2d
2019-07-15_180622:680,-0.327911,-0.006072999999999999,-0.374695,-0.004,0.002177,0.000526,-27.559998999999998,-22.5,-20.0,2d
2019-07-15_180622:700,-0.32843,-0.005065999999999999,-0.374695,-0.003878,0.002116,0.000343,-27.559998999999998,-22.5,-20.0,2d
2019-07-15_180622:720,-0.327911,-0.004547,-0.375702,-0.003878,0.002513,0.001442,-27.559998999999998,-22.5,-20.0,2d
2019-07-15_180622:740,-0.327423,-0.005065999999999999,-0.375214,-0.003939,0.002849,0.001838,-28.0,-22.75,-19.68,2d
2019-07-15_180622:760,-0.325897,-0.004547,-0.375702,-0.004397,0.002635,0.001625,-28.0,-22.75,-19.68,2d
2019-07-15_180622:780,-0.325897,-0.007599,-0.37674,-0.00461,0.0023,0.0007700000000000001,-28.68,-23.18,-19.68,2d
2019-07-15_180622:800,-0.325378,-0.007599,-0.376221,-0.004824,0.002116,6.8e-05,-28.68,-23.18,-19.68,2d
2019-07-15_180622:820,-0.327423,-0.009644,-0.376221,-0.004397,0.002055,0.001228,-28.68,-23.18,-19.68,2d
2019-07-15_180622:840,-0.328949,-0.007599,-0.376221,-0.004091,0.002116,0.001106,-28.0,-22.75,-18.5,2d
2019-07-15_180622:860,-0.327423,-0.006592,-0.374176,-0.0036950000000000004,0.0024519999999999998,0.001045,-28.0,-22.75,-18.5,2d
2019-07-15_180622:880,-0.327423,-0.007111,-0.375214,-0.003512,0.002635,0.001106,-27.559998999999998,-23.18,-20.0,2d
2019-07-15_180622:900,-0.325378,-0.004547,-0.375214,-0.0036340000000000005,0.002635,0.001106,-27.559998999999998,-23.18,-20.0,2d
2019-07-15_180622:920,-0.326385,-0.0055850000000000006,-0.376221,-0.003664,0.002788,0.001503,-27.559998999999998,-23.18,-20.0,2d
2019-07-15_180622:940,-0.325378,-0.007111,-0.375214,-0.003878,0.002361,0.001564,-28.0,-22.75,-18.5,2d
2019-07-15_180622:960,-0.327423,-0.007111,-0.374695,-0.003878,0.002239,0.001381,-28.0,-22.75,-18.5,2d
2019-07-15_180622:980,-0.327423,-0.007111,-0.376221,-0.004,0.002177,0.00132,-28.0,-22.5,-18.5,2d
2019-07-15_180623:000,-0.327911,-0.007111,-0.375702,-0.003878,0.002116,0.001442,-28.0,-22.5,-18.5,2d
2019-07-15_180623:020,-0.326904,-0.006592,-0.376221,-0.004336,0.0023,0.000984,-28.0,-22.5,-18.5,2d
2019-07-15_180623:040,-0.330475,-0.006592,-0.377228,-0.004336,0.002116,0.001258,-28.0,-22.75,-19.25,2d
2019-07-15_180623:060,-0.33197,-0.008636,-0.376221,-0.004427,0.002635,0.001716,-28.0,-22.75,-19.25,2d
2019-07-15_180623:080,-0.330475,-0.007599,-0.375214,-0.004824,0.003093,0.000587,-28.25,-22.5,-18.870001000000002,2d
2019-07-15_180623:100,-0.327423,-0.007111,-0.374695,-0.005129,0.0034289999999999998,0.000404,-28.25,-22.5,-18.870001000000002,2d
2019-07-15_180623:120,-0.325897,-0.009644,-0.374695,-0.004946,0.003246,0.000923,-28.25,-22.5,-18.870001000000002,2d
2019-07-15_180623:140,-0.327423,-0.009125,-0.37316900000000003,-0.004946,0.002971,0.00028199999999999997,-28.68,-22.75,-18.870001000000002,2d
2019-07-15_180623:160,-0.328949,-0.009125,-0.37316900000000003,-0.004549,0.002574,0.00028199999999999997,-28.68,-22.75,-18.870001000000002,2d
2019-07-15_180623:180,-0.330475,-0.008118,-0.37112399999999995,-0.004397,0.0029100000000000003,6.8e-05,-28.25,-22.5,-18.870001000000002,2d
2019-07-15_180623:200,-0.329437,-0.006592,-0.37112399999999995,-0.004213000000000001,0.003093,-0.00011499999999999999,-28.25,-22.5,-18.870001000000002,2d
2019-07-15_180623:220,-0.32995599999999997,-0.0055850000000000006,-0.372162,-0.004213000000000001,0.002849,6.8e-05,-28.25,-22.5,-18.870001000000002,2d
2019-07-15_180623:240,-0.329437,-0.004547,-0.37011700000000003,-0.004152,0.002788,-5.4000000000000005e-05,-28.0,-22.18,-19.68,2d
2019-07-15_180623:260,-0.330475,-0.004547,-0.37112399999999995,-0.004275,0.002361,-5.4000000000000005e-05,-28.0,-22.18,-19.68,2d
2019-07-15_180623:280,-0.331482,-0.005065999999999999,-0.372162,-0.004213000000000001,0.002849,-0.00011499999999999999,-28.25,-22.75,-19.68,2d
2019-07-15_180623:300,-0.33197,-0.006072999999999999,-0.37112399999999995,-0.004336,0.002757,-0.000328,-28.25,-22.75,-19.68,2d
2019-07-15_180623:320,-0.32995599999999997,-0.005065999999999999,-0.372162,-0.004152,0.002757,-0.00011499999999999999,-28.25,-22.75,-19.68,2d
2019-07-15_180623:340,-0.330475,-0.004547,-0.371643,-0.004152,0.002574,7.000000000000001e-06,-28.25,-22.5,-19.18,2d
2019-07-15_180623:360,-0.329437,-0.004547,-0.370636,-0.00403,0.002696,0.000404,-28.25,-22.5,-19.18,2d
2019-07-15_180623:380,-0.330963,-0.005065999999999999,-0.37112399999999995,-0.004,0.002513,0.00028199999999999997,-28.68,-22.75,-18.059998999999998,2d
2019-07-15_180623:400,-0.32995599999999997,-0.004547,-0.368591,-0.003878,0.002361,0.000221,-28.68,-22.75,-18.059998999999998,2d
2019-07-15_180623:420,-0.331482,-0.004547,-0.369598,-0.0037560000000000002,0.001994,0.00028199999999999997,-28.68,-22.75,-18.059998999999998,2d
2019-07-15_180623:440,-0.330963,-0.004547,-0.37011700000000003,-0.003878,0.00172,0.00028199999999999997,-28.25,-22.5,-19.25,2d
2019-07-15_180623:460,-0.33197,-0.004547,-0.369598,-0.003817,0.0016589999999999999,0.00016,-28.25,-22.5,-19.25,2d
2019-07-15_180623:480,-0.332489,-0.004059,-0.37112399999999995,-0.003573,0.001415,0.000343,-28.68,-22.5,-19.68,2d
2019-07-15_180623:500,-0.330475,-0.005065999999999999,-0.37011700000000003,-0.003664,0.001598,0.000465,-28.68,-22.5,-19.68,2d
2019-07-15_180623:520,-0.328949,-0.0035399999999999997,-0.370636,-0.0036340000000000005,0.001415,0.000648,-28.68,-22.5,-19.68,2d
2019-07-15_180623:540,-0.330963,-0.0035399999999999997,-0.37265,-0.0037560000000000002,0.0009570000000000001,0.000648,-28.0,-22.75,-19.18,2d
2019-07-15_180623:560,-0.333496,-0.0035399999999999997,-0.37316900000000003,-0.0037560000000000002,0.0010789999999999999,0.000587,-28.0,-22.75,-19.18,2d
2019-07-15_180623:580,-0.32843,-0.004059,-0.368073,-0.003817,0.001018,0.000709,-28.25,-23.18,-19.18,2d
2019-07-15_180623:600,-0.332489,-0.0035399999999999997,-0.37011700000000003,-0.003878,0.0008960000000000001,0.000709,-28.25,-23.18,-19.18,2d
2019-07-15_180623:620,-0.330963,-0.0030210000000000002,-0.37112399999999995,-0.0036340000000000005,0.0009570000000000001,0.000923,-28.25,-23.18,-19.18,2d
2019-07-15_180623:640,-0.335022,-0.004547,-0.372162,-0.0036950000000000004,0.0010789999999999999,0.000984,-28.25,-22.75,-19.25,2d
2019-07-15_180623:660,-0.335022,-0.0055850000000000006,-0.374176,-0.003817,0.001842,0.000923,-28.25,-22.75,-19.25,2d
2019-07-15_180623:680,-0.332489,-0.004547,-0.37265,-0.00403,0.0017809999999999998,0.000984,-28.0,-22.75,-19.18,2d
2019-07-15_180623:700,-0.33197,-0.005065999999999999,-0.37265,-0.003878,0.002116,0.001228,-28.0,-22.75,-19.18,2d
2019-07-15_180623:720,-0.328949,-0.004547,-0.371643,-0.004152,0.002116,0.000831,-28.0,-22.75,-19.18,2d
2019-07-15_180623:740,-0.33197,-0.005065999999999999,-0.37265,-0.004091,0.0017809999999999998,0.000709,-29.059998999999998,-22.5,-19.25,2d
2019-07-15_180623:760,-0.330475,-0.004547,-0.370636,-0.004152,0.002055,0.000709,-29.059998999999998,-22.5,-19.25,2d
2019-07-15_180623:780,-0.331482,-0.006072999999999999,-0.37112399999999995,-0.003939,0.0017809999999999998,0.0008619999999999999,-28.68,-22.75,-18.870001000000002,2d
2019-07-15_180623:800,-0.329437,-0.006072999999999999,-0.371643,-0.003664,0.0017809999999999998,0.000984,-28.68,-22.75,-18.870001000000002,2d
2019-07-15_180623:820,-0.33300799999999997,-0.004059,-0.369598,-0.00339,0.001842,0.00132,-28.68,-22.75,-18.870001000000002,2d
2019-07-15_180623:840,-0.33197,-0.0035399999999999997,-0.370636,-0.003237,0.002055,0.002388,-28.25,-22.75,-18.870001000000002,2d
2019-07-15_180623:860,-0.33197,-0.005065999999999999,-0.371643,-0.003664,0.0023,0.002571,-28.25,-22.75,-18.870001000000002,2d
2019-07-15_180623:880,-0.332489,-0.004059,-0.371643,-0.0036950000000000004,0.002361,0.0026320000000000002,-28.0,-23.18,-17.68,2d
2019-07-15_180623:900,-0.333496,-0.0055850000000000006,-0.37265,-0.00403,0.002391,0.000984,-28.0,-23.18,-17.68,2d
2019-07-15_180623:920,-0.33197,-0.006072999999999999,-0.37112399999999995,-0.004275,0.002788,0.001381,-28.0,-23.18,-17.68,2d
2019-07-15_180623:940,-0.333496,-0.008636,-0.374176,-0.004,0.0029100000000000003,0.00132,-28.25,-22.75,-19.18,2d
2019-07-15_180623:960,-0.33300799999999997,-0.009644,-0.374695,-0.003512,0.003307,0.000587,-28.25,-22.75,-19.18,2d
2019-07-15_180623:980,-0.334015,-0.009125,-0.373688,-0.002993,0.003978,0.000343,-28.68,-22.5,-18.059998999999998,2d
2019-07-15_180624:000,-0.332489,-0.010162000000000001,-0.374695,-0.002443,0.0042829999999999995,6.8e-05,-28.68,-22.5,-18.059998999999998,2d
2019-07-15_180624:020,-0.33197,-0.009125,-0.37265,-0.0020469999999999998,0.004436,0.00016,-28.68,-22.5,-18.059998999999998,2d
2019-07-15_180624:040,-0.330963,-0.007111,-0.374176,-0.001864,0.0045579999999999996,0.000221,-29.059998999999998,-22.75,-18.870001000000002,2d
2019-07-15_180624:060,-0.33197,-0.007111,-0.371643,-0.001772,0.004649,-0.00023700000000000001,-29.059998999999998,-22.75,-18.870001000000002,2d
2019-07-15_180624:080,-0.337067,-0.009644,-0.373688,-0.0015279999999999998,0.004894,-0.000328,-28.25,-22.18,-19.18,2d
2019-07-15_180624:100,-0.341644,-0.010651,-0.376221,-0.001009,0.00648,-0.001183,-28.25,-22.18,-19.18,2d
2019-07-15_180624:120,-0.3396,-0.010162000000000001,-0.37674,-0.0009789999999999998,0.00761,-0.002037,-28.25,-22.18,-19.18,2d
2019-07-15_180624:140,-0.338074,-0.009644,-0.374695,-0.0006730000000000001,0.008098000000000001,-0.00216,-29.059998999999998,-22.75,-18.5,2d
2019-07-15_180624:160,-0.331482,-0.007599,-0.369598,-0.000918,0.008678,-0.0021899999999999997,-29.059998999999998,-22.75,-18.5,2d
2019-07-15_180624:180,-0.338074,-0.007599,-0.37011700000000003,-0.0009789999999999998,0.0088,-0.002587,-28.25,-22.5,-16.870001000000002,2d
2019-07-15_180624:200,-0.333496,-0.007111,-0.36706500000000003,-0.000857,0.008556,-0.0037770000000000004,-28.25,-22.5,-16.870001000000002,2d
2019-07-15_180624:220,-0.331482,-0.007599,-0.36654699999999996,-0.0006730000000000001,0.00822,-0.0037159999999999997,-28.25,-22.5,-16.870001000000002,2d
2019-07-15_180624:240,-0.327423,-0.006592,-0.364014,-0.00045999999999999996,0.007213,-0.003899,-29.059998999999998,-23.18,-18.5,2d
2019-07-15_180624:260,-0.33197,-0.0055850000000000006,-0.36248800000000003,-0.000399,0.005779,-0.004113,-29.059998999999998,-23.18,-18.5,2d
2019-07-15_180624:280,-0.337067,-0.007111,-0.363007,-0.000277,0.005351,-0.004174000000000001,-28.0,-22.5,-17.25,2d
2019-07-15_180624:300,-0.3396,-0.007111,-0.363007,-0.000277,0.005168,-0.004967,-28.0,-22.5,-17.25,2d
2019-07-15_180624:320,-0.33758499999999997,-0.007111,-0.360962,0.000395,0.004894,-0.0057,-28.0,-22.5,-17.25,2d
2019-07-15_180624:340,-0.3396,-0.008636,-0.36349499999999996,0.000608,0.004833,-0.006157,-29.75,-22.18,-19.18,2d
2019-07-15_180624:360,-0.340118,-0.007599,-0.360962,0.001463,0.004649,-0.007683,-29.75,-22.18,-19.18,2d
2019-07-15_180624:380,-0.338593,-0.0055850000000000006,-0.359955,0.001585,0.004649,-0.0078049999999999994,-29.75,-22.18,-19.18,2d
2019-07-15_180624:400,-0.3396,-0.004059,-0.358429,0.0022559999999999998,0.004161,-0.007164,-29.5,-22.75,-19.18,2d
2019-07-15_180624:420,-0.340118,-0.0030210000000000002,-0.35791,0.002195,0.003703,-0.007012000000000001,-29.5,-22.75,-19.18,2d
2019-07-15_180624:440,-0.340118,0.000488,-0.356903,0.0022559999999999998,0.003368,-0.006218,-28.0,-22.75,-18.5,2d
2019-07-15_180624:460,-0.344696,0.002014,-0.355377,0.0019210000000000002,0.002849,-0.004753,-28.0,-22.75,-18.5,2d
2019-07-15_180624:480,-0.34674099999999997,0.0030210000000000002,-0.355377,0.0012490000000000001,0.003093,-0.0037770000000000004,-28.25,-23.18,-17.68,2d
2019-07-15_180624:500,-0.348267,0.0035399999999999997,-0.35638400000000003,0.000334,0.003368,-0.002495,-28.25,-23.18,-17.68,2d
2019-07-15_180624:520,-0.348267,0.0035399999999999997,-0.35638400000000003,-0.001009,0.0041,-0.0012439999999999999,-28.25,-23.18,-17.68,2d
2019-07-15_180624:540,-0.346222,0.004059,-0.356903,-0.0014060000000000001,0.0042829999999999995,-0.000725,-28.25,-24.0,-20.0,2d
2019-07-15_180624:560,-0.349274,0.0,-0.353851,-0.002993,0.004619,-0.00011499999999999999,-28.25,-24.0,-20.0,2d
2019-07-15_180624:580,-0.3508,0.0,-0.35638400000000003,-0.00339,0.004619,6.8e-05,-28.25,-24.0,-20.0,2d
2019-07-15_180624:600,-0.34875500000000004,-0.0030210000000000002,-0.35638400000000003,-0.004152,0.005229,0.00028199999999999997,-29.059998999999998,-23.18,-18.5,2d
2019-07-15_180624:620,-0.34875500000000004,-0.004547,-0.352844,-0.004397,0.005412,0.000343,-29.059998999999998,-23.18,-18.5,2d
2019-07-15_180624:640,-0.347229,-0.004059,-0.352844,-0.004397,0.0052899999999999996,0.000587,-28.25,-23.18,-18.5,2d
2019-07-15_180624:660,-0.350281,-0.004059,-0.352325,-0.004427,0.005229,0.0008619999999999999,-28.25,-23.18,-18.5,2d
2019-07-15_180624:680,-0.349792,-0.004547,-0.35180700000000004,-0.004549,0.005107,0.001258,-28.25,-23.18,-18.5,2d
2019-07-15_180624:700,-0.349274,-0.0035399999999999997,-0.35180700000000004,-0.004488000000000001,0.0052899999999999996,0.001564,-28.0,-23.18,-18.059998999999998,2d
2019-07-15_180624:720,-0.346222,-0.004547,-0.35131799999999996,-0.004397,0.004771,0.0018989999999999999,-28.0,-23.18,-18.059998999999998,2d
2019-07-15_180624:740,-0.34570300000000004,-0.0055850000000000006,-0.347748,-0.004397,0.0042829999999999995,0.002113,-28.25,-22.75,-18.059998999999998,2d
2019-07-15_180624:760,-0.34570300000000004,-0.005065999999999999,-0.34570300000000004,-0.004397,0.0035810000000000004,0.002571,-28.25,-22.75,-18.059998999999998,2d
2019-07-15_180624:780,-0.345215,-0.0055850000000000006,-0.34674099999999997,-0.004427,0.002574,0.002784,-28.25,-22.75,-18.059998999999998,2d
2019-07-15_180624:800,-0.348267,-0.006072999999999999,-0.34875500000000004,-0.004671,0.001842,0.002967,-29.059998999999998,-22.75,-18.870001000000002,2d
2019-07-15_180624:820,-0.349792,-0.005065999999999999,-0.347229,-0.0048850000000000005,0.0016589999999999999,0.003151,-29.059998999999998,-22.75,-18.870001000000002,2d
2019-07-15_180624:840,-0.35436999999999996,-0.0055850000000000006,-0.349274,-0.005129,0.001537,0.0033640000000000002,-28.68,-22.75,-18.870001000000002,2d
2019-07-15_180624:860,-0.355896,-0.006592,-0.349792,-0.005343,0.001842,0.00309,-28.68,-22.75,-18.870001000000002,2d
2019-07-15_180624:880,-0.356903,-0.007111,-0.3508,-0.0051600000000000005,0.002361,0.0033640000000000002,-28.68,-22.75,-18.870001000000002,2d
2019-07-15_180624:900,-0.35436999999999996,-0.007599,-0.350281,-0.005068,0.003093,0.003425,-29.5,-22.75,-18.5,2d
2019-07-15_180624:920,-0.35131799999999996,-0.008118,-0.348267,-0.0051600000000000005,0.003368,0.002967,-29.5,-22.75,-18.5,2d
2019-07-15_180624:940,-0.352325,-0.007599,-0.34674099999999997,-0.005068,0.003368,0.003181,-28.68,-22.75,-17.68,2d
2019-07-15_180624:960,-0.3508,-0.007111,-0.344696,-0.005129,0.003032,0.004158,-28.68,-22.75,-17.68,2d
2019-07-15_180624:980,-0.347229,-0.006592,-0.347748,-0.005282,0.002513,0.004158,-28.68,-22.75,-17.68,2d
2019-07-15_180625:000,-0.347748,-0.008636,-0.34875500000000004,-0.005465,0.001415,0.003517,-29.75,-23.18,-17.68,2d
2019-07-15_180625:020,-0.35180700000000004,-0.007599,-0.347229,-0.005678,0.0008039999999999999,0.002754,-29.75,-23.18,-17.68,2d
2019-07-15_180625:040,-0.353333,-0.010651,-0.34875500000000004,-0.005678,0.0008960000000000001,0.003242,-29.059998999999998,-22.5,-18.059998999999998,2d
2019-07-15_180625:060,-0.35436999999999996,-0.010651,-0.347748,-0.005678,0.0008960000000000001,0.003181,-29.059998999999998,-22.5,-18.059998999999998,2d
2019-07-15_180625:080,-0.354858,-0.010162000000000001,-0.34875500000000004,-0.005678,0.0010789999999999999,0.002754,-29.059998999999998,-22.5,-18.059998999999998,2d
2019-07-15_180625:100,-0.354858,-0.009644,-0.348267,-0.005556,0.0012619999999999999,0.00251,-28.68,-23.18,-18.059998999999998,2d
2019-07-15_180625:120,-0.35436999999999996,-0.010651,-0.34875500000000004,-0.005465,0.0014759999999999999,0.0021739999999999997,-28.68,-23.18,-18.059998999999998,2d
2019-07-15_180625:140,-0.352325,-0.011169,-0.347229,-0.005343,0.0012619999999999999,0.002052,-29.059998999999998,-22.75,-18.5,2d
2019-07-15_180625:160,-0.353333,-0.011687999999999999,-0.34570300000000004,-0.005129,0.0008960000000000001,0.001655,-29.059998999999998,-22.75,-18.5,2d
2019-07-15_180625:180,-0.352844,-0.010162000000000001,-0.347748,-0.004671,0.000743,0.00132,-30.18,-22.75,-18.059998999999998,2d
2019-07-15_180625:200,-0.355896,-0.009644,-0.349274,-0.004275,0.000682,0.001045,-30.18,-22.75,-18.059998999999998,2d
2019-07-15_180625:220,-0.355377,-0.009125,-0.349792,-0.003939,0.000621,0.000831,-30.18,-22.75,-18.059998999999998,2d
2019-07-15_180625:240,-0.355896,-0.008636,-0.349274,-0.003817,0.000743,0.000709,-29.75,-22.75,-18.059998999999998,2d
2019-07-15_180625:260,-0.358917,-0.009125,-0.348267,-0.003512,0.001201,0.001045,-29.75,-22.75,-18.059998999999998,2d
2019-07-15_180625:280,-0.35791,-0.009644,-0.349274,-0.003512,0.001628,0.001655,-29.75,-22.75,-18.059998999999998,2d
2019-07-15_180625:300,-0.355377,-0.010162000000000001,-0.347229,-0.0034509999999999996,0.001964,0.000404,-29.5,-22.5,-18.5,2d
2019-07-15_180625:320,-0.352844,-0.008636,-0.347748,-0.003237,0.002055,0.000709,-29.5,-22.5,-18.5,2d
2019-07-15_180625:340,-0.352325,-0.010162000000000001,-0.348267,-0.00339,0.001537,0.0018989999999999999,-29.5,-22.75,-18.059998999999998,2d
2019-07-15_180625:360,-0.352325,-0.009644,-0.34570300000000004,-0.0036340000000000005,0.00114,0.001442,-29.5,-22.75,-18.059998999999998,2d
2019-07-15_180625:380,-0.35436999999999996,-0.009125,-0.347748,-0.0037560000000000002,0.001201,0.001106,-29.5,-22.75,-18.059998999999998,2d
2019-07-15_180625:400,-0.353851,-0.011687999999999999,-0.34875500000000004,-0.004152,0.00114,0.0007700000000000001,-29.5,-22.18,-18.059998999999998,2d
2019-07-15_180625:420,-0.350281,-0.011169,-0.3508,-0.004213000000000001,0.0012619999999999999,0.000343,-29.5,-22.18,-18.059998999999998,2d
2019-07-15_180625:440,-0.349274,-0.012177,-0.35131799999999996,-0.004275,0.0008960000000000001,0.00016,-28.68,-23.18,-17.68,2d
2019-07-15_180625:460,-0.35131799999999996,-0.013213999999999998,-0.34875500000000004,-0.0036950000000000004,0.000682,-5.4000000000000005e-05,-28.68,-23.18,-17.68,2d
2019-07-15_180625:480,-0.35131799999999996,-0.012695,-0.3508,-0.0031149999999999997,0.000682,-0.00045099999999999996,-28.68,-23.18,-17.68,2d
2019-07-15_180625:500,-0.348267,-0.011687999999999999,-0.352325,-0.002382,0.0008039999999999999,-0.000573,-29.75,-22.5,-18.059998999999998,2d
2019-07-15_180625:520,-0.349274,-0.011169,-0.353851,-0.001772,0.000499,-0.000573,-29.75,-22.5,-18.059998999999998,2d
2019-07-15_180625:540,-0.3508,-0.010162000000000001,-0.353333,-0.001375,0.000133,-0.000267,-29.059998999999998,-22.75,-18.5,2d
2019-07-15_180625:560,-0.35131799999999996,-0.009644,-0.352844,-0.00107,0.00056,-0.00011499999999999999,-29.059998999999998,-22.75,-18.5,2d
2019-07-15_180625:580,-0.352325,-0.011687999999999999,-0.354858,-0.001009,0.0010789999999999999,0.000221,-29.059998999999998,-22.75,-18.5,2d
2019-07-15_180625:600,-0.349792,-0.010651,-0.352844,-0.000643,0.00172,7.000000000000001e-06,-29.5,-22.75,-17.25,2d
2019-07-15_180625:620,-0.349274,-0.011687999999999999,-0.353851,-0.000521,0.0019030000000000002,-5.4000000000000005e-05,-29.5,-22.75,-17.25,2d
2019-07-15_180625:640,-0.347748,-0.010651,-0.353333,-0.000185,0.001842,7.000000000000001e-06,-29.059998999999998,-22.75,-18.059998999999998,2d
2019-07-15_180625:660,-0.350281,-0.012695,-0.3508,-0.000185,0.0019030000000000002,0.000129,-29.059998999999998,-22.75,-18.059998999999998,2d
2019-07-15_180625:680,-0.349274,-0.013213999999999998,-0.35180700000000004,-2e-06,0.002177,0.00016,-29.059998999999998,-22.75,-18.059998999999998,2d
2019-07-15_180625:700,-0.346222,-0.013702,-0.352844,0.000334,0.002391,0.000404,-29.059998999999998,-22.5,-18.5,2d
2019-07-15_180625:720,-0.34368899999999997,-0.012177,-0.352844,0.000608,0.00172,0.000404,-29.059998999999998,-22.5,-18.5,2d
2019-07-15_180625:740,-0.34317,-0.011687999999999999,-0.35436999999999996,0.000669,0.001201,0.00028199999999999997,-29.059998999999998,-22.75,-19.18,2d
2019-07-15_180625:760,-0.345215,-0.011687999999999999,-0.353851,0.00048600000000000005,0.000133,0.000221,-29.059998999999998,-22.75,-19.18,2d
2019-07-15_180625:780,-0.34875500000000004,-0.012695,-0.355896,-2e-06,-0.00011100000000000001,0.000129,-29.059998999999998,-22.75,-19.18,2d
2019-07-15_180625:800,-0.349274,-0.011687999999999999,-0.356903,-0.000582,-0.000233,6.8e-05,-29.059998999999998,-22.75,-18.059998999999998,2d
2019-07-15_180625:820,-0.349274,-0.011169,-0.35791,-0.001375,-0.000233,-0.000176,-29.059998999999998,-22.75,-18.059998999999998,2d
2019-07-15_180625:840,-0.350281,-0.010651,-0.358917,-0.0020469999999999998,1.1e-05,-0.00045099999999999996,-29.5,-23.18,-18.870001000000002,2d
2019-07-15_180625:860,-0.35131799999999996,-0.010162000000000001,-0.35638400000000003,-0.0025960000000000002,0.000499,-0.001,-29.5,-23.18,-18.870001000000002,2d
2019-07-15_180625:880,-0.35131799999999996,-0.011169,-0.35739099999999996,-0.003176,0.0008960000000000001,-0.0009689999999999999,-29.5,-23.18,-18.870001000000002,2d
2019-07-15_180625:900,-0.349792,-0.010651,-0.353851,-0.0037560000000000002,0.001292,-0.000725,-29.75,-22.5,-18.059998999999998,2d
2019-07-15_180625:920,-0.349274,-0.013213999999999998,-0.353851,-0.004091,0.001537,-0.000573,-29.75,-22.5,-18.059998999999998,2d
2019-07-15_180625:940,-0.349274,-0.012695,-0.35436999999999996,-0.004152,0.002116,-0.00045099999999999996,-29.5,-22.75,-18.059998999999998,2d
2019-07-15_180625:960,-0.3508,-0.011687999999999999,-0.35180700000000004,-0.004275,0.0024519999999999998,-0.00023700000000000001,-29.5,-22.75,-18.059998999999998,2d
2019-07-15_180625:980,-0.35131799999999996,-0.011687999999999999,-0.352844,-0.004152,0.002513,0.000984,-29.5,-22.75,-18.059998999999998,2d
2019-07-15_180626:000,-0.347748,-0.011169,-0.353333,-0.004488000000000001,0.002361,0.001045,-29.059998999999998,-22.059998999999998,-18.870001000000002,2d
2019-07-15_180626:020,-0.3508,-0.012177,-0.35436999999999996,-0.004488000000000001,0.001994,0.000709,-29.059998999999998,-22.059998999999998,-18.870001000000002,2d
2019-07-15_180626:040,-0.352325,-0.012177,-0.35791,-0.005007,0.001842,-0.000389,-29.059998999999998,-22.75,-18.870001000000002,2d
2019-07-15_180626:060,-0.349792,-0.013213999999999998,-0.3508,-0.004946,0.002177,6.8e-05,-29.059998999999998,-22.75,-18.870001000000002,2d
2019-07-15_180626:080,-0.353333,-0.014740000000000001,-0.352325,-0.004427,0.002361,0.000496,-29.059998999999998,-22.75,-18.870001000000002,2d
2019-07-15_180626:100,-0.352325,-0.011687999999999999,-0.352844,-0.004397,0.003032,0.000404,-28.68,-22.5,-17.25,2d
2019-07-15_180626:120,-0.353333,-0.013702,-0.354858,-0.004152,0.00349,0.000404,-28.68,-22.5,-17.25,2d
2019-07-15_180626:140,-0.349792,-0.011687999999999999,-0.35131799999999996,-0.0036340000000000005,0.004039,0.000526,-28.25,-22.5,-19.68,2d
2019-07-15_180626:160,-0.3508,-0.012695,-0.352325,-0.004091,0.003917,0.000831,-28.25,-22.5,-19.68,2d
2019-07-15_180626:180,-0.349274,-0.012177,-0.35180700000000004,-0.00461,0.003886,0.000831,-28.25,-22.5,-19.68,2d
2019-07-15_180626:200,-0.352325,-0.011687999999999999,-0.353333,-0.004824,0.0035810000000000004,0.000648,-29.75,-22.75,-18.5,2d
2019-07-15_180626:220,-0.35131799999999996,-0.010162000000000001,-0.352844,-0.0051600000000000005,0.003703,0.000343,-29.75,-22.75,-18.5,2d
2019-07-15_180626:240,-0.35131799999999996,-0.009644,-0.35131799999999996,-0.005526,0.003764,0.000709,-29.5,-22.75,-18.5,2d
2019-07-15_180626:260,-0.3508,-0.010162000000000001,-0.349792,-0.0056170000000000005,0.003825,0.000526,-29.5,-22.75,-18.5,2d
2019-07-15_180626:280,-0.3508,-0.009125,-0.349792,-0.006136,0.0034289999999999998,0.000587,-29.5,-22.75,-18.5,2d
2019-07-15_180626:300,-0.35180700000000004,-0.010162000000000001,-0.347229,-0.006594,0.003246,0.001503,-28.68,-22.18,-18.5,2d
2019-07-15_180626:320,-0.354858,-0.011687999999999999,-0.345215,-0.006594,0.003124,0.001777,-28.68,-22.18,-18.5,2d
2019-07-15_180626:340,-0.352844,-0.012695,-0.347748,-0.0064719999999999995,0.0031850000000000003,0.000984,-29.059998999999998,-22.75,-18.5,2d
2019-07-15_180626:360,-0.35180700000000004,-0.013213999999999998,-0.349274,-0.00635,0.003124,0.001381,-29.059998999999998,-22.75,-18.5,2d
2019-07-15_180626:380,-0.3508,-0.014221000000000001,-0.349792,-0.005953,0.002574,0.0018989999999999999,-29.059998999999998,-22.75,-18.5,2d
2019-07-15_180626:400,-0.352844,-0.012177,-0.34875500000000004,-0.005861,0.002361,0.001503,-28.68,-22.5,-18.059998999999998,2d
2019-07-15_180626:420,-0.352325,-0.013213999999999998,-0.346222,-0.005556,0.0019030000000000002,0.001381,-28.68,-22.5,-18.059998999999998,2d
2019-07-15_180626:440,-0.354858,-0.012695,-0.348267,-0.005282,0.001842,0.0007700000000000001,-29.059998999999998,-22.5,-17.25,2d
2019-07-15_180626:460,-0.35436999999999996,-0.011687999999999999,-0.34875500000000004,-0.005221,0.001994,0.000496,-29.059998999999998,-22.5,-17.25,2d
2019-07-15_180626:480,-0.35436999999999996,-0.010651,-0.34875500000000004,-0.005068,0.002055,0.000496,-29.059998999999998,-22.5,-17.25,2d
