timestamp,AccX,AccY,AccZ,GyroX,GyroY,GyroZ,MagX,MagY,MagZ,Activity
2019-07-15_174613:680,-0.330475,-0.14743,-0.368073,0.007626999999999999,-0.000264,-0.019371,-12.5,-9.5,-42.369999,1b
2019-07-15_174613:700,-0.315704,-0.15506,-0.368073,0.008177,0.002177,-0.019249000000000002,-12.5,-9.5,-42.369999,1b
2019-07-15_174613:720,-0.319275,-0.15506,-0.37011700000000003,0.009367,0.0034289999999999998,-0.023003,-12.5,-9.5,-42.369999,1b
2019-07-15_174613:740,-0.338593,-0.151001,-0.36349499999999996,0.010893,0.006236,-0.026268,-11.0,-8.68,-42.75,1b
2019-07-15_174613:760,-0.34368899999999997,-0.150482,-0.356903,0.0119,0.010020000000000001,-0.024956,-11.0,-8.68,-42.75,1b
2019-07-15_174613:780,-0.3396,-0.14843800000000001,-0.36044299999999996,0.012022,0.013744,-0.023339,-11.68,-9.5,-42.869999,1b
2019-07-15_174613:800,-0.33758499999999997,-0.151489,-0.356903,0.01135,0.015453,-0.023278,-11.68,-9.5,-42.869999,1b
2019-07-15_174613:820,-0.347229,-0.152008,-0.344696,0.010374,0.015971,-0.023674,-11.68,-9.5,-42.869999,1b
2019-07-15_174613:840,-0.33758499999999997,-0.159119,-0.341644,0.00897,0.017100999999999998,-0.022941999999999997,-11.68,-9.5,-42.0,1b
2019-07-15_174613:860,-0.334015,-0.163177,-0.330475,0.008848,0.016521,-0.021752,-11.68,-9.5,-42.0,1b
2019-07-15_174613:880,-0.323334,-0.16217,-0.33197,0.009153,0.012676,-0.022637,-13.25,-8.25,-43.18,1b
2019-07-15_174613:900,-0.31723,-0.155548,-0.331482,0.009489000000000001,0.00584,-0.02401,-13.25,-8.25,-43.18,1b
2019-07-15_174613:920,-0.32995599999999997,-0.147949,-0.333496,0.009886,1.1e-05,-0.025536,-13.25,-8.25,-43.18,1b
2019-07-15_174613:940,-0.36911,-0.138794,-0.35943600000000003,0.011564,-0.006215,-0.028252,-14.0,-8.25,-42.75,1b
2019-07-15_174613:960,-0.47995,-0.12353499999999999,-0.406738,0.014463,-0.020955,-0.032188999999999995,-14.0,-8.25,-42.75,1b
2019-07-15_174613:980,-0.390961,-0.095062,-0.383331,0.015684,-0.021687,-0.03225,-13.18,-8.68,-41.560001,1b
2019-07-15_174614:000,-0.393494,-0.082855,-0.420959,0.020994,-0.015034,-0.027183999999999996,-13.18,-8.68,-41.560001,1b
2019-07-15_174614:020,-0.275543,-0.069641,-0.406738,0.022428,-0.006764,-0.032982,-13.18,-8.68,-41.560001,1b
2019-07-15_174614:040,-0.290283,-0.043213,-0.40823400000000004,0.02429,-0.005757,-0.028405,-12.18,-7.5,-43.18,1b
2019-07-15_174614:060,-0.300476,-0.048279,-0.394531,0.026701,-0.0040479999999999995,-0.016045,-12.18,-7.5,-43.18,1b
2019-07-15_174614:080,-0.31012,-0.034058,-0.384338,0.026364999999999996,-0.001515,-0.018090000000000002,-11.37,-6.68,-44.369999,1b
2019-07-15_174614:100,-0.341125,-0.010651,-0.38385,0.027342,0.00349,-0.021172,-11.37,-6.68,-44.369999,1b
2019-07-15_174614:120,-0.315216,-0.011169,-0.394531,0.028470999999999996,0.0052899999999999996,-0.032311,-11.37,-6.68,-44.369999,1b
2019-07-15_174614:140,-0.304535,0.002014,-0.402649,0.029264,0.003307,-0.048455,-11.5,-6.37,-45.18,1b
2019-07-15_174614:160,-0.304535,0.016266,-0.40976,0.033048,-0.000172,-0.048973,-11.5,-6.37,-45.18,1b
2019-07-15_174614:180,-0.300476,0.016266,-0.420959,0.036894,-0.003621,-0.042809,-11.75,-6.06,-44.75,1b
2019-07-15_174614:200,-0.317749,0.021851,-0.42453,0.038816,-0.004353,-0.04168,-11.75,-6.06,-44.75,1b
2019-07-15_174614:220,-0.361481,0.021851,-0.41485600000000006,0.038236,-0.00044699999999999997,-0.037011,-11.75,-6.06,-44.75,1b
2019-07-15_174614:240,-0.382812,0.010651,-0.398071,0.035124,0.008952,-0.032433,-11.5,-4.5,-45.18,1b
2019-07-15_174614:260,-0.378265,-0.007599,-0.37316900000000003,0.030882,0.020885,-0.030236000000000002,-11.5,-4.5,-45.18,1b
2019-07-15_174614:280,-0.34875500000000004,-0.021851,-0.349792,0.028349,0.030070999999999997,-0.030052999999999996,-11.87,-3.37,-45.560001,1b
2019-07-15_174614:300,-0.318268,-0.032532,-0.30654899999999996,0.026304,0.034312,-0.03402,-11.87,-3.37,-45.560001,1b
2019-07-15_174614:320,-0.307068,-0.035065,-0.282166,0.02609,0.03416,-0.036095,-11.87,-3.37,-45.560001,1b
2019-07-15_174614:340,-0.29943800000000004,-0.036072,-0.259277,0.027494,0.030193,-0.035149,-13.06,-2.68,-44.369999,1b
2019-07-15_174614:360,-0.305542,-0.028442000000000002,-0.25216700000000003,0.028745,0.024730000000000002,-0.033958999999999996,-13.06,-2.68,-44.369999,1b
2019-07-15_174614:380,-0.311127,-0.019318000000000002,-0.258759,0.030331999999999998,0.01884,-0.032708,-14.56,-1.18,-44.369999,1b
2019-07-15_174614:400,-0.316223,-0.0055850000000000006,-0.276062,0.030454000000000002,0.01353,-0.030999000000000002,-14.56,-1.18,-44.369999,1b
2019-07-15_174614:420,-0.325378,-0.0025329999999999997,-0.28064,0.029875,0.00883,-0.030510000000000002,-14.56,-1.18,-44.369999,1b
2019-07-15_174614:440,-0.350281,-0.0055850000000000006,-0.283173,0.028227,0.004649,-0.030510000000000002,-16.059998999999998,0.0,-44.0,1b
2019-07-15_174614:460,-0.35180700000000004,-0.007599,-0.29180900000000004,0.027281,0.003307,-0.029198,-16.059998999999998,0.0,-44.0,1b
2019-07-15_174614:480,-0.39502,-0.010162000000000001,-0.30300900000000003,0.027281,0.003978,-0.028344,-16.370001000000002,-0.25,-44.75,1b
2019-07-15_174614:500,-0.41995200000000005,-0.004547,-0.307587,0.027098,0.006541,-0.028344,-16.370001000000002,-0.25,-44.75,1b
2019-07-15_174614:520,-0.425018,-0.0025329999999999997,-0.31723,0.026304,0.009073999999999999,-0.026329,-16.370001000000002,-0.25,-44.75,1b
2019-07-15_174614:540,-0.441803,-0.012177,-0.320801,0.025480000000000003,0.009746,-0.023216999999999998,-16.370001000000002,0.75,-44.369999,1b
2019-07-15_174614:560,-0.453491,-0.023375999999999997,-0.327423,0.026304,0.010326,-0.02282,-16.370001000000002,0.75,-44.369999,1b
2019-07-15_174614:580,-0.47433500000000006,-0.024902,-0.334534,0.02783,0.010417000000000001,-0.022698,-16.5,1.56,-43.560001,1b
2019-07-15_174614:600,-0.47842399999999996,-0.024902,-0.332489,0.029936,0.012187,-0.020623,-16.5,1.56,-43.560001,1b
2019-07-15_174614:620,-0.582642,-0.026427999999999997,-0.352325,0.030545999999999997,0.010661,-0.01989,-16.5,1.56,-43.560001,1b
2019-07-15_174614:640,-0.45706199999999997,-0.027435,-0.350281,0.029661,0.000743,-0.017693,-18.370001000000002,2.68,-42.369999,1b
2019-07-15_174614:660,-0.522644,-0.017792,-0.359955,0.025419,0.002361,-0.019097,-18.370001000000002,2.68,-42.369999,1b
2019-07-15_174614:680,-0.401123,-0.033539,-0.3396,0.020964,0.007488,-0.017052,-18.68,3.75,-43.560001,1b
2019-07-15_174614:700,-0.32132,-0.035583,-0.344177,0.015928,0.011943,-0.016777,-18.68,3.75,-43.560001,1b
2019-07-15_174614:720,-0.282166,-0.050323,-0.338074,0.011961,0.011211,-0.011681,-18.68,3.75,-43.560001,1b
2019-07-15_174614:740,-0.278595,-0.056915,-0.366058,0.009641,0.0012619999999999999,-0.007958,-18.370001000000002,4.68,-42.369999,1b
2019-07-15_174614:760,-0.258759,-0.057953,-0.390961,0.006895,-0.010152,-0.0075,-18.370001000000002,4.68,-42.369999,1b
2019-07-15_174614:780,-0.330963,-0.053375,-0.41384899999999997,0.004972,-0.02187,-0.004052,-20.18,5.06,-42.75,1b
2019-07-15_174614:800,-0.39859,-0.052338,-0.40976,0.00485,-0.024953,-0.005974,-20.18,5.06,-42.75,1b
2019-07-15_174614:820,-0.41333000000000003,-0.037108999999999996,-0.406738,0.003843,-0.019948,-0.015191,-20.18,5.06,-42.75,1b
2019-07-15_174614:840,-0.382324,-0.023375999999999997,-0.374695,0.0035380000000000003,-0.010548,-0.017388,-19.059998999999998,4.25,-42.5,1b
2019-07-15_174614:860,-0.355377,-0.017792,-0.353333,0.003507,-0.0018510000000000002,-0.016838,-19.059998999999998,4.25,-42.5,1b
2019-07-15_174614:880,-0.309113,-0.008118,-0.309601,0.002531,0.004894,-0.01693,-18.370001000000002,5.18,-44.369999,1b
2019-07-15_174614:900,-0.285217,-0.006072999999999999,-0.284698,0.003111,0.009134999999999999,-0.015191,-18.370001000000002,5.18,-44.369999,1b
2019-07-15_174614:920,-0.253693,-0.001495,-0.254211,0.003782,0.012004,-0.015465000000000001,-18.370001000000002,5.18,-44.369999,1b
2019-07-15_174614:940,-0.24096700000000001,0.004059,-0.23895300000000003,0.0041789999999999996,0.012676,-0.016442,-18.75,5.18,-42.75,1b
2019-07-15_174614:960,-0.268951,0.008636,-0.23791500000000002,0.004118,0.010539,-0.012931999999999999,-18.75,5.18,-42.75,1b
2019-07-15_174614:980,-0.295898,0.006072999999999999,-0.24453699999999998,0.0032630000000000003,0.009288,-0.007073,-19.5,4.75,-43.18,1b
2019-07-15_174615:000,-0.32995599999999997,0.000488,-0.258759,0.001066,0.009746,-0.0010609999999999999,-19.5,4.75,-43.18,1b
2019-07-15_174615:020,-0.358917,-0.005065999999999999,-0.266907,-0.001314,0.011333,0.0038829999999999997,-19.5,4.75,-43.18,1b
2019-07-15_174615:040,-0.373688,-0.014740000000000001,-0.28369099999999997,-0.003939,0.015238999999999999,0.006569,-18.75,4.37,-43.560001,1b
2019-07-15_174615:060,-0.384857,-0.019318000000000002,-0.29538000000000003,-0.006411,0.018718000000000002,0.008339,-18.75,4.37,-43.560001,1b
2019-07-15_174615:080,-0.41384899999999997,-0.021851,-0.32843,-0.009249,0.017375,0.009864,-20.0,4.37,-42.75,1b
2019-07-15_174615:100,-0.460114,-0.022858,-0.33758499999999997,-0.012179,0.012798,0.014381,-20.0,4.37,-42.75,1b
2019-07-15_174615:120,-0.506378,-0.025908999999999998,-0.344696,-0.015444,0.009868,0.020301,-20.0,4.37,-42.75,1b
2019-07-15_174615:140,-0.505371,-0.027954000000000003,-0.345215,-0.019015,0.011545999999999999,0.023018,-21.5,4.75,-42.75,1b
2019-07-15_174615:160,-0.496704,-0.021851,-0.365021,-0.021943999999999998,0.015666,0.021553,-21.5,4.75,-42.75,1b
2019-07-15_174615:180,-0.602966,-0.021851,-0.378754,-0.024538,0.015971,0.020697999999999998,-21.75,4.0,-41.560001,1b
2019-07-15_174615:200,-0.529266,-0.017792,-0.377747,-0.027651,0.0069689999999999995,0.02494,-21.75,4.0,-41.560001,1b
2019-07-15_174615:220,-0.537384,-0.014740000000000001,-0.330475,-0.031222000000000003,0.017894,0.030586000000000002,-21.75,4.0,-41.560001,1b
2019-07-15_174615:240,-0.390961,-0.009125,-0.293335,-0.028689,0.03297,0.028388999999999998,-22.5,3.68,-42.369999,1b
2019-07-15_174615:260,-0.303528,-0.000488,-0.246063,-0.028109,0.041484,0.020819999999999998,-22.5,3.68,-42.369999,1b
2019-07-15_174615:280,-0.317749,0.020325,-0.28064,-0.026033999999999998,0.028056,0.020424,-22.870001000000002,4.0,-41.25,1b
2019-07-15_174615:300,-0.303528,0.015747,-0.28979499999999997,-0.026766,0.009929,0.025398,-22.870001000000002,4.0,-41.25,1b
2019-07-15_174615:320,-0.379272,0.011169,-0.315216,-0.027833999999999998,-0.008870000000000001,0.023201,-22.870001000000002,4.0,-41.25,1b
2019-07-15_174615:340,-0.411285,0.009644,-0.33605999999999997,-0.028292,-0.021474,0.021156,-24.75,3.25,-40.5,1b
2019-07-15_174615:360,-0.416901,0.004547,-0.33197,-0.028048000000000003,-0.025287999999999998,0.020973,-24.75,3.25,-40.5,1b
2019-07-15_174615:380,-0.412811,0.0,-0.3396,-0.027558999999999997,-0.020772,0.021217,-24.059998999999998,2.5,-41.369999,1b
2019-07-15_174615:400,-0.390442,-0.007599,-0.318268,-0.026858,-0.012318,0.021491999999999997,-24.059998999999998,2.5,-41.369999,1b
2019-07-15_174615:420,-0.367584,-0.014740000000000001,-0.293335,-0.025789,-0.001393,0.021339,-24.059998999999998,2.5,-41.369999,1b
2019-07-15_174615:440,-0.311127,-0.020844,-0.24353000000000002,-0.024843,0.009470999999999999,0.019813,-22.5,2.87,-40.869999,1b
2019-07-15_174615:460,-0.27301,-0.021332,-0.21759,-0.023928,0.016368,0.019569,-22.5,2.87,-40.869999,1b
2019-07-15_174615:480,-0.224701,-0.027435,-0.189117,-0.023316999999999997,0.016794999999999997,0.021491999999999997,-23.370001000000002,1.87,-41.68,1b
2019-07-15_174615:500,-0.234375,-0.036591000000000005,-0.195221,-0.021943999999999998,0.009593,0.020973,-23.370001000000002,1.87,-41.68,1b
2019-07-15_174615:520,-0.28112800000000004,-0.037108999999999996,-0.206909,-0.020600999999999998,0.001842,0.016517,-23.370001000000002,1.87,-41.68,1b
2019-07-15_174615:540,-0.319794,-0.042694,-0.224701,-0.018496000000000002,-0.002187,0.012519,-23.0,2.5,-41.369999,1b
2019-07-15_174615:560,-0.37265,-0.043701,-0.251648,-0.015780000000000002,-0.002095,0.007942,-23.0,2.5,-41.369999,1b
2019-07-15_174615:580,-0.381317,-0.041687,-0.268433,-0.012972,0.0008039999999999999,0.004615,-23.370001000000002,1.87,-40.5,1b
2019-07-15_174615:600,-0.433167,-0.035065,-0.303528,-0.009127,0.000743,0.002052,-23.370001000000002,1.87,-40.5,1b
2019-07-15_174615:620,-0.449432,-0.032532,-0.318268,-0.005404,-0.00063,-0.0033799999999999998,-23.370001000000002,1.87,-40.5,1b
2019-07-15_174615:640,-0.462646,-0.027435,-0.335022,-0.00165,-0.002309,-0.010551999999999999,-23.370001000000002,2.18,-40.5,1b
2019-07-15_174615:660,-0.453491,-0.021332,-0.365021,0.0019210000000000002,-0.0052380000000000005,-0.013848,-23.370001000000002,2.18,-40.5,1b
2019-07-15_174615:680,-0.45706199999999997,-0.022369,-0.402649,0.004972,-0.007679999999999999,-0.011864,-23.370001000000002,0.25,-41.369999,1b
2019-07-15_174615:700,-0.5185850000000001,-0.026917,-0.415375,0.006986,-0.002919,-0.008140999999999999,-23.370001000000002,0.25,-41.369999,1b
2019-07-15_174615:720,-0.684326,-0.032532,-0.471283,0.009489000000000001,0.004039,-0.007897,-23.370001000000002,0.25,-41.369999,1b
2019-07-15_174615:740,-0.45907600000000004,-0.053863999999999995,-0.40316799999999997,0.011289,0.01292,-0.014916,-23.370001000000002,1.75,-41.369999,1b
2019-07-15_174615:760,-0.43774399999999997,-0.036591000000000005,-0.381317,0.010099,0.026805000000000002,-0.020501,-23.370001000000002,1.75,-41.369999,1b
2019-07-15_174615:780,-0.355896,-0.056427,-0.310638,0.010771,0.036693,-0.013999999999999999,-23.68,0.56,-41.369999,1b
2019-07-15_174615:800,-0.35180700000000004,-0.05438200000000001,-0.29895,0.008634000000000001,0.032909,-0.01281,-23.68,0.56,-41.369999,1b
2019-07-15_174615:820,-0.323853,-0.053375,-0.303528,0.005308,0.016521,-0.004631000000000001,-23.68,0.56,-41.369999,1b
2019-07-15_174615:840,-0.34570300000000004,-0.06405599999999999,-0.30654899999999996,0.001737,-0.000661,0.006874,-24.5,2.06,-40.18,1b
2019-07-15_174615:860,-0.402649,-0.058441,-0.335022,-0.0032979999999999997,-0.014638,0.0055,-24.5,2.06,-40.18,1b
2019-07-15_174615:880,-0.417908,-0.056915,-0.335022,-0.007479,-0.021474,0.003242,-24.870001000000002,2.06,-41.0,1b
2019-07-15_174615:900,-0.434174,-0.056915,-0.330963,-0.010103000000000001,-0.019612,0.002693,-24.870001000000002,2.06,-41.0,1b
2019-07-15_174615:920,-0.389954,-0.048798,-0.313171,-0.012392,-0.011128,-0.003624,-24.870001000000002,2.06,-41.0,1b
2019-07-15_174615:940,-0.32486,-0.035065,-0.285217,-0.013827,-0.002309,-0.008873,-23.68,2.06,-41.0,1b
2019-07-15_174615:960,-0.288269,-0.027954000000000003,-0.25827,-0.013643,0.003917,-0.01162,-23.68,2.06,-41.0,1b
2019-07-15_174615:980,-0.265381,-0.011687999999999999,-0.22164899999999998,-0.013704,0.006816,-0.014672,-23.370001000000002,2.06,-41.369999,1b
2019-07-15_174616:000,-0.262329,-0.004059,-0.20742800000000003,-0.013643,0.0071519999999999995,-0.014641,-23.370001000000002,2.06,-41.369999,1b
2019-07-15_174616:020,-0.263336,0.000488,-0.20233199999999998,-0.012789,0.005443,-0.013725999999999999,-23.370001000000002,2.06,-41.369999,1b
2019-07-15_174616:040,-0.28927600000000003,0.007599,-0.21249400000000002,-0.012697,0.001964,-0.01281,-23.68,1.37,-41.0,1b
2019-07-15_174616:060,-0.32486,0.004059,-0.234375,-0.011720999999999999,0.00016299999999999998,-0.007744,-23.68,1.37,-41.0,1b
2019-07-15_174616:080,-0.353333,0.004059,-0.24963400000000002,-0.011170999999999999,0.000285,-0.00396,-23.68,-0.06,-41.369999,1b
2019-07-15_174616:100,-0.386902,0.001495,-0.263855,-0.010927,0.003032,-0.0019149999999999998,-23.68,-0.06,-41.369999,1b
2019-07-15_174616:120,-0.405212,0.0,-0.28112800000000004,-0.010592,0.005686999999999999,0.001564,-23.68,-0.06,-41.369999,1b
2019-07-15_174616:140,-0.425537,-0.008118,-0.297913,-0.010653,0.007762000000000001,0.006019,-23.68,-0.5,-39.75,1b
2019-07-15_174616:160,-0.475861,-0.014221000000000001,-0.304535,-0.011965,0.00703,0.011146,-23.68,-0.5,-39.75,1b
2019-07-15_174616:180,-0.531281,-0.026917,-0.316223,-0.013521,0.005412,0.015449000000000001,-23.68,-0.5,-41.0,1b
2019-07-15_174616:200,-0.514496,-0.031006,-0.313171,-0.015780000000000002,0.005748,0.017707,-23.68,-0.5,-41.0,1b
2019-07-15_174616:220,-0.48754899999999995,-0.027954000000000003,-0.32486,-0.018007,0.007273999999999999,0.018684,-23.68,-0.5,-41.0,1b
2019-07-15_174616:240,-0.48553500000000005,-0.027954000000000003,-0.330963,-0.020144,0.009226999999999999,0.01902,-24.059998999999998,-0.5,-39.369999,1b
2019-07-15_174616:260,-0.6289060000000001,-0.021851,-0.37674,-0.022005,0.008678,0.016028999999999998,-24.059998999999998,-0.5,-39.369999,1b
2019-07-15_174616:280,-0.48858599999999996,-0.012695,-0.384857,-0.023806,-0.0008439999999999999,0.016304,-24.059998999999998,-0.06,-40.18,1b
2019-07-15_174616:300,-0.503326,-0.012695,-0.349274,-0.026919,0.0069689999999999995,0.021156,-24.059998999999998,-0.06,-40.18,1b
2019-07-15_174616:320,-0.46060200000000007,-0.008636,-0.315704,-0.024508000000000002,0.020366,0.017189,-24.059998999999998,-0.06,-40.18,1b
2019-07-15_174616:340,-0.370636,0.012695,-0.29538000000000003,-0.023867,0.028513999999999998,0.008827,-24.5,-0.5,-41.0,1b
2019-07-15_174616:360,-0.329437,0.009125,-0.29538000000000003,-0.019869,0.020427,0.007698,-24.5,-0.5,-41.0,1b
2019-07-15_174616:380,-0.296387,0.013702,-0.29486100000000004,-0.018404,0.007548999999999999,0.0037,-25.559998999999998,-1.18,-39.75,1b
2019-07-15_174616:400,-0.344696,0.012695,-0.309601,-0.016359000000000002,-0.008473,0.003303,-25.559998999999998,-1.18,-39.75,1b
2019-07-15_174616:420,-0.36248800000000003,0.004059,-0.334015,-0.013368999999999999,-0.022633,0.0060799999999999995,-25.559998999999998,-1.18,-39.75,1b
2019-07-15_174616:440,-0.38385,0.0035399999999999997,-0.333496,-0.011843000000000001,-0.029835000000000004,0.0060799999999999995,-25.559998999999998,-0.87,-40.18,1b
2019-07-15_174616:460,-0.396057,-0.005065999999999999,-0.330963,-0.009066,-0.023549,0.015052000000000001,-25.559998999999998,-0.87,-40.18,1b
2019-07-15_174616:480,-0.37265,-0.013213999999999998,-0.320801,-0.008059,-0.013050999999999998,0.019294,-24.870001000000002,-2.0,-40.5,1b
2019-07-15_174616:500,-0.338593,-0.023895,-0.286224,-0.006991,-0.002644,0.020637,-24.870001000000002,-2.0,-40.5,1b
2019-07-15_174616:520,-0.313171,-0.026427999999999997,-0.263336,-0.006411,0.004833,0.02021,-24.870001000000002,-2.0,-40.5,1b
2019-07-15_174616:540,-0.287231,-0.032013,-0.22521999999999998,-0.0069299999999999995,0.009470999999999999,0.019111000000000003,-23.370001000000002,-2.0,-41.369999,1b
2019-07-15_174616:560,-0.278595,-0.035583,-0.21048000000000003,-0.007448000000000001,0.010417000000000001,0.016638999999999998,-23.370001000000002,-2.0,-41.369999,1b
2019-07-15_174616:580,-0.291321,-0.037598,-0.204376,-0.007662,0.009226999999999999,0.013130000000000001,-23.370001000000002,-0.87,-41.369999,1b
2019-07-15_174616:600,-0.306061,-0.035583,-0.20843499999999998,-0.007265000000000001,0.007548999999999999,0.009864,-23.370001000000002,-0.87,-41.369999,1b
2019-07-15_174616:620,-0.320282,-0.041687,-0.21810900000000003,-0.0058,0.004649,0.0060799999999999995,-23.370001000000002,-0.87,-41.369999,1b
2019-07-15_174616:640,-0.346222,-0.044739,-0.22521999999999998,-0.0036340000000000005,0.0019030000000000002,0.001258,-24.5,-1.18,-40.5,1b
2019-07-15_174616:660,-0.394531,-0.042694,-0.251648,-0.000277,0.0009570000000000001,0.000129,-24.5,-1.18,-40.5,1b
2019-07-15_174616:680,-0.417908,-0.048279,-0.253693,0.003996,0.001994,-0.000512,-24.870001000000002,-0.87,-39.369999,1b
2019-07-15_174616:700,-0.44433599999999995,-0.044219999999999995,-0.282166,0.008237999999999999,0.000499,-0.004631000000000001,-24.870001000000002,-0.87,-39.369999,1b
2019-07-15_174616:720,-0.44433599999999995,-0.042694,-0.28927600000000003,0.012022,-0.002644,-0.009484000000000001,-24.870001000000002,-0.87,-39.369999,1b
2019-07-15_174616:740,-0.43011499999999997,-0.040649,-0.322845,0.015653,-0.008992,-0.012412999999999999,-25.18,-0.5,-41.68,1b
2019-07-15_174616:760,-0.401642,-0.044739,-0.326904,0.018858,-0.014058000000000001,-0.016899,-25.18,-0.5,-41.68,1b
2019-07-15_174616:780,-0.48553500000000005,-0.051849,-0.37265,0.021055,-0.019704,-0.022759,-25.559998999999998,-0.87,-41.68,1b
2019-07-15_174616:800,-0.6716,-0.032013,-0.48858599999999996,0.023558000000000003,-0.034901,-0.022423,-25.559998999999998,-0.87,-41.68,1b
2019-07-15_174616:820,-0.570435,-0.057953,-0.390442,0.0231,-0.024007,-0.026787000000000002,-25.559998999999998,-0.87,-41.68,1b
2019-07-15_174616:840,-0.528748,-0.051849,-0.431122,0.021787,-0.008351,-0.028710000000000003,-24.870001000000002,-0.06,-42.18,1b
2019-07-15_174616:860,-0.384857,-0.070648,-0.36554000000000003,0.019132,0.007670999999999999,-0.018578,-24.870001000000002,-0.06,-42.18,1b
2019-07-15_174616:880,-0.39859,-0.078796,-0.368591,0.016599000000000003,0.008281,-0.012597,-23.370001000000002,1.0,-42.5,1b
2019-07-15_174616:900,-0.309113,-0.09301799999999999,-0.355377,0.013669999999999998,0.0010789999999999999,-0.007347,-23.370001000000002,1.0,-42.5,1b
2019-07-15_174616:920,-0.316742,-0.095581,-0.36706500000000003,0.011747,-0.011067,-0.006157,-23.370001000000002,1.0,-42.5,1b
2019-07-15_174616:940,-0.36706500000000003,-0.090485,-0.376221,0.00897,-0.018512999999999998,-0.011009999999999999,-23.370001000000002,1.0,-41.369999,1b
2019-07-15_174616:960,-0.370636,-0.08081100000000001,-0.375702,0.006437000000000001,-0.019765,-0.014275,-23.370001000000002,1.0,-41.369999,1b
2019-07-15_174616:980,-0.363007,-0.07016,-0.37265,0.00485,-0.017689,-0.016381,-23.370001000000002,1.0,-42.5,1b
2019-07-15_174617:000,-0.344696,-0.059479,-0.364532,0.003782,-0.012806999999999999,-0.020775,-23.370001000000002,1.0,-42.5,1b
2019-07-15_174617:020,-0.330963,-0.039124,-0.3396,0.0032020000000000004,-0.0062759999999999995,-0.023094999999999997,-23.370001000000002,1.0,-42.5,1b
2019-07-15_174617:040,-0.319794,-0.031494,-0.318268,0.002378,0.0016589999999999999,-0.023034,-23.0,1.0,-42.060001,1b
2019-07-15_174617:060,-0.295898,-0.020325,-0.276062,0.000944,0.009134999999999999,-0.02221,-23.0,1.0,-42.060001,1b
2019-07-15_174617:080,-0.274017,-0.012695,-0.255707,-0.000399,0.013652000000000001,-0.020501,-22.25,1.37,-42.869999,1b
2019-07-15_174617:100,-0.24453699999999998,-0.0030210000000000002,-0.22927899999999998,-0.0021079999999999996,0.014385,-0.019158,-22.25,1.37,-42.869999,1b
2019-07-15_174617:120,-0.249115,0.000488,-0.222687,-0.003817,0.010661,-0.017785,-22.25,1.37,-42.869999,1b
2019-07-15_174617:140,-0.277069,-0.002014,-0.22927899999999998,-0.005221,0.00648,-0.015038,-23.68,1.0,-43.25,1b
2019-07-15_174617:160,-0.334015,-0.009125,-0.24658200000000002,-0.006014,0.005168,-0.011009999999999999,-23.68,1.0,-43.25,1b
2019-07-15_174617:180,-0.358917,-0.010651,-0.262848,-0.006319,0.005779,-0.008202,-23.370001000000002,-0.06,-43.25,1b
2019-07-15_174617:200,-0.389954,-0.009125,-0.28064,-0.006745999999999999,0.0071519999999999995,-0.003624,-23.370001000000002,-0.06,-43.25,1b
2019-07-15_174617:220,-0.40316799999999997,-0.013702,-0.314178,-0.0069299999999999995,0.007488,0.002754,-23.370001000000002,-0.06,-43.25,1b
2019-07-15_174617:240,-0.404175,-0.01828,-0.326904,-0.008272,0.0052899999999999996,0.005561,-24.5,0.25,-42.869999,1b
2019-07-15_174617:260,-0.453491,-0.017273,-0.352325,-0.009309999999999999,-0.001454,0.00782,-24.5,0.25,-42.869999,1b
2019-07-15_174617:280,-0.45907600000000004,-0.019318000000000002,-0.35739099999999996,-0.010988,-0.005482,0.013130000000000001,-24.5,0.68,-41.68,1b
2019-07-15_174617:300,-0.47433500000000006,-0.021332,-0.363007,-0.013247,-0.0034990000000000004,0.016975,-24.5,0.68,-41.68,1b
2019-07-15_174617:320,-0.47689799999999993,-0.023895,-0.386383,-0.015352000000000001,0.003917,0.018165,-24.5,0.68,-41.68,1b
2019-07-15_174617:340,-0.528748,-0.026917,-0.397064,-0.017031,7.2e-05,0.016243,-24.059998999999998,0.37,-43.369999,1b
2019-07-15_174617:360,-0.454529,-0.009644,-0.381317,-0.020205,0.00016299999999999998,0.020697999999999998,-24.059998999999998,0.37,-43.369999,1b
2019-07-15_174617:380,-0.492126,-0.011169,-0.38028,-0.021853,0.009288,0.022895,-24.059998999999998,0.37,-43.68,1b
2019-07-15_174617:400,-0.380798,-0.004547,-0.337067,-0.022188,0.021892,0.016365,-24.059998999999998,0.37,-43.68,1b
2019-07-15_174617:420,-0.396545,0.0030210000000000002,-0.33300799999999997,-0.02167,0.022289,0.008735,-24.059998999999998,0.37,-43.68,1b
2019-07-15_174617:440,-0.347748,0.007111,-0.32995599999999997,-0.019625,0.017100999999999998,0.002357,-24.870001000000002,-0.37,-43.25,1b
2019-07-15_174617:460,-0.312653,0.013702,-0.33197,-0.018282,0.007548999999999999,-0.002373,-24.870001000000002,-0.37,-43.25,1b
2019-07-15_174617:480,-0.377228,0.012177,-0.354858,-0.015627000000000002,-0.00536,-5.4000000000000005e-05,-25.559998999999998,-0.75,-42.18,1b
2019-07-15_174617:500,-0.38028,0.011169,-0.354858,-0.013033000000000001,-0.01299,0.002571,-25.559998999999998,-0.75,-42.18,1b
2019-07-15_174617:520,-0.394531,0.0035399999999999997,-0.34674099999999997,-0.01047,-0.014180000000000002,0.004432,-25.559998999999998,-0.75,-42.18,1b
2019-07-15_174617:540,-0.38385,-0.002014,-0.33300799999999997,-0.008272,-0.008748,0.006233,-25.559998999999998,-1.5,-43.25,1b
2019-07-15_174617:560,-0.35436999999999996,-0.013213999999999998,-0.307587,-0.006197,-0.00011100000000000001,0.009864,-25.559998999999998,-1.5,-43.25,1b
2019-07-15_174617:580,-0.324371,-0.021332,-0.282166,-0.004336,0.008281,0.012519,-24.870001000000002,-1.87,-42.869999,1b
2019-07-15_174617:600,-0.29284699999999997,-0.028442000000000002,-0.246063,-0.0031149999999999997,0.01414,0.011848000000000001,-24.870001000000002,-1.87,-42.869999,1b
2019-07-15_174617:620,-0.273529,-0.030487,-0.228271,-0.002169,0.015636,0.009925,-24.870001000000002,-1.87,-42.869999,1b
2019-07-15_174617:640,-0.250641,-0.03302,-0.20944200000000002,-0.00165,0.013193999999999999,0.008216,-25.18,-0.75,-42.5,1b
2019-07-15_174617:660,-0.262329,-0.036072,-0.209961,-0.000277,0.006418999999999999,0.0058969999999999995,-25.18,-0.75,-42.5,1b
2019-07-15_174617:680,-0.290283,-0.036072,-0.22216799999999998,0.001463,-0.0009050000000000001,0.0033640000000000002,-25.18,-0.75,-42.869999,1b
2019-07-15_174617:700,-0.324371,-0.036591000000000005,-0.231812,0.003782,-0.005696,0.001228,-25.18,-0.75,-42.869999,1b
2019-07-15_174617:720,-0.342163,-0.037108999999999996,-0.23791500000000002,0.006162,-0.005482,-0.001397,-25.18,-0.75,-42.869999,1b
2019-07-15_174617:740,-0.39859,-0.034546,-0.279114,0.008421,-0.00298,-0.0021899999999999997,-25.18,0.0,-43.68,1b
2019-07-15_174617:760,-0.402649,-0.035065,-0.281647,0.011228,0.0010789999999999999,-0.003045,-25.18,0.0,-43.68,1b
2019-07-15_174617:780,-0.43670699999999996,-0.032532,-0.308594,0.013822,0.003093,-0.005089,-24.5,0.37,-43.68,1b
2019-07-15_174617:800,-0.44384799999999996,-0.030487,-0.31723,0.016996,0.002574,-0.008140999999999999,-24.5,0.37,-43.68,1b
2019-07-15_174617:820,-0.449432,-0.029968,-0.337067,0.019468,0.000133,-0.011284,-24.5,0.37,-43.68,1b
2019-07-15_174617:840,-0.444855,-0.031006,-0.346222,0.021634999999999998,-0.001912,-0.013328999999999999,-25.559998999999998,0.0,-43.68,1b
2019-07-15_174617:860,-0.435699,-0.031494,-0.35943600000000003,0.023161,-0.002431,-0.014061,-25.559998999999998,0.0,-43.68,1b
2019-07-15_174617:880,-0.482483,-0.038635,-0.375702,0.024015,-0.003285,-0.011864,-24.5,1.5,-44.869999,1b
2019-07-15_174617:900,-0.529755,-0.040161,-0.463654,0.025297,-0.0118,-0.01278,-24.5,1.5,-44.869999,1b
2019-07-15_174617:920,-0.528229,-0.045745999999999995,-0.353333,0.0231,0.0012619999999999999,-0.021569,-24.5,1.5,-44.869999,1b
2019-07-15_174617:940,-0.48858599999999996,-0.030487,-0.389435,0.020719,0.014385,-0.01577,-24.870001000000002,1.87,-44.060001,1b
2019-07-15_174617:960,-0.35436999999999996,-0.057953,-0.329437,0.017393000000000002,0.024608,-0.007622,-24.870001000000002,1.87,-44.060001,1b
2019-07-15_174617:980,-0.355377,-0.065063,-0.325897,0.012419,0.020946,-0.010125,-24.870001000000002,2.18,-45.25,1b
2019-07-15_174618:000,-0.313171,-0.071686,-0.33197,0.009245,0.011089,-0.005242,-24.870001000000002,2.18,-45.25,1b
2019-07-15_174618:020,-0.33197,-0.083862,-0.349792,0.006712,-0.0007830000000000001,-0.005425,-24.870001000000002,2.18,-45.25,1b
2019-07-15_174618:040,-0.36654699999999996,-0.075226,-0.35739099999999996,0.002775,-0.008992,-0.010674,-25.559998999999998,2.37,-44.75,1b
2019-07-15_174618:060,-0.392487,-0.062012,-0.368073,0.001005,-0.013936000000000002,-0.008202,-25.559998999999998,2.37,-44.75,1b
2019-07-15_174618:080,-0.388916,-0.059479,-0.37112399999999995,-0.000582,-0.015248,-0.007836,-26.0,3.18,-44.369999,1b
2019-07-15_174618:100,-0.377747,-0.046265,-0.35791,-0.0018030000000000001,-0.012776000000000001,-0.01162,-26.0,3.18,-44.369999,1b
2019-07-15_174618:120,-0.375214,-0.039124,-0.338074,-0.002382,-0.005757,-0.012657999999999999,-26.0,3.18,-44.369999,1b
2019-07-15_174618:140,-0.360962,-0.03302,-0.312164,-0.0032979999999999997,0.0042829999999999995,-0.012412999999999999,-24.5,2.06,-44.0,1b
2019-07-15_174618:160,-0.319275,-0.019806,-0.274017,-0.005007,0.012279,-0.011803,-24.5,2.06,-44.0,1b
2019-07-15_174618:180,-0.284698,-0.014221000000000001,-0.249115,-0.00635,0.015178,-0.012261,-24.059998999999998,2.06,-44.75,1b
2019-07-15_174618:200,-0.255707,-0.0025329999999999997,-0.21911599999999998,-0.00873,0.01292,-0.011681,-24.059998999999998,2.06,-44.75,1b
2019-07-15_174618:220,-0.262329,0.002014,-0.217072,-0.01111,0.0088,-0.007897,-24.059998999999998,2.06,-44.75,1b
2019-07-15_174618:240,-0.277588,0.0,-0.22164899999999998,-0.012636,0.004619,-0.003655,-24.870001000000002,2.06,-43.560001,1b
2019-07-15_174618:260,-0.298431,-0.002014,-0.22927899999999998,-0.013765000000000001,0.0012619999999999999,-0.0017629999999999998,-24.870001000000002,2.06,-43.560001,1b
2019-07-15_174618:280,-0.329437,-0.006592,-0.24453699999999998,-0.014223,0.000346,0.00016,-25.559998999999998,1.75,-44.75,1b
2019-07-15_174618:300,-0.353333,-0.013213999999999998,-0.253693,-0.014284,0.0014759999999999999,0.00132,-25.559998999999998,1.75,-44.75,1b
2019-07-15_174618:320,-0.389954,-0.017792,-0.284698,-0.014223,0.00352,0.002449,-25.559998999999998,1.75,-44.75,1b
2019-07-15_174618:340,-0.402161,-0.018799,-0.296387,-0.014437,0.003246,0.00428,-24.870001000000002,1.37,-44.0,1b
2019-07-15_174618:360,-0.474854,-0.020844,-0.32132,-0.014834,0.0008039999999999999,0.013771,-24.870001000000002,1.37,-44.0,1b
2019-07-15_174618:380,-0.508423,-0.024902,-0.335541,-0.015352000000000001,0.0008960000000000001,0.015449000000000001,-25.559998999999998,0.56,-45.18,1b
2019-07-15_174618:400,-0.498749,-0.023895,-0.348267,-0.017672,0.004649,0.019081,-25.559998999999998,0.56,-45.18,1b
2019-07-15_174618:420,-0.492645,-0.027435,-0.355377,-0.018557,0.009134999999999999,0.022102,-25.559998999999998,0.56,-45.18,1b
2019-07-15_174618:440,-0.514496,-0.037108999999999996,-0.36654699999999996,-0.018892,0.013652000000000001,0.022346,-25.18,0.25,-45.560001,1b
2019-07-15_174618:460,-0.6512760000000001,-0.034058,-0.404175,-0.018831,0.005504,0.022895,-25.18,0.25,-45.560001,1b
2019-07-15_174618:480,-0.546021,-0.032532,-0.33758499999999997,-0.019747,0.009746,0.025459,-25.559998999999998,0.56,-44.75,1b
2019-07-15_174618:500,-0.533325,-0.034546,-0.361481,-0.019137,0.026407999999999997,0.023628,-25.559998999999998,0.56,-44.75,1b
2019-07-15_174618:520,-0.388428,-0.023895,-0.29742399999999997,-0.018618,0.037150999999999997,0.016243,-25.559998999999998,0.56,-44.75,1b
2019-07-15_174618:540,-0.358917,-0.011169,-0.245544,-0.017366999999999997,0.038341,0.012336,-25.559998999999998,0.56,-45.18,1b
2019-07-15_174618:560,-0.330475,0.001007,-0.262848,-0.013765000000000001,0.025462000000000002,0.001625,-25.559998999999998,0.56,-45.18,1b
2019-07-15_174618:580,-0.301483,0.006072999999999999,-0.266388,-0.013765000000000001,0.01884,-0.0029219999999999997,-27.870001000000002,-0.5,-42.369999,1b
2019-07-15_174618:600,-0.318756,0.01828,-0.29486100000000004,-0.012636,-0.006093,-0.009026000000000001,-27.870001000000002,-0.5,-42.369999,1b
2019-07-15_174618:620,-0.34317,0.020844,-0.317749,-0.011904000000000001,-0.022084,-0.007622,-27.870001000000002,-0.5,-42.369999,1b
2019-07-15_174618:640,-0.331482,0.022858,-0.32486,-0.01166,-0.032582,-0.0057,-27.870001000000002,-0.06,-44.0,1b
2019-07-15_174618:660,-0.361481,0.024902,-0.334015,-0.011049,-0.034413,0.000587,-27.870001000000002,-0.06,-44.0,1b
2019-07-15_174618:680,-0.365021,0.021332,-0.326385,-0.010103000000000001,-0.027576999999999997,0.00782,-26.68,-0.5,-43.560001,1b
2019-07-15_174618:700,-0.368591,0.013213999999999998,-0.309601,-0.009004999999999999,-0.016957,0.012123,-26.68,-0.5,-43.560001,1b
2019-07-15_174618:720,-0.36044299999999996,0.006592,-0.278107,-0.007876000000000001,-0.005177,0.016853,-26.68,-0.5,-43.560001,1b
2019-07-15_174618:740,-0.329437,0.002014,-0.250641,-0.007601,1.1e-05,0.019508,-26.0,-1.18,-44.369999,1b
2019-07-15_174618:760,-0.278595,-0.006072999999999999,-0.21911599999999998,-0.007998,0.005504,0.026680000000000002,-26.0,-1.18,-44.369999,1b
2019-07-15_174618:780,-0.266388,-0.009125,-0.210968,-0.008059,0.004436,0.028052999999999998,-26.370001000000002,-0.87,-44.0,1b
2019-07-15_174618:800,-0.278107,-0.018799,-0.205902,-0.009249,-0.003773,0.026191000000000002,-26.370001000000002,-0.87,-44.0,1b
2019-07-15_174618:820,-0.307587,-0.021332,-0.21505700000000003,-0.009706999999999999,-0.008992,0.022621000000000002,-26.370001000000002,-0.87,-44.0,1b
2019-07-15_174618:840,-0.363007,-0.028442000000000002,-0.23233,-0.010042,-0.010395999999999999,0.020881,-25.559998999999998,0.56,-44.369999,1b
2019-07-15_174618:860,-0.387909,-0.032532,-0.25116,-0.009585,-0.009206,0.016638999999999998,-25.559998999999998,0.56,-44.369999,1b
2019-07-15_174618:880,-0.396545,-0.036072,-0.269958,-0.008791,-0.008626,0.015113,-25.559998999999998,0.56,-44.369999,1b
2019-07-15_174618:900,-0.43927,-0.035065,-0.293335,-0.0051600000000000005,-0.008412000000000001,0.009224,-26.370001000000002,-0.06,-45.18,1b
2019-07-15_174618:920,-0.47079499999999996,-0.035065,-0.326385,-0.002779,-0.0062759999999999995,0.00428,-26.370001000000002,-0.06,-45.18,1b
2019-07-15_174618:940,-0.47433500000000006,-0.035065,-0.341125,-0.0017109999999999998,-0.005879,0.002052,-26.0,0.56,-46.369999,1b
2019-07-15_174618:960,-0.438751,-0.032013,-0.368591,0.001982,-0.006428,-0.001397,-26.0,0.56,-46.369999,1b
2019-07-15_174618:980,-0.429596,-0.031006,-0.387909,0.0032020000000000004,-0.0062759999999999995,-0.0017929999999999999,-24.870001000000002,-0.06,-45.869999,1b
2019-07-15_174619:000,-0.525177,-0.048279,-0.397064,0.005644,-0.0032240000000000003,-0.003899,-24.870001000000002,-0.06,-45.869999,1b
2019-07-15_174619:020,-0.652283,-0.035065,-0.47995,0.00836,-0.007802,-0.004692,-24.870001000000002,-0.06,-45.869999,1b
2019-07-15_174619:040,-0.515533,-0.051330999999999995,-0.363007,0.008573,0.00022400000000000002,-0.00808,-24.870001000000002,-0.06,-45.560001,1b
2019-07-15_174619:060,-0.43927,-0.046265,-0.398071,0.008756,0.018718000000000002,-0.012139,-24.870001000000002,-0.06,-45.560001,1b
2019-07-15_174619:080,-0.338593,-0.066071,-0.353333,0.008085,0.022868,-0.009362,-24.870001000000002,-0.06,-45.560001,1b
2019-07-15_174619:100,-0.358917,-0.067596,-0.355377,0.005582999999999999,0.014322999999999999,-0.007225,-25.18,0.56,-45.869999,1b
2019-07-15_174619:120,-0.313171,-0.072174,-0.35739099999999996,0.003721,0.00016299999999999998,-0.00023700000000000001,-25.18,0.56,-45.869999,1b
2019-07-15_174619:140,-0.332489,-0.075745,-0.367584,0.002806,-0.006947,0.001442,-25.559998999999998,0.25,-44.75,1b
2019-07-15_174619:160,-0.383331,-0.069122,-0.380798,-0.000643,-0.017963999999999997,-0.004815,-25.559998999999998,0.25,-44.75,1b
2019-07-15_174619:180,-0.399109,-0.05996699999999999,-0.382324,-0.0015279999999999998,-0.01891,-0.006615,-25.559998999999998,1.0,-45.560001,1b
2019-07-15_174619:200,-0.397583,-0.050842,-0.36911,-0.0037560000000000002,-0.01299,-0.009209,-25.559998999999998,1.0,-45.560001,1b
2019-07-15_174619:220,-0.381317,-0.042175,-0.352325,-0.00461,-0.008687,-0.011528,-25.559998999999998,1.0,-45.560001,1b
2019-07-15_174619:240,-0.34063699999999997,-0.027435,-0.314178,-0.005922,0.0008960000000000001,-0.015465000000000001,-25.18,0.56,-45.560001,1b
2019-07-15_174619:260,-0.312164,-0.019318000000000002,-0.288269,-0.006594,0.009929,-0.017296000000000002,-25.18,0.56,-45.560001,1b
2019-07-15_174619:280,-0.272491,-0.009644,-0.248596,-0.007326000000000001,0.016246,-0.018761,-25.18,0.56,-45.560001,1b
2019-07-15_174619:300,-0.257233,-0.0035399999999999997,-0.23028600000000002,-0.007815,0.018565,-0.018181,-24.5,0.25,-45.869999,1b
2019-07-15_174619:320,-0.253693,0.001495,-0.21911599999999998,-0.007601,0.016031999999999998,-0.015068000000000002,-24.5,0.25,-45.869999,1b
2019-07-15_174619:340,-0.267426,0.006592,-0.21554600000000002,-0.007265000000000001,0.014262,-0.013604,-26.370001000000002,-0.06,-45.560001,1b
2019-07-15_174619:360,-0.284698,0.010162000000000001,-0.226227,-0.007479,0.009531999999999999,-0.006706999999999999,-26.370001000000002,-0.06,-45.560001,1b
2019-07-15_174619:380,-0.318756,0.0055850000000000006,-0.241486,-0.007876000000000001,0.008617,-0.003655,-26.370001000000002,-0.06,-45.560001,1b
2019-07-15_174619:400,-0.338593,0.001495,-0.257233,-0.009646,0.007548999999999999,0.003975,-26.68,-2.0,-43.560001,1b
2019-07-15_174619:420,-0.394012,0.000488,-0.290802,-0.010378,0.006572,0.00663,-26.68,-2.0,-43.560001,1b
2019-07-15_174619:440,-0.425537,0.0,-0.310638,-0.011843000000000001,0.005351,0.01139,-26.0,-1.56,-44.369999,1b
2019-07-15_174619:460,-0.47943100000000005,-0.000488,-0.314178,-0.014315000000000001,0.005443,0.015052000000000001,-26.0,-1.56,-44.369999,1b
2019-07-15_174619:480,-0.49975600000000003,-0.001495,-0.32843,-0.017214,0.005748,0.018379,-26.0,-1.56,-44.369999,1b
2019-07-15_174619:500,-0.467224,-0.004059,-0.335541,-0.020937,0.005961999999999999,0.021675,-26.68,-1.56,-42.75,1b
2019-07-15_174619:520,-0.44281000000000004,-0.006072999999999999,-0.344696,-0.025515,0.004894,0.025154,-26.68,-1.56,-42.75,1b
2019-07-15_174619:540,-0.498749,-0.017792,-0.36248800000000003,-0.02698,0.002696,0.024482,-28.18,-1.56,-44.0,1b
2019-07-15_174619:560,-0.612122,-0.008118,-0.44232200000000005,-0.027193000000000002,-0.010395999999999999,0.020697999999999998,-28.18,-1.56,-44.0,1b
2019-07-15_174619:580,-0.576538,-0.0025329999999999997,-0.345215,-0.030702999999999998,-0.001057,0.023475,-28.18,-1.56,-44.0,1b
2019-07-15_174619:600,-0.531799,-0.008118,-0.36044299999999996,-0.028292,0.015575,0.028572000000000004,-27.870001000000002,-2.37,-41.560001,1b
2019-07-15_174619:620,-0.378754,0.001495,-0.302002,-0.027773000000000003,0.031657,0.02024,-27.870001000000002,-2.37,-41.560001,1b
2019-07-15_174619:640,-0.350281,0.020325,-0.267914,-0.026064,0.034648000000000005,0.01432,-28.18,-3.5,-42.369999,1b
2019-07-15_174619:660,-0.31723,0.029480000000000003,-0.290802,-0.024843,0.023540000000000002,0.018684,-28.18,-3.5,-42.369999,1b
2019-07-15_174619:680,-0.29232800000000003,0.031006,-0.294373,-0.027193000000000002,0.006633,0.020637,-28.18,-3.5,-42.369999,1b
2019-07-15_174619:700,-0.36706500000000003,0.025908999999999998,-0.312164,-0.028689,-0.007679999999999999,0.021095,-28.870001000000002,-3.06,-41.560001,1b
2019-07-15_174619:720,-0.401642,0.021332,-0.34063699999999997,-0.029757,-0.016255000000000002,0.020424,-28.870001000000002,-3.06,-41.560001,1b
2019-07-15_174619:740,-0.384338,0.019318000000000002,-0.347229,-0.030489,-0.020436000000000003,0.020637,-29.25,-2.68,-40.75,1b
2019-07-15_174619:760,-0.368591,0.002014,-0.364014,-0.02997,-0.02068,0.026588,-29.25,-2.68,-40.75,1b
2019-07-15_174619:780,-0.374176,-0.007111,-0.360962,-0.029513,-0.018758,0.027473,-29.25,-2.68,-40.75,1b
2019-07-15_174619:800,-0.385864,-0.013702,-0.338593,-0.027558999999999997,-0.009999,0.029852999999999998,-28.870001000000002,-4.25,-40.869999,1b
2019-07-15_174619:820,-0.361481,-0.023375999999999997,-0.30249000000000004,-0.024721,0.002635,0.031379000000000004,-28.870001000000002,-4.25,-40.869999,1b
2019-07-15_174619:840,-0.33605999999999997,-0.027435,-0.279114,-0.022799,0.012676,0.03025,-27.5,-5.0,-40.869999,1b
2019-07-15_174619:860,-0.28775,-0.027954000000000003,-0.245056,-0.020876,0.017986000000000002,0.028602,-27.5,-5.0,-40.869999,1b
2019-07-15_174619:880,-0.28112800000000004,-0.026427999999999997,-0.230804,-0.019869,0.017833,0.026649000000000003,-27.5,-5.0,-40.869999,1b
2019-07-15_174619:900,-0.314178,-0.022858,-0.23233,-0.020022,0.016399,0.025276,-27.059998999999998,-4.68,-41.0,1b
2019-07-15_174619:920,-0.333496,-0.019318000000000002,-0.235382,-0.02054,0.016978,0.025917000000000003,-27.059998999999998,-4.68,-41.0,1b
2019-07-15_174619:940,-0.36654699999999996,-0.021332,-0.23995999999999998,-0.02167,0.01942,0.025154,-28.870001000000002,-4.25,-39.75,1b
2019-07-15_174619:960,-0.382324,-0.01828,-0.24453699999999998,-0.022524000000000002,0.022746000000000002,0.023811000000000002,-28.870001000000002,-4.25,-39.75,1b
2019-07-15_174619:980,-0.411804,-0.017273,-0.267914,-0.023653,0.026012,0.022346,-28.870001000000002,-4.25,-39.75,1b
2019-07-15_174620:000,-0.439758,-0.020325,-0.28979499999999997,-0.023195,0.027538,0.020027,-29.68,-5.5,-40.5,1b
2019-07-15_174620:020,-0.435699,-0.027435,-0.28674299999999997,-0.021792,0.028452999999999996,0.014838999999999998,-29.68,-5.5,-40.5,1b
2019-07-15_174620:040,-0.434692,-0.032013,-0.29486100000000004,-0.018618,0.024547,0.0084,-29.68,-4.75,-38.18,1b
2019-07-15_174620:060,-0.427063,-0.032013,-0.308075,-0.014773,0.018962,0.002357,-29.68,-4.75,-38.18,1b
2019-07-15_174620:080,-0.43774399999999997,-0.030487,-0.322327,-0.011965,0.015056,-0.0009689999999999999,-29.68,-4.75,-38.18,1b
2019-07-15_174620:100,-0.5795899999999999,-0.046265,-0.316223,-0.010256,0.011089,-0.000786,-30.75,-5.87,-37.369999,1b
2019-07-15_174620:120,-0.597382,-0.020325,-0.41943400000000003,-0.008516,-0.0007830000000000001,0.001503,-30.75,-5.87,-37.369999,1b
2019-07-15_174620:140,-0.5404359999999999,-0.045745999999999995,-0.320801,-0.007204,0.003124,-0.00747,-31.559998999999998,-5.87,-37.75,1b
2019-07-15_174620:160,-0.491638,-0.023375999999999997,-0.34063699999999997,-0.006197,0.01234,-0.009484000000000001,-31.559998999999998,-5.87,-37.75,1b
2019-07-15_174620:180,-0.369598,-0.040161,-0.276062,-0.006533,0.024608,0.000404,-31.559998999999998,-5.87,-37.75,1b
2019-07-15_174620:200,-0.36554000000000003,-0.042694,-0.304016,-0.009004999999999999,0.019359,0.00782,-31.18,-7.0,-36.18,1b
2019-07-15_174620:220,-0.315704,-0.051330999999999995,-0.295898,-0.01166,0.006693999999999999,0.015663,-31.18,-7.0,-36.18,1b
2019-07-15_174620:240,-0.315216,-0.062012,-0.316223,-0.013308,-0.00829,0.016059,-31.870001000000002,-7.0,-35.869999,1b
2019-07-15_174620:260,-0.349792,-0.06253099999999999,-0.331482,-0.015108000000000002,-0.018849,0.01081,-31.870001000000002,-7.0,-35.869999,1b
2019-07-15_174620:280,-0.402649,-0.062012,-0.338593,-0.015627000000000002,-0.023396,0.005836,-31.870001000000002,-7.0,-35.869999,1b
2019-07-15_174620:300,-0.40774499999999997,-0.053375,-0.34317,-0.016146,-0.020161000000000002,0.00196,-31.18,-7.0,-35.5,1b
2019-07-15_174620:320,-0.378754,-0.032532,-0.311127,-0.01462,-0.005757,-0.002587,-30.75,-7.75,-36.0,1b
2019-07-15_174620:340,-0.378754,-0.032532,-0.311127,-0.01462,-0.005757,-0.002587,-30.75,-7.75,-36.0,1b
2019-07-15_174620:360,-0.364532,-0.026427999999999997,-0.291321,-0.013521,0.000407,-0.002648,-30.75,-7.75,-36.0,1b
2019-07-15_174620:380,-0.347229,-0.016266,-0.262848,-0.012911,0.005168,-0.002587,-30.75,-7.75,-36.0,1b
2019-07-15_174620:400,-0.34063699999999997,-0.009644,-0.244019,-0.012362,0.008495,-0.001519,-31.18,-7.37,-36.0,1b
2019-07-15_174620:420,-0.329437,-0.006072999999999999,-0.22927899999999998,-0.012453,0.010143000000000001,-0.0009689999999999999,-31.18,-7.37,-36.0,1b
2019-07-15_174620:440,-0.330475,-0.0030210000000000002,-0.223175,-0.013125,0.009226999999999999,-0.001183,-30.059998999999998,-7.75,-35.5,1b
2019-07-15_174620:460,-0.36044299999999996,-0.004059,-0.21148699999999998,-0.014223,0.006816,0.0008619999999999999,-30.059998999999998,-7.75,-35.5,1b
2019-07-15_174620:480,-0.397583,-0.007599,-0.22979699999999997,-0.015413,0.00761,0.004219,-30.059998999999998,-7.75,-35.5,1b
2019-07-15_174620:500,-0.406738,-0.012177,-0.23486300000000002,-0.016694999999999998,0.010814,0.007301,-29.68,-8.06,-36.25,1b
2019-07-15_174620:520,-0.399109,-0.014221000000000001,-0.23233,-0.017702000000000002,0.012859,0.009285,-29.68,-8.06,-36.25,1b
2019-07-15_174620:540,-0.373688,-0.015747,-0.228271,-0.019228,0.012584,0.011665,-30.370001000000002,-8.5,-34.369999,1b
2019-07-15_174620:560,-0.370636,-0.015747,-0.22879000000000002,-0.021273,0.006876999999999999,0.016426,-30.370001000000002,-8.5,-34.369999,1b
2019-07-15_174620:580,-0.391479,-0.020325,-0.246063,-0.023745,-0.003102,0.022499,-30.370001000000002,-8.5,-34.369999,1b
2019-07-15_174620:600,-0.432159,-0.023895,-0.256226,-0.026705,-0.013844,0.026924,-30.059998999999998,-8.56,-34.369999,1b
2019-07-15_174620:620,-0.462128,-0.027954000000000003,-0.28979499999999997,-0.029574,-0.018574,0.029396,-30.059998999999998,-8.56,-34.369999,1b
2019-07-15_174620:640,-0.46569799999999995,-0.029968,-0.318756,-0.032351,-0.01891,0.030067,-30.059998999999998,-8.56,-34.369999,1b
2019-07-15_174620:660,-0.494171,-0.029480000000000003,-0.352325,-0.033358,-0.012318,0.028511,-30.059998999999998,-8.56,-34.369999,1b
2019-07-15_174620:680,-0.509918,-0.027435,-0.364014,-0.033755,-0.000722,0.025856,-30.059998999999998,-8.56,-34.369999,1b
2019-07-15_174620:700,-0.582642,-0.010651,-0.388428,-0.034151,0.004771,0.027533999999999996,-30.18,-8.56,-34.369999,1b
2019-07-15_174620:720,-0.49926800000000005,-0.018799,-0.308075,-0.03586,0.013408000000000002,0.037941,-30.18,-8.56,-34.369999,1b
2019-07-15_174620:740,-0.500275,-0.013702,-0.326385,-0.036927999999999996,0.021098,0.041786000000000004,-30.5,-9.0,-33.560001,1b
2019-07-15_174620:760,-0.37112399999999995,-0.011169,-0.258759,-0.039339,0.026407999999999997,0.04145,-30.5,-9.0,-33.560001,1b
2019-07-15_174620:780,-0.38028,-0.008636,-0.264862,-0.040072,0.023082,0.037269,-30.5,-9.0,-33.560001,1b
2019-07-15_174620:800,-0.375214,-0.004547,-0.259796,-0.041964,0.014446,0.030983,-30.059998999999998,-9.68,-33.18,1b
2019-07-15_174620:820,-0.34875500000000004,-0.001007,-0.258759,-0.043581,0.005016,0.026344,-30.059998999999998,-9.68,-33.18,1b
2019-07-15_174620:840,-0.378754,-0.001007,-0.28418000000000004,-0.044375,-0.006032,0.021553,-31.18,-9.68,-31.18,1b
2019-07-15_174620:860,-0.379791,0.0030210000000000002,-0.295898,-0.044619,-0.016255000000000002,0.01725,-31.18,-9.68,-31.18,1b
2019-07-15_174620:880,-0.36349499999999996,0.002014,-0.321808,-0.044375,-0.0248,0.017981999999999998,-31.18,-9.68,-31.18,1b
2019-07-15_174620:900,-0.375214,-0.002014,-0.332489,-0.0441,-0.027211000000000003,0.02137,-31.559998999999998,-9.68,-32.0,1b
2019-07-15_174620:920,-0.396057,-0.007111,-0.32843,-0.042910000000000004,-0.022022999999999997,0.025673,-31.559998999999998,-9.68,-32.0,1b
2019-07-15_174620:940,-0.394531,-0.011169,-0.316742,-0.041506,-0.012593,0.03083,-29.68,-10.75,-30.0,1b
2019-07-15_174620:960,-0.37112399999999995,-0.017792,-0.29232800000000003,-0.040438,-0.0033770000000000002,0.034492,-29.68,-10.75,-30.0,1b
2019-07-15_174620:980,-0.352844,-0.018799,-0.277069,-0.039736,0.002513,0.036293,-29.68,-10.75,-30.0,1b
2019-07-15_174621:000,-0.317749,-0.024902,-0.248596,-0.039736,0.005168,0.036476,-30.059998999999998,-10.75,-32.369999,1b
2019-07-15_174621:020,-0.304535,-0.029480000000000003,-0.237427,-0.040072,0.003764,0.034248,-30.059998999999998,-10.75,-32.369999,1b
2019-07-15_174621:040,-0.296906,-0.030487,-0.240479,-0.040132999999999995,-0.001393,0.031044,-29.68,-11.18,-30.5,1b
2019-07-15_174621:060,-0.310638,-0.033539,-0.25116,-0.040713,-0.008076,0.027473,-29.68,-11.18,-30.5,1b
2019-07-15_174621:080,-0.344696,-0.033539,-0.26181,-0.040468000000000004,-0.0118,0.023811000000000002,-29.68,-11.18,-30.5,1b
2019-07-15_174621:100,-0.369598,-0.03302,-0.270966,-0.039461,-0.010731000000000001,0.020485,-29.68,-11.18,-30.0,1b
2019-07-15_174621:120,-0.38739,-0.029968,-0.28927600000000003,-0.037722000000000006,-0.006215,0.016761,-29.68,-11.18,-30.0,1b
2019-07-15_174621:140,-0.390442,-0.024902,-0.305054,-0.034487000000000004,-0.0008439999999999999,0.011543000000000001,-29.68,-11.18,-30.0,1b
2019-07-15_174621:160,-0.41943400000000003,-0.018799,-0.32132,-0.029421,0.001292,0.003425,-29.68,-11.18,-30.0,1b
2019-07-15_174621:180,-0.435699,-0.009125,-0.326385,-0.024141,0.002849,-0.004845,-29.68,-11.18,-30.0,1b
2019-07-15_174621:200,-0.458588,0.004059,-0.34063699999999997,-0.018282,0.003917,-0.00689,-28.870001000000002,-12.37,-28.75,1b
2019-07-15_174621:220,-0.459595,0.005065999999999999,-0.341644,-0.012514,0.005686999999999999,-0.005547,-28.870001000000002,-12.37,-28.75,1b
2019-07-15_174621:240,-0.46823100000000006,0.0055850000000000006,-0.353851,-0.007051999999999999,0.007823,-0.0063100000000000005,-28.870001000000002,-12.75,-29.370001000000002,1b
2019-07-15_174621:260,-0.49365200000000004,0.001007,-0.35638400000000003,0.002378,0.015513999999999998,-0.01162,-28.870001000000002,-12.75,-29.370001000000002,1b
2019-07-15_174621:280,-0.580109,-0.009644,-0.35638400000000003,0.005247,0.019511,-0.015128999999999998,-28.870001000000002,-12.75,-29.370001000000002,1b
2019-07-15_174621:300,-0.6314390000000001,0.007111,-0.415375,0.011412,0.01646,-0.019982,-28.559998999999998,-13.87,-29.370001000000002,1b
2019-07-15_174621:320,-0.530792,0.0030210000000000002,-0.291321,0.014555000000000002,0.026133999999999998,-0.020043000000000002,-28.559998999999998,-13.87,-29.370001000000002,1b
2019-07-15_174621:340,-0.473846,0.0055850000000000006,-0.322327,0.016783000000000003,0.032054,-0.013543000000000001,-28.559998999999998,-13.06,-28.870001000000002,1b
2019-07-15_174621:360,-0.3508,-0.020325,-0.237427,0.016935,0.040263,-0.006829000000000001,-28.559998999999998,-13.06,-28.870001000000002,1b
2019-07-15_174621:380,-0.354858,-0.01828,-0.219635,0.014799000000000001,0.040813,-0.0032890000000000003,-28.559998999999998,-13.06,-28.870001000000002,1b
2019-07-15_174621:400,-0.276062,-0.046265,-0.223175,0.01248,0.032359,0.010322,-28.870001000000002,-13.87,-27.370001000000002,1b
2019-07-15_174621:420,-0.255707,-0.055389,-0.25012199999999996,0.009031,0.010814,0.012397,-28.870001000000002,-13.87,-27.370001000000002,1b
2019-07-15_174621:440,-0.29742399999999997,-0.057953,-0.28064,0.004454,-0.014058000000000001,0.012123,-28.870001000000002,-12.75,-26.559998999999998,1b
2019-07-15_174621:460,-0.358429,-0.061005,-0.310638,0.0016760000000000002,-0.034352,0.016456000000000002,-28.870001000000002,-12.75,-26.559998999999998,1b
2019-07-15_174621:480,-0.45706199999999997,-0.05438200000000001,-0.344177,-0.0029010000000000004,-0.042866,0.014503,-28.870001000000002,-12.75,-26.559998999999998,1b
2019-07-15_174621:500,-0.47943100000000005,-0.044739,-0.367584,-0.0064719999999999995,-0.037343,0.0073620000000000005,-29.25,-13.06,-26.559998999999998,1b
2019-07-15_174621:520,-0.462128,-0.031006,-0.35943600000000003,-0.009066,-0.023488,0.000984,-29.25,-13.06,-26.559998999999998,1b
2019-07-15_174621:540,-0.434174,-0.022858,-0.338074,-0.011568,-0.007619,-0.002892,-27.5,-12.75,-27.75,1b
2019-07-15_174621:560,-0.374695,-0.015747,-0.294373,-0.013094,0.00584,-0.0037159999999999997,-27.5,-12.75,-27.75,1b
2019-07-15_174621:580,-0.3396,-0.015747,-0.266388,-0.014284,0.013987999999999999,-0.006157,-27.5,-12.75,-27.75,1b
2019-07-15_174621:600,-0.29742399999999997,-0.006072999999999999,-0.226227,-0.014834,0.015513999999999998,-0.00869,-26.68,-13.06,-28.18,1b
2019-07-15_174621:620,-0.29284699999999997,0.005065999999999999,-0.21048000000000003,-0.01523,0.011729,-0.008140999999999999,-26.68,-13.06,-28.18,1b
2019-07-15_174621:640,-0.312653,0.010651,-0.204376,-0.015962999999999998,0.006236,-0.005822,-26.68,-13.0,-26.559998999999998,1b
2019-07-15_174621:660,-0.336548,0.014221000000000001,-0.208954,-0.016939,0.001598,-0.0013050000000000002,-26.68,-13.0,-26.559998999999998,1b
2019-07-15_174621:680,-0.375702,0.010651,-0.224701,-0.018007,-0.001302,0.004768,-26.68,-13.0,-26.559998999999998,1b
2019-07-15_174621:700,-0.389435,0.007599,-0.234375,-0.019472,-0.001118,0.010536,-26.68,-14.18,-27.0,1b
2019-07-15_174621:720,-0.398071,0.007111,-0.25216700000000003,-0.02167,0.00056,0.01493,-26.68,-14.18,-27.0,1b
2019-07-15_174621:740,-0.40570100000000003,0.002014,-0.252686,-0.025118,0.002513,0.021553,-26.0,-14.87,-26.559998999999998,1b
2019-07-15_174621:760,-0.423492,-0.006072999999999999,-0.28112800000000004,-0.028719,0.0019030000000000002,0.029060000000000002,-26.0,-14.87,-26.559998999999998,1b
2019-07-15_174621:780,-0.445374,-0.014221000000000001,-0.29232800000000003,-0.033205,-0.001118,0.032783,-26.0,-14.87,-26.559998999999998,1b
2019-07-15_174621:800,-0.45654300000000003,-0.022369,-0.312164,-0.036806,-0.0046890000000000005,0.033699,-25.559998999999998,-14.5,-27.75,1b
2019-07-15_174621:820,-0.44027700000000003,-0.025908999999999998,-0.320801,-0.039919,-0.0062759999999999995,0.034095,-25.559998999999998,-14.5,-27.75,1b
2019-07-15_174621:840,-0.462128,-0.024384,-0.34674099999999997,-0.042513,-0.006551,0.033516000000000004,-26.370001000000002,-14.5,-25.059998999999998,1b
2019-07-15_174621:860,-0.574005,-0.024902,-0.361969,-0.044497,-0.008412000000000001,0.032234,-26.370001000000002,-14.5,-25.059998999999998,1b
2019-07-15_174621:880,-0.489594,-0.011169,-0.379272,-0.047945,-0.015584,0.032905000000000004,-26.370001000000002,-14.5,-25.059998999999998,1b
2019-07-15_174621:900,-0.546539,-0.0035399999999999997,-0.353333,-0.051485,-0.006764,0.037757,-26.370001000000002,-15.68,-25.370001000000002,1b
2019-07-15_174621:920,-0.45196499999999995,0.008636,-0.352325,-0.050692,0.002849,0.037361,-26.370001000000002,-15.68,-25.370001000000002,1b
2019-07-15_174621:940,-0.389954,0.024384,-0.315216,-0.051088,0.014903,0.027656,-25.18,-16.0,-25.370001000000002,1b
2019-07-15_174621:960,-0.338593,0.053863999999999995,-0.311127,-0.048342,0.021769999999999998,0.023811000000000002,-25.18,-16.0,-25.370001000000002,1b
2019-07-15_174621:980,-0.284698,0.066589,-0.320801,-0.047609,0.016978,0.025123,-25.18,-16.0,-25.370001000000002,1b
2019-07-15_174622:000,-0.260284,0.069641,-0.339111,-0.048402999999999995,0.0036420000000000003,0.02613,-26.0,-16.0,-24.68,1b
2019-07-15_174622:020,-0.307068,0.06405599999999999,-0.363007,-0.049288,-0.012135,0.030188999999999997,-26.0,-16.0,-24.68,1b
2019-07-15_174622:040,-0.345215,0.048798,-0.394012,-0.051058,-0.023671,0.0373,-26.68,-17.5,-23.18,1b
2019-07-15_174622:060,-0.35436999999999996,0.036591000000000005,-0.40570100000000003,-0.052279,-0.030385000000000002,0.044197,-26.68,-17.5,-23.18,1b
2019-07-15_174622:080,-0.41384899999999997,0.017792,-0.41586300000000004,-0.053255,-0.029133999999999997,0.049354,-26.68,-17.5,-23.18,1b
2019-07-15_174622:100,-0.431641,0.007111,-0.405212,-0.052279,-0.01656,0.050361,-26.370001000000002,-16.559998999999998,-22.25,1b
2019-07-15_174622:120,-0.416901,0.000488,-0.360962,-0.05115,0.002177,0.048622000000000005,-26.370001000000002,-16.559998999999998,-22.25,1b
2019-07-15_174622:140,-0.370636,-0.0025329999999999997,-0.326385,-0.050356,0.020213,0.049568,-26.0,-17.059998999999998,-22.370001000000002,1b
2019-07-15_174622:160,-0.30654899999999996,-0.006072999999999999,-0.283173,-0.049685,0.030467,0.050361,-26.0,-17.059998999999998,-22.370001000000002,1b
2019-07-15_174622:180,-0.279114,-0.008636,-0.257233,-0.050265,0.03297,0.049232,-26.0,-17.059998999999998,-22.370001000000002,1b
2019-07-15_174622:200,-0.295898,-0.010162000000000001,-0.23486300000000002,-0.050753,0.031322,0.047493,-25.870001000000002,-17.0,-20.5,1b
2019-07-15_174622:220,-0.307587,-0.011169,-0.235382,-0.0506,0.029338,0.046912999999999996,-25.870001000000002,-17.0,-20.5,1b
2019-07-15_174622:240,-0.302002,-0.013213999999999998,-0.23486300000000002,-0.050477999999999995,0.027873000000000002,0.045233999999999996,-27.370001000000002,-17.0,-19.25,1b
2019-07-15_174622:260,-0.33197,-0.011169,-0.248596,-0.050692,0.024333,0.041877,-27.370001000000002,-17.0,-19.25,1b
2019-07-15_174622:280,-0.36554000000000003,-0.012177,-0.264862,-0.050203,0.022563,0.040748,-27.370001000000002,-17.0,-19.25,1b
2019-07-15_174622:300,-0.38385,-0.021332,-0.277069,-0.049135000000000005,0.024272,0.039283,-28.68,-17.370001000000002,-17.370001000000002,1b
2019-07-15_174622:320,-0.408752,-0.020844,-0.293335,-0.046969,0.022289,0.032631,-28.68,-17.370001000000002,-17.370001000000002,1b
2019-07-15_174622:340,-0.45553599999999994,-0.019318000000000002,-0.295898,-0.043703,0.019969,0.023597,-29.870001000000002,-16.559998999999998,-15.87,1b
2019-07-15_174622:360,-0.494171,-0.013213999999999998,-0.302002,-0.040072,0.019237,0.015387999999999999,-29.870001000000002,-16.559998999999998,-15.87,1b
2019-07-15_174622:380,-0.482483,-0.008118,-0.31369,-0.036806,0.022075,0.012916,-29.870001000000002,-16.559998999999998,-15.87,1b
2019-07-15_174622:400,-0.475861,-0.004547,-0.318268,-0.033022,0.024822,0.013252000000000002,-29.870001000000002,-16.559998999999998,-15.87,1b
2019-07-15_174622:420,-0.48043800000000003,0.0,-0.315704,-0.030092,0.027933999999999997,0.01139,-29.870001000000002,-16.559998999999998,-15.87,1b
2019-07-15_174622:440,-0.5633239999999999,-0.009125,-0.31723,-0.026919,0.031657,0.008612999999999999,-30.5,-16.559998999999998,-13.06,1b
2019-07-15_174622:460,-0.48706099999999997,-0.001007,-0.344696,-0.024386,0.026195,0.0053479999999999995,-30.5,-16.559998999999998,-13.06,1b
2019-07-15_174622:480,-0.5617979999999999,-0.008118,-0.24963400000000002,-0.022341,0.033244,0.005043,-30.5,-16.559998999999998,-13.06,1b
2019-07-15_174622:500,-0.455017,-0.006592,-0.267426,-0.02167,0.036479000000000004,0.007209,-30.870001000000002,-17.370001000000002,-10.87,1b
2019-07-15_174622:520,-0.385864,-0.027435,-0.222687,-0.020753999999999998,0.044597000000000005,0.019691,-30.870001000000002,-17.370001000000002,-10.87,1b
2019-07-15_174622:540,-0.380798,-0.038635,-0.230804,-0.022402000000000002,0.045573,0.026924,-31.370001000000002,-17.75,-12.06,1b
2019-07-15_174622:560,-0.341644,-0.057434000000000006,-0.226746,-0.024599,0.037883,0.035956999999999996,-31.370001000000002,-17.75,-12.06,1b
2019-07-15_174622:580,-0.311646,-0.072693,-0.248108,-0.026369,0.020975999999999998,0.037605,-31.370001000000002,-17.75,-12.06,1b
2019-07-15_174622:600,-0.32995599999999997,-0.075745,-0.255707,-0.027651,0.001964,0.033516000000000004,-32.0,-16.559998999999998,-9.25,1b
2019-07-15_174622:620,-0.401123,-0.07421900000000001,-0.28369099999999997,-0.028322000000000003,-0.01598,0.030463999999999998,-32.0,-16.559998999999998,-9.25,1b
2019-07-15_174622:640,-0.433167,-0.067108,-0.29232800000000003,-0.029085000000000003,-0.027058,0.021827000000000003,-33.060001,-16.559998999999998,-8.5,1b
2019-07-15_174622:660,-0.457581,-0.050842,-0.306061,-0.029421,-0.026448000000000003,0.017494,-33.060001,-16.559998999999998,-8.5,1b
2019-07-15_174622:680,-0.453003,-0.043213,-0.30654899999999996,-0.029695999999999997,-0.0201,0.010017,-33.060001,-16.559998999999998,-8.5,1b
2019-07-15_174622:700,-0.423004,-0.028961,-0.28775,-0.030152999999999996,-0.008534,0.004036,-31.25,-16.25,-9.37,1b
2019-07-15_174622:720,-0.402161,-0.021332,-0.262329,-0.030764,0.0071519999999999995,0.004615,-31.25,-16.25,-9.37,1b
2019-07-15_174622:740,-0.355896,-0.010162000000000001,-0.23233,-0.031161,0.01353,0.0053479999999999995,-33.5,-16.559998999999998,-9.75,1b
2019-07-15_174622:760,-0.323334,-0.0055850000000000006,-0.20843499999999998,-0.031679,0.014049,0.004615,-33.5,-16.559998999999998,-9.75,1b
2019-07-15_174622:780,-0.317749,-0.001007,-0.18811,-0.031557,0.010020000000000001,0.0043100000000000005,-33.5,-16.559998999999998,-9.75,1b
2019-07-15_174622:800,-0.318756,-0.0030210000000000002,-0.18454,-0.032076,0.004222,0.005409000000000001,-32.68,-17.75,-9.0,1b
2019-07-15_174622:820,-0.334534,-0.0055850000000000006,-0.184021,-0.0329,-0.001454,0.008612999999999999,-32.68,-17.75,-9.0,1b
2019-07-15_174622:840,-0.358917,-0.008118,-0.189636,-0.033358,-0.00594,0.011787,-33.0,-16.5,-7.37,1b
2019-07-15_174622:860,-0.37011700000000003,-0.012177,-0.201324,-0.033999,-0.007161,0.012977,-33.0,-16.5,-7.37,1b
2019-07-15_174622:880,-0.402161,-0.012695,-0.21402,-0.034395,-0.007344,0.013008,-33.0,-16.5,-7.37,1b
2019-07-15_174622:900,-0.435699,-0.011687999999999999,-0.22879000000000002,-0.035006,-0.005635,0.016638999999999998,-31.870001000000002,-17.0,-9.0,1b
2019-07-15_174622:920,-0.46670500000000004,-0.012177,-0.255707,-0.036257,-0.004811,0.022743,-31.870001000000002,-17.0,-9.0,1b
2019-07-15_174622:940,-0.500793,-0.017792,-0.275055,-0.038393000000000004,-0.003682,0.027412,-33.0,-16.870001000000002,-7.06,1b
2019-07-15_174622:960,-0.515015,-0.017792,-0.278595,-0.040865,-0.002187,0.032386,-33.0,-16.870001000000002,-7.06,1b
2019-07-15_174622:980,-0.505371,-0.023375999999999997,-0.28369099999999997,-0.043581,0.001292,0.040809,-33.0,-16.870001000000002,-7.06,1b
2019-07-15_174623:000,-0.49722299999999997,-0.026917,-0.290283,-0.046023,0.005229,0.043739,-33.75,-16.18,-6.0,1b
2019-07-15_174623:020,-0.508911,-0.015228,-0.304016,-0.04883,0.008067,0.041206,-33.75,-16.18,-6.0,1b
2019-07-15_174623:040,-0.624847,-0.013213999999999998,-0.318756,-0.052187,0.003764,0.042213,-34.060001,-14.75,-6.68,1b
2019-07-15_174623:060,-0.532806,-0.005065999999999999,-0.302002,-0.05789400000000001,0.005443,0.049964999999999996,-34.060001,-14.75,-6.68,1b
2019-07-15_174623:080,-0.5709529999999999,0.002014,-0.296906,-0.063204,0.01414,0.053291,-34.060001,-14.75,-6.68,1b
2019-07-15_174623:100,-0.432648,0.020844,-0.275543,-0.06927699999999999,0.023601,0.052497,-34.75,-14.37,-5.18,1b
2019-07-15_174623:120,-0.36654699999999996,0.027954000000000003,-0.242493,-0.073916,0.031169,0.042732,-34.75,-14.37,-5.18,1b
2019-07-15_174623:140,-0.364014,0.05438200000000001,-0.24096700000000001,-0.080294,0.028544999999999997,0.033027,-35.560001,-12.56,-3.56,1b
2019-07-15_174623:160,-0.338593,0.060486,-0.255707,-0.086123,0.017436,0.031593,-35.560001,-12.56,-3.56,1b
2019-07-15_174623:180,-0.316742,0.053375,-0.264374,-0.090182,0.002757,0.022468000000000002,-35.560001,-12.56,-3.56,1b
2019-07-15_174623:200,-0.389954,0.056915,-0.28927600000000003,-0.092043,-0.012013,0.01371,-34.75,-11.37,-1.68,1b
2019-07-15_174623:220,-0.406738,0.052338,-0.288269,-0.089907,-0.020222,0.021949,-34.75,-11.37,-1.68,1b
2019-07-15_174623:240,-0.42758199999999996,0.042694,-0.304016,-0.084871,-0.022359,0.030861000000000003,-36.25,-10.68,-1.18,1b
2019-07-15_174623:260,-0.420959,0.038635,-0.29284699999999997,-0.078615,-0.019215,0.035102,-36.25,-10.68,-1.18,1b
2019-07-15_174623:280,-0.409271,0.038116000000000004,-0.296387,-0.071322,-0.013996999999999999,0.042213,-36.25,-10.68,-1.18,1b
2019-07-15_174623:300,-0.386902,0.027954000000000003,-0.277069,-0.066286,-0.008076,0.046699,-36.68,-10.37,0.25,1b
2019-07-15_174623:320,-0.364532,0.027435,-0.261322,-0.06314299999999999,-0.002705,0.048957,-36.68,-10.37,0.25,1b
2019-07-15_174623:340,-0.340118,0.022369,-0.251648,-0.061220000000000004,0.000133,0.049049,-36.560001,-8.56,-1.18,1b
2019-07-15_174623:360,-0.323334,0.020325,-0.235382,-0.05996900000000001,0.001201,0.044929000000000004,-36.560001,-8.56,-1.18,1b
2019-07-15_174623:380,-0.318268,0.019806,-0.23791500000000002,-0.057985,0.000285,0.040138,-36.560001,-8.56,-1.18,1b
2019-07-15_174623:400,-0.32132,0.015747,-0.234375,-0.05591,-0.001179,0.036018,-37.060001,-6.0,-0.75,1b
2019-07-15_174623:420,-0.346222,0.014740000000000001,-0.25012199999999996,-0.052736,-0.002705,0.033699,-37.060001,-6.0,-0.75,1b
2019-07-15_174623:440,-0.347229,0.016266,-0.25827,-0.048433,-0.00298,0.032966,-37.060001,-5.68,-1.18,1b
2019-07-15_174623:460,-0.37674,0.015747,-0.268951,-0.0441,-0.002187,0.030861000000000003,-37.060001,-5.68,-1.18,1b
2019-07-15_174623:480,-0.410797,0.015228,-0.273529,-0.038942000000000004,0.0010789999999999999,0.029457,-37.060001,-5.68,-1.18,1b
2019-07-15_174623:500,-0.47995,0.014740000000000001,-0.280121,-0.033632,0.004222,0.027076,-37.5,-4.06,-0.5,1b
2019-07-15_174623:520,-0.455017,0.014221000000000001,-0.264862,-0.028322000000000003,0.009349,0.022163,-37.5,-4.06,-0.5,1b
2019-07-15_174623:540,-0.48654200000000003,0.015747,-0.28064,-0.024203,0.011455,0.017189,-38.18,-1.87,0.06,1b
2019-07-15_174623:560,-0.44638100000000003,0.009125,-0.272491,-0.021212,0.010997,0.017646000000000002,-38.18,-1.87,0.06,1b
2019-07-15_174623:580,-0.434174,-0.004547,-0.28775,-0.018618,0.007304000000000001,0.018562000000000002,-38.18,-1.87,0.06,1b
2019-07-15_174623:600,-0.501282,-0.015228,-0.291321,-0.017306000000000002,0.0009570000000000001,0.013800999999999999,-36.68,-1.56,0.37,1b
2019-07-15_174623:620,-0.522125,-0.007111,-0.390961,-0.016298,-0.014455,0.012458,-36.68,-1.56,0.37,1b
2019-07-15_174623:640,-0.5267029999999999,-0.032013,-0.298431,-0.01404,-0.017049,0.006751999999999999,-37.5,-0.87,-0.37,1b
2019-07-15_174623:660,-0.49926800000000005,-0.021332,-0.32995599999999997,-0.014437,-0.010152,0.0065379999999999995,-37.5,-0.87,-0.37,1b
2019-07-15_174623:680,-0.425537,-0.053863999999999995,-0.269958,-0.013827,0.005412,0.015663,-37.5,-0.87,-0.37,1b
2019-07-15_174623:700,-0.433655,-0.05285599999999999,-0.276581,-0.014712000000000001,0.017711,0.016182,-37.18,-0.87,-0.25,1b
2019-07-15_174623:720,-0.3396,-0.059479,-0.28979499999999997,-0.015444,0.018290999999999998,0.018623,-37.18,-0.87,-0.25,1b
2019-07-15_174623:740,-0.282166,-0.065063,-0.303528,-0.015566,0.005351,0.017097,-37.18,-0.5,-0.25,1b
2019-07-15_174623:760,-0.348267,-0.05996699999999999,-0.313171,-0.016878,-0.012135,0.010657999999999999,-37.18,-0.5,-0.25,1b
2019-07-15_174623:780,-0.414337,-0.056915,-0.314697,-0.017946,-0.021291,0.008461,-37.18,-0.5,-0.25,1b
2019-07-15_174623:800,-0.434692,-0.049805,-0.315704,-0.018496000000000002,-0.019612,0.008612999999999999,-37.18,0.18,-1.5,1b
2019-07-15_174623:820,-0.416901,-0.040161,-0.317749,-0.019076,-0.013050999999999998,0.005836,-37.18,0.18,-1.5,1b
2019-07-15_174623:840,-0.381317,-0.023375999999999997,-0.29943800000000004,-0.019228,-0.0071,0.003242,-36.75,0.68,-1.0,1b
2019-07-15_174623:860,-0.365021,-0.013702,-0.28369099999999997,-0.019869,-0.001912,0.002754,-36.75,0.68,-1.0,1b
2019-07-15_174623:880,-0.344177,-0.005065999999999999,-0.256226,-0.020266,0.002116,0.00196,-36.75,0.68,-1.0,1b
2019-07-15_174623:900,-0.325378,0.001495,-0.245544,-0.021334,0.0045579999999999996,7.000000000000001e-06,-37.560001,1.06,-1.75,1b
2019-07-15_174623:920,-0.305542,0.011169,-0.23284899999999997,-0.022005,0.003368,-0.00045099999999999996,-37.560001,1.06,-1.75,1b
2019-07-15_174623:940,-0.33758499999999997,0.015228,-0.235382,-0.022921,0.000346,0.000404,-36.75,1.06,-1.75,1b
2019-07-15_174623:960,-0.36248800000000003,0.014740000000000001,-0.23895300000000003,-0.024782,0.0012619999999999999,0.002571,-36.75,1.06,-1.75,1b
2019-07-15_174623:980,-0.373688,0.010162000000000001,-0.244019,-0.025973000000000003,0.0042829999999999995,0.006874,-36.75,1.06,-1.75,1b
2019-07-15_174624:000,-0.425537,0.002014,-0.263336,-0.027315,0.007091,0.009864,-35.68,1.06,-1.5,1b
2019-07-15_174624:020,-0.43823199999999995,-0.001495,-0.272003,-0.028231,0.012279,0.011940000000000001,-35.68,1.06,-1.5,1b
2019-07-15_174624:040,-0.469757,-0.006592,-0.285706,-0.029238,0.019908000000000002,0.013404,-36.75,2.06,-1.75,1b
2019-07-15_174624:060,-0.445374,-0.0055850000000000006,-0.29180900000000004,-0.030244999999999998,0.02766,0.0149,-36.75,2.06,-1.75,1b
2019-07-15_174624:080,-0.45806899999999995,-0.011687999999999999,-0.278107,-0.031679,0.032175999999999996,0.017494,-36.75,2.06,-1.75,1b
2019-07-15_174624:100,-0.463654,-0.012695,-0.273529,-0.033236,0.032512,0.019081,-36.18,1.75,-1.5,1b
2019-07-15_174624:120,-0.47079499999999996,-0.012695,-0.27301,-0.035006,0.028056,0.021491999999999997,-36.18,1.75,-1.5,1b
2019-07-15_174624:140,-0.472321,-0.011169,-0.267914,-0.036806,0.024028,0.025154,-36.869999,2.87,-1.0,1b
2019-07-15_174624:160,-0.46316499999999994,-0.012695,-0.278595,-0.038607,0.023082,0.028327999999999996,-36.869999,2.87,-1.0,1b
2019-07-15_174624:180,-0.563812,-0.015228,-0.28927600000000003,-0.040376999999999996,0.019634,0.029792000000000003,-36.869999,2.87,-1.0,1b
2019-07-15_174624:200,-0.434174,0.001495,-0.330963,-0.043123,0.005016,0.034767,-35.75,3.56,0.56,1b
2019-07-15_174624:220,-0.516541,-0.004059,-0.277069,-0.045901,0.005779,0.039283,-35.75,3.56,0.56,1b
2019-07-15_174624:240,-0.49975600000000003,0.007111,-0.316223,-0.044314,0.010753,0.030463999999999998,-36.18,4.75,-0.18,1b
2019-07-15_174624:260,-0.406738,0.019806,-0.268951,-0.043825,0.021159,0.022499,-36.18,4.75,-0.18,1b
2019-07-15_174624:280,-0.367584,0.028961,-0.276581,-0.040041,0.022502,0.021613999999999998,-36.18,4.75,-0.18,1b
2019-07-15_174624:300,-0.29742399999999997,0.034546,-0.272491,-0.039126,0.013316,0.020087999999999998,-36.369999,6.0,-0.5,1b
2019-07-15_174624:320,-0.308075,0.021851,-0.28674299999999997,-0.037995999999999995,-0.005543,0.018501,-36.369999,6.0,-0.5,1b
2019-07-15_174624:340,-0.359955,0.016753999999999998,-0.303528,-0.034151,-0.023549,0.018684,-36.060001,6.0,-0.18,1b
2019-07-15_174624:360,-0.41842700000000005,0.012177,-0.317749,-0.030306,-0.03362,0.018379,-36.060001,6.0,-0.18,1b
2019-07-15_174624:380,-0.406738,0.011687999999999999,-0.32843,-0.026369,-0.035298,0.019905000000000003,-36.060001,6.0,-0.18,1b
2019-07-15_174624:400,-0.407227,-0.0030210000000000002,-0.318268,-0.022524000000000002,-0.032124,0.022499,-35.68,6.68,-2.5,1b
2019-07-15_174624:420,-0.408752,-0.006592,-0.297913,-0.019594,-0.023396,0.02256,-35.68,6.68,-2.5,1b
2019-07-15_174624:440,-0.396057,-0.009644,-0.264862,-0.017092,-0.011006,0.02375,-35.25,7.56,-2.06,1b
2019-07-15_174624:460,-0.368073,-0.011169,-0.242004,-0.015352000000000001,0.002239,0.024665,-35.25,7.56,-2.06,1b
2019-07-15_174624:480,-0.325897,-0.009644,-0.220642,-0.01523,0.011089,0.02433,-35.25,7.56,-2.06,1b
2019-07-15_174624:500,-0.318756,-0.011687999999999999,-0.21402,-0.015841,0.015116999999999998,0.023994,-34.560001,8.68,-4.87,1b
2019-07-15_174624:520,-0.306061,-0.016753999999999998,-0.200317,-0.017763,0.014719999999999999,0.022407,-34.560001,8.68,-4.87,1b
2019-07-15_174624:540,-0.312653,-0.019318000000000002,-0.197266,-0.019137,0.013133,0.019905000000000003,-35.25,9.75,-4.5,1b
2019-07-15_174624:560,-0.37112399999999995,-0.028961,-0.199799,-0.020205,0.011852,0.015724000000000002,-35.25,9.75,-4.5,1b
2019-07-15_174624:580,-0.36706500000000003,-0.030487,-0.21148699999999998,-0.020144,0.012462,0.011848000000000001,-35.25,9.75,-4.5,1b
2019-07-15_174624:600,-0.408752,-0.034058,-0.22521999999999998,-0.018953,0.011881999999999998,0.010536,-35.68,9.87,-3.56,1b
2019-07-15_174624:620,-0.427063,-0.034546,-0.23895300000000003,-0.017306000000000002,0.010814,0.009285,-35.68,9.87,-3.56,1b
2019-07-15_174624:640,-0.46926899999999994,-0.028961,-0.2659,-0.015749000000000003,0.010326,0.009406999999999999,-34.560001,9.87,-3.56,1b
2019-07-15_174624:660,-0.47995,-0.029968,-0.270966,-0.013247,0.011271999999999999,0.009956,-34.560001,9.87,-3.56,1b
2019-07-15_174624:680,-0.49975600000000003,-0.029480000000000003,-0.29895,-0.01111,0.010265,0.005684000000000001,-34.560001,9.87,-3.56,1b
2019-07-15_174624:700,-0.469757,-0.028961,-0.307068,-0.008394,0.007213,-0.000664,-34.560001,11.0,-3.56,1b
2019-07-15_174624:720,-0.490112,-0.026427999999999997,-0.321808,-0.006594,0.002055,-0.004296,-34.560001,11.0,-3.56,1b
2019-07-15_174624:740,-0.670074,-0.024384,-0.378754,-0.005861,-0.009602,-0.0013050000000000002,-35.68,11.0,-4.0,1b
2019-07-15_174624:760,-0.546539,-0.036072,-0.363007,-0.004946,-0.010792,0.004036,-35.68,11.0,-4.0,1b
2019-07-15_174624:780,-0.564331,-0.034058,-0.370636,-0.005221,0.0010789999999999999,0.0021739999999999997,-35.68,11.0,-4.0,1b
2019-07-15_174624:800,-0.501282,-0.040161,-0.32486,-0.007479,0.015269999999999999,0.008551999999999999,-36.060001,11.37,-5.18,1b
2019-07-15_174624:820,-0.377747,-0.064545,-0.30300900000000003,-0.009981,0.024364,0.014137,-36.060001,11.37,-5.18,1b
2019-07-15_174624:840,-0.34063699999999997,-0.083374,-0.272491,-0.013368999999999999,0.024944,0.014044999999999998,-35.68,11.75,-4.75,1b
2019-07-15_174624:860,-0.312653,-0.101685,-0.27301,-0.014894999999999999,0.017436,0.012397,-35.68,11.75,-4.75,1b
2019-07-15_174624:880,-0.28674299999999997,-0.111328,-0.279114,-0.015352000000000001,0.004771,0.01081,-35.68,11.75,-4.75,1b
2019-07-15_174624:900,-0.330963,-0.11538699999999999,-0.293335,-0.014773,-0.009022,0.0061719999999999995,-34.869999,12.06,-2.75,1b
2019-07-15_174624:920,-0.382324,-0.105743,-0.306061,-0.013765000000000001,-0.018086,0.002113,-34.869999,12.06,-2.75,1b
2019-07-15_174624:940,-0.414337,-0.08843999999999999,-0.312653,-0.012118,-0.019826,-0.000664,-35.68,12.5,-4.37,1b
2019-07-15_174624:960,-0.417389,-0.074738,-0.319794,-0.010865999999999999,-0.015125999999999999,-0.005974,-35.68,12.5,-4.37,1b
2019-07-15_174624:980,-0.404175,-0.060486,-0.304535,-0.009737,-0.007222,-0.010674,-35.68,12.5,-4.37,1b
2019-07-15_174625:000,-0.385864,-0.051330999999999995,-0.28775,-0.008669,0.0019030000000000002,-0.011589,-35.68,12.06,-5.18,1b
2019-07-15_174625:020,-0.355896,-0.039124,-0.25521900000000003,-0.007998,0.009685,-0.011528,-35.68,12.06,-5.18,1b
2019-07-15_174625:040,-0.337067,-0.034058,-0.235382,-0.00812,0.012737,-0.011467,-36.060001,11.37,-6.75,1b
2019-07-15_174625:060,-0.311646,-0.027435,-0.20639000000000002,-0.008608,0.018169,-0.010948999999999999,-36.060001,11.37,-6.75,1b
2019-07-15_174625:080,-0.300964,-0.024902,-0.194702,-0.008851999999999999,0.018169,-0.010459999999999999,-36.060001,11.37,-6.75,1b
2019-07-15_174625:100,-0.305054,-0.023375999999999997,-0.195221,-0.009524,0.015513999999999998,-0.010064,-36.75,11.37,-5.18,1b
2019-07-15_174625:120,-0.338074,-0.027954000000000003,-0.195221,-0.009737,0.013377000000000002,-0.007683,-36.75,11.37,-5.18,1b
2019-07-15_174625:140,-0.377228,-0.031006,-0.197266,-0.010134,0.011455,-0.005303,-37.18,11.0,-5.87,1b
2019-07-15_174625:160,-0.387909,-0.029968,-0.19622799999999999,-0.010103000000000001,0.012798,-0.002373,-37.18,11.0,-5.87,1b
2019-07-15_174625:180,-0.43670699999999996,-0.029480000000000003,-0.23284899999999997,-0.010439,0.013316,-0.000786,-37.18,11.0,-5.87,1b
2019-07-15_174625:200,-0.43927,-0.029480000000000003,-0.245056,-0.010378,0.010997,0.000831,-37.869999,10.25,-5.18,1b
2019-07-15_174625:220,-0.454529,-0.032013,-0.260284,-0.010927,0.004771,0.003151,-37.869999,10.25,-5.18,1b
2019-07-15_174625:240,-0.5058590000000001,-0.034058,-0.287231,-0.012057,-0.001118,0.005836,-36.369999,11.0,-5.56,1b
2019-07-15_174625:260,-0.519592,-0.036072,-0.28674299999999997,-0.01285,1.1e-05,0.007667,-36.369999,11.0,-5.56,1b
2019-07-15_174625:280,-0.554688,-0.040161,-0.305054,-0.013368999999999999,0.005565,0.007026,-36.369999,11.0,-5.56,1b
2019-07-15_174625:300,-0.743805,-0.048279,-0.322327,-0.013827,0.006541,0.006965000000000001,-37.18,11.0,-6.37,1b
2019-07-15_174625:320,-0.575531,-0.034058,-0.320801,-0.016359000000000002,0.008678,0.018775999999999998,-37.18,11.0,-6.37,1b
2019-07-15_174625:340,-0.566864,-0.034546,-0.282166,-0.016878,0.015238999999999999,0.018104,-37.560001,12.18,-6.37,1b
2019-07-15_174625:360,-0.47943100000000005,-0.0025329999999999997,-0.28674299999999997,-0.017092,0.026927,0.000648,-37.560001,12.18,-6.37,1b
2019-07-15_174625:380,-0.36706500000000003,0.006072999999999999,-0.21606399999999998,-0.016024,0.032633999999999996,-0.003655,-37.560001,12.18,-6.37,1b
2019-07-15_174625:400,-0.37265,0.024384,-0.226746,-0.014956,0.029186,-0.00396,-37.869999,11.87,-5.87,1b
2019-07-15_174625:420,-0.353851,0.031494,-0.226746,-0.015352000000000001,0.00883,-0.001183,-37.869999,11.87,-5.87,1b
2019-07-15_174625:440,-0.36706500000000003,0.027954000000000003,-0.24453699999999998,-0.015108000000000002,0.000682,-0.001183,-38.25,12.18,-5.18,1b
2019-07-15_174625:460,-0.410278,0.025421,-0.261322,-0.013581999999999999,-0.014972999999999998,-0.0010609999999999999,-38.25,12.18,-5.18,1b
2019-07-15_174625:480,-0.426544,0.021851,-0.273529,-0.012453,-0.018574,0.0007700000000000001,-38.25,12.18,-5.18,1b
2019-07-15_174625:500,-0.411804,0.017273,-0.278107,-0.011904000000000001,-0.019093000000000002,0.001991,-37.5,12.18,-5.87,1b
2019-07-15_174625:520,-0.393005,0.007111,-0.283173,-0.009646,-0.017567,0.002784,-37.5,12.18,-5.87,1b
2019-07-15_174625:540,-0.377747,0.0035399999999999997,-0.276581,-0.008974,-0.015431,0.0018989999999999999,-39.0,10.68,-6.68,1b
2019-07-15_174625:560,-0.364532,-0.0035399999999999997,-0.254211,-0.007448000000000001,-0.0071,0.002113,-39.0,10.68,-6.68,1b
2019-07-15_174625:580,-0.345215,-0.0055850000000000006,-0.23486300000000002,-0.007479,-0.001759,0.004951,-39.0,10.68,-6.68,1b
2019-07-15_174625:600,-0.318268,-0.012695,-0.21249400000000002,-0.007448000000000001,0.0017809999999999998,0.007301,-39.0,11.06,-7.37,1b
2019-07-15_174625:620,-0.29895,-0.015228,-0.19775399999999999,-0.007448000000000001,0.002849,0.007759,-39.0,11.06,-7.37,1b
2019-07-15_174625:640,-0.277588,-0.020325,-0.183533,-0.007143000000000001,0.0009570000000000001,0.009009999999999999,-39.0,11.5,-7.75,1b
2019-07-15_174625:660,-0.28112800000000004,-0.023375999999999997,-0.183014,-0.007081999999999999,-0.003163,0.010475,-39.0,11.5,-7.75,1b
2019-07-15_174625:680,-0.283173,-0.024902,-0.187592,-0.007051999999999999,-0.008137,0.009071,-39.0,11.5,-7.75,1b
2019-07-15_174625:700,-0.332489,-0.023895,-0.19165,-0.007051999999999999,-0.010884,0.007484,-39.25,12.56,-7.37,1b
2019-07-15_174625:720,-0.404694,-0.023895,-0.216583,-0.006075,-0.013905,0.004707,-39.25,12.56,-7.37,1b
2019-07-15_174625:740,-0.45095799999999997,-0.026917,-0.226227,-0.0058,-0.012379000000000001,0.0037,-39.68,12.56,-7.37,1b
2019-07-15_174625:760,-0.496704,-0.024384,-0.264862,-0.004946,-0.006612000000000001,0.002845,-39.68,12.56,-7.37,1b
2019-07-15_174625:780,-0.518066,-0.025908999999999998,-0.269958,-0.00339,-0.0040479999999999995,0.001503,-39.68,12.56,-7.37,1b
2019-07-15_174625:800,-0.506378,-0.024384,-0.30300900000000003,-0.002535,-0.004445,7.000000000000001e-06,-38.18,12.56,-8.56,1b
2019-07-15_174625:820,-0.476379,-0.027954000000000003,-0.316223,0.001005,-0.009541,-0.004845,-38.18,12.56,-8.56,1b
2019-07-15_174625:840,-0.515533,-0.036072,-0.348267,0.0027140000000000003,-0.012256999999999999,-0.006706999999999999,-38.18,12.56,-8.56,1b
2019-07-15_174625:860,-0.586182,-0.043701,-0.355377,0.008421,-0.009419,-0.015191,-39.0,12.56,-8.18,1b
2019-07-15_174625:880,-0.640594,-0.039642000000000004,-0.411804,0.014463,-0.005025,-0.021508000000000003,-39.0,12.56,-8.18,1b
2019-07-15_174625:900,-0.538391,-0.048798,-0.30249000000000004,0.016325,-0.0005690000000000001,-0.02462,-39.68,12.18,-9.75,1b
2019-07-15_174625:920,-0.48300200000000004,-0.034546,-0.307068,0.018583000000000002,0.013255000000000001,-0.022484,-39.68,12.18,-9.75,1b
2019-07-15_174625:940,-0.384857,-0.040161,-0.272491,0.019041,0.017375,-0.0187,-39.25,11.87,-9.37,1b
2019-07-15_174625:960,-0.36349499999999996,-0.047791,-0.240479,0.020567,0.008281,-0.007744,-39.25,11.87,-9.37,1b
2019-07-15_174625:980,-0.319275,-0.05996699999999999,-0.25521900000000003,0.021391,-0.0046890000000000005,-0.00457,-39.25,11.87,-9.37,1b
2019-07-15_174626:000,-0.333496,-0.064545,-0.276581,0.021391,-0.011739,-0.005364,-40.0,10.37,-9.37,1b
2019-07-15_174626:020,-0.391479,-0.055908000000000006,-0.308594,0.020262,-0.025594,-0.006554000000000001,-40.0,10.37,-9.37,1b
2019-07-15_174626:040,-0.40570100000000003,-0.048798,-0.319275,0.019438,-0.027058,-0.005089,-40.0,10.37,-9.37,1b
2019-07-15_174626:060,-0.392487,-0.040161,-0.310638,0.016874,-0.025745999999999998,-0.007164,-40.0,11.06,-8.56,1b
2019-07-15_174626:080,-0.36554000000000003,-0.029968,-0.311646,0.014738,-0.023,-0.012931999999999999,-40.0,11.06,-8.56,1b
2019-07-15_174626:100,-0.33605999999999997,-0.015228,-0.29995700000000003,0.014128,-0.021474,-0.014641,-39.0,10.37,-9.75,1b
2019-07-15_174626:120,-0.335022,-0.010162000000000001,-0.284698,0.011473,-0.015431,-0.016777,-39.0,10.37,-9.75,1b
2019-07-15_174626:140,-0.326904,-0.006072999999999999,-0.263855,0.010374,-0.012868000000000001,-0.016715999999999998,-40.369999,10.0,-11.0,1b
2019-07-15_174626:160,-0.320282,-0.0055850000000000006,-0.250641,0.008177,-0.006154,-0.015191,-40.369999,10.0,-11.0,1b
2019-07-15_174626:180,-0.28418000000000004,-0.005065999999999999,-0.237427,0.006986,-0.005696,-0.015252000000000002,-40.369999,10.0,-11.0,1b
2019-07-15_174626:200,-0.285217,-0.006072999999999999,-0.242004,0.006895,-0.007405,-0.015128999999999998,-41.18,10.37,-11.0,1b
2019-07-15_174626:220,-0.33300799999999997,-0.008118,-0.245544,0.00659,-0.008199,-0.013207,-41.18,10.37,-11.0,1b
2019-07-15_174626:240,-0.35180700000000004,-0.009125,-0.245544,0.006101,-0.007161,-0.009362,-40.369999,10.0,-11.0,1b
2019-07-15_174626:260,-0.381805,-0.011687999999999999,-0.257751,0.005918,-0.005025,-0.005181,-40.369999,10.0,-11.0,1b
2019-07-15_174626:280,-0.40063499999999996,-0.009644,-0.268433,0.004728,-0.000661,-0.002434,-40.369999,10.0,-11.0,1b
2019-07-15_174626:300,-0.433167,-0.007111,-0.305542,0.00366,0.000468,-0.0010609999999999999,-40.75,9.56,-12.87,1b
2019-07-15_174626:320,-0.46823100000000006,-0.0055850000000000006,-0.31723,-0.001131,0.001842,0.004646,-40.75,9.56,-12.87,1b
2019-07-15_174626:340,-0.503845,-0.007111,-0.338074,-0.003176,0.001598,0.007026,-40.75,9.56,-12.87,1b
2019-07-15_174626:360,-0.49722299999999997,-0.007111,-0.341644,-0.009981,0.001994,0.012611,-41.18,9.56,-11.75,1b
2019-07-15_174626:380,-0.49468999999999996,-0.000488,-0.360962,-0.012301000000000001,0.002513,0.013527,-41.18,9.56,-11.75,1b
2019-07-15_174626:400,-0.5048520000000001,0.0030210000000000002,-0.37265,-0.017031,0.005779,0.014778,-40.369999,10.0,-12.18,1b
2019-07-15_174626:420,-0.634003,0.001495,-0.379791,-0.021273,0.008952,0.015327,-40.369999,10.0,-12.18,1b
2019-07-15_174626:440,-0.540955,0.012177,-0.42453,-0.025057,0.007488,0.019111000000000003,-40.369999,10.0,-12.18,1b
2019-07-15_174626:460,-0.484009,0.010651,-0.374695,-0.028505000000000003,0.019694999999999997,0.02314,-40.75,9.56,-12.87,1b
2019-07-15_174626:480,-0.40316799999999997,0.013213999999999998,-0.36044299999999996,-0.026247000000000003,0.040019,0.015174000000000002,-40.75,9.56,-12.87,1b
2019-07-15_174626:500,-0.334015,0.018799,-0.323334,-0.023989,0.040355,0.009864,-40.0,10.37,-11.18,1b
2019-07-15_174626:520,-0.32843,0.034058,-0.35791,-0.01816,0.023296,0.005226,-40.0,10.37,-11.18,1b
2019-07-15_174626:540,-0.319794,0.029968,-0.334534,-0.016543000000000002,0.015392,0.0061719999999999995,-40.0,10.37,-11.18,1b
2019-07-15_174626:560,-0.347748,0.027954000000000003,-0.34063699999999997,-0.013704,-0.001515,0.00727,-41.5,10.0,-10.5,1b
2019-07-15_174626:580,-0.395538,0.028961,-0.344177,-0.013247,-0.00536,0.009529000000000001,-41.5,10.0,-10.5,1b
2019-07-15_174626:600,-0.386383,0.023375999999999997,-0.334015,-0.013308,-0.009084,0.016638999999999998,-41.18,10.68,-11.0,1b
2019-07-15_174626:620,-0.378754,0.012177,-0.32486,-0.014559,-0.008015000000000001,0.02314,-41.18,10.68,-11.0,1b
2019-07-15_174626:640,-0.37316900000000003,0.001495,-0.309601,-0.014834,-0.00237,0.026588,-41.18,10.68,-11.0,1b
2019-07-15_174626:660,-0.360962,-0.008118,-0.282166,-0.015290999999999999,0.005686999999999999,0.026069,-40.0,10.68,-11.75,1b
2019-07-15_174626:680,-0.346222,-0.013702,-0.256744,-0.016146,0.018779,0.02375,-40.0,10.68,-11.75,1b
2019-07-15_174626:700,-0.304535,-0.019318000000000002,-0.220642,-0.016634,0.022105,0.023201,-41.18,11.06,-12.37,1b
2019-07-15_174626:720,-0.273529,-0.021851,-0.198273,-0.017824,0.024883000000000002,0.021675,-41.18,11.06,-12.37,1b
2019-07-15_174626:740,-0.24658200000000002,-0.024902,-0.17996199999999998,-0.019015,0.02235,0.020485,-41.18,11.06,-12.37,1b
2019-07-15_174626:760,-0.25521900000000003,-0.028442000000000002,-0.183014,-0.020144,0.01414,0.019172,-41.5,12.18,-12.06,1b
2019-07-15_174626:780,-0.290283,-0.031494,-0.196747,-0.020327,0.006084,0.017768,-41.5,12.18,-12.06,1b
2019-07-15_174626:800,-0.328949,-0.035583,-0.201324,-0.020205,0.0012619999999999999,0.015266,-41.18,12.18,-12.06,1b
2019-07-15_174626:820,-0.396545,-0.039124,-0.222687,-0.019228,0.000621,0.011604000000000001,-41.18,12.18,-12.06,1b
2019-07-15_174626:840,-0.43670699999999996,-0.036072,-0.24453699999999998,-0.017702000000000002,0.001964,0.008674,-41.18,12.18,-12.06,1b
2019-07-15_174626:860,-0.49365200000000004,-0.034058,-0.290283,-0.014773,0.0031850000000000003,0.004951,-40.369999,12.56,-11.18,1b
2019-07-15_174626:880,-0.5272220000000001,-0.031494,-0.304535,-0.011720999999999999,0.006084,-0.001641,-40.369999,12.56,-11.18,1b
2019-07-15_174626:900,-0.509918,-0.021851,-0.326904,-0.009401000000000001,0.009013,-0.0064930000000000005,-40.25,12.18,-11.18,1b
2019-07-15_174626:920,-0.49111899999999997,-0.021851,-0.330963,-0.007784,0.011394,-0.006371,-40.25,12.18,-11.18,1b
2019-07-15_174626:940,-0.477905,-0.028961,-0.34674099999999997,-0.0064719999999999995,0.013072,-0.006371,-40.25,12.18,-11.18,1b
2019-07-15_174626:960,-0.546539,-0.034058,-0.35131799999999996,-0.005404,0.014446,-0.00927,-41.060001,12.18,-11.0,1b
2019-07-15_174626:980,-0.685333,-0.025908999999999998,-0.412811,-0.0037560000000000002,0.010997,-0.012535,-41.060001,12.18,-11.0,1b
2019-07-15_174627:000,-0.526215,-0.043701,-0.293335,-0.0015279999999999998,0.028789,-0.014855000000000002,-41.060001,11.5,-11.25,1b
2019-07-15_174627:020,-0.48858599999999996,-0.028961,-0.301483,-0.000582,0.043407,-0.013787,-41.060001,11.5,-11.25,1b
2019-07-15_174627:040,-0.374176,-0.044739,-0.259277,0.001188,0.050578,-0.008202,-41.060001,11.5,-11.25,1b
2019-07-15_174627:060,-0.390961,-0.043701,-0.223694,0.000944,0.041881,-0.009087,-41.060001,10.37,-10.18,1b
2019-07-15_174627:080,-0.37316900000000003,-0.041168,-0.23486300000000002,-0.001772,0.025889999999999996,-0.000328,-41.060001,10.37,-10.18,1b
2019-07-15_174627:100,-0.37112399999999995,-0.057953,-0.230804,-0.005556,0.008403,0.010261,-42.18,10.0,-8.18,1b
2019-07-15_174627:120,-0.42758199999999996,-0.06253099999999999,-0.251648,-0.010775,-0.006886,0.012123,-42.18,10.0,-8.18,1b
2019-07-15_174627:140,-0.414337,-0.063538,-0.2547,-0.015016999999999999,-0.015462,0.012184,-42.18,10.0,-8.18,1b
2019-07-15_174627:160,-0.423004,-0.063538,-0.268951,-0.017946,-0.019154,0.009529000000000001,-42.869999,9.18,-8.56,1b
2019-07-15_174627:180,-0.401123,-0.055908000000000006,-0.272003,-0.019472,-0.016835,0.001625,-42.869999,9.18,-8.56,1b
2019-07-15_174627:200,-0.385376,-0.051330999999999995,-0.2659,-0.019288999999999997,-0.010457,-0.008202,-42.560001,11.06,-9.0,1b
2019-07-15_174627:220,-0.36706500000000003,-0.040161,-0.242493,-0.017672,-0.002705,-0.014183000000000001,-42.560001,11.06,-9.0,1b
2019-07-15_174627:240,-0.342163,-0.036591000000000005,-0.22164899999999998,-0.015016999999999999,0.005504,-0.017327000000000002,-42.560001,11.06,-9.0,1b
2019-07-15_174627:260,-0.29943800000000004,-0.025908999999999998,-0.185059,-0.011323999999999999,0.009929,-0.01931,-42.560001,8.87,-9.0,1b
2019-07-15_174627:280,-0.287231,-0.015747,-0.175903,-0.007540000000000001,0.009929,-0.019036,-42.560001,8.87,-9.0,1b
2019-07-15_174627:300,-0.270477,-0.008636,-0.159637,-0.004,0.006236,-0.018364,-42.560001,8.06,-10.18,1b
2019-07-15_174627:320,-0.266907,-0.005065999999999999,-0.159637,-0.001467,-0.001393,-0.016503,-42.560001,8.06,-10.18,1b
2019-07-15_174627:340,-0.333496,-0.0035399999999999997,-0.17538499999999999,0.000669,-0.011067,-0.010948999999999999,-42.560001,8.06,-10.18,1b
2019-07-15_174627:360,-0.370636,-0.0035399999999999997,-0.190125,0.0019210000000000002,-0.016652,-0.005944,-43.68,7.0,-9.75,1b
2019-07-15_174627:380,-0.416901,-0.004059,-0.208954,0.00186,-0.017506,-0.003563,-43.68,7.0,-9.75,1b
2019-07-15_174627:400,-0.446899,-0.004059,-0.238434,0.001188,-0.018574,-0.001366,-44.060001,6.25,-10.25,1b
2019-07-15_174627:420,-0.49365200000000004,-0.008118,-0.266907,-0.000338,-0.018819,0.00132,-44.060001,6.25,-10.25,1b
2019-07-15_174627:440,-0.5348510000000001,-0.010162000000000001,-0.294373,-0.002382,-0.018025,0.004371,-44.060001,6.25,-10.25,1b
2019-07-15_174627:460,-0.55011,-0.013213999999999998,-0.332489,-0.005068,-0.015125999999999999,0.008735,-42.869999,6.37,-11.87,1b
2019-07-15_174627:480,-0.538391,-0.015228,-0.34368899999999997,-0.007265000000000001,-0.010121,0.012855000000000002,-42.869999,6.37,-11.87,1b
2019-07-15_174627:500,-0.583649,-0.021851,-0.365021,-0.008791,-0.0039570000000000004,0.012672,-43.75,6.37,-11.87,1b
2019-07-15_174627:520,-0.6812739999999999,-0.001495,-0.41586300000000004,-0.009859,-0.0033159999999999995,0.008278,-43.75,6.37,-11.87,1b
2019-07-15_174627:540,-0.569427,-0.0055850000000000006,-0.324371,-0.011965,0.002971,0.010536,-43.75,6.37,-11.87,1b
2019-07-15_174627:560,-0.48654200000000003,0.004059,-0.318268,-0.012118,0.015849000000000002,0.009956,-44.18,6.0,-12.56,1b
2019-07-15_174627:580,-0.36044299999999996,0.011687999999999999,-0.273529,-0.011965,0.027263,0.00428,-44.18,6.0,-12.56,1b
2019-07-15_174627:600,-0.33197,0.024902,-0.227753,-0.010195000000000001,0.0312,-0.00158,-43.369999,6.37,-11.87,1b
2019-07-15_174627:620,-0.326385,0.033539,-0.2659,-0.008669,0.019359,-0.0019149999999999998,-43.369999,6.37,-11.87,1b
2019-07-15_174627:640,-0.312653,0.031494,-0.270477,-0.009127,0.0036420000000000003,0.00028199999999999997,-43.369999,6.37,-11.87,1b
2019-07-15_174627:660,-0.349792,0.027954000000000003,-0.282166,-0.009798000000000001,-0.011739,0.002754,-44.5,6.37,-11.87,1b
2019-07-15_174627:680,-0.402649,0.01828,-0.314697,-0.010836,-0.024128999999999998,0.00962,-44.5,6.37,-11.87,1b
2019-07-15_174627:700,-0.406738,0.007111,-0.317749,-0.011629,-0.029591000000000003,0.016365,-44.18,6.37,-11.87,1b
2019-07-15_174627:720,-0.429596,-0.0030210000000000002,-0.327911,-0.012301000000000001,-0.027913,0.018623,-44.18,6.37,-11.87,1b
2019-07-15_174627:740,-0.431641,-0.009125,-0.323853,-0.011170999999999999,-0.019306999999999998,0.018165,-44.18,6.37,-11.87,1b
2019-07-15_174627:760,-0.410797,-0.013213999999999998,-0.291321,-0.010317,-0.006612000000000001,0.014044999999999998,-44.869999,6.37,-12.25,1b
2019-07-15_174627:780,-0.382324,-0.014221000000000001,-0.263336,-0.009798000000000001,0.006541,0.011726,-44.869999,6.37,-12.25,1b
2019-07-15_174627:800,-0.328949,-0.019318000000000002,-0.225739,-0.009188,0.016704,0.012123,-44.18,6.75,-13.37,1b
2019-07-15_174627:820,-0.305542,-0.018799,-0.20538299999999998,-0.009737,0.02058,0.013374,-44.18,6.75,-13.37,1b
2019-07-15_174627:840,-0.29180900000000004,-0.022369,-0.190643,-0.010256,0.018443,0.016426,-44.18,6.75,-13.37,1b
2019-07-15_174627:860,-0.306061,-0.023375999999999997,-0.188599,-0.011049,0.01292,0.018501,-44.369999,7.5,-11.87,1b
2019-07-15_174627:880,-0.3396,-0.031006,-0.20080599999999998,-0.012179,0.007701,0.018715,-44.369999,7.5,-11.87,1b
2019-07-15_174627:900,-0.378265,-0.036072,-0.20944200000000002,-0.012118,0.0045579999999999996,0.017646000000000002,-45.869999,7.06,-12.56,1b
2019-07-15_174627:920,-0.432648,-0.038635,-0.230804,-0.011965,0.005107,0.015449000000000001,-45.869999,7.06,-12.56,1b
2019-07-15_174627:940,-0.43518100000000004,-0.042694,-0.231812,-0.010927,0.008067,0.013649000000000001,-45.869999,7.06,-12.56,1b
2019-07-15_174627:960,-0.474854,-0.041168,-0.25521900000000003,-0.009188,0.010265,0.0102,-45.18,8.56,-11.87,1b
2019-07-15_174627:980,-0.46926899999999994,-0.040649,-0.249115,-0.007601,0.012462,0.00663,-45.18,8.56,-11.87,1b
2019-07-15_174628:000,-0.471283,-0.039124,-0.277069,-0.005404,0.00941,0.003578,-44.75,9.0,-12.25,1b
2019-07-15_174628:020,-0.466217,-0.042175,-0.278595,-0.003817,0.005046,-0.00045099999999999996,-44.75,9.0,-12.25,1b
2019-07-15_174628:040,-0.488068,-0.048279,-0.302002,-0.0021079999999999996,0.0023,-0.005242,-44.75,9.0,-12.25,1b
2019-07-15_174628:060,-0.685852,-0.047272,-0.342163,-0.000277,-0.005757,-0.009209,-45.869999,8.5,-10.68,1b
2019-07-15_174628:080,-0.564331,-0.057434000000000006,-0.305054,0.0016460000000000001,-0.010548,-0.010613,-45.869999,8.5,-10.68,1b
2019-07-15_174628:100,-0.553162,-0.046752999999999996,-0.325378,0.004057,0.003124,-0.016259,-46.18,8.18,-11.37,1b
2019-07-15_174628:120,-0.393005,-0.044219999999999995,-0.295898,0.005064,0.013072,-0.010491,-46.18,8.18,-11.37,1b
2019-07-15_174628:140,-0.346222,-0.051849,-0.266388,0.005796,0.018718000000000002,-0.004174000000000001,-46.18,8.18,-11.37,1b
2019-07-15_174628:160,-0.331482,-0.047791,-0.29486100000000004,0.004454,0.008952,-0.001641,-46.18,7.0,-11.06,1b
2019-07-15_174628:180,-0.309601,-0.058960000000000005,-0.28775,0.003782,-0.006032,0.002845,-46.18,7.0,-11.06,1b
2019-07-15_174628:200,-0.383331,-0.057953,-0.316223,0.002989,-0.020038999999999998,-0.0019149999999999998,-47.68,6.68,-11.37,1b
2019-07-15_174628:220,-0.41333000000000003,-0.050323,-0.321808,0.001524,-0.025471,-0.009484000000000001,-47.68,6.68,-11.37,1b
2019-07-15_174628:240,-0.44281000000000004,-0.040649,-0.33197,0.00045599999999999997,-0.025136000000000002,-0.009423,-47.68,6.68,-11.37,1b
2019-07-15_174628:260,-0.430634,-0.031494,-0.320282,-0.001009,-0.019429,-0.007897,-47.0,5.87,-11.37,1b
2019-07-15_174628:280,-0.390961,-0.017273,-0.29943800000000004,-0.002169,-0.011739,-0.009758,-47.0,5.87,-11.37,1b
2019-07-15_174628:300,-0.366058,-0.009125,-0.277069,-0.0032979999999999997,-0.0040479999999999995,-0.011406,-47.0,6.68,-11.87,1b
2019-07-15_174628:320,-0.344177,-0.005065999999999999,-0.24706999999999998,-0.004549,0.002116,-0.010674,-47.0,6.68,-11.87,1b
2019-07-15_174628:340,-0.32995599999999997,-0.0030210000000000002,-0.22927899999999998,-0.005739,0.006693999999999999,-0.009545,-47.0,6.68,-11.87,1b
2019-07-15_174628:360,-0.296387,-0.0030210000000000002,-0.205902,-0.006411,0.009929,-0.009667,-46.869999,5.5,-12.56,1b
2019-07-15_174628:380,-0.290802,0.0,-0.198273,-0.0064719999999999995,0.009593,-0.011071,-46.869999,5.5,-12.56,1b
2019-07-15_174628:400,-0.316742,0.004547,-0.201843,-0.005526,0.006938,-0.011284,-47.25,4.37,-11.87,1b
2019-07-15_174628:420,-0.338593,0.005065999999999999,-0.206909,-0.004213000000000001,0.005229,-0.009484000000000001,-47.25,4.37,-11.87,1b
2019-07-15_174628:440,-0.375702,0.006592,-0.223175,-0.003176,0.004497,-0.004296,-47.25,4.37,-11.87,1b
2019-07-15_174628:460,-0.387909,0.006592,-0.228271,-0.002321,0.006145,0.000709,-48.0,4.75,-13.0,1b
2019-07-15_174628:480,-0.401642,0.011169,-0.25012199999999996,-0.002993,0.007670999999999999,0.002784,-48.0,4.75,-13.0,1b
2019-07-15_174628:500,-0.42248500000000005,0.012177,-0.268951,-0.004427,0.006145,0.005806,-47.560001,5.18,-13.06,1b
2019-07-15_174628:520,-0.474854,0.009125,-0.285217,-0.007326000000000001,0.003917,0.009956,-47.560001,5.18,-13.06,1b
2019-07-15_174628:540,-0.516541,0.0055850000000000006,-0.302002,-0.011385,0.001842,0.015846000000000002,-47.560001,5.18,-13.06,1b
2019-07-15_174628:560,-0.502319,-0.004547,-0.298431,-0.015444,0.003093,0.023628,-48.369999,4.5,-13.37,1b
2019-07-15_174628:580,-0.491638,-0.009125,-0.307587,-0.019137,0.006297,0.028052999999999998,-48.369999,4.5,-13.37,1b
2019-07-15_174628:600,-0.5933229999999999,-0.017792,-0.320801,-0.022005,0.009531999999999999,0.029304000000000004,-49.060001,4.87,-13.0,1b
2019-07-15_174628:620,-0.644165,0.004547,-0.40368699999999996,-0.024935,0.0014759999999999999,0.031439999999999996,-49.060001,4.87,-13.0,1b
2019-07-15_174628:640,-0.577545,-0.009125,-0.316223,-0.027651,0.0035810000000000004,0.034767,-49.060001,4.87,-13.0,1b
2019-07-15_174628:660,-0.532806,0.004547,-0.341125,-0.028292,0.014597999999999998,0.028999,-49.060001,6.0,-12.56,1b
2019-07-15_174628:680,-0.404694,0.019806,-0.283173,-0.027926,0.027385000000000003,0.022468000000000002,-49.060001,6.0,-12.56,1b
2019-07-15_174628:700,-0.410278,0.033539,-0.293335,-0.025667000000000002,0.029247000000000002,0.011054999999999999,-48.369999,7.06,-11.87,1b
2019-07-15_174628:720,-0.368073,0.057953,-0.266388,-0.026247000000000003,0.022075,0.004158,-48.369999,7.06,-11.87,1b
2019-07-15_174628:740,-0.366058,0.058441,-0.270966,-0.026795999999999997,0.010356,0.007148000000000001,-48.369999,7.06,-11.87,1b
2019-07-15_174628:760,-0.38739,0.053375,-0.279633,-0.028505000000000003,-0.000264,0.011116,-49.5,7.75,-11.06,1b
2019-07-15_174628:780,-0.383331,0.054901,-0.280121,-0.029818,-0.009206,0.017372,-49.5,7.75,-11.06,1b
2019-07-15_174628:800,-0.377228,0.038635,-0.28064,-0.030642000000000003,-0.014790000000000001,0.027045999999999997,-48.369999,8.18,-11.37,1b
2019-07-15_174628:820,-0.376221,0.028442000000000002,-0.279633,-0.031495999999999996,-0.014972999999999998,0.033027,-48.369999,8.18,-11.37,1b
2019-07-15_174628:840,-0.370636,0.017273,-0.272003,-0.031832,-0.010884,0.035956999999999996,-48.369999,8.18,-11.37,1b
2019-07-15_174628:860,-0.36349499999999996,0.006072999999999999,-0.26181,-0.031832,-0.004292,0.038093,-49.5,8.87,-11.87,1b
2019-07-15_174628:880,-0.340118,-0.005065999999999999,-0.24658200000000002,-0.031954,0.001964,0.037757,-49.5,8.87,-11.87,1b
2019-07-15_174628:900,-0.329437,-0.012695,-0.23895300000000003,-0.032563999999999996,0.005748,0.035743000000000004,-47.560001,9.56,-13.37,1b
2019-07-15_174628:920,-0.326904,-0.020844,-0.226746,-0.032869,0.00703,0.033363,-47.560001,9.56,-13.37,1b
2019-07-15_174628:940,-0.332489,-0.025908999999999998,-0.22421300000000002,-0.033236,0.007762000000000001,0.029914,-47.560001,9.56,-13.37,1b
2019-07-15_174628:960,-0.352844,-0.032532,-0.21859699999999999,-0.033144,0.009531999999999999,0.026680000000000002,-47.560001,11.06,-13.37,1b
2019-07-15_174628:980,-0.36654699999999996,-0.036591000000000005,-0.227264,-0.032168,0.01234,0.023018,-47.560001,11.06,-13.37,1b
2019-07-15_174629:000,-0.389435,-0.035065,-0.234375,-0.030581,0.014842,0.020087999999999998,-47.560001,12.18,-12.56,1b
2019-07-15_174629:020,-0.399597,-0.029480000000000003,-0.237427,-0.029024,0.015666,0.017311,-47.560001,12.18,-12.56,1b
2019-07-15_174629:040,-0.431122,-0.022858,-0.248596,-0.027437,0.016916999999999998,0.016578,-47.560001,12.18,-12.56,1b
2019-07-15_174629:060,-0.438751,-0.017792,-0.25317399999999995,-0.025667000000000002,0.017925,0.01551,-47.560001,12.56,-11.87,1b
2019-07-15_174629:080,-0.432159,-0.017273,-0.254211,-0.023531,0.017375,0.011482,-47.560001,12.56,-11.87,1b
2019-07-15_174629:100,-0.441803,-0.011169,-0.26944,-0.018618,0.009959,0.003517,-47.25,12.56,-11.87,1b
2019-07-15_174629:120,-0.416901,-0.011169,-0.266907,-0.014650999999999999,0.003886,0.000526,-47.25,12.56,-11.87,1b
2019-07-15_174629:140,-0.449432,-0.014221000000000001,-0.28369099999999997,-0.011720999999999999,0.000133,0.001106,-47.25,12.56,-11.87,1b
2019-07-15_174629:160,-0.6812739999999999,-0.03302,-0.301483,-0.009066,-0.005696,0.002388,-47.25,12.18,-11.06,1b
2019-07-15_174629:180,-0.488068,-0.041168,-0.334534,-0.006745999999999999,-0.009358,0.005409000000000001,-47.25,12.18,-11.06,1b
2019-07-15_174629:200,-0.539429,-0.028961,-0.312653,-0.0034509999999999996,-0.001576,-0.00023700000000000001,-47.25,12.56,-10.68,1b
2019-07-15_174629:220,-0.491638,-0.019806,-0.29232800000000003,-0.003237,0.0088,0.008003,-47.25,12.56,-10.68,1b
2019-07-15_174629:240,-0.441284,-0.040649,-0.252686,-0.0021079999999999996,0.018047,0.017433,-47.25,12.56,-10.68,1b
2019-07-15_174629:260,-0.416382,-0.044219999999999995,-0.240479,-0.004336,0.02058,0.017768,-47.560001,12.56,-11.5,1b
2019-07-15_174629:280,-0.367584,-0.046265,-0.254211,-0.005922,0.012401,0.018379,-47.560001,12.56,-11.5,1b
2019-07-15_174629:300,-0.35131799999999996,-0.060486,-0.275055,-0.008454999999999999,-0.000264,0.015236000000000001,-47.25,13.0,-11.18,1b
2019-07-15_174629:320,-0.379791,-0.055389,-0.301483,-0.010714,-0.012195999999999999,0.010994,-47.25,13.0,-11.18,1b
2019-07-15_174629:340,-0.425537,-0.050323,-0.325378,-0.012301000000000001,-0.018971000000000002,0.009285,-47.25,13.0,-11.18,1b
2019-07-15_174629:360,-0.439758,-0.042175,-0.338593,-0.013827,-0.019368,0.006751999999999999,-46.869999,14.0,-10.37,1b
2019-07-15_174629:380,-0.457581,-0.025908999999999998,-0.338074,-0.015047,-0.012593,0.0029059999999999997,-46.869999,14.0,-10.37,1b
2019-07-15_174629:400,-0.453003,-0.014740000000000001,-0.323334,-0.017275,-0.000661,0.001716,-46.060001,14.0,-11.5,1b
2019-07-15_174629:420,-0.41943400000000003,-0.002014,-0.285706,-0.019594,0.012676,0.004554,-46.060001,14.0,-11.5,1b
2019-07-15_174629:440,-0.38028,0.0,-0.259796,-0.022005,0.022746000000000002,0.00727,-46.060001,14.0,-11.5,1b
2019-07-15_174629:460,-0.328949,0.014221000000000001,-0.22521999999999998,-0.024141,0.026286,0.008003,-46.5,14.37,-12.37,1b
2019-07-15_174629:480,-0.304016,0.017792,-0.203369,-0.026369,0.023143,0.00962,-46.5,14.37,-12.37,1b
2019-07-15_174629:500,-0.311127,0.015747,-0.19622799999999999,-0.028627999999999997,0.015788,0.013588,-46.5,14.0,-10.75,1b
2019-07-15_174629:520,-0.322327,0.010651,-0.19574,-0.031038,0.007426,0.017830000000000002,-46.5,14.0,-10.75,1b
2019-07-15_174629:540,-0.338593,0.002014,-0.197266,-0.033205,0.001201,0.021491999999999997,-46.5,14.0,-10.75,1b
2019-07-15_174629:560,-0.372162,-0.004059,-0.209961,-0.035067,-0.002888,0.023994,-46.5,13.87,-10.37,1b
2019-07-15_174629:580,-0.365021,-0.015747,-0.223175,-0.036348,-0.002827,0.025917000000000003,-46.5,13.87,-10.37,1b
2019-07-15_174629:600,-0.38028,-0.021851,-0.23791500000000002,-0.038119,-0.002644,0.026741,-45.75,14.25,-12.0,1b
2019-07-15_174629:620,-0.405212,-0.038635,-0.25216700000000003,-0.040132999999999995,-0.002431,0.030525,-45.75,14.25,-12.0,1b
2019-07-15_174629:640,-0.41384899999999997,-0.055908000000000006,-0.260284,-0.041994,-0.003102,0.033882,-45.75,14.25,-12.0,1b
2019-07-15_174629:660,-0.467743,-0.068115,-0.276581,-0.044222000000000004,-0.005299,0.034645,-45.5,16.25,-11.5,1b
2019-07-15_174629:680,-0.481476,-0.075745,-0.272491,-0.045839,-0.004231,0.034217000000000004,-45.5,16.25,-11.5,1b
2019-07-15_174629:700,-0.49316400000000005,-0.076263,-0.283173,-0.047609,-0.0018510000000000002,0.030769,-44.68,16.870001000000002,-12.0,1b
2019-07-15_174629:720,-0.47943100000000005,-0.069122,-0.284698,-0.049349000000000004,0.001628,0.025123,-44.68,16.870001000000002,-12.0,1b
2019-07-15_174629:740,-0.592804,-0.05285599999999999,-0.312164,-0.050477999999999995,0.0008960000000000001,0.020301,-44.68,16.870001000000002,-12.0,1b
2019-07-15_174629:760,-0.560272,-0.031494,-0.376221,-0.05234,-0.010213,0.019172,-44.25,18.370001000000002,-12.0,1b
2019-07-15_174629:780,-0.606537,-0.019806,-0.28875700000000004,-0.054873000000000005,-0.002919,0.022102,-44.25,18.370001000000002,-12.0,1b
2019-07-15_174629:800,-0.558228,-0.009644,-0.325378,-0.054841999999999995,0.006572,0.022621000000000002,-43.560001,18.370001000000002,-14.25,1b
2019-07-15_174629:820,-0.455017,0.0030210000000000002,-0.236389,-0.057375,0.020152,0.022346,-43.560001,18.370001000000002,-14.25,1b
2019-07-15_174629:840,-0.40063499999999996,0.017792,-0.22116100000000002,-0.057924,0.032512,0.026924,-43.560001,18.370001000000002,-14.25,1b
2019-07-15_174629:860,-0.360962,0.021332,-0.20538299999999998,-0.061159000000000005,0.032633999999999996,0.032722,-43.18,18.370001000000002,-14.25,1b
2019-07-15_174629:880,-0.320282,0.021332,-0.22164899999999998,-0.065737,0.021709,0.034888999999999996,-43.18,18.370001000000002,-14.25,1b
2019-07-15_174629:900,-0.25521900000000003,0.007111,-0.23233,-0.070589,0.003978,0.036903,-43.18,19.559998999999998,-14.18,1b
2019-07-15_174629:920,-0.300964,-0.0035399999999999997,-0.266907,-0.074251,-0.018086,0.041206,-43.18,19.559998999999998,-14.18,1b
2019-07-15_174629:940,-0.354858,-0.022858,-0.320801,-0.076632,-0.036213999999999996,0.046455,-43.18,19.559998999999998,-14.18,1b
2019-07-15_174629:960,-0.356903,-0.027954000000000003,-0.339111,-0.078402,-0.046712000000000004,0.054023,-42.060001,19.559998999999998,-15.0,1b
2019-07-15_174629:980,-0.462128,-0.043213,-0.352844,-0.0777,-0.04604,0.057715999999999996,-42.060001,19.559998999999998,-15.0,1b
2019-07-15_174630:000,-0.47995,-0.047272,-0.34674099999999997,-0.07800499999999999,-0.029591000000000003,0.0503,-41.0,20.25,-17.75,1b
2019-07-15_174630:020,-0.43927,-0.037598,-0.323853,-0.078676,-0.011585999999999999,0.044197,-41.0,20.25,-17.75,1b
2019-07-15_174630:040,-0.382324,-0.038116000000000004,-0.307587,-0.078158,0.000865,0.043861000000000004,-41.0,20.25,-17.75,1b
2019-07-15_174630:060,-0.326904,-0.044739,-0.279114,-0.07803600000000001,0.004771,0.040535,-38.0,21.75,-20.870001000000002,1b
2019-07-15_174630:080,-0.316742,-0.046752999999999996,-0.263855,-0.075167,0.002391,0.031898,-38.0,21.75,-20.870001000000002,1b
2019-07-15_174630:100,-0.32486,-0.038116000000000004,-0.25216700000000003,-0.06927699999999999,-0.001454,0.019813,-37.68,21.75,-23.25,1b
2019-07-15_174630:120,-0.330963,-0.027954000000000003,-0.25216700000000003,-0.062014,-0.0062759999999999995,0.009132,-37.68,21.75,-23.25,1b
2019-07-15_174630:140,-0.336548,-0.013213999999999998,-0.2547,-0.05450599999999999,-0.011128,0.004432,-37.68,21.75,-23.25,1b
2019-07-15_174630:160,-0.349274,-0.004059,-0.262329,-0.04648,-0.015919,0.003303,-37.0,21.0,-22.75,1b
2019-07-15_174630:180,-0.346222,0.017273,-0.264862,-0.038393000000000004,-0.019368,0.000465,-37.0,21.0,-22.75,1b
2019-07-15_174630:200,-0.353851,0.027435,-0.274536,-0.030764,-0.02187,-0.0029219999999999997,-35.5,20.559998999999998,-25.18,1b
2019-07-15_174630:220,-0.40011599999999997,0.041168,-0.28979499999999997,-0.02405,-0.022022999999999997,-0.005425,-35.5,20.559998999999998,-25.18,1b
2019-07-15_174630:240,-0.43011499999999997,0.049805,-0.305054,-0.018678999999999998,-0.018697,-0.009606,-35.5,20.559998999999998,-25.18,1b
2019-07-15_174630:260,-0.44891400000000004,0.06405599999999999,-0.306061,-0.014284,-0.012868000000000001,-0.012412999999999999,-35.18,19.559998999999998,-24.0,1b
2019-07-15_174630:280,-0.460114,0.069641,-0.304016,-0.011233,-0.006612000000000001,-0.011681,-35.18,19.559998999999998,-24.0,1b
2019-07-15_174630:300,-0.45553599999999994,0.075745,-0.305542,-0.009585,-0.0018510000000000002,-0.009148,-35.5,19.870001000000002,-25.870001000000002,1b
2019-07-15_174630:320,-0.460114,0.081329,-0.308594,-0.009066,-0.00011100000000000001,-0.007744,-35.5,19.870001000000002,-25.870001000000002,1b
2019-07-15_174630:340,-0.46060200000000007,0.080322,-0.315704,-0.009706999999999999,-0.00044699999999999997,-0.0078049999999999994,-35.5,19.870001000000002,-25.870001000000002,1b
2019-07-15_174630:360,-0.47079499999999996,0.076263,-0.31723,-0.010927,0.000285,-0.009758,-35.5,18.0,-26.18,1b
2019-07-15_174630:380,-0.488068,0.060486,-0.32486,-0.011262999999999999,0.006084,-0.013146000000000001,-35.5,18.0,-26.18,1b
2019-07-15_174630:400,-0.5185850000000001,0.047791,-0.329437,-0.009463,0.011881999999999998,-0.018975,-35.5,18.68,-26.559998999999998,1b
2019-07-15_174630:420,-0.451477,0.046752999999999996,-0.338074,-0.007081999999999999,0.011455,-0.024529,-35.5,18.68,-26.559998999999998,1b
2019-07-15_174630:440,-0.441803,0.039642000000000004,-0.300964,-0.005129,0.013133,-0.023949,-35.5,18.68,-26.559998999999998,1b
2019-07-15_174630:460,-0.410797,0.026427999999999997,-0.329437,-0.0025050000000000003,0.00883,-0.019707,-35.869999,17.18,-26.18,1b
2019-07-15_174630:480,-0.389954,0.018799,-0.29742399999999997,-2e-06,0.009531999999999999,-0.019555,-35.869999,17.18,-26.18,1b
2019-07-15_174630:500,-0.367584,0.014221000000000001,-0.308594,0.002531,0.012676,-0.025536,-35.75,16.5,-25.75,1b
2019-07-15_174630:520,-0.34063699999999997,0.014221000000000001,-0.300476,0.004454,0.012462,-0.032036,-35.75,16.5,-25.75,1b
2019-07-15_174630:540,-0.334534,0.016266,-0.31369,0.00543,0.004436,-0.029473000000000003,-35.75,16.5,-25.75,1b
2019-07-15_174630:560,-0.34875500000000004,0.011169,-0.311646,0.006498,-0.00124,-0.017113,-36.5,15.25,-25.370001000000002,1b
2019-07-15_174630:580,-0.355377,-0.0025329999999999997,-0.334534,0.006986,-0.003041,-0.008873,-36.5,15.25,-25.370001000000002,1b
2019-07-15_174630:600,-0.353333,-0.006592,-0.349792,0.008024,-0.006947,-0.008934000000000001,-35.869999,15.0,-26.18,1b
2019-07-15_174630:620,-0.353851,-0.006072999999999999,-0.35739099999999996,0.009214,-0.010792,-0.011406,-35.869999,15.0,-26.18,1b
2019-07-15_174630:640,-0.375214,-0.006592,-0.358429,0.010038,-0.012471,-0.01278,-35.869999,15.0,-26.18,1b
2019-07-15_174630:660,-0.40823400000000004,-0.005065999999999999,-0.347748,0.010282,-0.008473,-0.014275,-37.0,15.25,-27.0,1b
2019-07-15_174630:680,-0.408752,-0.0035399999999999997,-0.32132,0.010496,0.0009570000000000001,-0.018181,-37.0,15.25,-27.0,1b
2019-07-15_174630:700,-0.385376,-0.000488,-0.300964,0.011625,0.0106,-0.022484,-36.869999,15.25,-27.0,1b
2019-07-15_174630:720,-0.326904,0.004547,-0.262848,0.013425999999999999,0.016399,-0.024956,-36.869999,15.25,-27.0,1b
2019-07-15_174630:740,-0.29284699999999997,0.011687999999999999,-0.24353000000000002,0.014555000000000002,0.016704,-0.026726,-36.869999,15.25,-27.0,1b
2019-07-15_174630:760,-0.273529,0.020325,-0.231323,0.015531,0.009807,-0.0252,-36.869999,15.0,-26.559998999999998,1b
2019-07-15_174630:780,-0.278595,0.019806,-0.23486300000000002,0.016203,-0.0009660000000000001,-0.020958,-36.869999,15.0,-26.559998999999998,1b
2019-07-15_174630:800,-0.34570300000000004,0.019806,-0.251648,0.016661000000000002,-0.010121,-0.017388,-36.5,14.56,-25.75,1b
2019-07-15_174630:820,-0.378265,0.020325,-0.264862,0.015806,-0.0118,-0.015709,-36.5,14.56,-25.75,1b
2019-07-15_174630:840,-0.385376,0.018799,-0.282654,0.014555000000000002,-0.007558,-0.01281,-36.5,14.56,-25.75,1b
2019-07-15_174630:860,-0.386383,0.010651,-0.290283,0.012815,-0.0027660000000000002,-0.010125,-36.869999,14.5,-26.559998999999998,1b
2019-07-15_174630:880,-0.385376,0.0025329999999999997,-0.31012,0.011106,0.000743,-0.009148,-36.869999,14.5,-26.559998999999998,1b
2019-07-15_174630:900,-0.387909,-0.000488,-0.324371,0.009641,0.001201,-0.007622,-38.0,14.87,-26.18,1b
2019-07-15_174630:920,-0.421967,0.0,-0.33758499999999997,0.008298999999999999,-0.001057,-0.005028,-38.0,14.87,-26.18,1b
2019-07-15_174630:940,-0.448425,0.0,-0.34317,0.006498,-0.002095,-0.000908,-38.0,14.87,-26.18,1b
2019-07-15_174630:960,-0.47433500000000006,-0.004059,-0.35638400000000003,0.004972,0.00022400000000000002,0.002967,-36.5,14.5,-24.18,1b
2019-07-15_174630:980,-0.48858599999999996,-0.0025329999999999997,-0.364532,0.005064,0.006145,0.005409000000000001,-36.5,14.5,-24.18,1b
2019-07-15_174631:000,-0.49926800000000005,-0.005065999999999999,-0.37265,0.007047,0.014659,0.005287,-36.5,14.87,-26.559998999999998,1b
2019-07-15_174631:020,-0.570435,0.001495,-0.406738,0.009489000000000001,0.014995,-0.00045099999999999996,-36.5,14.87,-26.559998999999998,1b
2019-07-15_174631:040,-0.48043800000000003,0.021332,-0.368073,0.010435,0.010081999999999999,-0.003563,-36.5,14.87,-26.559998999999998,1b
2019-07-15_174631:060,-0.462646,0.01828,-0.386383,0.0119,0.010997,-0.003899,-36.5,14.87,-25.059998999999998,1b
2019-07-15_174631:080,-0.391479,0.025421,-0.324371,0.012205,0.018290999999999998,-0.014397,-36.5,14.87,-25.059998999999998,1b
2019-07-15_174631:100,-0.35739099999999996,0.032013,-0.306061,0.012815,0.026133999999999998,-0.02224,-37.25,15.56,-25.059998999999998,1b
2019-07-15_174631:120,-0.311127,0.031494,-0.29995700000000003,0.015806,0.022624000000000002,-0.022545,-37.25,15.56,-25.059998999999998,1b
2019-07-15_174631:140,-0.29995700000000003,0.031006,-0.297913,0.016386,0.013072,-0.021752,-37.25,15.56,-25.059998999999998,1b
2019-07-15_174631:160,-0.315704,0.022858,-0.324371,0.017728999999999998,0.0034289999999999998,-0.015587,-37.25,15.56,-24.18,1b
2019-07-15_174631:180,-0.335541,0.013702,-0.34317,0.017851,-0.006215,-0.006279,-37.25,15.56,-24.18,1b
2019-07-15_174631:200,-0.352325,-0.0025329999999999997,-0.35131799999999996,0.018064,-0.013936000000000002,-0.000512,-38.369999,16.0,-24.559998999999998,1b
2019-07-15_174631:220,-0.35943600000000003,-0.009644,-0.35131799999999996,0.018308,-0.017171000000000002,0.004036,-38.369999,16.0,-24.559998999999998,1b
2019-07-15_174631:240,-0.37674,-0.025421,-0.349274,0.01898,-0.014972999999999998,0.007759,-38.369999,16.0,-24.559998999999998,1b
2019-07-15_174631:260,-0.377228,-0.031006,-0.33758499999999997,0.019377000000000002,-0.007619,0.0073620000000000005,-37.869999,15.56,-24.18,1b
2019-07-15_174631:280,-0.371643,-0.037598,-0.314178,0.019193,0.0014759999999999999,0.005836,-37.869999,15.56,-24.18,1b
2019-07-15_174631:300,-0.35943600000000003,-0.041168,-0.293854,0.019041,0.009685,0.003822,-37.5,16.68,-23.870001000000002,1b
2019-07-15_174631:320,-0.319275,-0.046752999999999996,-0.266388,0.0184,0.01411,0.001167,-37.5,16.68,-23.870001000000002,1b
2019-07-15_174631:340,-0.309113,-0.053863999999999995,-0.262329,0.018522,0.013408000000000002,-0.002434,-37.5,16.68,-23.870001000000002,1b
2019-07-15_174631:360,-0.310638,-0.054901,-0.257233,0.018644,0.009531999999999999,-0.0078049999999999994,-36.75,17.870001000000002,-22.68,1b
2019-07-15_174631:380,-0.317749,-0.052338,-0.260803,0.019865,0.004375,-0.010888,-36.75,17.870001000000002,-22.68,1b
2019-07-15_174631:400,-0.364532,-0.055389,-0.282654,0.021513,-0.000508,-0.012383,-37.5,17.870001000000002,-23.870001000000002,1b
2019-07-15_174631:420,-0.37674,-0.054901,-0.29180900000000004,0.023649,-0.001576,-0.015128999999999998,-37.5,17.870001000000002,-23.870001000000002,1b
2019-07-15_174631:440,-0.395538,-0.05285599999999999,-0.309113,0.025693999999999998,-0.000172,-0.018303,-37.5,17.870001000000002,-23.870001000000002,1b
2019-07-15_174631:460,-0.416382,-0.051330999999999995,-0.319275,0.028532,0.002116,-0.022362,-37.5,17.75,-23.370001000000002,1b
2019-07-15_174631:480,-0.417389,-0.040161,-0.30654899999999996,0.031278,0.006236,-0.027732999999999997,-37.5,17.75,-23.370001000000002,1b
2019-07-15_174631:500,-0.42401099999999997,-0.036591000000000005,-0.315704,0.033598,0.010753,-0.031304000000000005,-38.25,17.75,-21.870001000000002,1b
2019-07-15_174631:520,-0.40368699999999996,-0.029968,-0.315216,0.035459,0.012523000000000001,-0.033776,-38.25,17.75,-21.870001000000002,1b
2019-07-15_174631:540,-0.40368699999999996,-0.028961,-0.325378,0.036527,0.010265,-0.033043,-38.25,17.75,-21.870001000000002,1b
2019-07-15_174631:560,-0.40368699999999996,-0.026427999999999997,-0.323334,0.037718,0.008098000000000001,-0.031395,-39.0,17.370001000000002,-20.68,1b
2019-07-15_174631:580,-0.41842700000000005,-0.027435,-0.330475,0.038633,0.00761,-0.03283,-39.0,17.370001000000002,-20.68,1b
2019-07-15_174631:600,-0.5617979999999999,-0.030487,-0.377747,0.039427,0.004954999999999999,-0.036889,-39.0,17.0,-20.68,1b
2019-07-15_174631:620,-0.461639,-0.040649,-0.38385,0.041960000000000004,-0.00298,-0.043206,-39.0,17.0,-20.68,1b
2019-07-15_174631:640,-0.498749,-0.038116000000000004,-0.35436999999999996,0.043547,0.006755,-0.047295,-39.0,17.0,-20.68,1b
2019-07-15_174631:660,-0.471283,-0.045226999999999996,-0.358429,0.047331,0.011394,-0.046105,-41.18,16.559998999999998,-19.559998999999998,1b
2019-07-15_174631:680,-0.398071,-0.048798,-0.288269,0.049986,0.018108000000000003,-0.046929000000000005,-41.18,16.559998999999998,-19.559998999999998,1b
2019-07-15_174631:700,-0.391479,-0.053863999999999995,-0.285217,0.052702,0.023753,-0.044915,-42.369999,15.5,-18.68,1b
2019-07-15_174631:720,-0.34265100000000004,-0.072174,-0.272491,0.054289,0.02415,-0.043847000000000004,-42.369999,15.5,-18.68,1b
2019-07-15_174631:740,-0.31369,-0.073212,-0.28112800000000004,0.054045,0.016124,-0.043541,-42.369999,15.5,-18.68,1b
2019-07-15_174631:760,-0.334534,-0.077271,-0.300476,0.053770000000000005,0.0012619999999999999,-0.03518,-43.5,15.06,-17.870001000000002,1b
2019-07-15_174631:780,-0.36554000000000003,-0.0849,-0.320801,0.052488,-0.012013,-0.027916000000000003,-43.5,15.06,-17.870001000000002,1b
2019-07-15_174631:800,-0.378754,-0.082336,-0.330475,0.050595999999999995,-0.020161000000000002,-0.027794,-43.5,14.37,-16.68,1b
2019-07-15_174631:820,-0.379272,-0.07775900000000001,-0.332489,0.049527999999999996,-0.021565,-0.03344,-43.5,14.37,-16.68,1b
2019-07-15_174631:840,-0.393494,-0.067108,-0.320282,0.047911,-0.018116999999999998,-0.042015,-43.5,14.37,-16.68,1b
2019-07-15_174631:860,-0.36248800000000003,-0.059479,-0.306061,0.046415,-0.008748,-0.046898,-43.5,14.37,-16.059998999999998,1b
2019-07-15_174631:880,-0.296387,-0.043701,-0.291321,0.044676,-0.001027,-0.04757,-43.5,14.37,-16.059998999999998,1b
2019-07-15_174631:900,-0.260803,-0.036591000000000005,-0.28369099999999997,0.042814,0.0016589999999999999,-0.044732,-44.18,13.68,-16.059998999999998,1b
2019-07-15_174631:920,-0.266907,-0.025421,-0.272491,0.04083,-0.0005690000000000001,-0.040337,-44.18,13.68,-16.059998999999998,1b
2019-07-15_174631:940,-0.288269,-0.017792,-0.270966,0.037687,-0.003163,-0.034111,-44.18,13.68,-16.059998999999998,1b
2019-07-15_174631:960,-0.309601,-0.015228,-0.276581,0.03372,-0.002522,-0.02752,-44.869999,11.5,-16.059998999999998,1b
2019-07-15_174631:980,-0.325378,-0.015228,-0.28674299999999997,0.028623000000000003,-0.00179,-0.023613,-44.869999,11.5,-16.059998999999998,1b
2019-07-15_174632:000,-0.33300799999999997,-0.017792,-0.298431,0.024350999999999998,-0.0018510000000000002,-0.02108,-45.560001,11.5,-15.25,1b
2019-07-15_174632:020,-0.353851,-0.019318000000000002,-0.302002,0.020658000000000003,-0.002583,-0.019982,-45.560001,11.5,-15.25,1b
2019-07-15_174632:040,-0.394012,-0.018799,-0.315216,0.017332,-0.003285,-0.018029,-45.560001,11.5,-15.25,1b
2019-07-15_174632:060,-0.410278,-0.019806,-0.319794,0.014524,-0.002705,-0.012597,-45.560001,10.37,-14.87,1b
2019-07-15_174632:080,-0.453003,-0.019318000000000002,-0.340118,0.011564,-0.003896,-0.0033799999999999998,-45.560001,10.37,-14.87,1b
2019-07-15_174632:100,-0.471283,-0.021332,-0.345215,0.008024,-0.00417,0.005684000000000001,-45.25,11.18,-15.68,1b
2019-07-15_174632:120,-0.49722299999999997,-0.021332,-0.353851,0.003721,-0.001057,0.010475,-45.25,11.18,-15.68,1b
2019-07-15_174632:140,-0.476379,-0.016266,-0.35180700000000004,-0.001314,0.0052899999999999996,0.01081,-45.25,11.18,-15.68,1b
2019-07-15_174632:160,-0.459595,-0.014740000000000001,-0.3508,-0.006197,0.012523000000000001,0.012916,-44.869999,10.75,-14.5,1b
2019-07-15_174632:180,-0.5323180000000001,-0.028442000000000002,-0.377228,-0.00873,0.015392,0.016914,-44.869999,10.75,-14.5,1b
2019-07-15_174632:200,-0.477905,-0.027435,-0.391968,-0.010592,0.008952,0.018775999999999998,-45.560001,10.75,-13.68,1b
2019-07-15_174632:220,-0.415375,-0.034058,-0.325897,-0.011568,0.00883,0.024025,-45.560001,10.75,-13.68,1b
2019-07-15_174632:240,-0.406219,-0.059479,-0.325897,-0.008578,0.012004,0.022163,-45.560001,10.75,-13.68,1b
2019-07-15_174632:260,-0.396057,-0.063538,-0.315704,-0.006014,0.018290999999999998,0.010475,-44.869999,12.68,-14.06,1b
2019-07-15_174632:280,-0.406738,-0.058960000000000005,-0.314178,-0.0014060000000000001,0.021037,-0.0009689999999999999,-44.869999,12.68,-14.06,1b
2019-07-15_174632:300,-0.392487,-0.054901,-0.304535,0.004667,0.016124,-0.011345000000000001,-45.560001,14.06,-14.18,1b
2019-07-15_174632:320,-0.368073,-0.036072,-0.296387,0.006498,0.013377000000000002,-0.01339,-45.560001,14.06,-14.18,1b
2019-07-15_174632:340,-0.377228,-0.033539,-0.293854,0.009641,0.005961999999999999,-0.014458000000000002,-45.560001,14.06,-14.18,1b
2019-07-15_174632:360,-0.365021,-0.020325,-0.304016,0.012083,-0.0008439999999999999,-0.015434999999999999,-45.869999,12.68,-13.37,1b
2019-07-15_174632:380,-0.361481,-0.016266,-0.308594,0.014738,-0.01006,-0.016594,-45.869999,12.68,-13.37,1b
2019-07-15_174632:400,-0.358917,-0.006592,-0.307068,0.016203,-0.012256999999999999,-0.016442,-45.869999,12.25,-11.87,1b
2019-07-15_174632:420,-0.35791,-0.005065999999999999,-0.305054,0.016416,-0.009999,-0.015191,-45.869999,12.25,-11.87,1b
2019-07-15_174632:440,-0.37316900000000003,-0.0055850000000000006,-0.29180900000000004,0.016325,-0.005147,-0.012017,-45.869999,12.25,-11.87,1b
2019-07-15_174632:460,-0.376221,-0.007111,-0.286224,0.01605,0.002849,-0.008202,-45.869999,12.25,-12.56,1b
2019-07-15_174632:480,-0.350281,-0.014221000000000001,-0.259277,0.015013,0.010020000000000001,-0.004845,-45.869999,12.25,-12.56,1b
2019-07-15_174632:500,-0.329437,-0.017273,-0.25521900000000003,0.013731,0.013193999999999999,-0.0028309999999999997,-46.68,11.87,-13.37,1b
2019-07-15_174632:520,-0.310638,-0.03302,-0.23895300000000003,0.013548,0.011545999999999999,-0.004753,-46.68,11.87,-13.37,1b
2019-07-15_174632:540,-0.303528,-0.03302,-0.23590100000000003,0.012937,0.007670999999999999,-0.006706999999999999,-46.68,11.87,-13.37,1b
2019-07-15_174632:560,-0.341125,-0.035065,-0.23590100000000003,0.013425999999999999,0.003978,-0.006829000000000001,-46.68,11.18,-12.56,1b
2019-07-15_174632:580,-0.356903,-0.035065,-0.239441,0.014128,0.002391,-0.010216,-46.68,11.18,-12.56,1b
2019-07-15_174632:600,-0.395538,-0.023375999999999997,-0.263336,0.01486,0.000743,-0.014518999999999999,-46.68,12.25,-11.87,1b
2019-07-15_174632:620,-0.389435,-0.019806,-0.272491,0.015989,0.0010789999999999999,-0.016166999999999997,-46.68,12.25,-11.87,1b
2019-07-15_174632:640,-0.427063,-0.008118,-0.290283,0.017057,0.002757,-0.016594,-46.68,12.25,-11.87,1b
2019-07-15_174632:660,-0.41943400000000003,-0.008118,-0.290283,0.017606999999999998,0.0035810000000000004,-0.016381,-46.25,11.18,-11.37,1b
2019-07-15_174632:680,-0.423004,-0.007111,-0.318756,0.01898,0.000499,-0.013999999999999999,-46.25,11.18,-11.37,1b
2019-07-15_174632:700,-0.425018,-0.011687999999999999,-0.327911,0.019468,-0.001118,-0.013054,-47.369999,11.18,-10.25,1b
