timestamp,AccX,AccY,AccZ,GyroX,GyroY,GyroZ,MagX,MagY,MagZ,Activity
2019-07-15_143951:200,-0.440796,-0.008636,-0.220642,-0.010927,-0.004811,0.0038829999999999997,-43.25,-0.75,-1.0,2a
2019-07-15_143951:220,-0.452484,-0.014740000000000001,-0.217072,-0.012301000000000001,-0.0045060000000000005,0.004615,-43.25,-0.75,-1.0,2a
2019-07-15_143951:240,-0.47332799999999997,-0.014740000000000001,-0.20944200000000002,-0.013308,-0.002888,0.00489,-43.0,-1.18,-1.0,2a
2019-07-15_143951:260,-0.47842399999999996,-0.016266,-0.196747,-0.014315000000000001,1.1e-05,0.006416,-43.0,-1.18,-1.0,2a
2019-07-15_143951:280,-0.45196499999999995,-0.013213999999999998,-0.191162,-0.016817,0.002971,0.009956,-43.0,-1.18,-1.0,2a
2019-07-15_143951:300,-0.431122,-0.019318000000000002,-0.200317,-0.019747,0.0012619999999999999,0.014594999999999999,-43.0,-0.37,-2.56,2a
2019-07-15_143951:320,-0.43518100000000004,-0.023895,-0.206909,-0.021609,-0.002187,0.014044999999999998,-43.0,-0.37,-2.56,2a
2019-07-15_143951:340,-0.45806899999999995,-0.026427999999999997,-0.21148699999999998,-0.023469999999999998,-0.004567,0.010933,-43.25,0.25,-2.06,2a
2019-07-15_143951:360,-0.46875,-0.021332,-0.22421300000000002,-0.024935,-0.0037119999999999996,0.010139,-43.25,0.25,-2.06,2a
2019-07-15_143951:380,-0.46670500000000004,-0.020325,-0.22927899999999998,-0.026461000000000002,-0.001637,0.009681,-43.25,0.25,-2.06,2a
2019-07-15_143951:400,-0.47079499999999996,-0.004059,-0.225739,-0.028322000000000003,0.000743,0.008216,-43.68,-0.37,-0.56,2a
2019-07-15_143951:420,-0.490601,0.011169,-0.226746,-0.032503,0.00471,0.007606,-43.68,-0.37,-0.56,2a
2019-07-15_143951:440,-0.490601,0.019318000000000002,-0.23028600000000002,-0.038607,0.010997,0.009956,-44.5,0.68,-1.75,2a
2019-07-15_143951:460,-0.475861,0.01828,-0.22164899999999998,-0.044619,0.016643,0.012397,-44.5,0.68,-1.75,2a
2019-07-15_143951:480,-0.44891400000000004,0.009125,-0.19927999999999998,-0.050539,0.019359,0.01371,-44.5,0.68,-1.75,2a
2019-07-15_143951:500,-0.41333000000000003,0.0035399999999999997,-0.186066,-0.054262,0.017833,0.015632,-43.25,1.37,-2.56,2a
2019-07-15_143951:520,-0.41232299999999994,-0.010162000000000001,-0.185547,-0.055575,0.011211,0.016182,-43.25,1.37,-2.56,2a
2019-07-15_143951:540,-0.40823400000000004,-0.019318000000000002,-0.182007,-0.054659000000000006,0.004375,0.014990999999999999,-42.560001,1.0,-1.75,2a
2019-07-15_143951:560,-0.41943400000000003,-0.029968,-0.17538499999999999,-0.051211,-0.002644,0.014503,-42.560001,1.0,-1.75,2a
2019-07-15_143951:580,-0.417389,-0.036072,-0.176422,-0.045962,-0.007558,0.01493,-42.560001,1.0,-1.75,2a
2019-07-15_143951:600,-0.417389,-0.031006,-0.182007,-0.039858,-0.013263999999999998,0.016243,-44.060001,1.37,-0.56,2a
2019-07-15_143951:620,-0.41232299999999994,-0.027954000000000003,-0.189636,-0.034731,-0.018697,0.018104,-44.060001,1.37,-0.56,2a
2019-07-15_143951:640,-0.431641,-0.024902,-0.20486500000000002,-0.030031,-0.023671,0.019569,-43.68,2.5,-1.75,2a
2019-07-15_143951:660,-0.45196499999999995,-0.019806,-0.212006,-0.026186,-0.025075,0.020087999999999998,-43.68,2.5,-1.75,2a
2019-07-15_143951:680,-0.46823100000000006,-0.023375999999999997,-0.22521999999999998,-0.023745,-0.022481,0.020027,-43.68,2.5,-1.75,2a
2019-07-15_143951:700,-0.45043900000000003,-0.023375999999999997,-0.235382,-0.021853,-0.019246,0.020301,-43.68,3.25,-1.75,2a
2019-07-15_143951:720,-0.429596,-0.025908999999999998,-0.255707,-0.020357,-0.019154,0.019111000000000003,-43.68,3.25,-1.75,2a
2019-07-15_143951:740,-0.446899,-0.027435,-0.268951,-0.019137,-0.019368,0.015387999999999999,-42.560001,3.87,-4.06,2a
2019-07-15_143951:760,-0.48196400000000006,-0.033539,-0.27301,-0.017884999999999998,-0.014790000000000001,0.011451000000000001,-42.560001,3.87,-4.06,2a
2019-07-15_143951:780,-0.49517799999999995,-0.03302,-0.275543,-0.016572999999999997,-0.005635,0.008735,-42.560001,3.87,-4.06,2a
2019-07-15_143951:800,-0.522644,-0.027954000000000003,-0.28064,-0.015627000000000002,0.005901,0.009009999999999999,-43.0,5.5,-4.5,2a
2019-07-15_143951:820,-0.536377,-0.031494,-0.285706,-0.01523,0.021769999999999998,0.011268,-43.0,5.5,-4.5,2a
2019-07-15_143951:840,-0.486023,-0.038635,-0.293335,-0.014315000000000001,0.037822,0.011451000000000001,-43.060001,5.18,-4.5,2a
2019-07-15_143951:860,-0.451477,-0.041687,-0.28369099999999997,-0.012697,0.046123000000000004,0.010872,-43.060001,5.18,-4.5,2a
2019-07-15_143951:880,-0.410278,-0.049316000000000006,-0.263855,-0.00873,0.047527,0.010139,-43.060001,5.18,-4.5,2a
2019-07-15_143951:900,-0.391479,-0.049805,-0.245056,-0.005221,0.043345999999999996,0.0061719999999999995,-43.0,5.5,-3.0,2a
2019-07-15_143951:920,-0.389954,-0.046752999999999996,-0.21859699999999999,-0.0029010000000000004,0.036081999999999996,0.004646,-43.0,5.5,-3.0,2a
2019-07-15_143951:940,-0.40316799999999997,-0.043213,-0.20639000000000002,-0.001375,0.028606,0.006141,-43.0,5.75,-2.06,2a
2019-07-15_143951:960,-0.412811,-0.042175,-0.20080599999999998,-0.000918,0.02235,0.006233,-43.0,5.75,-2.06,2a
2019-07-15_143951:980,-0.434174,-0.039642000000000004,-0.193176,-0.0009789999999999998,0.01704,0.005745,-43.0,5.75,-2.06,2a
2019-07-15_143952:000,-0.462646,-0.040161,-0.198273,-0.0015279999999999998,0.014903,0.005958,-43.68,5.37,-0.18,2a
2019-07-15_143952:020,-0.457581,-0.040649,-0.203369,-0.002657,0.017162,0.004615,-43.68,5.37,-0.18,2a
2019-07-15_143952:040,-0.44995100000000005,-0.040161,-0.20080599999999998,-0.00339,0.01945,0.002845,-43.25,5.75,-0.18,2a
2019-07-15_143952:060,-0.444855,-0.039642000000000004,-0.192688,-0.003817,0.020243999999999998,0.001258,-43.25,5.75,-0.18,2a
2019-07-15_143952:080,-0.45907600000000004,-0.037598,-0.183014,-0.004397,0.021159,-0.00045099999999999996,-43.25,5.75,-0.18,2a
2019-07-15_143952:100,-0.447388,-0.037108999999999996,-0.180481,-0.004213000000000001,0.025218,-0.0034409999999999996,-42.560001,6.87,0.56,2a
2019-07-15_143952:120,-0.425537,-0.032532,-0.184021,-0.004091,0.027721,-0.005944,-42.560001,6.87,0.56,2a
2019-07-15_143952:140,-0.42807,-0.031494,-0.18454,-0.003573,0.024669,-0.005577,-43.25,5.75,2.56,2a
2019-07-15_143952:160,-0.453491,-0.033539,-0.18096900000000002,-0.003176,0.021678,-0.004967,-43.25,5.75,2.56,2a
2019-07-15_143952:180,-0.46823100000000006,-0.030487,-0.17944300000000002,-0.001986,0.02235,-0.005822,-43.25,5.75,2.56,2a
2019-07-15_143952:200,-0.477386,-0.028961,-0.17538499999999999,-0.00107,0.024089,-0.006554000000000001,-43.060001,5.37,2.18,2a
2019-07-15_143952:220,-0.48196400000000006,-0.024384,-0.163696,-0.000246,0.027141000000000002,-0.005974,-43.060001,5.37,2.18,2a
2019-07-15_143952:240,-0.47943100000000005,-0.023895,-0.15506,0.000212,0.030070999999999997,-0.005547,-43.0,5.75,3.37,2a
2019-07-15_143952:260,-0.467743,-0.024384,-0.144379,0.001188,0.032695,-0.0057,-43.0,5.75,3.37,2a
2019-07-15_143952:280,-0.460114,-0.023375999999999997,-0.137756,0.0022559999999999998,0.033366,-0.005883,-43.0,5.75,3.37,2a
2019-07-15_143952:300,-0.459595,-0.022369,-0.134216,0.003111,0.031566000000000004,-0.005028,-43.68,5.75,5.68,2a
2019-07-15_143952:320,-0.472321,-0.020325,-0.115906,0.0034460000000000003,0.029399,-0.004357,-43.68,5.75,5.68,2a
2019-07-15_143952:340,-0.475372,-0.017273,-0.110321,0.00247,0.028208999999999998,-0.0035020000000000003,-43.369999,5.06,5.37,2a
2019-07-15_143952:360,-0.506378,-0.018799,-0.091003,0.001005,0.027812,-0.001397,-43.369999,5.06,5.37,2a
2019-07-15_143952:380,-0.508911,-0.023375999999999997,-0.083374,-0.000734,0.029186,0.000496,-43.369999,5.06,5.37,2a
2019-07-15_143952:400,-0.501282,-0.025908999999999998,-0.07775900000000001,-0.002443,0.029063,0.001838,-42.369999,5.37,6.5,2a
2019-07-15_143952:420,-0.49517799999999995,-0.03302,-0.0737,-0.0037560000000000002,0.02708,0.00309,-42.369999,5.37,6.5,2a
2019-07-15_143952:440,-0.496216,-0.034058,-0.072174,-0.004275,0.02476,0.003975,-43.0,4.68,7.25,2a
2019-07-15_143952:460,-0.509918,-0.03302,-0.065063,-0.00461,0.022899,0.003242,-43.0,4.68,7.25,2a
2019-07-15_143952:480,-0.514496,-0.034058,-0.064545,-0.004488000000000001,0.022014,0.002845,-43.0,4.68,7.25,2a
2019-07-15_143952:500,-0.516022,-0.032013,-0.065063,-0.00461,0.02122,0.002693,-42.560001,5.06,8.87,2a
2019-07-15_143952:520,-0.516022,-0.031494,-0.063019,-0.004488000000000001,0.019969,0.002449,-42.560001,5.06,8.87,2a
2019-07-15_143952:540,-0.512482,-0.032013,-0.059479,-0.004397,0.019694999999999997,0.000984,-41.869999,5.75,8.06,2a
2019-07-15_143952:560,-0.510437,-0.031006,-0.059479,-0.003664,0.020366,-0.0013050000000000002,-41.869999,5.75,8.06,2a
2019-07-15_143952:580,-0.515533,-0.025421,-0.049805,-0.0022600000000000003,0.020366,-0.004021,-41.869999,5.75,8.06,2a
2019-07-15_143952:600,-0.509918,-0.025421,-0.048798,-0.0021079999999999996,0.020488,-0.003228,-41.5,5.75,9.68,2a
2019-07-15_143952:620,-0.475372,-0.027435,-0.037108999999999996,-0.001864,0.018565,0.000404,-41.5,5.75,9.68,2a
2019-07-15_143952:640,-0.477905,-0.026917,-0.037598,-0.0020469999999999998,0.014842,0.001655,-41.869999,4.68,10.5,2a
2019-07-15_143952:660,-0.475372,-0.022858,-0.042175,-0.0006730000000000001,0.011394,-0.00045099999999999996,-41.869999,4.68,10.5,2a
2019-07-15_143952:680,-0.470276,-0.021332,-0.043701,-0.000582,0.007273999999999999,-0.001641,-41.869999,4.68,10.5,2a
2019-07-15_143952:700,-0.466217,-0.020325,-0.046752999999999996,-2e-06,0.002574,0.00028199999999999997,-42.18,4.68,11.68,2a
2019-07-15_143952:720,-0.47280900000000003,-0.019806,-0.049316000000000006,5.9e-05,-0.00124,0.000831,-42.18,4.68,11.68,2a
2019-07-15_143952:740,-0.472321,-0.016753999999999998,-0.061005,-0.000277,-0.003163,0.0007700000000000001,-41.060001,5.37,11.25,2a
2019-07-15_143952:760,-0.472321,-0.016266,-0.074738,-0.000734,-0.005879,0.001564,-41.060001,5.37,11.25,2a
2019-07-15_143952:780,-0.475372,-0.017273,-0.071686,-0.001986,-0.0072829999999999995,0.002449,-41.060001,5.37,11.25,2a
2019-07-15_143952:800,-0.485016,-0.016266,-0.07775900000000001,-0.0031149999999999997,-0.008015000000000001,0.0043100000000000005,-41.0,5.06,11.25,2a
2019-07-15_143952:820,-0.505371,-0.022858,-0.0737,-0.004549,-0.006551,0.005958,-41.0,5.06,11.25,2a
2019-07-15_143952:840,-0.508911,-0.025421,-0.073212,-0.005739,-0.003438,0.005684000000000001,-41.75,5.06,9.68,2a
2019-07-15_143952:860,-0.500275,-0.034546,-0.072693,-0.006869,-0.000508,0.004493,-41.75,5.06,9.68,2a
2019-07-15_143952:880,-0.501282,-0.035583,-0.069641,-0.007081999999999999,0.0009570000000000001,0.003425,-41.75,5.06,9.68,2a
2019-07-15_143952:900,-0.494171,-0.040161,-0.064545,-0.006745999999999999,0.002239,0.0018989999999999999,-41.75,5.06,11.25,2a
2019-07-15_143952:920,-0.49517799999999995,-0.042175,-0.06149299999999999,-0.0058,0.001628,-0.00045099999999999996,-41.75,5.06,11.25,2a
2019-07-15_143952:940,-0.488068,-0.037598,-0.058960000000000005,-0.004793,0.000621,-0.0028309999999999997,-41.369999,5.75,10.5,2a
2019-07-15_143952:960,-0.49316400000000005,-0.030487,-0.063538,-0.003939,-0.0005690000000000001,-0.002983,-41.369999,5.75,10.5,2a
2019-07-15_143952:980,-0.48654200000000003,-0.022369,-0.065063,-0.0034509999999999996,-0.001393,-0.001641,-41.369999,5.75,10.5,2a
2019-07-15_143953:000,-0.489594,-0.020844,-0.065582,-0.003878,-0.0018510000000000002,0.000129,-41.369999,5.37,10.87,2a
2019-07-15_143953:020,-0.48300200000000004,-0.020844,-0.066589,-0.00461,-0.001515,0.001777,-41.369999,5.37,10.87,2a
2019-07-15_143953:040,-0.482483,-0.021332,-0.069641,-0.006075,-0.001393,0.00251,-41.75,4.68,10.18,2a
2019-07-15_143953:060,-0.48654200000000003,-0.024384,-0.073212,-0.007448000000000001,-0.0009050000000000001,0.003761,-41.75,4.68,10.18,2a
2019-07-15_143953:080,-0.489594,-0.028442000000000002,-0.072174,-0.00873,0.00016299999999999998,0.004371,-41.75,4.68,10.18,2a
2019-07-15_143953:100,-0.490112,-0.031494,-0.073212,-0.009004999999999999,0.0012619999999999999,0.0043100000000000005,-41.75,5.75,10.18,2a
2019-07-15_143953:120,-0.48858599999999996,-0.033539,-0.071686,-0.009524,0.004375,0.003181,-41.75,5.75,10.18,2a
2019-07-15_143953:140,-0.490112,-0.035583,-0.072174,-0.009249,0.005229,0.002113,-41.75,5.75,9.25,2a
2019-07-15_143953:160,-0.489594,-0.036072,-0.069641,-0.008669,0.006816,0.000648,-41.75,5.75,9.25,2a
2019-07-15_143953:180,-0.489075,-0.037598,-0.067108,-0.007601,0.006084,0.000709,-41.75,5.75,9.25,2a
2019-07-15_143953:200,-0.49517799999999995,-0.037598,-0.067596,-0.006594,0.005168,0.000984,-41.0,5.75,10.87,2a
2019-07-15_143953:220,-0.502808,-0.038635,-0.066071,-0.005129,0.004436,0.001442,-41.0,5.75,10.87,2a
2019-07-15_143953:240,-0.5048520000000001,-0.038635,-0.064545,-0.00403,0.003917,0.001228,-42.18,5.75,11.68,2a
2019-07-15_143953:260,-0.501801,-0.036591000000000005,-0.06405599999999999,-0.002932,0.0031850000000000003,0.000984,-42.18,5.75,11.68,2a
2019-07-15_143953:280,-0.49926800000000005,-0.037108999999999996,-0.06253099999999999,-0.001925,0.002574,0.001625,-42.18,5.75,11.68,2a
2019-07-15_143953:300,-0.49365200000000004,-0.035583,-0.05996699999999999,-0.0017109999999999998,0.002239,0.001655,-42.5,5.75,10.87,2a
2019-07-15_143953:320,-0.492126,-0.03302,-0.057953,-0.001314,0.002361,0.001381,-42.5,5.75,10.87,2a
2019-07-15_143953:340,-0.477905,-0.029968,-0.06253099999999999,-0.0015279999999999998,0.001842,0.001564,-40.25,5.68,11.25,2a
2019-07-15_143953:360,-0.477386,-0.032532,-0.065582,-0.0020469999999999998,-0.00063,0.001381,-40.25,5.68,11.25,2a
2019-07-15_143953:380,-0.477905,-0.031494,-0.064545,-0.0025050000000000003,-0.002248,-0.000176,-40.25,5.68,11.25,2a
2019-07-15_143953:400,-0.481476,-0.031006,-0.064545,-0.002932,-0.003285,-0.000176,-41.369999,6.5,10.87,2a
2019-07-15_143953:420,-0.489594,-0.034058,-0.066071,-0.0032979999999999997,-0.003682,0.0007700000000000001,-41.369999,6.5,10.87,2a
2019-07-15_143953:440,-0.492126,-0.036072,-0.066589,-0.003512,-0.003163,0.000831,-41.75,6.5,9.68,2a
2019-07-15_143953:460,-0.49468999999999996,-0.037108999999999996,-0.068634,-0.003054,-0.002187,0.00028199999999999997,-41.75,6.5,9.68,2a
2019-07-15_143953:480,-0.49468999999999996,-0.037108999999999996,-0.067108,-0.002382,-0.0018510000000000002,-0.00011499999999999999,-41.75,6.5,9.68,2a
2019-07-15_143953:500,-0.490601,-0.038116000000000004,-0.067596,-0.002169,-0.001637,-0.000267,-40.68,5.75,10.87,2a
2019-07-15_143953:520,-0.492645,-0.035583,-0.066071,-0.00107,-0.002095,-0.000267,-40.68,5.75,10.87,2a
2019-07-15_143953:540,-0.494171,-0.035065,-0.069122,-0.000643,-0.002156,-0.000267,-42.18,6.06,10.18,2a
2019-07-15_143953:560,-0.49365200000000004,-0.033539,-0.069122,0.000547,-0.00179,-0.0009689999999999999,-42.18,6.06,10.18,2a
2019-07-15_143953:580,-0.497742,-0.031494,-0.072174,0.001066,-0.001027,-0.0010609999999999999,-42.18,6.06,10.18,2a
2019-07-15_143953:600,-0.49517799999999995,-0.028961,-0.072174,0.001005,-0.000508,-0.0008470000000000001,-41.75,6.06,9.68,2a
2019-07-15_143953:620,-0.49111899999999997,-0.025421,-0.072693,0.000669,-0.00044699999999999997,-0.000634,-41.75,6.06,9.68,2a
2019-07-15_143953:640,-0.489594,-0.025421,-0.076263,0.000334,-0.000325,-0.000634,-41.369999,5.37,10.87,2a
2019-07-15_143953:660,-0.49111899999999997,-0.022858,-0.076752,-0.000918,-0.000172,-0.000512,-41.369999,5.37,10.87,2a
2019-07-15_143953:680,-0.491638,-0.022369,-0.077271,-0.0020469999999999998,-0.000264,-0.000664,-41.369999,5.37,10.87,2a
2019-07-15_143953:700,-0.492126,-0.023375999999999997,-0.07928500000000001,-0.002382,-0.000386,-0.001,-41.75,6.18,9.68,2a
2019-07-15_143953:720,-0.49111899999999997,-0.021851,-0.078796,-0.003573,-0.00011100000000000001,-0.001,-41.75,6.18,9.68,2a
2019-07-15_143953:740,-0.49468999999999996,-0.024902,-0.079803,-0.003878,0.00016299999999999998,-0.0012439999999999999,-41.75,6.5,10.5,2a
2019-07-15_143953:760,-0.49468999999999996,-0.025421,-0.08081100000000001,-0.004488000000000001,0.00114,-0.001,-41.75,6.5,10.5,2a
2019-07-15_143953:780,-0.49365200000000004,-0.028961,-0.081848,-0.004275,0.0010789999999999999,-5.4000000000000005e-05,-41.75,6.5,10.5,2a
2019-07-15_143953:800,-0.494171,-0.029968,-0.081329,-0.004091,0.00114,0.000984,-41.75,5.37,10.5,2a
2019-07-15_143953:820,-0.494171,-0.032532,-0.081329,-0.0034509999999999996,0.001537,0.001564,-41.75,5.37,10.5,2a
2019-07-15_143953:840,-0.495697,-0.032532,-0.08081100000000001,-0.003237,0.0017809999999999998,0.001442,-41.75,5.37,9.0,2a
2019-07-15_143953:860,-0.49316400000000005,-0.03302,-0.08081100000000001,-0.0025050000000000003,0.002757,0.001564,-41.75,5.37,9.0,2a
2019-07-15_143953:880,-0.490112,-0.034546,-0.082336,-0.001986,0.0023,0.0029059999999999997,-41.75,5.37,9.0,2a
2019-07-15_143953:900,-0.492645,-0.032532,-0.080322,-0.001925,0.002239,0.003425,-41.369999,5.06,9.0,2a
2019-07-15_143953:920,-0.492645,-0.032532,-0.076752,-0.0022600000000000003,0.003825,0.003151,-41.369999,5.06,9.0,2a
2019-07-15_143953:940,-0.49365200000000004,-0.029968,-0.075226,-0.002657,0.0042829999999999995,0.002693,-41.369999,5.06,10.87,2a
2019-07-15_143953:960,-0.494171,-0.032013,-0.073212,-0.00339,0.005229,0.003303,-41.369999,5.06,10.87,2a
2019-07-15_143953:980,-0.48858599999999996,-0.03302,-0.068634,-0.0037560000000000002,0.005016,0.002052,-41.369999,5.06,10.87,2a
2019-07-15_143954:000,-0.490112,-0.035583,-0.067108,-0.00403,0.005046,0.0018989999999999999,-42.5,5.37,10.18,2a
2019-07-15_143954:020,-0.497742,-0.037108999999999996,-0.066071,-0.004213000000000001,0.005351,0.0037,-42.5,5.37,10.18,2a
2019-07-15_143954:040,-0.49468999999999996,-0.039124,-0.066589,-0.004091,0.005748,0.0043100000000000005,-41.75,5.37,11.25,2a
2019-07-15_143954:060,-0.48858599999999996,-0.041168,-0.069122,-0.003664,0.005901,0.00132,-41.75,5.37,11.25,2a
2019-07-15_143954:080,-0.48553500000000005,-0.037598,-0.070648,-0.003054,0.004161,0.001777,-41.75,5.37,11.25,2a
2019-07-15_143954:100,-0.48300200000000004,-0.037108999999999996,-0.069641,-0.002779,0.0035810000000000004,0.0030280000000000003,-40.68,6.5,9.68,2a
2019-07-15_143954:120,-0.486023,-0.035583,-0.067596,-0.0028399999999999996,0.002757,0.001716,-40.68,6.5,9.68,2a
2019-07-15_143954:140,-0.488068,-0.031006,-0.068115,-0.0029010000000000004,0.0023,0.001564,-40.68,6.5,9.68,2a
2019-07-15_143954:160,-0.488068,-0.034058,-0.067596,-0.0033280000000000002,0.0019030000000000002,0.0022960000000000003,-41.369999,6.06,10.87,2a
2019-07-15_143954:180,-0.492126,-0.035065,-0.064545,-0.003573,0.001842,0.0021739999999999997,-41.369999,6.06,10.87,2a
2019-07-15_143954:200,-0.494171,-0.036072,-0.068115,-0.003664,0.0023,0.001777,-41.75,5.37,10.5,2a
2019-07-15_143954:220,-0.48754899999999995,-0.038635,-0.057434000000000006,-0.003664,0.003032,0.001167,-41.75,5.37,10.5,2a
2019-07-15_143954:240,-0.496216,-0.040649,-0.066071,-0.002993,0.002055,0.000465,-41.75,6.5,12.06,2a
2019-07-15_143954:260,-0.495697,-0.041168,-0.06149299999999999,-0.0025960000000000002,0.002574,0.000129,-41.75,6.5,12.06,2a
2019-07-15_143954:280,-0.490601,-0.041168,-0.06405599999999999,-0.001864,0.002635,-0.000328,-41.75,6.5,12.06,2a
2019-07-15_143954:300,-0.49111899999999997,-0.041168,-0.067596,-0.001772,0.002361,-0.000267,-41.0,6.06,9.68,2a
2019-07-15_143954:320,-0.489594,-0.041168,-0.066589,-0.0009789999999999998,0.0016589999999999999,-0.0010609999999999999,-41.0,6.06,9.68,2a
2019-07-15_143954:340,-0.48706099999999997,-0.038635,-0.068634,-0.001009,0.0012619999999999999,-0.0013050000000000002,-41.0,6.06,9.68,2a
2019-07-15_143954:360,-0.486023,-0.037598,-0.07016,-0.001253,0.000133,-0.000512,-41.75,5.37,9.68,2a
2019-07-15_143954:380,-0.48706099999999997,-0.036591000000000005,-0.07016,-0.001467,-0.00011100000000000001,-0.000786,-41.75,5.37,9.68,2a
2019-07-15_143954:400,-0.49517799999999995,-0.035583,-0.071167,-0.001986,0.00022400000000000002,-0.001641,-40.68,6.06,10.5,2a
2019-07-15_143954:420,-0.500793,-0.036591000000000005,-0.07016,-0.0020469999999999998,0.001201,-0.0019760000000000003,-40.68,6.06,10.5,2a
2019-07-15_143954:440,-0.500793,-0.037108999999999996,-0.069122,-0.0018030000000000001,0.0029100000000000003,-0.002648,-40.68,6.06,10.5,2a
2019-07-15_143954:460,-0.49975600000000003,-0.035583,-0.069641,-0.0014060000000000001,0.004436,-0.003899,-41.75,5.75,10.5,2a
2019-07-15_143954:480,-0.496216,-0.034058,-0.067108,-0.0009789999999999998,0.005901,-0.003228,-41.75,5.75,10.5,2a
2019-07-15_143954:500,-0.492645,-0.034058,-0.066071,-0.0009789999999999998,0.006145,-0.002709,-41.75,5.37,11.68,2a
2019-07-15_143954:520,-0.49111899999999997,-0.033539,-0.063019,-0.0009789999999999998,0.005748,-0.0021899999999999997,-41.75,5.37,11.68,2a
2019-07-15_143954:540,-0.486023,-0.032013,-0.063019,-0.0006730000000000001,0.005168,-0.001641,-41.75,5.37,11.68,2a
2019-07-15_143954:560,-0.47995,-0.032532,-0.06405599999999999,-0.000521,0.004161,-0.002251,-41.0,5.37,10.18,2a
2019-07-15_143954:580,-0.477905,-0.029968,-0.066071,-0.000734,0.002391,-0.003563,-41.0,5.37,10.18,2a
2019-07-15_143954:600,-0.48196400000000006,-0.028961,-0.065582,-0.000734,0.000499,-0.0028309999999999997,-41.369999,5.06,10.87,2a
2019-07-15_143954:620,-0.49722299999999997,-0.029968,-0.065582,-0.001375,-0.001179,-0.001366,-41.369999,5.06,10.87,2a
2019-07-15_143954:640,-0.505371,-0.031494,-0.059479,-0.0018030000000000001,-0.000722,-0.00023700000000000001,-41.369999,5.06,10.87,2a
2019-07-15_143954:660,-0.506897,-0.030487,-0.056427,-0.001467,0.001964,-0.001702,-41.369999,4.68,11.25,2a
2019-07-15_143954:680,-0.497742,-0.025908999999999998,-0.056915,-0.000918,0.00471,-0.004052,-41.369999,4.68,11.25,2a
2019-07-15_143954:700,-0.48654200000000003,-0.023375999999999997,-0.06149299999999999,-0.000521,0.005443,-0.004418,-41.369999,5.06,11.68,2a
2019-07-15_143954:720,-0.48196400000000006,-0.020844,-0.063019,-0.000399,0.004039,-0.004052,-41.369999,5.06,11.68,2a
2019-07-15_143954:740,-0.484009,-0.019318000000000002,-0.063538,-0.001009,0.001598,-0.0019760000000000003,-41.369999,5.06,11.68,2a
2019-07-15_143954:760,-0.492645,-0.020325,-0.05996699999999999,-0.001772,0.00022400000000000002,0.000587,-41.75,5.68,11.25,2a
2019-07-15_143954:780,-0.496216,-0.021851,-0.05996699999999999,-0.003054,0.000285,0.001564,-41.75,5.68,11.25,2a
2019-07-15_143954:800,-0.494171,-0.024384,-0.063538,-0.003664,0.0008960000000000001,0.002449,-41.0,4.68,11.68,2a
2019-07-15_143954:820,-0.494171,-0.026427999999999997,-0.064545,-0.004488000000000001,0.0009570000000000001,0.002388,-41.0,4.68,11.68,2a
2019-07-15_143954:840,-0.489594,-0.027435,-0.066071,-0.005007,0.000743,0.001258,-41.0,4.68,11.68,2a
2019-07-15_143954:860,-0.488068,-0.027954000000000003,-0.066071,-0.0051600000000000005,0.00022400000000000002,0.001167,-41.75,3.87,10.5,2a
2019-07-15_143954:880,-0.489075,-0.029968,-0.064545,-0.0051600000000000005,0.000133,0.001106,-41.75,3.87,10.5,2a
2019-07-15_143954:900,-0.49316400000000005,-0.030487,-0.065063,-0.005068,7.2e-05,0.0007700000000000001,-41.75,5.06,11.25,2a
2019-07-15_143954:920,-0.498749,-0.032013,-0.063538,-0.004732,0.000468,0.000587,-41.75,5.06,11.25,2a
2019-07-15_143954:940,-0.500275,-0.031494,-0.062012,-0.004213000000000001,0.0010789999999999999,0.001228,-41.0,5.37,10.87,2a
2019-07-15_143954:960,-0.49823,-0.034058,-0.06149299999999999,-0.003817,0.001964,0.001442,-41.0,5.37,10.87,2a
2019-07-15_143954:980,-0.49316400000000005,-0.032013,-0.060486,-0.002993,0.002696,0.0008619999999999999,-41.0,5.37,10.87,2a
2019-07-15_143955:000,-0.482483,-0.029480000000000003,-0.064545,-0.002321,0.002116,0.00016,-41.369999,3.56,10.5,2a
2019-07-15_143955:020,-0.48095699999999997,-0.026917,-0.065582,-0.002199,0.000682,-0.00023700000000000001,-41.369999,3.56,10.5,2a
2019-07-15_143955:040,-0.486023,-0.025908999999999998,-0.068634,-0.002535,-0.001027,-0.000176,-41.369999,3.56,10.5,2a
2019-07-15_143955:060,-0.490112,-0.024384,-0.07016,-0.00339,-0.001912,-0.00045099999999999996,-41.369999,4.68,11.25,2a
2019-07-15_143955:080,-0.49316400000000005,-0.024384,-0.068634,-0.004091,-0.002187,-0.0010609999999999999,-41.369999,4.68,11.25,2a
2019-07-15_143955:100,-0.492126,-0.025908999999999998,-0.07016,-0.004671,-0.001515,-0.00158,-41.369999,5.06,11.68,2a
2019-07-15_143955:120,-0.49316400000000005,-0.025421,-0.072174,-0.005068,-0.001179,-0.0017929999999999999,-41.369999,5.06,11.68,2a
2019-07-15_143955:140,-0.492645,-0.025421,-0.072693,-0.005221,-0.00124,-0.001,-41.369999,5.06,11.68,2a
2019-07-15_143955:160,-0.497742,-0.025908999999999998,-0.072693,-0.005007,-0.001393,-0.000634,-42.18,5.06,10.87,2a
2019-07-15_143955:180,-0.494171,-0.024902,-0.071686,-0.004793,-0.001027,-0.000725,-42.18,5.06,10.87,2a
2019-07-15_143955:200,-0.49316400000000005,-0.023375999999999997,-0.072174,-0.00461,-0.000325,-0.000267,-40.68,4.68,10.5,2a
2019-07-15_143955:220,-0.49111899999999997,-0.023375999999999997,-0.073212,-0.004793,0.000346,-0.00023700000000000001,-40.68,4.68,10.5,2a
2019-07-15_143955:240,-0.489594,-0.021851,-0.07421900000000001,-0.005068,0.000407,-0.00011499999999999999,-40.68,4.68,10.5,2a
2019-07-15_143955:260,-0.490112,-0.022858,-0.07421900000000001,-0.005404,0.000407,7.000000000000001e-06,-41.369999,4.25,10.5,2a
2019-07-15_143955:280,-0.496216,-0.024384,-0.075745,-0.006014,0.000285,-5.4000000000000005e-05,-41.369999,4.25,10.5,2a
2019-07-15_143955:300,-0.498749,-0.024902,-0.07016,-0.006136,0.00114,-0.000176,-42.18,4.68,9.68,2a
2019-07-15_143955:320,-0.497742,-0.026427999999999997,-0.070648,-0.0056170000000000005,0.001994,-0.000328,-42.18,4.68,9.68,2a
2019-07-15_143955:340,-0.49823,-0.025908999999999998,-0.070648,-0.004946,0.003093,-0.000786,-42.18,4.68,9.68,2a
2019-07-15_143955:360,-0.491638,-0.024384,-0.066589,-0.004213000000000001,0.003917,-0.000328,-41.75,4.68,11.68,2a
2019-07-15_143955:380,-0.48706099999999997,-0.023375999999999997,-0.067108,-0.0037560000000000002,0.003978,0.000923,-41.75,4.68,11.68,2a
2019-07-15_143955:400,-0.48858599999999996,-0.025421,-0.068634,-0.0033280000000000002,0.002849,0.000496,-42.18,4.25,11.68,2a
2019-07-15_143955:420,-0.491638,-0.022369,-0.068115,-0.003573,0.002239,-0.000176,-42.18,4.25,11.68,2a
2019-07-15_143955:440,-0.498749,-0.025908999999999998,-0.06405599999999999,-0.003512,0.002391,0.001228,-42.18,4.25,11.68,2a
2019-07-15_143955:460,-0.501282,-0.027954000000000003,-0.06253099999999999,-0.0028399999999999996,0.003978,0.001625,-41.0,4.25,11.25,2a
2019-07-15_143955:480,-0.49365200000000004,-0.025908999999999998,-0.06149299999999999,-0.001864,0.005016,0.000648,-41.0,4.25,11.25,2a
2019-07-15_143955:500,-0.489594,-0.025908999999999998,-0.065582,-0.001131,0.004894,0.000984,-41.75,4.68,11.25,2a
2019-07-15_143955:520,-0.488068,-0.024384,-0.062012,-0.000857,0.004222,0.002449,-41.75,4.68,11.25,2a
2019-07-15_143955:540,-0.491638,-0.025421,-0.06253099999999999,-0.001009,0.0035810000000000004,0.004371,-41.75,4.68,11.25,2a
2019-07-15_143955:560,-0.49517799999999995,-0.023895,-0.064545,-0.0015890000000000001,0.0029100000000000003,0.005104,-42.18,5.06,11.25,2a
2019-07-15_143955:580,-0.492645,-0.023895,-0.066589,-0.0022600000000000003,0.002391,0.004768,-42.18,5.06,11.25,2a
2019-07-15_143955:600,-0.49316400000000005,-0.025908999999999998,-0.066589,-0.0034509999999999996,0.0024519999999999998,0.00428,-41.369999,4.68,11.25,2a
2019-07-15_143955:620,-0.49722299999999997,-0.028442000000000002,-0.063019,-0.004397,0.003307,0.004219,-41.369999,4.68,11.25,2a
2019-07-15_143955:640,-0.49722299999999997,-0.03302,-0.06253099999999999,-0.005007,0.0042829999999999995,0.004493,-41.369999,4.68,11.25,2a
2019-07-15_143955:660,-0.49316400000000005,-0.035065,-0.06149299999999999,-0.005007,0.004894,0.00489,-41.75,5.06,11.68,2a
2019-07-15_143955:680,-0.48196400000000006,-0.039124,-0.060486,-0.003939,0.004833,0.003639,-41.75,5.06,11.68,2a
2019-07-15_143955:700,-0.478912,-0.037108999999999996,-0.063538,-0.002779,0.003825,0.001503,-41.369999,5.37,11.25,2a
2019-07-15_143955:720,-0.475861,-0.034058,-0.064545,-0.0014060000000000001,0.001628,0.0007700000000000001,-41.369999,5.37,11.25,2a
2019-07-15_143955:740,-0.47842399999999996,-0.030487,-0.067596,-0.00107,-0.0009050000000000001,0.000343,-41.369999,5.37,11.25,2a
2019-07-15_143955:760,-0.48706099999999997,-0.028442000000000002,-0.071167,-0.001314,-0.003041,-0.000389,-41.369999,5.06,11.25,2a
2019-07-15_143955:780,-0.492126,-0.028442000000000002,-0.071686,-0.00165,-0.004353,-0.001366,-41.369999,5.06,11.25,2a
2019-07-15_143955:800,-0.501282,-0.026917,-0.075745,-0.002321,-0.004018,-0.001641,-41.75,5.37,10.87,2a
2019-07-15_143955:820,-0.504333,-0.028442000000000002,-0.0737,-0.0028399999999999996,-0.0027660000000000002,-0.001366,-41.75,5.37,10.87,2a
2019-07-15_143955:840,-0.5073850000000001,-0.028442000000000002,-0.072693,-0.0032979999999999997,7.2e-05,-0.001366,-41.75,5.37,10.87,2a
2019-07-15_143955:860,-0.502808,-0.029968,-0.068115,-0.003512,0.0029100000000000003,-0.001519,-41.369999,5.37,11.25,2a
2019-07-15_143955:880,-0.496704,-0.030487,-0.065582,-0.003054,0.0052899999999999996,-0.002037,-41.369999,5.37,11.25,2a
2019-07-15_143955:900,-0.488068,-0.027954000000000003,-0.065063,-0.0025960000000000002,0.006236,-0.001702,-41.75,4.68,10.5,2a
2019-07-15_143955:920,-0.486023,-0.026917,-0.062012,-0.002443,0.005565,-0.00023700000000000001,-41.75,4.68,10.5,2a
2019-07-15_143955:940,-0.48706099999999997,-0.025908999999999998,-0.065063,-0.002382,0.004222,0.0008619999999999999,-41.75,4.68,10.5,2a
2019-07-15_143955:960,-0.496216,-0.025908999999999998,-0.066071,-0.002718,0.003246,0.001777,-41.0,5.06,11.25,2a
2019-07-15_143955:980,-0.500793,-0.026917,-0.06149299999999999,-0.003054,0.00349,0.00132,-41.0,5.06,11.25,2a
2019-07-15_143956:000,-0.501282,-0.028961,-0.063019,-0.0034509999999999996,0.004375,0.000404,-41.75,5.06,11.68,2a
2019-07-15_143956:020,-0.49823,-0.031494,-0.058960000000000005,-0.003573,0.005351,0.000648,-41.75,5.06,11.68,2a
2019-07-15_143956:040,-0.49365200000000004,-0.033539,-0.056427,-0.003817,0.00648,0.000984,-41.75,5.06,11.68,2a
2019-07-15_143956:060,-0.492645,-0.032013,-0.052338,-0.0036950000000000004,0.0071519999999999995,0.001777,-41.369999,5.06,10.87,2a
2019-07-15_143956:080,-0.492126,-0.032532,-0.051849,-0.003237,0.007670999999999999,0.00251,-41.369999,5.06,10.87,2a
2019-07-15_143956:100,-0.48553500000000005,-0.033539,-0.051849,-0.0029010000000000004,0.007091,0.001106,-41.369999,5.06,11.25,2a
2019-07-15_143956:120,-0.482483,-0.030487,-0.052338,-0.0021079999999999996,0.005565,0.000496,-41.369999,5.06,11.25,2a
2019-07-15_143956:140,-0.486023,-0.03302,-0.052338,-0.0015890000000000001,0.00352,0.001503,-41.369999,5.06,11.25,2a
2019-07-15_143956:160,-0.48706099999999997,-0.033539,-0.05285599999999999,-0.001192,0.0023,0.001381,-41.369999,4.68,11.25,2a
2019-07-15_143956:180,-0.48858599999999996,-0.031494,-0.05438200000000001,-0.000796,0.0012619999999999999,0.000923,-41.369999,4.68,11.25,2a
2019-07-15_143956:200,-0.485016,-0.032013,-0.057434000000000006,-0.00045999999999999996,0.000499,0.001045,-41.369999,5.06,11.68,2a
2019-07-15_143956:220,-0.48095699999999997,-0.026917,-0.062012,-0.001131,-0.001027,0.002052,-41.369999,5.06,11.68,2a
2019-07-15_143956:240,-0.482483,-0.028961,-0.062012,-0.002169,-0.003041,0.0043100000000000005,-41.369999,5.06,11.68,2a
2019-07-15_143956:260,-0.492126,-0.032013,-0.065063,-0.003817,-0.004231,0.0037,-41.0,4.68,12.5,2a
2019-07-15_143956:280,-0.498749,-0.035583,-0.065582,-0.0051600000000000005,-0.004292,0.002754,-41.0,4.68,12.5,2a
2019-07-15_143956:300,-0.5058590000000001,-0.042694,-0.065063,-0.005678,-0.003621,0.0030280000000000003,-41.369999,4.68,12.06,2a
2019-07-15_143956:320,-0.507904,-0.044739,-0.06149299999999999,-0.005556,-0.001363,0.002113,-41.369999,4.68,12.06,2a
2019-07-15_143956:340,-0.503326,-0.043213,-0.059479,-0.004152,0.0012619999999999999,0.001258,-41.369999,4.68,12.06,2a
2019-07-15_143956:360,-0.49823,-0.042694,-0.058441,-0.0028399999999999996,0.0034289999999999998,0.0007700000000000001,-40.68,5.06,11.25,2a
2019-07-15_143956:380,-0.48706099999999997,-0.038116000000000004,-0.056427,-0.0015279999999999998,0.004375,-0.00011499999999999999,-40.68,5.06,11.25,2a
2019-07-15_143956:400,-0.48553500000000005,-0.035583,-0.056427,-0.0006730000000000001,0.003825,-0.000267,-41.369999,5.06,11.25,2a
2019-07-15_143956:420,-0.48754899999999995,-0.031006,-0.055389,-0.000185,0.0024519999999999998,0.000526,-41.369999,5.06,11.25,2a
2019-07-15_143956:440,-0.488068,-0.028442000000000002,-0.058441,-0.000277,0.00114,0.000984,-41.369999,5.06,11.25,2a
2019-07-15_143956:460,-0.491638,-0.027954000000000003,-0.058441,-0.0009789999999999998,0.000133,0.000984,-41.0,5.06,11.68,2a
2019-07-15_143956:480,-0.492645,-0.027435,-0.057953,-0.0017109999999999998,-0.00044699999999999997,0.000923,-41.0,5.06,11.68,2a
2019-07-15_143956:500,-0.492645,-0.028442000000000002,-0.061005,-0.002657,-0.000386,0.000221,-41.75,5.68,11.68,2a
2019-07-15_143956:520,-0.49468999999999996,-0.029968,-0.062012,-0.0033280000000000002,-0.000325,0.000404,-41.75,5.68,11.68,2a
2019-07-15_143956:540,-0.49517799999999995,-0.032532,-0.063538,-0.0032979999999999997,-0.00011100000000000001,0.000404,-41.75,5.68,11.68,2a
2019-07-15_143956:560,-0.49517799999999995,-0.032013,-0.065582,-0.003054,0.000133,0.000221,-41.0,5.37,11.25,2a
2019-07-15_143956:580,-0.492645,-0.032013,-0.065582,-0.002932,0.000285,0.001258,-41.0,5.37,11.25,2a
2019-07-15_143956:600,-0.49316400000000005,-0.032013,-0.065063,-0.002779,0.000621,0.002388,-42.060001,4.25,11.25,2a
2019-07-15_143956:620,-0.49517799999999995,-0.034546,-0.063019,-0.00339,0.00114,0.00251,-42.060001,4.25,11.25,2a
2019-07-15_143956:640,-0.49365200000000004,-0.036072,-0.064545,-0.0036950000000000004,0.001537,0.0026320000000000002,-42.060001,4.25,11.25,2a
2019-07-15_143956:660,-0.489075,-0.039124,-0.065582,-0.003878,0.001994,0.002754,-41.0,5.06,10.87,2a
2019-07-15_143956:680,-0.48858599999999996,-0.040649,-0.06405599999999999,-0.0036950000000000004,0.001842,0.002113,-41.0,5.06,10.87,2a
2019-07-15_143956:700,-0.489075,-0.042694,-0.066589,-0.0033280000000000002,0.000865,0.001106,-41.75,5.75,11.68,2a
2019-07-15_143956:720,-0.494171,-0.042694,-0.065582,-0.0032979999999999997,0.000346,0.000587,-41.75,5.75,11.68,2a
2019-07-15_143956:740,-0.496216,-0.041687,-0.06405599999999999,-0.0025050000000000003,0.000285,0.00028199999999999997,-41.75,5.75,11.68,2a
2019-07-15_143956:760,-0.497742,-0.041687,-0.065582,-0.002199,0.0008039999999999999,0.000343,-41.75,5.75,11.25,2a
2019-07-15_143956:780,-0.49468999999999996,-0.039124,-0.060486,-0.001986,0.0024519999999999998,0.000648,-41.75,5.75,11.25,2a
2019-07-15_143956:800,-0.48858599999999996,-0.037598,-0.062012,-0.0020469999999999998,0.0024519999999999998,0.002449,-41.369999,5.37,11.25,2a
2019-07-15_143956:820,-0.48706099999999997,-0.041168,-0.063019,-0.0018030000000000001,0.0016589999999999999,0.001625,-41.369999,5.37,11.25,2a
2019-07-15_143956:840,-0.48654200000000003,-0.041168,-0.063538,-0.002199,0.000285,0.00028199999999999997,-41.369999,5.37,11.25,2a
2019-07-15_143956:860,-0.49111899999999997,-0.040649,-0.063538,-0.002169,-0.0009660000000000001,0.002235,-42.18,5.75,10.87,2a
2019-07-15_143956:880,-0.496216,-0.043213,-0.061005,-0.002199,-0.000722,0.002571,-42.18,5.75,10.87,2a
2019-07-15_143956:900,-0.49517799999999995,-0.043701,-0.06149299999999999,-0.001772,0.000407,0.0007700000000000001,-41.369999,5.37,10.5,2a
2019-07-15_143956:920,-0.496704,-0.041687,-0.062012,-0.000734,0.001353,0.00016,-41.369999,5.37,10.5,2a
2019-07-15_143956:940,-0.48754899999999995,-0.041687,-0.065063,-2e-06,0.001018,-0.00011499999999999999,-41.369999,5.37,10.5,2a
2019-07-15_143956:960,-0.486023,-0.038635,-0.065063,0.000151,-0.000386,0.000496,-41.369999,5.06,10.87,2a
2019-07-15_143956:980,-0.48654200000000003,-0.043213,-0.066071,0.00073,-0.001576,0.0021739999999999997,-41.369999,5.06,10.87,2a
2019-07-15_143957:000,-0.492126,-0.042694,-0.067108,0.001066,-0.002431,0.002113,-41.369999,4.68,10.87,2a
2019-07-15_143957:020,-0.49468999999999996,-0.041168,-0.066071,0.001524,-0.002034,0.001991,-41.369999,4.68,10.87,2a
2019-07-15_143957:040,-0.49468999999999996,-0.039124,-0.067596,0.001188,-0.001118,0.0026320000000000002,-41.369999,4.68,10.87,2a
2019-07-15_143957:060,-0.49517799999999995,-0.038635,-0.07016,0.000547,-0.000722,0.002357,-41.369999,4.68,10.87,2a
2019-07-15_143957:080,-0.49316400000000005,-0.039642000000000004,-0.068115,-0.000124,1.1e-05,0.00251,-41.369999,4.68,10.87,2a
2019-07-15_143957:100,-0.49468999999999996,-0.039124,-0.067108,-0.000918,0.000468,0.001381,-41.75,5.37,10.5,2a
2019-07-15_143957:120,-0.49517799999999995,-0.038116000000000004,-0.067108,-0.0017109999999999998,0.0009570000000000001,-0.00011499999999999999,-41.75,5.37,10.5,2a
2019-07-15_143957:140,-0.492126,-0.038116000000000004,-0.068115,-0.002382,0.001018,-0.000176,-41.75,5.37,10.5,2a
2019-07-15_143957:160,-0.491638,-0.039642000000000004,-0.068115,-0.002932,0.000743,-0.000267,-41.369999,5.75,10.87,2a
2019-07-15_143957:180,-0.491638,-0.038116000000000004,-0.069641,-0.00339,0.000682,-0.000634,-41.369999,5.75,10.87,2a
2019-07-15_143957:200,-0.49111899999999997,-0.038116000000000004,-0.071167,-0.0034509999999999996,0.00056,-0.00045099999999999996,-41.369999,5.68,10.5,2a
2019-07-15_143957:220,-0.49111899999999997,-0.037598,-0.070648,-0.003878,0.000346,-0.000725,-41.369999,5.68,10.5,2a
2019-07-15_143957:240,-0.492126,-0.037598,-0.071686,-0.00403,0.000499,-0.000725,-41.369999,5.68,10.5,2a
2019-07-15_143957:260,-0.492645,-0.037598,-0.070648,-0.004336,0.00056,-0.00023700000000000001,-41.369999,5.75,9.68,2a
2019-07-15_143957:280,-0.49365200000000004,-0.037598,-0.070648,-0.004824,0.000499,6.8e-05,-41.369999,5.75,9.68,2a
2019-07-15_143957:300,-0.49365200000000004,-0.039124,-0.069641,-0.005221,0.000865,0.0007700000000000001,-42.18,5.75,10.18,2a
2019-07-15_143957:320,-0.495697,-0.039124,-0.069122,-0.0056170000000000005,0.001292,0.001381,-42.18,5.75,10.18,2a
2019-07-15_143957:340,-0.494171,-0.040161,-0.069641,-0.0058,0.0016589999999999999,0.001258,-42.18,5.75,10.18,2a
2019-07-15_143957:360,-0.492126,-0.041687,-0.067108,-0.005922,0.002177,0.001228,-41.75,5.06,10.18,2a
2019-07-15_143957:380,-0.490112,-0.043701,-0.067596,-0.0056170000000000005,0.002239,0.000923,-41.75,5.06,10.18,2a
2019-07-15_143957:400,-0.48858599999999996,-0.043213,-0.066589,-0.0056170000000000005,0.002116,0.000465,-41.75,5.06,11.25,2a
2019-07-15_143957:420,-0.48858599999999996,-0.043213,-0.067108,-0.005404,0.00114,0.000221,-41.75,5.06,11.25,2a
2019-07-15_143957:440,-0.492126,-0.043213,-0.067108,-0.005282,0.000499,-0.000664,-41.75,5.06,11.25,2a
2019-07-15_143957:460,-0.495697,-0.043701,-0.068115,-0.0051600000000000005,0.000133,-0.000664,-41.369999,5.37,10.5,2a
2019-07-15_143957:480,-0.496704,-0.043701,-0.066071,-0.0048850000000000005,0.000621,-0.000512,-41.369999,5.37,10.5,2a
2019-07-15_143957:500,-0.49823,-0.043701,-0.066071,-0.0048850000000000005,0.0019030000000000002,-0.0009689999999999999,-41.75,5.37,11.25,2a
2019-07-15_143957:520,-0.49111899999999997,-0.042694,-0.067596,-0.004427,0.002513,0.000465,-41.75,5.37,11.25,2a
2019-07-15_143957:540,-0.49111899999999997,-0.044219999999999995,-0.068115,-0.003939,0.0024519999999999998,0.000343,-41.75,5.37,11.25,2a
2019-07-15_143957:560,-0.48654200000000003,-0.042175,-0.068115,-0.0034509999999999996,0.001964,-0.001458,-41.0,5.37,11.68,2a
2019-07-15_143957:580,-0.48706099999999997,-0.041168,-0.067596,-0.002932,0.0012619999999999999,-0.0008470000000000001,-41.0,5.37,11.68,2a
2019-07-15_143957:600,-0.492645,-0.040161,-0.07016,-0.002779,0.000682,-0.00023700000000000001,-41.369999,5.37,10.18,2a
2019-07-15_143957:620,-0.492126,-0.039124,-0.07016,-0.002535,0.000865,-0.000725,-41.369999,5.37,10.18,2a
2019-07-15_143957:640,-0.492645,-0.036591000000000005,-0.072174,-0.002657,0.001598,-0.0011220000000000002,-41.369999,5.37,10.18,2a
2019-07-15_143957:660,-0.492645,-0.035065,-0.071686,-0.003054,0.00172,-0.001366,-41.75,4.25,10.87,2a
2019-07-15_143957:680,-0.49316400000000005,-0.036072,-0.070648,-0.003176,0.001994,-0.000573,-41.75,4.25,10.87,2a
2019-07-15_143957:700,-0.49365200000000004,-0.037598,-0.07016,-0.0031149999999999997,0.002177,-0.000176,-42.18,5.06,10.18,2a
2019-07-15_143957:720,-0.49111899999999997,-0.036591000000000005,-0.068115,-0.002932,0.002055,0.00016,-42.18,5.06,10.18,2a
2019-07-15_143957:740,-0.492645,-0.035583,-0.07016,-0.002718,0.0023,0.000648,-42.18,5.06,10.18,2a
2019-07-15_143957:760,-0.49316400000000005,-0.035583,-0.068634,-0.0028399999999999996,0.0019030000000000002,0.001228,-41.0,5.37,10.87,2a
2019-07-15_143957:780,-0.494171,-0.036072,-0.068115,-0.0032979999999999997,0.002055,0.0021739999999999997,-41.0,5.37,10.87,2a
2019-07-15_143957:800,-0.49111899999999997,-0.034546,-0.068115,-0.00403,0.0016589999999999999,0.002845,-41.369999,5.06,11.25,2a
2019-07-15_143957:820,-0.489075,-0.037108999999999996,-0.066589,-0.004824,0.001628,0.002449,-41.369999,5.06,11.25,2a
2019-07-15_143957:840,-0.489075,-0.038116000000000004,-0.068634,-0.005739,0.001598,0.001503,-41.369999,5.06,11.25,2a
2019-07-15_143957:860,-0.48754899999999995,-0.040649,-0.071167,-0.006014,0.001018,0.001258,-41.0,5.37,10.87,2a
2019-07-15_143957:880,-0.490601,-0.042175,-0.069641,-0.005953,0.000743,0.000923,-41.0,5.37,10.87,2a
2019-07-15_143957:900,-0.49365200000000004,-0.042175,-0.07016,-0.005556,0.000865,0.000465,-41.75,5.06,11.25,2a
2019-07-15_143957:920,-0.49468999999999996,-0.043701,-0.068634,-0.004824,0.00114,0.00028199999999999997,-41.75,5.06,11.25,2a
2019-07-15_143957:940,-0.494171,-0.043701,-0.07016,-0.004,0.00172,0.000404,-41.75,5.06,11.25,2a
2019-07-15_143957:960,-0.492126,-0.041168,-0.070648,-0.0033280000000000002,0.001994,0.000648,-41.0,5.37,11.68,2a
2019-07-15_143957:980,-0.492126,-0.039642000000000004,-0.068115,-0.002443,0.002361,0.000923,-41.0,5.37,11.68,2a
2019-07-15_143958:000,-0.48858599999999996,-0.038116000000000004,-0.069641,-0.002199,0.001964,0.000984,-41.75,6.06,10.18,2a
2019-07-15_143958:020,-0.490112,-0.037598,-0.068115,-0.002169,0.001537,0.001442,-41.75,6.06,10.18,2a
2019-07-15_143958:040,-0.490601,-0.037108999999999996,-0.069641,-0.002535,0.0010789999999999999,0.001777,-41.75,6.06,10.18,2a
2019-07-15_143958:060,-0.49111899999999997,-0.036591000000000005,-0.067596,-0.0031149999999999997,0.000865,0.00196,-41.369999,6.06,10.5,2a
2019-07-15_143958:080,-0.49111899999999997,-0.039124,-0.067596,-0.003939,0.0008960000000000001,0.002052,-41.369999,6.06,10.5,2a
2019-07-15_143958:100,-0.492126,-0.039124,-0.07016,-0.004549,0.0009570000000000001,0.002113,-41.369999,5.75,10.5,2a
2019-07-15_143958:120,-0.49316400000000005,-0.041168,-0.066071,-0.004946,0.0009570000000000001,0.002113,-41.369999,5.75,10.5,2a
2019-07-15_143958:140,-0.492645,-0.043701,-0.068634,-0.005068,0.001201,0.0018989999999999999,-41.369999,5.75,10.5,2a
2019-07-15_143958:160,-0.490601,-0.045226999999999996,-0.069641,-0.005221,0.001201,0.001503,-41.369999,5.06,10.87,2a
2019-07-15_143958:180,-0.49111899999999997,-0.045226999999999996,-0.068115,-0.004732,0.001415,0.001258,-41.369999,5.06,10.87,2a
2019-07-15_143958:200,-0.492126,-0.045226999999999996,-0.070648,-0.004213000000000001,0.001415,0.000923,-41.0,6.06,12.06,2a
2019-07-15_143958:220,-0.49316400000000005,-0.043701,-0.069641,-0.003878,0.001415,0.000526,-41.0,6.06,12.06,2a
2019-07-15_143958:240,-0.49316400000000005,-0.043701,-0.07016,-0.0036340000000000005,0.0014759999999999999,0.0008619999999999999,-41.0,6.06,12.06,2a
2019-07-15_143958:260,-0.49468999999999996,-0.043213,-0.069641,-0.0034509999999999996,0.001628,0.000587,-41.0,5.68,10.18,2a
2019-07-15_143958:280,-0.48754899999999995,-0.039124,-0.069122,-0.0036340000000000005,0.0019030000000000002,0.001625,-41.0,5.68,10.18,2a
2019-07-15_143958:300,-0.489075,-0.041168,-0.072174,-0.004275,0.001537,0.002967,-41.369999,5.06,9.68,2a
2019-07-15_143958:320,-0.48858599999999996,-0.040161,-0.069641,-0.005068,0.000865,0.001167,-41.369999,5.06,9.68,2a
2019-07-15_143958:340,-0.48858599999999996,-0.041168,-0.071686,-0.005556,1.1e-05,0.001258,-41.369999,5.06,9.68,2a
2019-07-15_143958:360,-0.489594,-0.044739,-0.071686,-0.005953,-5e-05,0.00196,-41.369999,5.37,10.18,2a
2019-07-15_143958:380,-0.491638,-0.045745999999999995,-0.071167,-0.005861,1.1e-05,0.00132,-41.369999,5.37,10.18,2a
2019-07-15_143958:400,-0.491638,-0.047791,-0.072693,-0.005526,1.1e-05,0.0008619999999999999,-41.0,6.5,10.5,2a
2019-07-15_143958:420,-0.49111899999999997,-0.047272,-0.071686,-0.005007,7.2e-05,0.00016,-41.0,6.5,10.5,2a
2019-07-15_143958:440,-0.490601,-0.046752999999999996,-0.072174,-0.004213000000000001,-0.00011100000000000001,0.000465,-41.0,6.5,10.5,2a
2019-07-15_143958:460,-0.491638,-0.047791,-0.072693,-0.00339,-0.00011100000000000001,0.000831,-41.369999,6.06,11.25,2a
2019-07-15_143958:480,-0.494171,-0.046265,-0.071686,-0.002657,7.2e-05,0.000526,-41.369999,6.06,11.25,2a
2019-07-15_143958:500,-0.49365200000000004,-0.043701,-0.071686,-0.002382,0.000346,0.000465,-41.75,6.06,10.5,2a
2019-07-15_143958:520,-0.49111899999999997,-0.041168,-0.071686,-0.0022600000000000003,0.000865,0.0007700000000000001,-41.75,6.06,10.5,2a
2019-07-15_143958:540,-0.492645,-0.042694,-0.072693,-0.002535,0.000865,0.000831,-41.75,6.06,10.5,2a
2019-07-15_143958:560,-0.49365200000000004,-0.041168,-0.072174,-0.0031149999999999997,0.0010789999999999999,0.000496,-41.75,6.5,10.5,2a
2019-07-15_143958:580,-0.490112,-0.041687,-0.071686,-0.0034509999999999996,0.001537,0.000648,-41.75,6.5,10.5,2a
2019-07-15_143958:600,-0.48654200000000003,-0.043701,-0.072693,-0.003817,0.001292,0.0007700000000000001,-41.0,5.75,9.68,2a
2019-07-15_143958:620,-0.488068,-0.045226999999999996,-0.072174,-0.003939,0.000743,0.000465,-41.0,5.75,9.68,2a
2019-07-15_143958:640,-0.48754899999999995,-0.047272,-0.076263,-0.003573,7.2e-05,0.0007700000000000001,-41.0,5.75,9.68,2a
2019-07-15_143958:660,-0.489594,-0.048798,-0.077271,-0.003054,-0.000508,0.000587,-41.369999,5.37,10.5,2a
2019-07-15_143958:680,-0.494171,-0.045226999999999996,-0.07421900000000001,-0.0020469999999999998,-0.000386,0.000526,-41.369999,5.37,10.5,2a
2019-07-15_143958:700,-0.496216,-0.044219999999999995,-0.074738,-0.001864,0.00022400000000000002,0.000221,-41.369999,6.5,10.5,2a
2019-07-15_143958:720,-0.495697,-0.043213,-0.075226,-0.0021079999999999996,0.001018,-0.000512,-41.369999,6.5,10.5,2a
2019-07-15_143958:740,-0.489594,-0.041168,-0.07775900000000001,-0.002718,0.0017809999999999998,-0.000786,-41.369999,6.5,10.5,2a
2019-07-15_143958:760,-0.48654200000000003,-0.043701,-0.07775900000000001,-0.0032979999999999997,0.00172,-0.00011499999999999999,-41.75,5.75,9.25,2a
2019-07-15_143958:780,-0.48754899999999995,-0.044219999999999995,-0.076263,-0.003176,0.00114,0.000496,-41.75,5.75,9.25,2a
2019-07-15_143958:800,-0.489075,-0.047272,-0.076752,-0.002779,0.000499,0.000923,-41.75,6.06,9.68,2a
2019-07-15_143958:820,-0.492645,-0.049316000000000006,-0.073212,-0.0018030000000000001,0.000285,0.001106,-41.75,6.06,9.68,2a
2019-07-15_143958:840,-0.49111899999999997,-0.048798,-0.073212,-0.000796,0.000499,0.001167,-41.75,6.06,9.68,2a
2019-07-15_143958:860,-0.490601,-0.050323,-0.072693,0.000151,0.000285,0.000984,-41.75,5.68,9.25,2a
2019-07-15_143958:880,-0.48858599999999996,-0.048279,-0.07421900000000001,0.0016760000000000002,-0.000264,0.001106,-41.75,5.68,9.25,2a
2019-07-15_143958:900,-0.490112,-0.041168,-0.073212,0.002531,-0.0007830000000000001,0.001228,-42.060001,5.68,10.87,2a
2019-07-15_143958:920,-0.494171,-0.038116000000000004,-0.072693,0.00186,-0.0005690000000000001,0.000984,-42.060001,5.68,10.87,2a
2019-07-15_143958:940,-0.494171,-0.042694,-0.077271,0.000151,-0.000325,0.0008619999999999999,-42.060001,5.68,10.87,2a
2019-07-15_143958:960,-0.49517799999999995,-0.048798,-0.075226,-0.000857,1.1e-05,0.000648,-42.060001,5.68,10.5,2a
2019-07-15_143958:980,-0.49517799999999995,-0.047272,-0.0737,-0.000124,0.000743,0.001564,-42.060001,5.68,10.5,2a
2019-07-15_143959:000,-0.497742,-0.046265,-0.07775900000000001,0.001127,0.0016589999999999999,0.0022960000000000003,-42.060001,5.37,10.87,2a
2019-07-15_143959:020,-0.490601,-0.039124,-0.079803,0.000883,0.002788,0.000648,-42.060001,5.37,10.87,2a
2019-07-15_143959:040,-0.488068,-0.036591000000000005,-0.079803,-0.000338,0.003032,0.000404,-42.060001,5.37,10.87,2a
2019-07-15_143959:060,-0.488068,-0.038116000000000004,-0.07775900000000001,-0.001864,0.0024519999999999998,0.000984,-42.5,5.68,10.87,2a
2019-07-15_143959:080,-0.49111899999999997,-0.042694,-0.076752,-0.0031149999999999997,0.002116,0.000831,-42.5,5.68,10.87,2a
2019-07-15_143959:100,-0.49517799999999995,-0.043701,-0.075745,-0.0036340000000000005,0.0024519999999999998,0.00016,-41.0,5.37,9.68,2a
2019-07-15_143959:120,-0.49111899999999997,-0.042175,-0.075745,-0.00403,0.003032,0.001442,-41.0,5.37,9.68,2a
2019-07-15_143959:140,-0.492126,-0.042694,-0.07775900000000001,-0.004671,0.002788,0.003181,-41.0,5.37,9.68,2a
2019-07-15_143959:160,-0.490112,-0.043701,-0.078278,-0.0058,0.002696,0.001777,-41.369999,6.06,10.5,2a
2019-07-15_143959:180,-0.489594,-0.047272,-0.076263,-0.006319,0.002239,0.001564,-41.369999,6.06,10.5,2a
2019-07-15_143959:200,-0.490112,-0.050323,-0.077271,-0.006411,0.002391,0.0022960000000000003,-41.75,5.75,10.5,2a
2019-07-15_143959:220,-0.490112,-0.051849,-0.076263,-0.005922,0.002391,0.001228,-41.75,5.75,10.5,2a
2019-07-15_143959:240,-0.489594,-0.051849,-0.077271,-0.005129,0.0024519999999999998,0.0007700000000000001,-41.75,5.75,10.5,2a
2019-07-15_143959:260,-0.49111899999999997,-0.051849,-0.075226,-0.004275,0.002696,0.000343,-41.75,5.68,10.87,2a
2019-07-15_143959:280,-0.49111899999999997,-0.050323,-0.075226,-0.003573,0.002635,0.000221,-41.75,5.68,10.87,2a
2019-07-15_143959:300,-0.492645,-0.048279,-0.07421900000000001,-0.003176,0.002788,0.0007700000000000001,-40.68,6.06,9.68,2a
2019-07-15_143959:320,-0.492645,-0.047791,-0.071686,-0.002932,0.002696,0.000831,-40.68,6.06,9.68,2a
2019-07-15_143959:340,-0.49316400000000005,-0.045226999999999996,-0.071686,-0.003054,0.003032,0.001106,-40.68,6.06,9.68,2a
2019-07-15_143959:360,-0.489594,-0.042175,-0.071686,-0.004,0.002971,0.001258,-41.369999,6.5,10.87,2a
2019-07-15_143959:380,-0.49316400000000005,-0.041168,-0.069641,-0.005343,0.003032,0.001167,-41.369999,6.5,10.87,2a
2019-07-15_143959:400,-0.490112,-0.045745999999999995,-0.070648,-0.006411,0.0031850000000000003,0.001564,-41.369999,6.06,10.18,2a
2019-07-15_143959:420,-0.488068,-0.047272,-0.070648,-0.006807,0.002849,0.001625,-41.369999,6.06,10.18,2a
2019-07-15_143959:440,-0.48349,-0.047791,-0.073212,-0.006869,0.002361,0.001625,-41.369999,6.06,10.18,2a
2019-07-15_143959:460,-0.486023,-0.047791,-0.073212,-0.006807,0.001415,0.001716,-41.0,5.68,10.18,2a
2019-07-15_143959:480,-0.49111899999999997,-0.048798,-0.072693,-0.006533,0.000285,0.0026320000000000002,-41.0,5.68,10.18,2a
2019-07-15_143959:500,-0.494171,-0.047272,-0.072174,-0.006533,0.000407,0.0030280000000000003,-42.5,5.37,10.5,2a
2019-07-15_143959:520,-0.49365200000000004,-0.047791,-0.072174,-0.006869,0.0008960000000000001,0.002845,-42.5,5.37,10.5,2a
2019-07-15_143959:540,-0.492645,-0.049316000000000006,-0.076263,-0.007204,0.001415,0.00251,-42.5,5.37,10.5,2a
2019-07-15_143959:560,-0.492645,-0.051849,-0.075745,-0.007326000000000001,0.001628,0.001503,-41.75,5.68,10.18,2a
2019-07-15_143959:580,-0.491638,-0.051330999999999995,-0.073212,-0.007204,0.001842,0.0008619999999999999,-41.75,5.68,10.18,2a
2019-07-15_143959:600,-0.490601,-0.051849,-0.0737,-0.0069299999999999995,0.0016589999999999999,0.000831,-41.0,6.5,9.68,2a
2019-07-15_143959:620,-0.489075,-0.053375,-0.071686,-0.006594,0.001842,0.0007700000000000001,-41.0,6.5,9.68,2a
2019-07-15_143959:640,-0.490112,-0.053375,-0.072693,-0.005953,0.0019030000000000002,0.000526,-41.0,6.5,9.68,2a
2019-07-15_143959:660,-0.489075,-0.052338,-0.071686,-0.005465,0.0014759999999999999,0.000526,-41.75,6.06,10.18,2a
2019-07-15_143959:680,-0.490112,-0.049805,-0.072693,-0.005007,0.001537,0.0007700000000000001,-41.75,6.06,10.18,2a
2019-07-15_143959:700,-0.490112,-0.050323,-0.0737,-0.005129,0.0010789999999999999,0.000984,-41.75,6.06,10.87,2a
2019-07-15_143959:720,-0.492126,-0.051849,-0.073212,-0.0048850000000000005,0.0009570000000000001,0.000923,-41.75,6.06,10.87,2a
2019-07-15_143959:740,-0.49517799999999995,-0.049805,-0.074738,-0.004793,0.001018,0.000648,-41.75,6.06,10.87,2a
2019-07-15_143959:760,-0.49823,-0.048798,-0.073212,-0.004732,0.001353,0.000404,-41.369999,7.18,10.18,2a
2019-07-15_143959:780,-0.49926800000000005,-0.048279,-0.071167,-0.004427,0.002635,6.8e-05,-41.369999,7.18,10.18,2a
2019-07-15_143959:800,-0.49722299999999997,-0.048279,-0.071686,-0.004549,0.003703,0.00028199999999999997,-42.060001,6.06,9.68,2a
2019-07-15_143959:820,-0.490112,-0.051849,-0.068634,-0.004488000000000001,0.00471,0.000526,-42.060001,6.06,9.68,2a
2019-07-15_143959:840,-0.485016,-0.051330999999999995,-0.071167,-0.00461,0.004497,0.000221,-42.060001,6.06,9.68,2a
2019-07-15_143959:860,-0.48553500000000005,-0.051849,-0.071167,-0.004213000000000001,0.00352,7.000000000000001e-06,-42.060001,5.68,10.18,2a
2019-07-15_143959:880,-0.486023,-0.05285599999999999,-0.070648,-0.003817,0.002696,-0.000573,-42.060001,5.68,10.18,2a
2019-07-15_143959:900,-0.48706099999999997,-0.05285599999999999,-0.071686,-0.0033280000000000002,0.0019030000000000002,-0.001702,-42.060001,6.06,10.5,2a
2019-07-15_143959:920,-0.48754899999999995,-0.051330999999999995,-0.071167,-0.002657,0.0014759999999999999,-0.001366,-42.060001,6.06,10.5,2a
2019-07-15_143959:940,-0.489594,-0.049805,-0.071167,-0.0018030000000000001,0.0012619999999999999,-0.000389,-42.060001,6.06,10.5,2a
2019-07-15_143959:960,-0.49316400000000005,-0.048798,-0.073212,-0.001467,0.001292,-0.00045099999999999996,-41.369999,6.87,10.18,2a
2019-07-15_143959:980,-0.48754899999999995,-0.046265,-0.071167,-0.001375,0.001537,0.001442,-41.369999,6.87,10.18,2a
2019-07-15_144000:000,-0.49316400000000005,-0.048279,-0.0737,-0.0021079999999999996,0.000346,0.001838,-42.060001,6.5,9.68,2a
2019-07-15_144000:020,-0.489075,-0.049316000000000006,-0.07421900000000001,-0.002535,0.000133,0.000648,-42.060001,6.5,9.68,2a
2019-07-15_144000:040,-0.49468999999999996,-0.047272,-0.07421900000000001,-0.003237,0.000133,0.001777,-42.060001,6.5,9.68,2a
2019-07-15_144000:060,-0.496216,-0.050323,-0.07421900000000001,-0.004,0.0009570000000000001,0.002357,-40.68,6.5,8.5,2a
2019-07-15_144000:080,-0.49316400000000005,-0.051330999999999995,-0.073212,-0.004549,0.002055,0.00196,-40.68,6.5,8.5,2a
2019-07-15_144000:100,-0.491638,-0.05285599999999999,-0.07421900000000001,-0.004671,0.002574,0.0018989999999999999,-42.5,5.68,8.5,2a
2019-07-15_144000:120,-0.490112,-0.056915,-0.072174,-0.004671,0.002635,0.001381,-42.5,5.68,8.5,2a
2019-07-15_144000:140,-0.489594,-0.057434000000000006,-0.073212,-0.004336,0.002635,0.001167,-42.5,5.68,8.5,2a
2019-07-15_144000:160,-0.490601,-0.060486,-0.072174,-0.0036340000000000005,0.002116,0.000587,-41.75,6.06,9.25,2a
2019-07-15_144000:180,-0.492645,-0.05996699999999999,-0.07016,-0.002779,0.001994,-0.000176,-41.75,6.06,9.25,2a
2019-07-15_144000:200,-0.49316400000000005,-0.058960000000000005,-0.071167,-0.001986,0.002116,-0.0009689999999999999,-41.75,6.06,9.68,2a
2019-07-15_144000:220,-0.49468999999999996,-0.056915,-0.069641,-0.001314,0.002574,-0.002098,-41.75,6.06,9.68,2a
2019-07-15_144000:240,-0.497742,-0.05285599999999999,-0.068634,-0.001131,0.003307,-0.0019149999999999998,-41.75,6.06,9.68,2a
2019-07-15_144000:260,-0.49316400000000005,-0.049805,-0.066071,-0.001467,0.003917,-0.0009689999999999999,-41.0,6.06,10.87,2a
2019-07-15_144000:280,-0.48858599999999996,-0.048798,-0.066071,-0.002199,0.0041,-0.0017929999999999999,-41.0,6.06,10.87,2a
2019-07-15_144000:300,-0.48349,-0.047791,-0.067596,-0.002657,0.003368,-0.0012439999999999999,-42.060001,6.5,10.87,2a
2019-07-15_144000:320,-0.484497,-0.048279,-0.067108,-0.0028399999999999996,0.0023,0.000343,-42.060001,6.5,10.87,2a
2019-07-15_144000:340,-0.48553500000000005,-0.051330999999999995,-0.069641,-0.002779,0.001018,0.000648,-42.060001,6.5,10.87,2a
2019-07-15_144000:360,-0.48754899999999995,-0.051849,-0.068115,-0.0021079999999999996,1.1e-05,0.000526,-41.369999,6.06,11.25,2a
2019-07-15_144000:380,-0.489075,-0.051330999999999995,-0.069641,-0.001009,-0.00044699999999999997,6.8e-05,-41.369999,6.06,11.25,2a
2019-07-15_144000:400,-0.495697,-0.049805,-0.071686,-0.000521,-0.000508,-0.001702,-41.75,6.06,10.18,2a
2019-07-15_144000:420,-0.496216,-0.046752999999999996,-0.071167,-0.000338,0.00016299999999999998,-0.001641,-41.75,6.06,10.18,2a
2019-07-15_144000:440,-0.49365200000000004,-0.045745999999999995,-0.071686,-0.000338,0.00114,-0.000573,-41.75,6.06,10.18,2a
2019-07-15_144000:460,-0.49316400000000005,-0.043701,-0.071686,-0.000918,0.0016589999999999999,-0.000512,-41.75,6.5,10.5,2a
2019-07-15_144000:480,-0.489075,-0.043701,-0.072693,-0.001467,0.001292,7.000000000000001e-06,-41.75,6.5,10.5,2a
2019-07-15_144000:500,-0.490601,-0.045745999999999995,-0.0737,-0.0015279999999999998,0.000865,-0.0008470000000000001,-41.75,5.68,10.87,2a
2019-07-15_144000:520,-0.49316400000000005,-0.044219999999999995,-0.074738,-0.0015890000000000001,0.001292,-0.000908,-41.75,5.68,10.87,2a
2019-07-15_144000:540,-0.49722299999999997,-0.043213,-0.070648,-0.0018030000000000001,0.002239,0.0008619999999999999,-41.75,5.68,10.87,2a
2019-07-15_144000:560,-0.49926800000000005,-0.043213,-0.070648,-0.002932,0.003368,0.002052,-41.75,6.5,10.87,2a
2019-07-15_144000:580,-0.494171,-0.043213,-0.069122,-0.0037560000000000002,0.003917,0.0030280000000000003,-41.75,6.5,10.87,2a
2019-07-15_144000:600,-0.49316400000000005,-0.044219999999999995,-0.069122,-0.004549,0.003917,0.002754,-41.0,5.68,10.18,2a
2019-07-15_144000:620,-0.48858599999999996,-0.046265,-0.069122,-0.004946,0.003368,0.0018989999999999999,-41.0,5.68,10.18,2a
2019-07-15_144000:640,-0.489075,-0.048279,-0.068634,-0.005404,0.003032,0.000984,-41.0,5.68,10.18,2a
2019-07-15_144000:660,-0.488068,-0.047791,-0.067596,-0.005526,0.002788,0.000526,-41.369999,6.06,11.68,2a
2019-07-15_144000:680,-0.491638,-0.048279,-0.066589,-0.0056170000000000005,0.002757,0.000648,-41.369999,6.06,11.68,2a
2019-07-15_144000:700,-0.492645,-0.046265,-0.066589,-0.005465,0.002971,0.000404,-41.369999,5.37,10.87,2a
2019-07-15_144000:720,-0.492645,-0.048279,-0.066589,-0.005282,0.002757,-0.00023700000000000001,-41.369999,5.37,10.87,2a
2019-07-15_144000:740,-0.492126,-0.046265,-0.063538,-0.005007,0.002574,-0.0013050000000000002,-41.369999,5.37,10.87,2a
2019-07-15_144000:760,-0.494171,-0.045745999999999995,-0.064545,-0.005129,0.002635,-0.000664,-41.369999,5.06,10.5,2a
2019-07-15_144000:780,-0.49111899999999997,-0.045745999999999995,-0.065063,-0.005129,0.0024519999999999998,0.00132,-41.369999,5.06,10.5,2a
2019-07-15_144000:800,-0.49111899999999997,-0.048279,-0.065063,-0.004946,0.0023,-5.4000000000000005e-05,-42.060001,6.06,11.25,2a
2019-07-15_144000:820,-0.489594,-0.049316000000000006,-0.064545,-0.004824,0.0019030000000000002,-0.001702,-42.060001,6.06,11.25,2a
2019-07-15_144000:840,-0.48706099999999997,-0.048279,-0.064545,-0.004732,0.001353,-0.000328,-42.060001,6.06,11.25,2a
2019-07-15_144000:860,-0.492126,-0.049805,-0.067108,-0.004946,0.001537,0.000343,-41.0,5.68,11.68,2a
2019-07-15_144000:880,-0.492645,-0.048798,-0.068634,-0.0048850000000000005,0.0016589999999999999,0.000648,-41.0,5.68,11.68,2a
2019-07-15_144000:900,-0.48858599999999996,-0.053375,-0.069122,-0.004152,0.001598,0.000496,-41.0,5.06,10.87,2a
2019-07-15_144000:920,-0.48754899999999995,-0.05285599999999999,-0.069641,-0.003573,0.001018,0.000404,-41.0,5.06,10.87,2a
2019-07-15_144000:940,-0.491638,-0.051849,-0.069122,-0.0028399999999999996,0.000621,0.000404,-41.0,5.06,10.87,2a
2019-07-15_144000:960,-0.49111899999999997,-0.052338,-0.07016,-0.002169,0.0008039999999999999,0.00016,-41.75,5.68,10.18,2a
2019-07-15_144000:980,-0.492645,-0.049316000000000006,-0.07016,-0.0017109999999999998,0.0008960000000000001,0.000496,-41.75,5.68,10.18,2a
2019-07-15_144001:000,-0.492126,-0.048798,-0.069641,-0.001375,0.0009570000000000001,0.000648,-41.75,6.06,10.5,2a
2019-07-15_144001:020,-0.492645,-0.046752999999999996,-0.069122,-0.0020469999999999998,0.0010789999999999999,0.000526,-41.75,6.06,10.5,2a
2019-07-15_144001:040,-0.491638,-0.044739,-0.067596,-0.0029010000000000004,0.001018,0.001106,-41.75,6.06,10.5,2a
2019-07-15_144001:060,-0.494171,-0.045226999999999996,-0.067108,-0.004091,0.001415,0.001442,-41.0,5.68,10.87,2a
2019-07-15_144001:080,-0.49365200000000004,-0.047272,-0.065582,-0.004946,0.001628,0.001716,-41.0,5.68,10.87,2a
2019-07-15_144001:100,-0.489594,-0.051849,-0.066589,-0.005282,0.0019030000000000002,0.001503,-41.369999,5.68,10.87,2a
2019-07-15_144001:120,-0.491638,-0.05285599999999999,-0.066071,-0.005007,0.001628,0.001258,-41.369999,5.68,10.87,2a
2019-07-15_144001:140,-0.492126,-0.052338,-0.068115,-0.004427,0.001598,0.001045,-41.369999,5.68,10.87,2a
2019-07-15_144001:160,-0.492645,-0.051330999999999995,-0.07016,-0.003878,0.001628,0.00028199999999999997,-42.060001,6.06,10.87,2a
2019-07-15_144001:180,-0.490601,-0.050323,-0.069122,-0.0032979999999999997,0.0016589999999999999,6.8e-05,-42.060001,6.06,10.87,2a
2019-07-15_144001:200,-0.48754899999999995,-0.049316000000000006,-0.068634,-0.002718,0.001415,-0.000512,-41.0,6.5,10.5,2a
2019-07-15_144001:220,-0.489075,-0.046265,-0.069122,-0.002199,0.00114,-0.000634,-41.0,6.5,10.5,2a
2019-07-15_144001:240,-0.49365200000000004,-0.045226999999999996,-0.067596,-0.0021079999999999996,0.001415,-5.4000000000000005e-05,-41.0,6.5,10.5,2a
2019-07-15_144001:260,-0.496216,-0.042694,-0.068634,-0.002199,0.001415,0.000129,-41.369999,6.5,10.5,2a
2019-07-15_144001:280,-0.49468999999999996,-0.042694,-0.067108,-0.0028399999999999996,0.002361,-0.000176,-41.369999,6.5,10.5,2a
2019-07-15_144001:300,-0.49316400000000005,-0.042694,-0.067108,-0.00339,0.002361,7.000000000000001e-06,-42.060001,6.87,10.5,2a
2019-07-15_144001:320,-0.490112,-0.045226999999999996,-0.066071,-0.003817,0.002361,0.000831,-42.060001,6.87,10.5,2a
2019-07-15_144001:340,-0.489075,-0.045745999999999995,-0.065063,-0.003939,0.002055,0.001564,-42.060001,6.87,10.5,2a
2019-07-15_144001:360,-0.488068,-0.048279,-0.066589,-0.003878,0.0014759999999999999,0.001228,-41.369999,5.06,10.5,2a
2019-07-15_144001:380,-0.48858599999999996,-0.048798,-0.066589,-0.0034509999999999996,0.000499,0.000831,-41.369999,5.06,10.5,2a
2019-07-15_144001:400,-0.489594,-0.048798,-0.067108,-0.0033280000000000002,0.000346,0.000709,-41.369999,5.68,10.5,2a
2019-07-15_144001:420,-0.491638,-0.046752999999999996,-0.066071,-0.003237,-0.00011100000000000001,0.001442,-41.369999,5.68,10.5,2a
2019-07-15_144001:440,-0.492126,-0.048279,-0.067108,-0.0034509999999999996,7.2e-05,0.001655,-41.369999,5.68,10.5,2a
2019-07-15_144001:460,-0.492126,-0.048798,-0.067596,-0.00339,7.2e-05,0.001503,-40.68,5.68,10.5,2a
2019-07-15_144001:480,-0.490601,-0.049316000000000006,-0.067596,-0.003237,-0.000386,0.001045,-40.68,5.68,10.5,2a
2019-07-15_144001:500,-0.489594,-0.049316000000000006,-0.067108,-0.00339,-0.0005690000000000001,0.001228,-41.75,5.37,9.25,2a
2019-07-15_144001:520,-0.49111899999999997,-0.049316000000000006,-0.067596,-0.0037560000000000002,-0.000722,0.001228,-41.75,5.37,9.25,2a
2019-07-15_144001:540,-0.494171,-0.051330999999999995,-0.065582,-0.004091,-0.000325,0.000709,-41.75,5.37,9.25,2a
2019-07-15_144001:560,-0.492126,-0.051849,-0.068115,-0.004336,-0.00011100000000000001,0.000587,-40.68,6.06,11.25,2a
2019-07-15_144001:580,-0.490601,-0.051849,-0.068634,-0.004091,-0.00011100000000000001,-0.000389,-40.68,6.06,11.25,2a
2019-07-15_144001:600,-0.48553500000000005,-0.052338,-0.07016,-0.003878,-0.0005690000000000001,-0.000512,-40.68,6.06,11.25,2a
2019-07-15_144001:620,-0.481476,-0.051330999999999995,-0.072693,-0.002657,-0.002248,0.0008619999999999999,-41.369999,6.06,10.5,2a
2019-07-15_144001:640,-0.488068,-0.053375,-0.073212,-0.0025050000000000003,-0.002919,0.00028199999999999997,-41.369999,6.06,10.5,2a
2019-07-15_144001:660,-0.491638,-0.049805,-0.0737,-0.0018030000000000001,-0.003285,-0.001366,-41.0,6.06,11.25,2a
2019-07-15_144001:680,-0.490601,-0.046265,-0.07421900000000001,-0.0017109999999999998,-0.0033770000000000002,-0.00023700000000000001,-41.0,6.06,11.25,2a
2019-07-15_144001:700,-0.490112,-0.048279,-0.075745,-0.001925,-0.003102,0.000709,-41.0,6.06,11.25,2a
2019-07-15_144001:720,-0.488068,-0.048279,-0.077271,-0.0022600000000000003,-0.002919,6.8e-05,-42.060001,6.5,10.87,2a
2019-07-15_144001:740,-0.48858599999999996,-0.049316000000000006,-0.077271,-0.002321,-0.0033770000000000002,-0.000908,-42.060001,6.5,10.87,2a
2019-07-15_144001:760,-0.492126,-0.048279,-0.077271,-0.0025050000000000003,-0.0033770000000000002,-0.001183,-41.75,6.06,10.87,2a
2019-07-15_144001:780,-0.496216,-0.049316000000000006,-0.07421900000000001,-0.002718,-0.002522,-0.000267,-41.75,6.06,10.87,2a
2019-07-15_144001:800,-0.49517799999999995,-0.050323,-0.074738,-0.0025960000000000002,-0.001912,-0.00023700000000000001,-41.75,6.06,10.87,2a
2019-07-15_144001:820,-0.489594,-0.051330999999999995,-0.077271,-0.002321,-0.001515,-0.0011220000000000002,-42.060001,6.06,9.68,2a
2019-07-15_144001:840,-0.47943100000000005,-0.051330999999999995,-0.079803,-0.0018030000000000001,-0.001973,-0.001366,-42.060001,6.06,9.68,2a
2019-07-15_144001:860,-0.477386,-0.052338,-0.081848,-0.000796,-0.003773,-0.0019760000000000003,-42.5,5.68,10.5,2a
2019-07-15_144001:880,-0.492126,-0.050323,-0.078796,0.000547,-0.00536,-0.002037,-42.5,5.68,10.5,2a
2019-07-15_144001:900,-0.49926800000000005,-0.049805,-0.080322,0.001585,-0.004964,-0.000786,-42.5,5.68,10.5,2a
2019-07-15_144001:920,-0.496216,-0.045745999999999995,-0.08081100000000001,0.0016460000000000001,-0.0024920000000000003,0.001106,-42.060001,5.37,8.5,2a
2019-07-15_144001:940,-0.490601,-0.046752999999999996,-0.082855,0.000791,-0.00179,0.001167,-42.060001,5.37,8.5,2a
2019-07-15_144001:960,-0.485016,-0.045226999999999996,-0.086426,0.000883,-0.002156,0.001442,-41.75,6.06,9.68,2a
2019-07-15_144001:980,-0.486023,-0.045745999999999995,-0.085388,-6.3e-05,-0.002827,0.001838,-41.75,6.06,9.68,2a
2019-07-15_144002:000,-0.492126,-0.043213,-0.087952,-0.000796,-0.002705,0.001258,-41.75,6.06,9.68,2a
2019-07-15_144002:020,-0.49365200000000004,-0.042694,-0.089478,-0.0020469999999999998,-0.002034,0.001167,-42.060001,5.68,10.18,2a
2019-07-15_144002:040,-0.49111899999999997,-0.045226999999999996,-0.091003,-0.003237,-0.00124,0.000923,-42.060001,5.68,10.18,2a
2019-07-15_144002:060,-0.488068,-0.045226999999999996,-0.09201000000000001,-0.004213000000000001,-0.001027,7.000000000000001e-06,-41.75,5.37,9.25,2a
2019-07-15_144002:080,-0.48754899999999995,-0.047791,-0.09201000000000001,-0.004671,-0.0008439999999999999,-0.000328,-41.75,5.37,9.25,2a
2019-07-15_144002:100,-0.489594,-0.046752999999999996,-0.09353600000000001,-0.004671,-0.000722,-0.00045099999999999996,-41.75,5.37,9.25,2a
2019-07-15_144002:120,-0.492126,-0.046752999999999996,-0.09454299999999999,-0.004488000000000001,7.2e-05,-0.000634,-42.060001,5.37,9.25,2a
2019-07-15_144002:140,-0.492126,-0.046752999999999996,-0.09353600000000001,-0.004549,0.000346,-0.000512,-42.060001,5.37,9.25,2a
2019-07-15_144002:160,-0.48858599999999996,-0.044739,-0.09454299999999999,-0.00461,0.000865,0.000129,-42.5,4.68,9.0,2a
2019-07-15_144002:180,-0.488068,-0.045745999999999995,-0.09301799999999999,-0.00461,0.001018,0.000587,-42.5,4.68,9.0,2a
2019-07-15_144002:200,-0.490601,-0.042694,-0.09353600000000001,-0.00461,0.00114,0.000709,-41.369999,5.37,7.75,2a
2019-07-15_144002:220,-0.491638,-0.044219999999999995,-0.09454299999999999,-0.004824,0.001415,0.001258,-41.369999,5.37,7.75,2a
2019-07-15_144002:240,-0.492126,-0.043213,-0.09454299999999999,-0.005343,0.001964,0.001106,-41.369999,5.37,7.75,2a
2019-07-15_144002:260,-0.488068,-0.044219999999999995,-0.092529,-0.005556,0.002361,0.001258,-41.75,5.06,8.5,2a
2019-07-15_144002:280,-0.48654200000000003,-0.047272,-0.09149199999999999,-0.005922,0.002513,0.001625,-41.75,5.06,8.5,2a
2019-07-15_144002:300,-0.488068,-0.046752999999999996,-0.090485,-0.005861,0.002116,0.001564,-41.75,5.06,8.5,2a
2019-07-15_144002:320,-0.48754899999999995,-0.048279,-0.08996599999999999,-0.0056170000000000005,0.002055,0.001716,-42.5,5.68,8.5,2a
2019-07-15_144002:340,-0.488068,-0.048798,-0.089478,-0.005282,0.002116,0.001564,-42.5,5.68,8.5,2a
2019-07-15_144002:360,-0.48654200000000003,-0.049316000000000006,-0.088959,-0.005282,0.002361,0.001838,-41.369999,5.68,9.0,2a
2019-07-15_144002:380,-0.48553500000000005,-0.049805,-0.088959,-0.005221,0.002239,0.00132,-41.369999,5.68,9.0,2a
2019-07-15_144002:400,-0.486023,-0.050323,-0.088959,-0.005007,0.001598,0.000984,-41.369999,5.68,9.0,2a
2019-07-15_144002:420,-0.48754899999999995,-0.049316000000000006,-0.08843999999999999,-0.004732,0.001201,0.000923,-41.75,5.37,8.5,2a
2019-07-15_144002:440,-0.490112,-0.050842,-0.088959,-0.004275,0.00114,0.000984,-41.75,5.37,8.5,2a
2019-07-15_144002:460,-0.489594,-0.049316000000000006,-0.08843999999999999,-0.004275,0.00172,0.0008619999999999999,-42.060001,6.06,8.18,2a
2019-07-15_144002:480,-0.48300200000000004,-0.048798,-0.08843999999999999,-0.004397,0.00172,0.002754,-42.060001,6.06,8.18,2a
2019-07-15_144002:500,-0.489594,-0.050842,-0.09149199999999999,-0.004488000000000001,0.001201,0.002388,-42.060001,5.37,8.18,2a
2019-07-15_144002:520,-0.48706099999999997,-0.049805,-0.089478,-0.0048850000000000005,0.000682,0.00028199999999999997,-42.060001,5.37,8.18,2a
2019-07-15_144002:540,-0.488068,-0.049805,-0.08843999999999999,-0.004824,0.000133,0.00132,-42.060001,5.37,8.18,2a
2019-07-15_144002:560,-0.488068,-0.051330999999999995,-0.091003,-0.005526,0.000407,0.002235,-41.75,6.5,9.25,2a
2019-07-15_144002:580,-0.48858599999999996,-0.050842,-0.08996599999999999,-0.005922,0.000682,0.001381,-41.75,6.5,9.25,2a
2019-07-15_144002:600,-0.490112,-0.050842,-0.09149199999999999,-0.006319,0.001353,0.001716,-41.75,6.5,9.25,2a
2019-07-15_144002:620,-0.490601,-0.051330999999999995,-0.089478,-0.006991,0.00172,0.001991,-42.060001,5.68,9.0,2a
2019-07-15_144002:640,-0.49111899999999997,-0.05285599999999999,-0.087952,-0.007662,0.0024519999999999998,0.002052,-42.060001,5.68,9.0,2a
2019-07-15_144002:660,-0.49111899999999997,-0.053863999999999995,-0.088959,-0.007876000000000001,0.0029100000000000003,0.001655,-41.75,6.5,8.5,2a
2019-07-15_144002:680,-0.48706099999999997,-0.055389,-0.086914,-0.007784,0.003246,0.00016,-41.75,6.5,8.5,2a
2019-07-15_144002:700,-0.486023,-0.056915,-0.08843999999999999,-0.006807,0.002635,-0.0008470000000000001,-41.75,6.5,8.5,2a
2019-07-15_144002:720,-0.48095699999999997,-0.056427,-0.088959,-0.005465,0.002055,-0.0019149999999999998,-41.369999,5.37,8.18,2a
2019-07-15_144002:740,-0.48553500000000005,-0.051330999999999995,-0.08996599999999999,-0.0036340000000000005,0.001598,-0.0021899999999999997,-41.369999,5.37,8.18,2a
2019-07-15_144002:760,-0.484009,-0.047791,-0.089478,-0.0017109999999999998,0.001018,-0.0009689999999999999,-42.060001,5.68,8.18,2a
2019-07-15_144002:780,-0.486023,-0.045745999999999995,-0.09149199999999999,-0.000796,0.0008039999999999999,0.000221,-42.060001,5.68,8.18,2a
2019-07-15_144002:800,-0.48349,-0.042694,-0.09201000000000001,-0.000185,0.000346,-0.000512,-42.060001,5.68,8.18,2a
2019-07-15_144002:820,-0.48754899999999995,-0.040161,-0.09353600000000001,-0.000185,-0.000233,-0.000267,-41.75,6.06,9.68,2a
2019-07-15_144002:840,-0.49111899999999997,-0.040161,-0.092529,-0.00045999999999999996,-0.000722,-0.000176,-41.75,6.06,9.68,2a
2019-07-15_144002:860,-0.49365200000000004,-0.040161,-0.09454299999999999,-0.001467,-0.000386,0.000221,-42.5,5.68,9.68,2a
2019-07-15_144002:880,-0.492126,-0.040649,-0.09301799999999999,-0.0025960000000000002,0.000468,0.000984,-42.5,5.68,9.68,2a
2019-07-15_144002:900,-0.489594,-0.043213,-0.09454299999999999,-0.003939,0.0012619999999999999,0.000831,-42.060001,5.68,9.68,2a
2019-07-15_144002:920,-0.486023,-0.047272,-0.095062,-0.004671,0.001537,0.000709,-42.060001,5.68,9.68,2a
2019-07-15_144002:940,-0.48858599999999996,-0.051849,-0.097107,-0.005068,0.001292,0.000465,-42.060001,5.68,9.68,2a
2019-07-15_144002:960,-0.48706099999999997,-0.051849,-0.096069,-0.004213000000000001,0.0008960000000000001,-0.000389,-41.0,6.06,8.18,2a
2019-07-15_144002:980,-0.490601,-0.050842,-0.094055,-0.002718,0.0010789999999999999,-0.000389,-41.0,6.06,8.18,2a
2019-07-15_144003:000,-0.49517799999999995,-0.047272,-0.09201000000000001,-0.001192,0.001353,-0.0009689999999999999,-41.0,6.06,8.18,2a
2019-07-15_144003:020,-0.49517799999999995,-0.041687,-0.09201000000000001,-0.000796,0.002849,-0.000664,-41.369999,5.68,8.5,2a
2019-07-15_144003:040,-0.489594,-0.039124,-0.090485,-0.001314,0.003764,0.000221,-41.369999,5.68,8.5,2a
2019-07-15_144003:060,-0.48754899999999995,-0.037598,-0.09149199999999999,-0.002932,0.004497,0.001655,-42.5,5.37,7.75,2a
2019-07-15_144003:080,-0.492126,-0.040649,-0.08743300000000001,-0.005068,0.004497,0.001655,-42.5,5.37,7.75,2a
2019-07-15_144003:100,-0.492645,-0.043701,-0.085388,-0.0066549999999999995,0.004771,0.001442,-42.5,5.37,7.75,2a
2019-07-15_144003:120,-0.490601,-0.049316000000000006,-0.08590700000000001,-0.008211,0.005107,0.002052,-42.060001,5.68,9.0,2a
2019-07-15_144003:140,-0.486023,-0.054901,-0.086426,-0.008669,0.005504,0.002845,-42.060001,5.68,9.0,2a
2019-07-15_144003:160,-0.48300200000000004,-0.056427,-0.08843999999999999,-0.008211,0.005046,0.003303,-41.369999,5.68,9.25,2a
2019-07-15_144003:180,-0.482483,-0.059479,-0.086426,-0.007051999999999999,0.0042829999999999995,0.0033640000000000002,-41.369999,5.68,9.25,2a
2019-07-15_144003:200,-0.48349,-0.057953,-0.08996599999999999,-0.0056170000000000005,0.003246,0.002754,-41.369999,5.68,9.25,2a
2019-07-15_144003:220,-0.489075,-0.057434000000000006,-0.087952,-0.004427,0.0024519999999999998,0.00251,-42.060001,6.5,8.5,2a
2019-07-15_144003:240,-0.492126,-0.056427,-0.085388,-0.0032979999999999997,0.002239,0.0018989999999999999,-42.060001,6.5,8.5,2a
2019-07-15_144003:260,-0.498749,-0.050842,-0.081848,-0.0032979999999999997,0.004161,0.0026320000000000002,-41.369999,6.5,9.0,2a
2019-07-15_144003:280,-0.49722299999999997,-0.049805,-0.07928500000000001,-0.003939,0.004954999999999999,0.003913000000000001,-41.369999,6.5,9.0,2a
2019-07-15_144003:300,-0.490112,-0.055908000000000006,-0.080322,-0.0064719999999999995,0.006358,0.0055,-41.369999,6.5,9.0,2a
2019-07-15_144003:320,-0.486023,-0.058441,-0.082855,-0.007601,0.006175,0.004097,-41.369999,6.5,9.68,2a
2019-07-15_144003:340,-0.48196400000000006,-0.06405599999999999,-0.079803,-0.007662,0.005107,0.003639,-41.369999,6.5,9.68,2a
2019-07-15_144003:360,-0.48043800000000003,-0.066589,-0.081848,-0.006533,0.003825,0.001991,-42.060001,6.87,9.68,2a
2019-07-15_144003:380,-0.48095699999999997,-0.066589,-0.082855,-0.004549,0.002361,0.000343,-42.060001,6.87,9.68,2a
2019-07-15_144003:400,-0.47995,-0.06253099999999999,-0.082336,-0.002779,0.0010789999999999999,-0.0012439999999999999,-42.060001,6.87,9.68,2a
2019-07-15_144003:420,-0.482483,-0.056915,-0.084381,-0.00165,0.000133,-0.001641,-41.369999,6.06,9.25,2a
2019-07-15_144003:440,-0.48654200000000003,-0.05438200000000001,-0.083374,-0.001253,-0.000386,-0.000786,-41.369999,6.06,9.25,2a
2019-07-15_144003:460,-0.490601,-0.05285599999999999,-0.083374,-0.001314,-0.000661,-0.00011499999999999999,-41.369999,6.87,9.25,2a
2019-07-15_144003:480,-0.49468999999999996,-0.051849,-0.082336,-0.001925,1.1e-05,6.8e-05,-41.369999,6.87,9.25,2a
2019-07-15_144003:500,-0.49468999999999996,-0.051849,-0.083374,-0.0025050000000000003,0.0009570000000000001,0.000221,-41.369999,6.87,9.25,2a
2019-07-15_144003:520,-0.49316400000000005,-0.052338,-0.083862,-0.0031149999999999997,0.001628,-5.4000000000000005e-05,-42.060001,6.87,9.25,2a
2019-07-15_144003:540,-0.491638,-0.054901,-0.084381,-0.0033280000000000002,0.00172,-0.00011499999999999999,-42.060001,6.87,9.25,2a
2019-07-15_144003:560,-0.488068,-0.054901,-0.083374,-0.0031149999999999997,0.001842,7.000000000000001e-06,-42.5,6.87,9.0,2a
2019-07-15_144003:580,-0.489075,-0.054901,-0.081848,-0.002718,0.0017809999999999998,-0.0008470000000000001,-42.5,6.87,9.0,2a
2019-07-15_144003:600,-0.48858599999999996,-0.053375,-0.082336,-0.002443,0.001964,-0.001519,-42.5,6.87,9.0,2a
2019-07-15_144003:620,-0.48706099999999997,-0.053375,-0.082336,-0.0022600000000000003,0.0023,-0.000908,-41.75,6.5,9.0,2a
2019-07-15_144003:640,-0.48300200000000004,-0.054901,-0.083374,-0.001986,0.001598,-0.000389,-41.75,6.5,9.0,2a
2019-07-15_144003:660,-0.48349,-0.054901,-0.086914,-0.0014060000000000001,0.001353,-0.001183,-41.75,6.87,7.75,2a
2019-07-15_144003:680,-0.484497,-0.051849,-0.084381,-0.000582,0.000499,-0.0023120000000000003,-41.75,6.87,7.75,2a
2019-07-15_144003:700,-0.48654200000000003,-0.047272,-0.088959,-0.000582,-0.00011100000000000001,-0.003167,-41.75,6.87,7.75,2a
2019-07-15_144003:720,-0.486023,-0.043213,-0.090485,-0.00165,-0.001118,-0.00277,-41.75,6.06,10.5,2a
2019-07-15_144003:740,-0.489075,-0.042175,-0.09201000000000001,-0.0034509999999999996,-0.001515,-0.0013050000000000002,-41.75,6.06,10.5,2a
2019-07-15_144003:760,-0.496216,-0.045226999999999996,-0.09201000000000001,-0.005556,-0.001118,-0.000786,-41.369999,6.06,9.0,2a
2019-07-15_144003:780,-0.506897,-0.049805,-0.086914,-0.006991,0.0014759999999999999,7.000000000000001e-06,-41.369999,6.06,9.0,2a
2019-07-15_144003:800,-0.5058590000000001,-0.055908000000000006,-0.084381,-0.007387,0.004894,0.000343,-41.369999,6.06,9.0,2a
2019-07-15_144003:820,-0.49316400000000005,-0.057434000000000006,-0.082336,-0.006869,0.007945,-0.00045099999999999996,-42.060001,6.5,9.68,2a
2019-07-15_144003:840,-0.48196400000000006,-0.056427,-0.08081100000000001,-0.005343,0.008434,-0.0013050000000000002,-42.060001,6.5,9.68,2a
2019-07-15_144003:860,-0.481476,-0.050323,-0.082855,-0.004427,0.006816,-0.002251,-42.060001,6.06,10.18,2a
2019-07-15_144003:880,-0.48196400000000006,-0.045745999999999995,-0.07928500000000001,-0.004152,0.004497,-0.002587,-42.060001,6.06,10.18,2a
2019-07-15_144003:900,-0.48706099999999997,-0.040649,-0.081329,-0.004793,0.002513,-0.00158,-42.060001,6.06,10.18,2a
2019-07-15_144003:920,-0.492126,-0.039642000000000004,-0.07775900000000001,-0.006075,0.0023,-0.000908,-42.060001,6.87,9.68,2a
2019-07-15_144003:940,-0.492645,-0.042694,-0.079803,-0.007876000000000001,0.0031850000000000003,-0.000725,-42.060001,6.87,9.68,2a
2019-07-15_144003:960,-0.48754899999999995,-0.044739,-0.082855,-0.008912999999999999,0.0035810000000000004,-0.00045099999999999996,-41.75,6.5,10.18,2a
2019-07-15_144003:980,-0.48654200000000003,-0.052338,-0.082336,-0.008516,0.003246,-0.001183,-41.75,6.5,10.18,2a
2019-07-15_144004:000,-0.48553500000000005,-0.054901,-0.083862,-0.006991,0.002574,-0.002587,-41.75,6.5,10.18,2a
2019-07-15_144004:020,-0.490112,-0.053375,-0.083374,-0.004488000000000001,0.002361,-0.003624,-42.060001,5.68,10.18,2a
2019-07-15_144004:040,-0.49316400000000005,-0.051849,-0.08081100000000001,-0.002718,0.002177,-0.004692,-42.060001,5.68,10.18,2a
2019-07-15_144004:060,-0.498749,-0.044739,-0.078278,-0.001192,0.002849,-0.005089,-41.75,5.68,9.68,2a
2019-07-15_144004:080,-0.494171,-0.042694,-0.076263,-0.000643,0.003978,-0.003167,-41.75,5.68,9.68,2a
2019-07-15_144004:100,-0.490112,-0.041687,-0.078796,-0.000338,0.0041,-0.0017929999999999999,-41.75,5.68,9.68,2a
2019-07-15_144004:120,-0.485016,-0.038635,-0.08081100000000001,-0.0006730000000000001,0.0035810000000000004,-0.002526,-41.369999,6.06,10.18,2a
2019-07-15_144004:140,-0.490601,-0.034546,-0.078796,-0.001253,0.0034289999999999998,-0.001397,-41.369999,6.06,10.18,2a
2019-07-15_144004:160,-0.49365200000000004,-0.034546,-0.07775900000000001,-0.002779,0.004161,-0.00045099999999999996,-41.369999,5.37,9.25,2a
2019-07-15_144004:180,-0.497742,-0.034058,-0.075226,-0.004427,0.005443,-0.00045099999999999996,-41.369999,5.37,9.25,2a
2019-07-15_144004:200,-0.494171,-0.036072,-0.075745,-0.006258,0.006145,-0.00011499999999999999,-41.369999,5.37,9.25,2a
2019-07-15_144004:220,-0.48654200000000003,-0.038635,-0.068634,-0.008211,0.006418999999999999,0.000709,-41.75,5.06,10.5,2a
2019-07-15_144004:240,-0.48196400000000006,-0.042694,-0.071167,-0.009127,0.004833,0.001167,-41.75,5.06,10.5,2a
2019-07-15_144004:260,-0.481476,-0.043213,-0.07421900000000001,-0.009066,0.003307,0.0007700000000000001,-41.369999,5.37,10.18,2a
2019-07-15_144004:280,-0.48553500000000005,-0.043701,-0.072693,-0.008608,0.001964,0.00028199999999999997,-41.369999,5.37,10.18,2a
2019-07-15_144004:300,-0.49365200000000004,-0.043701,-0.073212,-0.007723000000000001,0.001994,-0.00023700000000000001,-41.369999,5.37,10.18,2a
2019-07-15_144004:320,-0.498749,-0.045226999999999996,-0.07016,-0.007204,0.002971,-0.000786,-41.0,5.68,10.18,2a
2019-07-15_144004:340,-0.492126,-0.043213,-0.069122,-0.0064719999999999995,0.003703,-0.000573,-41.0,5.68,10.18,2a
2019-07-15_144004:360,-0.490601,-0.042694,-0.070648,-0.0058,0.00352,0.000404,-42.060001,6.06,10.5,2a
2019-07-15_144004:380,-0.488068,-0.041168,-0.070648,-0.0051600000000000005,0.002696,0.000129,-42.060001,6.06,10.5,2a
2019-07-15_144004:400,-0.490112,-0.040161,-0.070648,-0.004488000000000001,0.001964,-0.0008470000000000001,-42.060001,6.06,10.5,2a
2019-07-15_144004:420,-0.490601,-0.038635,-0.073212,-0.0037560000000000002,0.001292,-0.002037,-42.5,5.06,10.5,2a
2019-07-15_144004:440,-0.492126,-0.036591000000000005,-0.0737,-0.003573,0.0010789999999999999,-0.00216,-42.5,5.06,10.5,2a
2019-07-15_144004:460,-0.49365200000000004,-0.037108999999999996,-0.072693,-0.003237,0.001201,-0.0017629999999999998,-41.0,5.68,10.87,2a
2019-07-15_144004:480,-0.49926800000000005,-0.035065,-0.072174,-0.00339,0.002055,-0.0017929999999999999,-41.0,5.68,10.87,2a
2019-07-15_144004:500,-0.502808,-0.034546,-0.071686,-0.003878,0.00352,-0.00158,-41.0,5.68,10.87,2a
2019-07-15_144004:520,-0.503845,-0.035065,-0.069122,-0.004671,0.005443,-0.001397,-41.75,5.68,10.18,2a
2019-07-15_144004:540,-0.49926800000000005,-0.035065,-0.068115,-0.005404,0.007213,-0.001397,-41.75,5.68,10.18,2a
2019-07-15_144004:560,-0.49468999999999996,-0.036591000000000005,-0.067596,-0.005556,0.007762000000000001,-0.000908,-41.75,6.5,10.18,2a
2019-07-15_144004:580,-0.49111899999999997,-0.036591000000000005,-0.064545,-0.005465,0.008006000000000001,-0.001,-41.75,6.5,10.18,2a
2019-07-15_144004:600,-0.489075,-0.035065,-0.063538,-0.005007,0.007762000000000001,-0.0009689999999999999,-41.75,6.5,10.18,2a
2019-07-15_144004:620,-0.485016,-0.035583,-0.062012,-0.00461,0.007304000000000001,-0.000725,-41.369999,6.5,10.87,2a
2019-07-15_144004:640,-0.481476,-0.036591000000000005,-0.06253099999999999,-0.00403,0.006023,-0.000573,-41.369999,6.5,10.87,2a
2019-07-15_144004:660,-0.481476,-0.034546,-0.063538,-0.003664,0.004619,-0.000573,-41.75,5.37,10.87,2a
2019-07-15_144004:680,-0.48349,-0.034546,-0.062012,-0.003054,0.003307,-0.000573,-41.75,5.37,10.87,2a
2019-07-15_144004:700,-0.48754899999999995,-0.032532,-0.063019,-0.0025050000000000003,0.0017809999999999998,-0.000786,-41.75,5.37,10.87,2a
2019-07-15_144004:720,-0.492126,-0.03302,-0.063019,-0.001986,0.001415,-0.000786,-41.75,5.37,10.18,2a
2019-07-15_144004:740,-0.49316400000000005,-0.031006,-0.06405599999999999,-0.0017109999999999998,0.0012619999999999999,-0.0009689999999999999,-41.75,5.37,10.18,2a
2019-07-15_144004:760,-0.492126,-0.031494,-0.065582,-0.0015890000000000001,0.0009570000000000001,-0.0011220000000000002,-40.68,5.37,11.68,2a
2019-07-15_144004:780,-0.491638,-0.029480000000000003,-0.065063,-0.001467,0.000499,-0.000786,-40.68,5.37,11.68,2a
2019-07-15_144004:800,-0.49111899999999997,-0.031006,-0.065582,-0.001467,0.000468,-0.000176,-40.68,5.37,11.68,2a
2019-07-15_144004:820,-0.492126,-0.030487,-0.063538,-0.00165,0.000621,6.8e-05,-41.0,4.68,11.25,2a
2019-07-15_144004:840,-0.49316400000000005,-0.029480000000000003,-0.06405599999999999,-0.0021079999999999996,0.00056,0.000923,-41.0,4.68,11.25,2a
2019-07-15_144004:860,-0.490112,-0.032532,-0.06405599999999999,-0.002535,0.0008960000000000001,0.002113,-41.369999,5.06,11.25,2a
2019-07-15_144004:880,-0.489594,-0.033539,-0.06405599999999999,-0.003176,0.001415,0.001625,-41.369999,5.06,11.25,2a
2019-07-15_144004:900,-0.489075,-0.033539,-0.06405599999999999,-0.0037560000000000002,0.0017809999999999998,0.002388,-41.369999,5.06,11.25,2a
2019-07-15_144004:920,-0.490601,-0.036072,-0.065063,-0.004488000000000001,0.00172,0.003578,-42.5,4.25,12.06,2a
2019-07-15_144004:940,-0.489075,-0.038116000000000004,-0.065063,-0.0051600000000000005,0.0017809999999999998,0.001655,-42.5,4.25,12.06,2a
2019-07-15_144004:960,-0.492645,-0.036072,-0.068115,-0.0056170000000000005,0.001537,0.000587,-42.060001,6.06,10.5,2a
2019-07-15_144004:980,-0.496216,-0.037108999999999996,-0.065063,-0.005739,0.001415,0.001167,-42.060001,6.06,10.5,2a
2019-07-15_144005:000,-0.500275,-0.037108999999999996,-0.065582,-0.005922,0.002055,0.0018989999999999999,-42.060001,6.06,10.5,2a
2019-07-15_144005:020,-0.498749,-0.038116000000000004,-0.06405599999999999,-0.006014,0.002849,0.002235,-40.68,5.75,10.87,2a
2019-07-15_144005:040,-0.49517799999999995,-0.038116000000000004,-0.065582,-0.006258,0.003246,0.002052,-40.68,5.75,10.87,2a
2019-07-15_144005:060,-0.49468999999999996,-0.037598,-0.06405599999999999,-0.00635,0.00352,0.002235,-41.369999,5.37,11.25,2a
2019-07-15_144005:080,-0.492126,-0.038635,-0.06253099999999999,-0.006197,0.003886,0.0022960000000000003,-41.369999,5.37,11.25,2a
2019-07-15_144005:100,-0.49316400000000005,-0.040649,-0.06253099999999999,-0.005953,0.00352,0.001625,-41.369999,5.37,11.25,2a
2019-07-15_144005:120,-0.49468999999999996,-0.040161,-0.060486,-0.005221,0.00352,0.000984,-42.060001,5.68,11.68,2a
2019-07-15_144005:140,-0.49365200000000004,-0.037598,-0.061005,-0.004732,0.00349,0.000404,-42.060001,5.68,11.68,2a
2019-07-15_144005:160,-0.492126,-0.036591000000000005,-0.061005,-0.004275,0.002757,-0.000634,-41.369999,5.37,10.87,2a
2019-07-15_144005:180,-0.496704,-0.036072,-0.059479,-0.003878,0.002177,-0.0012439999999999999,-41.369999,5.37,10.87,2a
2019-07-15_144005:200,-0.49517799999999995,-0.034546,-0.061005,-0.003512,0.0019030000000000002,-0.001397,-41.369999,5.37,10.87,2a
2019-07-15_144005:220,-0.49365200000000004,-0.034058,-0.06253099999999999,-0.003237,0.001628,-0.0017929999999999999,-41.0,5.37,10.18,2a
2019-07-15_144005:240,-0.492645,-0.031006,-0.061005,-0.0033280000000000002,0.001018,-0.002098,-41.0,5.37,10.18,2a
2019-07-15_144005:260,-0.490112,-0.031494,-0.063538,-0.0031149999999999997,0.000499,-0.000725,-41.75,5.37,11.68,2a
2019-07-15_144005:280,-0.492126,-0.031006,-0.062012,-0.0034509999999999996,0.000133,-0.00045099999999999996,-41.75,5.37,11.68,2a
2019-07-15_144005:300,-0.494171,-0.032013,-0.06405599999999999,-0.003573,-0.000172,-0.000573,-41.75,5.37,11.68,2a
2019-07-15_144005:320,-0.49517799999999995,-0.034546,-0.064545,-0.003573,0.00016299999999999998,-0.001183,-41.369999,5.37,10.87,2a
2019-07-15_144005:340,-0.495697,-0.034058,-0.064545,-0.0033280000000000002,0.000499,-0.00158,-41.369999,5.37,10.87,2a
2019-07-15_144005:360,-0.495697,-0.035065,-0.065063,-0.002779,0.0012619999999999999,-0.000908,-41.0,5.37,11.68,2a
2019-07-15_144005:380,-0.497742,-0.036072,-0.06253099999999999,-0.002382,0.001964,0.00016,-41.0,5.37,11.68,2a
2019-07-15_144005:400,-0.497742,-0.036072,-0.06253099999999999,-0.0021079999999999996,0.002971,0.001228,-41.0,5.37,11.68,2a
2019-07-15_144005:420,-0.495697,-0.035065,-0.06149299999999999,-0.001986,0.003764,0.002449,-42.060001,5.68,10.5,2a
2019-07-15_144005:440,-0.492645,-0.035583,-0.06149299999999999,-0.0020469999999999998,0.004375,0.002784,-42.060001,5.68,10.5,2a
2019-07-15_144005:460,-0.48858599999999996,-0.036072,-0.06253099999999999,-0.0022600000000000003,0.004314,0.002845,-41.369999,5.37,11.25,2a
2019-07-15_144005:480,-0.486023,-0.035583,-0.060486,-0.0025050000000000003,0.003886,0.0033640000000000002,-41.369999,5.37,11.25,2a
2019-07-15_144005:500,-0.486023,-0.035065,-0.06149299999999999,-0.003054,0.0029100000000000003,0.002967,-41.369999,5.37,11.25,2a
2019-07-15_144005:520,-0.489075,-0.037108999999999996,-0.061005,-0.0034509999999999996,0.002116,0.002357,-41.369999,5.06,10.87,2a
2019-07-15_144005:540,-0.491638,-0.037108999999999996,-0.05996699999999999,-0.0037560000000000002,0.001842,0.0018989999999999999,-41.369999,5.06,10.87,2a
2019-07-15_144005:560,-0.49316400000000005,-0.037598,-0.060486,-0.00403,0.001842,0.001564,-41.369999,5.37,11.25,2a
2019-07-15_144005:580,-0.49365200000000004,-0.037598,-0.059479,-0.004,0.001842,0.001258,-41.369999,5.37,11.25,2a
2019-07-15_144005:600,-0.49111899999999997,-0.038116000000000004,-0.062012,-0.0036950000000000004,0.0016589999999999999,0.0007700000000000001,-41.369999,5.37,11.25,2a
2019-07-15_144005:620,-0.492126,-0.036591000000000005,-0.062012,-0.0036340000000000005,0.0012619999999999999,0.00028199999999999997,-41.75,5.68,11.68,2a
2019-07-15_144005:640,-0.49316400000000005,-0.036591000000000005,-0.063019,-0.003237,0.000407,-0.000328,-41.75,5.68,11.68,2a
2019-07-15_144005:660,-0.494171,-0.037108999999999996,-0.061005,-0.0028399999999999996,0.00022400000000000002,-0.000634,-41.369999,5.37,10.5,2a
2019-07-15_144005:680,-0.497742,-0.037598,-0.05996699999999999,-0.002382,0.000621,-0.000908,-41.369999,5.37,10.5,2a
2019-07-15_144005:700,-0.500275,-0.035583,-0.058960000000000005,-0.002382,0.0017809999999999998,-0.0008470000000000001,-41.369999,5.37,10.5,2a
2019-07-15_144005:720,-0.497742,-0.035065,-0.06149299999999999,-0.0020469999999999998,0.002971,0.0007700000000000001,-41.369999,5.37,11.25,2a
2019-07-15_144005:740,-0.49722299999999997,-0.034546,-0.061005,-0.0018030000000000001,0.003093,0.000923,-41.369999,5.37,11.25,2a
2019-07-15_144005:760,-0.492645,-0.032013,-0.061005,-0.002169,0.003032,-0.000512,-41.369999,5.06,11.68,2a
2019-07-15_144005:780,-0.490601,-0.029968,-0.058960000000000005,-0.0025050000000000003,0.002574,0.0008619999999999999,-41.369999,5.06,11.68,2a
2019-07-15_144005:800,-0.49111899999999997,-0.031494,-0.059479,-0.0033280000000000002,0.0023,0.001991,-41.369999,5.06,11.68,2a
2019-07-15_144005:820,-0.490112,-0.031494,-0.06253099999999999,-0.004397,0.002239,0.00132,-41.0,5.37,11.25,2a
2019-07-15_144005:840,-0.489594,-0.03302,-0.055389,-0.005129,0.0023,0.0008619999999999999,-41.0,5.37,11.25,2a
2019-07-15_144005:860,-0.490601,-0.037598,-0.057434000000000006,-0.0058,0.002177,0.000831,-41.75,5.37,12.06,2a
2019-07-15_144005:880,-0.49517799999999995,-0.038116000000000004,-0.057953,-0.006258,0.002239,0.000984,-41.75,5.37,12.06,2a
2019-07-15_144005:900,-0.49975600000000003,-0.039124,-0.058960000000000005,-0.006411,0.002574,0.001045,-41.75,5.37,12.06,2a
2019-07-15_144005:920,-0.498749,-0.039642000000000004,-0.057953,-0.006014,0.0034289999999999998,0.0008619999999999999,-41.0,5.37,11.25,2a
2019-07-15_144005:940,-0.496216,-0.041168,-0.058441,-0.005678,0.003917,0.000496,-41.0,5.37,11.25,2a
2019-07-15_144005:960,-0.494171,-0.039642000000000004,-0.056427,-0.005129,0.0041,6.8e-05,-41.0,5.06,11.25,2a
2019-07-15_144005:980,-0.49365200000000004,-0.039124,-0.056427,-0.004824,0.0042829999999999995,0.000648,-41.0,5.06,11.25,2a
2019-07-15_144006:000,-0.490601,-0.038635,-0.055389,-0.004671,0.003886,0.001838,-41.0,5.06,11.25,2a
2019-07-15_144006:020,-0.489594,-0.039124,-0.055389,-0.00461,0.003825,0.001716,-41.75,5.06,11.68,2a
2019-07-15_144006:040,-0.490112,-0.039124,-0.055389,-0.004488000000000001,0.003093,0.001045,-41.75,5.06,11.68,2a
2019-07-15_144006:060,-0.49316400000000005,-0.038116000000000004,-0.058960000000000005,-0.004397,0.002574,0.001167,-41.0,5.68,11.25,2a
2019-07-15_144006:080,-0.49365200000000004,-0.038116000000000004,-0.055908000000000006,-0.004397,0.002116,0.001564,-41.0,5.68,11.25,2a
2019-07-15_144006:100,-0.496216,-0.038635,-0.056427,-0.004397,0.001994,0.001228,-41.0,5.68,11.25,2a
2019-07-15_144006:120,-0.494171,-0.037108999999999996,-0.055908000000000006,-0.00461,0.002391,0.0007700000000000001,-41.369999,5.06,10.87,2a
2019-07-15_144006:140,-0.49365200000000004,-0.038635,-0.054901,-0.004549,0.002635,0.000709,-41.369999,5.06,10.87,2a
2019-07-15_144006:160,-0.491638,-0.038635,-0.056915,-0.004488000000000001,0.002849,0.000648,-41.369999,5.68,12.06,2a
2019-07-15_144006:180,-0.49468999999999996,-0.039124,-0.053863999999999995,-0.004336,0.002513,0.000129,-41.369999,5.68,12.06,2a
2019-07-15_144006:200,-0.49316400000000005,-0.038635,-0.05438200000000001,-0.004,0.002391,-0.000176,-41.369999,5.68,12.06,2a
2019-07-15_144006:220,-0.49316400000000005,-0.039642000000000004,-0.055389,-0.003573,0.0024519999999999998,-0.000267,-40.25,5.06,12.5,2a
2019-07-15_144006:240,-0.49365200000000004,-0.038116000000000004,-0.053863999999999995,-0.003237,0.002391,-0.00011499999999999999,-40.25,5.06,12.5,2a
2019-07-15_144006:260,-0.49316400000000005,-0.038116000000000004,-0.054901,-0.002779,0.002391,0.000343,-41.0,5.37,11.25,2a
2019-07-15_144006:280,-0.49365200000000004,-0.035583,-0.05438200000000001,-0.002657,0.002361,0.000709,-41.0,5.37,11.25,2a
2019-07-15_144006:300,-0.49722299999999997,-0.036072,-0.055908000000000006,-0.002932,0.0024519999999999998,0.001045,-41.0,5.37,11.25,2a
2019-07-15_144006:320,-0.498749,-0.034546,-0.054901,-0.003573,0.002696,0.00132,-41.0,5.37,12.5,2a
2019-07-15_144006:340,-0.495697,-0.037108999999999996,-0.05438200000000001,-0.004275,0.003124,0.001716,-41.0,5.37,12.5,2a
2019-07-15_144006:360,-0.49316400000000005,-0.040649,-0.055389,-0.004732,0.0031850000000000003,0.001381,-40.68,5.68,10.87,2a
2019-07-15_144006:380,-0.49111899999999997,-0.039124,-0.05438200000000001,-0.004946,0.0029100000000000003,0.000709,-40.68,5.68,10.87,2a
2019-07-15_144006:400,-0.49365200000000004,-0.039642000000000004,-0.056915,-0.004824,0.0024519999999999998,0.00016,-40.68,5.68,10.87,2a
2019-07-15_144006:420,-0.495697,-0.040649,-0.054901,-0.004671,0.0024519999999999998,-0.000328,-41.0,5.68,10.87,2a
2019-07-15_144006:440,-0.49365200000000004,-0.041687,-0.05438200000000001,-0.004213000000000001,0.002788,-0.0008470000000000001,-41.0,5.68,10.87,2a
2019-07-15_144006:460,-0.492645,-0.042175,-0.052338,-0.00339,0.002971,-0.001183,-41.75,5.68,11.68,2a
2019-07-15_144006:480,-0.49517799999999995,-0.040161,-0.049316000000000006,-0.002535,0.003307,-0.001458,-41.75,5.68,11.68,2a
2019-07-15_144006:500,-0.48706099999999997,-0.037108999999999996,-0.048798,-0.001864,0.0031850000000000003,-0.00023700000000000001,-41.75,5.68,11.68,2a
2019-07-15_144006:520,-0.489594,-0.037598,-0.051849,-0.0015279999999999998,0.002574,0.000526,-41.0,5.68,11.68,2a
2019-07-15_144006:540,-0.49111899999999997,-0.033539,-0.049316000000000006,-0.0017109999999999998,0.00172,-0.0009689999999999999,-41.0,5.68,11.68,2a
2019-07-15_144006:560,-0.490112,-0.03302,-0.052338,-0.002321,0.001353,-0.000267,-42.060001,5.68,11.68,2a
2019-07-15_144006:580,-0.49468999999999996,-0.033539,-0.048798,-0.0025960000000000002,0.00114,0.000221,-42.060001,5.68,11.68,2a
2019-07-15_144006:600,-0.496704,-0.03302,-0.049316000000000006,-0.0037560000000000002,0.00114,0.00016,-42.060001,5.68,11.68,2a
2019-07-15_144006:620,-0.49823,-0.03302,-0.050323,-0.004152,0.001353,-0.00011499999999999999,-40.68,5.37,12.06,2a
2019-07-15_144006:640,-0.498749,-0.034546,-0.049316000000000006,-0.004793,0.001598,0.000465,-40.68,5.37,12.06,2a
2019-07-15_144006:660,-0.496704,-0.036591000000000005,-0.050323,-0.004793,0.0017809999999999998,0.001106,-41.0,4.68,10.18,2a
2019-07-15_144006:680,-0.49468999999999996,-0.037108999999999996,-0.050323,-0.004824,0.00172,0.001381,-41.0,4.68,10.18,2a
2019-07-15_144006:700,-0.49517799999999995,-0.038116000000000004,-0.051330999999999995,-0.004488000000000001,0.0019030000000000002,0.00132,-41.0,4.68,10.18,2a
2019-07-15_144006:720,-0.49365200000000004,-0.038116000000000004,-0.051330999999999995,-0.004275,0.002055,0.001106,-41.369999,5.68,12.06,2a
2019-07-15_144006:740,-0.49316400000000005,-0.036072,-0.051849,-0.0037560000000000002,0.002177,0.0008619999999999999,-41.369999,5.68,12.06,2a
2019-07-15_144006:760,-0.49365200000000004,-0.037108999999999996,-0.05285599999999999,-0.003878,0.002055,0.000831,-42.060001,5.37,12.06,2a
2019-07-15_144006:780,-0.49316400000000005,-0.035065,-0.050842,-0.00403,0.001842,0.000831,-42.060001,5.37,12.06,2a
2019-07-15_144006:800,-0.496216,-0.034058,-0.051330999999999995,-0.00403,0.001842,0.000587,-42.060001,5.37,12.06,2a
2019-07-15_144006:820,-0.494171,-0.034546,-0.051849,-0.004275,0.001964,-0.000328,-41.369999,5.37,10.87,2a
2019-07-15_144006:840,-0.49365200000000004,-0.034546,-0.050842,-0.004488000000000001,0.0016589999999999999,-0.000267,-41.369999,5.37,10.87,2a
2019-07-15_144006:860,-0.491638,-0.036591000000000005,-0.052338,-0.004549,0.0014759999999999999,0.00016,-41.75,5.68,11.25,2a
2019-07-15_144006:880,-0.491638,-0.036591000000000005,-0.050842,-0.004275,0.0009570000000000001,0.000221,-41.75,5.68,11.25,2a
2019-07-15_144006:900,-0.495697,-0.036591000000000005,-0.053863999999999995,-0.004091,0.000682,0.000526,-41.75,5.68,11.25,2a
2019-07-15_144006:920,-0.496216,-0.036591000000000005,-0.051849,-0.003939,0.000865,0.000496,-41.0,5.37,11.68,2a
2019-07-15_144006:940,-0.496704,-0.035583,-0.051849,-0.003939,0.001537,0.0007700000000000001,-41.0,5.37,11.68,2a
2019-07-15_144006:960,-0.49517799999999995,-0.034546,-0.05285599999999999,-0.004091,0.001842,0.00132,-41.0,5.68,12.06,2a
2019-07-15_144006:980,-0.492645,-0.035583,-0.051330999999999995,-0.004275,0.002116,0.001564,-41.0,5.68,12.06,2a
2019-07-15_144007:000,-0.492645,-0.035583,-0.050323,-0.004213000000000001,0.002177,0.001503,-41.0,5.68,12.06,2a
2019-07-15_144007:020,-0.495697,-0.035065,-0.053863999999999995,-0.004397,0.0019030000000000002,0.001564,-41.0,5.68,11.25,2a
2019-07-15_144007:040,-0.491638,-0.037108999999999996,-0.046752999999999996,-0.004549,0.0023,0.001564,-41.0,5.68,11.25,2a
2019-07-15_144007:060,-0.501282,-0.037598,-0.053375,-0.004671,0.002574,0.001503,-42.060001,4.68,10.87,2a
2019-07-15_144007:080,-0.496704,-0.036591000000000005,-0.049316000000000006,-0.005068,0.003246,0.001167,-42.060001,4.68,10.87,2a
2019-07-15_144007:100,-0.496704,-0.035583,-0.050842,-0.005068,0.0035810000000000004,0.001106,-42.060001,4.68,10.87,2a
2019-07-15_144007:120,-0.49468999999999996,-0.034058,-0.048798,-0.005526,0.003825,0.001381,-40.68,5.68,12.06,2a
2019-07-15_144007:140,-0.49468999999999996,-0.037598,-0.050323,-0.006258,0.003825,0.001564,-40.68,5.68,12.06,2a
2019-07-15_144007:160,-0.49468999999999996,-0.038635,-0.049805,-0.006197,0.0035810000000000004,0.001838,-41.0,5.37,12.87,2a
2019-07-15_144007:180,-0.492645,-0.039124,-0.047791,-0.006136,0.0029100000000000003,0.001838,-41.0,5.37,12.87,2a
2019-07-15_144007:200,-0.490601,-0.041168,-0.050323,-0.005861,0.0024519999999999998,0.001442,-41.0,5.37,12.87,2a
2019-07-15_144007:220,-0.492645,-0.042694,-0.049805,-0.005282,0.001994,0.001228,-40.68,6.06,12.06,2a
2019-07-15_144007:240,-0.492645,-0.042694,-0.048798,-0.004732,0.00172,0.000587,-40.68,6.06,12.06,2a
2019-07-15_144007:260,-0.495697,-0.041687,-0.049316000000000006,-0.004091,0.001842,0.000831,-40.68,5.06,12.06,2a
2019-07-15_144007:280,-0.49468999999999996,-0.042175,-0.047272,-0.003512,0.0019030000000000002,0.000709,-40.68,5.06,12.06,2a
2019-07-15_144007:300,-0.495697,-0.041687,-0.046752999999999996,-0.0032979999999999997,0.002239,0.000496,-40.68,5.06,12.06,2a
2019-07-15_144007:320,-0.49111899999999997,-0.039124,-0.046265,-0.0032979999999999997,0.002391,0.001838,-42.060001,5.68,12.06,2a
2019-07-15_144007:340,-0.49316400000000005,-0.040649,-0.047272,-0.0032979999999999997,0.001842,0.001991,-42.060001,5.68,12.06,2a
2019-07-15_144007:360,-0.491638,-0.039124,-0.047791,-0.0037560000000000002,0.001415,0.000343,-41.369999,6.5,12.06,2a
2019-07-15_144007:380,-0.489075,-0.038635,-0.046752999999999996,-0.003878,0.0008960000000000001,0.0007700000000000001,-41.369999,6.5,12.06,2a
2019-07-15_144007:400,-0.491638,-0.039642000000000004,-0.047272,-0.004336,0.000621,0.001625,-41.369999,6.5,12.06,2a
2019-07-15_144007:420,-0.492126,-0.040161,-0.048798,-0.00461,0.000407,0.00132,-41.0,5.68,11.68,2a
2019-07-15_144007:440,-0.49316400000000005,-0.042175,-0.048798,-0.004549,0.00016299999999999998,0.001045,-41.0,5.68,11.68,2a
2019-07-15_144007:460,-0.49316400000000005,-0.042694,-0.047791,-0.004336,-0.00011100000000000001,0.001258,-41.369999,5.68,11.68,2a
2019-07-15_144007:480,-0.498749,-0.042175,-0.049316000000000006,-0.004091,-0.000386,0.001716,-41.369999,5.68,11.68,2a
2019-07-15_144007:500,-0.498749,-0.043213,-0.048798,-0.00403,0.00016299999999999998,0.001625,-41.369999,5.68,11.68,2a
2019-07-15_144007:520,-0.498749,-0.042175,-0.049805,-0.00403,0.000682,0.001442,-40.68,6.06,12.06,2a
2019-07-15_144007:540,-0.496216,-0.042694,-0.049805,-0.003878,0.0012619999999999999,0.001167,-40.68,6.06,12.06,2a
2019-07-15_144007:560,-0.494171,-0.043213,-0.052338,-0.003878,0.0014759999999999999,0.000526,-41.369999,6.06,12.87,2a
2019-07-15_144007:580,-0.494171,-0.042175,-0.049316000000000006,-0.003878,0.0014759999999999999,0.000129,-41.369999,6.06,12.87,2a
2019-07-15_144007:600,-0.496216,-0.041168,-0.051849,-0.003817,0.001842,-0.000176,-41.369999,6.06,12.87,2a
2019-07-15_144007:620,-0.49316400000000005,-0.040161,-0.050842,-0.0037560000000000002,0.002055,-0.00011499999999999999,-41.369999,6.06,12.5,2a
2019-07-15_144007:640,-0.490601,-0.040649,-0.05285599999999999,-0.0037560000000000002,0.002055,-0.0009689999999999999,-41.369999,6.06,12.5,2a
2019-07-15_144007:660,-0.492126,-0.039124,-0.052338,-0.003817,0.0016589999999999999,-0.0013050000000000002,-41.0,6.5,12.5,2a
2019-07-15_144007:680,-0.492645,-0.040649,-0.050842,-0.003817,0.00114,-0.000512,-41.0,6.5,12.5,2a
2019-07-15_144007:700,-0.49316400000000005,-0.040649,-0.052338,-0.0033280000000000002,0.000743,-0.000267,-41.0,6.5,12.5,2a
2019-07-15_144007:720,-0.495697,-0.039642000000000004,-0.05285599999999999,-0.003237,0.000407,-0.00023700000000000001,-40.68,5.68,12.87,2a
2019-07-15_144007:740,-0.497742,-0.041168,-0.051330999999999995,-0.003054,0.000682,0.000343,-40.68,5.68,12.87,2a
2019-07-15_144007:760,-0.496704,-0.039642000000000004,-0.052338,-0.002932,0.001353,0.000496,-40.68,5.37,11.25,2a
2019-07-15_144007:780,-0.49468999999999996,-0.038635,-0.051849,-0.002718,0.0017809999999999998,0.000496,-40.68,5.37,11.25,2a
2019-07-15_144007:800,-0.494171,-0.038116000000000004,-0.05285599999999999,-0.002657,0.001994,0.000831,-40.68,5.37,11.25,2a
2019-07-15_144007:820,-0.494171,-0.038116000000000004,-0.05285599999999999,-0.002779,0.002177,0.000648,-41.369999,6.06,11.25,2a
2019-07-15_144007:840,-0.49517799999999995,-0.037598,-0.048798,-0.0025960000000000002,0.001964,0.000648,-41.369999,6.06,11.25,2a
2019-07-15_144007:860,-0.494171,-0.038116000000000004,-0.049805,-0.0028399999999999996,0.002116,0.0007700000000000001,-40.68,6.5,11.68,2a
2019-07-15_144007:880,-0.494171,-0.036591000000000005,-0.048798,-0.003176,0.002239,0.001045,-40.68,6.5,11.68,2a
2019-07-15_144007:900,-0.494171,-0.038116000000000004,-0.050842,-0.003512,0.002177,0.001258,-40.68,6.5,11.68,2a
2019-07-15_144007:920,-0.49316400000000005,-0.037598,-0.049316000000000006,-0.0037560000000000002,0.002177,0.001167,-41.0,5.06,11.68,2a
2019-07-15_144007:940,-0.492645,-0.039124,-0.049316000000000006,-0.003878,0.001964,0.000831,-41.0,5.06,11.68,2a
2019-07-15_144007:960,-0.492645,-0.040161,-0.051330999999999995,-0.004091,0.001628,0.001106,-41.75,6.06,12.87,2a
2019-07-15_144007:980,-0.494171,-0.039124,-0.048279,-0.004336,0.001537,0.000831,-41.75,6.06,12.87,2a
2019-07-15_144008:000,-0.49517799999999995,-0.040649,-0.047791,-0.004213000000000001,0.00172,0.001045,-41.75,6.06,12.87,2a
2019-07-15_144008:020,-0.49468999999999996,-0.040649,-0.048798,-0.004152,0.001842,0.000984,-40.68,5.06,11.68,2a
2019-07-15_144008:040,-0.494171,-0.041168,-0.049316000000000006,-0.003939,0.002116,0.000923,-40.68,5.06,11.68,2a
2019-07-15_144008:060,-0.49316400000000005,-0.042694,-0.048798,-0.003512,0.001964,0.001167,-41.75,6.87,12.5,2a
2019-07-15_144008:080,-0.492645,-0.042175,-0.051330999999999995,-0.0031149999999999997,0.001598,0.001228,-41.75,6.87,12.5,2a
2019-07-15_144008:100,-0.49517799999999995,-0.041687,-0.048279,-0.002779,0.001537,0.001655,-41.75,6.87,12.5,2a
2019-07-15_144008:120,-0.496216,-0.041687,-0.049805,-0.002199,0.00172,0.001655,-41.0,5.68,12.5,2a
2019-07-15_144008:140,-0.495697,-0.040161,-0.045745999999999995,-0.0025050000000000003,0.002574,0.001991,-41.0,5.68,12.5,2a
2019-07-15_144008:160,-0.49468999999999996,-0.038116000000000004,-0.048279,-0.003054,0.002696,0.003517,-40.68,5.68,12.87,2a
2019-07-15_144008:180,-0.492645,-0.039642000000000004,-0.047791,-0.0036950000000000004,0.0023,0.003151,-40.68,5.68,12.87,2a
2019-07-15_144008:200,-0.49111899999999997,-0.040649,-0.049316000000000006,-0.004275,0.001628,0.001106,-40.68,5.68,12.87,2a
2019-07-15_144008:220,-0.49316400000000005,-0.040161,-0.048798,-0.004732,0.000621,0.001381,-41.369999,5.68,13.68,2a
2019-07-15_144008:240,-0.49365200000000004,-0.043701,-0.048798,-0.005221,0.000743,0.002052,-41.369999,5.68,13.68,2a
2019-07-15_144008:260,-0.494171,-0.044219999999999995,-0.049316000000000006,-0.005404,0.000865,0.001106,-41.0,6.06,11.68,2a
2019-07-15_144008:280,-0.492645,-0.045745999999999995,-0.050323,-0.005007,0.001018,0.000648,-41.0,6.06,11.68,2a
2019-07-15_144008:300,-0.49365200000000004,-0.046265,-0.049805,-0.004824,0.001201,0.000648,-41.0,6.06,11.68,2a
2019-07-15_144008:320,-0.49517799999999995,-0.046752999999999996,-0.049805,-0.004275,0.001292,0.000984,-40.25,6.06,11.68,2a
2019-07-15_144008:340,-0.496216,-0.046752999999999996,-0.048798,-0.003573,0.001628,0.001106,-40.25,6.06,11.68,2a
2019-07-15_144008:360,-0.496216,-0.046265,-0.048798,-0.003054,0.001842,0.00132,-41.369999,5.68,12.5,2a
2019-07-15_144008:380,-0.496216,-0.045226999999999996,-0.047791,-0.0025960000000000002,0.001628,0.001045,-41.369999,5.68,12.5,2a
2019-07-15_144008:400,-0.496216,-0.045226999999999996,-0.050323,-0.002718,0.001415,0.000709,-41.369999,5.68,12.5,2a
2019-07-15_144008:420,-0.49823,-0.043213,-0.048798,-0.002718,0.001842,0.000221,-41.369999,5.68,11.68,2a
2019-07-15_144008:440,-0.500275,-0.041687,-0.046265,-0.002932,0.002513,-0.000267,-41.369999,5.68,11.68,2a
2019-07-15_144008:460,-0.497742,-0.041687,-0.045226999999999996,-0.003176,0.003093,-0.0008470000000000001,-41.0,6.5,12.06,2a
2019-07-15_144008:480,-0.486023,-0.039642000000000004,-0.043701,-0.004397,0.003703,-0.001519,-41.0,6.5,12.06,2a
2019-07-15_144008:500,-0.484009,-0.040649,-0.044219999999999995,-0.005007,0.002361,0.000496,-41.0,6.5,12.06,2a
2019-07-15_144008:520,-0.486023,-0.044219999999999995,-0.045745999999999995,-0.0051600000000000005,0.0012619999999999999,0.001564,-40.68,6.06,13.68,2a
2019-07-15_144008:540,-0.48754899999999995,-0.046752999999999996,-0.047272,-0.004946,-0.001363,0.001625,-40.68,6.06,13.68,2a
2019-07-15_144008:560,-0.49111899999999997,-0.047272,-0.049316000000000006,-0.00461,-0.002156,0.000984,-41.0,6.06,13.25,2a
2019-07-15_144008:580,-0.49365200000000004,-0.045745999999999995,-0.049316000000000006,-0.0033280000000000002,-0.002095,0.001258,-41.0,6.06,13.25,2a
2019-07-15_144008:600,-0.496704,-0.043701,-0.048798,-0.0031149999999999997,-0.001698,0.0018989999999999999,-41.0,6.06,13.25,2a
2019-07-15_144008:620,-0.496704,-0.042694,-0.052338,-0.003176,-0.001393,0.002235,-41.369999,6.06,11.25,2a
2019-07-15_144008:640,-0.496704,-0.041687,-0.053375,-0.003939,-0.0007830000000000001,0.0018989999999999999,-41.369999,6.06,11.25,2a
2019-07-15_144008:660,-0.49517799999999995,-0.041687,-0.05438200000000001,-0.003939,-0.00044699999999999997,0.001381,-41.369999,6.06,12.5,2a
2019-07-15_144008:680,-0.498749,-0.039642000000000004,-0.05285599999999999,-0.004397,0.000346,0.000496,-41.369999,6.06,12.5,2a
2019-07-15_144008:700,-0.49823,-0.040161,-0.050323,-0.004793,0.000865,0.000648,-41.369999,6.06,12.5,2a
2019-07-15_144008:720,-0.495697,-0.040161,-0.050842,-0.0051600000000000005,0.0014759999999999999,0.000984,-41.0,6.87,11.68,2a
2019-07-15_144008:740,-0.492126,-0.040161,-0.052338,-0.005861,0.001628,0.002693,-41.0,6.87,11.68,2a
2019-07-15_144008:760,-0.489075,-0.044219999999999995,-0.053863999999999995,-0.006258,0.0012619999999999999,0.003151,-41.369999,6.5,12.06,2a
2019-07-15_144008:780,-0.488068,-0.045226999999999996,-0.05438200000000001,-0.006594,-0.00011100000000000001,0.003181,-41.369999,6.5,12.06,2a
2019-07-15_144008:800,-0.494171,-0.048798,-0.05438200000000001,-0.006136,-0.000661,0.002845,-41.369999,6.5,12.06,2a
2019-07-15_144008:820,-0.496704,-0.049316000000000006,-0.054901,-0.005922,-0.00063,0.002357,-40.68,6.06,12.5,2a
2019-07-15_144008:840,-0.49926800000000005,-0.050323,-0.053863999999999995,-0.0051600000000000005,0.000743,0.00132,-40.68,6.06,12.5,2a
2019-07-15_144008:860,-0.49517799999999995,-0.051849,-0.054901,-0.0048850000000000005,0.001292,0.00132,-41.0,6.5,12.06,2a
2019-07-15_144008:880,-0.49365200000000004,-0.054901,-0.055908000000000006,-0.003817,0.001415,0.001838,-41.0,6.5,12.06,2a
2019-07-15_144008:900,-0.491638,-0.053863999999999995,-0.055908000000000006,-0.002657,0.0012619999999999999,0.001228,-41.0,6.5,12.06,2a
2019-07-15_144008:920,-0.49316400000000005,-0.050842,-0.053375,-0.002199,0.001201,0.000923,-40.68,6.87,12.87,2a
2019-07-15_144008:940,-0.49722299999999997,-0.049316000000000006,-0.050842,-0.0015279999999999998,0.0017809999999999998,0.002784,-40.68,6.87,12.87,2a
2019-07-15_144008:960,-0.492645,-0.047791,-0.053375,-0.0018030000000000001,0.001628,0.003242,-41.75,7.56,10.87,2a
2019-07-15_144008:980,-0.489594,-0.047272,-0.054901,-0.002993,0.00114,0.001564,-41.75,7.56,10.87,2a
2019-07-15_144009:000,-0.490601,-0.045226999999999996,-0.05438200000000001,-0.003664,0.000346,0.001228,-41.75,7.56,10.87,2a
2019-07-15_144009:020,-0.492645,-0.045226999999999996,-0.055908000000000006,-0.004397,0.000407,0.001106,-41.0,7.18,12.87,2a
2019-07-15_144009:040,-0.496216,-0.047272,-0.05438200000000001,-0.0056170000000000005,0.000499,0.0008619999999999999,-41.0,7.18,12.87,2a
2019-07-15_144009:060,-0.49316400000000005,-0.051330999999999995,-0.056915,-0.006258,0.000621,0.0007700000000000001,-41.0,7.18,12.87,2a
2019-07-15_144009:080,-0.492126,-0.05285599999999999,-0.056915,-0.006014,0.0008960000000000001,0.000526,-40.68,6.5,12.06,2a
2019-07-15_144009:100,-0.49316400000000005,-0.054901,-0.056915,-0.0056170000000000005,0.0008960000000000001,0.000587,-40.68,6.5,12.06,2a
2019-07-15_144009:120,-0.49823,-0.053863999999999995,-0.055908000000000006,-0.004,0.001628,-0.000512,-41.75,7.18,11.68,2a
2019-07-15_144009:140,-0.49823,-0.05285599999999999,-0.05285599999999999,-0.0037560000000000002,0.002055,-0.00045099999999999996,-41.75,7.18,11.68,2a
2019-07-15_144009:160,-0.49316400000000005,-0.052338,-0.053375,-0.002932,0.003246,6.8e-05,-42.5,6.5,11.68,2a
2019-07-15_144009:180,-0.489075,-0.049805,-0.05438200000000001,-0.0029010000000000004,0.003368,0.000831,-42.5,6.5,11.68,2a
2019-07-15_144009:200,-0.48754899999999995,-0.050323,-0.054901,-0.0025960000000000002,0.00172,0.001381,-42.5,6.5,11.68,2a
2019-07-15_144009:220,-0.49468999999999996,-0.050323,-0.055389,-0.0025960000000000002,0.001415,0.000923,-41.75,7.56,11.68,2a
2019-07-15_144009:240,-0.49316400000000005,-0.048798,-0.053863999999999995,-0.0025050000000000003,0.000743,0.001045,-41.75,7.56,11.68,2a
2019-07-15_144009:260,-0.49365200000000004,-0.049316000000000006,-0.056915,-0.0025050000000000003,0.00056,0.001167,-40.25,6.87,12.06,2a
2019-07-15_144009:280,-0.489594,-0.049805,-0.057434000000000006,-0.002535,0.00056,0.000984,-40.25,6.87,12.06,2a
2019-07-15_144009:300,-0.48858599999999996,-0.049805,-0.057953,-0.002321,0.000285,0.001045,-40.25,6.87,12.06,2a
2019-07-15_144009:320,-0.49316400000000005,-0.048798,-0.058441,-0.002321,0.000133,0.001167,-41.0,6.87,10.87,2a
2019-07-15_144009:340,-0.496216,-0.046265,-0.055908000000000006,-0.0025050000000000003,0.000468,0.000465,-41.0,6.87,10.87,2a
2019-07-15_144009:360,-0.498749,-0.044739,-0.055389,-0.003512,0.0016589999999999999,-0.00023700000000000001,-41.369999,6.87,12.5,2a
2019-07-15_144009:380,-0.49823,-0.045226999999999996,-0.054901,-0.003939,0.001964,-0.00023700000000000001,-41.369999,6.87,12.5,2a
2019-07-15_144009:400,-0.49468999999999996,-0.047791,-0.055389,-0.005129,0.002513,-0.000725,-41.369999,6.87,12.5,2a
2019-07-15_144009:420,-0.492645,-0.049805,-0.056427,-0.005129,0.0024519999999999998,-0.0009689999999999999,-41.75,7.56,12.5,2a
2019-07-15_144009:440,-0.490112,-0.051849,-0.054901,-0.004336,0.001628,-0.001519,-41.75,7.56,12.5,2a
2019-07-15_144009:460,-0.490601,-0.051330999999999995,-0.055908000000000006,-0.003939,0.0016589999999999999,-0.001641,-41.75,7.56,12.5,2a
2019-07-15_144009:480,-0.49316400000000005,-0.048798,-0.054901,-0.0025960000000000002,0.001201,-0.000786,-40.68,6.87,11.68,2a
2019-07-15_144009:500,-0.49365200000000004,-0.047272,-0.056427,-0.0022600000000000003,0.00114,-0.000267,-40.68,6.87,11.68,2a
2019-07-15_144009:520,-0.49722299999999997,-0.045745999999999995,-0.055908000000000006,-0.0020469999999999998,0.0014759999999999999,0.000129,-41.0,7.18,11.68,2a
2019-07-15_144009:540,-0.496704,-0.043701,-0.05438200000000001,-0.0020469999999999998,0.002116,0.000648,-41.0,7.18,11.68,2a
2019-07-15_144009:560,-0.495697,-0.043701,-0.055389,-0.0029010000000000004,0.002635,0.001106,-41.75,6.87,10.87,2a
2019-07-15_144009:580,-0.49316400000000005,-0.045745999999999995,-0.054901,-0.003878,0.0029100000000000003,0.001106,-41.75,6.87,10.87,2a
2019-07-15_144009:600,-0.49517799999999995,-0.047272,-0.057434000000000006,-0.00461,0.002849,0.000984,-41.75,6.87,10.87,2a
2019-07-15_144009:620,-0.489075,-0.050842,-0.053375,-0.005282,0.002696,0.000831,-40.68,6.5,11.68,2a
2019-07-15_144009:640,-0.490112,-0.051330999999999995,-0.054901,-0.004946,0.002635,0.000526,-40.68,6.5,11.68,2a
2019-07-15_144009:660,-0.489594,-0.051849,-0.055389,-0.004488000000000001,0.001964,0.000496,-41.0,6.5,10.18,2a
2019-07-15_144009:680,-0.492126,-0.051330999999999995,-0.057434000000000006,-0.004152,0.001598,0.000526,-41.0,6.5,10.18,2a
2019-07-15_144009:700,-0.49365200000000004,-0.051849,-0.055908000000000006,-0.0032979999999999997,0.0010789999999999999,-0.00011499999999999999,-41.0,6.5,10.18,2a
2019-07-15_144009:720,-0.496216,-0.049316000000000006,-0.056915,-0.002718,0.001292,-5.4000000000000005e-05,-41.369999,6.5,11.68,2a
2019-07-15_144009:740,-0.49823,-0.049316000000000006,-0.053375,-0.002199,0.00172,-0.000267,-41.369999,6.5,11.68,2a
2019-07-15_144009:760,-0.495697,-0.044739,-0.053863999999999995,-0.002535,0.0023,-0.00023700000000000001,-41.369999,6.5,11.68,2a
2019-07-15_144009:780,-0.492645,-0.043701,-0.05285599999999999,-0.002993,0.002696,0.00132,-42.060001,6.87,12.06,2a
2019-07-15_144009:800,-0.49722299999999997,-0.047272,-0.051849,-0.003573,0.0029100000000000003,0.000496,-42.060001,6.87,12.06,2a
2019-07-15_144009:820,-0.494171,-0.046265,-0.05285599999999999,-0.00403,0.003093,-0.0012439999999999999,-41.369999,6.5,11.25,2a
2019-07-15_144009:840,-0.490601,-0.046752999999999996,-0.050323,-0.004,0.0029100000000000003,-0.000176,-41.369999,6.5,11.25,2a
2019-07-15_144009:860,-0.49111899999999997,-0.048279,-0.050842,-0.004091,0.0024519999999999998,0.000496,-41.369999,6.87,12.06,2a
2019-07-15_144009:880,-0.490112,-0.049805,-0.05285599999999999,-0.0037560000000000002,0.0019030000000000002,6.8e-05,-41.369999,6.87,12.06,2a
2019-07-15_144009:900,-0.49316400000000005,-0.049316000000000006,-0.051330999999999995,-0.003054,0.0016589999999999999,0.000129,-41.369999,6.87,12.06,2a
2019-07-15_144009:920,-0.49316400000000005,-0.048798,-0.051849,-0.0029010000000000004,0.00172,0.000465,-39.869999,7.18,11.25,2a
2019-07-15_144009:940,-0.494171,-0.048279,-0.050842,-0.002657,0.0016589999999999999,0.001045,-39.869999,7.18,11.25,2a
2019-07-15_144009:960,-0.494171,-0.047272,-0.051330999999999995,-0.002718,0.00172,0.001106,-39.869999,7.18,11.25,2a
2019-07-15_144009:980,-0.492645,-0.047272,-0.051330999999999995,-0.002932,0.001628,0.000648,-41.75,6.06,11.68,2a
2019-07-15_144010:000,-0.49365200000000004,-0.045226999999999996,-0.052338,-0.003237,0.001537,0.00016,-41.75,6.06,11.68,2a
2019-07-15_144010:020,-0.492126,-0.045226999999999996,-0.052338,-0.0037560000000000002,0.001415,-0.000267,-41.0,7.18,11.68,2a
2019-07-15_144010:040,-0.492126,-0.046265,-0.049805,-0.004091,0.001353,-0.000176,-41.0,7.18,11.68,2a
2019-07-15_144010:060,-0.49517799999999995,-0.048798,-0.051849,-0.004427,0.00114,-0.00011499999999999999,-41.0,7.18,11.68,2a
2019-07-15_144010:080,-0.49517799999999995,-0.048798,-0.050323,-0.004213000000000001,0.001353,-0.00023700000000000001,-40.68,6.87,10.87,2a
2019-07-15_144010:100,-0.492126,-0.048798,-0.051330999999999995,-0.003817,0.001628,-0.000573,-40.68,6.87,10.87,2a
2019-07-15_144010:120,-0.492126,-0.048798,-0.051330999999999995,-0.00339,0.0014759999999999999,-0.00011499999999999999,-41.369999,6.5,12.06,2a
2019-07-15_144010:140,-0.489075,-0.049316000000000006,-0.052338,-0.002993,0.0010789999999999999,0.001106,-41.369999,6.5,12.06,2a
2019-07-15_144010:160,-0.490601,-0.047272,-0.053863999999999995,-0.002993,0.000499,0.001564,-41.369999,6.5,12.06,2a
2019-07-15_144010:180,-0.492645,-0.046265,-0.054901,-0.003054,0.000407,0.001381,-41.0,6.5,12.06,2a
2019-07-15_144010:200,-0.495697,-0.044739,-0.05438200000000001,-0.003573,0.00056,0.000526,-41.0,6.5,12.06,2a
2019-07-15_144010:220,-0.496216,-0.044739,-0.055389,-0.004152,0.0008039999999999999,-0.000328,-41.369999,6.5,10.87,2a
2019-07-15_144010:240,-0.497742,-0.044739,-0.05438200000000001,-0.004549,0.001415,-0.000786,-41.369999,6.5,10.87,2a
2019-07-15_144010:260,-0.495697,-0.047272,-0.054901,-0.0048850000000000005,0.00172,-0.0009689999999999999,-41.369999,6.5,10.87,2a
2019-07-15_144010:280,-0.494171,-0.048279,-0.055389,-0.00461,0.002361,-0.000786,-41.369999,6.87,11.68,2a
2019-07-15_144010:300,-0.496216,-0.049316000000000006,-0.05438200000000001,-0.003878,0.002574,-0.000389,-41.369999,6.87,11.68,2a
2019-07-15_144010:320,-0.496704,-0.050842,-0.053863999999999995,-0.003054,0.0029100000000000003,-0.000389,-41.0,6.5,11.25,2a
2019-07-15_144010:340,-0.496216,-0.047272,-0.050842,-0.002382,0.003246,6.8e-05,-41.0,6.5,11.25,2a
2019-07-15_144010:360,-0.495697,-0.045745999999999995,-0.052338,-0.002321,0.003886,0.000221,-41.0,6.5,11.25,2a
2019-07-15_144010:380,-0.497742,-0.042175,-0.051330999999999995,-0.002993,0.0042829999999999995,-0.000176,-41.0,6.87,12.87,2a
2019-07-15_144010:400,-0.49823,-0.040649,-0.052338,-0.004091,0.0052899999999999996,-0.0009689999999999999,-41.0,6.87,12.87,2a
2019-07-15_144010:420,-0.496216,-0.038635,-0.053863999999999995,-0.006014,0.00584,-0.0017629999999999998,-40.68,6.5,12.06,2a
2019-07-15_144010:440,-0.49316400000000005,-0.037598,-0.051849,-0.007265000000000001,0.005901,-0.003106,-40.68,6.5,12.06,2a
2019-07-15_144010:460,-0.492645,-0.039642000000000004,-0.051849,-0.008516,0.005961999999999999,-0.005181,-40.68,6.5,12.06,2a
2019-07-15_144010:480,-0.49111899999999997,-0.040161,-0.050323,-0.010042,0.005504,-0.005303,-40.68,6.5,11.25,2a
2019-07-15_144010:500,-0.491638,-0.042694,-0.048279,-0.010317,0.004954999999999999,-0.004509,-40.68,6.5,11.25,2a
2019-07-15_144010:520,-0.489075,-0.042694,-0.048798,-0.01047,0.004039,-0.004692,-40.68,6.06,13.25,2a
2019-07-15_144010:540,-0.488068,-0.042175,-0.047272,-0.010042,0.003032,-0.004815,-40.68,6.06,13.25,2a
2019-07-15_144010:560,-0.489075,-0.042175,-0.047272,-0.00873,0.0019030000000000002,-0.004631000000000001,-40.68,6.06,13.25,2a
2019-07-15_144010:580,-0.49365200000000004,-0.039124,-0.046265,-0.007662,0.0010789999999999999,-0.004631000000000001,-41.0,6.06,12.06,2a
2019-07-15_144010:600,-0.49823,-0.040161,-0.043213,-0.006533,0.0012619999999999999,-0.004296,-41.0,6.06,12.06,2a
2019-07-15_144010:620,-0.498749,-0.039124,-0.043213,-0.0056170000000000005,0.0019030000000000002,-0.002495,-41.369999,5.37,10.18,2a
2019-07-15_144010:640,-0.498749,-0.040161,-0.041687,-0.004793,0.002849,-0.000725,-41.369999,5.37,10.18,2a
2019-07-15_144010:660,-0.490112,-0.039642000000000004,-0.044739,-0.003878,0.0024519999999999998,0.000526,-41.369999,5.37,10.18,2a
2019-07-15_144010:680,-0.492126,-0.039124,-0.044739,-0.0028399999999999996,0.0017809999999999998,0.00132,-41.369999,5.37,11.25,2a
2019-07-15_144010:700,-0.49111899999999997,-0.038635,-0.046265,-0.0018030000000000001,0.0008039999999999999,-0.001,-41.369999,5.37,11.25,2a
2019-07-15_144010:720,-0.48858599999999996,-0.037108999999999996,-0.046752999999999996,-0.000918,-0.000172,-0.0011220000000000002,-41.0,6.5,12.5,2a
2019-07-15_144010:740,-0.49316400000000005,-0.036591000000000005,-0.048798,-0.00045999999999999996,-0.001057,0.00028199999999999997,-41.0,6.5,12.5,2a
2019-07-15_144010:760,-0.492126,-0.032532,-0.048798,-0.000643,-0.00124,-0.00045099999999999996,-41.0,6.5,12.5,2a
2019-07-15_144010:780,-0.495697,-0.029968,-0.048798,-0.000582,-0.00124,-0.000573,-42.060001,6.5,12.87,2a
2019-07-15_144010:800,-0.497742,-0.029968,-0.048279,-0.00107,-0.00044699999999999997,-0.000176,-42.060001,6.5,12.87,2a
2019-07-15_144010:820,-0.500275,-0.030487,-0.048798,-0.001986,0.00016299999999999998,0.000343,-40.68,5.68,13.25,2a
2019-07-15_144010:840,-0.501801,-0.031006,-0.047272,-0.002718,0.0012619999999999999,0.001258,-40.68,5.68,13.25,2a
2019-07-15_144010:860,-0.49975600000000003,-0.033539,-0.047791,-0.003176,0.001842,0.001503,-40.68,5.68,13.25,2a
2019-07-15_144010:880,-0.49823,-0.034058,-0.048798,-0.003512,0.002361,0.001442,-41.369999,5.68,11.25,2a
2019-07-15_144010:900,-0.49468999999999996,-0.035065,-0.048798,-0.0036340000000000005,0.0029100000000000003,0.001716,-41.369999,5.68,11.25,2a
2019-07-15_144010:920,-0.488068,-0.035065,-0.043213,-0.003573,0.002696,0.001991,-41.369999,6.06,12.87,2a
