timestamp,AccX,AccY,AccZ,GyroX,GyroY,GyroZ,MagX,MagY,MagZ,Activity
2019-07-12_131946:180,-0.496704,0.001007,-0.060486,-0.004275999999999999,-0.006,0.004732,-57.18,-18.25,-5.25,2a
2019-07-12_131946:200,-0.49517799999999995,0.001007,-0.058960000000000005,-0.004581,-0.005695,0.004548,-57.18,-18.25,-5.25,2a
2019-07-12_131946:220,-0.492645,0.001495,-0.063019,-0.004612,-0.005451,0.005128,-55.68,-19.0,-6.06,2a
2019-07-12_131946:240,-0.49365200000000004,0.000488,-0.061005,-0.004886,-0.005756,0.005861,-55.68,-19.0,-6.06,2a
2019-07-12_131946:260,-0.492645,0.0,-0.061005,-0.004978,-0.005939,0.006044,-55.68,-19.0,-6.06,2a
2019-07-12_131946:280,-0.494171,-0.001007,-0.062012,-0.0052829999999999995,-0.006,0.006318,-57.560001,-18.559998999999998,-6.5,2a
2019-07-12_131946:300,-0.49722299999999997,-0.002014,-0.060486,-0.0051,-0.006,0.006929,-57.560001,-18.559998999999998,-6.5,2a
2019-07-12_131946:320,-0.49517799999999995,-0.0030210000000000002,-0.06149299999999999,-0.004947,-0.0055119999999999995,0.006929,-57.18,-18.25,-5.0,2a
2019-07-12_131946:340,-0.496216,-0.004059,-0.061005,-0.004978,-0.005451,0.006868000000000001,-57.18,-18.25,-5.0,2a
2019-07-12_131946:360,-0.49517799999999995,-0.006072999999999999,-0.061005,-0.004886,-0.005054,0.007509,-57.18,-18.25,-5.0,2a
2019-07-12_131946:380,-0.496704,-0.007599,-0.061005,-0.004581,-0.005054,0.007112,-57.18,-19.0,-5.25,2a
2019-07-12_131946:400,-0.497742,-0.006072999999999999,-0.061005,-0.004337,-0.0052369999999999995,0.005311,-57.18,-19.0,-5.25,2a
2019-07-12_131946:420,-0.492645,-0.0035399999999999997,-0.061005,-0.004275999999999999,-0.0055119999999999995,0.005861,-56.5,-18.559998999999998,-6.5,2a
2019-07-12_131946:440,-0.492126,-0.004547,-0.05996699999999999,-0.004520000000000001,-0.005725,0.006593000000000001,-56.5,-18.559998999999998,-6.5,2a
2019-07-12_131946:460,-0.492126,-0.007599,-0.062012,-0.004886,-0.0055119999999999995,0.006318,-56.5,-18.559998999999998,-6.5,2a
2019-07-12_131946:480,-0.49316400000000005,-0.006592,-0.06149299999999999,-0.005039,-0.005573,0.005983,-57.18,-18.25,-5.0,2a
2019-07-12_131946:500,-0.494171,-0.007599,-0.062012,-0.005039,-0.005451,0.005647,-57.18,-18.25,-5.0,2a
2019-07-12_131946:520,-0.495697,-0.007111,-0.058960000000000005,-0.004978,-0.005176,0.005067,-57.18,-18.25,-6.5,2a
2019-07-12_131946:540,-0.496704,-0.007111,-0.059479,-0.004947,-0.004961999999999999,0.004396,-57.18,-18.25,-6.5,2a
2019-07-12_131946:560,-0.496704,-0.007111,-0.058960000000000005,-0.004642,-0.004718,0.004793,-57.18,-18.25,-6.5,2a
2019-07-12_131946:580,-0.49316400000000005,-0.008636,-0.058441,-0.004520000000000001,-0.004779,0.004945000000000001,-57.560001,-18.25,-6.06,2a
2019-07-12_131946:600,-0.49517799999999995,-0.008636,-0.058441,-0.004764,-0.005054,0.005067,-57.560001,-18.25,-6.06,2a
2019-07-12_131946:620,-0.492126,-0.010162000000000001,-0.058441,-0.004581,-0.004993,0.005311,-57.18,-17.870001000000002,-6.5,2a
2019-07-12_131946:640,-0.490112,-0.011169,-0.058960000000000005,-0.004581,-0.005725,0.004213000000000001,-57.18,-17.870001000000002,-6.5,2a
2019-07-12_131946:660,-0.49111899999999997,-0.008636,-0.060486,-0.004581,-0.005878,0.0037549999999999997,-57.18,-17.870001000000002,-6.5,2a
2019-07-12_131946:680,-0.49111899999999997,-0.008118,-0.059479,-0.004337,-0.006488,0.004152,-57.18,-18.559998999999998,-5.0,2a
2019-07-12_131946:700,-0.49517799999999995,-0.009644,-0.061005,-0.004123,-0.006275,0.0037549999999999997,-57.18,-18.559998999999998,-5.0,2a
2019-07-12_131946:720,-0.496704,-0.008118,-0.06149299999999999,-0.004275999999999999,-0.006092,0.003053,-57.560001,-17.870001000000002,-6.06,2a
2019-07-12_131946:740,-0.49722299999999997,-0.006072999999999999,-0.058960000000000005,-0.004123,-0.005878,0.003175,-57.560001,-17.870001000000002,-6.06,2a
2019-07-12_131946:760,-0.496216,-0.006592,-0.058960000000000005,-0.0042450000000000005,-0.005634,0.003511,-57.560001,-17.870001000000002,-6.06,2a
2019-07-12_131946:780,-0.496216,-0.006072999999999999,-0.05996699999999999,-0.004398,-0.005176,0.003297,-57.18,-18.25,-5.25,2a
2019-07-12_131946:800,-0.49365200000000004,-0.006072999999999999,-0.059479,-0.004581,-0.005451,0.0029620000000000002,-57.18,-18.25,-5.25,2a
2019-07-12_131946:820,-0.494171,-0.004059,-0.059479,-0.004581,-0.0055119999999999995,0.00345,-57.560001,-18.25,-5.25,2a
2019-07-12_131946:840,-0.492645,-0.005065999999999999,-0.059479,-0.004642,-0.0055119999999999995,0.0039689999999999994,-57.560001,-18.25,-5.25,2a
2019-07-12_131946:860,-0.492126,-0.005065999999999999,-0.059479,-0.004520000000000001,-0.005695,0.004182,-57.560001,-18.25,-5.25,2a
2019-07-12_131946:880,-0.492126,-0.005065999999999999,-0.061005,-0.004520000000000001,-0.005695,0.004152,-57.560001,-17.5,-5.25,2a
2019-07-12_131946:900,-0.49316400000000005,-0.004059,-0.05996699999999999,-0.004581,-0.0061530000000000005,0.004182,-57.560001,-17.5,-5.25,2a
2019-07-12_131946:920,-0.496704,-0.0030210000000000002,-0.062012,-0.004642,-0.0061530000000000005,0.004518,-57.560001,-17.870001000000002,-6.06,2a
2019-07-12_131946:940,-0.49975600000000003,-0.004547,-0.058960000000000005,-0.004642,-0.005939,0.004732,-57.560001,-17.870001000000002,-6.06,2a
2019-07-12_131946:960,-0.497742,-0.006592,-0.060486,-0.004825,-0.005359,0.004548,-57.560001,-17.870001000000002,-6.06,2a
2019-07-12_131946:980,-0.495697,-0.005065999999999999,-0.05996699999999999,-0.004947,-0.005054,0.004945000000000001,-56.5,-18.559998999999998,-6.06,2a
2019-07-12_131947:000,-0.494171,-0.007111,-0.05996699999999999,-0.005161,-0.004993,0.005128,-56.5,-18.559998999999998,-6.06,2a
2019-07-12_131947:020,-0.49365200000000004,-0.009125,-0.062012,-0.004978,-0.0055119999999999995,0.003358,-58.0,-18.25,-5.25,2a
2019-07-12_131947:040,-0.49365200000000004,-0.006592,-0.060486,-0.004825,-0.005695,0.002443,-58.0,-18.25,-5.25,2a
2019-07-12_131947:060,-0.49365200000000004,-0.004059,-0.062012,-0.004520000000000001,-0.005878,0.004213000000000001,-58.0,-18.25,-5.25,2a
2019-07-12_131947:080,-0.494171,-0.007111,-0.062012,-0.0042450000000000005,-0.0060609999999999995,0.005678,-57.560001,-18.25,-5.68,2a
2019-07-12_131947:100,-0.496704,-0.0055850000000000006,-0.062012,-0.004398,-0.005939,0.005128,-57.560001,-18.25,-5.68,2a
2019-07-12_131947:120,-0.496704,-0.005065999999999999,-0.060486,-0.004520000000000001,-0.005573,0.004457,-56.869999,-18.25,-5.68,2a
2019-07-12_131947:140,-0.494171,-0.005065999999999999,-0.058441,-0.004581,-0.0052369999999999995,0.004457,-56.869999,-18.25,-5.68,2a
2019-07-12_131947:160,-0.49468999999999996,-0.005065999999999999,-0.058441,-0.004764,-0.00484,0.004457,-56.869999,-18.25,-5.68,2a
2019-07-12_131947:180,-0.492126,-0.0055850000000000006,-0.057953,-0.004703,-0.004718,0.004671,-57.18,-18.25,-5.68,2a
2019-07-12_131947:200,-0.492126,-0.0055850000000000006,-0.056915,-0.004612,-0.005634,0.005525,-57.18,-18.25,-5.68,2a
2019-07-12_131947:220,-0.49111899999999997,-0.006592,-0.058441,-0.0042450000000000005,-0.0060609999999999995,0.006044,-57.560001,-18.25,-5.25,2a
2019-07-12_131947:240,-0.49517799999999995,-0.007599,-0.057953,-0.004184,-0.006458,0.006257,-57.560001,-18.25,-5.25,2a
2019-07-12_131947:260,-0.492126,-0.008636,-0.057434000000000006,-0.004398,-0.006548999999999999,0.006470999999999999,-57.560001,-18.25,-5.25,2a
2019-07-12_131947:280,-0.491638,-0.010162000000000001,-0.058960000000000005,-0.004398,-0.006670999999999999,0.005311,-56.5,-17.5,-6.06,2a
2019-07-12_131947:300,-0.49316400000000005,-0.006592,-0.06149299999999999,-0.004642,-0.006945999999999999,0.004335,-56.5,-17.5,-6.06,2a
2019-07-12_131947:320,-0.49365200000000004,-0.007111,-0.06149299999999999,-0.004825,-0.007343000000000001,0.004548,-56.5,-18.25,-5.68,2a
2019-07-12_131947:340,-0.496216,-0.008636,-0.06149299999999999,-0.004886,-0.007343000000000001,0.004213000000000001,-56.5,-18.25,-5.68,2a
2019-07-12_131947:360,-0.49823,-0.007599,-0.06253099999999999,-0.005375,-0.0066099999999999996,0.003358,-56.5,-18.25,-5.68,2a
2019-07-12_131947:380,-0.495697,-0.006592,-0.063019,-0.005741,-0.005695,0.003694,-56.869999,-18.559998999999998,-3.68,2a
2019-07-12_131947:400,-0.492645,-0.009125,-0.063019,-0.005679999999999999,-0.0052369999999999995,0.004213000000000001,-56.869999,-18.559998999999998,-3.68,2a
2019-07-12_131947:420,-0.49365200000000004,-0.010162000000000001,-0.065063,-0.0060149999999999995,-0.005756,0.0037549999999999997,-57.560001,-17.870001000000002,-6.5,2a
2019-07-12_131947:440,-0.49365200000000004,-0.009644,-0.06405599999999999,-0.005619,-0.006458,0.003572,-57.560001,-17.870001000000002,-6.5,2a
2019-07-12_131947:460,-0.49722299999999997,-0.010651,-0.06405599999999999,-0.005039,-0.006731999999999999,0.004213000000000001,-57.560001,-17.870001000000002,-6.5,2a
2019-07-12_131947:480,-0.497742,-0.011169,-0.063019,-0.004520000000000001,-0.006488,0.004915,-57.18,-18.25,-4.5,2a
2019-07-12_131947:500,-0.49517799999999995,-0.010651,-0.06405599999999999,-0.003849,-0.005756,0.004793,-57.18,-18.25,-4.5,2a
2019-07-12_131947:520,-0.495697,-0.008118,-0.063538,-0.003452,-0.005115,0.004854,-56.869999,-18.25,-5.68,2a
2019-07-12_131947:540,-0.494171,-0.006592,-0.062012,-0.0032689999999999998,-0.004779,0.004732,-56.869999,-18.25,-5.68,2a
2019-07-12_131947:560,-0.494171,-0.005065999999999999,-0.064545,-0.0036049999999999997,-0.00484,0.004396,-56.869999,-18.25,-5.68,2a
2019-07-12_131947:580,-0.49517799999999995,-0.004059,-0.06149299999999999,-0.004184,-0.004596,0.004182,-56.060001,-17.5,-5.68,2a
2019-07-12_131947:600,-0.496216,-0.0055850000000000006,-0.05996699999999999,-0.004581,-0.0037719999999999997,0.004182,-56.060001,-17.5,-5.68,2a
2019-07-12_131947:620,-0.492126,-0.006072999999999999,-0.061005,-0.005619,-0.0035280000000000003,0.004457,-56.5,-17.870001000000002,-5.25,2a
2019-07-12_131947:640,-0.49468999999999996,-0.008636,-0.05996699999999999,-0.005893,-0.004108,0.004854,-56.5,-17.870001000000002,-5.25,2a
2019-07-12_131947:660,-0.49316400000000005,-0.012695,-0.059479,-0.005954,-0.00484,0.004457,-56.5,-17.870001000000002,-5.25,2a
2019-07-12_131947:680,-0.49517799999999995,-0.013213999999999998,-0.05996699999999999,-0.005436,-0.005573,0.0029620000000000002,-57.18,-18.25,-6.06,2a
2019-07-12_131947:700,-0.496704,-0.010162000000000001,-0.059479,-0.004703,-0.005725,0.0027170000000000002,-57.18,-18.25,-6.06,2a
2019-07-12_131947:720,-0.490601,-0.009125,-0.060486,-0.004123,-0.0055119999999999995,0.004457,-57.18,-18.25,-4.5,2a
2019-07-12_131947:740,-0.490601,-0.009644,-0.06149299999999999,-0.003483,-0.005298,0.005586,-57.18,-18.25,-4.5,2a
2019-07-12_131947:760,-0.492645,-0.006072999999999999,-0.06253099999999999,-0.003544,-0.005451,0.004854,-57.18,-18.25,-4.5,2a
2019-07-12_131947:780,-0.492645,-0.006072999999999999,-0.061005,-0.003849,-0.005115,0.004213000000000001,-56.869999,-17.870001000000002,-6.5,2a
2019-07-12_131947:800,-0.495697,-0.005065999999999999,-0.056427,-0.0042450000000000005,-0.004321,0.0038469999999999997,-56.869999,-17.870001000000002,-6.5,2a
2019-07-12_131947:820,-0.49468999999999996,-0.0055850000000000006,-0.057434000000000006,-0.004886,-0.003833,0.0038159999999999995,-58.0,-17.5,-4.5,2a
2019-07-12_131947:840,-0.49316400000000005,-0.0055850000000000006,-0.056427,-0.0051,-0.004169,0.004335,-58.0,-17.5,-4.5,2a
2019-07-12_131947:860,-0.494171,-0.006592,-0.056427,-0.005344,-0.0055119999999999995,0.005067,-58.0,-17.5,-4.5,2a
2019-07-12_131947:880,-0.49316400000000005,-0.007599,-0.057953,-0.005222,-0.006793,0.005647,-57.18,-18.25,-5.68,2a
2019-07-12_131947:900,-0.496704,-0.010162000000000001,-0.057434000000000006,-0.005039,-0.007220999999999999,0.006074,-57.18,-18.25,-5.68,2a
2019-07-12_131947:920,-0.494171,-0.012177,-0.058441,-0.004612,-0.007220999999999999,0.006135,-58.369999,-18.559998999999998,-5.68,2a
2019-07-12_131947:940,-0.496216,-0.013213999999999998,-0.060486,-0.004275999999999999,-0.006885,0.004609,-58.369999,-18.559998999999998,-5.68,2a
2019-07-12_131947:960,-0.494171,-0.009125,-0.06405599999999999,-0.0042450000000000005,-0.006731999999999999,0.004335,-58.369999,-18.559998999999998,-5.68,2a
2019-07-12_131947:980,-0.49365200000000004,-0.008118,-0.064545,-0.004062,-0.006731999999999999,0.004793,-57.18,-17.5,-5.0,2a
2019-07-12_131948:000,-0.49517799999999995,-0.006592,-0.061005,-0.004123,-0.005695,0.0034189999999999997,-57.18,-17.5,-5.0,2a
2019-07-12_131948:020,-0.492126,-0.005065999999999999,-0.061005,-0.004612,-0.004383,0.002687,-57.560001,-18.559998999999998,-6.06,2a
2019-07-12_131948:040,-0.492126,-0.0025329999999999997,-0.060486,-0.004947,-0.004108,0.003908,-57.560001,-18.559998999999998,-6.06,2a
2019-07-12_131948:060,-0.489594,-0.006072999999999999,-0.06253099999999999,-0.005497,-0.005634,0.004671,-57.560001,-18.559998999999998,-6.06,2a
2019-07-12_131948:080,-0.492645,-0.009125,-0.06405599999999999,-0.005679999999999999,-0.0066099999999999996,0.004915,-57.18,-18.25,-6.06,2a
2019-07-12_131948:100,-0.498749,-0.012177,-0.061005,-0.005375,-0.007404000000000001,0.005342,-57.18,-18.25,-6.06,2a
2019-07-12_131948:120,-0.49926800000000005,-0.013702,-0.06253099999999999,-0.004825,-0.006731999999999999,0.005586,-57.560001,-17.870001000000002,-5.25,2a
2019-07-12_131948:140,-0.498749,-0.012695,-0.063019,-0.004459,-0.005939,0.005525,-57.560001,-17.870001000000002,-5.25,2a
2019-07-12_131948:160,-0.49722299999999997,-0.012695,-0.063538,-0.004062,-0.005359,0.005342,-57.560001,-17.870001000000002,-5.25,2a
2019-07-12_131948:180,-0.494171,-0.011687999999999999,-0.063538,-0.00394,-0.00539,0.004671,-57.18,-17.5,-4.06,2a
2019-07-12_131948:200,-0.49316400000000005,-0.008118,-0.060486,-0.004062,-0.004657,0.003694,-57.18,-17.5,-4.06,2a
2019-07-12_131948:220,-0.49316400000000005,-0.006592,-0.059479,-0.004642,-0.003467,0.0032359999999999997,-58.0,-17.870001000000002,-5.25,2a
2019-07-12_131948:240,-0.492126,-0.004547,-0.057953,-0.004825,-0.00307,0.003633,-58.0,-17.870001000000002,-5.25,2a
2019-07-12_131948:260,-0.490112,-0.006592,-0.060486,-0.005161,-0.003925,0.004335,-58.0,-17.870001000000002,-5.25,2a
2019-07-12_131948:280,-0.494171,-0.009125,-0.060486,-0.005436,-0.005298,0.004457,-58.0,-17.5,-5.25,2a
2019-07-12_131948:300,-0.49517799999999995,-0.011169,-0.058441,-0.005497,-0.006092,0.005128,-58.0,-17.5,-5.25,2a
2019-07-12_131948:320,-0.501282,-0.014740000000000001,-0.060486,-0.005344,-0.006214,0.005647,-58.0,-18.25,-5.0,2a
2019-07-12_131948:340,-0.498749,-0.017792,-0.05996699999999999,-0.004459,-0.005695,0.004457,-58.0,-18.25,-5.0,2a
2019-07-12_131948:360,-0.495697,-0.014221000000000001,-0.060486,-0.003483,-0.00539,0.0029620000000000002,-58.0,-18.25,-5.0,2a
2019-07-12_131948:380,-0.49316400000000005,-0.011169,-0.062012,-0.003147,-0.005451,0.003358,-57.560001,-17.5,-5.25,2a
2019-07-12_131948:400,-0.48654200000000003,-0.006592,-0.062012,-0.003147,-0.005634,0.004854,-57.560001,-17.5,-5.25,2a
2019-07-12_131948:420,-0.489594,-0.007599,-0.058441,-0.0033909999999999995,-0.004779,0.004335,-58.0,-17.870001000000002,-4.5,2a
2019-07-12_131948:440,-0.494171,-0.004059,-0.057953,-0.004612,-0.0035280000000000003,0.003175,-58.0,-17.870001000000002,-4.5,2a
2019-07-12_131948:460,-0.494171,-0.0035399999999999997,-0.058441,-0.005436,-0.0038640000000000002,0.003297,-58.0,-17.870001000000002,-4.5,2a
2019-07-12_131948:480,-0.49517799999999995,-0.007111,-0.058441,-0.005832,-0.00426,0.003633,-57.18,-18.25,-5.68,2a
2019-07-12_131948:500,-0.49823,-0.009125,-0.056915,-0.006504,-0.005573,0.0032359999999999997,-57.18,-18.25,-5.68,2a
2019-07-12_131948:520,-0.49975600000000003,-0.011169,-0.056915,-0.006412,-0.005725,0.00345,-58.0,-17.870001000000002,-5.0,2a
2019-07-12_131948:540,-0.49975600000000003,-0.013702,-0.056427,-0.004978,-0.006,0.004732,-58.0,-17.870001000000002,-5.0,2a
2019-07-12_131948:560,-0.492126,-0.013702,-0.056915,-0.004123,-0.006275,0.004274,-58.0,-17.870001000000002,-5.0,2a
2019-07-12_131948:580,-0.49111899999999997,-0.009644,-0.059479,-0.003483,-0.006670999999999999,0.004854,-57.18,-17.5,-5.25,2a
2019-07-12_131948:600,-0.48858599999999996,-0.009644,-0.057953,-0.002536,-0.006670999999999999,0.004945000000000001,-57.18,-17.5,-5.25,2a
2019-07-12_131948:620,-0.491638,-0.007111,-0.05996699999999999,-0.002872,-0.0066099999999999996,0.003358,-57.560001,-18.559998999999998,-4.87,2a
2019-07-12_131948:640,-0.490601,-0.0025329999999999997,-0.05996699999999999,-0.0032689999999999998,-0.006336,0.003633,-57.560001,-18.559998999999998,-4.87,2a
2019-07-12_131948:660,-0.49468999999999996,-0.0025329999999999997,-0.059479,-0.00394,-0.005939,0.004518,-57.560001,-18.559998999999998,-4.87,2a
2019-07-12_131948:680,-0.496704,-0.0030210000000000002,-0.05996699999999999,-0.004825,-0.005878,0.004335,-56.060001,-17.5,-5.25,2a
2019-07-12_131948:700,-0.496704,-0.004059,-0.05996699999999999,-0.005741,-0.006397,0.004793,-56.060001,-17.5,-5.25,2a
2019-07-12_131948:720,-0.498749,-0.007599,-0.060486,-0.005771,-0.006670999999999999,0.005525,-57.560001,-18.25,-4.87,2a
2019-07-12_131948:740,-0.498749,-0.010162000000000001,-0.060486,-0.0060149999999999995,-0.007006999999999999,0.0058,-57.560001,-18.25,-4.87,2a
2019-07-12_131948:760,-0.496216,-0.011169,-0.06253099999999999,-0.005771,-0.006670999999999999,0.005403,-57.560001,-18.25,-4.87,2a
2019-07-12_131948:780,-0.494171,-0.012695,-0.06253099999999999,-0.005679999999999999,-0.006458,0.005311,-57.18,-17.870001000000002,-5.0,2a
2019-07-12_131948:800,-0.491638,-0.012177,-0.062012,-0.005497,-0.0060609999999999995,0.005006,-57.18,-17.870001000000002,-5.0,2a
2019-07-12_131948:820,-0.491638,-0.012177,-0.06405599999999999,-0.0052829999999999995,-0.006,0.004548,-58.369999,-17.5,-6.06,2a
2019-07-12_131948:840,-0.490112,-0.012177,-0.06405599999999999,-0.005344,-0.005756,0.003511,-58.369999,-17.5,-6.06,2a
2019-07-12_131948:860,-0.492645,-0.012177,-0.063538,-0.005039,-0.004779,0.0029620000000000002,-58.369999,-17.5,-6.06,2a
2019-07-12_131948:880,-0.49468999999999996,-0.011169,-0.06149299999999999,-0.005039,-0.004108,0.003023,-56.869999,-17.870001000000002,-6.87,2a
2019-07-12_131948:900,-0.494171,-0.010162000000000001,-0.058441,-0.004886,-0.00365,0.003511,-56.869999,-17.870001000000002,-6.87,2a
2019-07-12_131948:920,-0.501801,-0.014221000000000001,-0.065582,-0.004703,-0.004321,0.003694,-57.18,-18.25,-5.25,2a
2019-07-12_131948:940,-0.5048520000000001,-0.01828,-0.064545,-0.004001,-0.00426,0.003053,-57.18,-18.25,-5.25,2a
2019-07-12_131948:960,-0.507904,-0.020844,-0.056427,-0.003147,-0.003589,0.001924,-57.18,-18.25,-5.25,2a
2019-07-12_131948:980,-0.509918,-0.023895,-0.054901,-0.002353,-0.002796,0.001436,-57.560001,-17.870001000000002,-5.68,2a
2019-07-12_131949:000,-0.49926800000000005,-0.021851,-0.049805,0.000698,-0.00038500000000000003,-0.0009449999999999999,-57.560001,-17.870001000000002,-5.68,2a
2019-07-12_131949:020,-0.49365200000000004,-0.01828,-0.049805,0.0019190000000000001,-0.000263,-0.0016769999999999999,-57.560001,-17.870001000000002,-5.68,2a
2019-07-12_131949:040,-0.486023,-0.013702,-0.049805,0.0042380000000000004,-0.00072,-0.003386,-57.560001,-18.25,-4.87,2a
2019-07-12_131949:060,-0.48654200000000003,-0.007599,-0.049805,0.005429,-0.002002,-0.004332,-57.560001,-18.25,-4.87,2a
2019-07-12_131949:080,-0.48858599999999996,-0.002014,-0.047791,0.005703,-0.002338,-0.004393,-56.869999,-18.25,-4.5,2a
2019-07-12_131949:100,-0.489594,0.000488,-0.045745999999999995,0.0062829999999999995,-0.003589,-0.0042710000000000005,-56.869999,-18.25,-4.5,2a
2019-07-12_131949:120,-0.48858599999999996,0.004547,-0.046752999999999996,0.005886,-0.004108,-0.004454,-56.5,-19.0,-5.0,2a
2019-07-12_131949:140,-0.48654200000000003,0.009125,-0.047791,0.003781,-0.005756,-0.005339,-56.5,-19.0,-5.0,2a
2019-07-12_131949:160,-0.48553500000000005,0.011687999999999999,-0.048798,0.002316,-0.00719,-0.0051259999999999995,-56.5,-19.0,-5.0,2a
2019-07-12_131949:180,-0.48349,0.010651,-0.050323,0.0014609999999999998,-0.008258,-0.005461,-56.5,-19.370001000000002,-5.0,2a
2019-07-12_131949:200,-0.48858599999999996,0.014740000000000001,-0.050323,-0.000156,-0.010912999999999999,-0.007445,-56.5,-19.370001000000002,-5.0,2a
2019-07-12_131949:220,-0.489075,0.017273,-0.053863999999999995,-0.000889,-0.011768,-0.007932999999999999,-56.5,-19.370001000000002,-5.25,2a
2019-07-12_131949:240,-0.49517799999999995,0.021332,-0.05285599999999999,-0.001743,-0.012988,-0.008849,-56.5,-19.370001000000002,-5.25,2a
2019-07-12_131949:260,-0.49468999999999996,0.024384,-0.055908000000000006,-0.00275,-0.013111000000000001,-0.00952,-56.5,-19.370001000000002,-5.25,2a
2019-07-12_131949:280,-0.494171,0.027954000000000003,-0.057434000000000006,-0.003147,-0.013294,-0.009429,-56.5,-20.059998999999998,-6.87,2a
2019-07-12_131949:300,-0.495697,0.028961,-0.056427,-0.004001,-0.012836000000000002,-0.007201000000000001,-56.5,-20.059998999999998,-6.87,2a
2019-07-12_131949:320,-0.494171,0.029968,-0.06253099999999999,-0.004398,-0.012653,-0.006712999999999999,-56.5,-20.059998999999998,-6.87,2a
2019-07-12_131949:340,-0.490112,0.030487,-0.06405599999999999,-0.004703,-0.012775,-0.00421,-56.060001,-21.25,-5.68,2a
2019-07-12_131949:360,-0.488068,0.029480000000000003,-0.067596,-0.004825,-0.013233000000000002,-0.0031420000000000003,-56.060001,-21.25,-5.68,2a
2019-07-12_131949:380,-0.489594,0.027954000000000003,-0.07016,-0.004825,-0.013568,-0.000762,-56.060001,-20.5,-6.06,2a
2019-07-12_131949:400,-0.494171,0.025421,-0.071167,-0.004947,-0.014759,0.0025039999999999997,-56.060001,-20.5,-6.06,2a
2019-07-12_131949:420,-0.49975600000000003,0.020325,-0.0737,-0.004275999999999999,-0.015033000000000001,0.005189,-55.68,-21.559998999999998,-6.5,2a
2019-07-12_131949:440,-0.49975600000000003,0.017273,-0.076263,-0.002994,-0.014422999999999998,0.005983,-55.68,-21.559998999999998,-6.5,2a
2019-07-12_131949:460,-0.497742,0.017273,-0.075745,-0.000736,-0.012378,0.005403,-55.68,-21.559998999999998,-6.5,2a
2019-07-12_131949:480,-0.496704,0.020844,-0.07775900000000001,-3e-06,-0.011524,0.005342,-55.369999,-21.25,-7.68,2a
2019-07-12_131949:500,-0.49468999999999996,0.023895,-0.07928500000000001,0.000729,-0.010059,0.005464,-55.369999,-21.25,-7.68,2a
2019-07-12_131949:520,-0.501282,0.027435,-0.08081100000000001,0.000698,-0.00954,0.005586,-55.369999,-21.25,-7.68,2a
2019-07-12_131949:540,-0.502319,0.028442000000000002,-0.081848,-0.000614,-0.007129000000000001,0.005311,-56.869999,-21.25,-8.06,2a
2019-07-12_131949:560,-0.49975600000000003,0.027954000000000003,-0.082336,-0.001285,-0.006214,0.005067,-56.869999,-21.25,-8.06,2a
2019-07-12_131949:580,-0.500275,0.027954000000000003,-0.083374,-0.002353,-0.00484,0.004091,-55.68,-21.559998999999998,-8.06,2a
2019-07-12_131949:600,-0.49316400000000005,0.027435,-0.082336,-0.003147,-0.003589,0.0027170000000000002,-55.68,-21.559998999999998,-8.06,2a
2019-07-12_131949:620,-0.489075,0.026427999999999997,-0.08590700000000001,-0.004123,-0.003192,0.002107,-55.0,-21.559998999999998,-8.06,2a
2019-07-12_131949:640,-0.488068,0.022858,-0.085388,-0.004642,-0.003711,0.0034189999999999997,-55.0,-21.559998999999998,-8.06,2a
2019-07-12_131949:660,-0.49111899999999997,0.013213999999999998,-0.084381,-0.004062,-0.004657,0.005861,-55.0,-21.559998999999998,-8.06,2a
2019-07-12_131949:680,-0.495697,0.010162000000000001,-0.081329,-0.003452,-0.004657,0.006379,-55.0,-22.0,-8.5,2a
2019-07-12_131949:700,-0.495697,0.011169,-0.080322,-0.000553,-0.003467,0.006135,-55.0,-22.0,-8.5,2a
2019-07-12_131949:720,-0.494171,0.017792,-0.07775900000000001,0.00011899999999999999,-0.003436,0.006074,-55.0,-22.0,-8.5,2a
2019-07-12_131949:740,-0.49823,0.021332,-0.076263,0.000729,-0.0031309999999999997,0.007509,-55.369999,-21.25,-8.06,2a
2019-07-12_131949:760,-0.49722299999999997,0.020325,-0.075226,0.000698,-0.002246,0.007844,-55.369999,-21.25,-8.06,2a
2019-07-12_131949:780,-0.49365200000000004,0.024384,-0.078796,0.00018,-0.0017280000000000002,0.006196,-55.68,-22.0,-8.06,2a
2019-07-12_131949:800,-0.490601,0.025908999999999998,-0.075226,-0.0008269999999999999,-0.0014529999999999999,0.005342,-55.68,-22.0,-8.06,2a
2019-07-12_131949:820,-0.48706099999999997,0.022369,-0.075745,-0.0022010000000000003,-0.001911,0.006593000000000001,-55.68,-22.0,-8.06,2a
2019-07-12_131949:840,-0.490112,0.016753999999999998,-0.075745,-0.0033299999999999996,-0.002582,0.007448000000000001,-56.060001,-21.25,-7.68,2a
2019-07-12_131949:860,-0.49316400000000005,0.023895,-0.073212,-0.0037270000000000003,-0.002307,0.006776000000000001,-56.060001,-21.25,-7.68,2a
2019-07-12_131949:880,-0.49111899999999997,0.031006,-0.071686,-0.005741,-0.0021850000000000003,0.005128,-56.060001,-21.25,-7.25,2a
2019-07-12_131949:900,-0.48553500000000005,0.034058,-0.066589,-0.007267,-0.002246,0.004945000000000001,-56.060001,-21.25,-7.25,2a
2019-07-12_131949:920,-0.492645,0.039124,-0.065063,-0.01099,-0.003314,0.006135,-56.060001,-21.25,-7.25,2a
2019-07-12_131949:940,-0.492645,0.028442000000000002,-0.064545,-0.012851,-0.003589,0.006470999999999999,-55.369999,-21.559998999999998,-6.5,2a
2019-07-12_131949:960,-0.49365200000000004,0.024384,-0.064545,-0.015842,-0.004169,0.007051000000000001,-55.369999,-21.559998999999998,-6.5,2a
2019-07-12_131949:980,-0.490112,0.013213999999999998,-0.064545,-0.015964,-0.00484,0.008729,-56.5,-21.25,-7.25,2a
2019-07-12_131950:000,-0.490112,0.009125,-0.06405599999999999,-0.015597999999999999,-0.0055119999999999995,0.008790000000000001,-56.5,-21.25,-7.25,2a
2019-07-12_131950:020,-0.49365200000000004,0.006072999999999999,-0.065063,-0.014255,-0.005695,0.007051000000000001,-56.5,-21.25,-7.25,2a
2019-07-12_131950:040,-0.49722299999999997,0.0,-0.065582,-0.013340000000000001,-0.005634,0.004915,-56.060001,-21.25,-6.87,2a
2019-07-12_131950:060,-0.496216,-0.006072999999999999,-0.066071,-0.011387000000000001,-0.005054,0.004182,-56.060001,-21.25,-6.87,2a
2019-07-12_131950:080,-0.497742,-0.013702,-0.066071,-0.008274,-0.004047,0.005311,-54.18,-20.5,-7.68,2a
2019-07-12_131950:100,-0.500793,-0.019318000000000002,-0.069122,-0.003879,-0.0031309999999999997,0.004274,-54.18,-20.5,-7.68,2a
2019-07-12_131950:120,-0.501801,-0.016266,-0.071686,0.000454,-0.001392,0.001893,-54.18,-20.5,-7.68,2a
2019-07-12_131950:140,-0.494171,-0.0055850000000000006,-0.071686,0.0042380000000000004,-0.00038500000000000003,0.0007030000000000001,-56.5,-20.870001000000002,-6.06,2a
2019-07-12_131950:160,-0.49468999999999996,0.001007,-0.07421900000000001,0.006558,-0.00014099999999999998,0.0007639999999999999,-56.5,-20.870001000000002,-6.06,2a
2019-07-12_131950:180,-0.49975600000000003,0.011169,-0.071167,0.006893000000000001,0.0007440000000000001,6.2e-05,-55.68,-20.870001000000002,-6.87,2a
2019-07-12_131950:200,-0.505371,0.020844,-0.067596,0.005825,0.0023309999999999997,-0.0005480000000000001,-55.68,-20.870001000000002,-6.87,2a
2019-07-12_131950:220,-0.506378,0.021851,-0.067108,0.0042380000000000004,0.004497999999999999,-0.000487,-55.68,-20.870001000000002,-6.87,2a
2019-07-12_131950:240,-0.503326,0.020844,-0.067596,0.00256,0.006024,-2.8999999999999997e-05,-56.5,-21.25,-6.5,2a
2019-07-12_131950:260,-0.504333,0.011687999999999999,-0.063019,0.001431,0.007306,-0.000334,-56.5,-21.25,-6.5,2a
2019-07-12_131950:280,-0.501282,0.012177,-0.05996699999999999,0.001583,0.008893,-0.001464,-56.060001,-21.25,-6.06,2a
2019-07-12_131950:300,-0.501801,0.015747,-0.057434000000000006,0.0018579999999999998,0.010083,-0.002135,-56.060001,-21.25,-6.06,2a
2019-07-12_131950:320,-0.49926800000000005,0.01828,-0.055908000000000006,0.002041,0.011487,-0.002928,-56.060001,-21.25,-6.06,2a
2019-07-12_131950:340,-0.492126,0.021332,-0.053375,0.0019190000000000001,0.0117,-0.003203,-56.5,-22.0,-5.25,2a
2019-07-12_131950:360,-0.49517799999999995,0.023895,-0.047791,0.002163,0.011822,-0.003539,-56.5,-22.0,-5.25,2a
2019-07-12_131950:380,-0.500793,0.024384,-0.044739,0.001431,0.011334,-0.003539,-56.060001,-22.0,-4.06,2a
2019-07-12_131950:400,-0.497742,0.027435,-0.038635,0.0019190000000000001,0.011761,-0.004058,-56.060001,-22.0,-4.06,2a
2019-07-12_131950:420,-0.49517799999999995,0.029968,-0.035583,0.0017050000000000001,0.012218999999999999,-0.004393,-56.060001,-22.0,-4.06,2a
2019-07-12_131950:440,-0.501282,0.029968,-0.03302,0.0015220000000000001,0.012463,-0.00479,-55.68,-22.370001000000002,-3.25,2a
2019-07-12_131950:460,-0.49517799999999995,0.029480000000000003,-0.027954000000000003,0.0019190000000000001,0.012463,-0.004943,-55.68,-22.370001000000002,-3.25,2a
2019-07-12_131950:480,-0.495697,0.030487,-0.023895,0.002499,0.01167,-0.005797,-56.060001,-22.370001000000002,-3.25,2a
2019-07-12_131950:500,-0.48654200000000003,0.03302,-0.021851,0.0033840000000000003,0.010631999999999999,-0.005919,-56.060001,-22.370001000000002,-3.25,2a
2019-07-12_131950:520,-0.48553500000000005,0.034058,-0.018799,0.0039030000000000002,0.008954,-0.004607,-56.060001,-22.370001000000002,-3.25,2a
2019-07-12_131950:540,-0.490112,0.037108999999999996,-0.011687999999999999,0.004422,0.008099,-0.003783,-55.369999,-23.870001000000002,-1.68,2a
2019-07-12_131950:560,-0.495697,0.039124,-0.009125,0.0042380000000000004,0.007916,-0.0036609999999999998,-55.369999,-23.870001000000002,-1.68,2a
2019-07-12_131950:580,-0.48858599999999996,0.050842,-0.006072999999999999,0.004116,0.007489,-0.0036609999999999998,-55.369999,-23.870001000000002,-2.06,2a
2019-07-12_131950:600,-0.48553500000000005,0.059479,-0.004547,0.0027129999999999997,0.0057799999999999995,-0.0038130000000000004,-55.369999,-23.870001000000002,-2.06,2a
2019-07-12_131950:620,-0.490601,0.06253099999999999,-0.001007,0.00018,0.003522,-0.004393,-55.369999,-23.870001000000002,-2.06,2a
2019-07-12_131950:640,-0.49111899999999997,0.06253099999999999,0.0,-0.002079,0.002118,-0.003264,-55.0,-23.870001000000002,-3.0,2a
2019-07-12_131950:660,-0.49517799999999995,0.057434000000000006,0.004547,-0.003452,0.00108,-0.001006,-55.0,-23.870001000000002,-3.0,2a
2019-07-12_131950:680,-0.496216,0.05438200000000001,0.0055850000000000006,-0.004337,0.000805,0.000123,-54.560001,-24.18,-1.68,2a
2019-07-12_131950:700,-0.48553500000000005,0.046752999999999996,0.004547,-0.004764,-0.000202,3.2e-05,-54.560001,-24.18,-1.68,2a
2019-07-12_131950:720,-0.490112,0.046265,0.005065999999999999,-0.0037270000000000003,-0.0015140000000000002,6.2e-05,-54.560001,-24.18,-1.68,2a
2019-07-12_131950:740,-0.492126,0.048279,0.005065999999999999,-0.0027199999999999998,-0.0021850000000000003,0.000306,-54.869999,-24.559998999999998,-1.0,2a
2019-07-12_131950:760,-0.494171,0.050323,0.005065999999999999,-0.0019260000000000002,-0.002704,0.0008560000000000001,-54.869999,-24.559998999999998,-1.0,2a
2019-07-12_131950:780,-0.49517799999999995,0.050323,0.004547,-0.001285,-0.002704,0.001527,-54.060001,-24.18,-1.0,2a
2019-07-12_131950:800,-0.492645,0.050842,0.005065999999999999,-0.000614,-0.003192,0.001527,-54.060001,-24.18,-1.0,2a
2019-07-12_131950:820,-0.49111899999999997,0.053863999999999995,0.0035399999999999997,-0.000614,-0.003711,0.001832,-54.060001,-24.18,-1.0,2a
2019-07-12_131950:840,-0.490601,0.053863999999999995,0.004059,-0.000736,-0.004657,0.002382,-53.75,-24.559998999999998,-2.06,2a
2019-07-12_131950:860,-0.49722299999999997,0.055908000000000006,0.004059,-0.001011,-0.0052369999999999995,0.002687,-53.75,-24.559998999999998,-2.06,2a
2019-07-12_131950:880,-0.496704,0.056915,0.0030210000000000002,-0.001621,-0.005054,0.002443,-53.75,-24.25,-1.18,2a
2019-07-12_131950:900,-0.492645,0.056427,0.0025329999999999997,-0.002323,-0.005756,0.002107,-53.75,-24.25,-1.18,2a
2019-07-12_131950:920,-0.49468999999999996,0.056915,0.002014,-0.003055,-0.006214,0.002382,-53.75,-24.25,-1.18,2a
2019-07-12_131950:940,-0.49468999999999996,0.058441,0.0025329999999999997,-0.003483,-0.006488,0.0026260000000000003,-54.5,-25.059998999999998,0.75,2a
2019-07-12_131950:960,-0.495697,0.056427,0.002014,-0.00394,-0.006793,0.002778,-54.5,-25.059998999999998,0.75,2a
2019-07-12_131950:980,-0.494171,0.053863999999999995,0.001495,-0.0042450000000000005,-0.007129000000000001,0.002839,-53.75,-25.75,-1.25,2a
2019-07-12_131951:000,-0.496216,0.053375,0.000488,-0.00394,-0.007404000000000001,0.002687,-53.75,-25.75,-1.25,2a
2019-07-12_131951:020,-0.494171,0.053863999999999995,0.0,-0.003849,-0.00719,0.0026260000000000003,-53.75,-25.75,-1.25,2a
2019-07-12_131951:040,-0.49365200000000004,0.055908000000000006,0.0,-0.003452,-0.0076170000000000005,0.0029620000000000002,-54.5,-25.370001000000002,-0.87,2a
2019-07-12_131951:060,-0.49517799999999995,0.057434000000000006,-0.001007,-0.003452,-0.007923000000000001,0.00345,-54.5,-25.370001000000002,-0.87,2a
2019-07-12_131951:080,-0.49823,0.055908000000000006,-0.000488,-0.003544,-0.008075,0.0037549999999999997,-53.75,-25.75,-1.0,2a
2019-07-12_131951:100,-0.496704,0.05996699999999999,0.0,-0.003849,-0.007862000000000001,0.00345,-53.75,-25.75,-1.0,2a
2019-07-12_131951:120,-0.49517799999999995,0.05996699999999999,-0.000488,-0.004520000000000001,-0.007801000000000001,0.0038159999999999995,-53.75,-25.75,-1.0,2a
2019-07-12_131951:140,-0.49517799999999995,0.061005,-0.0025329999999999997,-0.0051,-0.007984,0.004396,-54.060001,-25.75,-2.37,2a
2019-07-12_131951:160,-0.494171,0.058441,-0.000488,-0.005741,-0.008075,0.003633,-54.060001,-25.75,-2.37,2a
2019-07-12_131951:180,-0.49722299999999997,0.060486,-0.0035399999999999997,-0.006168,-0.008655,0.003175,-54.5,-25.75,-1.18,2a
2019-07-12_131951:200,-0.49365200000000004,0.061005,-0.0025329999999999997,-0.006626000000000001,-0.009113,0.004182,-54.5,-25.75,-1.18,2a
2019-07-12_131951:220,-0.489075,0.057953,-0.005065999999999999,-0.007023000000000001,-0.009784000000000001,0.005464,-54.5,-25.75,-1.18,2a
2019-07-12_131951:240,-0.491638,0.056427,-0.006072999999999999,-0.007084,-0.010242,0.005647,-53.75,-25.75,-1.68,2a
2019-07-12_131951:260,-0.49316400000000005,0.057953,-0.004059,-0.007145,-0.010578,0.005311,-53.75,-25.75,-1.68,2a
2019-07-12_131951:280,-0.494171,0.057434000000000006,-0.006592,-0.007358,-0.010639000000000001,0.005525,-53.369999,-25.059998999999998,-1.18,2a
2019-07-12_131951:300,-0.49722299999999997,0.057434000000000006,-0.004059,-0.007601999999999999,-0.010912999999999999,0.005861,-53.369999,-25.059998999999998,-1.18,2a
2019-07-12_131951:320,-0.49722299999999997,0.057434000000000006,-0.007111,-0.007633,-0.011249,0.006074,-53.369999,-25.059998999999998,-1.18,2a
2019-07-12_131951:340,-0.49517799999999995,0.057434000000000006,-0.006592,-0.008029999999999999,-0.011463,0.006257,-54.5,-25.75,-2.0,2a
2019-07-12_131951:360,-0.494171,0.055908000000000006,-0.007599,-0.007937999999999999,-0.011706999999999999,0.006470999999999999,-54.5,-25.75,-2.0,2a
2019-07-12_131951:380,-0.497742,0.053863999999999995,-0.008118,-0.008213,-0.012042,0.006776000000000001,-54.869999,-25.370001000000002,-2.0,2a
2019-07-12_131951:400,-0.49365200000000004,0.051849,-0.010651,-0.007877,-0.012103000000000001,0.007509,-54.869999,-25.370001000000002,-2.0,2a
2019-07-12_131951:420,-0.490601,0.056427,-0.015747,-0.007418999999999999,-0.012592,0.006929,-54.869999,-25.370001000000002,-2.0,2a
2019-07-12_131951:440,-0.48754899999999995,0.05438200000000001,-0.014740000000000001,-0.008395999999999999,-0.01369,0.006654,-54.5,-25.059998999999998,-2.87,2a
2019-07-12_131951:460,-0.492645,0.061005,-0.016266,-0.008152,-0.014759,0.008699,-54.5,-25.059998999999998,-2.87,2a
2019-07-12_131951:480,-0.49926800000000005,0.056427,-0.017273,-0.009281000000000001,-0.014697,0.011506,-53.75,-25.370001000000002,-3.18,2a
2019-07-12_131951:500,-0.505371,0.049316000000000006,-0.014740000000000001,-0.010745999999999999,-0.014697,0.011567000000000001,-53.75,-25.370001000000002,-3.18,2a
2019-07-12_131951:520,-0.496704,0.047791,-0.021332,-0.011264,-0.013781999999999999,0.01169,-53.75,-25.370001000000002,-3.18,2a
2019-07-12_131951:540,-0.49722299999999997,0.047272,-0.023375999999999997,-0.011081,-0.013568,0.011384,-54.060001,-24.25,-3.56,2a
2019-07-12_131951:560,-0.49823,0.039124,-0.026427999999999997,-0.011142,-0.01305,0.009981,-54.060001,-24.25,-3.56,2a
2019-07-12_131951:580,-0.49823,0.039642000000000004,-0.027954000000000003,-0.010745999999999999,-0.012592,0.009431,-54.869999,-24.25,-2.87,2a
2019-07-12_131951:600,-0.49926800000000005,0.038116000000000004,-0.029480000000000003,-0.010288,-0.012317,0.009309,-54.869999,-24.25,-2.87,2a
2019-07-12_131951:620,-0.500275,0.039124,-0.032532,-0.010074,-0.01192,0.008638,-54.869999,-24.25,-2.87,2a
2019-07-12_131951:640,-0.49975600000000003,0.040649,-0.033539,-0.009861,-0.011401999999999999,0.009096,-54.869999,-24.68,-2.37,2a
2019-07-12_131951:660,-0.500275,0.036591000000000005,-0.032532,-0.009617,-0.010639000000000001,0.009767,-54.869999,-24.68,-2.37,2a
2019-07-12_131951:680,-0.49975600000000003,0.034058,-0.03302,-0.009067,-0.009845,0.008851000000000001,-54.869999,-24.0,-3.56,2a
2019-07-12_131951:700,-0.497742,0.032532,-0.034546,-0.008334999999999999,-0.009448,0.007905,-54.869999,-24.0,-3.56,2a
2019-07-12_131951:720,-0.494171,0.039124,-0.034058,-0.0067480000000000005,-0.009326000000000001,0.007965999999999999,-54.869999,-24.0,-3.56,2a
2019-07-12_131951:740,-0.496704,0.037108999999999996,-0.03302,-0.006809,-0.009448,0.007265000000000001,-54.869999,-23.559998999999998,-2.87,2a
2019-07-12_131951:760,-0.496216,0.034546,-0.034058,-0.006687,-0.009387000000000001,0.007051000000000001,-54.869999,-23.559998999999998,-2.87,2a
2019-07-12_131951:780,-0.501801,0.034058,-0.034546,-0.005832,-0.009509,0.008119,-55.25,-23.559998999999998,-4.0,2a
2019-07-12_131951:800,-0.500275,0.03302,-0.035065,-0.005679999999999999,-0.008869,0.008302,-55.25,-23.559998999999998,-4.0,2a
2019-07-12_131951:820,-0.503326,0.035065,-0.034546,-0.005436,-0.00838,0.007509,-55.25,-23.559998999999998,-4.0,2a
2019-07-12_131951:840,-0.496704,0.036591000000000005,-0.034058,-0.005679999999999999,-0.007862000000000001,0.007509,-55.25,-23.18,-3.56,2a
2019-07-12_131951:860,-0.497742,0.035583,-0.035583,-0.0060149999999999995,-0.007465,0.0076,-55.25,-23.18,-3.56,2a
2019-07-12_131951:880,-0.496216,0.032013,-0.035583,-0.006504,-0.007220999999999999,0.007448000000000001,-54.869999,-23.18,-4.75,2a
2019-07-12_131951:900,-0.496216,0.029480000000000003,-0.037108999999999996,-0.00629,-0.007343000000000001,0.006929,-54.869999,-23.18,-4.75,2a
2019-07-12_131951:920,-0.492645,0.028442000000000002,-0.038116000000000004,-0.005222,-0.008075,0.006441,-54.869999,-23.18,-4.75,2a
2019-07-12_131951:940,-0.490601,0.027954000000000003,-0.036072,-0.004184,-0.008594,0.0071730000000000006,-55.25,-22.5,-4.0,2a
2019-07-12_131951:960,-0.48858599999999996,0.031494,-0.036591000000000005,-0.002811,-0.009601,0.007387,-55.25,-22.5,-4.0,2a
2019-07-12_131951:980,-0.49365200000000004,0.036072,-0.037108999999999996,-0.002353,-0.010517,0.0067150000000000005,-55.25,-23.559998999999998,-5.56,2a
2019-07-12_131952:000,-0.49517799999999995,0.040649,-0.036072,-0.0036049999999999997,-0.010639000000000001,0.006074,-55.25,-23.559998999999998,-5.56,2a
2019-07-12_131952:020,-0.49823,0.042175,-0.038116000000000004,-0.005436,-0.01012,0.006929,-55.25,-23.559998999999998,-5.56,2a
2019-07-12_131952:040,-0.502319,0.043701,-0.036591000000000005,-0.00748,-0.009723,0.0071730000000000006,-55.25,-22.870001000000002,-3.18,2a
2019-07-12_131952:060,-0.501801,0.047791,-0.038116000000000004,-0.010013,-0.008808,0.006868000000000001,-55.25,-22.870001000000002,-3.18,2a
2019-07-12_131952:080,-0.49722299999999997,0.046752999999999996,-0.038635,-0.013004,-0.008258,0.006837,-54.060001,-22.5,-3.56,2a
2019-07-12_131952:100,-0.49111899999999997,0.044739,-0.039124,-0.016056,-0.008594,0.007112,-54.060001,-22.5,-3.56,2a
2019-07-12_131952:120,-0.489594,0.039124,-0.041168,-0.018711000000000002,-0.009509,0.007965999999999999,-54.060001,-22.5,-3.56,2a
2019-07-12_131952:140,-0.48654200000000003,0.035065,-0.042175,-0.020084,-0.01012,0.008394,-54.869999,-23.18,-4.37,2a
2019-07-12_131952:160,-0.490112,0.034546,-0.044739,-0.020908000000000003,-0.011524,0.007722,-54.869999,-23.18,-4.37,2a
2019-07-12_131952:180,-0.491638,0.03302,-0.046265,-0.022281,-0.0125,0.0071730000000000006,-55.560001,-22.5,-4.37,2a
2019-07-12_131952:200,-0.490601,0.026427999999999997,-0.048279,-0.022739,-0.01305,0.007997,-55.560001,-22.5,-4.37,2a
2019-07-12_131952:220,-0.491638,0.019806,-0.048798,-0.021946,-0.013781999999999999,0.009126,-55.560001,-22.5,-4.37,2a
2019-07-12_131952:240,-0.49926800000000005,0.014740000000000001,-0.050323,-0.020084,-0.014025999999999999,0.009523,-55.25,-22.5,-3.56,2a
2019-07-12_131952:260,-0.502808,0.013213999999999998,-0.050323,-0.017917,-0.013568,0.00937,-55.25,-22.5,-3.56,2a
2019-07-12_131952:280,-0.5048520000000001,0.009125,-0.05438200000000001,-0.015659,-0.012195000000000001,0.008912,-54.5,-22.5,-4.87,2a
2019-07-12_131952:300,-0.502808,0.007111,-0.054901,-0.013065,-0.010456,0.008119,-54.5,-22.5,-4.87,2a
2019-07-12_131952:320,-0.497742,0.004059,-0.056915,-0.010196,-0.009387000000000001,0.007387,-54.5,-22.5,-4.87,2a
2019-07-12_131952:340,-0.496216,0.005065999999999999,-0.057953,-0.007206000000000001,-0.008747,0.007326000000000001,-55.25,-22.5,-4.87,2a
2019-07-12_131952:360,-0.49468999999999996,0.008118,-0.058441,-0.004764,-0.008655,0.0076,-55.25,-22.5,-4.87,2a
2019-07-12_131952:380,-0.496216,0.012695,-0.058960000000000005,-0.00275,-0.008319,0.007965999999999999,-55.560001,-22.059998999999998,-4.5,2a
2019-07-12_131952:400,-0.49468999999999996,0.016266,-0.057953,-0.0022010000000000003,-0.008075,0.0071730000000000006,-55.560001,-22.059998999999998,-4.5,2a
2019-07-12_131952:420,-0.49517799999999995,0.01828,-0.058960000000000005,-0.002262,-0.007801000000000001,0.006470999999999999,-55.560001,-22.059998999999998,-4.5,2a
2019-07-12_131952:440,-0.49468999999999996,0.022369,-0.058960000000000005,-0.002475,-0.008258,0.006196,-56.0,-21.370001000000002,-4.5,2a
2019-07-12_131952:460,-0.494171,0.023375999999999997,-0.058441,-0.003544,-0.008075,0.005739,-56.0,-21.370001000000002,-4.5,2a
2019-07-12_131952:480,-0.49468999999999996,0.019806,-0.05996699999999999,-0.004612,-0.008075,0.005647,-56.369999,-21.68,-4.37,2a
2019-07-12_131952:500,-0.49517799999999995,0.018799,-0.055389,-0.0051,-0.008075,0.005678,-56.369999,-21.68,-4.37,2a
2019-07-12_131952:520,-0.49722299999999997,0.019318000000000002,-0.05996699999999999,-0.005344,-0.007862000000000001,0.005189,-56.369999,-21.68,-4.37,2a
2019-07-12_131952:540,-0.496216,0.019806,-0.057953,-0.005222,-0.007465,0.004548,-55.560001,-21.370001000000002,-4.87,2a
2019-07-12_131952:560,-0.496216,0.020844,-0.058960000000000005,-0.005771,-0.007006999999999999,0.003908,-55.560001,-21.370001000000002,-4.87,2a
2019-07-12_131952:580,-0.49468999999999996,0.019318000000000002,-0.05996699999999999,-0.005832,-0.00719,0.003908,-55.25,-21.68,-4.87,2a
2019-07-12_131952:600,-0.496216,0.019806,-0.057953,-0.005619,-0.006885,0.004274,-55.25,-21.68,-4.87,2a
2019-07-12_131952:620,-0.492645,0.020325,-0.061005,-0.005497,-0.0066099999999999996,0.0038159999999999995,-55.25,-21.68,-4.87,2a
2019-07-12_131952:640,-0.496216,0.022369,-0.060486,-0.0052829999999999995,-0.006854000000000001,0.003908,-55.560001,-22.059998999999998,-5.18,2a
2019-07-12_131952:660,-0.49468999999999996,0.022858,-0.058960000000000005,-0.005375,-0.006670999999999999,0.00403,-55.560001,-22.059998999999998,-5.18,2a
2019-07-12_131952:680,-0.49722299999999997,0.022369,-0.06149299999999999,-0.005375,-0.006793,0.0032359999999999997,-54.869999,-21.68,-5.18,2a
2019-07-12_131952:700,-0.49468999999999996,0.023375999999999997,-0.061005,-0.004947,-0.006793,0.003114,-54.869999,-21.68,-5.18,2a
2019-07-12_131952:720,-0.492126,0.022369,-0.062012,-0.004764,-0.006885,0.004182,-54.869999,-21.68,-5.18,2a
2019-07-12_131952:740,-0.491638,0.020325,-0.06405599999999999,-0.004581,-0.007129000000000001,0.005189,-55.560001,-21.370001000000002,-4.87,2a
2019-07-12_131952:760,-0.492645,0.020844,-0.062012,-0.004062,-0.007006999999999999,0.005006,-55.560001,-21.370001000000002,-4.87,2a
2019-07-12_131952:780,-0.494171,0.023375999999999997,-0.06253099999999999,-0.003788,-0.006945999999999999,0.004732,-56.0,-21.370001000000002,-5.18,2a
2019-07-12_131952:800,-0.49823,0.023895,-0.062012,-0.0037270000000000003,-0.006397,0.005006,-56.0,-21.370001000000002,-5.18,2a
2019-07-12_131952:820,-0.49823,0.023375999999999997,-0.06253099999999999,-0.004123,-0.0060609999999999995,0.004945000000000001,-56.0,-21.370001000000002,-5.18,2a
2019-07-12_131952:840,-0.496704,0.021851,-0.06149299999999999,-0.004581,-0.005725,0.004732,-55.560001,-22.059998999999998,-5.56,2a
2019-07-12_131952:860,-0.494171,0.021851,-0.06149299999999999,-0.004612,-0.00539,0.004854,-55.560001,-22.059998999999998,-5.56,2a
2019-07-12_131952:880,-0.492645,0.021851,-0.06149299999999999,-0.004703,-0.005725,0.005067,-56.0,-21.370001000000002,-5.18,2a
2019-07-12_131952:900,-0.492645,0.022369,-0.062012,-0.004947,-0.006214,0.005525,-56.0,-21.370001000000002,-5.18,2a
2019-07-12_131952:920,-0.49111899999999997,0.021332,-0.06149299999999999,-0.005161,-0.006275,0.005739,-56.0,-21.370001000000002,-5.18,2a
2019-07-12_131952:940,-0.492126,0.020844,-0.06149299999999999,-0.0051,-0.006548999999999999,0.004732,-56.369999,-21.0,-5.18,2a
2019-07-12_131952:960,-0.492645,0.022858,-0.06149299999999999,-0.005161,-0.006548999999999999,0.004609,-56.369999,-21.0,-5.18,2a
2019-07-12_131952:980,-0.49365200000000004,0.020325,-0.06253099999999999,-0.004886,-0.006885,0.005647,-56.369999,-22.059998999999998,-5.18,2a
2019-07-12_131953:000,-0.495697,0.025421,-0.060486,-0.004520000000000001,-0.006945999999999999,0.005586,-56.369999,-22.059998999999998,-5.18,2a
2019-07-12_131953:020,-0.489075,0.023375999999999997,-0.06405599999999999,-0.004612,-0.006885,0.005067,-56.369999,-22.059998999999998,-5.18,2a
2019-07-12_131953:040,-0.48754899999999995,0.023895,-0.063538,-0.004947,-0.007526000000000001,0.005586,-55.560001,-21.68,-6.37,2a
2019-07-12_131953:060,-0.492645,0.020325,-0.065063,-0.004764,-0.008411,0.007265000000000001,-55.560001,-21.68,-6.37,2a
2019-07-12_131953:080,-0.496704,0.019806,-0.063538,-0.004886,-0.008747,0.00757,-56.369999,-21.68,-6.0,2a
2019-07-12_131953:100,-0.498749,0.018799,-0.063538,-0.0052829999999999995,-0.008747,0.0067150000000000005,-56.369999,-21.68,-6.0,2a
2019-07-12_131953:120,-0.495697,0.016266,-0.066589,-0.005497,-0.007984,0.006379,-56.369999,-21.68,-6.0,2a
2019-07-12_131953:140,-0.49365200000000004,0.009644,-0.067596,-0.005558,-0.007739,0.006776000000000001,-57.060001,-21.68,-5.56,2a
2019-07-12_131953:160,-0.492645,0.006072999999999999,-0.067596,-0.005161,-0.007465,0.006470999999999999,-57.060001,-21.68,-5.56,2a
2019-07-12_131953:180,-0.490601,0.006072999999999999,-0.069122,-0.004184,-0.007739,0.005922,-56.0,-21.68,-6.37,2a
2019-07-12_131953:200,-0.49316400000000005,0.007599,-0.068115,-0.003116,-0.007923000000000001,0.005311,-56.0,-21.68,-6.37,2a
2019-07-12_131953:220,-0.494171,0.011169,-0.068634,-0.002597,-0.007739,0.005006,-56.0,-21.68,-6.37,2a
2019-07-12_131953:240,-0.49517799999999995,0.011687999999999999,-0.069641,-0.0027199999999999998,-0.0076170000000000005,0.004732,-56.75,-22.059998999999998,-6.37,2a
2019-07-12_131953:260,-0.495697,0.016753999999999998,-0.068634,-0.003208,-0.007404000000000001,0.004793,-56.75,-22.059998999999998,-6.37,2a
2019-07-12_131953:280,-0.49316400000000005,0.016266,-0.068115,-0.004184,-0.007129000000000001,0.004732,-56.0,-21.370001000000002,-6.0,2a
2019-07-12_131953:300,-0.48858599999999996,0.015228,-0.067108,-0.004703,-0.007526000000000001,0.004793,-56.0,-21.370001000000002,-6.0,2a
2019-07-12_131953:320,-0.490112,0.013702,-0.068634,-0.004825,-0.008319,0.004396,-56.0,-21.370001000000002,-6.0,2a
2019-07-12_131953:340,-0.494171,0.014740000000000001,-0.068115,-0.004703,-0.008716,0.004182,-54.869999,-20.559998999999998,-6.0,2a
2019-07-12_131953:360,-0.49468999999999996,0.015228,-0.07016,-0.004642,-0.008319,0.004671,-54.869999,-20.559998999999998,-6.0,2a
2019-07-12_131953:380,-0.496216,0.016753999999999998,-0.07016,-0.004612,-0.007984,0.004915,-56.0,-20.559998999999998,-5.56,2a
2019-07-12_131953:400,-0.49517799999999995,0.017273,-0.070648,-0.004459,-0.007862000000000001,0.004732,-56.0,-20.559998999999998,-5.56,2a
2019-07-12_131953:420,-0.495697,0.021332,-0.072174,-0.004520000000000001,-0.007220999999999999,0.004518,-56.0,-20.559998999999998,-5.56,2a
2019-07-12_131953:440,-0.49365200000000004,0.020844,-0.071167,-0.004825,-0.007006999999999999,0.004182,-56.369999,-21.0,-6.75,2a
2019-07-12_131953:460,-0.48858599999999996,0.021851,-0.072693,-0.0052829999999999995,-0.0066099999999999996,0.004945000000000001,-56.369999,-21.0,-6.75,2a
2019-07-12_131953:480,-0.488068,0.020844,-0.074738,-0.005619,-0.007465,0.006318,-55.560001,-21.0,-5.56,2a
2019-07-12_131953:500,-0.492645,0.018799,-0.071686,-0.005954,-0.007923000000000001,0.006379,-55.560001,-21.0,-5.56,2a
2019-07-12_131953:520,-0.496704,0.019806,-0.075226,-0.006076,-0.008075,0.006318,-55.560001,-21.0,-5.56,2a
2019-07-12_131953:540,-0.492126,0.021851,-0.075226,-0.006412,-0.008075,0.006654,-55.560001,-20.559998999999998,-6.0,2a
2019-07-12_131953:560,-0.49316400000000005,0.020844,-0.074738,-0.0076939999999999995,-0.008319,0.008454999999999999,-55.560001,-20.559998999999998,-6.0,2a
2019-07-12_131953:580,-0.492645,0.015747,-0.07421900000000001,-0.008426000000000001,-0.007984,0.008333,-56.75,-21.0,-7.18,2a
2019-07-12_131953:600,-0.492645,0.011169,-0.071686,-0.009006,-0.007526000000000001,0.00818,-56.75,-21.0,-7.18,2a
2019-07-12_131953:620,-0.49316400000000005,0.008118,-0.075226,-0.00867,-0.007220999999999999,0.008912,-56.75,-21.0,-7.18,2a
2019-07-12_131953:640,-0.491638,0.006072999999999999,-0.074738,-0.007877,-0.007006999999999999,0.008851000000000001,-56.369999,-20.559998999999998,-6.37,2a
2019-07-12_131953:660,-0.492126,0.005065999999999999,-0.074738,-0.0076939999999999995,-0.007220999999999999,0.008454999999999999,-56.369999,-20.559998999999998,-6.37,2a
2019-07-12_131953:680,-0.49111899999999997,0.004547,-0.075745,-0.007084,-0.007587000000000001,0.009035,-55.560001,-20.18,-7.18,2a
2019-07-12_131953:700,-0.49111899999999997,0.0030210000000000002,-0.074738,-0.006687,-0.008319,0.009187,-55.560001,-20.18,-7.18,2a
2019-07-12_131953:720,-0.490112,0.0025329999999999997,-0.075745,-0.00629,-0.008747,0.008912,-55.560001,-20.18,-7.18,2a
2019-07-12_131953:740,-0.489594,0.004059,-0.077271,-0.0061070000000000004,-0.009143,0.009431,-56.369999,-19.5,-6.75,2a
2019-07-12_131953:760,-0.48858599999999996,0.000488,-0.077271,-0.0060149999999999995,-0.009662,0.009187,-56.369999,-19.5,-6.75,2a
2019-07-12_131953:780,-0.489594,0.000488,-0.081329,-0.0061070000000000004,-0.009845,0.007509,-56.75,-20.559998999999998,-6.75,2a
2019-07-12_131953:800,-0.48858599999999996,0.0,-0.08081100000000001,-0.005893,-0.010333,0.0069900000000000006,-56.75,-20.559998999999998,-6.75,2a
2019-07-12_131953:820,-0.49111899999999997,-0.004059,-0.081848,-0.005679999999999999,-0.010456,0.006868000000000001,-56.75,-20.559998999999998,-6.75,2a
2019-07-12_131953:840,-0.492645,-0.006072999999999999,-0.084381,-0.0052829999999999995,-0.010578,0.006044,-56.0,-19.870001000000002,-7.18,2a
2019-07-12_131953:860,-0.49316400000000005,-0.008118,-0.086914,-0.004642,-0.010517,0.005128,-56.0,-19.870001000000002,-7.18,2a
2019-07-12_131953:880,-0.494171,-0.009125,-0.088959,-0.004062,-0.009998,0.004732,-56.75,-19.059998999999998,-7.18,2a
2019-07-12_131953:900,-0.491638,-0.008636,-0.08996599999999999,-0.0033909999999999995,-0.009723,0.003908,-56.75,-19.059998999999998,-7.18,2a
2019-07-12_131953:920,-0.49111899999999997,-0.007599,-0.088959,-0.002994,-0.009509,0.003114,-56.75,-19.059998999999998,-7.18,2a
2019-07-12_131953:940,-0.492645,-0.0055850000000000006,-0.09149199999999999,-0.0022010000000000003,-0.009113,0.00229,-55.560001,-19.870001000000002,-7.56,2a
2019-07-12_131953:960,-0.49316400000000005,-0.0025329999999999997,-0.089478,-0.001957,-0.008747,0.0016489999999999999,-55.560001,-19.870001000000002,-7.56,2a
2019-07-12_131953:980,-0.494171,0.0,-0.089478,-0.0018039999999999998,-0.007984,0.001832,-56.0,-19.5,-7.56,2a
2019-07-12_131954:000,-0.49316400000000005,0.001495,-0.08996599999999999,-0.001957,-0.007281999999999999,0.001771,-56.0,-19.5,-7.56,2a
2019-07-12_131954:020,-0.492126,0.004547,-0.090485,-0.002659,-0.006854000000000001,0.001588,-56.0,-19.5,-7.56,2a
2019-07-12_131954:040,-0.49111899999999997,0.006592,-0.089478,-0.0032689999999999998,-0.006488,0.0017100000000000001,-56.369999,-19.870001000000002,-7.18,2a
2019-07-12_131954:060,-0.49111899999999997,0.007111,-0.088959,-0.004123,-0.006092,0.0017100000000000001,-56.369999,-19.870001000000002,-7.18,2a
2019-07-12_131954:080,-0.492126,0.006592,-0.089478,-0.004642,-0.005817,0.001588,-56.0,-19.870001000000002,-8.0,2a
2019-07-12_131954:100,-0.490112,0.007111,-0.088959,-0.005039,-0.005756,0.001497,-56.0,-19.870001000000002,-8.0,2a
2019-07-12_131954:120,-0.490112,0.006592,-0.08843999999999999,-0.004978,-0.005939,0.001436,-56.0,-19.870001000000002,-8.0,2a
2019-07-12_131954:140,-0.490112,0.0055850000000000006,-0.088959,-0.004764,-0.005817,0.001527,-56.369999,-19.870001000000002,-7.56,2a
2019-07-12_131954:160,-0.490601,0.006072999999999999,-0.08743300000000001,-0.004398,-0.006092,0.001588,-56.369999,-19.870001000000002,-7.56,2a
2019-07-12_131954:180,-0.48858599999999996,0.008118,-0.088959,-0.003788,-0.006214,0.001588,-56.0,-19.870001000000002,-8.0,2a
2019-07-12_131954:200,-0.48553500000000005,0.009644,-0.086914,-0.0033909999999999995,-0.006336,0.001436,-56.0,-19.870001000000002,-8.0,2a
2019-07-12_131954:220,-0.482483,0.010162000000000001,-0.08743300000000001,-0.00275,-0.007006999999999999,0.001588,-56.0,-19.870001000000002,-8.0,2a
2019-07-12_131954:240,-0.48349,0.012695,-0.08843999999999999,-0.002414,-0.00838,0.002107,-56.0,-21.0,-8.0,2a
2019-07-12_131954:260,-0.485016,0.013213999999999998,-0.087952,-0.002353,-0.009723,0.002321,-56.0,-21.0,-8.0,2a
2019-07-12_131954:280,-0.486023,0.013213999999999998,-0.08743300000000001,-0.00214,-0.010669,0.002565,-56.0,-20.18,-7.56,2a
2019-07-12_131954:300,-0.48706099999999997,0.015747,-0.089478,-0.002262,-0.011249,0.0027170000000000002,-56.0,-20.18,-7.56,2a
2019-07-12_131954:320,-0.492126,0.012177,-0.09149199999999999,-0.002872,-0.011188,0.003358,-56.0,-20.18,-7.56,2a
2019-07-12_131954:340,-0.494171,0.013213999999999998,-0.09353600000000001,-0.002933,-0.010669,0.003511,-56.0,-20.18,-8.0,2a
2019-07-12_131954:360,-0.49468999999999996,0.011687999999999999,-0.09454299999999999,-0.003116,-0.010394,0.003175,-56.0,-20.18,-8.0,2a
2019-07-12_131954:380,-0.49111899999999997,0.011687999999999999,-0.096588,-0.0032689999999999998,-0.009784000000000001,0.0034189999999999997,-55.560001,-20.559998999999998,-7.56,2a
2019-07-12_131954:400,-0.490601,0.010651,-0.096069,-0.003208,-0.009143,0.004274,-55.560001,-20.559998999999998,-7.56,2a
2019-07-12_131954:420,-0.489075,0.011169,-0.098633,-0.003208,-0.008533,0.004609,-55.560001,-20.559998999999998,-7.56,2a
2019-07-12_131954:440,-0.489075,0.011687999999999999,-0.098633,-0.003452,-0.008075,0.0039689999999999994,-56.369999,-20.559998999999998,-9.18,2a
2019-07-12_131954:460,-0.489594,0.013213999999999998,-0.09811399999999999,-0.003452,-0.007739,0.004182,-56.369999,-20.559998999999998,-9.18,2a
2019-07-12_131954:480,-0.49111899999999997,0.013213999999999998,-0.098633,-0.003483,-0.007281999999999999,0.005006,-55.25,-20.559998999999998,-9.56,2a
2019-07-12_131954:500,-0.491638,0.010651,-0.098633,-0.003879,-0.006885,0.005189,-55.25,-20.559998999999998,-9.56,2a
2019-07-12_131954:520,-0.492126,0.012695,-0.097595,-0.004184,-0.006548999999999999,0.005189,-55.25,-20.559998999999998,-9.56,2a
2019-07-12_131954:540,-0.491638,0.011169,-0.09811399999999999,-0.004275999999999999,-0.006214,0.005311,-56.0,-21.0,-10.0,2a
2019-07-12_131954:560,-0.49111899999999997,0.011169,-0.094055,-0.004642,-0.0061530000000000005,0.005311,-56.0,-21.0,-10.0,2a
2019-07-12_131954:580,-0.48754899999999995,0.012177,-0.098633,-0.004947,-0.0061530000000000005,0.005464,-55.560001,-20.559998999999998,-10.0,2a
2019-07-12_131954:600,-0.48349,0.008118,-0.097107,-0.0051,-0.0061530000000000005,0.005464,-55.560001,-20.559998999999998,-10.0,2a
2019-07-12_131954:620,-0.484497,0.009644,-0.099121,-0.0051,-0.006731999999999999,0.004732,-55.560001,-20.559998999999998,-10.0,2a
2019-07-12_131954:640,-0.485016,0.011169,-0.099121,-0.0051,-0.007404000000000001,0.004915,-55.560001,-19.5,-9.56,2a
2019-07-12_131954:660,-0.488068,0.007599,-0.099121,-0.004978,-0.007801000000000001,0.005861,-55.560001,-19.5,-9.56,2a
2019-07-12_131954:680,-0.48858599999999996,0.008118,-0.101685,-0.005039,-0.007739,0.005525,-56.0,-21.0,-9.18,2a
2019-07-12_131954:700,-0.48858599999999996,0.009125,-0.100647,-0.004886,-0.007465,0.005342,-56.0,-21.0,-9.18,2a
2019-07-12_131954:720,-0.48754899999999995,0.010162000000000001,-0.100647,-0.004612,-0.0070680000000000005,0.005983,-56.0,-21.0,-9.18,2a
2019-07-12_131954:740,-0.485016,0.009644,-0.104218,-0.004764,-0.006793,0.006441,-55.560001,-21.0,-9.18,2a
2019-07-12_131954:760,-0.48858599999999996,0.011169,-0.102692,-0.005039,-0.006548999999999999,0.006593000000000001,-55.560001,-21.0,-9.18,2a
2019-07-12_131954:780,-0.48858599999999996,0.011169,-0.102173,-0.0051,-0.006458,0.007203,-56.0,-19.870001000000002,-9.18,2a
2019-07-12_131954:800,-0.48754899999999995,0.008118,-0.102692,-0.005375,-0.0066099999999999996,0.007844,-56.0,-19.870001000000002,-9.18,2a
2019-07-12_131954:820,-0.490112,0.008636,-0.102173,-0.005771,-0.006548999999999999,0.008454999999999999,-56.0,-19.870001000000002,-9.18,2a
2019-07-12_131954:840,-0.490112,0.006072999999999999,-0.100647,-0.006229,-0.006458,0.008729,-56.369999,-20.18,-10.0,2a
2019-07-12_131954:860,-0.48858599999999996,0.004547,-0.102173,-0.006412,-0.006275,0.008699,-56.369999,-20.18,-10.0,2a
2019-07-12_131954:880,-0.48706099999999997,0.0030210000000000002,-0.101685,-0.006626000000000001,-0.006214,0.008516,-56.75,-19.870001000000002,-10.37,2a
2019-07-12_131954:900,-0.485016,0.001495,-0.100159,-0.006687,-0.006397,0.008729,-56.75,-19.870001000000002,-10.37,2a
2019-07-12_131954:920,-0.48553500000000005,0.0,-0.10116599999999999,-0.0067480000000000005,-0.006670999999999999,0.008638,-56.75,-19.870001000000002,-10.37,2a
2019-07-12_131954:940,-0.484497,-0.001495,-0.102173,-0.006412,-0.006854000000000001,0.008454999999999999,-56.0,-19.5,-9.56,2a
2019-07-12_131954:960,-0.48349,-0.0025329999999999997,-0.10116599999999999,-0.005893,-0.0070680000000000005,0.008394,-56.0,-19.5,-9.56,2a
2019-07-12_131954:980,-0.48654200000000003,-0.002014,-0.102173,-0.005619,-0.007129000000000001,0.008119,-56.369999,-19.059998999999998,-10.37,2a
2019-07-12_131955:000,-0.48553500000000005,-0.0025329999999999997,-0.10116599999999999,-0.005161,-0.007129000000000001,0.008058,-56.369999,-19.059998999999998,-10.37,2a
2019-07-12_131955:020,-0.489075,-0.0030210000000000002,-0.10318,-0.004886,-0.007129000000000001,0.007905,-56.369999,-19.059998999999998,-10.37,2a
2019-07-12_131955:040,-0.489594,-0.002014,-0.103699,-0.004947,-0.0066099999999999996,0.007905,-56.369999,-18.370001000000002,-9.56,2a
2019-07-12_131955:060,-0.490112,-0.004059,-0.101685,-0.004825,-0.006275,0.007997,-56.369999,-18.370001000000002,-9.56,2a
2019-07-12_131955:080,-0.492126,-0.005065999999999999,-0.104706,-0.005039,-0.005878,0.007965999999999999,-56.0,-18.370001000000002,-10.37,2a
2019-07-12_131955:100,-0.494171,-0.005065999999999999,-0.104218,-0.005497,-0.005695,0.007965999999999999,-56.0,-18.370001000000002,-10.37,2a
2019-07-12_131955:120,-0.489075,-0.009125,-0.104218,-0.005619,-0.005451,0.0076,-56.0,-18.370001000000002,-10.37,2a
2019-07-12_131955:140,-0.484497,-0.008118,-0.104706,-0.005893,-0.00539,0.006868000000000001,-56.0,-18.68,-9.18,2a
2019-07-12_131955:160,-0.486023,-0.010651,-0.106232,-0.005679999999999999,-0.005878,0.005922,-56.0,-18.68,-9.18,2a
2019-07-12_131955:180,-0.484497,-0.010162000000000001,-0.104706,-0.005771,-0.005756,0.004671,-56.0,-18.68,-9.56,2a
2019-07-12_131955:200,-0.488068,-0.010162000000000001,-0.105225,-0.005375,-0.005939,0.003358,-56.0,-18.68,-9.56,2a
2019-07-12_131955:220,-0.486023,-0.008118,-0.10775799999999999,-0.0051,-0.005634,0.0027170000000000002,-56.0,-18.68,-9.56,2a
2019-07-12_131955:240,-0.484009,-0.004059,-0.105743,-0.004978,-0.005176,0.003633,-56.369999,-18.0,-10.37,2a
2019-07-12_131955:260,-0.484497,-0.006592,-0.10675,-0.005161,-0.004444,0.005189,-56.369999,-18.0,-10.37,2a
2019-07-12_131955:280,-0.485016,-0.0030210000000000002,-0.104706,-0.0052829999999999995,-0.004566,0.005189,-56.75,-18.68,-9.18,2a
2019-07-12_131955:300,-0.48654200000000003,-0.0030210000000000002,-0.102692,-0.005893,-0.004596,0.004915,-56.75,-18.68,-9.18,2a
2019-07-12_131955:320,-0.48654200000000003,-0.006592,-0.103699,-0.006076,-0.005054,0.004671,-56.75,-18.68,-9.18,2a
2019-07-12_131955:340,-0.490112,-0.008118,-0.102692,-0.006076,-0.00539,0.004396,-56.369999,-18.370001000000002,-9.56,2a
2019-07-12_131955:360,-0.490601,-0.007599,-0.100159,-0.005679999999999999,-0.00539,0.004548,-56.369999,-18.370001000000002,-9.56,2a
2019-07-12_131955:380,-0.489594,-0.008636,-0.10116599999999999,-0.005375,-0.005176,0.004274,-57.060001,-18.68,-10.0,2a
2019-07-12_131955:400,-0.485016,-0.007599,-0.100159,-0.004642,-0.00484,0.0039689999999999994,-57.060001,-18.68,-10.0,2a
2019-07-12_131955:420,-0.486023,-0.006592,-0.102173,-0.004184,-0.004961999999999999,0.00403,-57.060001,-18.68,-10.0,2a
2019-07-12_131955:440,-0.481476,-0.0055850000000000006,-0.09963999999999999,-0.004062,-0.005054,0.003908,-57.5,-18.68,-8.37,2a
2019-07-12_131955:460,-0.48300200000000004,-0.0055850000000000006,-0.10116599999999999,-0.003879,-0.005817,0.003175,-57.5,-18.68,-8.37,2a
2019-07-12_131955:480,-0.48654200000000003,-0.001007,-0.103699,-0.003879,-0.006548999999999999,0.0027170000000000002,-57.5,-18.0,-9.18,2a
2019-07-12_131955:500,-0.489075,-0.001495,-0.10318,-0.004001,-0.006731999999999999,0.003633,-57.5,-18.0,-9.18,2a
2019-07-12_131955:520,-0.490601,-0.0035399999999999997,-0.104218,-0.004275999999999999,-0.006275,0.0039689999999999994,-57.5,-18.0,-9.18,2a
2019-07-12_131955:540,-0.49111899999999997,-0.0025329999999999997,-0.105225,-0.004642,-0.005725,0.003572,-56.75,-19.059998999999998,-9.56,2a
2019-07-12_131955:560,-0.488068,-0.002014,-0.104706,-0.005222,-0.005176,0.0037549999999999997,-56.75,-19.059998999999998,-9.56,2a
2019-07-12_131955:580,-0.489075,-0.007599,-0.104218,-0.0052829999999999995,-0.004718,0.0038159999999999995,-56.75,-19.059998999999998,-10.0,2a
2019-07-12_131955:600,-0.492645,-0.013213999999999998,-0.10318,-0.004703,-0.003711,0.003114,-56.75,-19.059998999999998,-10.0,2a
2019-07-12_131955:620,-0.494171,-0.015228,-0.105225,-0.003483,-0.002857,0.002778,-56.75,-19.059998999999998,-10.0,2a
2019-07-12_131955:640,-0.49517799999999995,-0.011687999999999999,-0.10318,-0.0019260000000000002,-0.0020629999999999997,0.0025039999999999997,-56.369999,-19.5,-10.0,2a
2019-07-12_131955:660,-0.496216,-0.008636,-0.102173,-0.000675,-0.00072,0.001924,-56.369999,-19.5,-10.0,2a
2019-07-12_131955:680,-0.49365200000000004,-0.0035399999999999997,-0.10116599999999999,0.00018,0.001385,0.001314,-56.369999,-18.0,-8.75,2a
2019-07-12_131955:700,-0.492645,-0.001495,-0.099121,0.000241,0.002667,0.0007639999999999999,-56.369999,-18.0,-8.75,2a
2019-07-12_131955:720,-0.489594,0.001007,-0.098633,0.000241,0.0033079999999999997,0.001253,-56.369999,-18.0,-8.75,2a
2019-07-12_131955:740,-0.489594,0.0,-0.096588,-0.000217,0.003918,0.00229,-56.369999,-18.370001000000002,-8.75,2a
2019-07-12_131955:760,-0.492645,0.0,-0.095581,-0.00046100000000000004,0.004376,0.0026260000000000003,-56.369999,-18.370001000000002,-8.75,2a
2019-07-12_131955:780,-0.494171,0.0,-0.094055,-0.000736,0.004986,0.002443,-57.5,-19.5,-8.37,2a
2019-07-12_131955:800,-0.49365200000000004,0.0,-0.08996599999999999,-0.0011330000000000001,0.0055049999999999995,0.002443,-57.5,-19.5,-8.37,2a
2019-07-12_131955:820,-0.49316400000000005,-0.000488,-0.091003,-0.0013460000000000002,0.005963,0.002565,-57.5,-19.5,-8.37,2a
2019-07-12_131955:840,-0.49111899999999997,-0.001007,-0.086914,-0.0018039999999999998,0.006512,0.002046,-57.060001,-19.5,-8.0,2a
2019-07-12_131955:860,-0.488068,-0.000488,-0.082855,-0.001865,0.006512,0.001161,-57.060001,-19.5,-8.0,2a
2019-07-12_131955:880,-0.48553500000000005,0.001495,-0.082855,-0.00214,0.0062380000000000005,0.0005809999999999999,-56.75,-18.370001000000002,-7.56,2a
2019-07-12_131955:900,-0.484009,0.002014,-0.07775900000000001,-0.002323,0.005047,0.0007639999999999999,-56.75,-18.370001000000002,-7.56,2a
2019-07-12_131955:920,-0.48754899999999995,0.0030210000000000002,-0.07775900000000001,-0.002475,0.00404,0.000917,-56.75,-18.370001000000002,-7.56,2a
2019-07-12_131955:940,-0.492126,0.0035399999999999997,-0.07421900000000001,-0.002872,0.0027890000000000002,0.001314,-56.369999,-19.5,-6.75,2a
2019-07-12_131955:960,-0.491638,0.0025329999999999997,-0.073212,-0.002994,0.002392,0.001832,-56.369999,-19.5,-6.75,2a
2019-07-12_131955:980,-0.490112,0.0035399999999999997,-0.070648,-0.0033909999999999995,0.001996,0.002046,-56.369999,-19.5,-7.56,2a
2019-07-12_131956:000,-0.492645,0.0025329999999999997,-0.069122,-0.0033909999999999995,0.0018739999999999998,0.002229,-56.369999,-19.5,-7.56,2a
2019-07-12_131956:020,-0.490601,0.0030210000000000002,-0.068115,-0.0036049999999999997,0.001538,0.002382,-56.369999,-19.5,-7.56,2a
2019-07-12_131956:040,-0.492645,0.0035399999999999997,-0.068115,-0.003544,0.000866,0.001924,-56.369999,-19.870001000000002,-6.0,2a
2019-07-12_131956:060,-0.489075,0.007111,-0.065063,-0.0036659999999999996,1.2e-05,0.0017100000000000001,-56.369999,-19.870001000000002,-6.0,2a
2019-07-12_131956:080,-0.490601,0.007111,-0.065063,-0.00394,-0.0009339999999999999,0.0025039999999999997,-57.060001,-19.870001000000002,-6.0,2a
2019-07-12_131956:100,-0.48858599999999996,0.004547,-0.064545,-0.004123,-0.001178,0.003358,-57.060001,-19.870001000000002,-6.0,2a
2019-07-12_131956:120,-0.48858599999999996,0.004547,-0.06253099999999999,-0.004275999999999999,-0.0015140000000000002,0.003114,-57.060001,-19.870001000000002,-6.0,2a
2019-07-12_131956:140,-0.49111899999999997,0.0055850000000000006,-0.060486,-0.004123,-0.0021850000000000003,0.003358,-57.060001,-19.5,-5.56,2a
2019-07-12_131956:160,-0.491638,0.005065999999999999,-0.06149299999999999,-0.00394,-0.002582,0.003694,-57.060001,-19.5,-5.56,2a
2019-07-12_131956:180,-0.494171,0.007111,-0.060486,-0.003879,-0.002918,0.00345,-56.369999,-20.559998999999998,-5.56,2a
2019-07-12_131956:200,-0.492645,0.007599,-0.058441,-0.004001,-0.003375,0.0037549999999999997,-56.369999,-20.559998999999998,-5.56,2a
2019-07-12_131956:220,-0.49111899999999997,0.009125,-0.058960000000000005,-0.004001,-0.004047,0.004213000000000001,-56.369999,-20.559998999999998,-5.56,2a
2019-07-12_131956:240,-0.48858599999999996,0.008636,-0.056915,-0.004184,-0.004566,0.004609,-56.369999,-20.559998999999998,-5.18,2a
2019-07-12_131956:260,-0.49111899999999997,0.009125,-0.058441,-0.004459,-0.00539,0.005189,-56.369999,-20.559998999999998,-5.18,2a
2019-07-12_131956:280,-0.489075,0.0055850000000000006,-0.058441,-0.004581,-0.006092,0.006074,-56.75,-19.870001000000002,-4.37,2a
2019-07-12_131956:300,-0.48858599999999996,0.006072999999999999,-0.058441,-0.004275999999999999,-0.007006999999999999,0.005464,-56.75,-19.870001000000002,-4.37,2a
2019-07-12_131956:320,-0.48754899999999995,0.0055850000000000006,-0.059479,-0.004581,-0.007862000000000001,0.005128,-56.75,-19.870001000000002,-4.37,2a
2019-07-12_131956:340,-0.490601,0.008118,-0.05996699999999999,-0.004520000000000001,-0.008716,0.006318,-57.060001,-20.18,-4.87,2a
2019-07-12_131956:360,-0.491638,0.007111,-0.05996699999999999,-0.004642,-0.008990999999999999,0.006776000000000001,-57.060001,-20.18,-4.87,2a
2019-07-12_131956:380,-0.491638,0.009644,-0.05996699999999999,-0.005497,-0.009448,0.006441,-57.5,-20.18,-5.56,2a
2019-07-12_131956:400,-0.495697,0.015228,-0.062012,-0.007145,-0.009265,0.0067150000000000005,-57.5,-20.18,-5.56,2a
2019-07-12_131956:420,-0.498749,0.014740000000000001,-0.062012,-0.009556,-0.008716,0.007051000000000001,-57.5,-20.18,-5.56,2a
2019-07-12_131956:440,-0.49722299999999997,0.013213999999999998,-0.064545,-0.012577,-0.008319,0.0069900000000000006,-57.060001,-19.870001000000002,-6.37,2a
2019-07-12_131956:460,-0.492645,0.0,-0.067108,-0.014774,-0.008319,0.006135,-57.060001,-19.870001000000002,-6.37,2a
2019-07-12_131956:480,-0.492645,-0.002014,-0.066589,-0.01511,-0.008319,0.00525,-57.869999,-19.870001000000002,-5.56,2a
2019-07-12_131956:500,-0.491638,-0.012177,-0.068634,-0.014377000000000001,-0.008990999999999999,0.004548,-57.869999,-19.870001000000002,-5.56,2a
2019-07-12_131956:520,-0.490601,-0.013702,-0.070648,-0.012058,-0.009326000000000001,0.004732,-57.869999,-19.870001000000002,-5.56,2a
2019-07-12_131956:540,-0.489594,-0.011169,-0.071167,-0.009525,-0.009601,0.004396,-56.75,-19.870001000000002,-6.0,2a
2019-07-12_131956:560,-0.490112,-0.007599,-0.073212,-0.007084,-0.009998,0.004548,-56.75,-19.870001000000002,-6.0,2a
2019-07-12_131956:580,-0.490601,-0.0030210000000000002,-0.07421900000000001,-0.0052829999999999995,-0.010333,0.004793,-57.5,-19.059998999999998,-5.56,2a
2019-07-12_131956:600,-0.490112,0.0,-0.072693,-0.004123,-0.010912999999999999,0.005311,-57.5,-19.059998999999998,-5.56,2a
2019-07-12_131956:620,-0.490601,0.009125,-0.075226,-0.003788,-0.011309999999999999,0.005525,-57.5,-19.059998999999998,-5.56,2a
2019-07-12_131956:640,-0.489594,0.011687999999999999,-0.076263,-0.004764,-0.011798000000000001,0.005861,-57.060001,-19.059998999999998,-6.75,2a
2019-07-12_131956:660,-0.49316400000000005,0.011169,-0.075745,-0.006412,-0.012256,0.006257,-57.060001,-19.059998999999998,-6.75,2a
2019-07-12_131956:680,-0.49316400000000005,0.011169,-0.076263,-0.007877,-0.012103000000000001,0.006441,-56.75,-20.18,-5.56,2a
2019-07-12_131956:700,-0.496216,0.005065999999999999,-0.078796,-0.009006,-0.011798000000000001,0.006776000000000001,-56.75,-20.18,-5.56,2a
2019-07-12_131956:720,-0.494171,0.0035399999999999997,-0.07928500000000001,-0.009617,-0.011585,0.0071730000000000006,-56.75,-20.18,-5.56,2a
2019-07-12_131956:740,-0.49517799999999995,0.002014,-0.08081100000000001,-0.010196,-0.010974,0.006929,-56.75,-19.870001000000002,-7.18,2a
2019-07-12_131956:760,-0.492126,-0.002014,-0.080322,-0.010348999999999999,-0.010639000000000001,0.006929,-56.75,-19.870001000000002,-7.18,2a
2019-07-12_131956:780,-0.490601,-0.004059,-0.083374,-0.009617,-0.010242,0.007265000000000001,-56.369999,-19.870001000000002,-7.18,2a
2019-07-12_131956:800,-0.49316400000000005,-0.006592,-0.084381,-0.008945,-0.010059,0.007326000000000001,-56.369999,-19.870001000000002,-7.18,2a
2019-07-12_131956:820,-0.490601,-0.007111,-0.085388,-0.0076939999999999995,-0.009937,0.006776000000000001,-56.369999,-19.870001000000002,-7.18,2a
2019-07-12_131956:840,-0.491638,-0.007599,-0.08743300000000001,-0.006687,-0.010181,0.005983,-57.060001,-19.059998999999998,-8.0,2a
2019-07-12_131956:860,-0.489075,-0.006592,-0.087952,-0.005954,-0.010333,0.005983,-57.060001,-19.059998999999998,-8.0,2a
2019-07-12_131956:880,-0.490601,-0.005065999999999999,-0.088959,-0.005222,-0.01073,0.006135,-57.869999,-18.68,-7.18,2a
2019-07-12_131956:900,-0.490112,-0.005065999999999999,-0.088959,-0.005222,-0.010242,0.005861,-57.869999,-18.68,-7.18,2a
2019-07-12_131956:920,-0.492126,-0.0030210000000000002,-0.089478,-0.005222,-0.00954,0.005739,-57.869999,-18.68,-7.18,2a
2019-07-12_131956:940,-0.494171,-0.004059,-0.090485,-0.005558,-0.009143,0.005647,-57.060001,-19.059998999999998,-6.75,2a
2019-07-12_131956:960,-0.49316400000000005,-0.0030210000000000002,-0.08996599999999999,-0.006229,-0.008655,0.005067,-57.060001,-19.059998999999998,-6.75,2a
2019-07-12_131956:980,-0.494171,-0.004059,-0.08996599999999999,-0.00687,-0.007923000000000001,0.004793,-57.060001,-18.68,-7.56,2a
2019-07-12_131957:000,-0.491638,-0.006072999999999999,-0.08843999999999999,-0.0069,-0.007923000000000001,0.004671,-57.060001,-18.68,-7.56,2a
2019-07-12_131957:020,-0.488068,-0.007111,-0.091003,-0.006687,-0.007984,0.004518,-57.060001,-18.68,-7.56,2a
2019-07-12_131957:040,-0.490601,-0.006592,-0.091003,-0.006504,-0.007862000000000001,0.004548,-57.5,-18.68,-6.75,2a
2019-07-12_131957:060,-0.488068,-0.008118,-0.089478,-0.005771,-0.007801000000000001,0.004274,-57.5,-18.68,-6.75,2a
2019-07-12_131957:080,-0.48706099999999997,-0.007111,-0.09201000000000001,-0.005344,-0.007862000000000001,0.0029,-57.5,-19.059998999999998,-7.56,2a
2019-07-12_131957:100,-0.486023,-0.0030210000000000002,-0.09201000000000001,-0.005161,-0.008411,0.002687,-57.5,-19.059998999999998,-7.56,2a
2019-07-12_131957:120,-0.486023,-0.001007,-0.09201000000000001,-0.004886,-0.008716,0.0038469999999999997,-57.5,-19.059998999999998,-7.56,2a
2019-07-12_131957:140,-0.489075,-0.000488,-0.092529,-0.005039,-0.009265,0.003694,-57.060001,-18.370001000000002,-6.37,2a
2019-07-12_131957:160,-0.48754899999999995,0.001007,-0.09301799999999999,-0.0052829999999999995,-0.009265,0.0037549999999999997,-57.060001,-18.370001000000002,-6.37,2a
2019-07-12_131957:180,-0.489594,0.001007,-0.09301799999999999,-0.005375,-0.009204,0.004396,-56.68,-19.059998999999998,-8.0,2a
2019-07-12_131957:200,-0.490601,-0.000488,-0.09301799999999999,-0.005497,-0.009113,0.004548,-56.68,-19.059998999999998,-8.0,2a
2019-07-12_131957:220,-0.492126,-0.000488,-0.095581,-0.005436,-0.008594,0.004518,-56.68,-19.059998999999998,-8.0,2a
2019-07-12_131957:240,-0.491638,-0.001495,-0.097107,-0.005344,-0.008472,0.004609,-56.68,-18.68,-8.37,2a
2019-07-12_131957:260,-0.492126,-0.001495,-0.095581,-0.004825,-0.007587000000000001,0.004671,-56.68,-18.68,-8.37,2a
2019-07-12_131957:280,-0.490112,-0.000488,-0.096588,-0.004581,-0.007343000000000001,0.004609,-57.060001,-19.059998999999998,-8.0,2a
2019-07-12_131957:300,-0.48858599999999996,0.000488,-0.097595,-0.004337,-0.007129000000000001,0.00525,-57.060001,-19.059998999999998,-8.0,2a
2019-07-12_131957:320,-0.48553500000000005,0.001495,-0.096069,-0.004520000000000001,-0.007220999999999999,0.00525,-57.060001,-19.059998999999998,-8.0,2a
2019-07-12_131957:340,-0.48654200000000003,0.0030210000000000002,-0.099121,-0.004825,-0.007739,0.005739,-57.5,-19.059998999999998,-6.75,2a
2019-07-12_131957:360,-0.48654200000000003,0.002014,-0.097595,-0.0052829999999999995,-0.007862000000000001,0.006257,-57.5,-19.059998999999998,-6.75,2a
2019-07-12_131957:380,-0.48654200000000003,-0.000488,-0.098633,-0.005375,-0.007923000000000001,0.006441,-56.25,-19.5,-7.56,2a
2019-07-12_131957:400,-0.48754899999999995,-0.002014,-0.099121,-0.005161,-0.008014,0.006868000000000001,-56.25,-19.5,-7.56,2a
2019-07-12_131957:420,-0.48754899999999995,-0.0035399999999999997,-0.09963999999999999,-0.004947,-0.007923000000000001,0.007112,-56.25,-19.5,-7.56,2a
2019-07-12_131957:440,-0.48754899999999995,-0.006072999999999999,-0.100159,-0.004947,-0.007801000000000001,0.0069900000000000006,-56.25,-18.68,-8.0,2a
2019-07-12_131957:460,-0.488068,-0.006072999999999999,-0.10116599999999999,-0.004886,-0.007801000000000001,0.007112,-56.25,-18.68,-8.0,2a
2019-07-12_131957:480,-0.489594,-0.005065999999999999,-0.09963999999999999,-0.004947,-0.007923000000000001,0.007112,-57.369999,-19.059998999999998,-9.18,2a
2019-07-12_131957:500,-0.48858599999999996,-0.006592,-0.10116599999999999,-0.005039,-0.007526000000000001,0.006593000000000001,-57.369999,-19.059998999999998,-9.18,2a
2019-07-12_131957:520,-0.485016,-0.008118,-0.100647,-0.004947,-0.007587000000000001,0.006654,-57.369999,-19.059998999999998,-9.18,2a
2019-07-12_131957:540,-0.48754899999999995,-0.006072999999999999,-0.102173,-0.005375,-0.007281999999999999,0.005861,-56.25,-18.370001000000002,-8.75,2a
2019-07-12_131957:560,-0.482483,-0.006072999999999999,-0.098633,-0.006076,-0.007801000000000001,0.004945000000000001,-56.25,-18.370001000000002,-8.75,2a
2019-07-12_131957:580,-0.484009,-0.002014,-0.104706,-0.007023000000000001,-0.008411,0.004671,-57.369999,-18.68,-8.37,2a
2019-07-12_131957:600,-0.484009,-0.0025329999999999997,-0.10318,-0.0076939999999999995,-0.009143,0.005586,-57.369999,-18.68,-8.37,2a
2019-07-12_131957:620,-0.48706099999999997,-0.009125,-0.105743,-0.0076939999999999995,-0.009143,0.0067150000000000005,-57.369999,-18.68,-8.37,2a
2019-07-12_131957:640,-0.48553500000000005,-0.014221000000000001,-0.106232,-0.007358,-0.009143,0.006837,-57.0,-18.68,-8.37,2a
2019-07-12_131957:660,-0.48754899999999995,-0.015747,-0.10675,-0.005375,-0.008472,0.005739,-57.0,-18.68,-8.37,2a
2019-07-12_131957:680,-0.490601,-0.015228,-0.10675,-0.004825,-0.008136,0.005586,-57.75,-18.68,-7.56,2a
2019-07-12_131957:700,-0.490112,-0.012695,-0.10675,-0.003879,-0.007220999999999999,0.004609,-57.75,-18.68,-7.56,2a
2019-07-12_131957:720,-0.48858599999999996,-0.009125,-0.10675,-0.003879,-0.006945999999999999,0.004182,-57.75,-18.68,-7.56,2a
2019-07-12_131957:740,-0.486023,-0.007599,-0.108276,-0.00394,-0.007006999999999999,0.004732,-56.68,-18.370001000000002,-8.75,2a
2019-07-12_131957:760,-0.48654200000000003,-0.007111,-0.106232,-0.004184,-0.007343000000000001,0.004548,-56.68,-18.370001000000002,-8.75,2a
2019-07-12_131957:780,-0.48553500000000005,-0.007599,-0.108276,-0.004520000000000001,-0.007129000000000001,0.004548,-58.18,-18.370001000000002,-8.75,2a
2019-07-12_131957:800,-0.488068,-0.007111,-0.108276,-0.004825,-0.006885,0.005067,-58.18,-18.370001000000002,-8.75,2a
2019-07-12_131957:820,-0.485016,-0.011687999999999999,-0.10775799999999999,-0.005161,-0.006793,0.004274,-58.18,-18.370001000000002,-8.75,2a
2019-07-12_131957:840,-0.485016,-0.012177,-0.111328,-0.004978,-0.006885,0.003572,-56.68,-18.370001000000002,-9.56,2a
2019-07-12_131957:860,-0.486023,-0.009125,-0.109802,-0.0042450000000000005,-0.006854000000000001,0.004793,-56.68,-18.370001000000002,-9.56,2a
2019-07-12_131957:880,-0.48706099999999997,-0.011169,-0.110321,-0.004184,-0.006488,0.004609,-57.0,-18.370001000000002,-10.0,2a
2019-07-12_131957:900,-0.48654200000000003,-0.009125,-0.11080899999999999,-0.004520000000000001,-0.006092,0.0037549999999999997,-57.0,-18.370001000000002,-10.0,2a
2019-07-12_131957:920,-0.486023,-0.008636,-0.110321,-0.004398,-0.006092,0.004182,-57.0,-18.370001000000002,-10.0,2a
2019-07-12_131957:940,-0.488068,-0.009644,-0.110321,-0.004398,-0.005817,0.004274,-56.68,-18.0,-10.0,2a
2019-07-12_131957:960,-0.48706099999999997,-0.008636,-0.109802,-0.004642,-0.005756,0.0037549999999999997,-56.68,-18.0,-10.0,2a
2019-07-12_131957:980,-0.48706099999999997,-0.008118,-0.11080899999999999,-0.004459,-0.005359,0.003694,-57.0,-18.370001000000002,-8.75,2a
2019-07-12_131958:000,-0.488068,-0.007599,-0.109802,-0.004520000000000001,-0.005176,0.003572,-57.0,-18.370001000000002,-8.75,2a
2019-07-12_131958:020,-0.48754899999999995,-0.007599,-0.108276,-0.004642,-0.004657,0.0037549999999999997,-57.0,-18.370001000000002,-8.75,2a
2019-07-12_131958:040,-0.486023,-0.007599,-0.10928299999999999,-0.004612,-0.00484,0.0039689999999999994,-56.25,-18.68,-9.56,2a
2019-07-12_131958:060,-0.48349,-0.008118,-0.107269,-0.004612,-0.004779,0.0038159999999999995,-56.25,-18.68,-9.56,2a
2019-07-12_131958:080,-0.48553500000000005,-0.007599,-0.108276,-0.004581,-0.004901,0.0038469999999999997,-57.0,-18.0,-10.0,2a
2019-07-12_131958:100,-0.486023,-0.004547,-0.10775799999999999,-0.004886,-0.004993,0.0038159999999999995,-57.0,-18.0,-10.0,2a
2019-07-12_131958:120,-0.484009,-0.0035399999999999997,-0.10775799999999999,-0.0052829999999999995,-0.004993,0.004152,-57.0,-18.0,-10.0,2a
2019-07-12_131958:140,-0.486023,-0.005065999999999999,-0.10775799999999999,-0.005619,-0.005451,0.004274,-58.18,-18.370001000000002,-8.75,2a
2019-07-12_131958:160,-0.48553500000000005,-0.009125,-0.105743,-0.005375,-0.005695,0.004274,-58.18,-18.370001000000002,-8.75,2a
2019-07-12_131958:180,-0.484497,-0.009644,-0.107269,-0.004978,-0.005451,0.004213000000000001,-57.75,-18.0,-10.0,2a
2019-07-12_131958:200,-0.48553500000000005,-0.007599,-0.108795,-0.004642,-0.005695,0.0039689999999999994,-57.75,-18.0,-10.0,2a
2019-07-12_131958:220,-0.48349,-0.0055850000000000006,-0.107269,-0.004947,-0.006,0.003908,-57.75,-18.0,-10.0,2a
2019-07-12_131958:240,-0.484497,-0.006592,-0.108795,-0.004947,-0.0061530000000000005,0.004091,-57.369999,-17.18,-10.37,2a
2019-07-12_131958:260,-0.48553500000000005,-0.006592,-0.10775799999999999,-0.0052829999999999995,-0.0066099999999999996,0.004213000000000001,-57.369999,-17.18,-10.37,2a
2019-07-12_131958:280,-0.48654200000000003,-0.010162000000000001,-0.110321,-0.005161,-0.006670999999999999,0.004396,-57.0,-18.68,-9.56,2a
2019-07-12_131958:300,-0.48754899999999995,-0.011169,-0.109802,-0.004886,-0.006397,0.004457,-57.0,-18.68,-9.56,2a
2019-07-12_131958:320,-0.48553500000000005,-0.011687999999999999,-0.11080899999999999,-0.004520000000000001,-0.006275,0.004609,-57.0,-18.68,-9.56,2a
2019-07-12_131958:340,-0.488068,-0.013213999999999998,-0.111847,-0.0037270000000000003,-0.006397,0.004152,-56.25,-18.370001000000002,-10.0,2a
2019-07-12_131958:360,-0.486023,-0.012695,-0.111328,-0.0036049999999999997,-0.006336,0.0038159999999999995,-56.25,-18.370001000000002,-10.0,2a
2019-07-12_131958:380,-0.486023,-0.012177,-0.113373,-0.002811,-0.006458,0.003694,-55.869999,-18.68,-10.0,2a
2019-07-12_131958:400,-0.484497,-0.011687999999999999,-0.11438,-0.002262,-0.006488,0.00345,-55.869999,-18.68,-10.0,2a
2019-07-12_131958:420,-0.484497,-0.011169,-0.114899,-0.001621,-0.006548999999999999,0.004213000000000001,-55.869999,-18.68,-10.0,2a
2019-07-12_131958:440,-0.48553500000000005,-0.012695,-0.11538699999999999,-0.001529,-0.006488,0.004396,-57.0,-18.370001000000002,-10.37,2a
2019-07-12_131958:460,-0.48553500000000005,-0.013213999999999998,-0.112854,-0.0008269999999999999,-0.005817,0.004091,-57.0,-18.370001000000002,-10.37,2a
2019-07-12_131958:480,-0.488068,-0.011687999999999999,-0.113373,-0.000675,-0.0055119999999999995,0.0039689999999999994,-57.0,-18.370001000000002,-10.37,2a
2019-07-12_131958:500,-0.48754899999999995,-0.011169,-0.111328,-0.000339,-0.004108,0.003358,-56.68,-18.0,-9.18,2a
2019-07-12_131958:520,-0.48858599999999996,-0.007599,-0.110321,-0.000339,-0.0038640000000000002,0.003297,-56.68,-18.0,-9.18,2a
2019-07-12_131958:540,-0.48706099999999997,-0.008636,-0.10775799999999999,-0.0008269999999999999,-0.003986,0.003694,-57.0,-18.68,-9.18,2a
2019-07-12_131958:560,-0.489075,-0.011169,-0.104706,-0.000553,-0.003711,0.004457,-57.0,-18.68,-9.18,2a
2019-07-12_131958:580,-0.489594,-0.011687999999999999,-0.107269,-0.000278,-0.00365,0.004152,-56.25,-18.370001000000002,-9.56,2a
2019-07-12_131958:600,-0.486023,-0.011169,-0.104706,-0.000217,-0.0031309999999999997,0.003511,-56.25,-18.370001000000002,-9.56,2a
2019-07-12_131958:620,-0.484497,-0.010651,-0.103699,5.7999999999999994e-05,-0.002643,0.002839,-56.25,-18.370001000000002,-9.56,2a
2019-07-12_131958:640,-0.48300200000000004,-0.007599,-0.104218,0.00018,-0.002582,0.00229,-56.68,-19.059998999999998,-10.0,2a
2019-07-12_131958:660,-0.48349,-0.0055850000000000006,-0.102692,-0.000675,-0.0030399999999999997,0.001497,-56.68,-19.059998999999998,-10.0,2a
2019-07-12_131958:680,-0.486023,-0.0030210000000000002,-0.102692,-0.000889,-0.002979,0.001924,-56.68,-19.059998999999998,-10.0,2a
2019-07-12_131958:700,-0.48706099999999997,-0.004059,-0.102692,-0.001529,-0.002857,0.0019850000000000002,-55.869999,-18.68,-10.0,2a
2019-07-12_131958:720,-0.486023,-0.0035399999999999997,-0.10116599999999999,-0.001957,-0.002918,0.001588,-55.869999,-18.68,-10.0,2a
2019-07-12_131958:740,-0.485016,0.0,-0.100647,-0.002414,-0.0030399999999999997,0.001375,-56.68,-18.370001000000002,-11.18,2a
2019-07-12_131958:760,-0.482483,0.001495,-0.099121,-0.002933,-0.003375,0.0017100000000000001,-56.68,-18.370001000000002,-11.18,2a
2019-07-12_131958:780,-0.484497,0.001495,-0.099121,-0.003788,-0.003711,0.002046,-56.68,-18.370001000000002,-11.18,2a
2019-07-12_131958:800,-0.48654200000000003,0.002014,-0.100159,-0.0042450000000000005,-0.0045049999999999995,0.0025039999999999997,-56.25,-19.059998999999998,-9.56,2a
2019-07-12_131958:820,-0.48553500000000005,0.002014,-0.100647,-0.004703,-0.004718,0.003023,-56.25,-19.059998999999998,-9.56,2a
2019-07-12_131958:840,-0.485016,0.004059,-0.099121,-0.004978,-0.004779,0.0032359999999999997,-55.869999,-19.059998999999998,-10.0,2a
2019-07-12_131958:860,-0.48300200000000004,0.002014,-0.099121,-0.005375,-0.005359,0.00345,-55.869999,-19.059998999999998,-10.0,2a
2019-07-12_131958:880,-0.482483,0.0030210000000000002,-0.10116599999999999,-0.005771,-0.0060609999999999995,0.004091,-55.869999,-19.059998999999998,-10.0,2a
2019-07-12_131958:900,-0.485016,0.001007,-0.102692,-0.006351,-0.006885,0.004518,-57.0,-19.5,-9.56,2a
2019-07-12_131958:920,-0.48706099999999997,-0.001007,-0.101685,-0.006626000000000001,-0.007129000000000001,0.005128,-57.0,-19.5,-9.56,2a
2019-07-12_131958:940,-0.488068,-0.005065999999999999,-0.102173,-0.0064730000000000005,-0.007220999999999999,0.005861,-56.68,-18.68,-10.37,2a
2019-07-12_131958:960,-0.48553500000000005,-0.006072999999999999,-0.101685,-0.00629,-0.007281999999999999,0.006196,-56.68,-18.68,-10.37,2a
2019-07-12_131958:980,-0.48706099999999997,-0.005065999999999999,-0.10318,-0.005893,-0.007006999999999999,0.006654,-56.68,-18.68,-10.37,2a
2019-07-12_131959:000,-0.48553500000000005,-0.0035399999999999997,-0.10318,-0.005893,-0.006885,0.006318,-56.25,-18.0,-10.37,2a
2019-07-12_131959:020,-0.48349,-0.0055850000000000006,-0.103699,-0.0064730000000000005,-0.006854000000000001,0.006470999999999999,-56.25,-18.0,-10.37,2a
2019-07-12_131959:040,-0.48349,-0.006592,-0.105225,-0.006687,-0.0076170000000000005,0.0069900000000000006,-56.68,-18.0,-8.75,2a
2019-07-12_131959:060,-0.486023,-0.009125,-0.106232,-0.00687,-0.008197,0.007265000000000001,-56.68,-18.0,-8.75,2a
2019-07-12_131959:080,-0.491638,-0.012695,-0.110321,-0.00687,-0.008136,0.007509,-56.68,-18.0,-8.75,2a
2019-07-12_131959:100,-0.490112,-0.014740000000000001,-0.110321,-0.006687,-0.007801000000000001,0.007203,-56.68,-19.059998999999998,-8.75,2a
2019-07-12_131959:120,-0.48858599999999996,-0.015747,-0.110321,-0.0060149999999999995,-0.007006999999999999,0.006532,-56.68,-19.059998999999998,-8.75,2a
2019-07-12_131959:140,-0.48754899999999995,-0.016753999999999998,-0.110321,-0.005436,-0.006336,0.0058,-57.0,-18.68,-9.56,2a
2019-07-12_131959:160,-0.486023,-0.016266,-0.108276,-0.004612,-0.0060609999999999995,0.005403,-57.0,-18.68,-9.56,2a
2019-07-12_131959:180,-0.48300200000000004,-0.015228,-0.108795,-0.004337,-0.006,0.004793,-57.0,-18.68,-9.56,2a
2019-07-12_131959:200,-0.481476,-0.013213999999999998,-0.10928299999999999,-0.003879,-0.006275,0.004152,-57.0,-18.370001000000002,-9.56,2a
2019-07-12_131959:220,-0.48300200000000004,-0.012177,-0.10775799999999999,-0.003544,-0.006731999999999999,0.004274,-57.0,-18.370001000000002,-9.56,2a
2019-07-12_131959:240,-0.48654200000000003,-0.011169,-0.108276,-0.0036659999999999996,-0.006854000000000001,0.004518,-57.75,-18.0,-9.56,2a
2019-07-12_131959:260,-0.490112,-0.009644,-0.10775799999999999,-0.003879,-0.006945999999999999,0.004213000000000001,-57.75,-18.0,-9.56,2a
2019-07-12_131959:280,-0.492126,-0.009644,-0.107269,-0.0042450000000000005,-0.006731999999999999,0.004396,-57.75,-18.0,-9.56,2a
2019-07-12_131959:300,-0.49111899999999997,-0.009125,-0.108795,-0.004642,-0.006214,0.00403,-57.75,-18.370001000000002,-10.37,2a
2019-07-12_131959:320,-0.486023,-0.008118,-0.106232,-0.005436,-0.005451,0.003572,-57.75,-18.370001000000002,-10.37,2a
2019-07-12_131959:340,-0.48654200000000003,-0.008636,-0.10775799999999999,-0.005771,-0.005298,0.003114,-57.369999,-18.370001000000002,-11.56,2a
2019-07-12_131959:360,-0.48095699999999997,-0.010651,-0.105743,-0.005771,-0.005359,0.002443,-57.369999,-18.370001000000002,-11.56,2a
2019-07-12_131959:380,-0.482483,-0.007599,-0.10775799999999999,-0.005619,-0.0060609999999999995,0.0017100000000000001,-57.369999,-18.370001000000002,-11.56,2a
2019-07-12_131959:400,-0.482483,-0.004547,-0.108795,-0.005436,-0.006885,0.0017100000000000001,-57.369999,-18.68,-10.0,2a
2019-07-12_131959:420,-0.484009,-0.004059,-0.10775799999999999,-0.005436,-0.00719,0.002321,-57.369999,-18.68,-10.0,2a
2019-07-12_131959:440,-0.486023,-0.0035399999999999997,-0.10775799999999999,-0.005679999999999999,-0.006945999999999999,0.003053,-56.68,-18.68,-11.56,2a
2019-07-12_131959:460,-0.48654200000000003,-0.0035399999999999997,-0.107269,-0.005619,-0.006670999999999999,0.003358,-56.68,-18.68,-11.56,2a
2019-07-12_131959:480,-0.486023,-0.004059,-0.108276,-0.005771,-0.006548999999999999,0.00345,-56.68,-18.68,-11.56,2a
2019-07-12_131959:500,-0.48654200000000003,-0.006592,-0.109802,-0.005679999999999999,-0.006275,0.0039689999999999994,-56.25,-19.059998999999998,-10.37,2a
2019-07-12_131959:520,-0.48858599999999996,-0.009125,-0.10928299999999999,-0.0051,-0.006336,0.00403,-56.25,-19.059998999999998,-10.37,2a
2019-07-12_131959:540,-0.48654200000000003,-0.009125,-0.11080899999999999,-0.004398,-0.006092,0.004182,-57.0,-18.370001000000002,-10.37,2a
2019-07-12_131959:560,-0.484497,-0.008636,-0.108276,-0.0036049999999999997,-0.0061530000000000005,0.004457,-57.0,-18.370001000000002,-10.37,2a
2019-07-12_131959:580,-0.48300200000000004,-0.006592,-0.110321,-0.002872,-0.006275,0.004609,-57.0,-18.370001000000002,-10.37,2a
2019-07-12_131959:600,-0.484497,-0.0035399999999999997,-0.108795,-0.0027199999999999998,-0.006945999999999999,0.004609,-56.25,-18.68,-10.37,2a
2019-07-12_131959:620,-0.484009,-0.004547,-0.109802,-0.003055,-0.007220999999999999,0.005006,-56.25,-18.68,-10.37,2a
2019-07-12_131959:640,-0.484497,-0.004059,-0.110321,-0.003452,-0.00719,0.004335,-56.68,-18.68,-10.0,2a
2019-07-12_131959:660,-0.485016,-0.001007,-0.111847,-0.004275999999999999,-0.00719,0.0034189999999999997,-56.68,-18.68,-10.0,2a
2019-07-12_131959:680,-0.484497,-0.0030210000000000002,-0.112854,-0.004764,-0.007404000000000001,0.004915,-56.68,-18.68,-10.0,2a
2019-07-12_131959:700,-0.484497,-0.006072999999999999,-0.113373,-0.004886,-0.007526000000000001,0.005647,-56.68,-18.370001000000002,-9.18,2a
2019-07-12_131959:720,-0.484009,-0.006592,-0.112854,-0.0052829999999999995,-0.00719,0.004854,-56.68,-18.370001000000002,-9.18,2a
2019-07-12_131959:740,-0.485016,-0.005065999999999999,-0.113373,-0.005558,-0.0070680000000000005,0.004945000000000001,-56.25,-18.0,-10.0,2a
2019-07-12_131959:760,-0.48654200000000003,-0.009125,-0.113373,-0.005436,-0.0070680000000000005,0.005311,-56.25,-18.0,-10.0,2a
2019-07-12_131959:780,-0.48654200000000003,-0.009644,-0.11538699999999999,-0.005619,-0.006945999999999999,0.004609,-56.25,-18.0,-10.0,2a
2019-07-12_131959:800,-0.48706099999999997,-0.010162000000000001,-0.115906,-0.0052829999999999995,-0.006670999999999999,0.004213000000000001,-56.25,-18.370001000000002,-11.18,2a
2019-07-12_131959:820,-0.485016,-0.009644,-0.11538699999999999,-0.004703,-0.006548999999999999,0.004548,-56.25,-18.370001000000002,-11.18,2a
2019-07-12_131959:840,-0.48654200000000003,-0.009644,-0.115906,-0.004275999999999999,-0.0061530000000000005,0.004518,-56.68,-18.68,-10.37,2a
2019-07-12_131959:860,-0.48553500000000005,-0.006592,-0.11386099999999999,-0.00394,-0.006275,0.004548,-56.68,-18.68,-10.37,2a
2019-07-12_131959:880,-0.48553500000000005,-0.006592,-0.115906,-0.00394,-0.0060609999999999995,0.004854,-56.68,-18.68,-10.37,2a
2019-07-12_131959:900,-0.484497,-0.006072999999999999,-0.11538699999999999,-0.004184,-0.005939,0.004854,-57.369999,-18.370001000000002,-9.18,2a
2019-07-12_131959:920,-0.48553500000000005,-0.004547,-0.115906,-0.004642,-0.005756,0.004732,-57.369999,-18.370001000000002,-9.18,2a
2019-07-12_131959:940,-0.485016,-0.006592,-0.116425,-0.004825,-0.005756,0.004854,-57.0,-18.370001000000002,-10.37,2a
2019-07-12_131959:960,-0.485016,-0.008118,-0.11538699999999999,-0.005222,-0.005573,0.00525,-57.0,-18.370001000000002,-10.37,2a
2019-07-12_131959:980,-0.485016,-0.011687999999999999,-0.114899,-0.005375,-0.005359,0.005403,-57.0,-18.370001000000002,-10.37,2a
2019-07-12_132000:000,-0.486023,-0.011169,-0.115906,-0.005222,-0.005115,0.00525,-57.0,-18.370001000000002,-10.0,2a
2019-07-12_132000:020,-0.48553500000000005,-0.012177,-0.11386099999999999,-0.005039,-0.004993,0.004793,-57.0,-18.370001000000002,-10.0,2a
2019-07-12_132000:040,-0.485016,-0.010651,-0.11538699999999999,-0.004703,-0.004993,0.004548,-56.25,-17.559998999999998,-11.56,2a
2019-07-12_132000:060,-0.486023,-0.011687999999999999,-0.11233499999999999,-0.004764,-0.00484,0.004457,-56.25,-17.559998999999998,-11.56,2a
2019-07-12_132000:080,-0.48553500000000005,-0.010651,-0.11386099999999999,-0.004612,-0.004779,0.0039689999999999994,-56.25,-17.559998999999998,-11.56,2a
2019-07-12_132000:100,-0.482483,-0.012177,-0.112854,-0.004886,-0.004566,0.0038159999999999995,-57.0,-18.0,-10.0,2a
2019-07-12_132000:120,-0.481476,-0.010651,-0.112854,-0.004520000000000001,-0.004444,0.0038159999999999995,-57.0,-18.0,-10.0,2a
2019-07-12_132000:140,-0.484009,-0.010651,-0.112854,-0.004612,-0.004901,0.003633,-57.369999,-18.370001000000002,-9.56,2a
2019-07-12_132000:160,-0.484009,-0.009125,-0.11233499999999999,-0.004581,-0.0052369999999999995,0.0034189999999999997,-57.369999,-18.370001000000002,-9.56,2a
2019-07-12_132000:180,-0.48858599999999996,-0.010162000000000001,-0.112854,-0.004337,-0.00539,0.003511,-57.369999,-18.370001000000002,-9.56,2a
2019-07-12_132000:200,-0.486023,-0.008636,-0.10928299999999999,-0.004275999999999999,-0.004718,0.0034189999999999997,-57.0,-18.68,-9.56,2a
2019-07-12_132000:220,-0.48754899999999995,-0.009125,-0.11080899999999999,-0.004001,-0.004779,0.00403,-57.0,-18.68,-9.56,2a
2019-07-12_132000:240,-0.48300200000000004,-0.007599,-0.110321,-0.004062,-0.004718,0.00403,-57.369999,-18.370001000000002,-9.56,2a
2019-07-12_132000:260,-0.47995,-0.008118,-0.109802,-0.004123,-0.004901,0.0037549999999999997,-57.369999,-18.370001000000002,-9.56,2a
2019-07-12_132000:280,-0.48196400000000006,-0.006592,-0.11386099999999999,-0.004001,-0.005817,0.003114,-57.369999,-18.370001000000002,-9.56,2a
2019-07-12_132000:300,-0.48300200000000004,-0.0055850000000000006,-0.11233499999999999,-0.004001,-0.0066099999999999996,0.003114,-57.0,-19.059998999999998,-10.75,2a
2019-07-12_132000:320,-0.485016,-0.006592,-0.113373,-0.004001,-0.006793,0.004091,-57.0,-19.059998999999998,-10.75,2a
2019-07-12_132000:340,-0.48754899999999995,-0.008118,-0.11438,-0.004001,-0.0061530000000000005,0.0037549999999999997,-56.25,-18.68,-11.18,2a
2019-07-12_132000:360,-0.48553500000000005,-0.008636,-0.11233499999999999,-0.004001,-0.005695,0.002687,-56.25,-18.68,-11.18,2a
2019-07-12_132000:380,-0.48706099999999997,-0.007599,-0.113373,-0.00394,-0.005176,0.002687,-56.25,-18.68,-11.18,2a
2019-07-12_132000:400,-0.486023,-0.007111,-0.113373,-0.0036659999999999996,-0.004901,0.002778,-56.25,-19.059998999999998,-10.0,2a
2019-07-12_132000:420,-0.485016,-0.005065999999999999,-0.111847,-0.0037270000000000003,-0.004779,0.002778,-56.25,-19.059998999999998,-10.0,2a
2019-07-12_132000:440,-0.48553500000000005,-0.006592,-0.111328,-0.003849,-0.004596,0.0032359999999999997,-57.0,-18.370001000000002,-10.0,2a
2019-07-12_132000:460,-0.482483,-0.004547,-0.110321,-0.00394,-0.005054,0.003297,-57.0,-18.370001000000002,-10.0,2a
2019-07-12_132000:480,-0.484497,-0.0025329999999999997,-0.109802,-0.0042450000000000005,-0.005298,0.003053,-57.0,-18.370001000000002,-10.0,2a
2019-07-12_132000:500,-0.482483,-0.0055850000000000006,-0.108276,-0.004520000000000001,-0.0055119999999999995,0.0039689999999999994,-56.25,-19.059998999999998,-10.75,2a
2019-07-12_132000:520,-0.482483,-0.006592,-0.110321,-0.004825,-0.005939,0.0039689999999999994,-56.25,-19.059998999999998,-10.75,2a
2019-07-12_132000:540,-0.485016,-0.006592,-0.111847,-0.004520000000000001,-0.006092,0.002687,-56.68,-18.370001000000002,-10.37,2a
2019-07-12_132000:560,-0.484497,-0.0055850000000000006,-0.111847,-0.0042450000000000005,-0.006275,0.003358,-56.68,-18.370001000000002,-10.37,2a
2019-07-12_132000:580,-0.486023,-0.006592,-0.112854,-0.0036049999999999997,-0.006336,0.00403,-56.68,-18.370001000000002,-10.37,2a
2019-07-12_132000:600,-0.484497,-0.007111,-0.11386099999999999,-0.003788,-0.005939,0.003358,-57.0,-19.059998999999998,-10.0,2a
2019-07-12_132000:620,-0.484009,-0.005065999999999999,-0.113373,-0.003544,-0.006,0.003297,-57.0,-19.059998999999998,-10.0,2a
2019-07-12_132000:640,-0.48300200000000004,-0.0055850000000000006,-0.11438,-0.0036659999999999996,-0.006397,0.00345,-56.25,-19.059998999999998,-10.37,2a
2019-07-12_132000:660,-0.485016,-0.0035399999999999997,-0.113373,-0.003849,-0.006397,0.003175,-56.25,-19.059998999999998,-10.37,2a
2019-07-12_132000:680,-0.485016,-0.005065999999999999,-0.11386099999999999,-0.004062,-0.006092,0.003175,-56.25,-19.059998999999998,-10.37,2a
2019-07-12_132000:700,-0.48706099999999997,-0.0055850000000000006,-0.11538699999999999,-0.004184,-0.0060609999999999995,0.0029620000000000002,-55.5,-18.68,-11.18,2a
2019-07-12_132000:720,-0.48654200000000003,-0.004547,-0.11438,-0.004275999999999999,-0.005695,0.0026260000000000003,-55.5,-18.68,-11.18,2a
2019-07-12_132000:740,-0.48654200000000003,-0.004547,-0.11438,-0.004337,-0.005451,0.002839,-56.25,-18.68,-10.75,2a
2019-07-12_132000:760,-0.486023,-0.005065999999999999,-0.11386099999999999,-0.004123,-0.004718,0.003053,-56.25,-18.68,-10.75,2a
2019-07-12_132000:780,-0.484009,-0.005065999999999999,-0.11386099999999999,-0.00394,-0.004718,0.003053,-56.25,-18.68,-10.75,2a
2019-07-12_132000:800,-0.48349,-0.004059,-0.11386099999999999,-0.003879,-0.004993,0.003297,-56.25,-19.5,-9.56,2a
2019-07-12_132000:820,-0.48300200000000004,-0.004059,-0.11386099999999999,-0.003879,-0.005054,0.0032359999999999997,-56.25,-19.5,-9.56,2a
2019-07-12_132000:840,-0.485016,-0.0035399999999999997,-0.113373,-0.00394,-0.005054,0.003023,-56.25,-19.059998999999998,-10.75,2a
2019-07-12_132000:860,-0.48706099999999997,-0.001495,-0.11080899999999999,-0.003788,-0.0052369999999999995,0.0029,-56.25,-19.059998999999998,-10.75,2a
2019-07-12_132000:880,-0.48754899999999995,-0.0030210000000000002,-0.11080899999999999,-0.003849,-0.004993,0.002839,-56.25,-19.059998999999998,-10.75,2a
2019-07-12_132000:900,-0.488068,0.0,-0.11080899999999999,-0.0036659999999999996,-0.004901,0.0029620000000000002,-56.68,-18.0,-8.75,2a
2019-07-12_132000:920,-0.48706099999999997,0.0025329999999999997,-0.109802,-0.003544,-0.004566,0.003114,-56.68,-18.0,-8.75,2a
2019-07-12_132000:940,-0.484497,0.0035399999999999997,-0.111328,-0.004001,-0.004229999999999999,0.0034189999999999997,-56.25,-18.370001000000002,-10.75,2a
2019-07-12_132000:960,-0.482483,0.004547,-0.110321,-0.004184,-0.004229999999999999,0.003694,-56.25,-18.370001000000002,-10.75,2a
2019-07-12_132000:980,-0.484009,0.005065999999999999,-0.108795,-0.004581,-0.004657,0.0038469999999999997,-56.25,-18.370001000000002,-10.75,2a
2019-07-12_132001:000,-0.484497,0.006072999999999999,-0.10775799999999999,-0.004886,-0.005115,0.004732,-56.68,-19.870001000000002,-10.0,2a
2019-07-12_132001:020,-0.486023,0.004547,-0.10675,-0.0052829999999999995,-0.004993,0.005586,-56.68,-19.870001000000002,-10.0,2a
2019-07-12_132001:040,-0.48654200000000003,0.004059,-0.108276,-0.005832,-0.004779,0.006441,-56.25,-19.5,-10.37,2a
2019-07-12_132001:060,-0.489075,0.0,-0.10675,-0.005893,-0.004779,0.006837,-56.25,-19.5,-10.37,2a
2019-07-12_132001:080,-0.485016,0.0,-0.108276,-0.006229,-0.004596,0.006441,-56.25,-19.5,-10.37,2a
2019-07-12_132001:100,-0.48196400000000006,-0.001007,-0.109802,-0.0061070000000000004,-0.005176,0.005922,-55.869999,-19.059998999999998,-10.0,2a
2019-07-12_132001:120,-0.482483,-0.001007,-0.11080899999999999,-0.0061070000000000004,-0.006,0.005983,-55.869999,-19.059998999999998,-10.0,2a
2019-07-12_132001:140,-0.482483,-0.001495,-0.111328,-0.006076,-0.006670999999999999,0.007051000000000001,-55.869999,-18.0,-10.37,2a
2019-07-12_132001:160,-0.48553500000000005,-0.006072999999999999,-0.113373,-0.005954,-0.006885,0.007997,-55.869999,-18.0,-10.37,2a
2019-07-12_132001:180,-0.48654200000000003,-0.0055850000000000006,-0.112854,-0.005741,-0.006458,0.007387,-55.869999,-18.0,-10.37,2a
2019-07-12_132001:200,-0.48754899999999995,-0.006072999999999999,-0.113373,-0.005893,-0.006092,0.006654,-57.0,-18.68,-10.0,2a
2019-07-12_132001:220,-0.488068,-0.008636,-0.11538699999999999,-0.005832,-0.005634,0.0069900000000000006,-57.0,-18.68,-10.0,2a
2019-07-12_132001:240,-0.489075,-0.011169,-0.11691300000000002,-0.005893,-0.005176,0.006837,-57.0,-19.059998999999998,-10.37,2a
2019-07-12_132001:260,-0.490112,-0.010651,-0.11386099999999999,-0.005954,-0.004566,0.006654,-57.0,-19.059998999999998,-10.37,2a
2019-07-12_132001:280,-0.48858599999999996,-0.013213999999999998,-0.11438,-0.005558,-0.003986,0.006776000000000001,-57.0,-19.059998999999998,-10.37,2a
2019-07-12_132001:300,-0.489594,-0.013702,-0.11233499999999999,-0.0052829999999999995,-0.0035280000000000003,0.006379,-57.0,-18.68,-10.0,2a
2019-07-12_132001:320,-0.48754899999999995,-0.014740000000000001,-0.110321,-0.005222,-0.0031309999999999997,0.006044,-57.0,-18.68,-10.0,2a
2019-07-12_132001:340,-0.482483,-0.013702,-0.11080899999999999,-0.004947,-0.002796,0.006074,-57.0,-18.0,-9.56,2a
2019-07-12_132001:360,-0.482483,-0.017273,-0.10775799999999999,-0.004825,-0.0032530000000000002,0.005647,-57.0,-18.0,-9.56,2a
2019-07-12_132001:380,-0.48349,-0.014740000000000001,-0.109802,-0.004581,-0.003436,0.004335,-57.0,-18.0,-9.56,2a
2019-07-12_132001:400,-0.48300200000000004,-0.013213999999999998,-0.10675,-0.004275999999999999,-0.0038640000000000002,0.003511,-56.25,-18.0,-9.56,2a
2019-07-12_132001:420,-0.485016,-0.012177,-0.105225,-0.004275999999999999,-0.003925,0.0032359999999999997,-56.25,-18.0,-9.56,2a
2019-07-12_132001:440,-0.48553500000000005,-0.009644,-0.10675,-0.004398,-0.003833,0.0027170000000000002,-57.0,-18.0,-10.37,2a
2019-07-12_132001:460,-0.48706099999999997,-0.004547,-0.104218,-0.004398,-0.003833,0.002168,-57.0,-18.0,-10.37,2a
2019-07-12_132001:480,-0.484009,-0.000488,-0.104706,-0.004947,-0.0037719999999999997,0.001588,-57.0,-18.0,-10.37,2a
2019-07-12_132001:500,-0.48043800000000003,0.0025329999999999997,-0.106232,-0.005893,-0.004321,0.000978,-56.68,-17.18,-9.18,2a
2019-07-12_132001:520,-0.481476,0.009644,-0.104706,-0.007145,-0.005054,-0.000212,-56.68,-17.18,-9.18,2a
2019-07-12_132001:540,-0.484009,0.011687999999999999,-0.104706,-0.008762,-0.005359,-0.000365,-56.68,-19.059998999999998,-10.0,2a
2019-07-12_132001:560,-0.489594,0.010162000000000001,-0.104218,-0.010593,-0.005756,0.000795,-56.68,-19.059998999999998,-10.0,2a
2019-07-12_132001:580,-0.490601,0.006592,-0.10318,-0.011783,-0.005756,0.002778,-56.68,-19.059998999999998,-10.0,2a
2019-07-12_132001:600,-0.492645,-0.001007,-0.10318,-0.01218,-0.005634,0.004732,-57.0,-18.68,-9.56,2a
2019-07-12_132001:620,-0.490601,-0.007111,-0.102692,-0.0116,-0.00539,0.005922,-57.0,-18.68,-9.56,2a
2019-07-12_132001:640,-0.48858599999999996,-0.012695,-0.10318,-0.010013,-0.004961999999999999,0.006593000000000001,-57.0,-18.370001000000002,-10.0,2a
2019-07-12_132001:660,-0.48349,-0.014740000000000001,-0.10116599999999999,-0.007937999999999999,-0.00484,0.006837,-57.0,-18.370001000000002,-10.0,2a
2019-07-12_132001:680,-0.48196400000000006,-0.014740000000000001,-0.103699,-0.005619,-0.005054,0.006837,-57.0,-18.370001000000002,-10.0,2a
2019-07-12_132001:700,-0.47943100000000005,-0.015228,-0.104706,-0.003208,-0.005695,0.006929,-57.0,-19.059998999999998,-8.75,2a
2019-07-12_132001:720,-0.48095699999999997,-0.011169,-0.104706,-0.00159,-0.006548999999999999,0.006776000000000001,-57.0,-19.059998999999998,-8.75,2a
2019-07-12_132001:740,-0.484009,-0.010651,-0.10675,-0.000614,-0.007404000000000001,0.006470999999999999,-56.25,-18.68,-9.56,2a
2019-07-12_132001:760,-0.48858599999999996,-0.008636,-0.104706,-0.000339,-0.007587000000000001,0.006318,-56.25,-18.68,-9.56,2a
2019-07-12_132001:780,-0.489594,-0.006592,-0.107269,-0.0004,-0.007129000000000001,0.006135,-56.25,-18.68,-9.56,2a
2019-07-12_132001:800,-0.48654200000000003,-0.006592,-0.107269,-0.001285,-0.007006999999999999,0.005739,-57.0,-18.0,-8.75,2a
2019-07-12_132001:820,-0.48654200000000003,-0.006592,-0.107269,-0.001743,-0.006670999999999999,0.005678,-57.0,-18.0,-8.75,2a
2019-07-12_132001:840,-0.486023,-0.0055850000000000006,-0.108276,-0.002536,-0.006488,0.005525,-56.68,-18.68,-9.56,2a
2019-07-12_132001:860,-0.485016,-0.006072999999999999,-0.10675,-0.0033909999999999995,-0.006548999999999999,0.004945000000000001,-56.68,-18.68,-9.56,2a
2019-07-12_132001:880,-0.485016,-0.008118,-0.10928299999999999,-0.004184,-0.006488,0.004793,-56.68,-18.68,-9.56,2a
2019-07-12_132001:900,-0.48654200000000003,-0.009125,-0.110321,-0.004886,-0.0066099999999999996,0.004732,-55.869999,-18.0,-9.18,2a
2019-07-12_132001:920,-0.48754899999999995,-0.011169,-0.10928299999999999,-0.0051,-0.006854000000000001,0.004609,-55.869999,-18.0,-9.18,2a
2019-07-12_132001:940,-0.489594,-0.013702,-0.110321,-0.004764,-0.006458,0.004609,-57.0,-18.0,-10.0,2a
2019-07-12_132001:960,-0.48754899999999995,-0.014740000000000001,-0.108795,-0.004520000000000001,-0.006092,0.004457,-57.0,-18.0,-10.0,2a
2019-07-12_132001:980,-0.48706099999999997,-0.013213999999999998,-0.111847,-0.0042450000000000005,-0.005634,0.003908,-57.0,-18.0,-10.0,2a
2019-07-12_132002:000,-0.484497,-0.012695,-0.110321,-0.003849,-0.00539,0.0032359999999999997,-57.0,-17.559998999999998,-10.0,2a
2019-07-12_132002:020,-0.48553500000000005,-0.012177,-0.110321,-0.0032689999999999998,-0.005359,0.0027170000000000002,-57.0,-17.559998999999998,-10.0,2a
2019-07-12_132002:040,-0.48553500000000005,-0.009125,-0.11080899999999999,-0.0027199999999999998,-0.005634,0.002107,-55.869999,-18.370001000000002,-8.75,2a
2019-07-12_132002:060,-0.482483,-0.008118,-0.110321,-0.002475,-0.005878,0.002229,-55.869999,-18.370001000000002,-8.75,2a
2019-07-12_132002:080,-0.485016,-0.007599,-0.110321,-0.002323,-0.005939,0.003358,-55.869999,-18.370001000000002,-8.75,2a
2019-07-12_132002:100,-0.486023,-0.008118,-0.110321,-0.002353,-0.006,0.003572,-56.25,-18.370001000000002,-9.18,2a
2019-07-12_132002:120,-0.48858599999999996,-0.0055850000000000006,-0.10928299999999999,-0.002323,-0.005451,0.0029620000000000002,-56.25,-18.370001000000002,-9.18,2a
2019-07-12_132002:140,-0.48858599999999996,-0.0055850000000000006,-0.10928299999999999,-0.002597,-0.005054,0.003023,-56.68,-18.370001000000002,-9.18,2a
2019-07-12_132002:160,-0.489594,-0.005065999999999999,-0.10775799999999999,-0.00275,-0.004657,0.0029620000000000002,-56.68,-18.370001000000002,-9.18,2a
2019-07-12_132002:180,-0.48858599999999996,-0.004059,-0.10928299999999999,-0.003208,-0.004229999999999999,0.002687,-56.68,-18.370001000000002,-9.18,2a
2019-07-12_132002:200,-0.485016,-0.004059,-0.10775799999999999,-0.003452,-0.004169,0.0029620000000000002,-57.369999,-18.68,-10.0,2a
2019-07-12_132002:220,-0.48553500000000005,-0.0035399999999999997,-0.10675,-0.003788,-0.004383,0.002839,-57.369999,-18.68,-10.0,2a
2019-07-12_132002:240,-0.484009,-0.0025329999999999997,-0.105225,-0.004062,-0.004657,0.002778,-56.68,-18.370001000000002,-10.0,2a
2019-07-12_132002:260,-0.485016,-0.0030210000000000002,-0.106232,-0.004062,-0.004779,0.003358,-56.68,-18.370001000000002,-10.0,2a
2019-07-12_132002:280,-0.484497,-0.005065999999999999,-0.10675,-0.0042450000000000005,-0.004993,0.003572,-56.68,-18.370001000000002,-10.0,2a
2019-07-12_132002:300,-0.48553500000000005,-0.005065999999999999,-0.10675,-0.004062,-0.004993,0.003114,-55.869999,-18.370001000000002,-8.75,2a
2019-07-12_132002:320,-0.485016,-0.004059,-0.107269,-0.003849,-0.005298,0.003175,-55.869999,-18.370001000000002,-8.75,2a
2019-07-12_132002:340,-0.48553500000000005,-0.004547,-0.107269,-0.0036659999999999996,-0.00539,0.004091,-56.68,-18.370001000000002,-10.0,2a
2019-07-12_132002:360,-0.48553500000000005,-0.0055850000000000006,-0.106232,-0.0033909999999999995,-0.0052369999999999995,0.004396,-56.68,-18.370001000000002,-10.0,2a
2019-07-12_132002:380,-0.48553500000000005,-0.0055850000000000006,-0.107269,-0.003452,-0.005634,0.004213000000000001,-56.68,-18.370001000000002,-10.0,2a
2019-07-12_132002:400,-0.488068,-0.007599,-0.10928299999999999,-0.003452,-0.005451,0.004274,-57.0,-18.68,-10.37,2a
2019-07-12_132002:420,-0.489594,-0.007599,-0.108276,-0.0033299999999999996,-0.0052369999999999995,0.004091,-57.0,-18.68,-10.37,2a
2019-07-12_132002:440,-0.48754899999999995,-0.0055850000000000006,-0.108276,-0.002994,-0.004566,0.0032359999999999997,-57.75,-18.68,-9.56,2a
2019-07-12_132002:460,-0.488068,-0.0025329999999999997,-0.10775799999999999,-0.003116,-0.004321,0.0029,-57.75,-18.68,-9.56,2a
2019-07-12_132002:480,-0.48553500000000005,-0.0035399999999999997,-0.10675,-0.003147,-0.004108,0.0032359999999999997,-57.75,-18.68,-9.56,2a
2019-07-12_132002:500,-0.48654200000000003,-0.002014,-0.107269,-0.003483,-0.004383,0.003358,-55.869999,-18.68,-8.75,2a
2019-07-12_132002:520,-0.48706099999999997,-0.0025329999999999997,-0.104706,-0.003879,-0.00426,0.003511,-55.869999,-18.68,-8.75,2a
2019-07-12_132002:540,-0.48754899999999995,-0.001495,-0.105743,-0.004001,-0.004229999999999999,0.003511,-56.68,-18.370001000000002,-9.18,2a
2019-07-12_132002:560,-0.488068,-0.001007,-0.10318,-0.0042450000000000005,-0.004047,0.003633,-56.68,-18.370001000000002,-9.18,2a
2019-07-12_132002:580,-0.486023,0.001007,-0.103699,-0.004459,-0.003833,0.003633,-56.68,-18.370001000000002,-9.18,2a
2019-07-12_132002:600,-0.486023,0.000488,-0.10318,-0.004764,-0.0037719999999999997,0.003908,-56.68,-19.059998999999998,-9.18,2a
2019-07-12_132002:620,-0.486023,0.000488,-0.101685,-0.005222,-0.003986,0.004274,-56.68,-19.059998999999998,-9.18,2a
2019-07-12_132002:640,-0.486023,0.000488,-0.10116599999999999,-0.005619,-0.00426,0.004518,-57.0,-18.370001000000002,-8.75,2a
2019-07-12_132002:660,-0.48654200000000003,0.0,-0.099121,-0.006229,-0.004444,0.004793,-57.0,-18.370001000000002,-8.75,2a
2019-07-12_132002:680,-0.48654200000000003,-0.001007,-0.100647,-0.006351,-0.004718,0.005128,-57.0,-18.370001000000002,-8.75,2a
2019-07-12_132002:700,-0.484009,-0.0035399999999999997,-0.099121,-0.00629,-0.004596,0.005342,-55.869999,-19.059998999999998,-8.75,2a
2019-07-12_132002:720,-0.484497,-0.0035399999999999997,-0.100159,-0.006229,-0.0052369999999999995,0.005525,-55.869999,-19.059998999999998,-8.75,2a
2019-07-12_132002:740,-0.484497,-0.006072999999999999,-0.100647,-0.005954,-0.005634,0.0058,-56.25,-19.870001000000002,-8.75,2a
2019-07-12_132002:760,-0.48553500000000005,-0.0055850000000000006,-0.099121,-0.005436,-0.005878,0.006196,-56.25,-19.870001000000002,-8.75,2a
2019-07-12_132002:780,-0.485016,-0.007599,-0.101685,-0.005161,-0.006275,0.006318,-56.25,-19.870001000000002,-8.75,2a
2019-07-12_132002:800,-0.48553500000000005,-0.006072999999999999,-0.100647,-0.004764,-0.0066099999999999996,0.006135,-56.25,-18.68,-8.37,2a
2019-07-12_132002:820,-0.48553500000000005,-0.006592,-0.10318,-0.004581,-0.006885,0.005739,-56.25,-18.68,-8.37,2a
2019-07-12_132002:840,-0.48553500000000005,-0.006072999999999999,-0.103699,-0.004398,-0.0070680000000000005,0.005922,-56.68,-18.370001000000002,-8.75,2a
2019-07-12_132002:860,-0.488068,-0.007599,-0.10318,-0.004459,-0.007220999999999999,0.006074,-56.68,-18.370001000000002,-8.75,2a
2019-07-12_132002:880,-0.48754899999999995,-0.008118,-0.105225,-0.004459,-0.007281999999999999,0.005922,-56.68,-18.370001000000002,-8.75,2a
2019-07-12_132002:900,-0.48858599999999996,-0.008636,-0.104706,-0.004459,-0.00719,0.0058,-57.0,-18.370001000000002,-10.0,2a
2019-07-12_132002:920,-0.488068,-0.008636,-0.104218,-0.004612,-0.006731999999999999,0.0058,-57.0,-18.370001000000002,-10.0,2a
2019-07-12_132002:940,-0.486023,-0.007111,-0.104706,-0.004764,-0.006488,0.0058,-56.68,-18.0,-9.56,2a
2019-07-12_132002:960,-0.48754899999999995,-0.009125,-0.103699,-0.005161,-0.006458,0.005525,-56.68,-18.0,-9.56,2a
2019-07-12_132002:980,-0.48553500000000005,-0.010162000000000001,-0.107269,-0.005771,-0.006336,0.005311,-56.68,-18.0,-9.56,2a
2019-07-12_132003:000,-0.486023,-0.011687999999999999,-0.10775799999999999,-0.005558,-0.006793,0.004915,-56.25,-18.68,-9.56,2a
2019-07-12_132003:020,-0.484497,-0.009125,-0.107269,-0.005893,-0.006670999999999999,0.004335,-56.25,-18.68,-9.56,2a
2019-07-12_132003:040,-0.485016,-0.010162000000000001,-0.109802,-0.005558,-0.007281999999999999,0.005067,-56.25,-18.68,-10.0,2a
2019-07-12_132003:060,-0.484497,-0.012177,-0.10775799999999999,-0.005436,-0.006945999999999999,0.0058,-56.25,-18.68,-10.0,2a
2019-07-12_132003:080,-0.488068,-0.011169,-0.10928299999999999,-0.005344,-0.006945999999999999,0.004945000000000001,-56.25,-18.68,-10.0,2a
2019-07-12_132003:100,-0.489075,-0.010162000000000001,-0.108795,-0.005222,-0.006275,0.004457,-57.369999,-18.0,-10.37,2a
2019-07-12_132003:120,-0.489594,-0.012177,-0.107269,-0.004978,-0.0055119999999999995,0.004548,-57.369999,-18.0,-10.37,2a
2019-07-12_132003:140,-0.490112,-0.011169,-0.108276,-0.004886,-0.004961999999999999,0.004274,-57.75,-18.0,-11.18,2a
2019-07-12_132003:160,-0.48754899999999995,-0.010651,-0.106232,-0.004642,-0.004657,0.004274,-57.75,-18.0,-11.18,2a
2019-07-12_132003:180,-0.485016,-0.012177,-0.10675,-0.004459,-0.004779,0.004548,-57.75,-18.0,-11.18,2a
2019-07-12_132003:200,-0.484009,-0.010651,-0.10675,-0.004184,-0.005176,0.004091,-56.25,-18.370001000000002,-10.37,2a
2019-07-12_132003:220,-0.485016,-0.009125,-0.105743,-0.0042450000000000005,-0.005725,0.00403,-56.25,-18.370001000000002,-10.37,2a
2019-07-12_132003:240,-0.485016,-0.010162000000000001,-0.104706,-0.004275999999999999,-0.005756,0.004548,-57.369999,-18.0,-10.37,2a
2019-07-12_132003:260,-0.485016,-0.012177,-0.105743,-0.004184,-0.005756,0.0038469999999999997,-57.369999,-18.0,-10.37,2a
2019-07-12_132003:280,-0.48553500000000005,-0.009644,-0.108276,-0.004520000000000001,-0.005939,0.0025039999999999997,-57.369999,-18.0,-10.37,2a
2019-07-12_132003:300,-0.48706099999999997,-0.009125,-0.106232,-0.004337,-0.0061530000000000005,0.003175,-57.0,-18.0,-11.18,2a
2019-07-12_132003:320,-0.48754899999999995,-0.011169,-0.10928299999999999,-0.004337,-0.006,0.0039689999999999994,-57.0,-18.0,-11.18,2a
2019-07-12_132003:340,-0.48706099999999997,-0.008636,-0.107269,-0.004001,-0.005695,0.003358,-56.68,-18.68,-9.56,2a
2019-07-12_132003:360,-0.486023,-0.008118,-0.105743,-0.004001,-0.005695,0.0029,-56.68,-18.68,-9.56,2a
2019-07-12_132003:380,-0.484497,-0.007599,-0.10775799999999999,-0.003879,-0.005634,0.003175,-56.68,-18.68,-9.56,2a
2019-07-12_132003:400,-0.48553500000000005,-0.006592,-0.10775799999999999,-0.004001,-0.005725,0.003114,-57.0,-18.370001000000002,-10.0,2a
2019-07-12_132003:420,-0.48754899999999995,-0.006072999999999999,-0.107269,-0.004001,-0.005634,0.002839,-57.0,-18.370001000000002,-10.0,2a
2019-07-12_132003:440,-0.486023,-0.006592,-0.105743,-0.00394,-0.005573,0.0032359999999999997,-55.869999,-18.68,-10.37,2a
2019-07-12_132003:460,-0.48706099999999997,-0.0055850000000000006,-0.105225,-0.003849,-0.005634,0.003358,-55.869999,-18.68,-10.37,2a
2019-07-12_132003:480,-0.486023,-0.004547,-0.105225,-0.003849,-0.005725,0.0034189999999999997,-55.869999,-18.68,-10.37,2a
2019-07-12_132003:500,-0.484009,-0.0055850000000000006,-0.10675,-0.003544,-0.005756,0.0037549999999999997,-56.25,-18.370001000000002,-10.37,2a
2019-07-12_132003:520,-0.482483,-0.005065999999999999,-0.104706,-0.0036049999999999997,-0.005817,0.0037549999999999997,-56.25,-18.370001000000002,-10.37,2a
2019-07-12_132003:540,-0.484497,-0.004059,-0.105225,-0.0037270000000000003,-0.006092,0.0039689999999999994,-56.68,-18.370001000000002,-10.0,2a
2019-07-12_132003:560,-0.484009,-0.0025329999999999997,-0.106232,-0.003849,-0.006336,0.004152,-56.68,-18.370001000000002,-10.0,2a
2019-07-12_132003:580,-0.48553500000000005,-0.0025329999999999997,-0.106232,-0.004123,-0.0066099999999999996,0.004396,-56.68,-18.370001000000002,-10.0,2a
2019-07-12_132003:600,-0.48706099999999997,-0.004547,-0.10775799999999999,-0.004581,-0.006731999999999999,0.004518,-56.25,-18.68,-10.37,2a
2019-07-12_132003:620,-0.48654200000000003,-0.004547,-0.10675,-0.004947,-0.006731999999999999,0.004732,-56.25,-18.68,-10.37,2a
2019-07-12_132003:640,-0.48706099999999997,-0.006072999999999999,-0.106232,-0.005222,-0.006793,0.004609,-56.68,-18.370001000000002,-10.75,2a
2019-07-12_132003:660,-0.484009,-0.006072999999999999,-0.106232,-0.004978,-0.006731999999999999,0.004732,-56.68,-18.370001000000002,-10.75,2a
2019-07-12_132003:680,-0.484009,-0.007599,-0.107269,-0.005039,-0.006731999999999999,0.004854,-56.68,-18.370001000000002,-10.75,2a
2019-07-12_132003:700,-0.484009,-0.006592,-0.10775799999999999,-0.004642,-0.006945999999999999,0.005067,-57.0,-18.370001000000002,-10.0,2a
2019-07-12_132003:720,-0.484009,-0.007599,-0.108276,-0.004642,-0.007220999999999999,0.00525,-57.0,-18.370001000000002,-10.0,2a
2019-07-12_132003:740,-0.48654200000000003,-0.007599,-0.110321,-0.004642,-0.007404000000000001,0.005128,-56.68,-18.68,-10.75,2a
2019-07-12_132003:760,-0.48654200000000003,-0.008636,-0.110321,-0.004581,-0.007129000000000001,0.005128,-56.68,-18.68,-10.75,2a
2019-07-12_132003:780,-0.48754899999999995,-0.008118,-0.11080899999999999,-0.004703,-0.007129000000000001,0.004854,-56.68,-18.68,-10.75,2a
2019-07-12_132003:800,-0.486023,-0.008118,-0.111328,-0.004947,-0.006548999999999999,0.004793,-56.68,-18.0,-10.0,2a
2019-07-12_132003:820,-0.48654200000000003,-0.009644,-0.11080899999999999,-0.004886,-0.0061530000000000005,0.004945000000000001,-56.68,-18.0,-10.0,2a
2019-07-12_132003:840,-0.48654200000000003,-0.009644,-0.111847,-0.004764,-0.0060609999999999995,0.004793,-55.869999,-18.0,-10.0,2a
2019-07-12_132003:860,-0.48654200000000003,-0.012177,-0.111328,-0.004520000000000001,-0.006092,0.004548,-55.869999,-18.0,-10.0,2a
2019-07-12_132003:880,-0.486023,-0.011687999999999999,-0.11080899999999999,-0.004123,-0.005878,0.004518,-55.869999,-18.0,-10.0,2a
2019-07-12_132003:900,-0.482483,-0.009644,-0.11080899999999999,-0.003879,-0.005695,0.004518,-55.869999,-17.559998999999998,-9.18,2a
2019-07-12_132003:920,-0.48706099999999997,-0.008636,-0.11233499999999999,-0.003879,-0.005451,0.004335,-55.869999,-17.559998999999998,-9.18,2a
2019-07-12_132003:940,-0.48553500000000005,-0.008636,-0.11080899999999999,-0.004123,-0.005573,0.004274,-56.25,-18.0,-10.75,2a
2019-07-12_132003:960,-0.48654200000000003,-0.009125,-0.11233499999999999,-0.004337,-0.0060609999999999995,0.003908,-56.25,-18.0,-10.75,2a
2019-07-12_132003:980,-0.485016,-0.007111,-0.112854,-0.004612,-0.006,0.003694,-56.25,-18.0,-10.75,2a
2019-07-12_132004:000,-0.48754899999999995,-0.008636,-0.11233499999999999,-0.004825,-0.005756,0.004335,-57.75,-18.370001000000002,-10.75,2a
2019-07-12_132004:020,-0.48553500000000005,-0.009644,-0.111328,-0.004642,-0.005176,0.004518,-57.75,-18.370001000000002,-10.75,2a
2019-07-12_132004:040,-0.484497,-0.009644,-0.11233499999999999,-0.004947,-0.004779,0.00345,-56.68,-18.68,-11.18,2a
2019-07-12_132004:060,-0.485016,-0.009125,-0.110321,-0.004703,-0.004596,0.003511,-56.68,-18.68,-11.18,2a
2019-07-12_132004:080,-0.48654200000000003,-0.011169,-0.110321,-0.004612,-0.004596,0.0034189999999999997,-56.68,-18.68,-11.18,2a
2019-07-12_132004:100,-0.488068,-0.009644,-0.109802,-0.004123,-0.004566,0.0032359999999999997,-56.25,-18.0,-10.37,2a
2019-07-12_132004:120,-0.48654200000000003,-0.008118,-0.107269,-0.003788,-0.004566,0.003511,-56.25,-18.0,-10.37,2a
2019-07-12_132004:140,-0.48654200000000003,-0.006592,-0.10775799999999999,-0.0037270000000000003,-0.004566,0.003694,-56.25,-18.370001000000002,-10.37,2a
2019-07-12_132004:160,-0.484009,-0.006072999999999999,-0.106232,-0.0036049999999999997,-0.004901,0.003297,-56.25,-18.370001000000002,-10.37,2a
2019-07-12_132004:180,-0.485016,-0.005065999999999999,-0.107269,-0.003788,-0.005115,0.003572,-56.25,-18.370001000000002,-10.37,2a
2019-07-12_132004:200,-0.482483,-0.0055850000000000006,-0.10675,-0.003544,-0.0052369999999999995,0.003694,-56.68,-18.0,-10.37,2a
2019-07-12_132004:220,-0.482483,-0.006072999999999999,-0.10775799999999999,-0.003788,-0.005573,0.002565,-56.68,-18.0,-10.37,2a
2019-07-12_132004:240,-0.482483,-0.000488,-0.107269,-0.004001,-0.0061530000000000005,0.003023,-57.0,-18.68,-11.18,2a
2019-07-12_132004:260,-0.484009,-0.002014,-0.10675,-0.003879,-0.006397,0.004609,-57.0,-18.68,-11.18,2a
2019-07-12_132004:280,-0.486023,-0.004547,-0.108795,-0.0042450000000000005,-0.006548999999999999,0.004518,-57.0,-18.68,-11.18,2a
2019-07-12_132004:300,-0.488068,-0.0035399999999999997,-0.109802,-0.004612,-0.006458,0.004274,-56.25,-18.68,-10.0,2a
2019-07-12_132004:320,-0.488068,-0.0035399999999999997,-0.110321,-0.004703,-0.006397,0.004732,-56.25,-18.68,-10.0,2a
2019-07-12_132004:340,-0.48858599999999996,-0.0055850000000000006,-0.110321,-0.004886,-0.006,0.004915,-57.0,-19.059998999999998,-10.37,2a
2019-07-12_132004:360,-0.48706099999999997,-0.004059,-0.108795,-0.004978,-0.005939,0.004518,-57.0,-19.059998999999998,-10.37,2a
2019-07-12_132004:380,-0.485016,-0.006072999999999999,-0.11080899999999999,-0.004978,-0.0060609999999999995,0.004457,-57.0,-19.059998999999998,-10.37,2a
2019-07-12_132004:400,-0.484497,-0.0055850000000000006,-0.110321,-0.004825,-0.005725,0.004396,-56.25,-18.370001000000002,-11.18,2a
2019-07-12_132004:420,-0.484009,-0.0055850000000000006,-0.111328,-0.004825,-0.006275,0.004609,-56.25,-18.370001000000002,-11.18,2a
2019-07-12_132004:440,-0.486023,-0.006072999999999999,-0.11080899999999999,-0.004764,-0.006336,0.005464,-56.68,-17.559998999999998,-9.18,2a
