timestamp,AccX,AccY,AccZ,GyroX,GyroY,GyroZ,MagX,MagY,MagZ,Activity
2019-07-12_131355:180,-0.34265100000000004,-0.006592,-0.19622799999999999,-0.020908000000000003,-0.010181,0.06958099999999999,-42.5,8.18,-11.5,1a
2019-07-12_131355:200,-0.359955,-0.021332,-0.18811,-0.017307,-0.006092,0.069642,-41.75,8.56,-12.18,1a
2019-07-12_131355:220,-0.361969,-0.028961,-0.183014,-0.014315999999999999,-0.0030399999999999997,0.065065,-41.75,8.56,-12.18,1a
2019-07-12_131355:240,-0.353851,-0.040161,-0.190643,-0.011722,-0.002735,0.058412,-41.369999,11.18,-13.0,1a
2019-07-12_131355:260,-0.3396,-0.043701,-0.193176,-0.008426000000000001,-0.0031309999999999997,0.050263999999999996,-41.369999,11.18,-13.0,1a
2019-07-12_131355:280,-0.360962,-0.047272,-0.198273,-0.0052829999999999995,-0.0037719999999999997,0.040101,-41.369999,11.18,-13.0,1a
2019-07-12_131355:300,-0.437225,-0.049316000000000006,-0.236389,-0.002323,-0.002002,0.030336000000000002,-40.869999,13.0,-13.37,1a
2019-07-12_131355:320,-0.512482,-0.058441,-0.24453699999999998,-0.000736,0.0009279999999999999,0.023988,-40.869999,13.0,-13.37,1a
2019-07-12_131355:340,-0.5709529999999999,-0.082855,-0.282166,0.0032310000000000004,0.005841,0.016084,-40.869999,14.06,-12.25,1a
2019-07-12_131355:360,-0.5933229999999999,-0.08996599999999999,-0.28979499999999997,0.005093,0.009228,0.003572,-40.869999,14.06,-12.25,1a
2019-07-12_131355:380,-0.492645,-0.089478,-0.271484,0.009426,0.017651,-0.009307,-40.869999,14.06,-12.25,1a
2019-07-12_131355:400,-0.489594,-0.09301799999999999,-0.272003,0.012142,0.026806,-0.015898,-40.560001,14.37,-13.0,1a
2019-07-12_131355:420,-0.7915949999999999,-0.103699,-0.319275,0.013850999999999999,0.027202999999999998,-0.013425999999999999,-40.560001,14.37,-13.0,1a
2019-07-12_131355:440,-0.47995,-0.100159,-0.449432,0.013058000000000002,0.008893,-0.002806,-40.75,13.68,-11.5,1a
2019-07-12_131355:460,-0.437225,-0.114899,-0.257233,0.021144999999999997,0.010937,-0.002867,-40.75,13.68,-11.5,1a
2019-07-12_131355:480,-0.31723,-0.106232,-0.317749,0.024411000000000002,0.00755,-0.027433999999999997,-40.75,13.68,-11.5,1a
2019-07-12_131355:500,-0.316223,-0.082336,-0.285217,0.020565,0.013074,-0.035857,-42.0,12.87,-10.25,1a
2019-07-12_131355:520,-0.42758199999999996,-0.076263,-0.275055,0.022885,0.013409,-0.01602,-42.0,12.87,-10.25,1a
2019-07-12_131355:540,-0.40570100000000003,-0.127106,-0.34063699999999997,0.019162000000000002,-0.000263,0.007905,-42.68,12.56,-8.68,1a
2019-07-12_131355:560,-0.389435,-0.133698,-0.279633,0.020108,-0.006458,0.004915,-42.68,12.56,-8.68,1a
2019-07-12_131355:580,-0.425018,-0.119476,-0.278595,0.019955,-0.013904,-0.013884,-42.68,12.56,-8.68,1a
2019-07-12_131355:600,-0.42401099999999997,-0.108276,-0.28369099999999997,0.022824,-0.018604,-0.022643,-42.68,11.87,-8.68,1a
2019-07-12_131355:620,-0.342163,-0.097595,-0.2659,0.025021,-0.020343,-0.022307,-42.68,11.87,-8.68,1a
2019-07-12_131355:640,-0.335541,-0.07421900000000001,-0.256226,0.026119999999999997,-0.02547,-0.025969,-43.369999,11.06,-8.68,1a
2019-07-12_131355:660,-0.34063699999999997,-0.041168,-0.24353000000000002,0.024594,-0.029224,-0.032195,-43.369999,11.06,-8.68,1a
2019-07-12_131355:680,-0.34317,-0.019318000000000002,-0.217072,0.02203,-0.026996,-0.034941,-43.369999,11.06,-8.68,1a
2019-07-12_131355:700,-0.349274,0.004059,-0.184021,0.017391999999999998,-0.022022,-0.03607,-43.369999,10.0,-8.25,1a
2019-07-12_131355:720,-0.344696,0.015228,-0.17385899999999999,0.010281,-0.01781,-0.037322,-43.369999,10.0,-8.25,1a
2019-07-12_131355:740,-0.347748,0.020844,-0.168793,-0.001011,-0.014513999999999999,-0.032805,-44.5,8.5,-10.68,1a
2019-07-12_131355:760,-0.35791,0.017792,-0.1586,-0.004337,-0.014513999999999999,-0.029539999999999997,-44.5,8.5,-10.68,1a
2019-07-12_131355:780,-0.344696,0.009644,-0.170807,-0.010409999999999999,-0.016040000000000002,-0.023924,-44.5,8.5,-10.68,1a
2019-07-12_131355:800,-0.344177,0.007599,-0.174377,-0.015384,-0.017688,-0.019469,-44.869999,6.18,-9.5,1a
2019-07-12_131355:820,-0.3508,0.000488,-0.190643,-0.01984,-0.019,-0.012297,-44.869999,6.18,-9.5,1a
2019-07-12_131355:840,-0.396057,-0.0030210000000000002,-0.20742800000000003,-0.020878,-0.019336000000000002,-0.007932999999999999,-44.5,4.75,-11.0,1a
2019-07-12_131355:860,-0.41943400000000003,-0.0025329999999999997,-0.223175,-0.021488,-0.020069,-0.003783,-44.5,4.75,-11.0,1a
2019-07-12_131355:880,-0.44232200000000005,0.0030210000000000002,-0.273529,-0.021824,-0.021197999999999998,0.001192,-44.5,4.75,-11.0,1a
2019-07-12_131355:900,-0.48196400000000006,0.004059,-0.273529,-0.023136,-0.026569,0.007051000000000001,-45.68,3.25,-10.25,1a
2019-07-12_131355:920,-0.494171,0.001495,-0.3508,-0.022831,-0.025988999999999998,0.010773999999999999,-45.68,3.25,-10.25,1a
2019-07-12_131355:940,-0.500275,0.0030210000000000002,-0.338593,-0.022494999999999998,-0.021655,0.010316,-44.869999,4.18,-12.68,1a
2019-07-12_131355:960,-0.652802,0.028961,-0.336548,-0.026523,-0.018421,0.014802000000000001,-44.869999,4.18,-12.68,1a
2019-07-12_131355:980,-0.718384,0.053375,-0.47433500000000006,-0.034702,-0.025379,0.034456,-44.869999,4.18,-12.68,1a
2019-07-12_131356:000,-0.492126,0.038116000000000004,-0.358429,-0.036838,-0.008533,0.046937,-45.369999,3.0,-12.18,1a
2019-07-12_131356:020,-0.379272,0.037598,-0.371643,-0.044071,-0.011524,0.043092,-45.369999,3.0,-12.18,1a
2019-07-12_131356:040,-0.273529,0.049316000000000006,-0.376221,-0.041935,0.001141,0.025972000000000002,-45.0,3.37,-13.37,1a
2019-07-12_131356:060,-0.282166,0.068115,-0.323853,-0.039005,0.00404,0.004548,-45.0,3.37,-13.37,1a
2019-07-12_131356:080,-0.490112,0.092529,-0.406219,-0.041538,-0.006,-0.004515,-45.0,3.37,-13.37,1a
2019-07-12_131356:100,-0.406738,0.114899,-0.429596,-0.039219,-0.005573,0.005464,-44.560001,4.18,-13.0,1a
2019-07-12_131356:120,-0.378265,0.09353600000000001,-0.32995599999999997,-0.038028,-0.009845,0.012361,-44.560001,4.18,-13.0,1a
2019-07-12_131356:140,-0.407227,0.077271,-0.352325,-0.033451,-0.010851999999999999,0.00757,-45.369999,2.68,-13.37,1a
2019-07-12_131356:160,-0.416901,0.09149199999999999,-0.35791,-0.026614999999999996,-0.008869,0.00757,-45.369999,2.68,-13.37,1a
2019-07-12_131356:180,-0.390442,0.091003,-0.34368899999999997,-0.018772,-0.010394,0.016481,-45.369999,2.68,-13.37,1a
2019-07-12_131356:200,-0.393494,0.081329,-0.32486,-0.012912,-0.008533,0.025575,-45.369999,3.37,-11.87,1a
2019-07-12_131356:220,-0.388916,0.068115,-0.293335,-0.008213,-0.0017280000000000002,0.035066,-45.369999,3.37,-11.87,1a
2019-07-12_131356:240,-0.37011700000000003,0.06149299999999999,-0.260803,-0.0052829999999999995,0.002911,0.040101,-46.060001,3.0,-13.0,1a
2019-07-12_131356:260,-0.348267,0.048798,-0.224701,-0.000614,0.013134999999999999,0.046296,-46.060001,3.0,-13.0,1a
2019-07-12_131356:280,-0.341125,0.048798,-0.208954,-0.000889,0.017254,0.046693,-46.060001,3.0,-13.0,1a
2019-07-12_131356:300,-0.330475,0.046752999999999996,-0.189636,-0.002079,0.018262,0.049531,-46.060001,4.5,-13.87,1a
2019-07-12_131356:320,-0.326385,0.039642000000000004,-0.181488,-0.004581,0.016736,0.050538,-46.060001,4.5,-13.87,1a
2019-07-12_131356:340,-0.316223,0.036072,-0.176422,-0.007358,0.014081,0.047548,-46.369999,6.68,-11.5,1a
2019-07-12_131356:360,-0.319794,0.034546,-0.172852,-0.0098,0.011548000000000001,0.042573,-46.369999,6.68,-11.5,1a
2019-07-12_131356:380,-0.349274,0.027954000000000003,-0.170807,-0.011417,0.010418,0.038301,-46.369999,6.68,-11.5,1a
2019-07-12_131356:400,-0.379791,0.023895,-0.17385899999999999,-0.011661,0.010631999999999999,0.037202,-45.68,8.56,-12.18,1a
2019-07-12_131356:420,-0.390961,0.015747,-0.178955,-0.012119,0.009961,0.03705,-45.68,8.56,-12.18,1a
2019-07-12_131356:440,-0.457581,0.007111,-0.197266,-0.013125999999999999,0.006909,0.03766,-45.68,10.5,-10.25,1a
2019-07-12_131356:460,-0.517059,-0.002014,-0.255707,-0.013797,-0.002338,0.043764,-45.68,10.5,-10.25,1a
2019-07-12_131356:480,-0.5185850000000001,-0.009644,-0.260803,-0.013401,0.000348,0.042421,-45.68,10.5,-10.25,1a
2019-07-12_131356:500,-0.633484,-0.039642000000000004,-0.23486300000000002,-0.019169,-0.006854000000000001,0.04004,-45.25,11.56,-9.87,1a
2019-07-12_131356:520,-0.608582,-0.001495,-0.398071,-0.021427,-0.013965,0.052186,-45.25,11.56,-9.87,1a
2019-07-12_131356:540,-0.6446529999999999,-0.041687,-0.34317,-0.027530000000000002,-0.021869,0.051057,-45.25,13.75,-10.0,1a
2019-07-12_131356:560,-0.397583,-0.039642000000000004,-0.44995100000000005,-0.030368,-0.019489,0.039979,-45.25,13.75,-10.0,1a
2019-07-12_131356:580,-0.20233199999999998,-0.039124,-0.347748,-0.032047000000000006,0.002118,0.021394,-45.25,13.75,-10.0,1a
2019-07-12_131356:600,-0.213531,-0.023375999999999997,-0.29538000000000003,-0.039005,0.002392,0.021577000000000002,-44.5,14.06,-10.75,1a
2019-07-12_131356:620,-0.587708,-0.039124,-0.420959,-0.044315,-0.009937,0.07608200000000001,-44.5,14.06,-10.75,1a
2019-07-12_131356:640,-0.49111899999999997,-0.082336,-0.47079499999999996,-0.043338,-0.002735,0.08432100000000001,-43.75,15.56,-10.37,1a
2019-07-12_131356:660,-0.389954,-0.135742,-0.288269,-0.048313,-0.001911,0.026155,-43.75,15.56,-10.37,1a
2019-07-12_131356:680,-0.401642,-0.094055,-0.33300799999999997,-0.048984,-0.0020629999999999997,0.007265000000000001,-43.75,15.56,-10.37,1a
2019-07-12_131356:700,-0.401642,-0.041687,-0.348267,-0.045597000000000006,0.001477,0.027711000000000003,-42.68,17.370001000000002,-10.75,1a
2019-07-12_131356:720,-0.35739099999999996,-0.051849,-0.33197,-0.045658,-0.0037719999999999997,0.028901,-42.68,17.370001000000002,-10.75,1a
2019-07-12_131356:740,-0.40368699999999996,-0.036072,-0.318268,-0.048251999999999996,-0.006548999999999999,0.016145,-43.369999,17.370001000000002,-11.06,1a
2019-07-12_131356:760,-0.40823400000000004,0.010651,-0.307068,-0.055728999999999994,-0.0023989999999999997,-0.005278,-43.369999,17.370001000000002,-11.06,1a
2019-07-12_131356:780,-0.411804,0.057953,-0.263336,-0.059391,0.007640999999999999,0.011567000000000001,-43.369999,17.370001000000002,-11.06,1a
2019-07-12_131356:800,-0.40570100000000003,0.059479,-0.24658200000000002,-0.063358,0.013591999999999998,0.019197,-42.25,17.75,-13.06,1a
2019-07-12_131356:820,-0.375702,0.049805,-0.217072,-0.079349,0.027814,0.029146,-42.25,17.75,-13.06,1a
2019-07-12_131356:840,-0.349274,0.044219999999999995,-0.20486500000000002,-0.08380499999999999,0.029338999999999997,0.03415,-42.25,17.059998999999998,-13.06,1a
2019-07-12_131356:860,-0.329437,0.011169,-0.200317,-0.090976,0.027752,0.048341,-42.25,17.059998999999998,-13.06,1a
2019-07-12_131356:880,-0.31369,-0.016753999999999998,-0.198273,-0.09408899999999999,0.021313,0.044496,-42.25,17.059998999999998,-13.06,1a
2019-07-12_131356:900,-0.314697,-0.034546,-0.20486500000000002,-0.094639,0.016278,0.040895,-42.25,18.5,-12.75,1a
2019-07-12_131356:920,-0.324371,-0.040649,-0.21402,-0.093296,0.002514,0.037781999999999996,-42.25,18.5,-12.75,1a
2019-07-12_131356:940,-0.35638400000000003,-0.057953,-0.213531,-0.092045,-0.0009339999999999999,0.037202,-42.25,18.5,-12.75,1a
2019-07-12_131356:960,-0.385376,-0.06253099999999999,-0.222687,-0.089786,-0.004596,0.034212,-42.25,18.5,-13.37,1a
2019-07-12_131356:980,-0.435699,-0.069122,-0.213013,-0.088535,-0.003314,0.034059,-42.25,18.5,-13.37,1a
2019-07-12_131357:000,-0.511444,-0.071167,-0.23028600000000002,-0.088382,-0.0037719999999999997,0.035524,-40.5,18.870001000000002,-13.87,1a
2019-07-12_131357:020,-0.41842700000000005,-0.081848,-0.252686,-0.082493,-0.001117,0.029298,-40.5,18.870001000000002,-13.87,1a
2019-07-12_131357:040,-0.45196499999999995,-0.073212,-0.22979699999999997,-0.083347,-0.004321,0.0235,-40.75,18.870001000000002,-14.18,1a
2019-07-12_131357:060,-0.47280900000000003,-0.06253099999999999,-0.26181,-0.077823,-0.016101,0.022066,-40.75,18.870001000000002,-14.18,1a
2019-07-12_131357:080,-0.506378,-0.023375999999999997,-0.33605999999999997,-0.074405,-0.028919,0.029358999999999996,-40.75,18.870001000000002,-14.18,1a
2019-07-12_131357:100,-0.599426,-0.015228,-0.28418000000000004,-0.070926,-0.029620999999999998,0.025453,-40.060001,18.059998999999998,-16.559998999999998,1a
2019-07-12_131357:120,-0.547546,0.038635,-0.375702,-0.071598,-0.039783,0.029878,-40.060001,18.059998999999998,-16.559998999999998,1a
2019-07-12_131357:140,-0.47689799999999993,0.110321,-0.385864,-0.067142,-0.039325,0.030092,-39.68,17.0,-19.0,1a
2019-07-12_131357:160,-0.457581,0.144379,-0.364532,-0.06113,-0.03017,-0.005644,-39.68,17.0,-19.0,1a
2019-07-12_131357:180,-0.47995,0.24658200000000002,-0.32132,-0.057987000000000004,-0.007343000000000001,-0.008849,-39.68,17.0,-19.0,1a
2019-07-12_131357:200,-0.49517799999999995,0.307587,-0.293335,-0.058138999999999996,0.002575,0.008119,-38.18,17.059998999999998,-20.5,1a
2019-07-12_131357:220,-0.390961,0.326385,-0.31369,-0.064975,0.014355000000000001,0.074617,-38.18,17.059998999999998,-20.5,1a
2019-07-12_131357:240,-0.34570300000000004,0.294373,-0.295898,-0.070621,0.01347,0.082521,-38.18,17.059998999999998,-20.5,1a
2019-07-12_131357:260,-0.350281,0.259277,-0.28064,-0.089206,0.00040899999999999997,0.080202,-37.75,16.18,-21.0,1a
2019-07-12_131357:280,-0.371643,0.248108,-0.298431,-0.09299099999999999,-0.004047,0.082246,-37.75,16.18,-21.0,1a
2019-07-12_131357:300,-0.373688,0.201843,-0.313171,-0.098148,-0.011401999999999999,0.087312,-37.5,17.68,-22.18,1a
2019-07-12_131357:320,-0.35943600000000003,0.172333,-0.314697,-0.10306099999999999,-0.017841,0.081209,-37.5,17.68,-22.18,1a
2019-07-12_131357:340,-0.36044299999999996,0.140808,-0.320282,-0.10486199999999998,-0.022876,0.074556,-34.5,18.059998999999998,-23.370001000000002,1a
2019-07-12_131357:360,-0.368073,0.11843900000000002,-0.318268,-0.10007100000000001,-0.022266,0.078462,-34.5,18.059998999999998,-23.370001000000002,1a
2019-07-12_131357:380,-0.36654699999999996,0.08743300000000001,-0.29538000000000003,-0.089786,-0.012927000000000001,0.080446,-34.5,18.059998999999998,-23.370001000000002,1a
2019-07-12_131357:400,-0.356903,0.078796,-0.275055,-0.086216,-0.009113,0.079805,-33.369999,18.75,-26.5,1a
2019-07-12_131357:420,-0.349792,0.076263,-0.262848,-0.076633,0.001599,0.085969,-33.369999,18.75,-26.5,1a
2019-07-12_131357:440,-0.34265100000000004,0.06405599999999999,-0.25216700000000003,-0.074039,0.004132,0.088167,-33.369999,18.75,-26.5,1a
2019-07-12_131357:460,-0.327911,0.056915,-0.24353000000000002,-0.07080399999999999,0.009686,0.087617,-31.559998999999998,18.5,-27.25,1a
2019-07-12_131357:480,-0.312164,0.042175,-0.23028600000000002,-0.070285,0.010296,0.086702,-31.559998999999998,18.5,-27.25,1a
2019-07-12_131357:500,-0.323334,0.027954000000000003,-0.236389,-0.06866799999999999,0.00935,0.085786,-30.059998999999998,19.18,-28.870001000000002,1a
2019-07-12_131357:520,-0.355896,-0.002014,-0.233337,-0.064304,0.010205,0.081727,-30.059998999999998,19.18,-28.870001000000002,1a
2019-07-12_131357:540,-0.375702,-0.010651,-0.23284899999999997,-0.058597,0.011761,0.073152,-28.68,20.0,-28.059998999999998,1a
2019-07-12_131357:560,-0.46417200000000003,-0.022369,-0.233856,-0.052004999999999996,0.013226,0.064851,-28.68,20.0,-28.059998999999998,1a
2019-07-12_131357:580,-0.457581,-0.016753999999999998,-0.28775,-0.044039999999999996,0.0099,0.060364999999999995,-28.68,20.0,-28.059998999999998,1a
2019-07-12_131357:600,-0.476379,-0.031494,-0.283173,-0.040652999999999995,0.011212,0.056153999999999996,-27.18,19.559998999999998,-30.0,1a
2019-07-12_131357:620,-0.496704,-0.042694,-0.276581,-0.034885,0.013347999999999999,0.033937,-27.18,19.559998999999998,-30.0,1a
2019-07-12_131357:640,-0.661438,0.0,-0.404175,-0.035556,0.007489,0.032625,-27.18,19.559998999999998,-30.0,1a
2019-07-12_131357:660,-0.563812,-0.006592,-0.402161,-0.036838,0.002118,0.046419,-26.75,20.5,-28.870001000000002,1a
2019-07-12_131357:680,-0.377747,-0.000488,-0.44384799999999996,-0.043795999999999995,-0.0021850000000000003,0.049318,-26.75,20.5,-28.870001000000002,1a
2019-07-12_131357:700,-0.237427,-0.010651,-0.392487,-0.041538,0.007763,0.045534,-26.75,20.5,-30.5,1a
2019-07-12_131357:720,-0.321808,0.006592,-0.352325,-0.048770999999999995,0.019055000000000002,0.046296,-26.75,20.5,-30.5,1a
2019-07-12_131357:740,-0.539429,-0.031494,-0.402649,-0.049686,0.017712000000000002,0.086366,-26.75,20.5,-30.5,1a
2019-07-12_131357:760,-0.486023,-0.100647,-0.402649,-0.045719,0.024426,0.10788099999999999,-25.68,20.5,-31.68,1a
2019-07-12_131357:780,-0.418915,-0.102692,-0.322845,-0.050022000000000004,0.025372,0.064485,-25.68,20.5,-31.68,1a
2019-07-12_131357:800,-0.42453,-0.026427999999999997,-0.327911,-0.058138999999999996,0.021832,0.022981,-24.870001000000002,20.75,-31.18,1a
2019-07-12_131357:820,-0.417389,-0.027954000000000003,-0.326385,-0.060367,0.024701,0.043947,-24.870001000000002,20.75,-31.18,1a
2019-07-12_131357:840,-0.389435,-0.083862,-0.302002,-0.060520000000000004,0.025006,0.0701,-24.870001000000002,20.75,-31.18,1a
2019-07-12_131357:860,-0.39502,-0.081329,-0.269958,-0.065097,0.019237999999999998,0.046266,-24.559998999999998,20.559998999999998,-32.869999,1a
2019-07-12_131357:880,-0.378265,-0.017792,-0.22927899999999998,-0.070224,0.016797,0.015016,-24.559998999999998,20.559998999999998,-32.869999,1a
2019-07-12_131357:900,-0.372162,0.008636,-0.201843,-0.06894299999999999,0.021588,0.020051,-24.18,19.75,-32.369999,1a
2019-07-12_131357:920,-0.365021,0.006592,-0.17337,-0.071384,0.029217,0.035920999999999995,-24.18,19.75,-32.369999,1a
2019-07-12_131357:940,-0.35180700000000004,0.0055850000000000006,-0.163177,-0.079899,0.034375,0.039522,-24.18,19.75,-32.369999,1a
2019-07-12_131357:960,-0.338074,-0.006072999999999999,-0.150482,-0.08719199999999999,0.036052999999999995,0.041231,-24.870001000000002,18.0,-32.25,1a
2019-07-12_131357:980,-0.336548,-0.033539,-0.147949,-0.091831,0.034131,0.045686000000000004,-24.870001000000002,18.0,-32.25,1a
2019-07-12_131358:000,-0.37316900000000003,-0.077271,-0.155548,-0.094913,0.028943,0.044954,-26.75,16.870001000000002,-33.060001,1a
2019-07-12_131358:020,-0.388428,-0.094055,-0.164215,-0.09531,0.02348,0.040712,-26.75,16.870001000000002,-33.060001,1a
2019-07-12_131358:040,-0.392487,-0.11438,-0.167267,-0.093113,0.01878,0.036378,-26.75,16.870001000000002,-33.060001,1a
2019-07-12_131358:060,-0.401642,-0.124054,-0.172852,-0.089573,0.014537999999999999,0.031892000000000004,-26.059998999999998,14.56,-33.060001,1a
2019-07-12_131358:080,-0.40368699999999996,-0.128113,-0.190643,-0.085392,0.011334,0.030549,-26.059998999999998,14.56,-33.060001,1a
2019-07-12_131358:100,-0.47689799999999993,-0.115906,-0.22521999999999998,-0.079105,0.0045899999999999995,0.037446,-27.559998999999998,12.87,-33.560001,1a
2019-07-12_131358:120,-0.44433599999999995,-0.11386099999999999,-0.253693,-0.078983,0.000714,0.040498,-27.559998999999998,12.87,-33.560001,1a
2019-07-12_131358:140,-0.46569799999999995,-0.12658699999999998,-0.227753,-0.07669400000000001,-0.003925,0.037172000000000004,-27.559998999999998,12.87,-33.560001,1a
2019-07-12_131358:160,-0.47943100000000005,-0.104706,-0.257751,-0.07996,-0.009204,0.02411,-27.559998999999998,10.56,-36.369999,1a
2019-07-12_131358:180,-0.612122,-0.111328,-0.22164899999999998,-0.078251,-0.010333,0.023712999999999998,-27.559998999999998,10.56,-36.369999,1a
2019-07-12_131358:200,-0.620758,-0.09963999999999999,-0.40976,-0.082737,-0.016834000000000002,0.041292,-26.0,9.18,-36.0,1a
2019-07-12_131358:220,-0.649231,-0.112854,-0.261322,-0.069462,-0.007801000000000001,0.045076,-26.0,9.18,-36.0,1a
2019-07-12_131358:240,-0.462646,-0.032532,-0.241486,-0.069004,-0.0031309999999999997,0.016663999999999998,-26.0,9.18,-36.0,1a
2019-07-12_131358:260,-0.478912,0.05438200000000001,-0.274017,-0.05878,-0.0014529999999999999,0.010255,-27.059998999999998,6.87,-35.560001,1a
2019-07-12_131358:280,-0.40570100000000003,0.094055,-0.234375,-0.047580000000000004,0.007489,0.020997,-27.059998999999998,6.87,-35.560001,1a
2019-07-12_131358:300,-0.49926800000000005,0.14843800000000001,-0.21453899999999998,-0.045566,0.012402,0.005189,-27.5,4.68,-37.18,1a
2019-07-12_131358:320,-0.506378,0.234375,-0.277069,-0.054354999999999994,0.008313,0.008454999999999999,-27.5,4.68,-37.18,1a
2019-07-12_131358:340,-0.465179,0.223175,-0.261322,-0.060184,0.008618,0.040956,-27.5,4.68,-37.18,1a
2019-07-12_131358:360,-0.46316499999999994,0.163696,-0.2547,-0.070347,0.006116,0.0571,-27.5,4.37,-35.18,1a
2019-07-12_131358:380,-0.471283,0.149963,-0.258759,-0.08115,0.005383,0.049745,-27.5,4.37,-35.18,1a
2019-07-12_131358:400,-0.405212,0.131165,-0.262329,-0.087009,0.0036439999999999997,0.051118000000000004,-27.75,2.87,-36.869999,1a
2019-07-12_131358:420,-0.360962,0.097595,-0.264862,-0.08871799999999999,-0.0014529999999999999,0.05948,-27.75,2.87,-36.869999,1a
2019-07-12_131358:440,-0.35180700000000004,0.046265,-0.265381,-0.09012200000000001,-0.01012,0.057374,-27.75,2.87,-36.869999,1a
2019-07-12_131358:460,-0.358917,0.024902,-0.251648,-0.08566599999999999,-0.014636000000000001,0.0524,-28.18,1.68,-35.68,1a
2019-07-12_131358:480,-0.34875500000000004,0.006072999999999999,-0.220642,-0.07703,-0.011706999999999999,0.053041,-28.18,1.68,-35.68,1a
2019-07-12_131358:500,-0.347229,0.004059,-0.194214,-0.068729,-0.004108,0.054902,-27.5,0.18,-35.25,1a
2019-07-12_131358:520,-0.34265100000000004,0.012695,-0.183014,-0.063968,0.002179,0.056764,-27.5,0.18,-35.25,1a
2019-07-12_131358:540,-0.350281,0.009125,-0.17944300000000002,-0.061985000000000005,0.005719,0.063325,-27.5,0.18,-35.25,1a
2019-07-12_131358:560,-0.338593,-0.010651,-0.175903,-0.061527,0.007245000000000001,0.07055800000000001,-28.18,-0.75,-35.68,1a
2019-07-12_131358:580,-0.338593,-0.025908999999999998,-0.168274,-0.06030599999999999,0.007184,0.069185,-28.18,-0.75,-35.68,1a
2019-07-12_131358:600,-0.374176,-0.046752999999999996,-0.164703,-0.058138999999999996,0.007184,0.060364999999999995,-29.0,-0.75,-35.68,1a
2019-07-12_131358:620,-0.411804,-0.054901,-0.171326,-0.055271,0.0071530000000000005,0.052583000000000005,-29.0,-0.75,-35.68,1a
2019-07-12_131358:640,-0.506378,-0.074738,-0.190643,-0.050631999999999996,0.007763,0.049684,-29.0,-0.75,-35.68,1a
2019-07-12_131358:660,-0.5185850000000001,-0.100159,-0.212006,-0.044986,0.005261,0.04767,-29.68,-1.25,-34.869999,1a
2019-07-12_131358:680,-0.532806,-0.11538699999999999,-0.220123,-0.036472000000000004,0.003979,0.036775,-29.68,-1.25,-34.869999,1a
2019-07-12_131358:700,-0.522125,-0.108276,-0.239441,-0.030581999999999998,0.003522,0.024385,-30.0,-2.06,-33.68,1a
2019-07-12_131358:720,-0.74585,-0.134216,-0.23995999999999998,-0.024692,0.0007440000000000001,0.024385,-30.0,-2.06,-33.68,1a
2019-07-12_131358:740,-0.6222840000000001,-0.124054,-0.379791,-0.021763,-0.009113,0.035646,-30.0,-2.06,-33.68,1a
2019-07-12_131358:760,-0.467743,-0.144379,-0.311127,-0.015262000000000001,-0.008747,0.032472,-30.0,-1.25,-33.68,1a
2019-07-12_131358:780,-0.338593,-0.14843800000000001,-0.364014,-0.014774,-0.02074,0.010103000000000001,-30.0,-1.25,-33.68,1a
2019-07-12_131358:800,-0.277588,-0.132172,-0.382324,-0.011387000000000001,-0.024188,0.000123,-30.370001000000002,-1.25,-34.5,1a
2019-07-12_131358:820,-0.489075,-0.161652,-0.316223,-0.008213,-0.017963,0.007051000000000001,-30.370001000000002,-1.25,-34.5,1a
2019-07-12_131358:840,-0.569916,-0.153015,-0.363007,-0.007297,-0.012714,0.015809,-30.370001000000002,-1.25,-34.5,1a
2019-07-12_131358:860,-0.433655,-0.161652,-0.303528,-0.005039,-0.0025210000000000002,0.017,-29.68,-1.68,-35.25,1a
2019-07-12_131358:880,-0.382324,-0.153534,-0.266907,-0.0013460000000000002,0.003522,-0.002532,-29.68,-1.68,-35.25,1a
2019-07-12_131358:900,-0.396545,-0.10775799999999999,-0.272491,-3e-06,-8e-05,-0.020842,-30.370001000000002,-0.56,-34.060001,1a
2019-07-12_131358:920,-0.385376,-0.097107,-0.259277,-6.500000000000001e-05,-0.0008730000000000001,-0.015746,-30.370001000000002,-0.56,-34.060001,1a
2019-07-12_131358:940,-0.375214,-0.10928299999999999,-0.23486300000000002,-0.001407,-0.0070680000000000005,0.001588,-30.370001000000002,-0.56,-34.060001,1a
2019-07-12_131358:960,-0.373688,-0.10675,-0.22521999999999998,-0.002414,-0.008319,0.000642,-29.68,-1.25,-34.060001,1a
2019-07-12_131358:980,-0.367584,-0.090485,-0.191162,-0.004703,-0.004566,-0.008634999999999999,-29.68,-1.25,-34.060001,1a
2019-07-12_131359:000,-0.34875500000000004,-0.082855,-0.177429,-0.005039,0.00040899999999999997,-0.012754999999999999,-30.0,-2.06,-33.68,1a
2019-07-12_131359:020,-0.332489,-0.071686,-0.161163,-0.0065650000000000005,0.003399,-0.019469,-30.0,-2.06,-33.68,1a
2019-07-12_131359:040,-0.330963,-0.06405599999999999,-0.151489,-0.008945,0.004834000000000001,-0.025389,-30.0,-2.06,-33.68,1a
2019-07-12_131359:060,-0.337067,-0.058441,-0.143372,-0.010929000000000001,0.003979,-0.026427,-30.370001000000002,-2.37,-34.060001,1a
2019-07-12_131359:080,-0.338593,-0.05996699999999999,-0.146912,-0.012516,0.001385,-0.024779,-30.370001000000002,-2.37,-34.060001,1a
2019-07-12_131359:100,-0.335022,-0.064545,-0.161652,-0.013401,-0.003375,-0.024565,-30.75,-2.75,-33.68,1a
2019-07-12_131359:120,-0.347748,-0.067108,-0.168274,-0.012516,-0.007923000000000001,-0.026305000000000002,-30.75,-2.75,-33.68,1a
2019-07-12_131359:140,-0.420959,-0.066589,-0.186584,-0.011478,-0.012165,-0.027037000000000002,-30.75,-2.75,-33.68,1a
2019-07-12_131359:160,-0.45806899999999995,-0.065063,-0.203369,-0.010929000000000001,-0.013233000000000002,-0.023313999999999998,-30.370001000000002,-4.75,-34.5,1a
2019-07-12_131359:180,-0.510437,-0.063538,-0.21859699999999999,-0.011387000000000001,-0.012439,-0.016478,-30.370001000000002,-4.75,-34.5,1a
2019-07-12_131359:200,-0.523651,-0.061005,-0.233856,-0.011722,-0.010669,-0.010222,-30.370001000000002,-5.37,-34.060001,1a
2019-07-12_131359:220,-0.526215,-0.051849,-0.249115,-0.012577,-0.010242,-0.009184000000000001,-30.370001000000002,-5.37,-34.060001,1a
2019-07-12_131359:240,-0.516541,-0.037108999999999996,-0.279114,-0.015597999999999999,-0.012256,-0.007903,-30.370001000000002,-5.37,-34.060001,1a
2019-07-12_131359:260,-0.47180200000000005,-0.016266,-0.297913,-0.019108,-0.011768,-0.001158,-30.0,-6.87,-34.5,1a
2019-07-12_131359:280,-0.72348,-0.028442000000000002,-0.25012199999999996,-0.024662,-0.011188,0.007997,-30.0,-6.87,-34.5,1a
2019-07-12_131359:300,-0.44433599999999995,0.000488,-0.48300200000000004,-0.033451,-0.018085,0.029633999999999997,-29.0,-8.0,-35.25,1a
2019-07-12_131359:320,-0.45095799999999997,0.0,-0.25827,-0.029238999999999998,0.005902,0.029237,-29.0,-8.0,-35.25,1a
2019-07-12_131359:340,-0.340118,0.039124,-0.364014,-0.034824,-0.000537,0.016603,-29.0,-8.0,-35.25,1a
2019-07-12_131359:360,-0.41995200000000005,0.063538,-0.341125,-0.029177999999999996,0.008159999999999999,0.005678,-29.68,-8.0,-34.869999,1a
2019-07-12_131359:380,-0.519592,0.08081100000000001,-0.288269,-0.028843,0.007245000000000001,-0.004850999999999999,-29.68,-8.0,-34.869999,1a
2019-07-12_131359:400,-0.46823100000000006,0.105225,-0.34674099999999997,-0.031711,-0.001941,-0.009459,-30.0,-8.37,-34.5,1a
2019-07-12_131359:420,-0.44433599999999995,0.114899,-0.272491,-0.03397,-0.006214,-0.005582999999999999,-30.0,-8.37,-34.5,1a
2019-07-12_131359:440,-0.440796,0.108795,-0.29232800000000003,-0.037937,-0.01305,0.00525,-30.0,-8.37,-34.5,1a
2019-07-12_131359:460,-0.432159,0.078796,-0.29180900000000004,-0.038363999999999995,-0.014697,0.016298,-30.370001000000002,-9.5,-34.5,1a
2019-07-12_131359:480,-0.38028,0.057953,-0.282166,-0.038547000000000005,-0.016773,0.024721,-30.370001000000002,-9.5,-34.5,1a
2019-07-12_131359:500,-0.385376,0.026917,-0.255707,-0.035282,-0.017230000000000002,0.031343,-30.370001000000002,-10.56,-34.5,1a
2019-07-12_131359:520,-0.367584,0.007111,-0.23690799999999998,-0.030643,-0.012775,0.035646,-30.370001000000002,-10.56,-34.5,1a
2019-07-12_131359:540,-0.341644,-0.008118,-0.194702,-0.024936,-0.005725,0.036806,-30.370001000000002,-10.56,-34.5,1a
2019-07-12_131359:560,-0.34317,-0.011687999999999999,-0.18096900000000002,-0.020755000000000003,-0.000781,0.037904,-30.75,-10.56,-35.25,1a
2019-07-12_131359:580,-0.349792,-0.019806,-0.172333,-0.016971,0.0033079999999999997,0.040254000000000005,-30.75,-10.56,-35.25,1a
2019-07-12_131359:600,-0.344696,-0.023895,-0.163696,-0.014255,0.006451,0.040956,-30.370001000000002,-10.56,-34.5,1a
2019-07-12_131359:620,-0.34317,-0.027954000000000003,-0.148956,-0.012668,0.007031,0.037904,-30.370001000000002,-10.56,-34.5,1a
2019-07-12_131359:640,-0.336548,-0.026917,-0.154022,-0.011417,0.005627,0.034059,-30.370001000000002,-10.56,-34.5,1a
2019-07-12_131359:660,-0.326385,-0.032532,-0.159637,-0.0098,0.0036439999999999997,0.031343,-31.870001000000002,-10.18,-33.68,1a
2019-07-12_131359:680,-0.360962,-0.039124,-0.154022,-0.007999,0.001446,0.027101,-31.870001000000002,-10.18,-33.68,1a
2019-07-12_131359:700,-0.404175,-0.045226999999999996,-0.194702,-0.006504,-0.002582,0.022798,-32.25,-9.06,-32.560001,1a
2019-07-12_131359:720,-0.475861,-0.054901,-0.187073,-0.003483,-0.004718,0.019716,-32.25,-9.06,-32.560001,1a
2019-07-12_131359:740,-0.5424800000000001,-0.066589,-0.237427,-0.001468,-0.011401999999999999,0.018587,-32.25,-9.06,-32.560001,1a
2019-07-12_131359:760,-0.544495,-0.075226,-0.258759,0.002652,-0.014118,0.016663999999999998,-33.0,-8.68,-33.68,1a
2019-07-12_131359:780,-0.475861,-0.088959,-0.259277,0.0072900000000000005,-0.013172,0.009492,-33.0,-8.68,-33.68,1a
2019-07-12_131359:800,-0.639069,-0.108276,-0.24353000000000002,0.010739,-0.015368999999999999,0.002229,-33.369999,-8.37,-34.060001,1a
2019-07-12_131359:820,-0.608063,-0.100647,-0.448425,0.010464,-0.027851,0.009706000000000001,-33.369999,-8.37,-34.060001,1a
2019-07-12_131359:840,-0.561279,-0.127594,-0.347748,0.016995,-0.022144,0.010164,-33.369999,-8.37,-34.060001,1a
2019-07-12_131359:860,-0.385376,-0.137268,-0.375214,0.014462000000000001,-0.024005000000000002,-0.0038130000000000004,-32.25,-8.68,-33.0,1a
2019-07-12_131359:880,-0.349792,-0.127594,-0.382324,0.014003999999999999,-0.01485,-0.008298999999999999,-32.25,-8.68,-33.0,1a
2019-07-12_131359:900,-0.349792,-0.160645,-0.336548,0.012875,-0.005695,0.003023,-31.870001000000002,-7.18,-33.0,1a
2019-07-12_131359:920,-0.523651,-0.160645,-0.353851,0.011073999999999999,-0.009784000000000001,0.014436000000000001,-31.870001000000002,-7.18,-33.0,1a
2019-07-12_131359:940,-0.412811,-0.203369,-0.361969,0.013058000000000002,-0.005939,0.013368000000000001,-31.870001000000002,-7.18,-33.0,1a
2019-07-12_131359:960,-0.378754,-0.208954,-0.293854,0.016995,-0.005756,-0.008787999999999999,-31.5,-7.18,-34.060001,1a
2019-07-12_131359:980,-0.383331,-0.17690999999999998,-0.318268,0.019711000000000003,-0.009448,-0.025389,-31.5,-7.18,-34.060001,1a
2019-07-12_131400:000,-0.368591,-0.146912,-0.301483,0.024013999999999997,-0.008808,-0.02484,-31.5,-6.56,-35.25,1a
2019-07-12_131400:020,-0.324371,-0.134705,-0.257751,0.026791000000000002,-0.009265,-0.025969,-31.5,-6.56,-35.25,1a
2019-07-12_131400:040,-0.323334,-0.104706,-0.245544,0.026119999999999997,-0.009937,-0.037718,-31.5,-6.56,-35.25,1a
2019-07-12_131400:060,-0.321808,-0.058960000000000005,-0.219635,0.02435,-0.006670999999999999,-0.045165,-31.5,-6.56,-34.5,1a
2019-07-12_131400:080,-0.321808,-0.037108999999999996,-0.193695,0.021633000000000003,-0.002246,-0.0455,-31.5,-6.56,-34.5,1a
2019-07-12_131400:100,-0.335541,-0.020325,-0.177948,0.015988,0.000256,-0.045287,-31.5,-6.87,-34.5,1a
2019-07-12_131400:120,-0.34317,-0.013213999999999998,-0.174377,0.009212999999999999,0.0016600000000000002,-0.044676,-31.5,-6.87,-34.5,1a
2019-07-12_131400:140,-0.337067,-0.009125,-0.162689,0.0035670000000000003,0.0018739999999999998,-0.039031,-31.5,-6.87,-34.5,1a
2019-07-12_131400:160,-0.335022,-0.014221000000000001,-0.1586,-0.001621,7.3e-05,-0.031889999999999995,-31.5,-8.0,-33.25,1a
2019-07-12_131400:180,-0.340118,-0.021332,-0.172333,-0.006076,-0.003833,-0.02777,-31.5,-8.0,-33.25,1a
2019-07-12_131400:200,-0.3396,-0.025908999999999998,-0.193176,-0.008945,-0.007862000000000001,-0.02423,-31.5,-8.37,-33.75,1a
2019-07-12_131400:220,-0.375214,-0.029968,-0.191162,-0.009861,-0.011035,-0.021514,-31.5,-8.37,-33.75,1a
2019-07-12_131400:240,-0.467743,-0.026917,-0.21148699999999998,-0.011142,-0.012988,-0.019712999999999998,-31.5,-8.37,-33.75,1a
2019-07-12_131400:260,-0.46469099999999997,-0.022369,-0.242004,-0.012790000000000001,-0.013628999999999999,-0.014159,-31.18,-9.87,-34.060001,1a
2019-07-12_131400:280,-0.547058,-0.030487,-0.21048000000000003,-0.013309,-0.009998,-0.009245999999999999,-31.18,-9.87,-34.060001,1a
2019-07-12_131400:300,-0.5323180000000001,-0.027435,-0.276581,-0.016117,-0.012714,-0.006255,-30.75,-11.0,-34.060001,1a
2019-07-12_131400:320,-0.47842399999999996,-0.029968,-0.267426,-0.015964,-0.010456,-0.00598,-30.75,-11.0,-34.060001,1a
2019-07-12_131400:340,-0.43621800000000005,-0.017792,-0.279114,-0.015842,-0.011127,-0.008513,-30.75,-11.0,-34.060001,1a
2019-07-12_131400:360,-0.742279,-0.002014,-0.33758499999999997,-0.016909999999999998,-0.016559,-0.005919,-30.0,-11.37,-33.68,1a
2019-07-12_131400:380,-0.496704,-0.008636,-0.45553599999999994,-0.02161,-0.031238,0.015169,-30.0,-11.37,-33.68,1a
2019-07-12_131400:400,-0.44232200000000005,-0.0025329999999999997,-0.304016,-0.017124,-0.018938999999999998,0.022798,-30.370001000000002,-12.87,-33.25,1a
2019-07-12_131400:420,-0.335541,0.016266,-0.34317,-0.020755000000000003,-0.017016999999999997,0.010255,-30.370001000000002,-12.87,-33.25,1a
2019-07-12_131400:440,-0.35791,0.053863999999999995,-0.290283,-0.014530000000000001,-0.0031309999999999997,-0.008727,-30.370001000000002,-12.87,-33.25,1a
2019-07-12_131400:460,-0.495697,0.071686,-0.326904,-0.014194,-0.004718,-0.021178,-29.25,-12.87,-33.68,1a
2019-07-12_131400:480,-0.45095799999999997,0.105743,-0.37011700000000003,-0.016056,-0.010639000000000001,-0.01602,-29.25,-12.87,-33.68,1a
2019-07-12_131400:500,-0.394012,0.094055,-0.317749,-0.015995,-0.014240000000000001,-0.0014939999999999999,-30.0,-13.18,-33.060001,1a
2019-07-12_131400:520,-0.425018,0.069122,-0.340118,-0.016727000000000002,-0.021197999999999998,0.004915,-30.0,-13.18,-33.060001,1a
2019-07-12_131400:540,-0.431122,0.065582,-0.35436999999999996,-0.013706,-0.020618,0.005403,-30.0,-13.18,-33.060001,1a
2019-07-12_131400:560,-0.382324,0.051849,-0.347748,-0.008945,-0.019885,0.009309,-28.559998999999998,-14.25,-33.75,1a
2019-07-12_131400:580,-0.397064,0.034058,-0.33197,-0.004062,-0.019489,0.015535,-28.559998999999998,-14.25,-33.75,1a
2019-07-12_131400:600,-0.402649,0.013702,-0.307068,0.00018,-0.014759,0.021608000000000002,-28.18,-14.25,-32.560001,1a
2019-07-12_131400:620,-0.391968,0.001495,-0.269958,0.005886,-0.004108,0.027284,-28.18,-14.25,-32.560001,1a
2019-07-12_131400:640,-0.38739,-0.004547,-0.223694,0.010525,0.007916,0.028444,-28.18,-14.25,-32.560001,1a
2019-07-12_131400:660,-0.382812,-0.001495,-0.200317,0.013058000000000002,0.018719,0.026155,-28.559998999999998,-13.87,-33.060001,1a
2019-07-12_131400:680,-0.354858,0.004547,-0.170319,0.013516,0.026623,0.024843,-28.559998999999998,-13.87,-33.060001,1a
2019-07-12_131400:700,-0.340118,0.005065999999999999,-0.152527,0.01318,0.028607,0.023836000000000003,-29.25,-12.5,-33.75,1a
2019-07-12_131400:720,-0.32132,0.006592,-0.13623,0.011257,0.026135000000000002,0.019136,-29.25,-12.5,-33.75,1a
2019-07-12_131400:740,-0.312164,0.007111,-0.133698,0.009487,0.020367,0.014161000000000002,-29.25,-12.5,-33.75,1a
2019-07-12_131400:760,-0.364532,0.004547,-0.11843900000000002,0.008084000000000001,0.013591999999999998,0.011629,-30.75,-12.06,-31.370001000000002,1a
2019-07-12_131400:780,-0.379272,0.0030210000000000002,-0.146423,0.006558,0.007367,0.012514,-30.75,-12.06,-31.370001000000002,1a
2019-07-12_131400:800,-0.416901,-0.012695,-0.126068,0.006770999999999999,0.0053219999999999995,0.015290999999999999,-30.370001000000002,-11.37,-30.68,1a
2019-07-12_131400:820,-0.474854,-0.020844,-0.166229,0.006679999999999999,-0.0013310000000000002,0.015565,-30.370001000000002,-11.37,-30.68,1a
2019-07-12_131400:840,-0.505371,-0.035583,-0.244019,0.0074730000000000005,-0.012653,0.016939,-30.370001000000002,-11.37,-30.68,1a
2019-07-12_131400:860,-0.498749,-0.050323,-0.236389,0.011654000000000001,-0.020069,0.017152,-31.5,-11.68,-30.68,1a
2019-07-12_131400:880,-0.477905,-0.072693,-0.271484,0.015713,-0.026111000000000002,0.010896,-31.5,-11.68,-30.68,1a
2019-07-12_131400:900,-0.826691,-0.09301799999999999,-0.267426,0.019711000000000003,-0.030841000000000004,0.0025039999999999997,-30.370001000000002,-10.06,-29.059998999999998,1a
2019-07-12_131400:920,-0.5323180000000001,-0.12658699999999998,-0.454529,0.021144999999999997,-0.046832,0.009126,-30.370001000000002,-10.06,-29.059998999999998,1a
2019-07-12_131400:940,-0.5933229999999999,-0.122528,-0.358429,0.031796,-0.034625,0.003175,-30.370001000000002,-10.06,-29.059998999999998,1a
2019-07-12_131400:960,-0.47842399999999996,-0.135223,-0.418915,0.031704,-0.026202999999999997,-0.008298999999999999,-30.0,-9.37,-31.059998999999998,1a
2019-07-12_131400:980,-0.345215,-0.112854,-0.385864,0.036739999999999995,0.000348,-0.010435999999999999,-30.0,-9.37,-31.059998999999998,1a
2019-07-12_131401:000,-0.334015,-0.14743,-0.30249000000000004,0.033779,0.017377,0.0025039999999999997,-29.0,-8.25,-31.5,1a
2019-07-12_131401:020,-0.47842399999999996,-0.152008,-0.354858,0.031704,0.009106,0.01761,-29.0,-8.25,-31.5,1a
2019-07-12_131401:040,-0.393005,-0.20233199999999998,-0.350281,0.032986,0.003399,0.016939,-29.0,-8.25,-31.5,1a
2019-07-12_131401:060,-0.379272,-0.192688,-0.278595,0.035488,-0.0017280000000000002,-0.012023,-27.75,-7.06,-31.059998999999998,1a
2019-07-12_131401:080,-0.408752,-0.157074,-0.308594,0.033839999999999995,-0.008136,-0.032805,-27.75,-7.06,-31.059998999999998,1a
2019-07-12_131401:100,-0.399597,-0.139282,-0.29486100000000004,0.035427,-0.005939,-0.029479,-29.0,-6.5,-32.18,1a
2019-07-12_131401:120,-0.366058,-0.138275,-0.262329,0.034176,-0.004961999999999999,-0.022521,-29.0,-6.5,-32.18,1a
2019-07-12_131401:140,-0.366058,-0.12048299999999999,-0.25317399999999995,0.031124000000000002,-0.004901,-0.028624,-29.0,-6.5,-32.18,1a
2019-07-12_131401:160,-0.354858,-0.092529,-0.21810900000000003,0.027737,-0.001178,-0.038329,-27.5,-6.06,-31.059998999999998,1a
2019-07-12_131401:180,-0.34265100000000004,-0.07421900000000001,-0.190125,0.025325999999999998,0.0047729999999999995,-0.04428,-27.5,-6.06,-31.059998999999998,1a
2019-07-12_131401:200,-0.327423,-0.054901,-0.155548,0.022213,0.010754000000000001,-0.048461000000000004,-27.75,-6.5,-31.370001000000002,1a
2019-07-12_131401:220,-0.311646,-0.044219999999999995,-0.139282,0.017697,0.014325,-0.050261,-27.75,-6.5,-31.370001000000002,1a
2019-07-12_131401:240,-0.300476,-0.038116000000000004,-0.127594,0.014003999999999999,0.014721000000000001,-0.045226,-27.75,-6.5,-31.370001000000002,1a
2019-07-12_131401:260,-0.30654899999999996,-0.041168,-0.12506099999999998,0.011593000000000001,0.01048,-0.038114999999999996,-27.5,-5.68,-30.68,1a
2019-07-12_131401:280,-0.317749,-0.043213,-0.13269,0.009549,0.003857,-0.035124,-27.5,-5.68,-30.68,1a
2019-07-12_131401:300,-0.322327,-0.040649,-0.134216,0.007809,-0.00365,-0.03366,-28.25,-6.5,-31.059998999999998,1a
2019-07-12_131401:320,-0.325378,-0.038116000000000004,-0.14743,0.006558,-0.011859,-0.029020999999999998,-28.25,-6.5,-31.059998999999998,1a
2019-07-12_131401:340,-0.385864,-0.038116000000000004,-0.146912,0.005368,-0.019367,-0.023253,-28.25,-6.5,-31.059998999999998,1a
2019-07-12_131401:360,-0.41333000000000003,-0.034058,-0.19622799999999999,0.002194,-0.025775,-0.018279,-27.75,-7.87,-30.68,1a
2019-07-12_131401:380,-0.44891400000000004,-0.029480000000000003,-0.185059,-0.000675,-0.029560000000000003,-0.014433000000000001,-27.75,-7.87,-30.68,1a
2019-07-12_131401:400,-0.49823,-0.015747,-0.25116,-0.005222,-0.039325,-0.011962,-26.059998999999998,-8.25,-31.059998999999998,1a
2019-07-12_131401:420,-0.53891,-0.016266,-0.278107,-0.009342,-0.046222000000000006,-0.009764,-26.059998999999998,-8.25,-31.059998999999998,1a
2019-07-12_131401:440,-0.523163,-0.004059,-0.304535,-0.010929000000000001,-0.041522,-0.008452,-26.059998999999998,-8.25,-31.059998999999998,1a
2019-07-12_131401:460,-0.6812739999999999,0.007111,-0.291321,-0.012211,-0.033222,-0.005461,-24.559998999999998,-8.56,-31.370001000000002,1a
2019-07-12_131401:480,-0.590759,0.030487,-0.498749,-0.018772,-0.036731,0.009492,-24.559998999999998,-8.56,-31.370001000000002,1a
2019-07-12_131401:500,-0.576019,0.028961,-0.34875500000000004,-0.019169,-0.024005000000000002,0.028810000000000002,-23.370001000000002,-9.37,-31.370001000000002,1a
2019-07-12_131401:520,-0.287231,0.034058,-0.383331,-0.021213,-0.024524,0.026704000000000002,-23.370001000000002,-9.37,-31.370001000000002,1a
2019-07-12_131401:540,-0.266388,0.045745999999999995,-0.355377,-0.018253,-0.014636000000000001,0.008058,-23.370001000000002,-9.37,-31.370001000000002,1a
2019-07-12_131401:560,-0.5048520000000001,0.082855,-0.37112399999999995,-0.014988,-0.01485,-0.007659,-22.0,-9.75,-30.68,1a
2019-07-12_131401:580,-0.477905,0.09963999999999999,-0.449432,-0.016636,-0.022785,-0.003996,-22.0,-9.75,-30.68,1a
2019-07-12_131401:600,-0.404175,0.08843999999999999,-0.336548,-0.015506,-0.020679,0.012178,-20.5,-9.37,-32.560001,1a
2019-07-12_131401:620,-0.411285,0.065063,-0.34570300000000004,-0.018313999999999997,-0.021747,0.020784,-20.5,-9.37,-32.560001,1a
2019-07-12_131401:640,-0.443329,0.045745999999999995,-0.3508,-0.017490000000000002,-0.015888,0.022767,-20.5,-9.37,-32.560001,1a
2019-07-12_131401:660,-0.377747,0.036591000000000005,-0.33758499999999997,-0.014835,-0.009784000000000001,0.027101,-20.870001000000002,-9.75,-31.870001000000002,1a
2019-07-12_131401:680,-0.379272,0.016266,-0.30249000000000004,-0.011387000000000001,-0.008747,0.029085000000000003,-20.870001000000002,-9.75,-31.870001000000002,1a
2019-07-12_131401:700,-0.37112399999999995,0.001495,-0.284698,-0.009525,-0.0076170000000000005,0.029756,-21.25,-10.06,-31.370001000000002,1a
2019-07-12_131401:720,-0.350281,-0.005065999999999999,-0.249115,-0.006351,-0.0025210000000000002,0.03415,-21.25,-10.06,-31.370001000000002,1a
2019-07-12_131401:740,-0.350281,-0.014221000000000001,-0.20944200000000002,-0.0036049999999999997,0.002911,0.037721,-21.25,-10.06,-31.370001000000002,1a
2019-07-12_131401:760,-0.352325,-0.016753999999999998,-0.195221,-0.002933,0.007367,0.036775,-20.870001000000002,-9.37,-31.870001000000002,1a
2019-07-12_131401:780,-0.335541,-0.01828,-0.17690999999999998,-0.002475,0.011090000000000001,0.035127,-20.870001000000002,-9.37,-31.870001000000002,1a
2019-07-12_131401:800,-0.330963,-0.021851,-0.169281,-0.002811,0.010570999999999999,0.033082,-20.059998999999998,-9.37,-31.370001000000002,1a
2019-07-12_131401:820,-0.32486,-0.026427999999999997,-0.17538499999999999,-0.0036659999999999996,0.006756,0.029939,-20.059998999999998,-9.37,-31.370001000000002,1a
2019-07-12_131401:840,-0.325897,-0.027954000000000003,-0.166229,-0.00394,0.003522,0.027039999999999998,-20.059998999999998,-9.37,-31.370001000000002,1a
2019-07-12_131401:860,-0.36044299999999996,-0.027435,-0.164703,-0.0032689999999999998,0.002179,0.023897,-20.059998999999998,-9.0,-30.18,1a
2019-07-12_131401:880,-0.393005,-0.028961,-0.170319,-0.003544,0.002514,0.021669,-20.059998999999998,-9.0,-30.18,1a
2019-07-12_131401:900,-0.43518100000000004,-0.042694,-0.186584,-0.004001,0.001385,0.022127,-20.870001000000002,-7.87,-31.059998999999998,1a
2019-07-12_131401:920,-0.500275,-0.05438200000000001,-0.22879000000000002,-0.003483,-0.0052369999999999995,0.021669,-20.870001000000002,-7.87,-31.059998999999998,1a
2019-07-12_131401:940,-0.558228,-0.069641,-0.256226,-0.0032689999999999998,-0.012897,0.021272,-20.870001000000002,-7.87,-31.059998999999998,1a
2019-07-12_131401:960,-0.515015,-0.0737,-0.256226,0.0009119999999999999,-0.010669,0.018739,-20.870001000000002,-7.06,-29.5,1a
2019-07-12_131401:980,-0.575012,-0.09963999999999999,-0.257751,0.004299,-0.007281999999999999,0.012697,-20.870001000000002,-7.06,-29.5,1a
2019-07-12_131402:000,-0.807373,-0.09149199999999999,-0.33197,0.007687,-0.00719,0.007051000000000001,-20.5,-7.06,-30.18,1a
2019-07-12_131402:020,-0.46670500000000004,-0.14032,-0.367584,0.005825,-0.022022,0.018587,-20.5,-7.06,-30.18,1a
2019-07-12_131402:040,-0.404175,-0.136749,-0.338074,0.016964,-0.015888,0.015169,-20.5,-7.06,-30.18,1a
2019-07-12_131402:060,-0.374176,-0.13269,-0.435699,0.012783,-0.023059,0.0019850000000000002,-20.059998999999998,-6.06,-29.5,1a
2019-07-12_131402:080,-0.28875700000000004,-0.133698,-0.397583,0.017971,-0.009204,0.006196,-20.059998999999998,-6.06,-29.5,1a
2019-07-12_131402:100,-0.382812,-0.17944300000000002,-0.353851,0.019313999999999998,0.002118,0.015931,-19.0,-6.5,-31.18,1a
2019-07-12_131402:120,-0.465179,-0.172333,-0.399109,0.019894,0.000805,0.01111,-19.0,-6.5,-31.18,1a
2019-07-12_131402:140,-0.368073,-0.18811,-0.344696,0.020047,0.00224,0.0007030000000000001,-19.0,-6.5,-31.18,1a
2019-07-12_131402:160,-0.365021,-0.166748,-0.315704,0.02435,0.001324,-0.016936,-19.0,-5.25,-30.25,1a
2019-07-12_131402:180,-0.396545,-0.134705,-0.314697,0.0238,-0.002246,-0.030364,-19.0,-5.25,-30.25,1a
2019-07-12_131402:200,-0.363007,-0.119476,-0.310638,0.022885,-0.005176,-0.029875,-17.870001000000002,-4.5,-31.18,1a
2019-07-12_131402:220,-0.360962,-0.10318,-0.28418000000000004,0.022671,-0.007006999999999999,-0.029418,-17.870001000000002,-4.5,-31.18,1a
2019-07-12_131402:240,-0.371643,-0.082336,-0.275055,0.018368000000000002,-0.010242,-0.040373,-17.870001000000002,-4.5,-31.18,1a
2019-07-12_131402:260,-0.358917,-0.050842,-0.235382,0.014736,-0.00539,-0.046202,-17.5,-4.5,-30.75,1a
2019-07-12_131402:280,-0.35638400000000003,-0.036591000000000005,-0.20233199999999998,0.009793000000000001,0.000866,-0.046416000000000006,-17.5,-4.5,-30.75,1a
2019-07-12_131402:300,-0.329437,-0.027435,-0.180481,0.003781,0.005383,-0.044219,-16.75,-4.87,-30.75,1a
2019-07-12_131402:320,-0.313171,-0.025421,-0.169281,-0.001407,0.005719,-0.041625,-16.75,-4.87,-30.75,1a
2019-07-12_131402:340,-0.311127,-0.027954000000000003,-0.166748,-0.004886,0.001385,-0.038114999999999996,-16.75,-4.87,-30.75,1a
2019-07-12_131402:360,-0.31012,-0.027435,-0.182007,-0.007206000000000001,-0.010791,-0.033019,-17.059998999999998,-4.87,-31.18,1a
2019-07-12_131402:380,-0.321808,-0.025908999999999998,-0.180481,-0.007267,-0.011768,-0.032408,-16.370001000000002,-6.06,-31.18,1a
2019-07-12_131402:400,-0.321808,-0.025908999999999998,-0.180481,-0.007267,-0.011768,-0.032408,-16.370001000000002,-6.06,-31.18,1a
2019-07-12_131402:420,-0.40774499999999997,-0.014221000000000001,-0.19165,-0.008091,-0.011463,-0.027037000000000002,-16.370001000000002,-6.06,-31.18,1a
2019-07-12_131402:440,-0.429596,-0.005065999999999999,-0.220642,-0.009128,-0.009387000000000001,-0.017546,-16.370001000000002,-6.06,-31.18,1a
2019-07-12_131402:460,-0.48654200000000003,0.0035399999999999997,-0.21911599999999998,-0.011051,-0.005725,-0.010954,-16.059998999999998,-6.5,-31.870001000000002,1a
2019-07-12_131402:480,-0.515015,0.011687999999999999,-0.258759,-0.01511,-0.007220999999999999,-0.006652,-16.059998999999998,-6.5,-31.870001000000002,1a
2019-07-12_131402:500,-0.514496,0.015747,-0.264862,-0.017246,-0.0037719999999999997,-0.0038130000000000004,-15.25,-6.75,-30.68,1a
2019-07-12_131402:520,-0.45605500000000004,0.027954000000000003,-0.28112800000000004,-0.020298,-0.001209,-0.001158,-15.25,-6.75,-30.68,1a
2019-07-12_131402:540,-0.618225,0.039124,-0.252686,-0.02396,0.001538,0.004457,-15.25,-6.75,-30.68,1a
2019-07-12_131402:560,-0.704651,0.074738,-0.40570100000000003,-0.036899,-0.016222999999999998,0.026704000000000002,-14.87,-7.87,-30.68,1a
2019-07-12_131402:580,-0.562805,0.041687,-0.300476,-0.038486,-0.004383,0.045167,-14.87,-7.87,-30.68,1a
2019-07-12_131402:600,-0.421967,0.045226999999999996,-0.307587,-0.04697,-0.006,0.035585000000000006,-14.56,-7.87,-31.059998999999998,1a
2019-07-12_131402:620,-0.34570300000000004,0.09963999999999999,-0.34063699999999997,-0.049747,0.002911,0.011354000000000001,-14.56,-7.87,-31.059998999999998,1a
2019-07-12_131402:640,-0.38739,0.135742,-0.293335,-0.051944000000000004,0.010205,-0.010588,-14.56,-7.87,-31.059998999999998,1a
2019-07-12_131402:660,-0.47332799999999997,0.18454,-0.37011700000000003,-0.060795,0.003064,-0.012754999999999999,-14.18,-9.5,-31.370001000000002,1a
2019-07-12_131402:680,-0.46417200000000003,0.192169,-0.363007,-0.065708,1.2e-05,0.006441,-14.18,-9.5,-31.370001000000002,1a
2019-07-12_131402:700,-0.437225,0.14843800000000001,-0.322845,-0.06854600000000001,-0.003833,0.020784,-14.87,-11.0,-30.18,1a
2019-07-12_131402:720,-0.490112,0.133698,-0.329437,-0.06729500000000001,-0.00539,0.022859,-14.87,-11.0,-30.18,1a
2019-07-12_131402:740,-0.46417200000000003,0.146912,-0.318268,-0.061832000000000005,-0.002124,0.027681,-14.87,-11.0,-30.18,1a
2019-07-12_131402:760,-0.42453,0.146423,-0.305542,-0.056125,-0.0023989999999999997,0.034669,-14.68,-12.5,-29.5,1a
2019-07-12_131402:780,-0.405212,0.13269,-0.28927600000000003,-0.053226,-0.002918,0.040376,-14.68,-12.5,-29.5,1a
2019-07-12_131402:800,-0.381317,0.119476,-0.265381,-0.049686,-0.001209,0.051332,-15.37,-13.56,-29.059998999999998,1a
2019-07-12_131402:820,-0.35943600000000003,0.094055,-0.22216799999999998,-0.045719,0.002179,0.063081,-15.37,-13.56,-29.059998999999998,1a
2019-07-12_131402:840,-0.35739099999999996,0.077271,-0.201324,-0.043399,0.006756,0.069185,-15.37,-13.56,-29.059998999999998,1a
2019-07-12_131402:860,-0.349274,0.05996699999999999,-0.17538499999999999,-0.042148000000000005,0.010754000000000001,0.072023,-15.75,-14.56,-29.059998999999998,1a
2019-07-12_131402:880,-0.340118,0.047791,-0.16217,-0.040806,0.013347999999999999,0.074434,-15.75,-14.56,-29.059998999999998,1a
2019-07-12_131402:900,-0.325378,0.035065,-0.152008,-0.039951,0.01228,0.073213,-16.18,-14.18,-28.68,1a
2019-07-12_131402:920,-0.311127,0.031006,-0.143372,-0.039675999999999996,0.010022,0.068635,-16.18,-14.18,-28.68,1a
2019-07-12_131402:940,-0.29895,0.023375999999999997,-0.131653,-0.039341,0.007184,0.063539,-16.18,-14.18,-28.68,1a
2019-07-12_131402:960,-0.319794,0.007599,-0.12558,-0.038944,0.003064,0.058687,-18.370001000000002,-14.18,-26.68,1a
2019-07-12_131402:980,-0.333496,-0.001495,-0.14386,-0.037418,-0.0008119999999999999,0.05575700000000001,-18.370001000000002,-14.18,-26.68,1a
2019-07-12_131403:000,-0.350281,-0.008636,-0.135223,-0.034152999999999996,-0.002246,0.048463,-18.370001000000002,-14.56,-26.25,1a
2019-07-12_131403:020,-0.47079499999999996,-0.018799,-0.167755,-0.031498000000000005,-0.008197,0.038698,-18.370001000000002,-14.56,-26.25,1a
2019-07-12_131403:040,-0.529755,-0.01828,-0.231323,-0.029238999999999998,-0.019,0.031800999999999996,-18.370001000000002,-14.56,-26.25,1a
2019-07-12_131403:060,-0.5267029999999999,-0.013213999999999998,-0.26944,-0.025058,-0.019733,0.022981,-19.370001000000002,-14.18,-26.68,1a
2019-07-12_131403:080,-0.7824399999999999,-0.032532,-0.20385699999999998,-0.025333,-0.015308,0.011964,-19.370001000000002,-14.18,-26.68,1a
2019-07-12_131403:100,-0.809387,0.010651,-0.348267,-0.028324000000000002,-0.027637000000000002,0.028076999999999998,-19.370001000000002,-14.87,-26.25,1a
2019-07-12_131403:120,-0.6350100000000001,-0.041168,-0.377228,-0.021366,-0.009204,0.020326,-19.370001000000002,-14.87,-26.25,1a
2019-07-12_131403:140,-0.45043900000000003,-0.015228,-0.434174,-0.030124,-0.005176,-0.007659,-19.370001000000002,-14.87,-26.25,1a
2019-07-12_131403:160,-0.34875500000000004,0.035065,-0.383331,-0.033847,0.016858,-0.010039,-19.370001000000002,-14.87,-27.059998999999998,1a
2019-07-12_131403:180,-0.338074,0.012177,-0.35436999999999996,-0.043979000000000004,0.033795,0.021516,-19.370001000000002,-14.87,-27.059998999999998,1a
2019-07-12_131403:200,-0.497742,-0.045226999999999996,-0.34570300000000004,-0.047458,0.037518,0.039583,-19.370001000000002,-15.56,-25.870001000000002,1a
2019-07-12_131403:220,-0.44891400000000004,-0.064545,-0.35638400000000003,-0.054081,0.033734,0.028687999999999998,-19.370001000000002,-15.56,-25.870001000000002,1a
2019-07-12_131403:240,-0.41943400000000003,-0.06405599999999999,-0.330475,-0.055667999999999995,0.027936000000000002,0.010957,-19.370001000000002,-15.56,-25.870001000000002,1a
2019-07-12_131403:260,-0.374176,-0.056915,-0.26944,-0.055057,0.018658,0.011964,-20.5,-16.68,-24.25,1a
2019-07-12_131403:280,-0.382324,-0.05438200000000001,-0.268951,-0.051761,0.012555,0.019472,-20.5,-16.68,-24.25,1a
2019-07-12_131403:300,-0.40316799999999997,-0.038116000000000004,-0.25521900000000003,-0.052402,0.004132,0.018678,-21.25,-17.870001000000002,-23.68,1a
2019-07-12_131403:320,-0.405212,-0.028961,-0.24758899999999998,-0.0517,-0.003833,0.012239,-21.25,-17.870001000000002,-23.68,1a
2019-07-12_131403:340,-0.40976,0.007599,-0.20538299999999998,-0.052767999999999995,-0.0066099999999999996,0.008454999999999999,-21.25,-17.870001000000002,-23.68,1a
2019-07-12_131403:360,-0.405212,0.015228,-0.19775399999999999,-0.055393,-0.004444,0.011506,-22.0,-18.059998999999998,-23.68,1a
2019-07-12_131403:380,-0.379791,0.024902,-0.1698,-0.059177,-0.000995,0.017671,-22.0,-18.059998999999998,-23.68,1a
2019-07-12_131403:400,-0.377747,0.026427999999999997,-0.167267,-0.061588,-0.000202,0.020143,-22.0,-19.559998999999998,-22.0,1a
2019-07-12_131403:420,-0.379272,0.016266,-0.156067,-0.069004,-0.00072,0.024659999999999998,-22.0,-19.559998999999998,-22.0,1a
2019-07-12_131403:440,-0.379791,0.014221000000000001,-0.155548,-0.072269,-0.0030399999999999997,0.026552,-22.0,-19.559998999999998,-22.0,1a
2019-07-12_131403:460,-0.37112399999999995,0.010162000000000001,-0.155548,-0.074924,-0.006885,0.027375999999999998,-22.370001000000002,-20.25,-20.5,1a
2019-07-12_131403:480,-0.36349499999999996,0.012177,-0.155548,-0.077305,-0.01192,0.026826,-22.370001000000002,-20.25,-20.5,1a
2019-07-12_131403:500,-0.35791,0.019318000000000002,-0.162689,-0.07937999999999999,-0.018482,0.026155,-22.68,-21.370001000000002,-19.25,1a
2019-07-12_131403:520,-0.36248800000000003,0.028961,-0.17337,-0.08215700000000001,-0.025318,0.023591,-22.68,-21.370001000000002,-19.25,1a
2019-07-12_131403:540,-0.439758,0.035065,-0.196747,-0.086216,-0.029712,0.021974,-22.68,-21.370001000000002,-19.25,1a
2019-07-12_131403:560,-0.44281000000000004,0.037598,-0.212006,-0.08826,-0.030383999999999998,0.025453,-23.25,-22.870001000000002,-17.68,1a
2019-07-12_131403:580,-0.475372,0.021332,-0.20385699999999998,-0.089512,-0.025988999999999998,0.030366000000000004,-23.25,-22.870001000000002,-17.68,1a
2019-07-12_131403:600,-0.526215,0.014221000000000001,-0.213013,-0.090305,-0.023791999999999997,0.038239999999999996,-23.68,-22.870001000000002,-16.870001000000002,1a
2019-07-12_131403:620,-0.45196499999999995,-0.015228,-0.248596,-0.08566599999999999,-0.017414,0.03528,-23.68,-22.870001000000002,-16.870001000000002,1a
2019-07-12_131403:640,-0.476379,-0.027435,-0.225739,-0.086551,-0.017902,0.026185000000000003,-23.68,-22.870001000000002,-16.870001000000002,1a
2019-07-12_131403:660,-0.462646,-0.009644,-0.278595,-0.081028,-0.017505,0.031556,-24.059998999999998,-24.059998999999998,-16.18,1a
2019-07-12_131403:680,-0.5734859999999999,-0.013702,-0.24963400000000002,-0.081485,-0.025531,0.039247000000000004,-24.059998999999998,-24.059998999999998,-16.18,1a
2019-07-12_131403:700,-0.5709529999999999,-0.018799,-0.35180700000000004,-0.077976,-0.032367,0.040223,-25.18,-24.75,-14.25,1a
2019-07-12_131403:720,-0.678741,0.001007,-0.31012,-0.080112,-0.036487,0.033264999999999996,-25.18,-24.75,-14.25,1a
2019-07-12_131403:740,-0.575531,0.040649,-0.336548,-0.07510700000000001,-0.030567,0.023378,-25.18,-24.75,-14.25,1a
2019-07-12_131403:760,-0.44995100000000005,0.081329,-0.308075,-0.07294099999999999,-0.010456,0.004518,-25.18,-25.059998999999998,-12.25,1a
2019-07-12_131403:780,-0.42453,0.160645,-0.227264,-0.074314,0.009961,-0.001402,-25.18,-25.059998999999998,-12.25,1a
2019-07-12_131403:800,-0.409271,0.21148699999999998,-0.235382,-0.075199,0.025006,0.012147,-26.0,-26.25,-11.06,1a
2019-07-12_131403:820,-0.48095699999999997,0.252686,-0.223175,-0.08307200000000001,0.030743,0.022004,-26.0,-26.25,-11.06,1a
2019-07-12_131403:840,-0.425018,0.294373,-0.222687,-0.094425,0.027081,0.0253,-26.0,-26.25,-11.06,1a
2019-07-12_131403:860,-0.372162,0.310638,-0.20944200000000002,-0.098758,0.02348,0.027498,-26.25,-25.870001000000002,-9.18,1a
2019-07-12_131403:880,-0.35739099999999996,0.315216,-0.196747,-0.11249100000000001,0.012005,0.042421,-26.25,-25.870001000000002,-9.18,1a
2019-07-12_131403:900,-0.37674,0.320282,-0.20944200000000002,-0.11655,0.008159999999999999,0.048524,-27.5,-27.370001000000002,-6.37,1a
2019-07-12_131403:920,-0.353333,0.318268,-0.23690799999999998,-0.13000799999999998,-0.00838,0.058107000000000006,-27.5,-27.370001000000002,-6.37,1a
2019-07-12_131403:940,-0.339111,0.316742,-0.254211,-0.14010999999999998,-0.024524,0.056825,-27.5,-27.370001000000002,-6.37,1a
2019-07-12_131403:960,-0.348267,0.303528,-0.282654,-0.149448,-0.041065,0.060150999999999996,-27.75,-25.870001000000002,-2.87,1a
2019-07-12_131403:980,-0.368073,0.280121,-0.287231,-0.15423900000000001,-0.050342000000000005,0.069185,-27.75,-25.870001000000002,-2.87,1a
2019-07-12_131404:000,-0.41842700000000005,0.231323,-0.280121,-0.15542999999999998,-0.050952,0.07303,-30.0,-24.370001000000002,-0.56,1a
2019-07-12_131404:020,-0.44891400000000004,0.20538299999999998,-0.270477,-0.1543,-0.0396,0.084962,-30.0,-24.370001000000002,-0.56,1a
2019-07-12_131404:040,-0.416382,0.17690999999999998,-0.253693,-0.148777,-0.028369,0.09665,-30.0,-24.370001000000002,-0.56,1a
2019-07-12_131404:060,-0.386383,0.15506,-0.240479,-0.145755,-0.023853,0.100526,-31.18,-22.559998999999998,1.75,1a
2019-07-12_131404:080,-0.344177,0.128113,-0.227264,-0.136173,-0.018146000000000002,0.098726,-31.18,-22.559998999999998,1.75,1a
2019-07-12_131404:100,-0.325897,0.121002,-0.21554600000000002,-0.132938,-0.018207,0.096742,-33.369999,-18.059998999999998,4.5,1a
2019-07-12_131404:120,-0.3396,0.107269,-0.213013,-0.123447,-0.022022,0.09487999999999999,-33.369999,-18.059998999999998,4.5,1a
2019-07-12_131404:140,-0.363007,0.092529,-0.21249400000000002,-0.117191,-0.023456,0.095979,-33.369999,-18.059998999999998,4.5,1a
2019-07-12_131404:160,-0.394531,0.064545,-0.201843,-0.11368099999999999,-0.023273,0.09601,-34.5,-14.5,4.25,1a
2019-07-12_131404:180,-0.414337,0.044739,-0.191162,-0.101017,-0.01781,0.093721,-34.5,-14.5,4.25,1a
2019-07-12_131404:200,-0.45095799999999997,0.027954000000000003,-0.182007,-0.09564600000000001,-0.015155000000000002,0.09094400000000001,-36.0,-11.5,6.68,1a
2019-07-12_131404:220,-0.490601,0.023895,-0.183014,-0.078434,-0.00838,0.076753,-36.0,-11.5,6.68,1a
2019-07-12_131404:240,-0.5348510000000001,0.03302,-0.17690999999999998,-0.066013,-0.002582,0.066316,-36.0,-11.5,6.68,1a
2019-07-12_131404:260,-0.512482,0.045745999999999995,-0.157593,-0.059971000000000003,0.001843,0.060884,-36.25,-8.87,6.37,1a
2019-07-12_131404:280,-0.44281000000000004,0.081329,-0.127594,-0.044773,0.012616,0.044008,-36.25,-8.87,6.37,1a
2019-07-12_131404:300,-0.409271,0.106232,-0.141846,-0.040867,0.012463,0.038972,-37.060001,-5.56,5.75,1a
2019-07-12_131404:320,-0.42858900000000005,0.130127,-0.159119,-0.036503,0.00108,0.032991,-37.060001,-5.56,5.75,1a
2019-07-12_131404:340,-0.785004,0.092529,-0.13269,-0.045322,-0.015979,0.052644,-37.060001,-5.56,5.75,1a
2019-07-12_131404:360,-0.477386,0.08590700000000001,-0.308075,-0.046787,-0.026172000000000004,0.073366,-36.75,-3.25,7.5,1a
2019-07-12_131404:380,-0.264374,0.030487,-0.253693,-0.047519,-0.028857999999999998,0.08432100000000001,-36.75,-3.25,7.5,1a
2019-07-12_131404:400,-0.254211,-0.021332,-0.30300900000000003,-0.052341,-0.032306,0.07342699999999999,-36.75,-3.25,7.5,1a
2019-07-12_131404:420,-0.353333,-0.021332,-0.37316900000000003,-0.053745,-0.027056999999999998,0.08539,-36.060001,-1.0,7.06,1a
2019-07-12_131404:440,-0.46670500000000004,-0.073212,-0.341644,-0.055453999999999996,-0.012103000000000001,0.104707,-36.060001,-1.0,7.06,1a
2019-07-12_131404:460,-0.475861,-0.102173,-0.35638400000000003,-0.058262,-0.008990999999999999,0.103242,-37.18,1.56,6.37,1a
2019-07-12_131404:480,-0.445862,-0.102173,-0.36911,-0.061924,-0.0008730000000000001,0.06302,-37.18,1.56,6.37,1a
2019-07-12_131404:500,-0.431122,-0.09301799999999999,-0.3508,-0.06436499999999999,0.0020570000000000002,0.047487,-37.18,1.56,6.37,1a
2019-07-12_131404:520,-0.420441,-0.062012,-0.347748,-0.069675,0.007763,0.023712999999999998,-36.060001,5.68,5.87,1a
2019-07-12_131404:540,-0.417389,-0.053375,-0.33197,-0.074039,0.00758,0.015687,-36.060001,5.68,5.87,1a
2019-07-12_131404:560,-0.457581,-0.046752999999999996,-0.325897,-0.075657,0.005169,0.011384,-35.869999,6.37,5.68,1a
2019-07-12_131404:580,-0.47079499999999996,-0.040161,-0.322327,-0.074192,-0.001209,0.001771,-35.869999,6.37,5.68,1a
2019-07-12_131404:600,-0.478912,-0.035583,-0.285706,-0.07220800000000001,-0.001209,0.000459,-35.869999,6.37,5.68,1a
2019-07-12_131404:620,-0.48095699999999997,-0.032532,-0.266907,-0.067142,0.002118,0.005067,-35.5,7.5,4.75,1a
2019-07-12_131404:640,-0.45605500000000004,-0.026917,-0.23028600000000002,-0.064579,0.008313,0.017152,-35.5,7.5,4.75,1a
2019-07-12_131404:660,-0.437225,-0.026917,-0.20285,-0.063907,0.011151000000000001,0.024446000000000002,-35.5,7.87,6.5,1a
2019-07-12_131404:680,-0.42758199999999996,-0.035583,-0.171326,-0.064823,0.016461,0.044008,-35.5,7.87,6.5,1a
2019-07-12_131404:700,-0.416901,-0.044739,-0.163177,-0.064823,0.017131999999999998,0.048219,-34.68,8.18,5.68,1a
2019-07-12_131404:720,-0.410278,-0.06149299999999999,-0.136749,-0.064762,0.018445,0.049806,-34.68,8.18,5.68,1a
2019-07-12_131404:740,-0.392487,-0.069641,-0.130646,-0.065555,0.018536,0.044496,-34.68,8.18,5.68,1a
2019-07-12_131404:760,-0.382324,-0.084381,-0.124054,-0.06589099999999999,0.017529,0.038789,-34.369999,11.0,4.75,1a
2019-07-12_131404:780,-0.381317,-0.102173,-0.12353499999999999,-0.06464,0.01521,0.034730000000000004,-34.369999,11.0,4.75,1a
2019-07-12_131404:800,-0.38385,-0.11538699999999999,-0.128113,-0.061924,0.01347,0.028810000000000002,-34.369999,11.0,4.75,1a
2019-07-12_131404:820,-0.382324,-0.12200899999999999,-0.133179,-0.05878,0.010754000000000001,0.022127,-33.560001,12.06,5.25,1a
2019-07-12_131404:840,-0.41943400000000003,-0.135223,-0.144897,-0.054020000000000006,0.008771,0.017824,-33.560001,12.06,5.25,1a
2019-07-12_131404:860,-0.437225,-0.14032,-0.166748,-0.049442,0.005261,0.01587,-32.5,12.37,4.75,1a
2019-07-12_131404:880,-0.432159,-0.156067,-0.18454,-0.042727999999999995,0.001599,0.013368000000000001,-32.5,12.37,4.75,1a
2019-07-12_131404:900,-0.44281000000000004,-0.159119,-0.191162,-0.035434,-0.002735,0.00403,-32.5,12.37,4.75,1a
2019-07-12_131404:920,-0.48349,-0.148956,-0.226746,-0.029392,-0.009723,-0.006529000000000001,-33.18,13.5,5.25,1a
2019-07-12_131404:940,-0.49316400000000005,-0.135742,-0.244019,-0.022037,-0.016040000000000002,-0.011626000000000001,-33.18,13.5,5.25,1a
2019-07-12_131404:960,-0.500793,-0.096588,-0.249115,-0.015323,-0.020130000000000002,-0.018401,-32.5,13.18,3.68,1a
2019-07-12_131404:980,-0.669067,-0.07421900000000001,-0.197266,-0.011478,-0.019214,-0.030364,-32.5,13.18,3.68,1a
2019-07-12_131405:000,-0.576019,0.009125,-0.385864,-0.016575,-0.012775,-0.029143000000000002,-32.5,13.18,3.68,1a
2019-07-12_131405:020,-0.545532,0.017273,-0.226746,-0.011997,-0.005817,-0.008574,-32.869999,12.87,4.06,1a
2019-07-12_131405:040,-0.44891400000000004,0.09149199999999999,-0.24353000000000002,-0.010074,0.000866,-0.026976,-32.869999,12.87,4.06,1a
2019-07-12_131405:060,-0.458588,0.147949,-0.25012199999999996,-0.013706,0.003735,-0.046874,-34.0,12.18,3.68,1a
2019-07-12_131405:080,-0.349792,0.23690799999999998,-0.194214,-0.009951999999999999,0.011761,-0.043639,-34.0,12.18,3.68,1a
2019-07-12_131405:100,-0.461121,0.254211,-0.17843599999999998,-0.012912,0.010876,-0.035918,-34.0,12.18,3.68,1a
2019-07-12_131405:120,-0.45401,0.286224,-0.24706999999999998,-0.021824,0.001538,-0.025176,-33.18,10.25,4.5,1a
2019-07-12_131405:140,-0.448425,0.265381,-0.220123,-0.028385000000000004,-0.005176,-0.005675,-33.18,10.25,4.5,1a
2019-07-12_131405:160,-0.447906,0.22216799999999998,-0.24658200000000002,-0.033908999999999995,-0.015186000000000002,0.006593000000000001,-32.869999,9.56,3.68,1a
2019-07-12_131405:180,-0.490601,0.190643,-0.237427,-0.036564,-0.019,0.009309,-32.869999,9.56,3.68,1a
2019-07-12_131405:200,-0.454529,0.150482,-0.246063,-0.035831,-0.020465,0.015625999999999998,-32.869999,9.56,3.68,1a
2019-07-12_131405:220,-0.44638100000000003,0.09811399999999999,-0.227753,-0.031314999999999996,-0.020496,0.02585,-33.18,9.18,3.25,1a
2019-07-12_131405:240,-0.43670699999999996,0.07421900000000001,-0.213013,-0.026188,-0.017169,0.030275,-33.18,9.18,3.25,1a
2019-07-12_131405:260,-0.388428,0.064545,-0.183014,-0.019962,-0.009113,0.030763,-34.0,9.18,1.68,1a
2019-07-12_131405:280,-0.370636,0.063538,-0.159119,-0.013981,-0.000995,0.03293,-34.0,9.18,1.68,1a
2019-07-12_131405:300,-0.346222,0.062012,-0.150482,-0.009922,0.004254,0.034913,-34.0,9.18,1.68,1a
2019-07-12_131405:320,-0.333496,0.057953,-0.135223,-0.008426000000000001,0.0062380000000000005,0.036714,-32.060001,9.87,2.5,1a
2019-07-12_131405:340,-0.335022,0.043213,-0.124054,-0.007755,0.005963,0.039307999999999996,-32.060001,9.87,2.5,1a
2019-07-12_131405:360,-0.35436999999999996,0.037108999999999996,-0.12912,-0.007145,0.000866,0.040559,-32.869999,11.75,1.68,1a
2019-07-12_131405:380,-0.344177,0.034058,-0.127106,-0.007206000000000001,-0.001941,0.038728,-32.869999,11.75,1.68,1a
2019-07-12_131405:400,-0.337067,0.03302,-0.12506099999999998,-0.007541,-0.0052369999999999995,0.037324,-32.869999,11.75,1.68,1a
2019-07-12_131405:420,-0.401123,0.020325,-0.127106,-0.008152,-0.007587000000000001,0.037568,-32.869999,12.5,2.06,1a
2019-07-12_131405:440,-0.396057,0.013213999999999998,-0.150482,-0.008091,-0.00719,0.038576,-32.869999,12.5,2.06,1a
2019-07-12_131405:460,-0.489075,0.002014,-0.144379,-0.0061070000000000004,-0.005634,0.036256000000000004,-31.68,12.87,1.25,1a
2019-07-12_131405:480,-0.5368649999999999,-0.0055850000000000006,-0.189636,-0.005954,-0.010394,0.031099,-31.68,12.87,1.25,1a
2019-07-12_131405:500,-0.575012,-0.016753999999999998,-0.228271,-0.003544,-0.014057,0.027437,-31.68,12.87,1.25,1a
2019-07-12_131405:520,-0.5505979999999999,-0.029968,-0.23028600000000002,-0.00159,-0.01305,0.026643,-31.370001000000002,14.75,1.25,1a
2019-07-12_131405:540,-0.8576969999999999,-0.062012,-0.20285,0.000576,-0.008990999999999999,0.024507,-31.370001000000002,14.75,1.25,1a
2019-07-12_131405:560,-0.705688,-0.06149299999999999,-0.360962,0.000241,-0.0125,0.024843,-31.370001000000002,15.06,1.25,1a
2019-07-12_131405:580,-0.600433,-0.102173,-0.257233,0.008694,-0.004047,0.021181000000000002,-31.370001000000002,15.06,1.25,1a
2019-07-12_131405:600,-0.530273,-0.108795,-0.307068,0.006222,-0.007801000000000001,0.01169,-31.370001000000002,15.06,1.25,1a
2019-07-12_131405:620,-0.394531,-0.11386099999999999,-0.322327,0.010067,-0.003589,0.012178,-31.0,15.5,0.5,1a
2019-07-12_131405:640,-0.31369,-0.128601,-0.30300900000000003,0.010403,-0.00307,0.018403,-31.0,15.5,0.5,1a
2019-07-12_131405:660,-0.441803,-0.141846,-0.285217,0.009335,-0.004779,0.018953,-32.060001,16.25,1.68,1a
2019-07-12_131405:680,-0.492645,-0.154022,-0.308594,0.0072900000000000005,-0.003314,0.014558000000000001,-32.060001,16.25,1.68,1a
2019-07-12_131405:700,-0.404694,-0.160645,-0.274017,0.008938,-0.000781,0.005586,-32.060001,16.25,1.68,1a
2019-07-12_131405:720,-0.394012,-0.151001,-0.253693,0.008419,-0.002796,-0.008329999999999999,-31.370001000000002,16.25,1.25,1a
2019-07-12_131405:740,-0.42858900000000005,-0.124054,-0.243011,0.0068319999999999995,-0.0025210000000000002,-0.016875,-31.370001000000002,16.25,1.25,1a
2019-07-12_131405:760,-0.402161,-0.10928299999999999,-0.231323,0.0060079999999999995,-0.00185,-0.015135,-30.18,15.87,2.06,1a
2019-07-12_131405:780,-0.381317,-0.09301799999999999,-0.199799,0.005764,-0.0032530000000000002,-0.015165999999999999,-30.18,15.87,2.06,1a
2019-07-12_131405:800,-0.36248800000000003,-0.073212,-0.190125,0.003964,-0.004321,-0.022399000000000002,-30.18,15.87,2.06,1a
2019-07-12_131405:820,-0.35131799999999996,-0.030487,-0.162689,0.002041,-0.003467,-0.027708999999999998,-31.68,15.87,0.87,1a
2019-07-12_131405:840,-0.35791,-0.009644,-0.144897,-0.001072,-0.000995,-0.025297999999999998,-31.68,15.87,0.87,1a
2019-07-12_131405:860,-0.352844,-0.005065999999999999,-0.131653,-0.004612,0.001141,-0.019255,-32.060001,14.37,0.87,1a
2019-07-12_131405:880,-0.352844,-0.013213999999999998,-0.12200899999999999,-0.007206000000000001,0.002118,-0.016295,-32.060001,14.37,0.87,1a
2019-07-12_131405:900,-0.36654699999999996,-0.027435,-0.124054,-0.008152,0.0007440000000000001,-0.015349000000000002,-32.060001,14.37,0.87,1a
2019-07-12_131405:920,-0.361969,-0.035065,-0.126068,-0.007023000000000001,-0.001392,-0.013640000000000001,-32.5,13.25,0.06,1a
2019-07-12_131405:940,-0.384857,-0.047272,-0.12454200000000001,-0.005832,-0.004444,-0.011962,-32.5,13.25,0.06,1a
2019-07-12_131405:960,-0.392487,-0.052338,-0.137268,-0.004642,-0.007465,-0.009917,-33.18,14.0,0.87,1a
2019-07-12_131405:980,-0.385864,-0.056915,-0.141327,-0.002872,-0.009662,-0.008787999999999999,-33.18,14.0,0.87,1a
2019-07-12_131406:000,-0.427063,-0.059479,-0.140808,-0.002414,-0.011524,-0.010435999999999999,-33.18,14.0,0.87,1a
2019-07-12_131406:020,-0.46316499999999994,-0.056427,-0.177948,-0.004001,-0.014362,-0.009459,-33.560001,13.25,0.5,1a
2019-07-12_131406:040,-0.48349,-0.06405599999999999,-0.171326,-0.003879,-0.015581999999999999,-0.006652,-33.560001,13.25,0.5,1a
2019-07-12_131406:060,-0.558746,-0.061005,-0.20486500000000002,-0.005771,-0.017169,-0.008634999999999999,-34.0,13.25,-0.68,1a
2019-07-12_131406:080,-0.558228,-0.050323,-0.226227,-0.006687,-0.015033000000000001,-0.012754999999999999,-34.0,13.25,-0.68,1a
2019-07-12_131406:100,-0.538391,-0.021851,-0.220123,-0.007267,-0.013385,-0.015746,-34.0,13.25,-0.68,1a
2019-07-12_131406:120,-0.876007,0.004547,-0.243011,-0.011264,-0.016712,-0.012816,-33.560001,12.18,-0.68,1a
2019-07-12_131406:140,-0.624847,0.008636,-0.32132,-0.014315999999999999,-0.02074,0.005647,-33.560001,12.18,-0.68,1a
2019-07-12_131406:160,-0.43823199999999995,0.031006,-0.296387,-0.013584,-0.018817,0.010255,-35.060001,11.75,-0.68,1a
2019-07-12_131406:180,-0.404694,0.053863999999999995,-0.327423,-0.012119,-0.022083000000000002,0.000245,-35.060001,11.75,-0.68,1a
2019-07-12_131406:200,-0.395538,0.091003,-0.335022,-0.004520000000000001,-0.017414,-0.021391999999999998,-35.060001,11.75,-0.68,1a
2019-07-12_131406:220,-0.585693,0.142334,-0.302002,-0.0004,-0.009113,-0.04019,-35.060001,12.5,-2.25,1a
2019-07-12_131406:240,-0.49365200000000004,0.187592,-0.325378,-0.004947,-0.004596,-0.031157,-35.060001,12.5,-2.25,1a
2019-07-12_131406:260,-0.434174,0.187592,-0.284698,-0.008823000000000001,-0.002246,0.000398,-34.68,11.75,-2.25,1a
2019-07-12_131406:280,-0.411285,0.154022,-0.281647,-0.014927000000000001,-0.002735,0.025453,-34.68,11.75,-2.25,1a
2019-07-12_131406:300,-0.43621800000000005,0.110321,-0.260803,-0.018039,-0.002918,0.03174,-34.68,11.75,-2.25,1a
2019-07-12_131406:320,-0.417389,0.097107,-0.259796,-0.019778999999999998,-0.0066099999999999996,0.032991,-36.18,10.68,-3.0,1a
2019-07-12_131406:340,-0.411804,0.070648,-0.230804,-0.018711000000000002,-0.008075,0.034944,-36.18,10.68,-3.0,1a
2019-07-12_131406:360,-0.397064,0.048798,-0.21505700000000003,-0.019352,-0.0070680000000000005,0.035188,-35.5,11.06,-2.25,1a
2019-07-12_131406:380,-0.366058,0.031006,-0.183014,-0.018711000000000002,-0.00307,0.036469999999999995,-35.5,11.06,-2.25,1a
2019-07-12_131406:400,-0.347748,0.019806,-0.164215,-0.017246,0.001385,0.040773000000000004,-35.5,11.06,-2.25,1a
2019-07-12_131406:420,-0.353851,0.0030210000000000002,-0.143372,-0.016178,0.004132,0.04355,-35.5,12.5,-3.75,1a
2019-07-12_131406:440,-0.349792,-0.000488,-0.14032,-0.015567,0.004712,0.044008,-35.5,12.5,-3.75,1a
2019-07-12_131406:460,-0.33605999999999997,-0.0030210000000000002,-0.131165,-0.014652000000000002,0.003125,0.043213999999999995,-35.869999,13.25,-3.75,1a
2019-07-12_131406:480,-0.338074,-0.004547,-0.12658699999999998,-0.014835,-0.00047599999999999997,0.041963,-35.869999,13.25,-3.75,1a
2019-07-12_131406:500,-0.338593,-0.004547,-0.131165,-0.015049000000000002,-0.003925,0.039583,-35.869999,13.25,-3.75,1a
2019-07-12_131406:520,-0.327911,-0.0035399999999999997,-0.133179,-0.015659,-0.007526000000000001,0.035463,-35.060001,14.75,-2.87,1a
2019-07-12_131406:540,-0.420441,-0.015747,-0.12558,-0.016513999999999997,-0.010578,0.030763,-35.060001,14.75,-2.87,1a
2019-07-12_131406:560,-0.451477,-0.029480000000000003,-0.1698,-0.017643,-0.012531,0.030336000000000002,-35.869999,15.87,-2.87,1a
2019-07-12_131406:580,-0.5323180000000001,-0.049316000000000006,-0.160126,-0.015049000000000002,-0.010912999999999999,0.029024,-35.869999,15.87,-2.87,1a
2019-07-12_131406:600,-0.5709529999999999,-0.053375,-0.22216799999999998,-0.014438,-0.01369,0.024568,-35.869999,15.87,-2.87,1a
2019-07-12_131406:620,-0.535858,-0.05438200000000001,-0.23233,-0.012394,-0.01305,0.020936,-35.5,16.559998999999998,-2.87,1a
2019-07-12_131406:640,-0.518066,-0.081329,-0.233337,-0.010288,-0.011371,0.017549000000000002,-35.5,16.559998999999998,-2.87,1a
2019-07-12_131406:660,-0.8556520000000001,-0.097595,-0.24353000000000002,-0.008152,-0.012256,0.009096,-35.060001,17.370001000000002,-4.56,1a
2019-07-12_131406:680,-0.537384,-0.09811399999999999,-0.380798,-0.008395999999999999,-0.021808,0.011842,-35.060001,17.370001000000002,-4.56,1a
2019-07-12_131406:700,-0.492126,-0.107269,-0.266388,-0.001529,-0.015033000000000001,-0.000151,-35.060001,17.370001000000002,-4.56,1a
2019-07-12_131406:720,-0.392487,-0.097107,-0.359955,-0.003544,-0.021197999999999998,-0.010985,-35.5,18.5,-5.68,1a
2019-07-12_131406:740,-0.33300799999999997,-0.09811399999999999,-0.33758499999999997,0.001187,-0.010578,-0.001616,-35.5,18.5,-5.68,1a
2019-07-12_131406:760,-0.445862,-0.136749,-0.27301,0.003109,-0.002246,0.011903,-35.060001,17.75,-7.25,1a
2019-07-12_131406:780,-0.529266,-0.132172,-0.34368899999999997,0.002255,-0.004779,0.018922,-35.060001,17.75,-7.25,1a
2019-07-12_131406:800,-0.420441,-0.160126,-0.29486100000000004,0.005642,-0.003589,0.017213,-35.060001,17.75,-7.25,1a
2019-07-12_131406:820,-0.417389,-0.155548,-0.263855,0.009152,-0.005451,-0.0009449999999999999,-35.869999,17.75,-6.06,1a
2019-07-12_131406:840,-0.429596,-0.127594,-0.29180900000000004,0.009823,-0.009265,-0.011290000000000001,-35.869999,17.75,-6.06,1a
2019-07-12_131406:860,-0.401642,-0.117432,-0.28112800000000004,0.012326,-0.009937,-0.006437999999999999,-35.869999,18.059998999999998,-5.68,1a
2019-07-12_131406:880,-0.391479,-0.11438,-0.259796,0.013913,-0.013385,-0.0068650000000000004,-35.869999,18.059998999999998,-5.68,1a
2019-07-12_131406:900,-0.388428,-0.09301799999999999,-0.256226,0.013119,-0.014575,-0.020995,-35.869999,18.059998999999998,-5.68,1a
2019-07-12_131406:920,-0.37265,-0.061005,-0.213013,0.012783,-0.009876000000000001,-0.032744,-35.5,17.75,-6.87,1a
2019-07-12_131406:940,-0.367584,-0.047272,-0.18811,0.012478,-0.0030399999999999997,-0.036131,-35.5,17.75,-6.87,1a
2019-07-12_131406:960,-0.35131799999999996,-0.037108999999999996,-0.167267,0.010128,0.003857,-0.037932,-36.5,16.559998999999998,-6.06,1a
2019-07-12_131406:980,-0.344177,-0.032013,-0.153015,0.00787,0.008679000000000001,-0.039366000000000005,-36.5,16.559998999999998,-6.06,1a
2019-07-12_131407:000,-0.337067,-0.029968,-0.147949,0.007229000000000001,0.009625,-0.03839,-36.5,16.559998999999998,-6.06,1a
2019-07-12_131407:020,-0.3396,-0.028961,-0.14386,0.007412,0.00758,-0.037047000000000004,-38.0,15.5,-6.06,1a
2019-07-12_131407:040,-0.344696,-0.025421,-0.144379,0.007626000000000001,0.00404,-0.035643,-38.0,15.5,-6.06,1a
2019-07-12_131407:060,-0.34570300000000004,-0.022858,-0.144897,0.008206,0.00108,-0.032408,-39.869999,14.37,-4.56,1a
2019-07-12_131407:080,-0.365021,-0.021851,-0.152008,0.008694,-0.001178,-0.028227,-39.869999,14.37,-4.56,1a
2019-07-12_131407:100,-0.415375,-0.019806,-0.154541,0.009212999999999999,-0.001941,-0.025297999999999998,-39.869999,14.37,-4.56,1a
2019-07-12_131407:120,-0.449432,-0.013213999999999998,-0.177429,0.008267,-0.001392,-0.023038999999999997,-39.869999,13.56,-4.87,1a
2019-07-12_131407:140,-0.496704,-0.009644,-0.182007,0.006893000000000001,-0.0038640000000000002,-0.019011,-39.869999,13.56,-4.87,1a
2019-07-12_131407:160,-0.530792,-0.006592,-0.23284899999999997,0.005093,-0.008411,-0.014159,-39.75,12.06,-5.68,1a
2019-07-12_131407:180,-0.544006,-0.0025329999999999997,-0.22164899999999998,0.005307,-0.008136,-0.013822999999999998,-39.75,12.06,-5.68,1a
2019-07-12_131407:200,-0.488068,0.045745999999999995,-0.257751,0.005429,-0.007129000000000001,-0.015624,-39.75,12.06,-5.68,1a
2019-07-12_131407:220,-0.8383790000000001,0.056915,-0.19775399999999999,0.000851,-0.004657,-0.004393,-40.560001,10.25,-4.87,1a
2019-07-12_131407:240,-0.5505979999999999,0.040649,-0.434692,-0.011264,-0.021747,0.029085000000000003,-40.560001,10.25,-4.87,1a
2019-07-12_131407:260,-0.641113,-0.006072999999999999,-0.21759,-0.009159,-0.000995,0.049257,-41.0,11.75,-4.06,1a
2019-07-12_131407:280,-0.405212,-0.001495,-0.318268,-0.009556,-0.0014529999999999999,0.034791,-41.0,11.75,-4.06,1a
2019-07-12_131407:300,-0.353851,0.032013,-0.29538000000000003,-0.004520000000000001,0.009564,0.012483,-41.0,11.75,-4.06,1a
2019-07-12_131407:320,-0.470276,0.072693,-0.256744,0.002896,0.010570999999999999,-0.0017989999999999998,-40.560001,12.18,-4.06,1a
2019-07-12_131407:340,-0.541443,0.102173,-0.319794,-0.00046100000000000004,0.001141,-0.004058,-40.560001,12.18,-4.06,1a
2019-07-12_131407:360,-0.447906,0.110321,-0.261322,-0.003452,-0.0031309999999999997,0.009828,-41.25,12.5,-4.87,1a
2019-07-12_131407:380,-0.406738,0.10116599999999999,-0.257751,-0.0069,-0.008197,0.017,-41.25,12.5,-4.87,1a
2019-07-12_131407:400,-0.467743,0.092529,-0.274536,-0.011417,-0.011706999999999999,0.013368000000000001,-41.25,12.5,-4.87,1a
2019-07-12_131407:420,-0.46316499999999994,0.087952,-0.28064,-0.014988,-0.013843000000000001,0.015625999999999998,-40.560001,12.87,-4.06,1a
2019-07-12_131407:440,-0.451477,0.05285599999999999,-0.25827,-0.016727000000000002,-0.016895,0.024659999999999998,-40.560001,12.87,-4.06,1a
2019-07-12_131407:460,-0.433655,0.032013,-0.236389,-0.018222,-0.014240000000000001,0.028291000000000004,-40.560001,13.25,-3.68,1a
2019-07-12_131407:480,-0.390442,0.011169,-0.191162,-0.016727000000000002,-0.005817,0.029085000000000003,-40.560001,13.25,-3.68,1a
2019-07-12_131407:500,-0.359955,0.0035399999999999997,-0.168793,-0.013706,0.0033689999999999996,0.031800999999999996,-40.560001,13.25,-3.68,1a
2019-07-12_131407:520,-0.331482,-0.005065999999999999,-0.145905,-0.010806999999999999,0.009564,0.034608,-40.869999,13.56,-4.56,1a
2019-07-12_131407:540,-0.323334,-0.010162000000000001,-0.133179,-0.009951999999999999,0.012097,0.037599,-40.869999,13.56,-4.56,1a
2019-07-12_131407:560,-0.312164,-0.017273,-0.122528,-0.009617,0.010876,0.041505,-40.18,14.0,-4.87,1a
2019-07-12_131407:580,-0.315704,-0.027435,-0.116425,-0.010409999999999999,0.007184,0.044099,-40.18,14.0,-4.87,1a
2019-07-12_131407:600,-0.305542,-0.039642000000000004,-0.11843900000000002,-0.010745999999999999,0.0027890000000000002,0.041688,-40.18,14.0,-4.87,1a
2019-07-12_131407:620,-0.309113,-0.045745999999999995,-0.118958,-0.010256999999999999,-0.001178,0.032075,-40.869999,16.25,-4.56,1a
2019-07-12_131407:640,-0.40823400000000004,-0.048798,-0.111328,-0.009739,-0.0037719999999999997,0.019929,-40.869999,16.25,-4.56,1a
2019-07-12_131407:660,-0.42605600000000005,-0.043213,-0.144897,-0.009739,-0.005359,0.014802000000000001,-39.369999,16.559998999999998,-4.87,1a
2019-07-12_131407:680,-0.520111,-0.06149299999999999,-0.124054,-0.0067480000000000005,-0.005298,0.016023,-39.369999,16.559998999999998,-4.87,1a
2019-07-12_131407:700,-0.5709529999999999,-0.068634,-0.164703,-0.005344,-0.010578,0.013429,-39.369999,16.559998999999998,-4.87,1a
2019-07-12_131407:720,-0.548584,-0.0737,-0.190125,-0.0036049999999999997,-0.015888,0.00992,-39.369999,18.059998999999998,-6.5,1a
2019-07-12_131407:740,-0.52774,-0.079803,-0.17385899999999999,0.001431,-0.017414,0.0037549999999999997,-39.369999,18.059998999999998,-6.5,1a
2019-07-12_131407:760,-0.758545,-0.110321,-0.166229,0.006161,-0.020496,-0.007903,-40.560001,17.75,-5.68,1a
2019-07-12_131407:780,-0.706177,-0.073212,-0.319275,0.009732,-0.026905000000000002,-0.012908000000000001,-40.560001,17.75,-5.68,1a
2019-07-12_131407:800,-0.5572199999999999,-0.12149000000000001,-0.21911599999999998,0.018368000000000002,-0.028308,-0.008727,-40.560001,17.75,-5.68,1a
2019-07-12_131407:820,-0.518066,-0.103699,-0.29538000000000003,0.023403,-0.035816,-0.019530000000000002,-40.560001,17.0,-5.68,1a
2019-07-12_131407:840,-0.433167,-0.098633,-0.335022,0.023953,-0.037676999999999995,-0.020597999999999998,-40.560001,17.0,-5.68,1a
2019-07-12_131407:860,-0.304535,-0.09454299999999999,-0.325378,0.026455000000000003,-0.032825,-0.008787999999999999,-40.869999,16.25,-7.25,1a
2019-07-12_131407:880,-0.49111899999999997,-0.11233499999999999,-0.275055,0.021633000000000003,-0.026782,0.0034189999999999997,-40.869999,16.25,-7.25,1a
2019-07-12_131407:900,-0.461121,-0.135742,-0.364532,0.015713,-0.023119999999999998,0.016298,-40.869999,16.25,-7.25,1a
2019-07-12_131407:920,-0.388916,-0.16217,-0.29538000000000003,0.014003999999999999,-0.013843000000000001,0.021119,-40.869999,15.87,-6.87,1a
2019-07-12_131407:940,-0.37674,-0.165741,-0.29742399999999997,0.011929,-0.013568,0.0071730000000000006,-40.869999,15.87,-6.87,1a
2019-07-12_131407:960,-0.41384899999999997,-0.156067,-0.29995700000000003,0.009670999999999999,-0.015705,-0.007903,-40.560001,16.559998999999998,-6.87,1a
2019-07-12_131407:980,-0.37674,-0.149475,-0.275055,0.010067,-0.014118,-0.012114,-40.560001,16.559998999999998,-6.87,1a
2019-07-12_131408:000,-0.376221,-0.137268,-0.25827,0.011868,-0.013843000000000001,-0.016692,-40.560001,16.559998999999998,-6.87,1a
2019-07-12_131408:020,-0.35638400000000003,-0.100647,-0.231323,0.011531999999999999,-0.011859,-0.029814,-40.560001,15.87,-6.87,1a
2019-07-12_131408:040,-0.3396,-0.076752,-0.204376,0.011531999999999999,-0.006092,-0.039641,-40.560001,15.87,-6.87,1a
2019-07-12_131408:060,-0.327911,-0.052338,-0.177948,0.011868,-0.000781,-0.042174,-41.18,14.37,-8.87,1a
2019-07-12_131408:080,-0.33300799999999997,-0.041168,-0.170807,0.010525,0.001446,-0.042906,-41.18,14.37,-8.87,1a
2019-07-12_131408:100,-0.333496,-0.025421,-0.154541,0.00848,0.001935,-0.043547,-41.18,14.37,-8.87,1a
2019-07-12_131408:120,-0.33758499999999997,-0.019806,-0.147949,0.006679999999999999,0.000714,-0.041686,-42.060001,12.87,-6.87,1a
2019-07-12_131408:140,-0.35436999999999996,-0.016753999999999998,-0.152527,0.004757,-0.002643,-0.038176,-42.060001,12.87,-6.87,1a
2019-07-12_131408:160,-0.369598,-0.014740000000000001,-0.158112,0.002774,-0.006275,-0.035979000000000004,-42.75,12.18,-8.0,1a
2019-07-12_131408:180,-0.3508,-0.010651,-0.168793,0.000729,-0.009265,-0.033599000000000004,-42.75,12.18,-8.0,1a
2019-07-12_131408:200,-0.39859,-0.007599,-0.165741,-0.0004,-0.011706999999999999,-0.031218,-42.75,12.18,-8.0,1a
2019-07-12_131408:220,-0.486023,0.000488,-0.20080599999999998,-0.0027199999999999998,-0.012775,-0.028838,-43.060001,10.25,-6.0,1a
2019-07-12_131408:240,-0.48349,0.0030210000000000002,-0.219635,-0.005436,-0.0125,-0.02365,-43.060001,10.25,-6.0,1a
2019-07-12_131408:260,-0.556702,0.008636,-0.228271,-0.007937999999999999,-0.008808,-0.017424000000000002,-42.75,7.68,-8.0,1a
2019-07-12_131408:280,-0.545013,0.007599,-0.266388,-0.011051,-0.010456,-0.013609999999999999,-42.75,7.68,-8.0,1a
2019-07-12_131408:300,-0.46060200000000007,0.030487,-0.276581,-0.011997,-0.008594,-0.014830000000000001,-42.75,7.68,-8.0,1a
2019-07-12_131408:320,-0.815491,0.038635,-0.212006,-0.013522999999999999,-0.008136,-0.015898,-43.869999,6.18,-7.56,1a
2019-07-12_131408:340,-0.516541,0.054901,-0.45654300000000003,-0.019747999999999998,-0.019428,-0.004850999999999999,-43.869999,6.18,-7.56,1a
2019-07-12_131408:360,-0.517059,0.051849,-0.271484,-0.017825999999999998,-0.011188,0.01468,-44.25,5.87,-8.37,1a
2019-07-12_131408:380,-0.338593,0.066589,-0.393005,-0.019962,-0.018817,0.012239,-44.25,5.87,-8.37,1a
2019-07-12_131408:400,-0.305054,0.08590700000000001,-0.384338,-0.018833000000000003,-0.016498,-9e-05,-44.25,5.87,-8.37,1a
2019-07-12_131408:420,-0.517548,0.115906,-0.336548,-0.012211,-0.009998,-0.012877000000000001,-43.5,4.75,-10.0,1a
2019-07-12_131408:440,-0.539917,0.143372,-0.404694,-0.012851,-0.009845,-0.017728999999999998,-43.5,4.75,-10.0,1a
2019-07-12_131408:460,-0.440796,0.157593,-0.319275,-0.013401,-0.002338,-0.00128,-44.0,3.56,-8.87,1a
2019-07-12_131408:480,-0.421967,0.14743,-0.31012,-0.017490000000000002,-0.00014099999999999998,0.017488,-44.0,3.56,-8.87,1a
2019-07-12_131408:500,-0.447388,0.115906,-0.29895,-0.018772,0.004895,0.02762,-44.0,3.56,-8.87,1a
2019-07-12_131408:520,-0.41232299999999994,0.10116599999999999,-0.282654,-0.01923,0.005902,0.030670999999999997,-43.560001,2.87,-8.5,1a
2019-07-12_131408:540,-0.385864,0.080322,-0.249115,-0.017978,0.002972,0.031618,-43.560001,2.87,-8.5,1a
2019-07-12_131408:560,-0.37265,0.065582,-0.23233,-0.016727000000000002,0.001782,0.033326999999999996,-42.5,4.5,-8.87,1a
2019-07-12_131408:580,-0.345215,0.043701,-0.194214,-0.015171,0.001935,0.036775,-42.5,4.5,-8.87,1a
2019-07-12_131408:600,-0.337067,0.035583,-0.17385899999999999,-0.013248,0.00227,0.041108,-42.5,4.5,-8.87,1a
2019-07-12_131408:620,-0.334534,0.025908999999999998,-0.154022,-0.011722,0.002179,0.042908999999999996,-45.060001,4.37,-8.5,1a
2019-07-12_131408:640,-0.334015,0.023375999999999997,-0.146912,-0.010654,0.000866,0.042482,-45.060001,4.37,-8.5,1a
2019-07-12_131408:660,-0.328949,0.015228,-0.141327,-0.009951999999999999,-0.0015140000000000002,0.042116,-43.560001,5.18,-8.87,1a
2019-07-12_131408:680,-0.327423,0.012177,-0.140808,-0.009159,-0.005359,0.040223,-43.560001,5.18,-8.87,1a
2019-07-12_131408:700,-0.325378,0.007599,-0.145386,-0.008152,-0.008136,0.035005,-43.560001,5.18,-8.87,1a
2019-07-12_131408:720,-0.320801,0.008636,-0.147949,-0.00687,-0.009326000000000001,0.027681,-44.369999,7.37,-8.87,1a
2019-07-12_131408:740,-0.41333000000000003,0.006072999999999999,-0.13623,-0.005375,-0.008716,0.022462,-44.369999,7.37,-8.87,1a
2019-07-12_131408:760,-0.42453,0.007599,-0.18454,-0.0037270000000000003,-0.010059,0.022798,-44.0,8.18,-8.5,1a
2019-07-12_131408:780,-0.501282,-0.012695,-0.170319,0.000576,-0.007129000000000001,0.023378,-44.0,8.18,-8.5,1a
2019-07-12_131408:800,-0.544495,-0.01828,-0.20285,0.002316,-0.00893,0.022522999999999998,-44.0,8.18,-8.5,1a
2019-07-12_131408:820,-0.515015,-0.023375999999999997,-0.24706999999999998,0.005246,-0.009509,0.0253,-43.560001,9.25,-7.68,1a
2019-07-12_131408:840,-0.477905,-0.043701,-0.22979699999999997,0.008206,-0.010242,0.027223,-43.560001,9.25,-7.68,1a
2019-07-12_131408:860,-0.689392,-0.066071,-0.32995599999999997,0.007412,-0.022479,0.025422,-44.0,10.0,-8.5,1a
2019-07-12_131408:880,-0.653809,-0.10116599999999999,-0.398071,0.009732,-0.0331,0.026155,-44.0,10.0,-8.5,1a
2019-07-12_131408:900,-0.6324770000000001,-0.108795,-0.437225,0.01141,-0.044696,0.017061,-44.0,10.0,-8.5,1a
2019-07-12_131408:920,-0.433655,-0.121002,-0.412811,0.013394,-0.028766000000000003,0.0025039999999999997,-44.0,10.68,-8.06,1a
2019-07-12_131408:940,-0.344696,-0.09963999999999999,-0.29486100000000004,0.009884,-0.004444,-0.007781000000000001,-44.0,10.68,-8.06,1a
2019-07-12_131408:960,-0.348267,-0.09963999999999999,-0.330475,0.0035060000000000004,0.000195,0.015962,-44.0,10.25,-9.68,1a
2019-07-12_131408:980,-0.43670699999999996,-0.138794,-0.35943600000000003,0.005215,-0.00038500000000000003,0.038972,-44.0,10.25,-9.68,1a
2019-07-12_131409:000,-0.377228,-0.183014,-0.337067,0.004361,-0.004596,0.019806999999999998,-44.0,10.25,-9.68,1a
2019-07-12_131409:020,-0.385376,-0.169281,-0.302002,0.00491,-0.010669,-0.018218,-43.869999,11.37,-9.68,1a
2019-07-12_131409:040,-0.417389,-0.142334,-0.307068,0.007351000000000001,-0.010456,-0.027708999999999998,-43.869999,11.37,-9.68,1a
2019-07-12_131409:060,-0.37265,-0.127106,-0.284698,0.010922,-0.005939,-0.016204,-44.25,11.06,-10.06,1a
2019-07-12_131409:080,-0.346222,-0.12558,-0.264862,0.011257,-0.004718,-0.017546,-44.25,11.06,-10.06,1a
2019-07-12_131409:100,-0.34674099999999997,-0.08996599999999999,-0.25317399999999995,0.0108,-0.004779,-0.031401,-44.25,11.06,-10.06,1a
2019-07-12_131409:120,-0.337067,-0.063538,-0.235382,0.011531999999999999,-0.002918,-0.04019,-44.25,9.87,-8.75,1a
2019-07-12_131409:140,-0.325378,-0.030487,-0.201843,0.011134999999999999,-0.00014099999999999998,-0.0437,-44.25,9.87,-8.75,1a
2019-07-12_131409:160,-0.324371,-0.016266,-0.186066,0.007626000000000001,0.002118,-0.046691,-45.369999,8.75,-8.75,1a
2019-07-12_131409:180,-0.320282,0.000488,-0.168274,0.0035670000000000003,0.0033079999999999997,-0.044097000000000004,-45.369999,8.75,-8.75,1a
2019-07-12_131409:200,-0.326904,0.002014,-0.160645,0.000637,0.002118,-0.035795999999999994,-45.369999,8.75,-8.75,1a
2019-07-12_131409:220,-0.35739099999999996,-0.001007,-0.1586,-0.002536,-0.00072,-0.028960000000000003,-45.75,5.06,-8.75,1a
2019-07-12_131409:240,-0.375702,-0.006072999999999999,-0.161652,-0.005832,-0.003925,-0.024657,-45.75,5.06,-8.75,1a
2019-07-12_131409:260,-0.359955,-0.008118,-0.164215,-0.007816,-0.007129000000000001,-0.019865999999999998,-46.5,5.5,-9.18,1a
2019-07-12_131409:280,-0.379272,-0.012177,-0.166229,-0.009281000000000001,-0.010333,-0.017424000000000002,-46.5,5.5,-9.18,1a
2019-07-12_131409:300,-0.435699,-0.007599,-0.174896,-0.011814,-0.011859,-0.016692,-46.5,5.5,-9.18,1a
2019-07-12_131409:320,-0.43774399999999997,-0.006072999999999999,-0.20742800000000003,-0.014377000000000001,-0.013568,-0.011351,-47.560001,3.56,-9.18,1a
2019-07-12_131409:340,-0.45043900000000003,-0.010651,-0.208954,-0.016452,-0.016375999999999998,-0.005522,-47.560001,3.56,-9.18,1a
2019-07-12_131409:360,-0.508423,-0.013213999999999998,-0.277588,-0.019747999999999998,-0.023059,-0.002806,-48.0,1.87,-8.0,1a
2019-07-12_131409:380,-0.496704,-0.014221000000000001,-0.29486100000000004,-0.01984,-0.026202999999999997,-0.003722,-48.0,1.87,-8.0,1a
2019-07-12_131409:400,-0.5073850000000001,-0.000488,-0.28064,-0.018894,-0.024982,-0.009917,-48.0,1.87,-8.0,1a
2019-07-12_131409:420,-0.862274,0.016753999999999998,-0.315216,-0.021488,-0.02486,-0.007445,-47.25,2.18,-9.56,1a
2019-07-12_131409:440,-0.546539,0.017792,-0.399597,-0.024082,-0.028766000000000003,0.018341999999999997,-47.25,2.18,-9.56,1a
2019-07-12_131409:460,-0.334534,0.031006,-0.346222,-0.019901,-0.018878,0.025453,-47.25,-0.25,-10.0,1a
2019-07-12_131409:480,-0.29486100000000004,0.057953,-0.360962,-0.020359,-0.021259,0.006868000000000001,-47.25,-0.25,-10.0,1a
2019-07-12_131409:500,-0.395538,0.086426,-0.382324,-0.013522999999999999,-0.019489,-0.018340000000000002,-47.25,-0.25,-10.0,1a
2019-07-12_131409:520,-0.5058590000000001,0.13269,-0.40570100000000003,-0.010593,-0.019733,-0.030425,-48.0,0.68,-11.06,1a
2019-07-12_131409:540,-0.410797,0.163177,-0.41485600000000006,-0.0098,-0.024127000000000003,-0.023772,-48.0,0.68,-11.06,1a
2019-07-12_131409:560,-0.431122,0.151489,-0.37112399999999995,-0.013004,-0.025775,-0.004332,-47.25,-0.37,-12.0,1a
2019-07-12_131409:580,-0.42453,0.13269,-0.37011700000000003,-0.013248,-0.024585,0.017731999999999998,-47.25,-0.37,-12.0,1a
2019-07-12_131409:600,-0.40774499999999997,0.10318,-0.346222,-0.011326000000000001,-0.020281999999999998,0.026491000000000004,-47.25,-0.37,-12.0,1a
2019-07-12_131409:620,-0.396057,0.09149199999999999,-0.326385,-0.010256999999999999,-0.017505,0.026094,-48.060001,-0.68,-11.56,1a
2019-07-12_131409:640,-0.404694,0.072174,-0.293335,-0.008334999999999999,-0.013172,0.031800999999999996,-48.060001,-0.68,-11.56,1a
2019-07-12_131409:660,-0.38385,0.053863999999999995,-0.268433,-0.0060149999999999995,-0.005695,0.041352999999999994,-48.0,-0.25,-14.0,1a
2019-07-12_131409:680,-0.354858,0.033539,-0.226227,-0.004886,0.0024530000000000003,0.04355,-48.0,-0.25,-14.0,1a
2019-07-12_131409:700,-0.347229,0.029480000000000003,-0.20944200000000002,-0.004764,0.009015,0.041505,-48.0,-0.25,-14.0,1a
2019-07-12_131409:720,-0.346222,0.029480000000000003,-0.20385699999999998,-0.004703,0.014203,0.041901999999999995,-47.560001,1.06,-13.06,1a
2019-07-12_131409:740,-0.328949,0.018799,-0.178955,-0.004947,0.016003,0.041627,-47.560001,1.06,-13.06,1a
2019-07-12_131409:760,-0.323334,0.016753999999999998,-0.174896,-0.005893,0.013684,0.038576,-47.560001,2.56,-12.25,1a
2019-07-12_131409:780,-0.322845,0.011687999999999999,-0.174896,-0.0065650000000000005,0.008435,0.035524,-47.560001,2.56,-12.25,1a
2019-07-12_131409:800,-0.300476,0.007599,-0.177948,-0.005832,0.003735,0.03235,-47.560001,2.56,-12.25,1a
2019-07-12_131409:820,-0.311127,0.006592,-0.174377,-0.005039,0.000348,0.026918,-48.68,4.5,-11.56,1a
2019-07-12_131409:840,-0.393005,0.006592,-0.189636,-0.004581,7.3e-05,0.024232,-48.68,4.5,-11.56,1a
2019-07-12_131409:860,-0.379791,0.009125,-0.20843499999999998,-0.003147,0.000592,0.025026,-48.369999,5.87,-11.06,1a
2019-07-12_131409:880,-0.48654200000000003,0.000488,-0.245056,-0.0022010000000000003,-0.002246,0.023438999999999998,-48.369999,5.87,-11.06,1a
2019-07-12_131409:900,-0.517548,-0.005065999999999999,-0.273529,-0.002811,-0.008869,0.023775,-48.369999,5.87,-11.06,1a
2019-07-12_131409:920,-0.530792,-0.008118,-0.264862,-0.000736,-0.006,0.024843,-48.68,5.87,-10.75,1a
2019-07-12_131409:940,-0.522125,-0.016753999999999998,-0.250641,-0.000553,0.001385,0.019075,-48.68,5.87,-10.75,1a
2019-07-12_131409:960,-0.584167,0.006592,-0.409271,-0.005039,-0.007587000000000001,0.015809,-48.75,6.25,-11.56,1a
2019-07-12_131409:980,-0.5267029999999999,-0.021851,-0.39502,-0.002475,-0.008533,0.015747999999999998,-48.75,6.25,-11.56,1a
2019-07-12_131410:000,-0.40011599999999997,-0.029480000000000003,-0.390961,-0.007816,-0.025379,0.005922,-48.75,6.25,-11.56,1a
2019-07-12_131410:020,-0.44027700000000003,-0.033539,-0.386383,-0.009922,-0.029498000000000003,0.0076,-48.369999,7.37,-12.0,1a
2019-07-12_131410:040,-0.329437,-0.05438200000000001,-0.38739,-0.012943000000000001,-0.022022,0.025178,-48.369999,7.37,-12.0,1a
2019-07-12_131410:060,-0.341125,-0.065582,-0.381317,-0.017093,-0.013904,0.036592,-49.060001,7.37,-12.25,1a
2019-07-12_131410:080,-0.496704,-0.09454299999999999,-0.411804,-0.021488,-0.007281999999999999,0.038392,-49.060001,7.37,-12.25,1a
2019-07-12_131410:100,-0.488068,-0.098633,-0.41232299999999994,-0.02161,0.000714,0.032991,-49.060001,7.37,-12.25,1a
2019-07-12_131410:120,-0.373688,-0.105225,-0.341125,-0.019625999999999998,0.007916,0.017,-47.560001,8.5,-13.06,1a
2019-07-12_131410:140,-0.37674,-0.099121,-0.327911,-0.018833000000000003,0.012005,0.001924,-47.560001,8.5,-13.06,1a
2019-07-12_131410:160,-0.368591,-0.072693,-0.311646,-0.019015999999999998,0.014141999999999998,0.004548,-48.0,9.68,-12.0,1a
2019-07-12_131410:180,-0.364532,-0.068115,-0.29232800000000003,-0.01865,0.010541,0.015687,-48.0,9.68,-12.0,1a
2019-07-12_131410:200,-0.35739099999999996,-0.072693,-0.267914,-0.019443000000000002,0.005658,0.017091,-48.0,9.68,-12.0,1a
2019-07-12_131410:220,-0.35180700000000004,-0.068634,-0.262848,-0.02103,0.003735,0.009523,-47.869999,9.25,-13.06,1a
2019-07-12_131410:240,-0.35180700000000004,-0.055908000000000006,-0.231323,-0.021366,0.00636,0.002687,-47.869999,9.25,-13.06,1a
2019-07-12_131410:260,-0.35638400000000003,-0.048279,-0.22116100000000002,-0.022556,0.009289,-0.002806,-48.560001,9.68,-10.75,1a
2019-07-12_131410:280,-0.3508,-0.033539,-0.213013,-0.025089,0.011426,-0.006194,-48.560001,9.68,-10.75,1a
2019-07-12_131410:300,-0.341644,-0.026427999999999997,-0.20233199999999998,-0.028049,0.011029,-0.005339,-48.560001,9.68,-10.75,1a
2019-07-12_131410:320,-0.34063699999999997,-0.028442000000000002,-0.19927999999999998,-0.029269999999999997,0.009625,-0.004118999999999999,-47.869999,9.25,-11.06,1a
2019-07-12_131410:340,-0.363007,-0.029968,-0.198273,-0.032566000000000005,0.005261,-0.002989,-47.869999,9.25,-11.06,1a
2019-07-12_131410:360,-0.37011700000000003,-0.034058,-0.20742800000000003,-0.033847,0.0037049999999999995,-0.002349,-47.869999,9.25,-10.37,1a
2019-07-12_131410:380,-0.361481,-0.036072,-0.20639000000000002,-0.033512,-8e-05,0.000368,-47.869999,9.25,-10.37,1a
2019-07-12_131410:400,-0.368073,-0.039124,-0.20944200000000002,-0.032291,-0.00246,-0.002257,-47.869999,9.25,-10.37,1a
2019-07-12_131410:420,-0.397583,-0.034058,-0.21453899999999998,-0.031252999999999996,-0.0025210000000000002,-0.003935,-49.0,7.37,-8.75,1a
2019-07-12_131410:440,-0.40316799999999997,-0.024384,-0.21505700000000003,-0.030032999999999997,-0.0013310000000000002,-0.000151,-49.0,7.37,-8.75,1a
2019-07-12_131410:460,-0.455017,-0.021851,-0.220123,-0.030521,-0.004779,0.006196,-48.68,7.37,-9.18,1a
2019-07-12_131410:480,-0.477386,-0.022369,-0.266907,-0.031039999999999998,-0.009509,0.011384,-48.68,7.37,-9.18,1a
2019-07-12_131410:500,-0.47180200000000005,-0.025421,-0.270966,-0.031162,-0.010456,0.009706000000000001,-48.68,7.37,-9.18,1a
2019-07-12_131410:520,-0.48858599999999996,-0.009125,-0.281647,-0.031528,-0.009937,0.006776000000000001,-49.060001,6.68,-10.0,1a
2019-07-12_131410:540,-0.508911,0.004547,-0.283173,-0.032444,-0.0037719999999999997,0.0016489999999999999,-49.060001,6.68,-10.0,1a
2019-07-12_131410:560,-0.666534,0.043701,-0.363007,-0.034763,-0.005634,0.002839,-48.369999,7.0,-10.0,1a
2019-07-12_131410:580,-0.549072,0.031006,-0.358429,-0.038212,0.00108,0.017488,-48.369999,7.0,-10.0,1a
2019-07-12_131410:600,-0.477905,0.069122,-0.30300900000000003,-0.046726,0.000592,0.023042,-48.369999,7.0,-10.0,1a
2019-07-12_131410:620,-0.496704,0.08590700000000001,-0.316223,-0.047458,0.003247,0.026979000000000003,-48.369999,5.56,-9.56,1a
2019-07-12_131410:640,-0.331482,0.108795,-0.304016,-0.047641,0.0036439999999999997,0.017,-48.369999,5.56,-9.56,1a
2019-07-12_131410:660,-0.35180700000000004,0.12301600000000001,-0.28418000000000004,-0.047825,0.001599,-0.003386,-49.369999,6.25,-10.37,1a
2019-07-12_131410:680,-0.467224,0.162689,-0.28875700000000004,-0.048649,0.003796,-0.005187,-49.369999,6.25,-10.37,1a
2019-07-12_131410:700,-0.445374,0.194702,-0.303528,-0.049381,0.00404,0.015169,-49.369999,6.25,-10.37,1a
2019-07-12_131410:720,-0.41384899999999997,0.194702,-0.267426,-0.050296,0.004132,0.024263,-47.560001,7.37,-9.68,1a
2019-07-12_131410:740,-0.40368699999999996,0.193695,-0.284698,-0.059177,-4.9e-05,0.033388,-47.560001,7.37,-9.68,1a
2019-07-12_131410:760,-0.40063499999999996,0.193176,-0.275055,-0.06113,-0.00038500000000000003,0.037507,-48.0,6.68,-10.75,1a
2019-07-12_131410:780,-0.381317,0.176422,-0.276581,-0.066349,-0.006793,0.055574,-48.0,6.68,-10.75,1a
2019-07-12_131410:800,-0.366058,0.14032,-0.281647,-0.070347,-0.013294,0.059083000000000004,-48.0,6.68,-10.75,1a
2019-07-12_131410:820,-0.355896,0.119965,-0.277069,-0.071811,-0.015888,0.060274,-47.560001,8.5,-9.56,1a
2019-07-12_131410:840,-0.35638400000000003,0.0849,-0.267426,-0.071384,-0.02016,0.068513,-47.560001,8.5,-9.56,1a
2019-07-12_131410:860,-0.366058,0.06253099999999999,-0.259277,-0.070285,-0.019031,0.070161,-47.560001,8.5,-9.56,1a
2019-07-12_131410:880,-0.384338,0.041687,-0.239441,-0.066013,-0.011463,0.06790299999999999,-47.25,10.0,-10.37,1a
2019-07-12_131410:900,-0.38739,0.036072,-0.23690799999999998,-0.061924,-0.005939,0.066652,-47.25,10.0,-10.37,1a
2019-07-12_131410:920,-0.370636,0.032013,-0.228271,-0.059971000000000003,-0.003925,0.066469,-46.5,12.5,-10.75,1a
2019-07-12_131410:940,-0.361969,0.026427999999999997,-0.21911599999999998,-0.054813,-4.9e-05,0.06299,-46.5,12.5,-10.75,1a
2019-07-12_131410:960,-0.349792,0.020844,-0.209961,-0.053226,0.001446,0.060823,-45.369999,14.75,-11.06,1a
2019-07-12_131410:980,-0.34317,0.016266,-0.201324,-0.048221,0.006756,0.053315999999999995,-45.369999,14.75,-11.06,1a
2019-07-12_131411:000,-0.368591,0.010162000000000001,-0.20233199999999998,-0.044193,0.008496,0.047395,-45.369999,14.75,-11.06,1a
2019-07-12_131411:020,-0.393005,0.008118,-0.213531,-0.041996,0.008679000000000001,0.044343,-44.25,16.25,-11.06,1a
2019-07-12_131411:040,-0.47079499999999996,0.009644,-0.21810900000000003,-0.035495,0.005963,0.035401999999999996,-44.25,16.25,-11.06,1a
2019-07-12_131411:060,-0.514008,0.013213999999999998,-0.237427,-0.033512,0.004193,0.033082,-43.869999,17.370001000000002,-12.25,1a
2019-07-12_131411:080,-0.526215,0.019318000000000002,-0.228271,-0.027652,0.006116,0.029237,-43.869999,17.370001000000002,-12.25,1a
2019-07-12_131411:100,-0.508911,0.020325,-0.21759,-0.025272,0.012005,0.028444,-43.869999,17.370001000000002,-12.25,1a
2019-07-12_131411:120,-0.566864,0.007599,-0.20742800000000003,-0.024265000000000002,0.014721000000000001,0.029085000000000003,-43.869999,19.559998999999998,-12.0,1a
2019-07-12_131411:140,-0.7590640000000001,0.009125,-0.26181,-0.025608,0.005566,0.040376,-43.869999,19.559998999999998,-12.0,1a
2019-07-12_131411:160,-0.5368649999999999,-0.013702,-0.266388,-0.024418000000000002,0.003918,0.047273,-42.75,19.870001000000002,-10.75,1a
2019-07-12_131411:180,-0.482483,-0.007599,-0.24758899999999998,-0.027712999999999998,-0.001178,0.041382999999999996,-42.75,19.870001000000002,-10.75,1a
2019-07-12_131411:200,-0.318756,-0.0055850000000000006,-0.304535,-0.026583999999999997,-0.000324,0.039461,-42.75,19.870001000000002,-10.75,1a
2019-07-12_131411:220,-0.260803,0.0025329999999999997,-0.28112800000000004,-0.026676,0.001599,0.039522,-41.68,21.68,-12.0,1a
2019-07-12_131411:240,-0.41943400000000003,-0.024902,-0.238434,-0.029727999999999997,0.004925,0.038452999999999994,-41.68,21.68,-12.0,1a
2019-07-12_131411:260,-0.5246890000000001,-0.017792,-0.307587,-0.035282,0.004132,0.043213999999999995,-41.369999,22.559998999999998,-10.75,1a
2019-07-12_131411:280,-0.447388,-0.032532,-0.288269,-0.035556,0.007367,0.056366999999999993,-41.369999,22.559998999999998,-10.75,1a
2019-07-12_131411:300,-0.426544,-0.036591000000000005,-0.277588,-0.042942,0.0024530000000000003,0.039307999999999996,-41.369999,22.559998999999998,-10.75,1a
2019-07-12_131411:320,-0.441284,-0.007111,-0.307587,-0.045993,0.001202,0.033326999999999996,-40.25,24.75,-11.56,1a
2019-07-12_131411:340,-0.42248500000000005,0.002014,-0.290802,-0.053562,0.002514,0.048921,-40.25,24.75,-11.56,1a
2019-07-12_131411:360,-0.410278,-0.010162000000000001,-0.29486100000000004,-0.054935000000000005,0.00108,0.053041,-40.25,24.75,-11.56,1a
2019-07-12_131411:380,-0.407227,0.0,-0.287231,-0.066562,-0.00014099999999999998,0.032136,-38.75,24.75,-11.5,1a
2019-07-12_131411:400,-0.411285,0.037108999999999996,-0.256226,-0.070743,0.000989,0.026185000000000003,-38.75,24.75,-11.5,1a
2019-07-12_131411:420,-0.41485600000000006,0.044219999999999995,-0.236389,-0.078373,0.005658,0.030763,-38.369999,26.25,-13.87,1a
2019-07-12_131411:440,-0.40063499999999996,0.037108999999999996,-0.22421300000000002,-0.087345,0.012341,0.040895,-38.369999,26.25,-13.87,1a
2019-07-12_131411:460,-0.392487,0.029480000000000003,-0.203369,-0.098362,0.016736,0.044618,-37.369999,25.870001000000002,-13.87,1a
2019-07-12_131411:480,-0.402161,0.017273,-0.20486500000000002,-0.107029,0.016980000000000002,0.049989,-37.369999,25.870001000000002,-13.87,1a
2019-07-12_131411:500,-0.374695,-0.014221000000000001,-0.204376,-0.117649,0.008679000000000001,0.059572,-37.369999,25.870001000000002,-13.87,1a
2019-07-12_131411:520,-0.361969,-0.034546,-0.19775399999999999,-0.11926600000000001,0.004834000000000001,0.058107000000000006,-36.0,26.25,-17.75,1a
2019-07-12_131411:540,-0.350281,-0.052338,-0.20538299999999998,-0.118076,-0.006670999999999999,0.054840999999999994,-36.0,26.25,-17.75,1a
2019-07-12_131411:560,-0.35131799999999996,-0.065582,-0.209961,-0.116459,-0.010333,0.053499,-36.0,26.25,-17.75,1a
2019-07-12_131411:580,-0.377747,-0.085388,-0.212006,-0.109714,-0.016559,0.046693,-34.75,26.68,-17.75,1a
2019-07-12_131411:600,-0.393494,-0.092529,-0.216583,-0.10736400000000001,-0.017353,0.046602,-34.75,26.68,-17.75,1a
2019-07-12_131411:620,-0.492126,-0.10675,-0.23284899999999997,-0.101719,-0.017016999999999997,0.051057,-33.68,25.559998999999998,-21.68,1a
2019-07-12_131411:640,-0.438751,-0.11438,-0.275055,-0.095432,-0.014513999999999999,0.055513,-33.68,25.559998999999998,-21.68,1a
2019-07-12_131411:660,-0.44384799999999996,-0.138275,-0.230804,-0.08765,-0.010851999999999999,0.0459,-32.18,25.18,-23.559998999999998,1a
2019-07-12_131411:680,-0.43774399999999997,-0.117432,-0.296387,-0.083622,-0.015888,0.038972,-32.18,25.18,-23.559998999999998,1a
2019-07-12_131411:700,-0.42605600000000005,-0.090485,-0.296387,-0.074588,-0.019031,0.041901999999999995,-32.18,25.18,-23.559998999999998,1a
2019-07-12_131411:720,-0.545532,-0.080322,-0.29943800000000004,-0.075199,-0.022937,0.041047,-30.68,23.75,-26.0,1a
2019-07-12_131411:740,-0.620758,-0.008118,-0.48654200000000003,-0.084079,-0.033283,0.053438,-30.68,23.75,-26.0,1a
2019-07-12_131411:760,-0.5348510000000001,-0.005065999999999999,-0.35436999999999996,-0.083469,-0.020862000000000002,0.062806,-30.68,23.75,-26.0,1a
2019-07-12_131411:780,-0.438751,0.040649,-0.380798,-0.090244,-0.021747,0.045625,-29.25,23.0,-28.0,1a
2019-07-12_131411:800,-0.49316400000000005,0.09353600000000001,-0.356903,-0.091587,-0.006548999999999999,0.023712999999999998,-29.25,23.0,-28.0,1a
2019-07-12_131411:820,-0.397064,0.171844,-0.29742399999999997,-0.092624,0.018109,0.016298,-28.059998999999998,23.059998999999998,-30.370001000000002,1a
2019-07-12_131411:840,-0.43823199999999995,0.21911599999999998,-0.276581,-0.099552,0.034924000000000004,0.017824,-28.059998999999998,23.059998999999998,-30.370001000000002,1a
2019-07-12_131411:860,-0.432648,0.269958,-0.34265100000000004,-0.11368099999999999,0.038433999999999996,0.036043,-28.059998999999998,23.059998999999998,-30.370001000000002,1a
2019-07-12_131411:880,-0.35436999999999996,0.272491,-0.320801,-0.125889,0.034649,0.058503999999999994,-27.75,19.75,-31.18,1a
2019-07-12_131411:900,-0.37011700000000003,0.23791500000000002,-0.311127,-0.140964,0.021374,0.067659,-27.75,19.75,-31.18,1a
2019-07-12_131411:920,-0.389954,0.22116100000000002,-0.32843,-0.15091300000000002,0.010631999999999999,0.074434,-28.5,18.0,-32.369999,1a
2019-07-12_131411:940,-0.369598,0.17843599999999998,-0.32995599999999997,-0.155368,0.000805,0.084504,-28.5,18.0,-32.369999,1a
2019-07-12_131411:960,-0.3508,0.142853,-0.338074,-0.155704,-0.010912999999999999,0.087221,-28.5,18.0,-32.369999,1a
2019-07-12_131411:980,-0.34265100000000004,0.090485,-0.345215,-0.152988,-0.022785,0.085786,-28.5,15.0,-33.560001,1a
2019-07-12_131412:000,-0.34570300000000004,0.057953,-0.33605999999999997,-0.143497,-0.028522000000000002,0.087892,-28.5,15.0,-33.560001,1a
2019-07-12_131412:020,-0.336548,0.025421,-0.29742399999999997,-0.130741,-0.026507999999999997,0.08923500000000001,-26.559998999999998,12.18,-35.560001,1a
2019-07-12_131412:040,-0.33300799999999997,0.009644,-0.26944,-0.117405,-0.019367,0.08923500000000001,-26.559998999999998,12.18,-35.560001,1a
2019-07-12_131412:060,-0.315704,0.000488,-0.236389,-0.10477,-0.01073,0.092073,-26.559998999999998,12.18,-35.560001,1a
2019-07-12_131412:080,-0.311127,-0.0055850000000000006,-0.22164899999999998,-0.09350900000000001,-0.0052369999999999995,0.095796,-25.5,9.68,-37.25,1a
2019-07-12_131412:100,-0.306061,-0.014740000000000001,-0.20944200000000002,-0.08520900000000001,-0.00307,0.095216,-25.5,9.68,-37.25,1a
2019-07-12_131412:120,-0.303528,-0.020325,-0.20843499999999998,-0.07922699999999999,-0.003833,0.090883,-24.0,7.75,-38.060001,1a
2019-07-12_131412:140,-0.319794,-0.034058,-0.216583,-0.072727,-0.00539,0.084566,-24.0,7.75,-38.060001,1a
2019-07-12_131412:160,-0.36654699999999996,-0.05438200000000001,-0.217072,-0.06549400000000001,-0.005298,0.07281599999999999,-24.0,7.75,-38.060001,1a
2019-07-12_131412:180,-0.431122,-0.070648,-0.24096700000000001,-0.056949,-0.003192,0.058961,-24.0,6.68,-37.560001,1a
2019-07-12_131412:200,-0.510437,-0.07775900000000001,-0.22979699999999997,-0.046329,0.00108,0.047333999999999994,-24.0,6.68,-37.560001,1a
2019-07-12_131412:220,-0.5048520000000001,-0.075226,-0.269958,-0.03635,0.001385,0.040773000000000004,-22.870001000000002,5.87,-39.369999,1a
2019-07-12_131412:240,-0.520111,-0.070648,-0.262329,-0.025730000000000003,0.003064,0.031343,-22.870001000000002,5.87,-39.369999,1a
2019-07-12_131412:260,-0.5556949999999999,-0.073212,-0.256226,-0.018619,0.003979,0.021242,-22.870001000000002,5.87,-39.369999,1a
2019-07-12_131412:280,-0.6950069999999999,-0.058960000000000005,-0.316223,-0.014072,-0.0060609999999999995,0.019258,-22.870001000000002,4.5,-39.369999,1a
2019-07-12_131412:300,-0.590759,-0.07928500000000001,-0.358917,-0.00629,-0.011646,0.022401,-22.870001000000002,4.5,-39.369999,1a
2019-07-12_131412:320,-0.506897,-0.063019,-0.36911,-0.0033299999999999996,-0.02254,0.011354000000000001,-23.5,5.87,-38.869999,1a
2019-07-12_131412:340,-0.344696,-0.051849,-0.382812,0.000302,-0.023913999999999998,0.008577,-23.5,5.87,-38.869999,1a
2019-07-12_131412:360,-0.280121,-0.046265,-0.36349499999999996,-0.001224,-0.015186000000000002,0.023378,-23.5,5.87,-38.869999,1a
2019-07-12_131412:380,-0.317749,-0.078278,-0.36911,-0.0018039999999999998,-0.007801000000000001,0.042421,-22.870001000000002,5.18,-38.869999,1a
2019-07-12_131412:400,-0.472321,-0.085388,-0.364532,-0.004764,-0.003711,0.043611000000000004,-22.870001000000002,5.18,-38.869999,1a
2019-07-12_131412:420,-0.404175,-0.086426,-0.385864,-0.004001,-0.0020629999999999997,0.029207,-21.370001000000002,6.25,-38.869999,1a
2019-07-12_131412:440,-0.34317,-0.075745,-0.33605999999999997,-0.003055,-0.000781,0.0005200000000000001,-21.370001000000002,6.25,-38.869999,1a
2019-07-12_131412:460,-0.368073,-0.035583,-0.32843,-0.007816,-0.002704,-0.014098,-21.370001000000002,6.25,-38.869999,1a
2019-07-12_131412:480,-0.373688,-0.014221000000000001,-0.330963,-0.013309,-0.0020629999999999997,0.006532,-22.870001000000002,7.0,-39.369999,1a
2019-07-12_131412:500,-0.35791,-0.034546,-0.31012,-0.018558,-0.003192,0.029146,-22.870001000000002,7.0,-39.369999,1a
2019-07-12_131412:520,-0.36654699999999996,-0.043213,-0.296387,-0.027347000000000003,-0.00426,0.022249,-22.059998999999998,6.25,-38.18,1a
2019-07-12_131412:540,-0.360962,-0.031494,-0.26181,-0.034366,-0.002643,0.005922,-22.059998999999998,6.25,-38.18,1a
2019-07-12_131412:560,-0.358429,-0.030487,-0.239441,-0.037235000000000004,0.000348,0.0008560000000000001,-22.059998999999998,6.25,-38.18,1a
2019-07-12_131412:580,-0.35791,-0.039642000000000004,-0.217072,-0.039554,0.00285,-0.002928,-22.059998999999998,5.87,-38.560001,1a
2019-07-12_131412:600,-0.349274,-0.040649,-0.198792,-0.042606,0.004132,-0.0101,-22.059998999999998,5.87,-38.560001,1a
2019-07-12_131412:620,-0.344696,-0.037108999999999996,-0.190125,-0.043461,0.003003,-0.011382,-22.370001000000002,4.87,-39.0,1a
2019-07-12_131412:640,-0.349274,-0.039124,-0.190125,-0.043064,7.3e-05,-0.008177,-22.370001000000002,4.87,-39.0,1a
2019-07-12_131412:660,-0.35638400000000003,-0.046265,-0.192688,-0.04227,-0.002735,-0.008116,-22.370001000000002,4.87,-39.0,1a
2019-07-12_131412:680,-0.356903,-0.045226999999999996,-0.20843499999999998,-0.041019,-0.006885,-0.009368000000000001,-22.75,3.37,-39.369999,1a
2019-07-12_131412:700,-0.379272,-0.050842,-0.217072,-0.037814999999999994,-0.009723,-0.008574,-22.75,3.37,-39.369999,1a
2019-07-12_131412:720,-0.402649,-0.055908000000000006,-0.22521999999999998,-0.033756,-0.009876000000000001,-0.009307,-23.75,1.5,-38.560001,1a
2019-07-12_131412:740,-0.42248500000000005,-0.053375,-0.230804,-0.031314999999999996,-0.007343000000000001,-0.008574,-23.75,1.5,-38.560001,1a
2019-07-12_131412:760,-0.46060200000000007,-0.049316000000000006,-0.24096700000000001,-0.029392,-0.006275,-0.001006,-23.75,1.5,-38.560001,1a
2019-07-12_131412:780,-0.44027700000000003,-0.052338,-0.276062,-0.027866000000000002,-0.007678,0.008058,-23.370001000000002,-1.06,-38.18,1a
2019-07-12_131412:800,-0.48858599999999996,-0.047272,-0.28674299999999997,-0.027652,-0.010517,0.007326000000000001,-23.370001000000002,-1.06,-38.18,1a
2019-07-12_131412:820,-0.49468999999999996,-0.036591000000000005,-0.323334,-0.029331,-0.014118,0.004274,-23.5,-1.06,-39.75,1a
2019-07-12_131412:840,-0.516541,-0.021851,-0.309601,-0.029238999999999998,-0.010912999999999999,0.005525,-23.5,-1.06,-39.75,1a
2019-07-12_131412:860,-0.787018,-0.0055850000000000006,-0.33300799999999997,-0.031925,-0.01073,0.006379,-23.5,-1.06,-39.75,1a
2019-07-12_131412:880,-0.470276,0.011687999999999999,-0.41943400000000003,-0.036808,-0.015643999999999998,0.015687,-22.870001000000002,-2.56,-38.68,1a
2019-07-12_131412:900,-0.420441,0.041687,-0.32132,-0.034641000000000005,-0.000659,0.012758,-22.870001000000002,-2.56,-38.68,1a
2019-07-12_131412:920,-0.397064,0.097595,-0.409271,-0.038761000000000004,-0.006458,0.004854,-22.5,-4.5,-38.68,1a
2019-07-12_131412:940,-0.325378,0.118958,-0.418915,-0.035831,-0.003833,-0.003264,-22.5,-4.5,-38.68,1a
2019-07-12_131412:960,-0.410797,0.154022,-0.328949,-0.031894,0.0009279999999999999,-0.019988,-22.5,-4.5,-38.68,1a
2019-07-12_131412:980,-0.492645,0.190643,-0.399109,-0.034031,-0.0030399999999999997,-0.033324,-22.870001000000002,-4.75,-37.5,1a
2019-07-12_131413:000,-0.397064,0.226227,-0.374176,-0.036106,-0.0013310000000000002,-0.015806999999999998,-22.870001000000002,-4.75,-37.5,1a
2019-07-12_131413:020,-0.381317,0.199799,-0.339111,-0.034885,0.000134,0.011506,-22.870001000000002,-6.25,-38.68,1a
2019-07-12_131413:040,-0.416901,0.153534,-0.339111,-0.035220999999999995,-4.9e-05,0.019136,-22.870001000000002,-6.25,-38.68,1a
2019-07-12_131413:060,-0.398071,0.144897,-0.308594,-0.034305,0.003796,0.021730000000000003,-22.870001000000002,-6.25,-38.68,1a
2019-07-12_131413:080,-0.366058,0.11080899999999999,-0.279114,-0.030857,0.0033079999999999997,0.037446,-22.870001000000002,-8.06,-37.75,1a
2019-07-12_131413:100,-0.355896,0.081329,-0.25827,-0.026858999999999997,0.00285,0.049652999999999996,-22.870001000000002,-8.06,-37.75,1a
2019-07-12_131413:120,-0.322845,0.061005,-0.220123,-0.024662,0.004834000000000001,0.048738,-22.870001000000002,-8.87,-37.75,1a
2019-07-12_131413:140,-0.314697,0.058441,-0.194702,-0.021700999999999998,0.008099,0.047792,-22.870001000000002,-8.87,-37.75,1a
2019-07-12_131413:160,-0.313171,0.049316000000000006,-0.175903,-0.019046,0.010570999999999999,0.051332,-22.870001000000002,-8.87,-37.75,1a
2019-07-12_131413:180,-0.309113,0.043701,-0.167755,-0.018253,0.0117,0.053193,-24.25,-7.75,-36.68,1a
2019-07-12_131413:200,-0.311127,0.031494,-0.160126,-0.018558,0.009442,0.05352899999999999,-24.25,-7.75,-36.68,1a
2019-07-12_131413:220,-0.33197,0.023895,-0.165741,-0.018619,0.005231,0.053926,-24.68,-7.75,-37.060001,1a
2019-07-12_131413:240,-0.34674099999999997,0.007111,-0.164215,-0.017978,0.002575,0.05166799999999999,-24.68,-7.75,-37.060001,1a
2019-07-12_131413:260,-0.347748,0.000488,-0.170807,-0.017703999999999998,0.000653,0.045747,-24.68,-7.75,-37.060001,1a
2019-07-12_131413:280,-0.382812,-0.009644,-0.172333,-0.016361,-0.00072,0.040833999999999995,-25.370001000000002,-6.68,-37.060001,1a
2019-07-12_131413:300,-0.431122,-0.015747,-0.193695,-0.014315999999999999,-0.001209,0.037385,-25.370001000000002,-6.68,-37.060001,1a
2019-07-12_131413:320,-0.46469099999999997,-0.026427999999999997,-0.198273,-0.011081,0.000317,0.034608,-25.75,-6.0,-36.25,1a
2019-07-12_131413:340,-0.515533,-0.027954000000000003,-0.231812,-0.0069,-0.001789,0.029602999999999997,-25.75,-6.0,-36.25,1a
2019-07-12_131413:360,-0.55365,-0.042694,-0.286224,-0.003055,-0.0066099999999999996,0.026246,-25.75,-6.0,-36.25,1a
2019-07-12_131413:380,-0.49468999999999996,-0.047791,-0.28418000000000004,0.003353,-0.0066099999999999996,0.022066,-28.0,-6.25,-35.869999,1a
2019-07-12_131413:400,-0.673126,-0.0737,-0.280121,0.008541,-0.009387000000000001,0.014406,-28.0,-6.25,-35.869999,1a
2019-07-12_131413:420,-0.636536,-0.075745,-0.43670699999999996,0.011685,-0.02193,0.009645,-27.68,-4.75,-36.25,1a
2019-07-12_131413:440,-0.548584,-0.121002,-0.353851,0.020352000000000002,-0.02193,0.006257,-27.68,-4.75,-36.25,1a
2019-07-12_131413:460,-0.476379,-0.129639,-0.43823199999999995,0.02496,-0.030902,-0.005582999999999999,-27.68,-4.75,-36.25,1a
2019-07-12_131413:480,-0.352844,-0.12353499999999999,-0.42248500000000005,0.029507,-0.024524,-0.009825,-26.5,-4.06,-37.5,1a
2019-07-12_131413:500,-0.26181,-0.127594,-0.390961,0.030392000000000002,-0.011401999999999999,-0.003325,-26.5,-4.06,-37.5,1a
2019-07-12_131413:520,-0.45196499999999995,-0.135742,-0.355377,0.028256,-0.004321,0.002839,-26.5,-3.68,-37.060001,1a
2019-07-12_131413:540,-0.455017,-0.142853,-0.41333000000000003,0.02615,-0.0035280000000000003,0.002046,-26.5,-3.68,-37.060001,1a
2019-07-12_131413:560,-0.35791,-0.141327,-0.312653,0.026882,0.001996,-0.011626000000000001,-26.5,-3.68,-37.060001,1a
2019-07-12_131413:580,-0.361969,-0.12200899999999999,-0.28927600000000003,0.025752999999999998,0.000348,-0.030820999999999998,-26.5,-1.75,-38.25,1a
2019-07-12_131413:600,-0.410797,-0.085388,-0.278107,0.023403,-8e-05,-0.036254,-26.5,-1.75,-38.25,1a
2019-07-12_131413:620,-0.369598,-0.083862,-0.263855,0.021023,-0.00047599999999999997,-0.028013999999999997,-25.75,-1.06,-36.68,1a
2019-07-12_131413:640,-0.34063699999999997,-0.070648,-0.23028600000000002,0.019558000000000002,-0.004108,-0.025115000000000002,-25.75,-1.06,-36.68,1a
2019-07-12_131413:660,-0.329437,-0.05285599999999999,-0.21911599999999998,0.016232,-0.008075,-0.033141000000000004,-25.75,-1.06,-36.68,1a
2019-07-12_131413:680,-0.32486,-0.021851,-0.188599,0.013119,-0.008319,-0.040557,-25.75,-1.5,-37.18,1a
2019-07-12_131413:700,-0.319794,-0.009125,-0.17538499999999999,0.009335,-0.0066099999999999996,-0.041838,-25.75,-1.5,-37.18,1a
2019-07-12_131413:720,-0.322327,0.002014,-0.163696,0.004422,-0.005176,-0.042174,-26.18,-1.5,-37.560001,1a
2019-07-12_131413:740,-0.325897,0.008118,-0.158112,-0.000553,-0.005115,-0.041716,-26.18,-1.5,-37.560001,1a
2019-07-12_131413:760,-0.330475,0.007111,-0.162689,-0.004123,-0.007129000000000001,-0.038787,-26.18,-1.5,-37.560001,1a
2019-07-12_131413:780,-0.349792,0.006072999999999999,-0.167267,-0.006351,-0.009784000000000001,-0.035857,-25.370001000000002,-3.25,-36.369999,1a
2019-07-12_131413:800,-0.364014,0.006592,-0.191162,-0.008884,-0.013233000000000002,-0.033537,-25.370001000000002,-3.25,-36.369999,1a
2019-07-12_131413:820,-0.385376,0.006592,-0.194702,-0.009617,-0.013965,-0.030425,-26.5,-3.25,-37.869999,1a
2019-07-12_131413:840,-0.434692,0.011687999999999999,-0.209961,-0.011264,-0.012836000000000002,-0.027433999999999997,-26.5,-3.25,-37.869999,1a
2019-07-12_131413:860,-0.46823100000000006,0.014740000000000001,-0.227753,-0.013004,-0.010791,-0.02246,-26.5,-3.25,-37.869999,1a
2019-07-12_131413:880,-0.492126,0.017273,-0.242004,-0.014652000000000002,-0.009662,-0.016356,-25.75,-4.5,-38.369999,1a
2019-07-12_131413:900,-0.5109560000000001,0.023375999999999997,-0.277588,-0.016391,-0.012775,-0.012633,-25.75,-4.5,-38.369999,1a
2019-07-12_131413:920,-0.508423,0.035065,-0.305054,-0.019015999999999998,-0.015368999999999999,-0.010375,-25.0,-5.56,-37.18,1a
2019-07-12_131413:940,-0.444855,0.044739,-0.317749,-0.020878,-0.015581999999999999,-0.007384,-25.0,-5.56,-37.18,1a
2019-07-12_131413:960,-0.696533,0.067108,-0.29232800000000003,-0.022831,-0.015643999999999998,-0.002593,-25.0,-5.56,-37.18,1a
2019-07-12_131413:980,-0.6644899999999999,0.081848,-0.484497,-0.027469,-0.023395,0.002778,-24.25,-6.56,-37.560001,1a
2019-07-12_131414:000,-0.416382,0.074738,-0.277069,-0.028933999999999998,-0.006731999999999999,0.01468,-24.25,-6.56,-37.560001,1a
2019-07-12_131414:020,-0.293335,0.096588,-0.35131799999999996,-0.028720999999999997,-0.005695,0.019472,-24.25,-7.75,-37.869999,1a
2019-07-12_131414:040,-0.296906,0.104218,-0.390442,-0.030307,-0.006092,0.013887,-24.25,-7.75,-37.869999,1a
2019-07-12_131414:060,-0.416901,0.127594,-0.35180700000000004,-0.025943,-0.005634,-0.001341,-24.25,-7.75,-37.869999,1a
2019-07-12_131414:080,-0.42605600000000005,0.155548,-0.435699,-0.027469,-0.018695,-0.013152,-24.68,-7.75,-36.369999,1a
2019-07-12_131414:100,-0.423492,0.168274,-0.35791,-0.024875,-0.018817,-0.011045999999999999,-24.68,-7.75,-36.369999,1a
2019-07-12_131414:120,-0.425537,0.161652,-0.363007,-0.026737,-0.019885,0.000795,-25.0,-9.25,-37.560001,1a
2019-07-12_131414:140,-0.441284,0.149475,-0.370636,-0.025394,-0.018817,0.014955000000000001,-25.0,-9.25,-37.560001,1a
2019-07-12_131414:160,-0.373688,0.122528,-0.330963,-0.023136,-0.015643999999999998,0.02585,-25.0,-9.25,-37.560001,1a
2019-07-12_131414:180,-0.382324,0.096069,-0.285217,-0.020359,-0.014575,0.033815,-23.5,-10.37,-37.18,1a
2019-07-12_131414:200,-0.364532,0.078278,-0.262329,-0.017490000000000002,-0.010517,0.041688,-23.5,-10.37,-37.18,1a
2019-07-12_131414:220,-0.339111,0.059479,-0.209961,-0.013736000000000002,-0.002857,0.047151,-23.870001000000002,-9.56,-37.18,1a
2019-07-12_131414:240,-0.338074,0.055908000000000006,-0.189117,-0.011387000000000001,0.004132,0.048799,-23.870001000000002,-9.56,-37.18,1a
2019-07-12_131414:260,-0.327911,0.048279,-0.174377,-0.010532,0.009167,0.049196,-23.870001000000002,-9.56,-37.18,1a
2019-07-12_131414:280,-0.310638,0.044219999999999995,-0.164703,-0.009861,0.0117,0.049348,-24.25,-9.56,-36.75,1a
