timestamp,AccX,AccY,AccZ,GyroX,GyroY,GyroZ,MagX,MagY,MagZ,Activity
2019-07-12_105547:120,-0.302002,-0.045226999999999996,-0.387909,-0.004764,-0.006336,0.004152,-40.18,12.37,-24.5,3b
2019-07-12_105547:140,-0.304535,-0.045226999999999996,-0.388916,-0.004764,-0.0060609999999999995,0.004335,-40.18,12.37,-24.5,3b
2019-07-12_105547:160,-0.30654899999999996,-0.046265,-0.391479,-0.004703,-0.0061530000000000005,0.004152,-39.75,12.06,-23.68,3b
2019-07-12_105547:180,-0.307068,-0.045226999999999996,-0.392487,-0.004886,-0.006092,0.00403,-39.75,12.06,-23.68,3b
2019-07-12_105547:200,-0.307587,-0.045745999999999995,-0.391968,-0.004581,-0.005634,0.0038469999999999997,-39.75,12.06,-23.68,3b
2019-07-12_105547:220,-0.307068,-0.044739,-0.392487,-0.004703,-0.005359,0.0038469999999999997,-38.25,12.06,-26.0,3b
2019-07-12_105547:240,-0.305054,-0.044739,-0.391479,-0.004612,-0.004993,0.0038159999999999995,-38.25,12.06,-26.0,3b
2019-07-12_105547:260,-0.304535,-0.044219999999999995,-0.390961,-0.004612,-0.004993,0.004091,-39.060001,11.68,-24.75,3b
2019-07-12_105547:280,-0.305054,-0.044219999999999995,-0.390442,-0.004612,-0.004779,0.004152,-39.060001,11.68,-24.75,3b
2019-07-12_105547:300,-0.306061,-0.043701,-0.390442,-0.0051,-0.004961999999999999,0.004457,-39.060001,11.68,-24.75,3b
2019-07-12_105547:320,-0.305054,-0.043701,-0.389954,-0.0051,-0.004596,0.004518,-39.060001,12.37,-24.0,3b
2019-07-12_105547:340,-0.304016,-0.044219999999999995,-0.388916,-0.005039,-0.004779,0.004548,-39.060001,12.37,-24.0,3b
2019-07-12_105547:360,-0.306061,-0.045226999999999996,-0.389435,-0.004886,-0.004901,0.004609,-39.060001,11.68,-24.5,3b
2019-07-12_105547:380,-0.305054,-0.046752999999999996,-0.388916,-0.004764,-0.004779,0.005006,-39.060001,11.68,-24.5,3b
2019-07-12_105547:400,-0.308594,-0.047272,-0.388916,-0.004520000000000001,-0.004961999999999999,0.005006,-39.060001,11.68,-24.5,3b
2019-07-12_105547:420,-0.309113,-0.045745999999999995,-0.390442,-0.004398,-0.004566,0.00525,-38.68,12.37,-24.5,3b
2019-07-12_105547:440,-0.307587,-0.045226999999999996,-0.386902,-0.004581,-0.004596,0.00525,-38.68,12.37,-24.5,3b
2019-07-12_105547:460,-0.306061,-0.046752999999999996,-0.388428,-0.004947,-0.004596,0.004915,-38.68,12.37,-24.5,3b
2019-07-12_105547:480,-0.306061,-0.047791,-0.387909,-0.005375,-0.004444,0.004091,-39.369999,12.06,-25.18,3b
2019-07-12_105547:500,-0.305054,-0.046752999999999996,-0.389435,-0.005619,-0.0052369999999999995,0.004274,-39.369999,12.06,-25.18,3b
2019-07-12_105547:520,-0.305054,-0.048798,-0.389435,-0.005161,-0.005115,0.004548,-39.369999,12.37,-23.68,3b
2019-07-12_105547:540,-0.309113,-0.048798,-0.388428,-0.004581,-0.004993,0.004793,-39.369999,12.37,-23.68,3b
2019-07-12_105547:560,-0.30654899999999996,-0.046752999999999996,-0.388428,-0.004459,-0.004993,0.004609,-39.75,11.68,-23.68,3b
2019-07-12_105547:580,-0.305542,-0.044219999999999995,-0.386383,-0.004642,-0.004993,0.004396,-39.75,11.68,-23.68,3b
2019-07-12_105547:600,-0.306061,-0.042694,-0.387909,-0.004825,-0.005054,0.004732,-39.75,11.68,-23.68,3b
2019-07-12_105547:620,-0.30654899999999996,-0.044219999999999995,-0.386902,-0.005619,-0.005176,0.004854,-39.369999,12.06,-24.75,3b
2019-07-12_105547:640,-0.307068,-0.045745999999999995,-0.38739,-0.005771,-0.005115,0.004671,-39.369999,12.06,-24.75,3b
2019-07-12_105547:660,-0.308594,-0.048279,-0.385864,-0.005741,-0.005115,0.004609,-39.060001,12.06,-24.75,3b
2019-07-12_105547:680,-0.308594,-0.049805,-0.38739,-0.005375,-0.00539,0.004671,-39.060001,12.06,-24.75,3b
2019-07-12_105547:700,-0.31012,-0.047791,-0.38739,-0.004612,-0.005298,0.004915,-39.060001,12.06,-24.75,3b
2019-07-12_105547:720,-0.308594,-0.047791,-0.387909,-0.004642,-0.00539,0.004182,-39.060001,12.37,-24.0,3b
2019-07-12_105547:740,-0.309113,-0.046752999999999996,-0.386902,-0.004612,-0.00539,0.003175,-39.060001,12.37,-24.0,3b
2019-07-12_105547:760,-0.309601,-0.046752999999999996,-0.389954,-0.004398,-0.005298,0.004182,-39.060001,12.37,-24.5,3b
2019-07-12_105547:780,-0.311127,-0.046752999999999996,-0.388428,-0.004062,-0.005176,0.004671,-39.060001,12.37,-24.5,3b
2019-07-12_105547:800,-0.31012,-0.045226999999999996,-0.38739,-0.004337,-0.005115,0.003908,-39.060001,12.37,-24.5,3b
2019-07-12_105547:820,-0.309113,-0.044219999999999995,-0.386902,-0.004520000000000001,-0.004901,0.003694,-38.25,12.06,-23.68,3b
2019-07-12_105547:840,-0.308075,-0.045226999999999996,-0.385376,-0.004642,-0.005054,0.0039689999999999994,-38.25,12.06,-23.68,3b
2019-07-12_105547:860,-0.308594,-0.046265,-0.385864,-0.004703,-0.005115,0.00403,-38.68,12.75,-23.68,3b
2019-07-12_105547:880,-0.309113,-0.047272,-0.384857,-0.004642,-0.005359,0.0037549999999999997,-38.68,12.75,-23.68,3b
2019-07-12_105547:900,-0.31012,-0.046265,-0.385864,-0.004581,-0.0055119999999999995,0.0037549999999999997,-38.68,12.75,-23.68,3b
2019-07-12_105547:920,-0.308594,-0.046752999999999996,-0.385864,-0.00394,-0.0055119999999999995,0.003694,-39.75,12.06,-24.5,3b
2019-07-12_105547:940,-0.309601,-0.045226999999999996,-0.384338,-0.0036049999999999997,-0.00539,0.003694,-39.75,12.06,-24.5,3b
2019-07-12_105547:960,-0.308594,-0.044219999999999995,-0.386383,-0.0033909999999999995,-0.00539,0.004152,-40.18,12.75,-24.5,3b
2019-07-12_105547:980,-0.308594,-0.044219999999999995,-0.386902,-0.0036049999999999997,-0.005573,0.004091,-40.18,12.75,-24.5,3b
2019-07-12_105548:000,-0.309113,-0.043213,-0.385376,-0.0037270000000000003,-0.005817,0.0038469999999999997,-40.18,12.75,-24.5,3b
2019-07-12_105548:020,-0.309601,-0.043701,-0.386383,-0.003879,-0.005939,0.004152,-39.060001,12.37,-24.5,3b
2019-07-12_105548:040,-0.308075,-0.043701,-0.384338,-0.004275999999999999,-0.0060609999999999995,0.004335,-39.060001,12.37,-24.5,3b
2019-07-12_105548:060,-0.308594,-0.044739,-0.386383,-0.004459,-0.006092,0.004396,-39.369999,11.25,-23.68,3b
2019-07-12_105548:080,-0.309113,-0.044219999999999995,-0.385864,-0.004398,-0.0060609999999999995,0.004457,-39.369999,11.25,-23.68,3b
2019-07-12_105548:100,-0.31012,-0.044739,-0.38739,-0.004459,-0.0061530000000000005,0.004609,-39.369999,11.25,-23.68,3b
2019-07-12_105548:120,-0.310638,-0.044219999999999995,-0.385864,-0.004398,-0.005756,0.004671,-39.060001,12.37,-25.68,3b
2019-07-12_105548:140,-0.31012,-0.045226999999999996,-0.386902,-0.004581,-0.005573,0.004548,-39.060001,12.37,-25.68,3b
2019-07-12_105548:160,-0.308075,-0.046265,-0.385864,-0.004398,-0.005695,0.004548,-39.060001,12.75,-24.5,3b
2019-07-12_105548:180,-0.307587,-0.045226999999999996,-0.386383,-0.004337,-0.005634,0.004793,-39.060001,12.75,-24.5,3b
2019-07-12_105548:200,-0.307068,-0.047272,-0.386383,-0.004520000000000001,-0.005725,0.005128,-39.060001,12.75,-24.5,3b
2019-07-12_105548:220,-0.311646,-0.045745999999999995,-0.387909,-0.0042450000000000005,-0.005939,0.005128,-39.060001,12.06,-23.25,3b
2019-07-12_105548:240,-0.31012,-0.044739,-0.384338,-0.004459,-0.005725,0.005586,-39.060001,12.06,-23.25,3b
2019-07-12_105548:260,-0.310638,-0.045226999999999996,-0.385864,-0.004581,-0.005634,0.0058,-39.060001,12.06,-23.25,3b
2019-07-12_105548:280,-0.304535,-0.045226999999999996,-0.384338,-0.005222,-0.005451,0.005647,-39.75,12.37,-23.68,3b
2019-07-12_105548:300,-0.304535,-0.046265,-0.384857,-0.005436,-0.006092,0.00525,-39.75,12.37,-23.68,3b
2019-07-12_105548:320,-0.307068,-0.050323,-0.388428,-0.005619,-0.0066099999999999996,0.005189,-39.369999,12.37,-23.68,3b
2019-07-12_105548:340,-0.307587,-0.050323,-0.386902,-0.0051,-0.006793,0.005678,-39.369999,12.37,-23.68,3b
2019-07-12_105548:360,-0.311646,-0.050323,-0.386902,-0.004459,-0.006548999999999999,0.005983,-39.369999,12.37,-23.68,3b
2019-07-12_105548:380,-0.308594,-0.048798,-0.38739,-0.00394,-0.0061530000000000005,0.00525,-38.25,12.06,-24.5,3b
2019-07-12_105548:400,-0.307587,-0.048279,-0.38739,-0.00394,-0.005634,0.004732,-38.25,12.06,-24.5,3b
2019-07-12_105548:420,-0.307068,-0.047272,-0.38739,-0.004062,-0.005634,0.005006,-39.369999,12.37,-23.68,3b
2019-07-12_105548:440,-0.307068,-0.047272,-0.386383,-0.0042450000000000005,-0.005817,0.004732,-39.369999,12.37,-23.68,3b
2019-07-12_105548:460,-0.305542,-0.047272,-0.38739,-0.004337,-0.006,0.004457,-39.369999,12.37,-23.68,3b
2019-07-12_105548:480,-0.305054,-0.048279,-0.388428,-0.004337,-0.005939,0.004915,-39.369999,12.75,-24.059998999999998,3b
2019-07-12_105548:500,-0.31012,-0.047791,-0.388916,-0.004275999999999999,-0.006092,0.005464,-39.369999,12.75,-24.059998999999998,3b
2019-07-12_105548:520,-0.30654899999999996,-0.049316000000000006,-0.386902,-0.004184,-0.005725,0.005311,-40.18,13.5,-24.5,3b
2019-07-12_105548:540,-0.307587,-0.048279,-0.38739,-0.004337,-0.005817,0.004609,-40.18,13.5,-24.5,3b
2019-07-12_105548:560,-0.309601,-0.047791,-0.389954,-0.004520000000000001,-0.005756,0.004915,-40.18,13.5,-24.5,3b
2019-07-12_105548:580,-0.309113,-0.049316000000000006,-0.389435,-0.004275999999999999,-0.005573,0.006196,-39.75,12.75,-23.68,3b
2019-07-12_105548:600,-0.309601,-0.049805,-0.388916,-0.004275999999999999,-0.005054,0.006135,-39.75,12.75,-23.68,3b
2019-07-12_105548:620,-0.308075,-0.049316000000000006,-0.389435,-0.004581,-0.004779,0.005586,-39.060001,12.75,-24.0,3b
2019-07-12_105548:640,-0.307587,-0.050323,-0.385864,-0.004886,-0.00484,0.005922,-39.060001,12.75,-24.0,3b
2019-07-12_105548:660,-0.308075,-0.051330999999999995,-0.387909,-0.005039,-0.004566,0.006044,-39.060001,12.75,-24.0,3b
2019-07-12_105548:680,-0.310638,-0.05285599999999999,-0.388428,-0.005344,-0.004657,0.005647,-39.369999,12.75,-24.059998999999998,3b
2019-07-12_105548:700,-0.308594,-0.053375,-0.386383,-0.005039,-0.004596,0.005464,-39.369999,12.75,-24.059998999999998,3b
2019-07-12_105548:720,-0.309113,-0.05438200000000001,-0.386383,-0.004825,-0.0045049999999999995,0.00525,-37.869999,12.37,-24.75,3b
2019-07-12_105548:740,-0.309113,-0.05285599999999999,-0.384857,-0.004520000000000001,-0.00426,0.005189,-37.869999,12.37,-24.75,3b
2019-07-12_105548:760,-0.308594,-0.053375,-0.385376,-0.004275999999999999,-0.004566,0.005403,-37.869999,12.37,-24.75,3b
2019-07-12_105548:780,-0.308075,-0.051849,-0.385864,-0.004275999999999999,-0.004321,0.005189,-39.060001,12.37,-24.0,3b
2019-07-12_105548:800,-0.309113,-0.051330999999999995,-0.385864,-0.004642,-0.004718,0.004793,-39.060001,12.37,-24.0,3b
2019-07-12_105548:820,-0.309601,-0.052338,-0.386383,-0.004886,-0.004718,0.004915,-39.060001,13.06,-23.25,3b
2019-07-12_105548:840,-0.311127,-0.053375,-0.38385,-0.005039,-0.004901,0.004945000000000001,-39.060001,13.06,-23.25,3b
2019-07-12_105548:860,-0.31012,-0.05438200000000001,-0.384857,-0.0052829999999999995,-0.004901,0.004671,-39.060001,13.06,-23.25,3b
2019-07-12_105548:880,-0.309601,-0.05285599999999999,-0.382812,-0.004886,-0.004901,0.004609,-38.68,12.75,-23.68,3b
2019-07-12_105548:900,-0.311127,-0.054901,-0.385864,-0.004581,-0.004993,0.004518,-38.68,12.75,-23.68,3b
2019-07-12_105548:920,-0.311646,-0.052338,-0.384857,-0.004612,-0.005115,0.004091,-39.369999,13.06,-24.75,3b
2019-07-12_105548:940,-0.309601,-0.051849,-0.38385,-0.004612,-0.005115,0.0038469999999999997,-39.369999,13.06,-24.75,3b
2019-07-12_105548:960,-0.312164,-0.05285599999999999,-0.38385,-0.004520000000000001,-0.005054,0.00403,-39.369999,13.06,-24.75,3b
2019-07-12_105548:980,-0.309113,-0.053863999999999995,-0.383331,-0.004337,-0.0052369999999999995,0.004152,-39.75,12.37,-24.0,3b
2019-07-12_105549:000,-0.315216,-0.05285599999999999,-0.38385,-0.004062,-0.005634,0.004213000000000001,-39.75,12.37,-24.0,3b
2019-07-12_105549:020,-0.312164,-0.051330999999999995,-0.38385,-0.004062,-0.005115,0.004457,-39.369999,12.75,-24.0,3b
2019-07-12_105549:040,-0.315216,-0.051330999999999995,-0.382324,-0.004001,-0.005451,0.004793,-39.369999,12.75,-24.0,3b
2019-07-12_105549:060,-0.311646,-0.051849,-0.382324,-0.004581,-0.004779,0.004182,-39.369999,12.75,-24.0,3b
2019-07-12_105549:080,-0.310638,-0.051849,-0.381317,-0.004978,-0.005054,0.0032359999999999997,-39.060001,13.06,-24.0,3b
2019-07-12_105549:100,-0.312164,-0.053863999999999995,-0.382812,-0.005161,-0.00539,0.003297,-39.060001,13.06,-24.0,3b
2019-07-12_105549:120,-0.309601,-0.05438200000000001,-0.381805,-0.004947,-0.005756,0.0038469999999999997,-38.68,12.75,-24.0,3b
2019-07-12_105549:140,-0.31369,-0.05438200000000001,-0.381317,-0.004337,-0.005939,0.004182,-38.68,12.75,-24.0,3b
2019-07-12_105549:160,-0.311127,-0.051849,-0.382324,-0.00394,-0.006,0.003908,-38.68,12.75,-24.0,3b
2019-07-12_105549:180,-0.311127,-0.050323,-0.380798,-0.004062,-0.006275,0.0037549999999999997,-38.68,12.75,-23.25,3b
2019-07-12_105549:200,-0.311646,-0.049805,-0.38028,-0.004184,-0.006488,0.003694,-38.68,12.75,-23.25,3b
2019-07-12_105549:220,-0.311127,-0.049805,-0.381805,-0.004642,-0.0066099999999999996,0.0034189999999999997,-39.369999,12.37,-23.68,3b
2019-07-12_105549:240,-0.312164,-0.050323,-0.383331,-0.004978,-0.006793,0.003297,-39.369999,12.37,-23.68,3b
2019-07-12_105549:260,-0.312164,-0.051849,-0.382812,-0.004764,-0.006854000000000001,0.003694,-39.369999,12.37,-23.68,3b
2019-07-12_105549:280,-0.31369,-0.053375,-0.382812,-0.004581,-0.006945999999999999,0.004182,-39.369999,11.68,-23.25,3b
2019-07-12_105549:300,-0.30654899999999996,-0.051330999999999995,-0.383331,-0.004459,-0.0070680000000000005,0.004457,-39.369999,11.68,-23.25,3b
2019-07-12_105549:320,-0.30654899999999996,-0.051849,-0.38385,-0.004581,-0.007343000000000001,0.004182,-39.060001,13.06,-24.5,3b
2019-07-12_105549:340,-0.307068,-0.050842,-0.38385,-0.004886,-0.008136,0.00345,-39.060001,13.06,-24.5,3b
2019-07-12_105549:360,-0.312653,-0.051330999999999995,-0.388916,-0.005039,-0.008533,0.004182,-39.060001,13.06,-24.5,3b
2019-07-12_105549:380,-0.314697,-0.052338,-0.388916,-0.005222,-0.008197,0.004609,-39.060001,13.06,-23.25,3b
2019-07-12_105549:400,-0.311127,-0.050842,-0.38739,-0.005619,-0.007465,0.004091,-39.060001,13.06,-23.25,3b
2019-07-12_105549:420,-0.309113,-0.050842,-0.387909,-0.005679999999999999,-0.006945999999999999,0.004152,-39.75,12.75,-24.0,3b
2019-07-12_105549:440,-0.30654899999999996,-0.051849,-0.386383,-0.005436,-0.006670999999999999,0.004548,-39.75,12.75,-24.0,3b
2019-07-12_105549:460,-0.307068,-0.050842,-0.386902,-0.005344,-0.006793,0.004396,-39.75,12.75,-24.0,3b
2019-07-12_105549:480,-0.306061,-0.050323,-0.386902,-0.0052829999999999995,-0.006548999999999999,0.004457,-40.18,12.75,-22.870001000000002,3b
2019-07-12_105549:500,-0.307068,-0.051330999999999995,-0.385864,-0.004978,-0.006670999999999999,0.005006,-40.18,12.75,-22.870001000000002,3b
2019-07-12_105549:520,-0.30654899999999996,-0.050842,-0.38739,-0.0051,-0.006731999999999999,0.005067,-39.369999,12.75,-24.5,3b
2019-07-12_105549:540,-0.305542,-0.051330999999999995,-0.386902,-0.005039,-0.007006999999999999,0.005067,-39.369999,12.75,-24.5,3b
2019-07-12_105549:560,-0.305542,-0.051330999999999995,-0.387909,-0.004978,-0.007343000000000001,0.005403,-39.369999,12.75,-24.5,3b
2019-07-12_105549:580,-0.305542,-0.051330999999999995,-0.389435,-0.004886,-0.007281999999999999,0.005342,-39.75,12.37,-24.75,3b
2019-07-12_105549:600,-0.305054,-0.051849,-0.389954,-0.004978,-0.007281999999999999,0.005586,-39.75,12.37,-24.75,3b
2019-07-12_105549:620,-0.304535,-0.051330999999999995,-0.390442,-0.0052829999999999995,-0.007220999999999999,0.005464,-39.369999,12.75,-23.68,3b
2019-07-12_105549:640,-0.305542,-0.051849,-0.390442,-0.005497,-0.007006999999999999,0.005403,-39.369999,12.75,-23.68,3b
2019-07-12_105549:660,-0.306061,-0.05285599999999999,-0.390961,-0.005741,-0.006548999999999999,0.005525,-39.369999,12.75,-23.68,3b
2019-07-12_105549:680,-0.305054,-0.05285599999999999,-0.391968,-0.005497,-0.006275,0.005678,-39.060001,13.5,-24.5,3b
2019-07-12_105549:700,-0.305542,-0.053375,-0.391479,-0.005344,-0.0060609999999999995,0.005678,-39.060001,13.5,-24.5,3b
2019-07-12_105549:720,-0.304535,-0.05285599999999999,-0.390442,-0.0052829999999999995,-0.005939,0.005311,-39.060001,13.5,-24.059998999999998,3b
2019-07-12_105549:740,-0.305054,-0.053375,-0.389954,-0.005161,-0.005695,0.005311,-39.060001,13.5,-24.059998999999998,3b
2019-07-12_105549:760,-0.307068,-0.052338,-0.391479,-0.005222,-0.005817,0.005647,-39.060001,13.5,-24.059998999999998,3b
2019-07-12_105549:780,-0.306061,-0.053375,-0.389954,-0.0052829999999999995,-0.005817,0.005861,-39.369999,13.5,-24.0,3b
2019-07-12_105549:800,-0.30654899999999996,-0.052338,-0.388916,-0.005497,-0.005725,0.0058,-39.369999,13.5,-24.0,3b
2019-07-12_105549:820,-0.303528,-0.052338,-0.389435,-0.005893,-0.0055119999999999995,0.005922,-39.060001,12.75,-23.68,3b
2019-07-12_105549:840,-0.307587,-0.054901,-0.390961,-0.00629,-0.005695,0.005739,-39.060001,12.75,-23.68,3b
2019-07-12_105549:860,-0.29995700000000003,-0.053375,-0.385376,-0.0067480000000000005,-0.005725,0.004854,-39.060001,12.75,-23.68,3b
2019-07-12_105549:880,-0.302002,-0.05438200000000001,-0.389954,-0.006809,-0.006275,0.003908,-39.75,12.75,-24.0,3b
2019-07-12_105549:900,-0.300476,-0.053375,-0.389954,-0.006504,-0.006548999999999999,0.004152,-39.75,12.75,-24.0,3b
2019-07-12_105549:920,-0.30249000000000004,-0.053863999999999995,-0.390442,-0.005893,-0.006793,0.004793,-39.060001,13.06,-25.18,3b
2019-07-12_105549:940,-0.305054,-0.053375,-0.389954,-0.005039,-0.006548999999999999,0.004548,-39.060001,13.06,-25.18,3b
2019-07-12_105549:960,-0.30300900000000003,-0.050842,-0.390442,-0.004642,-0.006275,0.003908,-39.060001,13.06,-25.18,3b
2019-07-12_105549:980,-0.304016,-0.047791,-0.390961,-0.004825,-0.0061530000000000005,0.004396,-39.75,13.06,-22.5,3b
2019-07-12_105550:000,-0.303528,-0.046752999999999996,-0.390961,-0.0051,-0.006214,0.004854,-39.75,13.06,-22.5,3b
2019-07-12_105550:020,-0.30249000000000004,-0.047272,-0.392487,-0.005893,-0.0061530000000000005,0.004609,-38.68,13.5,-25.18,3b
2019-07-12_105550:040,-0.30249000000000004,-0.047272,-0.391968,-0.006351,-0.006214,0.004671,-38.68,13.5,-25.18,3b
2019-07-12_105550:060,-0.30300900000000003,-0.048798,-0.391479,-0.006229,-0.0061530000000000005,0.004793,-38.68,13.5,-25.18,3b
2019-07-12_105550:080,-0.305054,-0.050842,-0.391479,-0.0061070000000000004,-0.006092,0.005128,-39.060001,13.06,-24.5,3b
2019-07-12_105550:100,-0.29943800000000004,-0.051330999999999995,-0.391479,-0.005741,-0.0061530000000000005,0.00525,-39.060001,13.06,-24.5,3b
2019-07-12_105550:120,-0.29742399999999997,-0.051330999999999995,-0.391479,-0.005741,-0.006488,0.004335,-39.369999,12.37,-23.25,3b
2019-07-12_105550:140,-0.29995700000000003,-0.049316000000000006,-0.389954,-0.005619,-0.006854000000000001,0.0039689999999999994,-39.369999,12.37,-23.25,3b
2019-07-12_105550:160,-0.302002,-0.049316000000000006,-0.390961,-0.005222,-0.006885,0.004396,-39.369999,12.37,-23.25,3b
2019-07-12_105550:180,-0.303528,-0.048798,-0.392487,-0.005375,-0.006397,0.004213000000000001,-38.68,12.75,-23.25,3b
2019-07-12_105550:200,-0.300964,-0.047791,-0.391479,-0.0052829999999999995,-0.006,0.004182,-38.68,12.75,-23.25,3b
2019-07-12_105550:220,-0.29895,-0.047791,-0.390961,-0.005161,-0.006488,0.004396,-38.68,12.75,-24.75,3b
2019-07-12_105550:240,-0.29943800000000004,-0.049805,-0.390442,-0.005222,-0.006854000000000001,0.004213000000000001,-38.68,12.75,-24.75,3b
2019-07-12_105550:260,-0.29995700000000003,-0.050323,-0.391479,-0.0051,-0.006945999999999999,0.003908,-38.68,12.75,-24.75,3b
2019-07-12_105550:280,-0.29943800000000004,-0.050323,-0.391479,-0.004825,-0.00719,0.0038469999999999997,-39.369999,13.06,-24.75,3b
2019-07-12_105550:300,-0.302002,-0.049805,-0.392487,-0.004337,-0.007129000000000001,0.0038159999999999995,-39.369999,13.06,-24.75,3b
2019-07-12_105550:320,-0.300476,-0.049805,-0.393494,-0.004184,-0.007006999999999999,0.0032359999999999997,-39.369999,13.5,-24.75,3b
2019-07-12_105550:340,-0.30249000000000004,-0.050323,-0.391968,-0.0037270000000000003,-0.006670999999999999,0.003023,-39.369999,13.5,-24.75,3b
2019-07-12_105550:360,-0.302002,-0.048279,-0.396057,-0.0033909999999999995,-0.006397,0.002565,-39.369999,13.5,-24.75,3b
2019-07-12_105550:380,-0.305054,-0.048279,-0.393494,-0.003055,-0.005756,0.0026260000000000003,-38.68,13.06,-24.5,3b
2019-07-12_105550:400,-0.305054,-0.047272,-0.394531,-0.002994,-0.00539,0.00229,-38.68,13.06,-24.5,3b
2019-07-12_105550:420,-0.307587,-0.047791,-0.394531,-0.002811,-0.004961999999999999,0.002382,-38.68,12.37,-24.75,3b
2019-07-12_105550:440,-0.308075,-0.047791,-0.392487,-0.002475,-0.004047,0.0026260000000000003,-38.68,12.37,-24.75,3b
2019-07-12_105550:460,-0.308075,-0.047791,-0.391968,-0.002475,-0.003925,0.0029620000000000002,-38.68,12.37,-24.75,3b
2019-07-12_105550:480,-0.310638,-0.046265,-0.390442,-0.002597,-0.003986,0.003023,-39.060001,13.06,-24.5,3b
2019-07-12_105550:500,-0.308594,-0.045226999999999996,-0.389954,-0.003055,-0.004108,0.0029,-39.060001,13.06,-24.5,3b
2019-07-12_105550:520,-0.303528,-0.044739,-0.389435,-0.003879,-0.004444,0.003023,-39.369999,13.06,-24.5,3b
2019-07-12_105550:540,-0.303528,-0.045226999999999996,-0.385864,-0.004581,-0.005054,0.003023,-39.369999,13.06,-24.5,3b
2019-07-12_105550:560,-0.297913,-0.048279,-0.38739,-0.004978,-0.005695,0.003053,-39.369999,13.06,-24.5,3b
2019-07-12_105550:580,-0.29943800000000004,-0.050323,-0.387909,-0.004825,-0.006397,0.0029620000000000002,-38.68,12.75,-24.75,3b
2019-07-12_105550:600,-0.306061,-0.050323,-0.387909,-0.004184,-0.006458,0.0025039999999999997,-38.68,12.75,-24.75,3b
2019-07-12_105550:620,-0.305054,-0.048279,-0.388916,-0.0036049999999999997,-0.005695,0.002839,-39.369999,12.75,-25.25,3b
2019-07-12_105550:640,-0.309113,-0.047791,-0.390961,-0.003208,-0.005298,0.003297,-39.369999,12.75,-25.25,3b
2019-07-12_105550:660,-0.305054,-0.047791,-0.389954,-0.003208,-0.004718,0.003297,-39.369999,12.75,-25.25,3b
2019-07-12_105550:680,-0.307068,-0.046265,-0.391968,-0.003452,-0.004718,0.0032359999999999997,-39.369999,12.37,-23.68,3b
2019-07-12_105550:700,-0.308075,-0.046265,-0.391479,-0.003849,-0.00484,0.003694,-39.369999,12.37,-23.68,3b
2019-07-12_105550:720,-0.309113,-0.046265,-0.390961,-0.003849,-0.004718,0.004609,-38.68,12.75,-23.68,3b
2019-07-12_105550:740,-0.311127,-0.047791,-0.388916,-0.004062,-0.004566,0.004732,-38.68,12.75,-23.68,3b
2019-07-12_105550:760,-0.307587,-0.046265,-0.386902,-0.004764,-0.004047,0.004671,-38.68,12.75,-23.68,3b
2019-07-12_105550:780,-0.305054,-0.047272,-0.387909,-0.005222,-0.004321,0.004793,-38.68,12.06,-23.25,3b
2019-07-12_105550:800,-0.305542,-0.050323,-0.386383,-0.005558,-0.004383,0.004915,-38.68,12.06,-23.25,3b
2019-07-12_105550:820,-0.305054,-0.049805,-0.385864,-0.005436,-0.004901,0.004793,-38.68,12.75,-24.75,3b
2019-07-12_105550:840,-0.305054,-0.050323,-0.384857,-0.005375,-0.005115,0.004732,-38.68,12.75,-24.75,3b
2019-07-12_105550:860,-0.30300900000000003,-0.050323,-0.385864,-0.0052829999999999995,-0.005451,0.005006,-38.68,12.75,-24.75,3b
2019-07-12_105550:880,-0.305054,-0.050323,-0.385864,-0.005222,-0.006092,0.00525,-39.369999,12.75,-24.5,3b
2019-07-12_105550:900,-0.303528,-0.050323,-0.385376,-0.005222,-0.006458,0.005189,-39.369999,12.75,-24.5,3b
2019-07-12_105550:920,-0.304016,-0.050842,-0.388428,-0.005375,-0.006670999999999999,0.004152,-39.369999,12.75,-23.68,3b
2019-07-12_105550:940,-0.304535,-0.049805,-0.386902,-0.005375,-0.007129000000000001,0.004182,-39.369999,12.75,-23.68,3b
2019-07-12_105550:960,-0.306061,-0.052338,-0.389954,-0.004825,-0.006945999999999999,0.005311,-39.369999,12.75,-23.68,3b
2019-07-12_105550:980,-0.306061,-0.050842,-0.390442,-0.004581,-0.0070680000000000005,0.005067,-39.060001,12.75,-23.25,3b
2019-07-12_105551:000,-0.307068,-0.049805,-0.390442,-0.004581,-0.006488,0.004793,-39.060001,12.75,-23.25,3b
2019-07-12_105551:020,-0.307068,-0.048798,-0.390442,-0.004612,-0.006275,0.005403,-39.369999,12.75,-24.75,3b
2019-07-12_105551:040,-0.305054,-0.049805,-0.389435,-0.004886,-0.005939,0.005403,-39.369999,12.75,-24.75,3b
2019-07-12_105551:060,-0.304016,-0.050323,-0.391479,-0.005344,-0.005939,0.004945000000000001,-39.369999,12.75,-24.75,3b
2019-07-12_105551:080,-0.304535,-0.052338,-0.390961,-0.004947,-0.006092,0.004945000000000001,-38.25,13.06,-24.5,3b
2019-07-12_105551:100,-0.305054,-0.05285599999999999,-0.390442,-0.004764,-0.006092,0.004793,-38.25,13.06,-24.5,3b
2019-07-12_105551:120,-0.305542,-0.053863999999999995,-0.390442,-0.004398,-0.005634,0.004793,-39.369999,12.37,-24.059998999999998,3b
2019-07-12_105551:140,-0.306061,-0.053375,-0.389435,-0.004184,-0.005817,0.004671,-39.369999,12.37,-24.059998999999998,3b
2019-07-12_105551:160,-0.305054,-0.052338,-0.390442,-0.004062,-0.005634,0.004335,-39.369999,12.37,-24.059998999999998,3b
2019-07-12_105551:180,-0.304016,-0.051330999999999995,-0.389435,-0.004123,-0.005634,0.0038159999999999995,-39.060001,12.75,-23.25,3b
2019-07-12_105551:200,-0.303528,-0.050842,-0.388916,-0.004123,-0.0055119999999999995,0.003694,-39.060001,12.75,-23.25,3b
2019-07-12_105551:220,-0.304016,-0.050842,-0.389435,-0.0042450000000000005,-0.005725,0.0034189999999999997,-38.68,13.5,-23.68,3b
2019-07-12_105551:240,-0.302002,-0.050323,-0.388916,-0.004337,-0.005939,0.003297,-38.68,13.5,-23.68,3b
2019-07-12_105551:260,-0.30300900000000003,-0.050842,-0.390442,-0.0042450000000000005,-0.005756,0.0034189999999999997,-38.68,13.5,-23.68,3b
2019-07-12_105551:280,-0.304016,-0.051330999999999995,-0.389435,-0.00394,-0.005878,0.0034189999999999997,-39.060001,12.37,-24.5,3b
2019-07-12_105551:300,-0.304535,-0.051849,-0.389954,-0.003849,-0.005756,0.0032359999999999997,-39.060001,12.37,-24.5,3b
2019-07-12_105551:320,-0.307068,-0.050842,-0.390961,-0.003544,-0.005878,0.0025039999999999997,-39.060001,12.37,-24.75,3b
2019-07-12_105551:340,-0.307587,-0.048279,-0.389954,-0.003452,-0.005725,0.00229,-39.060001,12.37,-24.75,3b
2019-07-12_105551:360,-0.30654899999999996,-0.049316000000000006,-0.388428,-0.0033909999999999995,-0.0055119999999999995,0.0025039999999999997,-39.060001,12.37,-24.75,3b
2019-07-12_105551:380,-0.30654899999999996,-0.049316000000000006,-0.390442,-0.003452,-0.005359,0.002565,-39.060001,12.75,-23.68,3b
2019-07-12_105551:400,-0.305542,-0.047791,-0.390442,-0.003452,-0.005176,0.0029,-39.060001,12.75,-23.68,3b
2019-07-12_105551:420,-0.306061,-0.048279,-0.390442,-0.0032689999999999998,-0.005054,0.003511,-38.25,13.06,-24.059998999999998,3b
2019-07-12_105551:440,-0.309601,-0.048279,-0.387909,-0.0036659999999999996,-0.005054,0.0034189999999999997,-38.25,13.06,-24.059998999999998,3b
2019-07-12_105551:460,-0.308594,-0.046752999999999996,-0.387909,-0.00394,-0.004657,0.0034189999999999997,-38.25,13.06,-24.059998999999998,3b
2019-07-12_105551:480,-0.311127,-0.047272,-0.389435,-0.004398,-0.0045049999999999995,0.00345,-38.68,13.06,-24.5,3b
2019-07-12_105551:500,-0.305054,-0.049316000000000006,-0.386383,-0.004764,-0.004169,0.002778,-38.68,13.06,-24.5,3b
2019-07-12_105551:520,-0.307587,-0.049805,-0.388916,-0.004947,-0.004657,0.00229,-39.369999,13.18,-25.25,3b
2019-07-12_105551:540,-0.309113,-0.051330999999999995,-0.385864,-0.004581,-0.004993,0.0025039999999999997,-39.369999,13.18,-25.25,3b
2019-07-12_105551:560,-0.308594,-0.050323,-0.386383,-0.003849,-0.004993,0.0029,-39.369999,13.18,-25.25,3b
2019-07-12_105551:580,-0.309601,-0.050842,-0.388428,-0.003208,-0.004961999999999999,0.0027170000000000002,-38.68,12.37,-23.25,3b
2019-07-12_105551:600,-0.305054,-0.046265,-0.384857,-0.002994,-0.00484,0.00229,-38.68,12.37,-23.25,3b
2019-07-12_105551:620,-0.305542,-0.044739,-0.385864,-0.003147,-0.005451,0.00229,-39.369999,12.37,-25.25,3b
2019-07-12_105551:640,-0.308075,-0.044739,-0.385376,-0.003452,-0.005756,0.002565,-39.369999,12.37,-25.25,3b
2019-07-12_105551:660,-0.308594,-0.043701,-0.385864,-0.003879,-0.005817,0.002687,-39.369999,12.37,-25.25,3b
2019-07-12_105551:680,-0.309113,-0.044219999999999995,-0.38739,-0.004123,-0.0061530000000000005,0.0032359999999999997,-39.369999,12.37,-24.5,3b
2019-07-12_105551:700,-0.303528,-0.045226999999999996,-0.386902,-0.004459,-0.006275,0.0038159999999999995,-39.369999,12.37,-24.5,3b
2019-07-12_105551:720,-0.304016,-0.045745999999999995,-0.387909,-0.004642,-0.006731999999999999,0.004518,-39.060001,12.75,-24.5,3b
2019-07-12_105551:740,-0.305542,-0.048798,-0.387909,-0.004642,-0.006885,0.004457,-39.060001,12.75,-24.5,3b
2019-07-12_105551:760,-0.305054,-0.047272,-0.389435,-0.004764,-0.007220999999999999,0.0034189999999999997,-39.060001,12.75,-24.5,3b
2019-07-12_105551:780,-0.304535,-0.048798,-0.389435,-0.004459,-0.007006999999999999,0.00403,-40.560001,12.37,-24.0,3b
2019-07-12_105551:800,-0.305054,-0.050323,-0.389954,-0.003544,-0.006854000000000001,0.005983,-40.560001,12.37,-24.0,3b
2019-07-12_105551:820,-0.29943800000000004,-0.048279,-0.387909,-0.003055,-0.006397,0.006379,-38.68,11.68,-24.5,3b
2019-07-12_105551:840,-0.300476,-0.047272,-0.388916,-0.003452,-0.0066099999999999996,0.005739,-38.68,11.68,-24.5,3b
2019-07-12_105551:860,-0.303528,-0.047791,-0.390442,-0.0037270000000000003,-0.006397,0.006044,-38.68,11.68,-24.5,3b
2019-07-12_105551:880,-0.30249000000000004,-0.048798,-0.390442,-0.004123,-0.006275,0.006196,-38.68,12.06,-23.25,3b
2019-07-12_105551:900,-0.305542,-0.050323,-0.390961,-0.004612,-0.006336,0.006470999999999999,-38.68,12.06,-23.25,3b
2019-07-12_105551:920,-0.305542,-0.052338,-0.391968,-0.004642,-0.006214,0.007203,-39.060001,12.37,-24.5,3b
2019-07-12_105551:940,-0.306061,-0.054901,-0.391479,-0.004459,-0.006,0.007326000000000001,-39.060001,12.37,-24.5,3b
2019-07-12_105551:960,-0.307587,-0.05438200000000001,-0.391479,-0.004520000000000001,-0.005695,0.0069900000000000006,-39.060001,12.37,-24.5,3b
2019-07-12_105551:980,-0.305542,-0.055389,-0.391479,-0.004398,-0.0055119999999999995,0.007112,-39.060001,12.06,-23.25,3b
2019-07-12_105552:000,-0.304535,-0.054901,-0.391968,-0.004275999999999999,-0.005298,0.007265000000000001,-39.060001,12.06,-23.25,3b
2019-07-12_105552:020,-0.304535,-0.056427,-0.391479,-0.004703,-0.005115,0.006929,-39.369999,13.06,-24.059998999999998,3b
2019-07-12_105552:040,-0.303528,-0.055908000000000006,-0.389435,-0.004886,-0.005176,0.006593000000000001,-39.369999,13.06,-24.059998999999998,3b
2019-07-12_105552:060,-0.30300900000000003,-0.058960000000000005,-0.390961,-0.005039,-0.004718,0.006379,-39.369999,13.06,-24.059998999999998,3b
2019-07-12_105552:080,-0.304016,-0.057953,-0.389954,-0.004703,-0.004718,0.005983,-39.75,13.06,-24.5,3b
2019-07-12_105552:100,-0.304016,-0.056915,-0.388428,-0.004612,-0.00484,0.005739,-39.75,13.06,-24.5,3b
2019-07-12_105552:120,-0.304016,-0.056915,-0.387909,-0.004642,-0.004779,0.0058,-39.060001,13.18,-23.68,3b
2019-07-12_105552:140,-0.303528,-0.057434000000000006,-0.386902,-0.004703,-0.004779,0.005678,-39.060001,13.18,-23.68,3b
2019-07-12_105552:160,-0.304016,-0.056915,-0.38739,-0.004764,-0.004961999999999999,0.005403,-39.060001,13.18,-23.68,3b
2019-07-12_105552:180,-0.305542,-0.056427,-0.386383,-0.004978,-0.005115,0.005128,-39.060001,12.75,-24.0,3b
2019-07-12_105552:200,-0.305054,-0.056915,-0.386902,-0.005161,-0.005115,0.004671,-39.060001,12.75,-24.0,3b
2019-07-12_105552:220,-0.306061,-0.057434000000000006,-0.388428,-0.005344,-0.005451,0.004396,-39.060001,13.5,-25.18,3b
2019-07-12_105552:240,-0.301483,-0.057434000000000006,-0.388916,-0.005344,-0.0052369999999999995,0.004793,-39.060001,13.5,-25.18,3b
2019-07-12_105552:260,-0.308075,-0.057434000000000006,-0.389435,-0.0052829999999999995,-0.005695,0.004793,-39.060001,13.5,-25.18,3b
2019-07-12_105552:280,-0.308075,-0.056427,-0.387909,-0.004886,-0.005573,0.00403,-39.369999,13.06,-24.5,3b
2019-07-12_105552:300,-0.311646,-0.054901,-0.388916,-0.004703,-0.005298,0.0037549999999999997,-39.369999,13.06,-24.5,3b
2019-07-12_105552:320,-0.309601,-0.05438200000000001,-0.388916,-0.004612,-0.004901,0.003114,-38.25,13.5,-24.5,3b
2019-07-12_105552:340,-0.30654899999999996,-0.053375,-0.386902,-0.004642,-0.004657,0.002565,-38.25,13.5,-24.5,3b
2019-07-12_105552:360,-0.309113,-0.05285599999999999,-0.388916,-0.004642,-0.004961999999999999,0.0026260000000000003,-38.25,13.5,-24.5,3b
2019-07-12_105552:380,-0.30654899999999996,-0.053863999999999995,-0.387909,-0.004581,-0.005054,0.0034189999999999997,-39.060001,13.06,-24.0,3b
2019-07-12_105552:400,-0.306061,-0.05285599999999999,-0.384338,-0.004275999999999999,-0.004993,0.004152,-39.060001,13.06,-24.0,3b
2019-07-12_105552:420,-0.305542,-0.051849,-0.386902,-0.004184,-0.0052369999999999995,0.004091,-38.68,12.75,-23.25,3b
2019-07-12_105552:440,-0.303528,-0.051330999999999995,-0.384338,-0.004459,-0.005176,0.003694,-38.68,12.75,-23.25,3b
2019-07-12_105552:460,-0.304016,-0.050323,-0.385864,-0.004459,-0.005573,0.003694,-38.68,12.75,-23.25,3b
2019-07-12_105552:480,-0.305542,-0.051849,-0.385376,-0.004886,-0.005756,0.0038469999999999997,-39.369999,13.5,-24.5,3b
2019-07-12_105552:500,-0.304016,-0.051849,-0.386902,-0.004825,-0.006,0.003908,-39.369999,13.5,-24.5,3b
2019-07-12_105552:520,-0.306061,-0.05285599999999999,-0.38739,-0.005222,-0.0061530000000000005,0.004152,-39.75,13.06,-24.059998999999998,3b
2019-07-12_105552:540,-0.30300900000000003,-0.05285599999999999,-0.389435,-0.004978,-0.0061530000000000005,0.004091,-39.75,13.06,-24.059998999999998,3b
2019-07-12_105552:560,-0.307068,-0.051849,-0.389954,-0.004978,-0.006488,0.004335,-39.75,13.06,-24.059998999999998,3b
2019-07-12_105552:580,-0.30654899999999996,-0.053863999999999995,-0.389954,-0.004764,-0.006336,0.004182,-39.75,12.75,-24.5,3b
2019-07-12_105552:600,-0.308075,-0.05438200000000001,-0.391479,-0.004703,-0.006214,0.003023,-39.75,12.75,-24.5,3b
2019-07-12_105552:620,-0.309113,-0.053375,-0.391479,-0.004825,-0.005725,0.0029620000000000002,-38.68,12.75,-22.870001000000002,3b
2019-07-12_105552:640,-0.309601,-0.05285599999999999,-0.390961,-0.004184,-0.0052369999999999995,0.004274,-38.68,12.75,-22.870001000000002,3b
2019-07-12_105552:660,-0.307587,-0.052338,-0.391968,-0.003788,-0.004596,0.004152,-38.68,12.75,-22.870001000000002,3b
2019-07-12_105552:680,-0.307068,-0.050323,-0.388916,-0.004001,-0.004383,0.0032359999999999997,-39.060001,12.75,-24.75,3b
2019-07-12_105552:700,-0.30654899999999996,-0.048279,-0.388428,-0.004184,-0.003925,0.003694,-39.060001,12.75,-24.75,3b
2019-07-12_105552:720,-0.305054,-0.050323,-0.388916,-0.005039,-0.003589,0.004182,-39.060001,13.06,-24.5,3b
2019-07-12_105552:740,-0.304016,-0.051849,-0.385864,-0.005741,-0.004047,0.004182,-39.060001,13.06,-24.5,3b
2019-07-12_105552:760,-0.306061,-0.052338,-0.386902,-0.005954,-0.004229999999999999,0.00403,-39.060001,13.06,-24.5,3b
2019-07-12_105552:780,-0.308594,-0.053375,-0.387909,-0.005741,-0.00426,0.00403,-39.369999,12.75,-24.059998999999998,3b
2019-07-12_105552:800,-0.307068,-0.05438200000000001,-0.386383,-0.005344,-0.004383,0.0039689999999999994,-39.369999,12.75,-24.059998999999998,3b
2019-07-12_105552:820,-0.308075,-0.053375,-0.386902,-0.004825,-0.004229999999999999,0.00403,-39.369999,13.06,-23.25,3b
2019-07-12_105552:840,-0.308075,-0.053863999999999995,-0.38739,-0.004612,-0.004321,0.004091,-39.369999,13.06,-23.25,3b
2019-07-12_105552:860,-0.311127,-0.050842,-0.388916,-0.004337,-0.00426,0.003633,-39.369999,13.06,-23.25,3b
2019-07-12_105552:880,-0.312164,-0.049805,-0.386383,-0.004612,-0.0038640000000000002,0.003633,-39.060001,13.5,-24.059998999999998,3b
2019-07-12_105552:900,-0.31012,-0.049805,-0.385864,-0.004978,-0.00365,0.004091,-39.060001,13.5,-24.059998999999998,3b
2019-07-12_105552:920,-0.309113,-0.051330999999999995,-0.385864,-0.005161,-0.00365,0.003908,-39.75,13.87,-24.0,3b
2019-07-12_105552:940,-0.310638,-0.051330999999999995,-0.382812,-0.005222,-0.00365,0.0038159999999999995,-39.75,13.87,-24.0,3b
2019-07-12_105552:960,-0.311127,-0.051849,-0.383331,-0.0051,-0.0038640000000000002,0.004091,-39.75,13.87,-24.0,3b
2019-07-12_105552:980,-0.311127,-0.050323,-0.382812,-0.004978,-0.003833,0.004152,-39.369999,12.75,-23.68,3b
2019-07-12_105553:000,-0.311127,-0.050323,-0.381805,-0.004947,-0.004108,0.004152,-39.369999,12.75,-23.68,3b
2019-07-12_105553:020,-0.310638,-0.051330999999999995,-0.381317,-0.004825,-0.00426,0.0039689999999999994,-39.060001,13.06,-22.870001000000002,3b
2019-07-12_105553:040,-0.311646,-0.049805,-0.38028,-0.004886,-0.004657,0.004091,-39.060001,13.06,-22.870001000000002,3b
2019-07-12_105553:060,-0.31369,-0.050842,-0.381317,-0.004581,-0.0052369999999999995,0.004274,-39.060001,13.06,-22.870001000000002,3b
2019-07-12_105553:080,-0.315216,-0.051330999999999995,-0.382812,-0.004825,-0.0052369999999999995,0.004548,-39.369999,12.37,-22.870001000000002,3b
2019-07-12_105553:100,-0.315216,-0.051330999999999995,-0.38028,-0.004947,-0.005176,0.004732,-39.369999,12.37,-22.870001000000002,3b
2019-07-12_105553:120,-0.31723,-0.051330999999999995,-0.382812,-0.005344,-0.00539,0.004182,-38.68,13.87,-24.75,3b
2019-07-12_105553:140,-0.311646,-0.053375,-0.38028,-0.005497,-0.0055119999999999995,0.002839,-38.68,13.87,-24.75,3b
2019-07-12_105553:160,-0.312653,-0.05438200000000001,-0.383331,-0.005436,-0.006397,0.002107,-38.68,13.87,-24.75,3b
2019-07-12_105553:180,-0.31723,-0.05438200000000001,-0.382324,-0.004612,-0.006458,0.002168,-39.75,13.06,-24.75,3b
2019-07-12_105553:200,-0.317749,-0.05438200000000001,-0.380798,-0.003483,-0.0061530000000000005,0.002565,-39.75,13.06,-24.75,3b
2019-07-12_105553:220,-0.31723,-0.051330999999999995,-0.38028,-0.002536,-0.005939,0.002565,-40.18,12.37,-22.75,3b
2019-07-12_105553:240,-0.314697,-0.049316000000000006,-0.379272,-0.002414,-0.0061530000000000005,0.002229,-40.18,12.37,-22.75,3b
2019-07-12_105553:260,-0.315704,-0.045226999999999996,-0.38028,-0.002872,-0.006336,0.002443,-40.18,12.37,-22.75,3b
2019-07-12_105553:280,-0.316742,-0.044219999999999995,-0.380798,-0.003452,-0.006670999999999999,0.003175,-39.060001,13.06,-24.75,3b
2019-07-12_105553:300,-0.32132,-0.048798,-0.378754,-0.004275999999999999,-0.006548999999999999,0.00345,-39.060001,13.06,-24.75,3b
2019-07-12_105553:320,-0.319275,-0.051849,-0.377747,-0.004642,-0.0066099999999999996,0.0039689999999999994,-39.369999,13.5,-22.059998999999998,3b
2019-07-12_105553:340,-0.314697,-0.05438200000000001,-0.377228,-0.004642,-0.007220999999999999,0.004548,-39.369999,13.5,-22.059998999999998,3b
2019-07-12_105553:360,-0.319794,-0.05996699999999999,-0.38028,-0.004275999999999999,-0.008136,0.004274,-39.369999,13.5,-22.059998999999998,3b
2019-07-12_105553:380,-0.320282,-0.063019,-0.38028,-0.0032689999999999998,-0.008869,0.003114,-39.369999,12.37,-24.75,3b
2019-07-12_105553:400,-0.32843,-0.065063,-0.381317,-0.00214,-0.009265,0.001161,-39.369999,12.37,-24.75,3b
2019-07-12_105553:420,-0.326385,-0.065063,-0.378754,-0.000736,-0.009662,-0.000426,-39.369999,12.37,-22.870001000000002,3b
2019-07-12_105553:440,-0.326904,-0.067596,-0.378265,0.001431,-0.009601,-0.00128,-39.369999,12.37,-22.870001000000002,3b
2019-07-12_105553:460,-0.32132,-0.071167,-0.372162,0.003781,-0.009113,-0.003478,-39.369999,12.37,-22.870001000000002,3b
2019-07-12_105553:480,-0.318756,-0.071167,-0.369598,0.0062829999999999995,-0.008869,-0.005582999999999999,-39.75,12.75,-24.0,3b
2019-07-12_105553:500,-0.305054,-0.068115,-0.363007,0.008999,-0.009448,-0.006774,-39.75,12.75,-24.0,3b
2019-07-12_105553:520,-0.30249000000000004,-0.067108,-0.363007,0.011134999999999999,-0.011585,-0.00659,-38.68,13.06,-23.68,3b
2019-07-12_105553:540,-0.293854,-0.062012,-0.36554000000000003,0.012081,-0.014453,-0.006712999999999999,-38.68,13.06,-23.68,3b
2019-07-12_105553:560,-0.293854,-0.061005,-0.369598,0.012265,-0.017627,-0.007262,-38.68,13.06,-23.68,3b
2019-07-12_105553:580,-0.298431,-0.058960000000000005,-0.376221,0.011470999999999999,-0.019824,-0.008513,-39.369999,13.06,-22.75,3b
2019-07-12_105553:600,-0.304016,-0.05996699999999999,-0.380798,0.01022,-0.020893000000000002,-0.009459,-39.369999,13.06,-22.75,3b
2019-07-12_105553:620,-0.305054,-0.063538,-0.387909,0.009274,-0.020862000000000002,-0.010039,-40.18,12.06,-24.0,3b
2019-07-12_105553:640,-0.302002,-0.068115,-0.396545,0.008694,-0.021197999999999998,-0.010435999999999999,-40.18,12.06,-24.0,3b
2019-07-12_105553:660,-0.31012,-0.073212,-0.40823400000000004,0.008938,-0.020862000000000002,-0.010375,-40.18,12.06,-24.0,3b
2019-07-12_105553:680,-0.312164,-0.076263,-0.406219,0.009426,-0.019214,-0.010709999999999999,-40.18,12.75,-23.68,3b
2019-07-12_105553:700,-0.303528,-0.076752,-0.407227,0.010067,-0.016437,-0.011168,-40.18,12.75,-23.68,3b
2019-07-12_105553:720,-0.296906,-0.074738,-0.40823400000000004,0.01022,-0.015247,-0.011443,-39.75,11.37,-24.75,3b
2019-07-12_105553:740,-0.281647,-0.069122,-0.40570100000000003,0.009549,-0.015368999999999999,-0.010709999999999999,-39.75,11.37,-24.75,3b
2019-07-12_105553:760,-0.280121,-0.06405599999999999,-0.405212,0.007687,-0.015643999999999998,-0.009459,-39.75,11.37,-24.75,3b
2019-07-12_105553:780,-0.282654,-0.061005,-0.40774499999999997,0.005154,-0.014911,-0.008177,-39.060001,11.75,-24.75,3b
2019-07-12_105553:800,-0.28674299999999997,-0.06149299999999999,-0.405212,0.00256,-0.013446000000000001,-0.007659,-39.060001,11.75,-24.75,3b
2019-07-12_105553:820,-0.287231,-0.062012,-0.406219,-0.000156,-0.011188,-0.0070480000000000004,-39.369999,11.37,-24.75,3b
2019-07-12_105553:840,-0.28112800000000004,-0.064545,-0.406219,-0.0018039999999999998,-0.009448,-0.0058579999999999995,-39.369999,11.37,-24.75,3b
2019-07-12_105553:860,-0.268433,-0.067108,-0.404694,-0.002933,-0.007862000000000001,-0.00421,-39.369999,11.37,-24.75,3b
2019-07-12_105553:880,-0.264862,-0.067596,-0.406219,-0.003544,-0.0076170000000000005,-0.001891,-39.060001,11.75,-25.18,3b
2019-07-12_105553:900,-0.273529,-0.068115,-0.40976,-0.0042450000000000005,-0.007587000000000001,0.0005200000000000001,-39.060001,11.75,-25.18,3b
2019-07-12_105553:920,-0.28112800000000004,-0.07016,-0.41384899999999997,-0.0052829999999999995,-0.007129000000000001,0.002382,-39.060001,11.75,-25.18,3b
2019-07-12_105553:940,-0.296387,-0.071686,-0.416901,-0.0065650000000000005,-0.006,0.003908,-39.060001,11.75,-25.18,3b
2019-07-12_105553:960,-0.30249000000000004,-0.072693,-0.420959,-0.007999,-0.005939,0.006196,-39.060001,11.75,-25.18,3b
2019-07-12_105553:980,-0.316223,-0.076752,-0.434174,-0.009525,-0.007801000000000001,0.008302,-39.369999,11.37,-26.75,3b
2019-07-12_105554:000,-0.320801,-0.077271,-0.433167,-0.011081,-0.003925,0.007783,-39.369999,11.37,-26.75,3b
2019-07-12_105554:020,-0.316742,-0.081329,-0.406219,-0.011997,-0.000995,0.006257,-38.25,11.37,-25.68,3b
2019-07-12_105554:040,-0.29232800000000003,-0.078796,-0.401123,-0.013736000000000002,0.004254,0.0037549999999999997,-38.25,11.37,-25.68,3b
2019-07-12_105554:060,-0.256744,-0.078796,-0.391968,-0.014072,0.002972,0.004518,-38.25,11.37,-25.68,3b
2019-07-12_105554:080,-0.246063,-0.077271,-0.385864,-0.014652000000000002,-0.00014099999999999998,0.003633,-39.060001,10.87,-25.25,3b
2019-07-12_105554:100,-0.24758899999999998,-0.076263,-0.383331,-0.015171,-0.002643,0.001832,-39.060001,10.87,-25.25,3b
2019-07-12_105554:120,-0.25116,-0.0737,-0.389435,-0.014988,-0.0045049999999999995,0.000459,-39.060001,10.18,-25.18,3b
2019-07-12_105554:140,-0.260284,-0.073212,-0.395538,-0.014865999999999999,-0.005939,3.2e-05,-39.060001,10.18,-25.18,3b
2019-07-12_105554:160,-0.277588,-0.071167,-0.404694,-0.014041999999999999,-0.0061530000000000005,0.000368,-39.060001,10.18,-25.18,3b
2019-07-12_105554:180,-0.288269,-0.069122,-0.411804,-0.013004,-0.004657,0.001314,-39.75,9.87,-24.5,3b
2019-07-12_105554:200,-0.30249000000000004,-0.066071,-0.415375,-0.011997,-0.002124,0.003572,-39.75,9.87,-24.5,3b
2019-07-12_105554:220,-0.307068,-0.06253099999999999,-0.418915,-0.011661,-0.0008119999999999999,0.005006,-40.18,9.5,-26.0,3b
2019-07-12_105554:240,-0.30654899999999996,-0.057434000000000006,-0.420441,-0.011417,0.0037049999999999995,0.009767,-40.18,9.5,-26.0,3b
2019-07-12_105554:260,-0.310638,-0.056915,-0.412811,-0.012668,0.00636,0.010042,-40.18,9.5,-26.0,3b
2019-07-12_105554:280,-0.305054,-0.050323,-0.416901,-0.013797,0.007092,0.01056,-39.369999,9.87,-24.059998999999998,3b
2019-07-12_105554:300,-0.305054,-0.051330999999999995,-0.40823400000000004,-0.017093,0.009228,0.014740999999999999,-39.369999,9.87,-24.059998999999998,3b
2019-07-12_105554:320,-0.309601,-0.053863999999999995,-0.402649,-0.018253,0.009747,0.015077000000000002,-39.369999,10.25,-24.75,3b
2019-07-12_105554:340,-0.307587,-0.054901,-0.39502,-0.022007,0.012066,0.013368000000000001,-39.369999,10.25,-24.75,3b
2019-07-12_105554:360,-0.303528,-0.057953,-0.388428,-0.023136,0.012494,0.012086,-39.369999,10.25,-24.75,3b
2019-07-12_105554:380,-0.302002,-0.059479,-0.389954,-0.023563,0.011487,0.011384,-39.75,9.18,-24.5,3b
2019-07-12_105554:400,-0.306061,-0.057434000000000006,-0.385376,-0.023014,0.007977,0.008333,-39.75,9.18,-24.5,3b
2019-07-12_105554:420,-0.310638,-0.055908000000000006,-0.390442,-0.022037,0.005383,0.005922,-39.75,8.75,-22.870001000000002,3b
2019-07-12_105554:440,-0.322327,-0.045745999999999995,-0.384857,-0.020541999999999998,0.004925,0.003297,-39.75,8.75,-22.870001000000002,3b
2019-07-12_105554:460,-0.323334,-0.040649,-0.382812,-0.019015999999999998,0.005627,0.0011,-39.75,8.75,-22.870001000000002,3b
2019-07-12_105554:480,-0.324371,-0.027954000000000003,-0.375702,-0.018375,0.0062380000000000005,-2.8999999999999997e-05,-39.75,9.87,-24.0,3b
2019-07-12_105554:500,-0.318756,-0.018799,-0.368591,-0.017490000000000002,0.007916,-0.000884,-39.75,9.87,-24.0,3b
2019-07-12_105554:520,-0.315216,-0.0055850000000000006,-0.36044299999999996,-0.017643,0.008313,-0.000273,-41.25,8.37,-22.870001000000002,3b
2019-07-12_105554:540,-0.315216,0.001007,-0.355377,-0.018833000000000003,0.009015,0.002168,-41.25,8.37,-22.870001000000002,3b
2019-07-12_105554:560,-0.311127,0.011169,-0.347229,-0.020541999999999998,0.008832,0.0038159999999999995,-41.25,8.37,-22.870001000000002,3b
2019-07-12_105554:580,-0.309113,0.013702,-0.34570300000000004,-0.022341999999999997,0.006909,0.005189,-41.68,9.18,-22.5,3b
2019-07-12_105554:600,-0.318268,0.019806,-0.350281,-0.024143,0.004529,0.004854,-41.68,9.18,-22.5,3b
2019-07-12_105554:620,-0.32132,0.023895,-0.35436999999999996,-0.024875,0.003064,0.004213000000000001,-40.869999,7.68,-21.68,3b
2019-07-12_105554:640,-0.326904,0.026917,-0.363007,-0.026218,-0.002857,0.003297,-40.869999,7.68,-21.68,3b
2019-07-12_105554:660,-0.326904,0.028442000000000002,-0.364014,-0.027195,-0.005878,0.004274,-40.869999,7.68,-21.68,3b
2019-07-12_105554:680,-0.327423,0.029968,-0.36706500000000003,-0.027317,-0.006854000000000001,0.004915,-41.25,7.87,-22.059998999999998,3b
2019-07-12_105554:700,-0.332489,0.029968,-0.36554000000000003,-0.026798000000000002,-0.006885,0.004945000000000001,-41.25,7.87,-22.059998999999998,3b
2019-07-12_105554:720,-0.344696,0.031494,-0.36349499999999996,-0.026400999999999997,-0.0061530000000000005,0.004335,-41.25,7.87,-22.059998999999998,3b
2019-07-12_105554:740,-0.345215,0.034546,-0.356903,-0.024021,-0.002246,0.003175,-41.25,6.75,-22.5,3b
2019-07-12_105554:760,-0.35739099999999996,0.035583,-0.35791,-0.021274,-0.00047599999999999997,0.002168,-41.25,6.75,-22.5,3b
2019-07-12_105554:780,-0.347748,0.039642000000000004,-0.354858,-0.019778999999999998,-8e-05,0.001436,-40.18,6.56,-22.059998999999998,3b
2019-07-12_105554:800,-0.33300799999999997,0.045745999999999995,-0.346222,-0.014652000000000002,-0.001209,-0.003325,-40.18,6.56,-22.059998999999998,3b
2019-07-12_105554:820,-0.322327,0.052338,-0.34570300000000004,-0.012729,-0.001666,-0.005339,-41.68,5.5,-22.5,3b
2019-07-12_105554:840,-0.30654899999999996,0.06253099999999999,-0.350281,-0.00629,-0.005573,-0.013030000000000002,-41.68,5.5,-22.5,3b
2019-07-12_105554:860,-0.30654899999999996,0.072174,-0.35638400000000003,-0.002597,-0.009113,-0.017089,-41.68,5.5,-22.5,3b
2019-07-12_105554:880,-0.319275,0.080322,-0.364532,-0.000553,-0.010639000000000001,-0.01779,-42.369999,5.5,-20.870001000000002,3b
2019-07-12_105554:900,-0.334015,0.086426,-0.367584,0.004818,-0.011585,-0.015074,-42.369999,5.5,-20.870001000000002,3b
2019-07-12_105554:920,-0.352325,0.090485,-0.372162,0.006344,-0.010669,-0.013640000000000001,-41.25,5.37,-20.870001000000002,3b
2019-07-12_105554:940,-0.35943600000000003,0.095062,-0.368073,0.009091,-0.004108,-0.008574,-41.25,5.37,-20.870001000000002,3b
2019-07-12_105554:960,-0.353333,0.096069,-0.368073,0.010067,0.000195,-0.0054,-41.25,5.37,-20.870001000000002,3b
2019-07-12_105554:980,-0.34317,0.096069,-0.365021,0.010067,0.001599,-0.004912,-41.25,4.25,-23.25,3b
2019-07-12_105555:000,-0.33300799999999997,0.095581,-0.366058,0.008357999999999999,0.002514,-0.005582999999999999,-41.25,4.25,-23.25,3b
2019-07-12_105555:020,-0.3396,0.095581,-0.36349499999999996,0.007687,0.001996,-0.00479,-41.25,4.25,-23.25,3b
2019-07-12_105555:040,-0.3396,0.091003,-0.369598,0.005154,-0.0014529999999999999,-0.001006,-41.68,3.87,-20.870001000000002,3b
2019-07-12_105555:060,-0.35131799999999996,0.086426,-0.370636,0.003048,-0.002918,0.000184,-41.68,3.87,-20.870001000000002,3b
2019-07-12_105555:080,-0.347229,0.079803,-0.364014,0.00256,-0.00307,0.000398,-42.060001,4.25,-20.870001000000002,3b
2019-07-12_105555:100,-0.34265100000000004,0.076752,-0.36044299999999996,0.001431,-0.001911,-0.000884,-42.060001,4.25,-20.870001000000002,3b
2019-07-12_105555:120,-0.341644,0.072693,-0.35791,0.000973,-0.001575,-0.001158,-42.060001,3.87,-21.25,3b
2019-07-12_105555:140,-0.338074,0.067596,-0.353333,-0.000217,-0.0008119999999999999,0.0029,-42.060001,3.87,-21.25,3b
2019-07-12_105555:160,-0.331482,0.05285599999999999,-0.345215,-0.000217,-0.0015140000000000002,0.006532,-42.060001,3.87,-21.25,3b
2019-07-12_105555:180,-0.32132,0.044739,-0.34063699999999997,-9.499999999999999e-05,-0.002124,0.007509,-41.68,3.5,-21.68,3b
2019-07-12_105555:200,-0.309113,0.035583,-0.342163,0.001248,-0.006731999999999999,0.009828,-41.68,3.5,-21.68,3b
2019-07-12_105555:220,-0.308594,0.032013,-0.3508,0.002041,-0.009387000000000001,0.010652,-41.68,3.5,-21.68,3b
2019-07-12_105555:240,-0.316742,0.027435,-0.35791,0.0032920000000000002,-0.014819999999999998,0.012483,-42.75,3.87,-20.870001000000002,3b
2019-07-12_105555:260,-0.323853,0.025421,-0.36248800000000003,0.004483,-0.019489,0.01587,-42.75,3.87,-20.870001000000002,3b
2019-07-12_105555:280,-0.330475,0.022369,-0.368591,0.004635,-0.019824,0.017274,-42.369999,4.56,-20.870001000000002,3b
2019-07-12_105555:300,-0.325897,0.019806,-0.37265,0.005032,-0.019672,0.019716,-42.369999,4.56,-20.870001000000002,3b
2019-07-12_105555:320,-0.317749,0.017792,-0.384338,0.005368,-0.019733,0.020204,-42.369999,4.56,-20.870001000000002,3b
2019-07-12_105555:340,-0.32132,0.017273,-0.388916,0.005215,-0.019885,0.020051,-41.68,4.56,-21.68,3b
2019-07-12_105555:360,-0.318756,0.015228,-0.396057,0.004574,-0.019091999999999998,0.022522999999999998,-41.68,4.56,-21.68,3b
2019-07-12_105555:380,-0.323853,0.016266,-0.40570100000000003,0.004574,-0.017688,0.027437,-41.25,5.37,-22.870001000000002,3b
2019-07-12_105555:400,-0.348267,0.011169,-0.411804,0.004757,-0.015094,0.032594,-41.25,5.37,-22.870001000000002,3b
2019-07-12_105555:420,-0.35131799999999996,0.006072999999999999,-0.411285,0.0035060000000000004,-0.009509,0.03943,-41.25,5.37,-22.870001000000002,3b
2019-07-12_105555:440,-0.346222,-0.013702,-0.406219,0.002255,-0.002735,0.050477,-40.869999,6.75,-21.68,3b
2019-07-12_105555:460,-0.335022,-0.03302,-0.401123,0.000698,0.0033079999999999997,0.060029,-40.869999,6.75,-21.68,3b
2019-07-12_105555:480,-0.321808,-0.061005,-0.390961,-0.00095,0.007916,0.062806,-40.869999,9.75,-22.75,3b
2019-07-12_105555:500,-0.321808,-0.083862,-0.379272,-0.001865,0.01048,0.061098,-40.869999,9.75,-22.75,3b
2019-07-12_105555:520,-0.308075,-0.111847,-0.36554000000000003,-0.000797,0.0117,0.053315999999999995,-40.869999,9.75,-22.75,3b
2019-07-12_105555:540,-0.29895,-0.12454200000000001,-0.358429,0.000973,0.010570999999999999,0.038452999999999994,-41.0,11.25,-22.75,3b
2019-07-12_105555:560,-0.290802,-0.126068,-0.353851,0.0028350000000000003,0.0069700000000000005,0.022645,-41.0,11.25,-22.75,3b
2019-07-12_105555:580,-0.29486100000000004,-0.122528,-0.352325,0.005307,0.001996,0.012361,-41.0,12.75,-21.68,3b
2019-07-12_105555:600,-0.29742399999999997,-0.114899,-0.34368899999999997,0.0077480000000000005,-0.002338,0.004518,-41.0,12.75,-21.68,3b
2019-07-12_105555:620,-0.300964,-0.100647,-0.346222,0.009335,-0.0060609999999999995,-0.003081,-41.0,12.75,-21.68,3b
2019-07-12_105555:640,-0.308075,-0.082855,-0.355377,0.009609999999999999,-0.009601,-0.007384,-41.369999,13.87,-22.870001000000002,3b
2019-07-12_105555:660,-0.312164,-0.078278,-0.35791,0.010067,-0.012439,-0.006712999999999999,-41.369999,13.87,-22.870001000000002,3b
2019-07-12_105555:680,-0.323334,-0.07016,-0.364014,0.009335,-0.014240000000000001,-0.005919,-41.0,13.06,-20.870001000000002,3b
2019-07-12_105555:700,-0.326385,-0.065582,-0.368073,0.007901,-0.014178999999999999,-0.0051259999999999995,-41.0,13.06,-20.870001000000002,3b
2019-07-12_105555:720,-0.324371,-0.05996699999999999,-0.372162,0.006039,-0.013446000000000001,-0.002349,-41.0,13.06,-20.870001000000002,3b
2019-07-12_105555:740,-0.32486,-0.060486,-0.37674,0.003689,-0.012531,0.000368,-40.68,13.87,-22.059998999999998,3b
2019-07-12_105555:760,-0.329437,-0.060486,-0.377747,0.000302,-0.011646,0.001039,-40.68,13.87,-22.059998999999998,3b
2019-07-12_105555:780,-0.334015,-0.06253099999999999,-0.379791,-0.002933,-0.010181,0.001771,-41.0,13.5,-22.5,3b
2019-07-12_105555:800,-0.33758499999999997,-0.068634,-0.377228,-0.005558,-0.008533,0.002382,-41.0,13.5,-22.5,3b
2019-07-12_105555:820,-0.338074,-0.07421900000000001,-0.375702,-0.007418999999999999,-0.007006999999999999,0.002107,-41.0,13.5,-22.5,3b
2019-07-12_105555:840,-0.338074,-0.076263,-0.373688,-0.008091,-0.006275,0.001771,-41.0,13.06,-22.059998999999998,3b
2019-07-12_105555:860,-0.335022,-0.077271,-0.368591,-0.008334999999999999,-0.005298,0.001924,-41.0,13.06,-22.059998999999998,3b
2019-07-12_105555:880,-0.33197,-0.075745,-0.368073,-0.007601999999999999,-0.004657,0.002046,-40.68,13.06,-22.5,3b
2019-07-12_105555:900,-0.321808,-0.064545,-0.374176,-0.006504,-0.005359,0.001497,-40.68,13.06,-22.5,3b
2019-07-12_105555:920,-0.334015,-0.054901,-0.38385,-0.005497,-0.007281999999999999,0.0007639999999999999,-40.68,13.06,-22.5,3b
2019-07-12_105555:940,-0.353333,-0.043701,-0.385376,-0.004764,-0.007465,0.002046,-40.68,12.75,-22.059998999999998,3b
2019-07-12_105555:960,-0.3508,-0.041168,-0.38028,-0.004825,-0.004169,0.008394,-40.68,12.75,-22.059998999999998,3b
2019-07-12_105555:980,-0.336548,-0.047791,-0.379272,-0.004978,-4.9e-05,0.017793,-41.369999,12.06,-22.059998999999998,3b
2019-07-12_105556:000,-0.325897,-0.061005,-0.374176,-0.005741,0.002911,0.024659999999999998,-41.369999,12.06,-22.059998999999998,3b
2019-07-12_105556:020,-0.31369,-0.0737,-0.36706500000000003,-0.00629,0.003125,0.024904,-41.369999,12.06,-22.059998999999998,3b
2019-07-12_105556:040,-0.310638,-0.07928500000000001,-0.360962,-0.007358,0.002179,0.022188,-41.68,13.06,-21.68,3b
2019-07-12_105556:060,-0.308075,-0.088959,-0.35739099999999996,-0.00748,0.000256,0.020204,-41.68,13.06,-21.68,3b
2019-07-12_105556:080,-0.309113,-0.092529,-0.355377,-0.008091,-0.002918,0.014284,-40.18,13.87,-20.870001000000002,3b
2019-07-12_105556:100,-0.30654899999999996,-0.09454299999999999,-0.354858,-0.008334999999999999,-0.004047,0.011567000000000001,-40.18,13.87,-20.870001000000002,3b
2019-07-12_105556:120,-0.310638,-0.09353600000000001,-0.35739099999999996,-0.008152,-0.006885,0.006776000000000001,-40.18,13.87,-20.870001000000002,3b
2019-07-12_105556:140,-0.315216,-0.090485,-0.360962,-0.007541,-0.009143,0.002778,-40.68,14.25,-21.68,3b
2019-07-12_105556:160,-0.318756,-0.086914,-0.36248800000000003,-0.00687,-0.010851999999999999,-0.000731,-40.68,14.25,-21.68,3b
2019-07-12_105556:180,-0.317749,-0.079803,-0.365021,-0.005436,-0.011401999999999999,-0.001891,-40.68,14.56,-22.059998999999998,3b
2019-07-12_105556:200,-0.31723,-0.077271,-0.368073,-0.004947,-0.011768,-0.002867,-40.68,14.56,-22.059998999999998,3b
2019-07-12_105556:220,-0.317749,-0.071686,-0.37265,-0.004642,-0.012256,-0.0036,-40.68,14.56,-22.059998999999998,3b
2019-07-12_105556:240,-0.318756,-0.07016,-0.377228,-0.004581,-0.012531,-0.003386,-40.68,14.25,-21.68,3b
2019-07-12_105556:260,-0.326385,-0.068115,-0.38028,-0.004520000000000001,-0.012378,-0.00302,-40.68,14.25,-21.68,3b
2019-07-12_105556:280,-0.327911,-0.066589,-0.381805,-0.004703,-0.011066,-0.002471,-40.68,14.25,-23.25,3b
2019-07-12_105556:300,-0.334015,-0.066589,-0.381805,-0.004978,-0.009326000000000001,-0.002135,-40.68,14.25,-23.25,3b
2019-07-12_105556:320,-0.33197,-0.066071,-0.381317,-0.005161,-0.007465,-0.002532,-40.68,14.25,-23.25,3b
2019-07-12_105556:340,-0.325378,-0.065063,-0.379272,-0.005161,-0.005817,-0.002684,-40.25,13.5,-22.75,3b
2019-07-12_105556:360,-0.322327,-0.066071,-0.378754,-0.005039,-0.005451,-0.00186,-40.25,13.5,-22.75,3b
2019-07-12_105556:380,-0.319794,-0.065582,-0.376221,-0.004275999999999999,-0.0052369999999999995,-0.00128,-40.68,13.06,-22.870001000000002,3b
2019-07-12_105556:400,-0.319794,-0.06405599999999999,-0.37316900000000003,-0.003879,-0.005359,-0.001402,-40.68,13.06,-22.870001000000002,3b
2019-07-12_105556:420,-0.320282,-0.05996699999999999,-0.37011700000000003,-0.0033909999999999995,-0.005359,-0.00128,-40.68,13.06,-22.870001000000002,3b
2019-07-12_105556:440,-0.316742,-0.058441,-0.368591,-0.003483,-0.005695,-0.001219,-41.369999,13.06,-21.25,3b
2019-07-12_105556:460,-0.316742,-0.055908000000000006,-0.37011700000000003,-0.0036659999999999996,-0.0066099999999999996,-0.000731,-41.369999,13.06,-21.25,3b
2019-07-12_105556:480,-0.321808,-0.055908000000000006,-0.37011700000000003,-0.004001,-0.00719,-9e-05,-40.25,12.75,-22.870001000000002,3b
2019-07-12_105556:500,-0.320282,-0.054901,-0.36706500000000003,-0.004703,-0.0076170000000000005,-0.000151,-40.25,12.75,-22.870001000000002,3b
2019-07-12_105556:520,-0.322845,-0.055908000000000006,-0.369598,-0.004947,-0.007984,-0.000151,-40.25,12.75,-22.870001000000002,3b
2019-07-12_105556:540,-0.32132,-0.056915,-0.37011700000000003,-0.005222,-0.008319,0.000245,-39.5,12.37,-21.68,3b
2019-07-12_105556:560,-0.323334,-0.056427,-0.371643,-0.0052829999999999995,-0.008869,0.000398,-39.5,12.37,-21.68,3b
2019-07-12_105556:580,-0.327423,-0.058960000000000005,-0.374176,-0.004978,-0.009052,-0.000365,-41.369999,12.06,-22.870001000000002,3b
2019-07-12_105556:600,-0.325897,-0.056427,-0.371643,-0.004947,-0.008990999999999999,-0.001067,-41.369999,12.06,-22.870001000000002,3b
2019-07-12_105556:620,-0.322327,-0.056427,-0.373688,-0.004581,-0.008990999999999999,-0.000609,-41.369999,12.06,-22.870001000000002,3b
2019-07-12_105556:640,-0.322845,-0.055389,-0.376221,-0.004001,-0.008990999999999999,-0.000609,-40.68,12.37,-22.059998999999998,3b
2019-07-12_105556:660,-0.32132,-0.051849,-0.373688,-0.003879,-0.009113,-0.001219,-40.68,12.37,-22.059998999999998,3b
2019-07-12_105556:680,-0.322327,-0.049805,-0.377228,-0.0036049999999999997,-0.009326000000000001,-0.0011279999999999999,-41.0,12.37,-22.870001000000002,3b
2019-07-12_105556:700,-0.319275,-0.049316000000000006,-0.372162,-0.003452,-0.009143,-0.001006,-41.0,12.37,-22.870001000000002,3b
2019-07-12_105556:720,-0.317749,-0.048279,-0.375214,-0.0036049999999999997,-0.009509,-0.001067,-41.0,12.37,-22.870001000000002,3b
2019-07-12_105556:740,-0.320282,-0.046265,-0.377747,-0.0036659999999999996,-0.009601,-0.001067,-40.25,12.37,-22.75,3b
2019-07-12_105556:760,-0.322327,-0.046752999999999996,-0.377228,-0.003849,-0.009876000000000001,-0.000609,-40.25,12.37,-22.75,3b
2019-07-12_105556:780,-0.323334,-0.046752999999999996,-0.379791,-0.004001,-0.009326000000000001,-0.000365,-41.0,12.06,-22.870001000000002,3b
2019-07-12_105556:800,-0.324371,-0.046752999999999996,-0.377747,-0.004062,-0.009113,-0.000487,-41.0,12.06,-22.870001000000002,3b
2019-07-12_105556:820,-0.322845,-0.048279,-0.379272,-0.004184,-0.00893,-0.000212,-41.0,12.06,-22.870001000000002,3b
2019-07-12_105556:840,-0.321808,-0.047272,-0.377747,-0.004275999999999999,-0.008533,-0.000365,-41.0,12.37,-24.5,3b
2019-07-12_105556:860,-0.319275,-0.045226999999999996,-0.377747,-0.004275999999999999,-0.008716,-0.000731,-41.0,12.37,-24.5,3b
2019-07-12_105556:880,-0.316742,-0.045745999999999995,-0.378265,-0.004337,-0.008655,-0.000334,-41.0,11.25,-23.68,3b
2019-07-12_105556:900,-0.316223,-0.046265,-0.377228,-0.0042450000000000005,-0.009143,-2.8999999999999997e-05,-41.0,11.25,-23.68,3b
2019-07-12_105556:920,-0.316223,-0.046265,-0.378265,-0.004337,-0.009204,-0.000334,-41.0,11.25,-23.68,3b
2019-07-12_105556:940,-0.311127,-0.045745999999999995,-0.377228,-0.004581,-0.009509,-0.000212,-41.369999,11.68,-24.75,3b
2019-07-12_105556:960,-0.313171,-0.046265,-0.379272,-0.004398,-0.009998,3.2e-05,-41.369999,11.68,-24.75,3b
2019-07-12_105556:980,-0.316223,-0.044219999999999995,-0.380798,-0.004459,-0.010242,3.2e-05,-41.0,10.87,-23.68,3b
2019-07-12_105557:000,-0.316223,-0.044219999999999995,-0.378754,-0.004581,-0.010181,0.000184,-41.0,10.87,-23.68,3b
2019-07-12_105557:020,-0.31723,-0.043701,-0.381317,-0.004825,-0.01012,6.2e-05,-41.0,10.87,-23.68,3b
2019-07-12_105557:040,-0.317749,-0.044219999999999995,-0.384338,-0.005222,-0.009845,-0.000609,-40.25,11.25,-24.059998999999998,3b
2019-07-12_105557:060,-0.315216,-0.042694,-0.385864,-0.0052829999999999995,-0.00954,-0.000884,-40.25,11.25,-24.059998999999998,3b
2019-07-12_105557:080,-0.315216,-0.043701,-0.385864,-0.005161,-0.009662,-0.000609,-40.25,10.87,-24.059998999999998,3b
2019-07-12_105557:100,-0.317749,-0.043213,-0.384857,-0.004703,-0.009326000000000001,-0.000334,-40.25,10.87,-24.059998999999998,3b
2019-07-12_105557:120,-0.315216,-0.041687,-0.384857,-0.004612,-0.008808,-0.000151,-40.25,10.87,-24.059998999999998,3b
2019-07-12_105557:140,-0.313171,-0.039124,-0.382812,-0.004337,-0.008472,-9e-05,-41.0,11.25,-24.059998999999998,3b
2019-07-12_105557:160,-0.309601,-0.036072,-0.382324,-0.004459,-0.008472,-0.000151,-41.0,11.25,-24.059998999999998,3b
2019-07-12_105557:180,-0.305542,-0.035583,-0.384338,-0.004886,-0.009143,0.0005200000000000001,-41.0,10.87,-24.5,3b
2019-07-12_105557:200,-0.307587,-0.034546,-0.385376,-0.004978,-0.009723,0.001253,-41.0,10.87,-24.5,3b
2019-07-12_105557:220,-0.311127,-0.035065,-0.387909,-0.005497,-0.009998,0.0017100000000000001,-41.0,10.87,-24.5,3b
2019-07-12_105557:240,-0.311646,-0.036591000000000005,-0.389435,-0.005619,-0.009601,0.00229,-40.25,10.87,-24.5,3b
2019-07-12_105557:260,-0.314697,-0.037108999999999996,-0.390442,-0.005771,-0.009143,0.003297,-40.25,10.87,-24.5,3b
2019-07-12_105557:280,-0.309113,-0.038635,-0.389954,-0.005679999999999999,-0.008594,0.00345,-39.75,10.87,-25.25,3b
2019-07-12_105557:300,-0.30654899999999996,-0.040161,-0.391479,-0.005893,-0.008075,0.003053,-39.75,10.87,-25.25,3b
2019-07-12_105557:320,-0.305054,-0.038635,-0.390442,-0.005619,-0.008411,0.0032359999999999997,-39.75,10.87,-25.25,3b
2019-07-12_105557:340,-0.305054,-0.042175,-0.392487,-0.005161,-0.008533,0.0039689999999999994,-40.25,9.75,-25.25,3b
2019-07-12_105557:360,-0.307068,-0.040649,-0.393005,-0.004642,-0.008258,0.0037549999999999997,-40.25,9.75,-25.25,3b
2019-07-12_105557:380,-0.308075,-0.039642000000000004,-0.391968,-0.004703,-0.008014,0.003053,-40.25,10.56,-24.5,3b
2019-07-12_105557:400,-0.308075,-0.038635,-0.391479,-0.004642,-0.0076170000000000005,0.0032359999999999997,-40.25,10.56,-24.5,3b
2019-07-12_105557:420,-0.304016,-0.039124,-0.391968,-0.004642,-0.007220999999999999,0.003175,-40.25,10.56,-24.5,3b
2019-07-12_105557:440,-0.30300900000000003,-0.036591000000000005,-0.391968,-0.004886,-0.00719,0.002565,-41.0,9.37,-25.25,3b
2019-07-12_105557:460,-0.303528,-0.036072,-0.391968,-0.004947,-0.007220999999999999,0.0027170000000000002,-41.0,9.37,-25.25,3b
2019-07-12_105557:480,-0.303528,-0.038635,-0.393005,-0.0051,-0.007343000000000001,0.003053,-39.869999,10.18,-25.68,3b
2019-07-12_105557:500,-0.305054,-0.038635,-0.392487,-0.0052829999999999995,-0.007129000000000001,0.002687,-39.869999,10.18,-25.68,3b
2019-07-12_105557:520,-0.30654899999999996,-0.037108999999999996,-0.39502,-0.004978,-0.0070680000000000005,0.002565,-39.869999,10.18,-25.68,3b
2019-07-12_105557:540,-0.307068,-0.035583,-0.39502,-0.005344,-0.006731999999999999,0.0025039999999999997,-41.0,10.56,-26.0,3b
2019-07-12_105557:560,-0.305542,-0.036072,-0.393005,-0.005375,-0.006275,0.002321,-41.0,10.56,-26.0,3b
2019-07-12_105557:580,-0.303528,-0.035065,-0.394012,-0.005619,-0.005939,0.002046,-39.18,10.87,-26.0,3b
2019-07-12_105557:600,-0.302002,-0.035583,-0.392487,-0.005619,-0.005878,0.0019850000000000002,-39.18,10.87,-26.0,3b
2019-07-12_105557:620,-0.303528,-0.034546,-0.392487,-0.005558,-0.005817,0.002107,-39.18,10.87,-26.0,3b
2019-07-12_105557:640,-0.30300900000000003,-0.034546,-0.393005,-0.005344,-0.005878,0.002321,-40.25,9.75,-25.25,3b
2019-07-12_105557:660,-0.307587,-0.034058,-0.393005,-0.005375,-0.006,0.002046,-40.25,9.75,-25.25,3b
2019-07-12_105557:680,-0.305054,-0.032532,-0.390961,-0.005344,-0.005634,0.001924,-39.869999,10.18,-25.18,3b
2019-07-12_105557:700,-0.305542,-0.032013,-0.390961,-0.005679999999999999,-0.00539,0.0019850000000000002,-39.869999,10.18,-25.18,3b
2019-07-12_105557:720,-0.30249000000000004,-0.031494,-0.389954,-0.0060149999999999995,-0.0052369999999999995,0.001436,-39.869999,10.18,-25.18,3b
2019-07-12_105557:740,-0.300476,-0.032532,-0.391479,-0.0061070000000000004,-0.005634,0.001039,-40.25,10.56,-24.059998999999998,3b
2019-07-12_105557:760,-0.301483,-0.031494,-0.393005,-0.005954,-0.0060609999999999995,0.000795,-40.25,10.56,-24.059998999999998,3b
2019-07-12_105557:780,-0.30300900000000003,-0.032013,-0.393005,-0.005771,-0.006397,0.001436,-40.25,9.37,-24.75,3b
2019-07-12_105557:800,-0.306061,-0.030487,-0.391479,-0.004947,-0.0060609999999999995,0.001527,-40.25,9.37,-24.75,3b
2019-07-12_105557:820,-0.304016,-0.029968,-0.392487,-0.004825,-0.005817,0.0011,-40.25,9.37,-24.75,3b
2019-07-12_105557:840,-0.300964,-0.026917,-0.391968,-0.004825,-0.005573,0.0007639999999999999,-40.68,9.75,-26.75,3b
2019-07-12_105557:860,-0.301483,-0.026427999999999997,-0.391968,-0.004947,-0.005817,0.000917,-40.68,9.75,-26.75,3b
2019-07-12_105557:880,-0.304016,-0.025421,-0.394012,-0.005222,-0.005939,0.000917,-39.5,10.18,-24.75,3b
2019-07-12_105557:900,-0.304535,-0.025908999999999998,-0.392487,-0.005344,-0.006092,0.0008560000000000001,-39.5,10.18,-24.75,3b
2019-07-12_105557:920,-0.305542,-0.024902,-0.394012,-0.005344,-0.005878,0.001161,-39.5,10.18,-24.75,3b
2019-07-12_105557:940,-0.307068,-0.025421,-0.394531,-0.005344,-0.00539,0.001893,-40.68,9.06,-24.75,3b
2019-07-12_105557:960,-0.30300900000000003,-0.024902,-0.392487,-0.004947,-0.005115,0.002107,-40.68,9.06,-24.75,3b
2019-07-12_105557:980,-0.30654899999999996,-0.024384,-0.393005,-0.004764,-0.005115,0.0016489999999999999,-41.0,9.37,-25.68,3b
2019-07-12_105558:000,-0.300964,-0.021851,-0.390442,-0.004764,-0.00484,0.001527,-41.0,9.37,-25.68,3b
2019-07-12_105558:020,-0.301483,-0.022369,-0.391968,-0.004642,-0.005176,0.003053,-41.0,9.37,-25.68,3b
2019-07-12_105558:040,-0.301483,-0.021851,-0.391479,-0.004520000000000001,-0.005359,0.00345,-40.25,9.37,-26.5,3b
2019-07-12_105558:060,-0.30300900000000003,-0.019806,-0.393005,-0.004825,-0.005634,0.003053,-40.25,9.37,-26.5,3b
2019-07-12_105558:080,-0.303528,-0.021851,-0.392487,-0.004978,-0.005573,0.003297,-41.0,9.75,-26.0,3b
2019-07-12_105558:100,-0.304016,-0.022369,-0.391968,-0.005039,-0.005634,0.0038469999999999997,-41.0,9.75,-26.0,3b
2019-07-12_105558:120,-0.304535,-0.023375999999999997,-0.394012,-0.004886,-0.005756,0.0038159999999999995,-41.0,9.75,-26.0,3b
2019-07-12_105558:140,-0.307068,-0.022858,-0.394531,-0.004886,-0.005573,0.0038469999999999997,-40.68,9.06,-26.5,3b
2019-07-12_105558:160,-0.304535,-0.022858,-0.39502,-0.004642,-0.00539,0.003908,-40.68,9.06,-26.5,3b
2019-07-12_105558:180,-0.305054,-0.021851,-0.391968,-0.004459,-0.0052369999999999995,0.004152,-39.869999,9.75,-25.68,3b
2019-07-12_105558:200,-0.304535,-0.022369,-0.392487,-0.004398,-0.005298,0.004152,-39.869999,9.75,-25.68,3b
2019-07-12_105558:220,-0.304016,-0.022858,-0.393005,-0.004123,-0.0052369999999999995,0.004335,-39.869999,9.75,-25.68,3b
2019-07-12_105558:240,-0.304535,-0.023375999999999997,-0.391968,-0.004123,-0.005298,0.004335,-40.25,9.37,-26.0,3b
2019-07-12_105558:260,-0.30249000000000004,-0.023895,-0.393494,-0.00394,-0.005054,0.004213000000000001,-40.25,9.37,-26.0,3b
2019-07-12_105558:280,-0.304535,-0.023375999999999997,-0.391968,-0.0036659999999999996,-0.004961999999999999,0.004457,-40.25,8.68,-24.75,3b
2019-07-12_105558:300,-0.302002,-0.023895,-0.393005,-0.003879,-0.0052369999999999995,0.004732,-40.25,8.68,-24.75,3b
2019-07-12_105558:320,-0.31012,-0.022858,-0.394012,-0.0037270000000000003,-0.005176,0.004945000000000001,-40.25,8.68,-24.75,3b
2019-07-12_105558:340,-0.311127,-0.022369,-0.391479,-0.004062,-0.005054,0.005189,-40.68,8.68,-26.370001000000002,3b
2019-07-12_105558:360,-0.311127,-0.024902,-0.392487,-0.004398,-0.004383,0.005586,-40.68,8.68,-26.370001000000002,3b
2019-07-12_105558:380,-0.30654899999999996,-0.026917,-0.392487,-0.004581,-0.003925,0.005311,-41.0,9.37,-25.25,3b
2019-07-12_105558:400,-0.305054,-0.027435,-0.390961,-0.004642,-0.00365,0.004396,-41.0,9.37,-25.25,3b
2019-07-12_105558:420,-0.305542,-0.028442000000000002,-0.392487,-0.004459,-0.004229999999999999,0.004396,-41.0,9.37,-25.25,3b
2019-07-12_105558:440,-0.312653,-0.028961,-0.393494,-0.004123,-0.004108,0.005342,-40.18,8.68,-24.059998999999998,3b
2019-07-12_105558:460,-0.314697,-0.029480000000000003,-0.391479,-0.0036049999999999997,-0.0032530000000000002,0.005922,-40.18,8.68,-24.059998999999998,3b
2019-07-12_105558:480,-0.309601,-0.027954000000000003,-0.391968,-0.0033299999999999996,-0.0025210000000000002,0.005189,-40.25,9.37,-25.68,3b
2019-07-12_105558:500,-0.308075,-0.026427999999999997,-0.390442,-0.0036049999999999997,-0.0021850000000000003,0.004335,-40.25,9.37,-25.68,3b
2019-07-12_105558:520,-0.311646,-0.024902,-0.391479,-0.004001,-0.0020629999999999997,0.004793,-40.25,9.37,-25.68,3b
2019-07-12_105558:540,-0.316742,-0.026427999999999997,-0.391479,-0.004459,-0.002002,0.005006,-40.25,9.06,-24.75,3b
2019-07-12_105558:560,-0.317749,-0.024902,-0.389435,-0.004978,-0.001575,0.004915,-40.25,9.06,-24.75,3b
2019-07-12_105558:580,-0.31723,-0.025421,-0.389954,-0.005222,-0.0008730000000000001,0.005403,-40.68,9.37,-23.25,3b
2019-07-12_105558:600,-0.320801,-0.024902,-0.38385,-0.005497,-0.000537,0.006379,-40.68,9.37,-23.25,3b
2019-07-12_105558:620,-0.318268,-0.025421,-0.384338,-0.005771,-0.000202,0.0069900000000000006,-40.68,9.37,-23.25,3b
2019-07-12_105558:640,-0.314697,-0.026427999999999997,-0.380798,-0.006412,-0.000263,0.006837,-40.68,9.75,-24.5,3b
2019-07-12_105558:660,-0.31012,-0.026427999999999997,-0.378754,-0.007023000000000001,-0.000598,0.006654,-40.68,9.75,-24.5,3b
2019-07-12_105558:680,-0.309601,-0.028961,-0.38028,-0.00748,-0.001789,0.007965999999999999,-40.68,9.06,-24.059998999999998,3b
2019-07-12_105558:700,-0.315704,-0.031494,-0.379272,-0.00748,-0.002796,0.007997,-40.68,9.06,-24.059998999999998,3b
2019-07-12_105558:720,-0.315704,-0.031494,-0.378754,-0.007633,-0.0032530000000000002,0.006441,-40.68,9.06,-24.059998999999998,3b
2019-07-12_105558:740,-0.317749,-0.031494,-0.38028,-0.007358,-0.003375,0.00525,-41.0,9.37,-23.68,3b
2019-07-12_105558:760,-0.315216,-0.029968,-0.380798,-0.0065650000000000005,-0.00365,0.005189,-41.0,9.37,-23.68,3b
2019-07-12_105558:780,-0.314178,-0.028442000000000002,-0.381317,-0.006168,-0.004169,0.005189,-40.68,9.75,-22.870001000000002,3b
2019-07-12_105558:800,-0.311646,-0.026917,-0.38028,-0.0060149999999999995,-0.004566,0.004854,-40.68,9.75,-22.870001000000002,3b
2019-07-12_105558:820,-0.314697,-0.025908999999999998,-0.381805,-0.005741,-0.004596,0.004854,-40.68,9.75,-22.870001000000002,3b
2019-07-12_105558:840,-0.314697,-0.023375999999999997,-0.382324,-0.005771,-0.004596,0.005067,-41.0,10.18,-22.059998999999998,3b
2019-07-12_105558:860,-0.314697,-0.023895,-0.382812,-0.006076,-0.004566,0.005189,-41.0,10.18,-22.059998999999998,3b
2019-07-12_105558:880,-0.316223,-0.022858,-0.38385,-0.0064730000000000005,-0.004229999999999999,0.00525,-40.68,9.75,-22.870001000000002,3b
2019-07-12_105558:900,-0.318268,-0.023375999999999997,-0.382812,-0.0069,-0.003833,0.005678,-40.68,9.75,-22.870001000000002,3b
2019-07-12_105558:920,-0.322327,-0.025421,-0.382324,-0.007206000000000001,-0.00365,0.005678,-40.68,9.75,-22.870001000000002,3b
2019-07-12_105558:940,-0.320801,-0.025908999999999998,-0.382324,-0.007541,-0.00307,0.005861,-40.25,10.18,-23.25,3b
2019-07-12_105558:960,-0.322327,-0.028442000000000002,-0.379791,-0.007633,-0.002796,0.006654,-40.25,10.18,-23.25,3b
2019-07-12_105558:980,-0.32486,-0.030487,-0.381317,-0.007206000000000001,-0.002643,0.007387,-40.68,9.37,-23.25,3b
2019-07-12_105559:000,-0.318756,-0.030487,-0.375214,-0.007145,-0.002246,0.007448000000000001,-40.68,9.37,-23.25,3b
2019-07-12_105559:020,-0.319275,-0.029968,-0.377747,-0.007023000000000001,-0.0025210000000000002,0.0067150000000000005,-40.68,9.37,-23.25,3b
2019-07-12_105559:040,-0.316742,-0.031006,-0.374695,-0.0069,-0.002796,0.006196,-41.75,10.56,-22.5,3b
2019-07-12_105559:060,-0.317749,-0.030487,-0.375214,-0.007023000000000001,-0.003711,0.00525,-41.75,10.56,-22.5,3b
2019-07-12_105559:080,-0.316742,-0.031494,-0.374695,-0.0067480000000000005,-0.004108,0.004945000000000001,-40.68,9.37,-23.68,3b
2019-07-12_105559:100,-0.317749,-0.031006,-0.374176,-0.006504,-0.0045049999999999995,0.005128,-40.68,9.37,-23.68,3b
2019-07-12_105559:120,-0.319794,-0.030487,-0.37674,-0.005954,-0.004718,0.004609,-40.68,9.37,-23.68,3b
2019-07-12_105559:140,-0.319275,-0.026917,-0.374176,-0.005741,-0.005054,0.0038469999999999997,-40.68,10.18,-23.25,3b
2019-07-12_105559:160,-0.31723,-0.025908999999999998,-0.375702,-0.005436,-0.0055119999999999995,0.003511,-40.68,10.18,-23.25,3b
2019-07-12_105559:180,-0.31723,-0.023375999999999997,-0.37674,-0.005497,-0.005695,0.00345,-41.369999,9.06,-23.25,3b
2019-07-12_105559:200,-0.316742,-0.021332,-0.375214,-0.005436,-0.006,0.00345,-41.369999,9.06,-23.25,3b
2019-07-12_105559:220,-0.31723,-0.019806,-0.378754,-0.005375,-0.006488,0.004213000000000001,-41.369999,9.06,-23.25,3b
2019-07-12_105559:240,-0.320282,-0.019806,-0.378265,-0.005679999999999999,-0.006670999999999999,0.005189,-40.68,9.75,-22.5,3b
2019-07-12_105559:260,-0.319275,-0.019318000000000002,-0.379791,-0.006168,-0.006793,0.006257,-40.68,9.75,-22.5,3b
2019-07-12_105559:280,-0.320801,-0.020325,-0.382324,-0.006687,-0.006488,0.006929,-41.369999,9.75,-23.68,3b
2019-07-12_105559:300,-0.32132,-0.021851,-0.382324,-0.007267,-0.006092,0.006532,-41.369999,9.75,-23.68,3b
2019-07-12_105559:320,-0.32132,-0.023895,-0.38385,-0.007601999999999999,-0.006092,0.007783,-41.369999,9.75,-23.68,3b
2019-07-12_105559:340,-0.322327,-0.026427999999999997,-0.384338,-0.007297,-0.005725,0.008912,-41.369999,9.75,-23.68,3b
2019-07-12_105559:360,-0.324371,-0.024902,-0.38385,-0.007358,-0.005359,0.008638,-41.369999,9.75,-23.68,3b
2019-07-12_105559:380,-0.323853,-0.026917,-0.382324,-0.007267,-0.004901,0.008790000000000001,-41.369999,9.06,-24.059998999999998,3b
2019-07-12_105559:400,-0.322327,-0.029480000000000003,-0.381317,-0.0069,-0.004383,0.008973,-41.369999,9.06,-24.059998999999998,3b
2019-07-12_105559:420,-0.321808,-0.028442000000000002,-0.38028,-0.006626000000000001,-0.004047,0.008119,-41.369999,9.06,-24.059998999999998,3b
2019-07-12_105559:440,-0.319794,-0.027954000000000003,-0.382324,-0.0065650000000000005,-0.003833,0.007448000000000001,-40.68,10.56,-23.25,3b
2019-07-12_105559:460,-0.317749,-0.025421,-0.379791,-0.006168,-0.003467,0.007203,-40.68,10.56,-23.25,3b
2019-07-12_105559:480,-0.320282,-0.025421,-0.38028,-0.0065650000000000005,-0.003589,0.0069900000000000006,-40.25,10.18,-22.059998999999998,3b
2019-07-12_105559:500,-0.323853,-0.024384,-0.378754,-0.006626000000000001,-0.0037719999999999997,0.007387,-40.25,10.18,-22.059998999999998,3b
2019-07-12_105559:520,-0.323334,-0.023375999999999997,-0.378754,-0.00687,-0.003436,0.007844,-40.25,10.18,-22.059998999999998,3b
2019-07-12_105559:540,-0.320282,-0.023895,-0.377747,-0.007084,-0.0035280000000000003,0.008119,-40.68,9.75,-23.25,3b
2019-07-12_105559:560,-0.319275,-0.024902,-0.377747,-0.006809,-0.003589,0.008699,-40.68,9.75,-23.25,3b
2019-07-12_105559:580,-0.318756,-0.027954000000000003,-0.379272,-0.006687,-0.004047,0.00937,-41.369999,10.56,-22.870001000000002,3b
2019-07-12_105559:600,-0.325897,-0.029968,-0.37674,-0.00629,-0.004047,0.009492,-41.369999,10.56,-22.870001000000002,3b
2019-07-12_105559:620,-0.327911,-0.029480000000000003,-0.375702,-0.005893,-0.003711,0.009706000000000001,-41.369999,10.56,-22.870001000000002,3b
2019-07-12_105559:640,-0.325378,-0.030487,-0.377228,-0.005771,-0.0035280000000000003,0.00992,-40.25,10.18,-22.059998999999998,3b
2019-07-12_105559:660,-0.323334,-0.032013,-0.376221,-0.005558,-0.003467,0.009096,-40.25,10.18,-22.059998999999998,3b
2019-07-12_105559:680,-0.323853,-0.031494,-0.376221,-0.005679999999999999,-0.00365,0.007905,-40.25,10.56,-22.870001000000002,3b
2019-07-12_105559:700,-0.32843,-0.032532,-0.377747,-0.005619,-0.0037719999999999997,0.007326000000000001,-40.25,10.56,-22.870001000000002,3b
2019-07-12_105559:720,-0.32843,-0.031494,-0.377228,-0.005497,-0.0035280000000000003,0.007661,-40.25,10.56,-22.870001000000002,3b
2019-07-12_105559:740,-0.329437,-0.033539,-0.375702,-0.005344,-0.002918,0.00757,-41.0,10.87,-22.5,3b
2019-07-12_105559:760,-0.32486,-0.034058,-0.374176,-0.004947,-0.002704,0.006135,-41.0,10.87,-22.5,3b
2019-07-12_105559:780,-0.323334,-0.032532,-0.37316900000000003,-0.004764,-0.003192,0.004915,-41.0,10.56,-22.059998999999998,3b
2019-07-12_105559:800,-0.326385,-0.031006,-0.369598,-0.004581,-0.00365,0.004671,-41.0,10.56,-22.059998999999998,3b
2019-07-12_105559:820,-0.328949,-0.032013,-0.37011700000000003,-0.004520000000000001,-0.003711,0.005128,-41.0,10.56,-22.059998999999998,3b
2019-07-12_105559:840,-0.32843,-0.032013,-0.371643,-0.004459,-0.00365,0.004548,-40.68,11.68,-21.68,3b
2019-07-12_105559:860,-0.32486,-0.03302,-0.36911,-0.004581,-0.003711,0.0037549999999999997,-40.68,11.68,-21.68,3b
2019-07-12_105559:880,-0.330963,-0.032532,-0.370636,-0.004581,-0.004444,0.00345,-40.68,10.87,-20.870001000000002,3b
2019-07-12_105559:900,-0.329437,-0.033539,-0.368591,-0.004398,-0.004657,0.003053,-40.68,10.87,-20.870001000000002,3b
2019-07-12_105559:920,-0.334015,-0.034546,-0.369598,-0.004459,-0.00484,0.002443,-40.68,10.87,-20.870001000000002,3b
2019-07-12_105559:940,-0.330963,-0.035065,-0.368073,-0.004398,-0.004321,0.002046,-40.68,10.87,-21.68,3b
2019-07-12_105559:960,-0.329437,-0.038635,-0.369598,-0.004001,-0.004779,0.001924,-40.68,10.87,-21.68,3b
2019-07-12_105559:980,-0.332489,-0.040649,-0.370636,-0.0033909999999999995,-0.005054,0.000459,-40.68,10.18,-21.68,3b
2019-07-12_105600:000,-0.32995599999999997,-0.040649,-0.368073,-0.002872,-0.005054,-0.0005480000000000001,-40.68,10.18,-21.68,3b
2019-07-12_105600:020,-0.328949,-0.041168,-0.370636,-0.00214,-0.005298,-0.00128,-40.68,10.18,-21.68,3b
2019-07-12_105600:040,-0.327423,-0.041687,-0.370636,-0.001957,-0.005115,-0.002806,-41.369999,10.87,-22.059998999999998,3b
2019-07-12_105600:060,-0.32995599999999997,-0.039642000000000004,-0.37112399999999995,-0.001621,-0.0052369999999999995,-0.0036609999999999998,-41.369999,10.87,-22.059998999999998,3b
2019-07-12_105600:080,-0.32843,-0.035583,-0.369598,-0.001743,-0.005176,-0.004546,-41.0,10.87,-22.059998999999998,3b
2019-07-12_105600:100,-0.320801,-0.030487,-0.369598,-0.002597,-0.005176,-0.0058579999999999995,-41.0,10.87,-22.059998999999998,3b
2019-07-12_105600:120,-0.314697,-0.027954000000000003,-0.370636,-0.00394,-0.00539,-0.00659,-41.0,10.87,-22.059998999999998,3b
2019-07-12_105600:140,-0.307587,-0.023895,-0.371643,-0.005436,-0.006458,-0.00659,-41.0,9.75,-22.5,3b
2019-07-12_105600:160,-0.315216,-0.024384,-0.373688,-0.007206000000000001,-0.007862000000000001,-0.006437999999999999,-41.0,9.75,-22.5,3b
2019-07-12_105600:180,-0.344177,-0.026427999999999997,-0.374695,-0.008609,-0.007343000000000001,-0.005919,-40.25,9.75,-21.68,3b
2019-07-12_105600:200,-0.35791,-0.028961,-0.372162,-0.008426000000000001,-0.005298,-0.00598,-40.25,9.75,-21.68,3b
2019-07-12_105600:220,-0.342163,-0.030487,-0.368591,-0.006809,-0.002643,-0.007903,-40.25,9.75,-21.68,3b
2019-07-12_105600:240,-0.331482,-0.025908999999999998,-0.36706500000000003,-0.004886,-0.001789,-0.011168,-41.0,9.37,-21.68,3b
2019-07-12_105600:260,-0.328949,-0.01828,-0.36654699999999996,-0.002414,-0.0023989999999999997,-0.012358,-41.0,9.37,-21.68,3b
2019-07-12_105600:280,-0.326385,-0.014740000000000001,-0.361481,-0.00046100000000000004,-0.003711,-0.012175,-41.369999,8.25,-22.059998999999998,3b
2019-07-12_105600:300,-0.330475,-0.009644,-0.360962,0.001248,-0.0055119999999999995,-0.011168,-41.369999,8.25,-22.059998999999998,3b
2019-07-12_105600:320,-0.327911,-0.006072999999999999,-0.358429,0.002499,-0.006731999999999999,-0.009581000000000001,-41.369999,8.25,-22.059998999999998,3b
2019-07-12_105600:340,-0.325897,-0.0035399999999999997,-0.35791,0.003109,-0.008197,-0.009245999999999999,-41.369999,7.87,-21.25,3b
2019-07-12_105600:360,-0.321808,0.001495,-0.35638400000000003,0.0032920000000000002,-0.009784000000000001,-0.009764,-41.369999,7.87,-21.25,3b
2019-07-12_105600:380,-0.320801,0.004547,-0.35739099999999996,0.0032310000000000004,-0.011768,-0.008574,-41.75,7.56,-20.5,3b
2019-07-12_105600:400,-0.323853,0.004547,-0.35791,0.0033840000000000003,-0.013446000000000001,-0.0070480000000000004,-41.75,7.56,-20.5,3b
2019-07-12_105600:420,-0.316223,0.008118,-0.361969,0.0032310000000000004,-0.014819999999999998,-0.006377000000000001,-41.75,7.56,-20.5,3b
2019-07-12_105600:440,-0.312653,0.015747,-0.367584,0.00256,-0.016834000000000002,-0.005187,-41.0,7.18,-22.5,3b
2019-07-12_105600:460,-0.312653,0.020844,-0.373688,0.001309,-0.018482,-0.004546,-41.0,7.18,-22.5,3b
2019-07-12_105600:480,-0.314178,0.025421,-0.380798,-0.0018039999999999998,-0.019428,-0.0036609999999999998,-41.75,7.18,-22.870001000000002,3b
2019-07-12_105600:500,-0.319794,0.030487,-0.38739,-0.005497,-0.01955,0.0005809999999999999,-41.75,7.18,-22.870001000000002,3b
2019-07-12_105600:520,-0.327423,0.027954000000000003,-0.396057,-0.0098,-0.018207,0.006318,-41.75,7.18,-22.870001000000002,3b
2019-07-12_105600:540,-0.332489,0.020844,-0.40011599999999997,-0.014530000000000001,-0.015581999999999999,0.010621,-41.369999,6.75,-22.870001000000002,3b
2019-07-12_105600:560,-0.32995599999999997,0.012177,-0.395538,-0.017643,-0.012592,0.013307,-41.369999,6.75,-22.870001000000002,3b
2019-07-12_105600:580,-0.325897,-0.004547,-0.396545,-0.019778999999999998,-0.010456,0.014284,-41.369999,6.75,-23.68,3b
2019-07-12_105600:600,-0.323853,-0.011687999999999999,-0.393005,-0.019443000000000002,-0.009387000000000001,0.013215000000000001,-41.369999,6.75,-23.68,3b
2019-07-12_105600:620,-0.31369,-0.021332,-0.391479,-0.017521000000000002,-0.008869,0.011170999999999999,-41.369999,6.75,-23.68,3b
2019-07-12_105600:640,-0.308075,-0.024902,-0.390961,-0.014591,-0.008990999999999999,0.008516,-40.68,7.18,-22.870001000000002,3b
2019-07-12_105600:660,-0.305542,-0.023375999999999997,-0.38739,-0.011142,-0.009265,0.006379,-40.68,7.18,-22.870001000000002,3b
2019-07-12_105600:680,-0.305054,-0.021851,-0.386902,-0.007541,-0.009387000000000001,0.004732,-41.0,6.5,-24.059998999999998,3b
2019-07-12_105600:700,-0.304016,-0.012695,-0.384338,-0.004703,-0.00954,0.0034189999999999997,-41.0,6.5,-24.059998999999998,3b
2019-07-12_105600:720,-0.304016,-0.0025329999999999997,-0.388428,-0.002994,-0.009876000000000001,0.002839,-41.0,6.5,-24.059998999999998,3b
2019-07-12_105600:740,-0.302002,0.0,-0.390442,-0.002597,-0.010059,0.0026260000000000003,-41.0,6.06,-22.870001000000002,3b
2019-07-12_105600:760,-0.300476,0.004547,-0.391479,-0.002659,-0.009723,0.0026260000000000003,-41.0,6.06,-22.870001000000002,3b
2019-07-12_105600:780,-0.305054,0.006072999999999999,-0.392487,-0.003116,-0.009723,0.0029,-40.68,6.06,-23.68,3b
2019-07-12_105600:800,-0.311646,0.006592,-0.393494,-0.0036049999999999997,-0.008808,0.0038469999999999997,-40.68,6.06,-23.68,3b
2019-07-12_105600:820,-0.309601,0.0055850000000000006,-0.393005,-0.004062,-0.0076170000000000005,0.004274,-40.68,6.06,-23.68,3b
2019-07-12_105600:840,-0.309113,0.0055850000000000006,-0.394531,-0.004764,-0.006945999999999999,0.004945000000000001,-39.18,6.75,-24.059998999999998,3b
2019-07-12_105600:860,-0.307587,0.004059,-0.394012,-0.005497,-0.006731999999999999,0.006318,-39.18,6.75,-24.059998999999998,3b
2019-07-12_105600:880,-0.311127,0.001007,-0.396057,-0.006168,-0.007129000000000001,0.007722,-40.68,6.75,-24.75,3b
2019-07-12_105600:900,-0.31012,-0.0025329999999999997,-0.394531,-0.00687,-0.007678,0.00818,-40.68,6.75,-24.75,3b
2019-07-12_105600:920,-0.309113,-0.009644,-0.393005,-0.007084,-0.008990999999999999,0.007661,-40.68,6.75,-24.75,3b
2019-07-12_105600:940,-0.305054,-0.012177,-0.391479,-0.006687,-0.009998,0.0067150000000000005,-39.869999,7.18,-24.5,3b
2019-07-12_105600:960,-0.29180900000000004,-0.015228,-0.383331,-0.005161,-0.011401999999999999,0.005342,-39.869999,7.18,-24.5,3b
2019-07-12_105600:980,-0.28775,-0.015228,-0.38385,-0.003788,-0.013507,0.004609,-40.25,7.18,-23.68,3b
2019-07-12_105601:000,-0.28775,-0.015228,-0.385864,-0.002262,-0.015308,0.003633,-40.25,7.18,-23.68,3b
2019-07-12_105601:020,-0.285706,-0.011687999999999999,-0.390961,-0.000217,-0.016284,0.001436,-40.25,7.18,-23.68,3b
2019-07-12_105601:040,-0.293335,-0.005065999999999999,-0.402161,0.00137,-0.016498,-0.001341,-39.869999,7.87,-24.059998999999998,3b
2019-07-12_105601:060,-0.30300900000000003,0.001007,-0.406219,0.002102,-0.015827,-0.0017989999999999998,-39.869999,7.87,-24.059998999999998,3b
2019-07-12_105601:080,-0.316742,0.008118,-0.411285,0.0015220000000000001,-0.01369,0.002321,-39.869999,6.75,-24.5,3b
2019-07-12_105601:100,-0.319794,0.006072999999999999,-0.411804,5.7999999999999994e-05,-0.010272,0.006470999999999999,-39.869999,6.75,-24.5,3b
2019-07-12_105601:120,-0.317749,0.007599,-0.414337,-0.002475,-0.006548999999999999,0.006929,-39.869999,6.75,-24.5,3b
2019-07-12_105601:140,-0.315216,0.006592,-0.41333000000000003,-0.004978,-0.00307,0.007051000000000001,-39.18,7.18,-24.75,3b
2019-07-12_105601:160,-0.315704,0.002014,-0.411285,-0.006809,-0.00014099999999999998,0.006868000000000001,-39.18,7.18,-24.75,3b
2019-07-12_105601:180,-0.314178,0.001495,-0.40823400000000004,-0.008884,0.002606,0.005739,-39.869999,7.18,-25.25,3b
2019-07-12_105601:200,-0.31723,-0.0035399999999999997,-0.40316799999999997,-0.0098,0.004132,0.007051000000000001,-39.869999,7.18,-25.25,3b
2019-07-12_105601:220,-0.318268,-0.009644,-0.402161,-0.009403,0.005261,0.008638,-39.869999,7.18,-25.25,3b
2019-07-12_105601:240,-0.321808,-0.011169,-0.40063499999999996,-0.00922,0.005444,0.007783,-40.25,7.56,-25.25,3b
2019-07-12_105601:260,-0.323334,-0.012177,-0.393005,-0.008091,0.004895,0.007051000000000001,-40.25,7.56,-25.25,3b
2019-07-12_105601:280,-0.32132,-0.013702,-0.392487,-0.0067480000000000005,0.004254,0.005861,-40.25,7.18,-24.5,3b
2019-07-12_105601:300,-0.314178,-0.011169,-0.380798,-0.005558,0.003735,0.004152,-40.25,7.18,-24.5,3b
2019-07-12_105601:320,-0.312164,-0.011687999999999999,-0.377228,-0.004062,0.003064,0.002839,-40.25,7.18,-24.5,3b
2019-07-12_105601:340,-0.301483,-0.007599,-0.369598,-0.002353,0.001141,0.0005200000000000001,-40.25,7.56,-24.059998999999998,3b
2019-07-12_105601:360,-0.293854,-0.005065999999999999,-0.36706500000000003,-0.001194,-0.001392,-0.002288,-40.25,7.56,-24.059998999999998,3b
2019-07-12_105601:380,-0.288269,0.004059,-0.36911,-0.000339,-0.004108,-0.002745,-40.68,6.5,-24.059998999999998,3b
2019-07-12_105601:400,-0.28674299999999997,0.010162000000000001,-0.366058,5.7999999999999994e-05,-0.006670999999999999,-0.001402,-40.68,6.5,-24.059998999999998,3b
2019-07-12_105601:420,-0.28418000000000004,0.016266,-0.37674,-0.0011330000000000001,-0.009113,0.0005809999999999999,-40.68,6.5,-24.059998999999998,3b
2019-07-12_105601:440,-0.286224,0.016266,-0.377747,-0.002811,-0.011798000000000001,0.00229,-40.68,6.5,-23.25,3b
2019-07-12_105601:460,-0.309113,0.014740000000000001,-0.387909,-0.004703,-0.013172,0.004396,-40.68,6.5,-23.25,3b
2019-07-12_105601:480,-0.31369,0.013213999999999998,-0.390961,-0.0061070000000000004,-0.012775,0.005525,-39.869999,6.5,-23.68,3b
2019-07-12_105601:500,-0.31723,0.004547,-0.393005,-0.007297,-0.010791,0.0071730000000000006,-39.869999,6.5,-23.68,3b
2019-07-12_105601:520,-0.32132,-0.001007,-0.397064,-0.007267,-0.009204,0.008973,-39.869999,6.5,-23.68,3b
2019-07-12_105601:540,-0.321808,-0.007111,-0.39502,-0.0060149999999999995,-0.007465,0.009187,-39.869999,7.18,-24.75,3b
2019-07-12_105601:560,-0.32132,-0.011169,-0.390961,-0.003788,-0.006214,0.008454999999999999,-39.869999,7.18,-24.75,3b
2019-07-12_105601:580,-0.320801,-0.010651,-0.390961,-0.0016820000000000001,-0.005176,0.008790000000000001,-39.5,6.06,-24.059998999999998,3b
2019-07-12_105601:600,-0.314697,-0.009644,-0.388916,-3e-06,-0.004596,0.010103000000000001,-39.5,6.06,-24.059998999999998,3b
2019-07-12_105601:620,-0.308075,-0.009644,-0.391968,0.000454,-0.005359,0.010713,-39.5,6.06,-24.059998999999998,3b
2019-07-12_105601:640,-0.309113,-0.009644,-0.394012,-9.499999999999999e-05,-0.007129000000000001,0.01056,-40.25,6.75,-23.68,3b
2019-07-12_105601:660,-0.314697,-0.012177,-0.397583,-0.001194,-0.008411,0.010042,-40.25,6.75,-23.68,3b
2019-07-12_105601:680,-0.315704,-0.014740000000000001,-0.395538,-0.002262,-0.008319,0.008302,-40.25,7.87,-23.68,3b
2019-07-12_105601:700,-0.31369,-0.013213999999999998,-0.393494,-0.003483,-0.007129000000000001,0.005739,-40.25,7.87,-23.68,3b
2019-07-12_105601:720,-0.307587,-0.015747,-0.395538,-0.003788,-0.006092,0.003175,-40.25,7.87,-23.68,3b
2019-07-12_105601:740,-0.30654899999999996,-0.017273,-0.396057,-0.004184,-0.005725,0.001893,-39.5,7.56,-24.059998999999998,3b
2019-07-12_105601:760,-0.29180900000000004,-0.013213999999999998,-0.391968,-0.003147,-0.004047,-0.002623,-39.5,7.56,-24.059998999999998,3b
2019-07-12_105601:780,-0.293335,-0.008636,-0.396057,-0.002994,-0.004108,-0.004058,-40.25,8.68,-24.75,3b
2019-07-12_105601:800,-0.293335,-0.0030210000000000002,-0.396057,-0.002353,-0.004901,-0.0031420000000000003,-40.25,8.68,-24.75,3b
2019-07-12_105601:820,-0.29943800000000004,-0.001495,-0.394012,-0.002018,-0.0052369999999999995,-0.000884,-40.25,8.68,-24.75,3b
2019-07-12_105601:840,-0.305542,0.0,-0.396057,-0.0022010000000000003,-0.004566,-0.001067,-39.869999,7.56,-24.5,3b
2019-07-12_105601:860,-0.307587,0.0030210000000000002,-0.394531,-0.002536,-0.003925,-0.000609,-39.869999,7.56,-24.5,3b
2019-07-12_105601:880,-0.309113,0.0035399999999999997,-0.39502,-0.0027199999999999998,-0.002857,0.001527,-39.869999,7.18,-24.5,3b
2019-07-12_105601:900,-0.307587,0.000488,-0.394012,-0.0033299999999999996,-0.0021850000000000003,0.003114,-39.869999,7.18,-24.5,3b
2019-07-12_105601:920,-0.31012,-0.000488,-0.391968,-0.00394,-0.0015140000000000002,0.004335,-39.869999,7.18,-24.5,3b
2019-07-12_105601:940,-0.308075,-0.001007,-0.390961,-0.0042450000000000005,-0.0012699999999999999,0.004854,-39.869999,7.56,-23.68,3b
2019-07-12_105601:960,-0.31012,-0.004547,-0.389954,-0.005222,-0.0009339999999999999,0.006654,-39.869999,7.56,-23.68,3b
2019-07-12_105601:980,-0.309601,-0.009644,-0.387909,-0.005375,-0.000781,0.0067150000000000005,-39.5,7.56,-23.68,3b
2019-07-12_105602:000,-0.31369,-0.013213999999999998,-0.389435,-0.00629,-0.001117,0.005678,-39.5,7.56,-23.68,3b
2019-07-12_105602:020,-0.315704,-0.015747,-0.390442,-0.0060149999999999995,-0.001575,0.006868000000000001,-39.5,7.56,-23.68,3b
2019-07-12_105602:040,-0.320282,-0.022369,-0.390961,-0.005497,-0.002307,0.006470999999999999,-39.869999,7.56,-23.68,3b
2019-07-12_105602:060,-0.321808,-0.024902,-0.390442,-0.004764,-0.002643,0.0038159999999999995,-39.869999,7.56,-23.68,3b
2019-07-12_105602:080,-0.31723,-0.023895,-0.387909,-0.003544,-0.002735,0.001832,-40.25,7.18,-24.059998999999998,3b
2019-07-12_105602:100,-0.314178,-0.022369,-0.385376,-0.00214,-0.002857,0.000123,-40.25,7.18,-24.059998999999998,3b
2019-07-12_105602:120,-0.305542,-0.017273,-0.378754,-0.0011330000000000001,-0.002735,-0.002257,-40.25,7.18,-24.059998999999998,3b
2019-07-12_105602:140,-0.30300900000000003,-0.010651,-0.378754,-0.000614,-0.0032530000000000002,-0.0034170000000000003,-40.25,8.25,-24.059998999999998,3b
2019-07-12_105602:160,-0.303528,-0.0030210000000000002,-0.378754,-0.000278,-0.004321,-0.005065,-40.25,8.25,-24.059998999999998,3b
2019-07-12_105602:180,-0.30249000000000004,0.0,-0.38028,-0.0004,-0.004596,-0.004912,-40.25,6.75,-23.25,3b
2019-07-12_105602:200,-0.30300900000000003,0.002014,-0.382812,-0.001285,-0.005756,-0.003935,-40.25,6.75,-23.25,3b
2019-07-12_105602:220,-0.309601,0.004547,-0.385864,-0.002262,-0.006336,-0.003203,-40.25,6.75,-23.25,3b
2019-07-12_105602:240,-0.316223,0.0055850000000000006,-0.388916,-0.002811,-0.006275,-0.002471,-41.0,6.75,-22.870001000000002,3b
2019-07-12_105602:260,-0.318756,0.004059,-0.390442,-0.004123,-0.005359,-0.0005480000000000001,-41.0,6.75,-22.870001000000002,3b
2019-07-12_105602:280,-0.321808,0.002014,-0.394012,-0.004520000000000001,-0.004779,0.000306,-41.0,6.75,-22.870001000000002,3b
2019-07-12_105602:300,-0.323853,0.0,-0.393005,-0.004978,-0.002796,0.003297,-40.68,7.18,-22.870001000000002,3b
2019-07-12_105602:320,-0.323853,-0.004059,-0.391968,-0.004978,-0.0014529999999999999,0.003908,-40.68,7.18,-22.870001000000002,3b
2019-07-12_105602:340,-0.322327,-0.005065999999999999,-0.390442,-0.004947,-0.000995,0.004274,-40.25,6.5,-22.870001000000002,3b
2019-07-12_105602:360,-0.32486,-0.006592,-0.386383,-0.004459,0.00040899999999999997,0.005006,-40.25,6.5,-22.870001000000002,3b
2019-07-12_105602:380,-0.323853,-0.0055850000000000006,-0.38385,-0.004337,0.000989,0.005403,-40.68,6.75,-22.5,3b
2019-07-12_105602:400,-0.322327,-0.006072999999999999,-0.380798,-0.004520000000000001,0.00108,0.005922,-40.68,6.75,-22.5,3b
2019-07-12_105602:420,-0.323334,-0.010162000000000001,-0.379272,-0.004825,0.00105,0.004793,-40.68,6.75,-22.5,3b
2019-07-12_105602:440,-0.320282,-0.011169,-0.37316900000000003,-0.004947,0.000989,0.003633,-41.0,7.18,-22.5,3b
2019-07-12_105602:460,-0.322327,-0.010162000000000001,-0.374176,-0.004581,-8e-05,0.001436,-41.0,7.18,-22.5,3b
2019-07-12_105602:480,-0.323334,-0.009644,-0.37316900000000003,-0.004275999999999999,-0.000324,0.001527,-40.68,6.75,-23.25,3b
2019-07-12_105602:500,-0.325378,-0.010162000000000001,-0.370636,-0.003116,-0.000995,0.0011,-40.68,6.75,-23.25,3b
2019-07-12_105602:520,-0.330475,-0.006592,-0.36911,-0.002597,-0.000781,-0.0005480000000000001,-40.68,6.75,-23.25,3b
2019-07-12_105602:540,-0.327911,-0.004059,-0.367584,-0.002597,-0.000598,-0.0008230000000000001,-41.0,6.75,-21.68,3b
2019-07-12_105602:560,-0.320801,-0.0025329999999999997,-0.365021,-0.002079,-0.0012699999999999999,-0.0005480000000000001,-41.0,6.75,-21.68,3b
2019-07-12_105602:580,-0.318756,-0.001495,-0.366058,-0.002079,-0.001666,-0.000334,-41.0,6.06,-21.25,3b
2019-07-12_105602:600,-0.319794,-0.0030210000000000002,-0.367584,-0.002414,-0.00426,-9e-05,-41.0,6.06,-21.25,3b
2019-07-12_105602:620,-0.322845,-0.002014,-0.368073,-0.0022010000000000003,-0.0052369999999999995,0.000123,-41.0,6.06,-21.25,3b
2019-07-12_105602:640,-0.334015,-0.001007,-0.36911,-0.002323,-0.005725,0.000184,-41.369999,6.06,-21.25,3b
2019-07-12_105602:660,-0.331482,-0.002014,-0.368591,-0.002536,-0.005573,3.2e-05,-41.369999,6.06,-21.25,3b
2019-07-12_105602:680,-0.330475,-0.002014,-0.37112399999999995,-0.002536,-0.005695,-0.000151,-41.369999,6.06,-22.059998999999998,3b
2019-07-12_105602:700,-0.328949,-0.0025329999999999997,-0.372162,-0.0022010000000000003,-0.005725,0.000245,-41.369999,6.06,-22.059998999999998,3b
2019-07-12_105602:720,-0.330963,-0.002014,-0.370636,-0.0022010000000000003,-0.005878,0.000123,-41.369999,6.06,-22.059998999999998,3b
2019-07-12_105602:740,-0.331482,-0.002014,-0.370636,-0.002079,-0.005817,-0.000273,-41.369999,5.0,-22.5,3b
2019-07-12_105602:760,-0.32843,0.0,-0.36911,-0.0022010000000000003,-0.005573,-0.000273,-41.369999,5.0,-22.5,3b
2019-07-12_105602:780,-0.33300799999999997,0.001007,-0.37112399999999995,-0.002323,-0.005359,-0.000151,-41.369999,5.0,-22.5,3b
2019-07-12_105602:800,-0.327423,0.0,-0.371643,-0.002811,-0.004657,6.2e-05,-41.0,6.06,-22.059998999999998,3b
2019-07-12_105602:820,-0.32132,0.0,-0.373688,-0.002811,-0.005054,0.000398,-41.0,6.06,-22.059998999999998,3b
2019-07-12_105602:840,-0.319275,-0.000488,-0.375702,-0.002659,-0.006,0.000642,-41.369999,6.06,-21.68,3b
2019-07-12_105602:860,-0.320801,0.000488,-0.374176,-0.002323,-0.007129000000000001,0.000398,-41.369999,6.06,-21.68,3b
2019-07-12_105602:880,-0.321808,0.0035399999999999997,-0.371643,-0.002323,-0.007984,0.0005200000000000001,-41.369999,5.75,-21.68,3b
2019-07-12_105602:900,-0.32132,0.004547,-0.370636,-0.002811,-0.008655,0.001253,-41.369999,5.75,-21.68,3b
2019-07-12_105602:920,-0.316742,0.004547,-0.371643,-0.003788,-0.01012,0.001893,-41.369999,5.75,-21.68,3b
2019-07-12_105602:940,-0.32132,0.004059,-0.374176,-0.00394,-0.010639000000000001,0.001771,-41.0,5.75,-20.870001000000002,3b
2019-07-12_105602:960,-0.327911,0.005065999999999999,-0.374695,-0.0042450000000000005,-0.010517,0.002107,-41.0,5.75,-20.870001000000002,3b
2019-07-12_105602:980,-0.324371,0.005065999999999999,-0.375702,-0.004337,-0.010242,0.002778,-41.0,5.75,-20.870001000000002,3b
2019-07-12_105603:000,-0.32132,0.005065999999999999,-0.378265,-0.00394,-0.009937,0.004274,-41.369999,5.37,-21.25,3b
2019-07-12_105603:020,-0.318268,0.004059,-0.38028,-0.00394,-0.009998,0.004335,-41.369999,5.37,-21.25,3b
2019-07-12_105603:040,-0.323853,0.009644,-0.378754,-0.004062,-0.010394,0.004793,-41.75,6.06,-22.5,3b
2019-07-12_105603:060,-0.322327,0.012695,-0.374695,-0.004764,-0.010181,0.006593000000000001,-41.75,6.06,-22.5,3b
2019-07-12_105603:080,-0.320801,0.015228,-0.375702,-0.006229,-0.010059,0.008119,-40.25,6.06,-22.059998999999998,3b
2019-07-12_105603:100,-0.312164,0.015228,-0.374176,-0.007877,-0.010517,0.009431,-40.25,6.06,-22.059998999999998,3b
2019-07-12_105603:120,-0.308594,0.019806,-0.37112399999999995,-0.010745999999999999,-0.012165,0.011629,-40.25,6.06,-22.059998999999998,3b
2019-07-12_105603:140,-0.314697,0.025908999999999998,-0.37316900000000003,-0.01218,-0.012195000000000001,0.013215000000000001,-42.18,5.75,-22.5,3b
2019-07-12_105603:160,-0.31012,0.037108999999999996,-0.37265,-0.019291,-0.011463,0.020784,-42.18,5.75,-22.5,3b
2019-07-12_105603:180,-0.288269,0.035065,-0.374695,-0.021763,-0.012317,0.023530000000000002,-42.18,5.75,-22.5,3b
2019-07-12_105603:200,-0.28112800000000004,0.026917,-0.381317,-0.027712999999999998,-0.018359999999999998,0.02762,-41.369999,5.37,-22.5,3b
2019-07-12_105603:220,-0.29180900000000004,0.011169,-0.393005,-0.02866,-0.020618,0.027498,-41.369999,5.37,-22.5,3b
2019-07-12_105603:240,-0.304535,0.001007,-0.39859,-0.029575,-0.022724,0.026430000000000002,-41.0,5.75,-23.25,3b
2019-07-12_105603:260,-0.31723,-0.012177,-0.404175,-0.028263,-0.021747,0.024721,-41.0,5.75,-23.25,3b
2019-07-12_105603:280,-0.32132,-0.018799,-0.410278,-0.025394,-0.019214,0.02292,-41.0,5.75,-23.25,3b
2019-07-12_105603:300,-0.326904,-0.023375999999999997,-0.416901,-0.021091,-0.016375999999999998,0.022004,-40.68,7.18,-24.5,3b
2019-07-12_105603:320,-0.32843,-0.026917,-0.418915,-0.016117,-0.012897,0.021058,-40.68,7.18,-24.5,3b
2019-07-12_105603:340,-0.32843,-0.026917,-0.415375,-0.010532,-0.009113,0.019014,-40.68,6.75,-25.25,3b
2019-07-12_105603:360,-0.320801,-0.018799,-0.410797,-0.006168,-0.0052369999999999995,0.016663999999999998,-40.68,6.75,-25.25,3b
2019-07-12_105603:380,-0.307068,-0.009644,-0.40570100000000003,-0.003544,-0.002735,0.015809,-40.68,6.75,-25.25,3b
2019-07-12_105603:400,-0.300476,-0.007111,-0.40063499999999996,-0.002536,-0.0017280000000000002,0.015474000000000002,-39.869999,7.56,-26.0,3b
2019-07-12_105603:420,-0.297913,-0.005065999999999999,-0.395538,-0.002414,-0.002124,0.014406,-39.869999,7.56,-26.0,3b
2019-07-12_105603:440,-0.300476,-0.0055850000000000006,-0.394012,-0.002414,-0.002796,0.013276,-39.5,7.56,-24.5,3b
2019-07-12_105603:460,-0.307068,-0.008636,-0.391968,-0.002872,-0.00307,0.011751000000000001,-39.5,7.56,-24.5,3b
2019-07-12_105603:480,-0.305054,-0.010162000000000001,-0.389954,-0.002994,-0.003192,0.010499,-39.5,7.56,-24.5,3b
2019-07-12_105603:500,-0.309601,-0.010651,-0.388428,-0.003116,-0.003467,0.009981,-38.75,7.87,-24.5,3b
2019-07-12_105603:520,-0.307068,-0.011687999999999999,-0.38739,-0.003055,-0.003375,0.009523,-38.75,7.87,-24.5,3b
2019-07-12_105603:540,-0.310638,-0.012695,-0.389954,-0.003055,-0.003833,0.008638,-39.869999,8.25,-24.75,3b
2019-07-12_105603:560,-0.31369,-0.012177,-0.390442,-0.003116,-0.004169,0.007661,-39.869999,8.25,-24.75,3b
2019-07-12_105603:580,-0.317749,-0.013702,-0.389954,-0.003116,-0.003711,0.006837,-39.869999,8.25,-24.75,3b
2019-07-12_105603:600,-0.315704,-0.013213999999999998,-0.388916,-0.002811,-0.0032530000000000002,0.006837,-39.869999,8.68,-25.25,3b
2019-07-12_105603:620,-0.309601,-0.014740000000000001,-0.386902,-0.002597,-0.002918,0.0069900000000000006,-39.869999,8.68,-25.25,3b
2019-07-12_105603:640,-0.308594,-0.014221000000000001,-0.386902,-0.002475,-0.003375,0.006593000000000001,-38.75,7.87,-24.5,3b
2019-07-12_105603:660,-0.311127,-0.013702,-0.385864,-0.002536,-0.0038640000000000002,0.005586,-38.75,7.87,-24.5,3b
2019-07-12_105603:680,-0.312164,-0.014221000000000001,-0.385864,-0.002597,-0.003925,0.004915,-38.75,7.87,-24.5,3b
2019-07-12_105603:700,-0.314697,-0.014221000000000001,-0.385376,-0.002353,-0.004169,0.004091,-40.25,9.06,-23.25,3b
2019-07-12_105603:720,-0.31012,-0.014740000000000001,-0.384857,-0.0022010000000000003,-0.004108,0.003908,-40.25,9.06,-23.25,3b
2019-07-12_105603:740,-0.312164,-0.014740000000000001,-0.384857,-0.0016820000000000001,-0.004444,0.003908,-39.18,8.68,-24.059998999999998,3b
2019-07-12_105603:760,-0.311127,-0.015747,-0.382324,-0.001468,-0.004779,0.0037549999999999997,-39.18,8.68,-24.059998999999998,3b
2019-07-12_105603:780,-0.308594,-0.016266,-0.383331,-0.0011330000000000001,-0.005359,0.003572,-39.18,8.68,-24.059998999999998,3b
2019-07-12_105603:800,-0.309601,-0.016266,-0.38385,-0.001194,-0.006458,0.003053,-39.5,9.37,-23.25,3b
2019-07-12_105603:820,-0.308075,-0.015747,-0.382324,-0.0008269999999999999,-0.007129000000000001,0.002168,-39.5,9.37,-23.25,3b
2019-07-12_105603:840,-0.312164,-0.014221000000000001,-0.385864,-0.000797,-0.007862000000000001,0.0011,-38.75,8.68,-24.75,3b
2019-07-12_105603:860,-0.311646,-0.011687999999999999,-0.384857,-0.000553,-0.007923000000000001,0.001832,-38.75,8.68,-24.75,3b
2019-07-12_105603:880,-0.311127,-0.012695,-0.386383,-0.000217,-0.007923000000000001,0.0034189999999999997,-38.75,8.68,-24.75,3b
2019-07-12_105603:900,-0.306061,-0.013213999999999998,-0.387909,-0.000553,-0.007923000000000001,0.00403,-39.5,9.37,-23.68,3b
2019-07-12_105603:920,-0.30300900000000003,-0.012177,-0.387909,-0.001072,-0.008258,0.004091,-39.5,9.37,-23.68,3b
2019-07-12_105603:940,-0.307068,-0.015747,-0.390961,-0.001468,-0.008716,0.00403,-40.68,9.06,-24.059998999999998,3b
2019-07-12_105603:960,-0.309113,-0.015747,-0.389435,-0.002323,-0.008716,0.0038469999999999997,-40.68,9.06,-24.059998999999998,3b
2019-07-12_105603:980,-0.311646,-0.017792,-0.391479,-0.002475,-0.008197,0.0039689999999999994,-40.68,9.06,-24.059998999999998,3b
2019-07-12_105604:000,-0.308075,-0.019318000000000002,-0.392487,-0.0027199999999999998,-0.007587000000000001,0.004457,-39.18,9.06,-23.68,3b
2019-07-12_105604:020,-0.307587,-0.020844,-0.393494,-0.002994,-0.007220999999999999,0.004732,-39.18,9.06,-23.68,3b
2019-07-12_105604:040,-0.308594,-0.021332,-0.39502,-0.002811,-0.0070680000000000005,0.004091,-39.5,9.06,-24.059998999999998,3b
2019-07-12_105604:060,-0.308075,-0.022858,-0.391968,-0.002872,-0.006488,0.0029620000000000002,-39.5,9.06,-24.059998999999998,3b
2019-07-12_105604:080,-0.30654899999999996,-0.020844,-0.394012,-0.002597,-0.006336,0.0027170000000000002,-39.5,9.06,-24.059998999999998,3b
2019-07-12_105604:100,-0.304016,-0.019806,-0.393005,-0.0022010000000000003,-0.006,0.0038469999999999997,-39.869999,9.06,-23.68,3b
2019-07-12_105604:120,-0.30654899999999996,-0.019806,-0.391479,-0.00214,-0.005817,0.003694,-39.869999,9.06,-23.68,3b
2019-07-12_105604:140,-0.29995700000000003,-0.016753999999999998,-0.389954,-0.002659,-0.005756,0.003297,-39.5,9.37,-25.25,3b
2019-07-12_105604:160,-0.301483,-0.01828,-0.389435,-0.0032689999999999998,-0.006092,0.003297,-39.5,9.37,-25.25,3b
2019-07-12_105604:180,-0.30249000000000004,-0.017792,-0.392487,-0.0037270000000000003,-0.0066099999999999996,0.003572,-39.5,9.37,-25.25,3b
2019-07-12_105604:200,-0.304016,-0.017792,-0.393005,-0.004520000000000001,-0.006885,0.003694,-39.5,9.06,-25.25,3b
2019-07-12_105604:220,-0.305054,-0.020844,-0.391968,-0.004612,-0.006885,0.004457,-39.5,9.06,-25.25,3b
2019-07-12_105604:240,-0.304535,-0.021332,-0.394012,-0.004947,-0.006854000000000001,0.004854,-39.5,9.06,-24.75,3b
2019-07-12_105604:260,-0.304016,-0.022858,-0.393494,-0.005222,-0.0066099999999999996,0.004732,-39.5,9.06,-24.75,3b
2019-07-12_105604:280,-0.306061,-0.021851,-0.393494,-0.0052829999999999995,-0.005756,0.004548,-39.5,9.06,-24.75,3b
2019-07-12_105604:300,-0.304535,-0.023375999999999997,-0.393005,-0.0052829999999999995,-0.005176,0.004182,-39.869999,9.06,-24.5,3b
2019-07-12_105604:320,-0.304016,-0.023375999999999997,-0.391479,-0.005161,-0.004779,0.0038469999999999997,-39.869999,9.06,-24.5,3b
2019-07-12_105604:340,-0.300964,-0.023895,-0.393494,-0.005039,-0.004444,0.003511,-39.18,9.37,-24.75,3b
2019-07-12_105604:360,-0.300476,-0.023895,-0.392487,-0.004581,-0.004596,0.003358,-39.18,9.37,-24.75,3b
2019-07-12_105604:380,-0.30654899999999996,-0.023895,-0.395538,-0.004275999999999999,-0.005054,0.0026260000000000003,-39.18,9.37,-24.75,3b
2019-07-12_105604:400,-0.309113,-0.023375999999999997,-0.396545,-0.00394,-0.004718,0.001497,-39.869999,9.75,-24.059998999999998,3b
2019-07-12_105604:420,-0.313171,-0.021332,-0.394531,-0.0033299999999999996,-0.003986,0.0008560000000000001,-39.869999,9.75,-24.059998999999998,3b
2019-07-12_105604:440,-0.315216,-0.018799,-0.39502,-0.002994,-0.002735,0.0007030000000000001,-39.18,9.06,-25.25,3b
2019-07-12_105604:460,-0.316223,-0.015228,-0.391968,-0.0027199999999999998,-0.002124,0.000642,-39.18,9.06,-25.25,3b
2019-07-12_105604:480,-0.317749,-0.013702,-0.391968,-0.003208,-0.001178,0.0008560000000000001,-39.18,9.06,-25.25,3b
2019-07-12_105604:500,-0.311127,-0.010651,-0.384338,-0.003544,-0.000659,0.001161,-39.5,8.25,-24.059998999999998,3b
2019-07-12_105604:520,-0.312653,-0.009644,-0.385376,-0.004459,-0.000781,0.001314,-39.5,8.25,-24.059998999999998,3b
2019-07-12_105604:540,-0.307068,-0.011687999999999999,-0.382324,-0.005222,-0.001056,0.001588,-40.25,8.25,-24.059998999999998,3b
2019-07-12_105604:560,-0.306061,-0.012695,-0.382812,-0.005741,-0.001941,0.001924,-40.25,8.25,-24.059998999999998,3b
2019-07-12_105604:580,-0.305054,-0.014221000000000001,-0.382812,-0.005375,-0.002857,0.002778,-40.25,8.25,-24.059998999999998,3b
2019-07-12_105604:600,-0.310638,-0.015228,-0.38385,-0.004825,-0.003833,0.00403,-39.869999,9.06,-22.870001000000002,3b
2019-07-12_105604:620,-0.314697,-0.012177,-0.384338,-0.0042450000000000005,-0.003925,0.004671,-39.869999,9.06,-22.870001000000002,3b
2019-07-12_105604:640,-0.31723,-0.010651,-0.381317,-0.004581,-0.003986,0.004854,-39.869999,8.68,-23.25,3b
2019-07-12_105604:660,-0.313171,-0.010162000000000001,-0.382324,-0.004978,-0.00365,0.00525,-39.869999,8.68,-23.25,3b
2019-07-12_105604:680,-0.312164,-0.012177,-0.384338,-0.005893,-0.003986,0.005647,-39.869999,8.68,-23.25,3b
2019-07-12_105604:700,-0.312653,-0.015228,-0.384857,-0.00629,-0.0045049999999999995,0.005739,-39.5,9.37,-23.68,3b
2019-07-12_105604:720,-0.315216,-0.017273,-0.384857,-0.006351,-0.004383,0.005983,-39.5,9.37,-23.68,3b
2019-07-12_105604:740,-0.321808,-0.018799,-0.386383,-0.006076,-0.0045049999999999995,0.006044,-40.25,9.37,-24.75,3b
2019-07-12_105604:760,-0.317749,-0.017792,-0.385376,-0.005832,-0.003711,0.006318,-40.25,9.37,-24.75,3b
2019-07-12_105604:780,-0.316742,-0.019318000000000002,-0.386383,-0.005436,-0.003436,0.00525,-40.25,9.37,-24.75,3b
2019-07-12_105604:800,-0.317749,-0.017792,-0.389435,-0.005558,-0.003436,0.004548,-39.5,8.25,-23.25,3b
2019-07-12_105604:820,-0.318268,-0.019806,-0.38385,-0.005039,-0.002979,0.00525,-39.5,8.25,-23.25,3b
2019-07-12_105604:840,-0.31723,-0.016753999999999998,-0.382324,-0.004612,-0.002643,0.005006,-40.25,9.37,-23.25,3b
2019-07-12_105604:860,-0.320282,-0.016266,-0.382812,-0.004764,-0.002857,0.004396,-40.25,9.37,-23.25,3b
2019-07-12_105604:880,-0.317749,-0.015747,-0.38028,-0.004612,-0.002582,0.004396,-40.25,9.37,-23.25,3b
2019-07-12_105604:900,-0.316742,-0.017273,-0.379272,-0.004612,-0.002918,0.004091,-40.68,8.68,-23.25,3b
2019-07-12_105604:920,-0.31723,-0.017792,-0.379272,-0.004612,-0.003375,0.003908,-40.68,8.68,-23.25,3b
2019-07-12_105604:940,-0.31723,-0.017273,-0.379791,-0.004398,-0.003589,0.0038159999999999995,-40.68,9.75,-24.059998999999998,3b
2019-07-12_105604:960,-0.318268,-0.017273,-0.378754,-0.004184,-0.00426,0.0038159999999999995,-40.68,9.75,-24.059998999999998,3b
2019-07-12_105604:980,-0.318756,-0.016266,-0.378265,-0.004123,-0.004657,0.0037549999999999997,-40.68,9.75,-24.059998999999998,3b
2019-07-12_105605:000,-0.318756,-0.015747,-0.378265,-0.004062,-0.00484,0.003908,-40.68,8.68,-23.25,3b
2019-07-12_105605:020,-0.316742,-0.015747,-0.379272,-0.00394,-0.005054,0.0038469999999999997,-40.68,8.68,-23.25,3b
2019-07-12_105605:040,-0.318756,-0.015747,-0.378265,-0.0042450000000000005,-0.005817,0.004182,-39.869999,9.06,-22.870001000000002,3b
2019-07-12_105605:060,-0.320801,-0.016753999999999998,-0.377228,-0.004337,-0.006092,0.004091,-39.869999,9.06,-22.870001000000002,3b
2019-07-12_105605:080,-0.319794,-0.016266,-0.378265,-0.004520000000000001,-0.006214,0.004091,-39.869999,9.06,-22.870001000000002,3b
2019-07-12_105605:100,-0.318268,-0.016753999999999998,-0.377747,-0.004581,-0.006,0.004182,-40.68,8.68,-22.5,3b
2019-07-12_105605:120,-0.317749,-0.017792,-0.379272,-0.004459,-0.006275,0.004335,-40.68,8.68,-22.5,3b
2019-07-12_105605:140,-0.320801,-0.016753999999999998,-0.38028,-0.004459,-0.006885,0.004396,-40.68,9.06,-24.059998999999998,3b
2019-07-12_105605:160,-0.318756,-0.019318000000000002,-0.38028,-0.004275999999999999,-0.006885,0.004915,-40.68,9.06,-24.059998999999998,3b
2019-07-12_105605:180,-0.322845,-0.018799,-0.382324,-0.003879,-0.0070680000000000005,0.004609,-40.68,9.06,-24.059998999999998,3b
2019-07-12_105605:200,-0.321808,-0.016266,-0.381317,-0.0036659999999999996,-0.006793,0.0039689999999999994,-39.5,9.37,-23.25,3b
2019-07-12_105605:220,-0.324371,-0.015747,-0.382324,-0.003483,-0.006548999999999999,0.003908,-39.5,9.37,-23.25,3b
2019-07-12_105605:240,-0.318268,-0.015747,-0.381317,-0.003849,-0.0061530000000000005,0.0038469999999999997,-40.68,9.06,-22.870001000000002,3b
2019-07-12_105605:260,-0.316223,-0.015228,-0.379272,-0.004062,-0.005939,0.0038469999999999997,-40.68,9.06,-22.870001000000002,3b
2019-07-12_105605:280,-0.316223,-0.016266,-0.382324,-0.004581,-0.006397,0.003511,-40.68,9.06,-22.870001000000002,3b
2019-07-12_105605:300,-0.31723,-0.017792,-0.381317,-0.0042450000000000005,-0.006731999999999999,0.003908,-40.68,9.75,-22.059998999999998,3b
2019-07-12_105605:320,-0.32132,-0.016753999999999998,-0.381317,-0.003879,-0.006488,0.004274,-40.68,9.75,-22.059998999999998,3b
2019-07-12_105605:340,-0.318756,-0.016266,-0.381317,-0.0036049999999999997,-0.0060609999999999995,0.004182,-41.0,9.75,-23.25,3b
2019-07-12_105605:360,-0.311127,-0.013702,-0.379791,-0.004001,-0.005756,0.003908,-41.0,9.75,-23.25,3b
2019-07-12_105605:380,-0.311646,-0.013213999999999998,-0.382324,-0.004398,-0.006397,0.004182,-41.0,9.75,-23.25,3b
2019-07-12_105605:400,-0.314178,-0.013702,-0.383331,-0.004612,-0.006945999999999999,0.004335,-39.869999,8.68,-24.059998999999998,3b
2019-07-12_105605:420,-0.319275,-0.014221000000000001,-0.382812,-0.0051,-0.007343000000000001,0.004335,-39.869999,8.68,-24.059998999999998,3b
2019-07-12_105605:440,-0.320282,-0.015747,-0.383331,-0.005222,-0.006945999999999999,0.004854,-40.68,9.06,-23.25,3b
2019-07-12_105605:460,-0.319275,-0.016266,-0.385376,-0.005375,-0.006488,0.005525,-40.68,9.06,-23.25,3b
2019-07-12_105605:480,-0.314697,-0.019318000000000002,-0.385376,-0.005375,-0.005725,0.004945000000000001,-40.68,9.06,-23.25,3b
2019-07-12_105605:500,-0.316742,-0.01828,-0.385376,-0.005436,-0.005725,0.0039689999999999994,-40.25,9.37,-22.870001000000002,3b
2019-07-12_105605:520,-0.315704,-0.018799,-0.384338,-0.005161,-0.005634,0.004213000000000001,-40.25,9.37,-22.870001000000002,3b
2019-07-12_105605:540,-0.31723,-0.019318000000000002,-0.385376,-0.004764,-0.005451,0.004548,-40.68,8.68,-23.25,3b
2019-07-12_105605:560,-0.318756,-0.016753999999999998,-0.382812,-0.004612,-0.00539,0.003694,-40.68,8.68,-23.25,3b
2019-07-12_105605:580,-0.316742,-0.015747,-0.383331,-0.004642,-0.005054,0.003358,-40.68,8.68,-23.25,3b
2019-07-12_105605:600,-0.314697,-0.015747,-0.38028,-0.004459,-0.005115,0.0037549999999999997,-39.869999,9.75,-23.25,3b
2019-07-12_105605:620,-0.313171,-0.015228,-0.379791,-0.004764,-0.00539,0.0037549999999999997,-39.869999,9.75,-23.25,3b
2019-07-12_105605:640,-0.313171,-0.015747,-0.382324,-0.004978,-0.005756,0.0037549999999999997,-39.869999,9.37,-24.75,3b
2019-07-12_105605:660,-0.31369,-0.015228,-0.381805,-0.005039,-0.0061530000000000005,0.004396,-39.869999,9.37,-24.75,3b
2019-07-12_105605:680,-0.316223,-0.017273,-0.383331,-0.004978,-0.006397,0.004548,-39.869999,9.37,-24.75,3b
2019-07-12_105605:700,-0.315704,-0.018799,-0.383331,-0.004886,-0.006548999999999999,0.004548,-39.869999,8.68,-22.059998999999998,3b
2019-07-12_105605:720,-0.31723,-0.01828,-0.384338,-0.004764,-0.006275,0.005067,-39.869999,8.68,-22.059998999999998,3b
2019-07-12_105605:740,-0.316742,-0.017792,-0.385864,-0.004764,-0.0061530000000000005,0.005006,-40.25,9.75,-23.68,3b
2019-07-12_105605:760,-0.318756,-0.01828,-0.385376,-0.004947,-0.005695,0.004854,-40.25,9.75,-23.68,3b
2019-07-12_105605:780,-0.318756,-0.019806,-0.385864,-0.004825,-0.005359,0.004609,-40.25,9.75,-23.68,3b
2019-07-12_105605:800,-0.318756,-0.020325,-0.384857,-0.004612,-0.005359,0.0039689999999999994,-40.25,9.37,-23.25,3b
2019-07-12_105605:820,-0.318756,-0.019806,-0.384338,-0.004612,-0.004779,0.003633,-40.25,9.37,-23.25,3b
2019-07-12_105605:840,-0.314178,-0.020325,-0.382324,-0.004337,-0.0045049999999999995,0.0038159999999999995,-40.68,9.37,-23.25,3b
2019-07-12_105605:860,-0.316223,-0.020844,-0.381317,-0.004001,-0.004901,0.003511,-40.68,9.37,-23.25,3b
2019-07-12_105605:880,-0.313171,-0.017273,-0.38028,-0.003788,-0.004993,0.003511,-40.68,9.37,-23.25,3b
2019-07-12_105605:900,-0.316223,-0.015747,-0.381317,-0.0037270000000000003,-0.00539,0.004152,-41.0,8.25,-23.68,3b
2019-07-12_105605:920,-0.315216,-0.017273,-0.380798,-0.004123,-0.005451,0.003694,-41.0,8.25,-23.68,3b
2019-07-12_105605:940,-0.314178,-0.016753999999999998,-0.382324,-0.004642,-0.005695,0.0029,-40.68,9.06,-24.059998999999998,3b
2019-07-12_105605:960,-0.318268,-0.01828,-0.382812,-0.004978,-0.0061530000000000005,0.002839,-40.68,9.06,-24.059998999999998,3b
2019-07-12_105605:980,-0.316742,-0.018799,-0.383331,-0.004642,-0.006214,0.003694,-40.68,9.06,-24.059998999999998,3b
2019-07-12_105606:000,-0.317749,-0.020844,-0.384338,-0.004062,-0.005878,0.004457,-40.68,9.06,-22.5,3b
2019-07-12_105606:020,-0.319275,-0.020325,-0.383331,-0.003849,-0.005451,0.004152,-40.68,9.06,-22.5,3b
2019-07-12_105606:040,-0.31723,-0.019318000000000002,-0.384857,-0.004123,-0.005298,0.004152,-40.68,9.06,-24.5,3b
2019-07-12_105606:060,-0.316223,-0.017792,-0.383331,-0.004337,-0.00539,0.003694,-40.68,9.06,-24.5,3b
2019-07-12_105606:080,-0.314178,-0.017273,-0.381805,-0.004642,-0.00539,0.00345,-40.68,9.06,-24.5,3b
2019-07-12_105606:100,-0.316742,-0.018799,-0.383331,-0.004612,-0.005451,0.003297,-40.25,8.68,-23.25,3b
2019-07-12_105606:120,-0.316742,-0.019318000000000002,-0.383331,-0.004337,-0.006092,0.0034189999999999997,-40.25,8.68,-23.25,3b
2019-07-12_105606:140,-0.318756,-0.018799,-0.381805,-0.003879,-0.005725,0.003511,-41.369999,9.37,-23.68,3b
2019-07-12_105606:160,-0.316742,-0.017273,-0.382324,-0.003483,-0.005451,0.003023,-41.369999,9.37,-23.68,3b
2019-07-12_105606:180,-0.315216,-0.013213999999999998,-0.382812,-0.0037270000000000003,-0.005725,0.003175,-41.369999,9.37,-23.68,3b
2019-07-12_105606:200,-0.316742,-0.012177,-0.380798,-0.003879,-0.005573,0.004548,-40.68,8.25,-22.870001000000002,3b
2019-07-12_105606:220,-0.316742,-0.013213999999999998,-0.382324,-0.004337,-0.0060609999999999995,0.004915,-40.68,8.25,-22.870001000000002,3b
2019-07-12_105606:240,-0.315216,-0.012695,-0.380798,-0.004978,-0.006214,0.004213000000000001,-40.68,8.68,-23.25,3b
2019-07-12_105606:260,-0.314697,-0.013213999999999998,-0.380798,-0.005436,-0.006548999999999999,0.004854,-40.68,8.68,-23.25,3b
2019-07-12_105606:280,-0.31369,-0.015747,-0.381805,-0.005741,-0.006670999999999999,0.005739,-40.68,8.68,-23.25,3b
2019-07-12_105606:300,-0.312653,-0.016266,-0.385376,-0.005893,-0.00719,0.005861,-40.25,8.68,-23.68,3b
2019-07-12_105606:320,-0.31369,-0.019318000000000002,-0.383331,-0.005893,-0.0070680000000000005,0.005647,-40.25,8.68,-23.68,3b
2019-07-12_105606:340,-0.312653,-0.020325,-0.384857,-0.005375,-0.007220999999999999,0.005647,-40.25,9.06,-23.25,3b
2019-07-12_105606:360,-0.314697,-0.021332,-0.385864,-0.004825,-0.007343000000000001,0.005128,-40.25,9.06,-23.25,3b
2019-07-12_105606:380,-0.315704,-0.020844,-0.38739,-0.004337,-0.00719,0.004548,-40.25,9.06,-23.25,3b
2019-07-12_105606:400,-0.315704,-0.019318000000000002,-0.387909,-0.004062,-0.006854000000000001,0.004732,-40.68,8.68,-23.68,3b
2019-07-12_105606:420,-0.314697,-0.017792,-0.388428,-0.00394,-0.006488,0.005006,-40.68,8.68,-23.68,3b
2019-07-12_105606:440,-0.313171,-0.017792,-0.388428,-0.003849,-0.006214,0.004518,-40.25,9.37,-23.25,3b
2019-07-12_105606:460,-0.312164,-0.01828,-0.386383,-0.003849,-0.006092,0.004396,-40.25,9.37,-23.25,3b
2019-07-12_105606:480,-0.313171,-0.017792,-0.386902,-0.003788,-0.005939,0.004396,-40.25,9.37,-23.25,3b
2019-07-12_105606:500,-0.31369,-0.018799,-0.389954,-0.0036049999999999997,-0.005725,0.004335,-40.68,9.75,-23.68,3b
2019-07-12_105606:520,-0.319275,-0.016753999999999998,-0.386383,-0.003483,-0.005573,0.004518,-40.68,9.75,-23.68,3b
2019-07-12_105606:540,-0.316223,-0.016753999999999998,-0.385864,-0.0032689999999999998,-0.004961999999999999,0.005403,-40.68,8.68,-25.68,3b
2019-07-12_105606:560,-0.316742,-0.015747,-0.385864,-0.003483,-0.004718,0.005403,-40.68,8.68,-25.68,3b
2019-07-12_105606:580,-0.316223,-0.016753999999999998,-0.384857,-0.004123,-0.004596,0.004609,-40.68,8.68,-25.68,3b
2019-07-12_105606:600,-0.316742,-0.016753999999999998,-0.384338,-0.004520000000000001,-0.004596,0.004335,-40.68,9.06,-23.68,3b
2019-07-12_105606:620,-0.316742,-0.018799,-0.382812,-0.004581,-0.004321,0.005067,-40.68,9.06,-23.68,3b
2019-07-12_105606:640,-0.314178,-0.018799,-0.381805,-0.0042450000000000005,-0.004383,0.006196,-39.869999,9.06,-24.5,3b
2019-07-12_105606:660,-0.316223,-0.020325,-0.381805,-0.00394,-0.004383,0.006318,-39.869999,9.06,-24.5,3b
2019-07-12_105606:680,-0.315216,-0.019318000000000002,-0.381317,-0.004123,-0.004596,0.005647,-39.869999,9.06,-24.5,3b
2019-07-12_105606:700,-0.315704,-0.01828,-0.38028,-0.004459,-0.004657,0.005922,-40.25,9.75,-23.68,3b
2019-07-12_105606:720,-0.314178,-0.019318000000000002,-0.380798,-0.005039,-0.005115,0.005983,-40.25,9.75,-23.68,3b
2019-07-12_105606:740,-0.316742,-0.021332,-0.380798,-0.005558,-0.005359,0.005586,-40.68,9.75,-22.870001000000002,3b
2019-07-12_105606:760,-0.31723,-0.022369,-0.38028,-0.005497,-0.005725,0.005403,-40.68,9.75,-22.870001000000002,3b
2019-07-12_105606:780,-0.32132,-0.023375999999999997,-0.381317,-0.005161,-0.006092,0.00525,-40.68,9.75,-22.870001000000002,3b
2019-07-12_105606:800,-0.318756,-0.022858,-0.38385,-0.004703,-0.005817,0.005189,-39.869999,9.37,-23.68,3b
2019-07-12_105606:820,-0.32132,-0.021332,-0.383331,-0.004275999999999999,-0.005756,0.004793,-39.869999,9.37,-23.68,3b
2019-07-12_105606:840,-0.319794,-0.019318000000000002,-0.381317,-0.004337,-0.005756,0.004518,-41.0,9.37,-24.059998999999998,3b
2019-07-12_105606:860,-0.318268,-0.018799,-0.379272,-0.004459,-0.005756,0.005464,-41.0,9.37,-24.059998999999998,3b
2019-07-12_105606:880,-0.316742,-0.018799,-0.38028,-0.004642,-0.005725,0.005586,-41.0,9.37,-24.059998999999998,3b
2019-07-12_105606:900,-0.314697,-0.018799,-0.378754,-0.0052829999999999995,-0.006397,0.005311,-40.68,9.06,-22.5,3b
2019-07-12_105606:920,-0.314697,-0.018799,-0.378265,-0.005375,-0.007129000000000001,0.005586,-40.68,9.06,-22.5,3b
2019-07-12_105606:940,-0.317749,-0.021332,-0.38028,-0.005619,-0.007465,0.005861,-40.25,9.75,-23.25,3b
2019-07-12_105606:960,-0.319794,-0.021851,-0.379272,-0.005741,-0.007281999999999999,0.005311,-40.25,9.75,-23.25,3b
2019-07-12_105606:980,-0.316742,-0.022369,-0.380798,-0.005832,-0.007465,0.005739,-40.25,9.75,-23.25,3b
2019-07-12_105607:000,-0.315704,-0.022369,-0.379791,-0.005619,-0.007343000000000001,0.006470999999999999,-40.25,9.75,-22.870001000000002,3b
2019-07-12_105607:020,-0.311127,-0.024384,-0.382324,-0.005497,-0.008014,0.006257,-40.25,9.75,-22.870001000000002,3b
2019-07-12_105607:040,-0.313171,-0.024384,-0.382812,-0.0052829999999999995,-0.008411,0.005647,-40.68,9.37,-23.68,3b
