timestamp,AccX,AccY,AccZ,GyroX,GyroY,GyroZ,MagX,MagY,MagZ,Activity
2019-07-12_115917:660,-0.3396,-0.022858,-0.401642,-0.019108,-0.024188,0.034273000000000005,-31.5,13.25,-8.68,1a
2019-07-12_115917:680,-0.30249000000000004,-0.038635,-0.377228,-0.018833000000000003,-0.022663,0.031160000000000004,-32.25,13.68,-9.87,1a
2019-07-12_115917:700,-0.271484,-0.046265,-0.372162,-0.014774,-0.019763,0.030092,-32.25,13.68,-9.87,1a
2019-07-12_115917:720,-0.273529,-0.061005,-0.349274,-0.013065,-0.019275,0.029602999999999997,-31.870001000000002,14.18,-9.87,1a
2019-07-12_115917:740,-0.310638,-0.06149299999999999,-0.34265100000000004,-0.010348999999999999,-0.018146000000000002,0.025758,-31.870001000000002,14.18,-9.87,1a
2019-07-12_115917:760,-0.326904,-0.053863999999999995,-0.318756,-0.0069,-0.011066,0.018463999999999998,-31.870001000000002,14.18,-9.87,1a
2019-07-12_115917:780,-0.325378,-0.047272,-0.308594,-0.006168,-0.009326000000000001,0.017091,-29.68,15.25,-11.0,1a
2019-07-12_115917:800,-0.345215,-0.036072,-0.30654899999999996,-0.005832,-0.005725,0.016298,-29.68,15.25,-11.0,1a
2019-07-12_115917:820,-0.34063699999999997,-0.034058,-0.31012,-0.00629,-0.00426,0.01642,-29.68,15.25,-11.0,1a
2019-07-12_115917:840,-0.314697,-0.032013,-0.308075,-0.0069,-0.002582,0.011629,-32.0,16.370001000000002,-12.18,1a
2019-07-12_115917:860,-0.297913,-0.021851,-0.316223,-0.007755,-0.002857,0.008638,-32.0,16.370001000000002,-12.18,1a
2019-07-12_115917:880,-0.278107,-0.014221000000000001,-0.319794,-0.008395999999999999,-0.004047,0.004091,-31.0,16.370001000000002,-10.25,1a
2019-07-12_115917:900,-0.305542,-0.007599,-0.33197,-0.00867,-0.007526000000000001,0.002687,-31.0,16.370001000000002,-10.25,1a
2019-07-12_115917:920,-0.340118,-0.017273,-0.338074,-0.007999,-0.00893,0.005342,-29.5,16.370001000000002,-11.0,1a
2019-07-12_115917:940,-0.338593,-0.023375999999999997,-0.33300799999999997,-0.005771,-0.008075,0.00757,-29.5,16.370001000000002,-11.0,1a
2019-07-12_115917:960,-0.36911,-0.027954000000000003,-0.326385,0.0009119999999999999,-0.009143,0.006532,-29.5,16.370001000000002,-11.0,1a
2019-07-12_115917:980,-0.388916,-0.029480000000000003,-0.344177,0.00372,-0.010639000000000001,0.006044,-30.559998999999998,16.059998999999998,-11.87,1a
2019-07-12_115918:000,-0.415375,-0.016266,-0.3396,0.012387,-0.010669,0.0019850000000000002,-30.559998999999998,16.059998999999998,-11.87,1a
2019-07-12_115918:020,-0.389954,-0.005065999999999999,-0.338074,0.013211,-0.009784000000000001,0.0019850000000000002,-30.559998999999998,16.059998999999998,-11.87,1a
2019-07-12_115918:040,-0.370636,0.0,-0.35791,0.012326,-0.01012,0.014740999999999999,-30.559998999999998,16.75,-11.5,1a
2019-07-12_115918:060,-0.33300799999999997,-0.028961,-0.381805,0.012051000000000001,-0.01073,0.020143,-30.559998999999998,16.75,-11.5,1a
2019-07-12_115918:080,-0.5267029999999999,-0.086426,-0.41333000000000003,0.010128,-0.018543,0.023927,-30.559998999999998,16.75,-13.0,1a
2019-07-12_115918:100,-0.485016,-0.08843999999999999,-0.518066,0.006161,-0.031238,0.031160000000000004,-30.559998999999998,16.75,-13.0,1a
2019-07-12_115918:120,-0.38385,-0.139801,-0.415375,0.007077,-0.021289,0.027223,-30.559998999999998,16.75,-13.0,1a
2019-07-12_115918:140,-0.300476,-0.157074,-0.48553500000000005,0.000576,-0.022083000000000002,0.016145,-29.75,17.18,-11.5,1a
2019-07-12_115918:160,-0.30654899999999996,-0.138275,-0.459595,-0.0032689999999999998,-0.003375,0.021394,-29.75,17.18,-11.5,1a
2019-07-12_115918:180,-0.28927600000000003,-0.160645,-0.40368699999999996,-0.004703,0.005841,0.020051,-30.18,18.559998999999998,-14.18,1a
2019-07-12_115918:200,-0.28927600000000003,-0.14386,-0.386902,-0.010532,0.020581,0.012147,-30.18,18.559998999999998,-14.18,1a
2019-07-12_115918:220,-0.21606399999999998,-0.143372,-0.38028,-0.011661,0.020031999999999998,0.013826,-30.18,18.559998999999998,-14.18,1a
2019-07-12_115918:240,-0.155548,-0.177948,-0.37011700000000003,-0.011814,0.010418,0.017274,-29.5,19.0,-12.18,1a
2019-07-12_115918:260,-0.171326,-0.187592,-0.37674,-0.010532,-0.004961999999999999,0.011384,-29.5,19.0,-12.18,1a
2019-07-12_115918:280,-0.200317,-0.192688,-0.38739,-0.008274,-0.016895,0.001314,-29.75,19.0,-13.0,1a
2019-07-12_115918:300,-0.27301,-0.184021,-0.384338,-0.003055,-0.02367,-0.0058579999999999995,-29.75,19.0,-13.0,1a
2019-07-12_115918:320,-0.339111,-0.157593,-0.382812,0.00256,-0.019672,-0.015013,-29.75,19.0,-13.0,1a
2019-07-12_115918:340,-0.34063699999999997,-0.127106,-0.363007,0.004116,-0.011127,-0.025786,-30.559998999999998,19.370001000000002,-15.37,1a
2019-07-12_115918:360,-0.335022,-0.078278,-0.34368899999999997,0.004299,-0.004901,-0.027677999999999998,-30.559998999999998,19.370001000000002,-15.37,1a
2019-07-12_115918:380,-0.307068,-0.056427,-0.327911,0.000454,-0.001178,-0.021238999999999997,-31.059998999999998,18.25,-13.87,1a
2019-07-12_115918:400,-0.288269,-0.05438200000000001,-0.316742,-0.00687,-0.0008119999999999999,-0.014678,-31.059998999999998,18.25,-13.87,1a
2019-07-12_115918:420,-0.274536,-0.062012,-0.322327,-0.014255,-0.004108,-0.010954,-31.059998999999998,18.25,-13.87,1a
2019-07-12_115918:440,-0.275543,-0.071167,-0.326385,-0.019962,-0.009265,-0.007842,-30.68,18.25,-13.0,1a
2019-07-12_115918:460,-0.282654,-0.086914,-0.334015,-0.02341,-0.013233000000000002,-0.0073230000000000005,-30.68,18.25,-13.0,1a
2019-07-12_115918:480,-0.29284699999999997,-0.09301799999999999,-0.338074,-0.025394,-0.016040000000000002,-0.009581000000000001,-31.75,17.5,-14.68,1a
2019-07-12_115918:500,-0.318756,-0.105743,-0.338074,-0.025608,-0.014575,-0.010588,-31.75,17.5,-14.68,1a
2019-07-12_115918:520,-0.331482,-0.110321,-0.3396,-0.023807,-0.009662,-0.010832,-31.75,17.5,-14.68,1a
2019-07-12_115918:540,-0.328949,-0.114899,-0.33758499999999997,-0.021305,-0.002857,-0.012297,-31.370001000000002,17.18,-15.87,1a
2019-07-12_115918:560,-0.327911,-0.107269,-0.337067,-0.018436,0.001843,-0.012816,-31.370001000000002,17.18,-15.87,1a
2019-07-12_115918:580,-0.318756,-0.103699,-0.327911,-0.015567,0.005719,-0.010771,-32.060001,16.059998999999998,-14.68,1a
2019-07-12_115918:600,-0.346222,-0.095062,-0.325897,-0.014194,0.008556999999999999,-0.008055,-32.060001,16.059998999999998,-14.68,1a
2019-07-12_115918:620,-0.335541,-0.096588,-0.335541,-0.014041999999999999,0.008771,-0.004515,-32.060001,16.059998999999998,-14.68,1a
2019-07-12_115918:640,-0.34570300000000004,-0.090485,-0.331482,-0.014835,0.010205,-0.0042710000000000005,-32.869999,16.059998999999998,-16.18,1a
2019-07-12_115918:660,-0.359955,-0.07775900000000001,-0.352325,-0.017582,0.007763,-0.006529000000000001,-32.869999,16.059998999999998,-16.18,1a
2019-07-12_115918:680,-0.33758499999999997,-0.072174,-0.35638400000000003,-0.021274,0.005902,-0.007262,-33.869999,15.68,-15.87,1a
2019-07-12_115918:700,-0.324371,-0.066589,-0.373688,-0.026188,0.003399,-0.006072,-33.869999,15.68,-15.87,1a
2019-07-12_115918:720,-0.325897,-0.062012,-0.406738,-0.030764999999999997,-0.0014529999999999999,-0.007262,-33.869999,15.68,-15.87,1a
2019-07-12_115918:740,-0.484497,-0.045226999999999996,-0.452484,-0.034305,-0.008075,-0.012908000000000001,-33.5,14.87,-15.75,1a
2019-07-12_115918:760,-0.49926800000000005,-0.038116000000000004,-0.519592,-0.038425,-0.01955,-0.013762,-33.5,14.87,-15.75,1a
2019-07-12_115918:780,-0.484009,-0.009125,-0.492645,-0.04047,-0.014453,-0.011382,-34.25,13.75,-16.559998999999998,1a
2019-07-12_115918:800,-0.345215,0.007111,-0.512482,-0.043644,-0.008594,-0.010709999999999999,-34.25,13.75,-16.559998999999998,1a
2019-07-12_115918:820,-0.282654,0.039124,-0.48858599999999996,-0.041782,0.002667,-0.017333,-34.25,13.75,-16.559998999999998,1a
2019-07-12_115918:840,-0.312164,0.063019,-0.465179,-0.036838,0.015606,-0.030272000000000004,-33.18,13.37,-17.0,1a
2019-07-12_115918:860,-0.333496,0.108795,-0.41232299999999994,-0.031162,0.033398000000000004,-0.038298,-33.18,13.37,-17.0,1a
2019-07-12_115918:880,-0.307587,0.135742,-0.39859,-0.026279000000000004,0.041882,-0.03015,-35.0,12.25,-15.87,1a
2019-07-12_115918:900,-0.282166,0.132172,-0.356903,-0.023197,0.042492,-0.013822999999999998,-35.0,12.25,-15.87,1a
2019-07-12_115918:920,-0.30249000000000004,0.12149000000000001,-0.335022,-0.021152,0.039563,-0.003783,-35.0,12.25,-15.87,1a
2019-07-12_115918:940,-0.330475,0.11080899999999999,-0.311646,-0.019291,0.03645,0.003633,-36.18,9.37,-14.68,1a
2019-07-12_115918:960,-0.330475,0.098633,-0.300964,-0.015964,0.032513,0.014284,-36.18,9.37,-14.68,1a
2019-07-12_115918:980,-0.314178,0.0737,-0.304535,-0.013004,0.023175,0.022371000000000002,-36.18,10.06,-14.18,1a
2019-07-12_115919:000,-0.296906,0.058960000000000005,-0.298431,-0.010532,0.01228,0.02411,-36.18,10.06,-14.18,1a
2019-07-12_115919:020,-0.293854,0.045745999999999995,-0.28875700000000004,-0.006351,0.003247,0.022767,-36.18,10.06,-14.18,1a
2019-07-12_115919:040,-0.309601,0.040649,-0.28875700000000004,-0.0018039999999999998,-0.00365,0.022645,-36.869999,9.37,-13.5,1a
2019-07-12_115919:060,-0.348267,0.037108999999999996,-0.279633,0.002499,-0.006,0.023988,-36.869999,9.37,-13.5,1a
2019-07-12_115919:080,-0.363007,0.035065,-0.271484,0.005429,-0.005939,0.026704000000000002,-37.25,10.06,-13.0,1a
2019-07-12_115919:100,-0.369598,0.033539,-0.260284,0.0074730000000000005,-0.004169,0.030366000000000004,-37.25,10.06,-13.0,1a
2019-07-12_115919:120,-0.375702,0.031494,-0.2547,0.008541,-0.00246,0.032289,-37.25,10.06,-13.0,1a
2019-07-12_115919:140,-0.372162,0.031494,-0.24353000000000002,0.00848,-0.0009339999999999999,0.030885000000000003,-37.68,11.18,-13.87,1a
2019-07-12_115919:160,-0.358917,0.031494,-0.237427,0.0077480000000000005,7.3e-05,0.028839999999999998,-37.68,11.18,-13.87,1a
2019-07-12_115919:180,-0.353851,0.028961,-0.231323,0.006558,-8e-05,0.028352,-36.869999,12.37,-13.37,1a
2019-07-12_115919:200,-0.35180700000000004,0.025421,-0.230804,0.004696,-0.001117,0.028687999999999998,-36.869999,12.37,-13.37,1a
2019-07-12_115919:220,-0.355377,0.017792,-0.234375,0.002987,-0.002582,0.028505000000000003,-36.869999,12.37,-13.37,1a
2019-07-12_115919:240,-0.35943600000000003,0.011687999999999999,-0.23284899999999997,0.002316,-0.004108,0.026430000000000002,-37.25,13.87,-13.0,1a
2019-07-12_115919:260,-0.388428,0.009125,-0.248108,0.00259,-0.007129000000000001,0.020662,-37.25,13.87,-13.0,1a
2019-07-12_115919:280,-0.411285,0.009644,-0.258759,0.004116,-0.010242,0.014284,-36.869999,14.68,-13.5,1a
2019-07-12_115919:300,-0.42248500000000005,0.017792,-0.283173,0.0061,-0.013568,0.01169,-36.869999,14.68,-13.5,1a
2019-07-12_115919:320,-0.434174,0.019318000000000002,-0.286224,0.008602,-0.014513999999999999,0.013643,-36.869999,14.68,-13.5,1a
2019-07-12_115919:340,-0.42758199999999996,0.020325,-0.314697,0.010556,-0.015552000000000002,0.016541999999999998,-36.869999,15.25,-13.87,1a
2019-07-12_115919:360,-0.399597,0.017273,-0.32843,0.012387,-0.013843000000000001,0.017061,-36.869999,15.25,-13.87,1a
2019-07-12_115919:380,-0.404175,-0.011687999999999999,-0.379791,0.013516,-0.015949,0.014802000000000001,-36.869999,15.68,-14.18,1a
2019-07-12_115919:400,-0.557739,-0.019318000000000002,-0.45043900000000003,0.014126,-0.027118,0.014558000000000001,-36.869999,15.68,-14.18,1a
2019-07-12_115919:420,-0.5404359999999999,-0.062012,-0.489594,0.014187,-0.036731,0.023195,-36.869999,15.68,-14.18,1a
2019-07-12_115919:440,-0.5205989999999999,-0.083862,-0.49111899999999997,0.0173,-0.030902,0.026094,-38.0,16.75,-14.68,1a
2019-07-12_115919:460,-0.40774499999999997,-0.105225,-0.49365200000000004,0.018032,-0.027118,0.016267,-38.0,16.75,-14.68,1a
2019-07-12_115919:480,-0.35131799999999996,-0.103699,-0.45706199999999997,0.019497,-0.005359,0.008302,-36.18,17.5,-15.37,1a
2019-07-12_115919:500,-0.349792,-0.100647,-0.402649,0.017971,0.003399,0.014406,-36.18,17.5,-15.37,1a
2019-07-12_115919:520,-0.338593,-0.11691300000000002,-0.367584,0.014065000000000001,0.034131,0.032625,-36.18,17.5,-15.37,1a
2019-07-12_115919:540,-0.262848,-0.147949,-0.32486,0.010281,0.03996,0.025972000000000002,-36.5,17.870001000000002,-15.0,1a
2019-07-12_115919:560,-0.24453699999999998,-0.152008,-0.29742399999999997,0.009152,0.035168,0.012697,-36.5,17.870001000000002,-15.0,1a
2019-07-12_115919:580,-0.257751,-0.146423,-0.285217,0.007504,0.025738,0.003511,-36.5,19.370001000000002,-13.87,1a
2019-07-12_115919:600,-0.264862,-0.147949,-0.280121,0.005093,0.015118000000000001,-0.0009449999999999999,-36.5,19.370001000000002,-13.87,1a
2019-07-12_115919:620,-0.298431,-0.14386,-0.28979499999999997,0.00198,0.001324,-0.005736,-36.5,19.370001000000002,-13.87,1a
2019-07-12_115919:640,-0.297913,-0.142853,-0.304535,-0.000278,-0.010578,-0.014219999999999998,-36.5,18.559998999999998,-13.0,1a
2019-07-12_115919:660,-0.321808,-0.126068,-0.30249000000000004,-0.001529,-0.019763,-0.026549,-36.5,18.559998999999998,-13.0,1a
2019-07-12_115919:680,-0.34674099999999997,-0.104706,-0.307587,-0.0022010000000000003,-0.023731,-0.035674000000000004,-37.68,18.25,-11.87,1a
2019-07-12_115919:700,-0.360962,-0.083374,-0.30249000000000004,-0.002414,-0.022083000000000002,-0.038512,-37.68,18.25,-11.87,1a
2019-07-12_115919:720,-0.36706500000000003,-0.075226,-0.29943800000000004,-0.001865,-0.018482,-0.038054000000000004,-37.68,18.25,-11.87,1a
2019-07-12_115919:740,-0.377747,-0.060486,-0.29486100000000004,-0.0019260000000000002,-0.013324,-0.035460000000000005,-36.75,18.25,-12.68,1a
2019-07-12_115919:760,-0.36911,-0.05438200000000001,-0.28674299999999997,-0.001621,-0.007678,-0.03134,-36.75,18.25,-12.68,1a
2019-07-12_115919:780,-0.360962,-0.049316000000000006,-0.276062,-0.001621,-0.004779,-0.025969,-38.18,16.75,-14.18,1a
2019-07-12_115919:800,-0.353851,-0.046265,-0.275543,-0.002018,-0.003436,-0.020597999999999998,-38.18,16.75,-14.18,1a
2019-07-12_115919:820,-0.331482,-0.049316000000000006,-0.26944,-0.002079,-0.0032530000000000002,-0.017211,-38.18,16.75,-14.18,1a
2019-07-12_115919:840,-0.330963,-0.049316000000000006,-0.268951,-0.002597,-0.0038640000000000002,-0.015868,-38.560001,15.18,-14.18,1a
2019-07-12_115919:860,-0.35131799999999996,-0.047791,-0.270477,-0.002353,-0.0038640000000000002,-0.014678,-38.560001,15.18,-14.18,1a
2019-07-12_115919:880,-0.354858,-0.048798,-0.278595,-0.003147,-0.005359,-0.012175,-39.369999,14.06,-13.0,1a
2019-07-12_115919:900,-0.37316900000000003,-0.051849,-0.28112800000000004,-0.003788,-0.006854000000000001,-0.009825,-39.369999,14.06,-13.0,1a
2019-07-12_115919:920,-0.38739,-0.051849,-0.28369099999999997,-0.005436,-0.006885,-0.007445,-39.369999,14.06,-13.0,1a
2019-07-12_115919:940,-0.41995200000000005,-0.052338,-0.282654,-0.007755,-0.005359,-0.004729,-39.369999,13.75,-12.18,1a
2019-07-12_115919:960,-0.416901,-0.057434000000000006,-0.28979499999999997,-0.010348999999999999,-0.0030399999999999997,-0.002623,-39.369999,13.75,-12.18,1a
2019-07-12_115919:980,-0.402161,-0.063019,-0.283173,-0.012394,-0.0013310000000000002,-0.005339,-39.369999,13.75,-13.37,1a
2019-07-12_115920:000,-0.385376,-0.063019,-0.294373,-0.014713,-0.00307,-0.009764,-39.369999,13.75,-13.37,1a
2019-07-12_115920:020,-0.402649,-0.056427,-0.298431,-0.016575,-0.004108,-0.012511,-39.369999,13.75,-13.37,1a
2019-07-12_115920:040,-0.388916,-0.051330999999999995,-0.29232800000000003,-0.018619,-0.002979,-0.015013,-40.060001,13.06,-12.68,1a
2019-07-12_115920:060,-0.39502,-0.035065,-0.302002,-0.02222,-0.00426,-0.016081,-40.060001,13.06,-12.68,1a
2019-07-12_115920:080,-0.39859,-0.016753999999999998,-0.312653,-0.026462,-0.005115,-0.013884,-40.060001,12.25,-12.68,1a
2019-07-12_115920:100,-0.41333000000000003,-0.009644,-0.308075,-0.032901,-0.004779,-0.013243000000000001,-40.060001,12.25,-12.68,1a
2019-07-12_115920:120,-0.571442,0.032532,-0.365021,-0.041782,-0.008258,-0.014769,-40.060001,12.25,-12.68,1a
2019-07-12_115920:140,-0.528229,0.012695,-0.388428,-0.050082999999999996,-0.009387000000000001,-0.014341999999999999,-40.869999,10.75,-13.5,1a
2019-07-12_115920:160,-0.576538,0.040161,-0.406219,-0.056277999999999995,-0.00893,-0.022399000000000002,-40.869999,10.75,-13.5,1a
2019-07-12_115920:180,-0.514008,0.050842,-0.402649,-0.060764,-0.005176,-0.025633,-40.5,10.75,-13.87,1a
2019-07-12_115920:200,-0.363007,0.086426,-0.37011700000000003,-0.059971000000000003,0.005231,-0.026151999999999998,-40.5,10.75,-13.87,1a
2019-07-12_115920:220,-0.327423,0.100159,-0.361969,-0.057254,0.010570999999999999,-0.030088999999999998,-40.5,10.75,-13.87,1a
2019-07-12_115920:240,-0.312164,0.12912,-0.347229,-0.053165,0.015851,-0.033324,-40.5,7.87,-14.18,1a
2019-07-12_115920:260,-0.32843,0.144897,-0.29742399999999997,-0.047764,0.027295,-0.025511000000000002,-40.5,7.87,-14.18,1a
2019-07-12_115920:280,-0.313171,0.162689,-0.281647,-0.041721,0.032788,-0.007932999999999999,-41.560001,6.0,-13.87,1a
2019-07-12_115920:300,-0.290283,0.161652,-0.284698,-0.036411,0.028424,0.004732,-41.560001,6.0,-13.87,1a
2019-07-12_115920:320,-0.326904,0.160645,-0.270966,-0.031772,0.020123,0.005403,-41.560001,6.0,-13.87,1a
2019-07-12_115920:340,-0.359955,0.166748,-0.277588,-0.027591,0.012616,0.004274,-42.0,4.87,-12.18,1a
2019-07-12_115920:360,-0.393494,0.171326,-0.279114,-0.022739,0.0071530000000000005,0.009706000000000001,-42.0,4.87,-12.18,1a
2019-07-12_115920:380,-0.377228,0.166229,-0.285706,-0.019625999999999998,0.000805,0.016603,-42.369999,4.06,-11.5,1a
2019-07-12_115920:400,-0.36911,0.152008,-0.28418000000000004,-0.017307,-0.006336,0.019472,-42.369999,4.06,-11.5,1a
2019-07-12_115920:420,-0.369598,0.144379,-0.28875700000000004,-0.015781,-0.013446000000000001,0.022706,-42.369999,4.06,-11.5,1a
2019-07-12_115920:440,-0.388916,0.12200899999999999,-0.278595,-0.013706,-0.016712,0.030152999999999996,-42.75,4.06,-11.56,1a
2019-07-12_115920:460,-0.401642,0.104706,-0.266907,-0.011661,-0.015552000000000002,0.035982,-42.75,4.06,-11.56,1a
2019-07-12_115920:480,-0.41384899999999997,0.085388,-0.249115,-0.009556,-0.010851999999999999,0.038057,-42.060001,4.5,-11.56,1a
2019-07-12_115920:500,-0.41232299999999994,0.07775900000000001,-0.242493,-0.007358,-0.0060609999999999995,0.039307999999999996,-42.060001,4.5,-11.56,1a
2019-07-12_115920:520,-0.40570100000000003,0.067596,-0.223694,-0.005039,-0.001178,0.039827,-42.060001,4.5,-11.56,1a
2019-07-12_115920:540,-0.402161,0.064545,-0.21249400000000002,-0.0036659999999999996,0.002392,0.038637,-42.060001,5.56,-11.56,1a
2019-07-12_115920:560,-0.398071,0.067596,-0.198273,-0.002414,0.004986,0.035524,-42.060001,5.56,-11.56,1a
2019-07-12_115920:580,-0.384857,0.069641,-0.19574,-0.002811,0.006756,0.032686,-42.75,7.06,-12.75,1a
2019-07-12_115920:600,-0.369598,0.069641,-0.18249500000000002,-0.004612,0.0067870000000000005,0.031495,-42.75,7.06,-12.75,1a
2019-07-12_115920:620,-0.361969,0.066589,-0.17843599999999998,-0.0065650000000000005,0.005658,0.031160000000000004,-42.75,7.06,-12.75,1a
2019-07-12_115920:640,-0.390961,0.056915,-0.176422,-0.007937999999999999,0.0036439999999999997,0.028016000000000003,-42.5,8.25,-12.0,1a
2019-07-12_115920:660,-0.401642,0.051849,-0.194214,-0.008732,-0.000202,0.022522999999999998,-42.5,8.25,-12.0,1a
2019-07-12_115920:680,-0.434692,0.046752999999999996,-0.177429,-0.0067480000000000005,-0.002643,0.017488,-42.060001,9.0,-11.56,1a
2019-07-12_115920:700,-0.438751,0.051330999999999995,-0.19775399999999999,-0.004001,-0.006488,0.015687,-42.060001,9.0,-11.56,1a
2019-07-12_115920:720,-0.44638100000000003,0.046265,-0.20742800000000003,0.0009119999999999999,-0.008869,0.016694,-42.060001,9.0,-11.56,1a
2019-07-12_115920:740,-0.40823400000000004,0.048798,-0.223175,0.006375,-0.009509,0.016298,-42.060001,9.75,-11.56,1a
2019-07-12_115920:760,-0.38739,0.042694,-0.22979699999999997,0.012081,-0.010974,0.016145,-42.060001,9.75,-11.56,1a
2019-07-12_115920:780,-0.471283,0.031494,-0.2547,0.018032,-0.018238,0.018922,-42.75,10.37,-12.25,1a
2019-07-12_115920:800,-0.543488,0.020844,-0.378754,0.021297999999999997,-0.036273,0.026764999999999997,-42.75,10.37,-12.25,1a
2019-07-12_115920:820,-0.661957,-0.007599,-0.36044299999999996,0.027462,-0.046283,0.036714,-42.75,10.37,-12.25,1a
2019-07-12_115920:840,-0.5419619999999999,-0.05285599999999999,-0.42453,0.031643,-0.050861,0.037507,-42.060001,10.37,-12.25,1a
2019-07-12_115920:860,-0.472321,-0.066589,-0.418915,0.03497,-0.044025,0.032014,-42.060001,10.37,-12.25,1a
2019-07-12_115920:880,-0.402161,-0.076752,-0.420959,0.034176,-0.037676999999999995,0.034791,-41.560001,12.68,-12.75,1a
2019-07-12_115920:900,-0.374176,-0.099121,-0.41384899999999997,0.032833,-0.028125,0.040162,-41.560001,12.68,-12.75,1a
2019-07-12_115920:920,-0.315704,-0.128601,-0.342163,0.031521,-0.010974,0.026764999999999997,-41.560001,12.68,-12.75,1a
2019-07-12_115920:940,-0.319794,-0.118958,-0.295898,0.027401,0.0045899999999999995,0.003053,-40.060001,14.18,-14.25,1a
2019-07-12_115920:960,-0.288269,-0.10318,-0.301483,0.024075,0.009045000000000001,-0.00772,-40.060001,14.18,-14.25,1a
2019-07-12_115920:980,-0.26944,-0.11080899999999999,-0.28369099999999997,0.025143000000000002,0.008435,-0.011168,-40.060001,14.87,-13.56,1a
2019-07-12_115921:000,-0.267914,-0.12200899999999999,-0.257751,0.023739,0.002118,-0.02191,-40.060001,14.87,-13.56,1a
2019-07-12_115921:020,-0.325897,-0.111328,-0.269958,0.023892,-0.007587000000000001,-0.028899,-40.060001,14.87,-13.56,1a
2019-07-12_115921:040,-0.35791,-0.108795,-0.29486100000000004,0.02615,-0.015491,-0.025693999999999998,-41.18,14.87,-13.06,1a
2019-07-12_115921:060,-0.36044299999999996,-0.101685,-0.295898,0.027981,-0.022602,-0.026579000000000002,-41.18,14.87,-13.06,1a
2019-07-12_115921:080,-0.371643,-0.079803,-0.323334,0.026211,-0.030841000000000004,-0.035582,-41.18,13.06,-13.06,1a
2019-07-12_115921:100,-0.380798,-0.057434000000000006,-0.334534,0.025265,-0.035877,-0.043425,-41.18,13.06,-13.06,1a
2019-07-12_115921:120,-0.39859,-0.028961,-0.335022,0.023465,-0.035480000000000005,-0.046141,-41.18,13.06,-13.06,1a
2019-07-12_115921:140,-0.40774499999999997,-0.017792,-0.321808,0.020503999999999998,-0.030628,-0.046813,-41.18,13.06,-13.06,1a
2019-07-12_115921:160,-0.41586300000000004,-0.005065999999999999,-0.30249000000000004,0.017056,-0.022663,-0.044371,-41.18,13.06,-13.06,1a
2019-07-12_115921:180,-0.409271,-0.000488,-0.285217,0.013577,-0.013111000000000001,-0.038512,-42.0,10.75,-13.0,1a
2019-07-12_115921:200,-0.384338,-0.005065999999999999,-0.262848,0.010342,-0.005359,-0.032622000000000005,-42.0,10.75,-13.0,1a
2019-07-12_115921:220,-0.37112399999999995,-0.006592,-0.25012199999999996,0.007687,-0.000598,-0.029143000000000002,-42.0,10.75,-13.0,1a
2019-07-12_115921:240,-0.354858,-0.008636,-0.239441,0.005947,0.000989,-0.026091000000000003,-42.0,9.75,-14.18,1a
2019-07-12_115921:260,-0.338593,-0.009644,-0.23284899999999997,0.005032,0.00047000000000000004,-0.024169,-42.0,9.75,-14.18,1a
2019-07-12_115921:280,-0.333496,-0.006072999999999999,-0.236389,0.004422,-0.0023989999999999997,-0.02365,-42.0,7.5,-14.18,1a
2019-07-12_115921:300,-0.33197,-0.002014,-0.245544,0.0032310000000000004,-0.007129000000000001,-0.022978,-42.0,7.5,-14.18,1a
2019-07-12_115921:320,-0.34875500000000004,0.0030210000000000002,-0.254211,0.0017670000000000001,-0.011035,-0.021788,-42.0,7.5,-14.18,1a
2019-07-12_115921:340,-0.385376,0.010162000000000001,-0.263855,-0.000889,-0.014178999999999999,-0.020537,-42.369999,6.37,-13.87,1a
2019-07-12_115921:360,-0.414337,0.012177,-0.293335,-0.004398,-0.017108,-0.017943,-42.369999,6.37,-13.87,1a
2019-07-12_115921:380,-0.441803,0.011687999999999999,-0.287231,-0.007358,-0.014697,-0.016142,-42.369999,5.56,-14.68,1a
2019-07-12_115921:400,-0.463654,0.016753999999999998,-0.295898,-0.011936,-0.009113,-0.014952000000000002,-42.369999,5.56,-14.68,1a
2019-07-12_115921:420,-0.461121,0.021851,-0.296906,-0.016056,-0.0008730000000000001,-0.011962,-42.369999,5.56,-14.68,1a
2019-07-12_115921:440,-0.41586300000000004,0.025908999999999998,-0.29538000000000003,-0.020084,0.005719,-0.009093,-42.68,4.87,-14.18,1a
2019-07-12_115921:460,-0.40368699999999996,0.031494,-0.305542,-0.023533000000000002,0.007763,-0.00891,-42.68,4.87,-14.18,1a
2019-07-12_115921:480,-0.549072,0.053375,-0.32843,-0.026981,0.0036439999999999997,-0.009856,-42.060001,3.75,-14.68,1a
2019-07-12_115921:500,-0.502319,0.059479,-0.40063499999999996,-0.031589,-0.009845,-0.005187,-42.060001,3.75,-14.68,1a
2019-07-12_115921:520,-0.472321,0.075226,-0.391968,-0.033847,-0.02016,0.000398,-42.060001,3.75,-14.68,1a
2019-07-12_115921:540,-0.395538,0.078796,-0.412811,-0.037082,-0.033496,0.002168,-41.68,2.25,-15.0,1a
2019-07-12_115921:560,-0.41384899999999997,0.098633,-0.44027700000000003,-0.035495,-0.0414,-0.004454,-41.68,2.25,-15.0,1a
2019-07-12_115921:580,-0.42147799999999996,0.11386099999999999,-0.447388,-0.033573,-0.037586,-0.016142,-42.5,1.87,-16.18,1a
2019-07-12_115921:600,-0.35436999999999996,0.142334,-0.38385,-0.029727999999999997,-0.020679,-0.02072,-42.5,1.87,-16.18,1a
2019-07-12_115921:620,-0.36248800000000003,0.15506,-0.32843,-0.026218,0.003979,-0.011229000000000001,-42.5,1.87,-16.18,1a
2019-07-12_115921:640,-0.29538000000000003,0.166229,-0.315216,-0.023684999999999998,0.020031999999999998,0.009126,-41.68,0.75,-15.87,1a
2019-07-12_115921:660,-0.274536,0.16217,-0.303528,-0.022098,0.021893,0.027955,-41.68,0.75,-15.87,1a
2019-07-12_115921:680,-0.28112800000000004,0.145386,-0.285706,-0.022892,0.015332,0.038301,-42.060001,0.06,-15.87,1a
2019-07-12_115921:700,-0.309113,0.131653,-0.282654,-0.023624000000000003,0.005566,0.042756,-42.060001,0.06,-15.87,1a
2019-07-12_115921:720,-0.34368899999999997,0.115906,-0.296387,-0.02341,-0.004779,0.043947,-42.060001,0.06,-15.87,1a
2019-07-12_115921:740,-0.345215,0.102173,-0.307587,-0.022678,-0.014362,0.043427999999999994,-42.060001,0.37,-13.87,1a
2019-07-12_115921:760,-0.319275,0.08590700000000001,-0.326904,-0.02103,-0.022937,0.040651,-42.060001,0.37,-13.87,1a
2019-07-12_115921:780,-0.347748,0.075226,-0.35180700000000004,-0.019046,-0.030231,0.039369,-41.68,1.56,-15.37,1a
2019-07-12_115921:800,-0.394012,0.067596,-0.36044299999999996,-0.016849,-0.0331,0.042116,-41.68,1.56,-15.37,1a
2019-07-12_115921:820,-0.42147799999999996,0.048798,-0.339111,-0.014377000000000001,-0.025927999999999996,0.046357999999999996,-41.68,1.56,-15.37,1a
2019-07-12_115921:840,-0.42858900000000005,0.043213,-0.316223,-0.011936,-0.014025999999999999,0.04828,-41.68,2.25,-15.37,1a
2019-07-12_115921:860,-0.420441,0.036072,-0.28674299999999997,-0.009678,-0.001605,0.049196,-41.68,2.25,-15.37,1a
2019-07-12_115921:880,-0.40368699999999996,0.034058,-0.266907,-0.007206000000000001,0.009289,0.049928,-41.68,4.06,-16.68,1a
2019-07-12_115921:900,-0.36706500000000003,0.032532,-0.23895300000000003,-0.005619,0.015544999999999998,0.04767,-41.68,4.06,-16.68,1a
2019-07-12_115921:920,-0.346222,0.032013,-0.223694,-0.005161,0.017865,0.044832,-41.68,4.06,-16.68,1a
2019-07-12_115921:940,-0.322845,0.027435,-0.213013,-0.0051,0.016675,0.04297,-41.68,5.25,-17.059998999999998,1a
2019-07-12_115921:960,-0.323334,0.024902,-0.210968,-0.005222,0.012676999999999999,0.040712,-41.68,5.25,-17.059998999999998,1a
2019-07-12_115921:980,-0.32486,0.019318000000000002,-0.21505700000000003,-0.005741,0.006512,0.037385,-42.5,6.75,-15.5,1a
2019-07-12_115922:000,-0.335022,0.012695,-0.21249400000000002,-0.005222,0.000866,0.033326999999999996,-42.5,6.75,-15.5,1a
2019-07-12_115922:020,-0.36349499999999996,0.007599,-0.228271,-0.00394,-0.004229999999999999,0.028505000000000003,-42.5,6.75,-15.5,1a
2019-07-12_115922:040,-0.390442,0.007111,-0.23233,-0.0018039999999999998,-0.00838,0.024263,-42.75,9.0,-15.5,1a
2019-07-12_115922:060,-0.40063499999999996,0.006592,-0.254211,0.000454,-0.012165,0.022066,-42.75,9.0,-15.5,1a
2019-07-12_115922:080,-0.40316799999999997,0.005065999999999999,-0.266907,0.003353,-0.014697,0.021272,-42.5,8.87,-15.5,1a
2019-07-12_115922:100,-0.389435,-0.0035399999999999997,-0.290802,0.0068319999999999995,-0.015094,0.018403,-42.5,8.87,-15.5,1a
2019-07-12_115922:120,-0.44232200000000005,-0.013213999999999998,-0.32486,0.010403,-0.016375999999999998,0.013307,-42.5,8.87,-15.5,1a
2019-07-12_115922:140,-0.575531,-0.015747,-0.444855,0.012997,-0.026264,0.0123,-41.68,9.68,-15.5,1a
2019-07-12_115922:160,-0.635529,-0.028961,-0.471283,0.015590999999999999,-0.035297,0.018281,-41.68,9.68,-15.5,1a
2019-07-12_115922:180,-0.503326,-0.040649,-0.492645,0.018246000000000002,-0.038654,0.021272,-42.060001,10.0,-16.0,1a
2019-07-12_115922:200,-0.409271,-0.06253099999999999,-0.482483,0.019436000000000002,-0.035601999999999995,0.016084,-42.060001,10.0,-16.0,1a
2019-07-12_115922:220,-0.37674,-0.06253099999999999,-0.455017,0.02023,-0.024677,0.013153999999999999,-42.060001,10.0,-16.0,1a
2019-07-12_115922:240,-0.344177,-0.07016,-0.426544,0.019497,-0.009326000000000001,0.024568,-41.560001,11.06,-15.87,1a
2019-07-12_115922:260,-0.318268,-0.101685,-0.34570300000000004,0.019558000000000002,0.012463,0.035127,-41.560001,11.06,-15.87,1a
2019-07-12_115922:280,-0.318268,-0.102692,-0.328949,0.016444999999999998,0.024822999999999998,0.03235,-40.869999,10.68,-17.0,1a
2019-07-12_115922:300,-0.29742399999999997,-0.12353499999999999,-0.314178,0.013455000000000002,0.026867000000000002,0.027162000000000002,-40.869999,10.68,-17.0,1a
2019-07-12_115922:320,-0.279633,-0.130646,-0.287231,0.013577,0.025952,0.020723,-40.869999,10.68,-17.0,1a
2019-07-12_115922:340,-0.287231,-0.145386,-0.279114,0.010006000000000001,0.019237999999999998,0.010896,-42.0,13.0,-15.37,1a
2019-07-12_115922:360,-0.30654899999999996,-0.144379,-0.296387,0.007137999999999999,0.007245000000000001,0.004518,-42.0,13.0,-15.37,1a
2019-07-12_115922:380,-0.304535,-0.148956,-0.310638,0.005154,-0.0052369999999999995,0.0019850000000000002,-42.369999,13.25,-13.87,1a
2019-07-12_115922:400,-0.300964,-0.143372,-0.316223,0.0035060000000000004,-0.018146000000000002,-0.007994,-42.369999,13.25,-13.87,1a
2019-07-12_115922:420,-0.341125,-0.114899,-0.327423,0.002102,-0.030292000000000003,-0.025786,-42.369999,13.25,-13.87,1a
2019-07-12_115922:440,-0.37112399999999995,-0.09149199999999999,-0.32843,0.0019190000000000001,-0.035938,-0.040099,-41.5,14.06,-13.87,1a
2019-07-12_115922:460,-0.388916,-0.06405599999999999,-0.32132,0.002255,-0.033283,-0.044341000000000005,-41.5,14.06,-13.87,1a
2019-07-12_115922:480,-0.395538,-0.056427,-0.309113,0.000729,-0.025134,-0.041777,-42.560001,11.75,-14.68,1a
2019-07-12_115922:500,-0.404694,-0.045745999999999995,-0.293335,-0.001529,-0.015643999999999998,-0.035002,-42.560001,11.75,-14.68,1a
2019-07-12_115922:520,-0.389954,-0.046752999999999996,-0.28418000000000004,-0.003788,-0.006458,-0.026244,-42.560001,11.75,-14.68,1a
2019-07-12_115922:540,-0.363007,-0.05285599999999999,-0.270966,-0.005497,1.2e-05,-0.020995,-42.25,10.37,-15.37,1a
2019-07-12_115922:560,-0.344696,-0.054901,-0.25827,-0.00629,0.003979,-0.020384,-42.25,10.37,-15.37,1a
2019-07-12_115922:580,-0.318756,-0.051330999999999995,-0.25116,-0.0067480000000000005,0.005627,-0.020781,-43.369999,9.25,-15.87,1a
2019-07-12_115922:600,-0.320282,-0.050842,-0.251648,-0.007358,0.004254,-0.019255,-43.369999,9.25,-15.87,1a
2019-07-12_115922:620,-0.326385,-0.049805,-0.275055,-0.008334999999999999,-0.0012699999999999999,-0.016081,-43.369999,9.25,-15.87,1a
2019-07-12_115922:640,-0.34265100000000004,-0.056427,-0.27301,-0.009403,-0.006548999999999999,-0.013152,-44.060001,7.37,-14.68,1a
2019-07-12_115922:660,-0.382812,-0.057953,-0.283173,-0.010256999999999999,-0.010272,-0.012297,-44.060001,7.37,-14.68,1a
2019-07-12_115922:680,-0.412811,-0.053375,-0.28875700000000004,-0.011203,-0.010578,-0.011443,-43.75,7.37,-15.0,1a
2019-07-12_115922:700,-0.406738,-0.054901,-0.294373,-0.01218,-0.008716,-0.010161,-43.75,7.37,-15.0,1a
2019-07-12_115922:720,-0.406738,-0.052338,-0.29995700000000003,-0.013584,-0.006731999999999999,-0.011504,-43.75,7.37,-15.0,1a
2019-07-12_115922:740,-0.404175,-0.045745999999999995,-0.308594,-0.015262000000000001,-0.004718,-0.013640000000000001,-43.75,6.25,-16.18,1a
2019-07-12_115922:760,-0.396057,-0.038635,-0.304016,-0.015903,-0.00185,-0.015227000000000001,-43.75,6.25,-16.18,1a
2019-07-12_115922:780,-0.374695,-0.018799,-0.301483,-0.016361,0.001721,-0.017821,-44.060001,4.75,-16.18,1a
2019-07-12_115922:800,-0.366058,-0.001007,-0.310638,-0.017429,0.002575,-0.019255,-44.060001,4.75,-16.18,1a
2019-07-12_115922:820,-0.514496,0.034058,-0.342163,-0.01865,-0.001178,-0.017485,-44.060001,4.75,-16.18,1a
2019-07-12_115922:840,-0.502808,0.041687,-0.431641,-0.022494999999999998,-0.01485,-0.011351,-44.869999,4.37,-15.0,1a
2019-07-12_115922:860,-0.541443,0.051849,-0.404175,-0.02341,-0.021533,-0.0017989999999999998,-44.869999,4.37,-15.0,1a
2019-07-12_115922:880,-0.43927,0.056915,-0.434692,-0.026858999999999997,-0.024921000000000002,0.006868000000000001,-44.5,2.56,-15.87,1a
2019-07-12_115922:900,-0.41232299999999994,0.0737,-0.44384799999999996,-0.027408,-0.022418,0.010957,-44.5,2.56,-15.87,1a
2019-07-12_115922:920,-0.40368699999999996,0.080322,-0.43927,-0.027988,-0.020618,0.006441,-44.5,2.56,-15.87,1a
2019-07-12_115922:940,-0.383331,0.099121,-0.387909,-0.026462,-0.011371,-0.000609,-44.18,2.18,-15.87,1a
2019-07-12_115922:960,-0.34570300000000004,0.111328,-0.3396,-0.024936,0.0055049999999999995,0.000245,-44.18,2.18,-15.87,1a
2019-07-12_115922:980,-0.341125,0.114899,-0.282166,-0.023624000000000003,0.024609,0.010316,-44.18,1.5,-15.87,1a
2019-07-12_115923:000,-0.321808,0.10928299999999999,-0.274536,-0.024600999999999998,0.035565,0.024324000000000002,-44.18,1.5,-15.87,1a
2019-07-12_115923:020,-0.287231,0.087952,-0.255707,-0.026279000000000004,0.035382,0.036806,-44.18,1.5,-15.87,1a
2019-07-12_115923:040,-0.29895,0.070648,-0.250641,-0.027530000000000002,0.026349,0.044038,-45.68,1.75,-14.68,1a
2019-07-12_115923:060,-0.323853,0.047791,-0.264374,-0.027866000000000002,0.012341,0.042908999999999996,-45.68,1.75,-14.68,1a
2019-07-12_115923:080,-0.337067,0.039124,-0.276581,-0.027195,-0.001911,0.035463,-46.060001,3.0,-13.87,1a
2019-07-12_115923:100,-0.325897,0.034546,-0.29486100000000004,-0.025394,-0.015094,0.027955,-46.060001,3.0,-13.87,1a
2019-07-12_115923:120,-0.314178,0.028961,-0.311646,-0.022434,-0.027118,0.024049,-46.060001,3.0,-13.87,1a
2019-07-12_115923:140,-0.358429,0.024384,-0.334015,-0.018894,-0.037920999999999996,0.022462,-46.060001,3.25,-13.87,1a
2019-07-12_115923:160,-0.40976,0.022858,-0.335022,-0.013065,-0.038257,0.026246,-46.060001,3.25,-13.87,1a
2019-07-12_115923:180,-0.434174,0.012177,-0.316742,-0.008732,-0.02779,0.029939,-46.060001,4.37,-14.18,1a
2019-07-12_115923:200,-0.432159,0.011169,-0.304016,-0.0052829999999999995,-0.015491,0.031556,-46.060001,4.37,-14.18,1a
2019-07-12_115923:220,-0.402649,0.013213999999999998,-0.286224,-0.002536,-0.006,0.032991,-46.060001,4.37,-14.18,1a
2019-07-12_115923:240,-0.38028,0.014740000000000001,-0.278107,-0.001529,-0.001392,0.03412,-45.0,5.18,-16.18,1a
2019-07-12_115923:260,-0.34674099999999997,0.010162000000000001,-0.261322,-0.0019260000000000002,-0.00014099999999999998,0.033601,-45.0,5.18,-16.18,1a
2019-07-12_115923:280,-0.3396,0.007111,-0.253693,-0.003055,-0.001911,0.031952999999999995,-45.0,6.25,-16.559998999999998,1a
2019-07-12_115923:300,-0.336548,0.0035399999999999997,-0.250641,-0.004825,-0.0037719999999999997,0.030366000000000004,-45.0,6.25,-16.559998999999998,1a
2019-07-12_115923:320,-0.346222,-0.005065999999999999,-0.25116,-0.006229,-0.005817,0.028016000000000003,-45.0,6.25,-16.559998999999998,1a
2019-07-12_115923:340,-0.35943600000000003,-0.008636,-0.256744,-0.007541,-0.007984,0.024659999999999998,-45.25,8.5,-17.0,1a
2019-07-12_115923:360,-0.376221,-0.017273,-0.265381,-0.007418999999999999,-0.010059,0.021333,-45.25,8.5,-17.0,1a
2019-07-12_115923:380,-0.404694,-0.022858,-0.275543,-0.006351,-0.012439,0.017884999999999998,-45.0,8.5,-17.0,1a
2019-07-12_115923:400,-0.42858900000000005,-0.028442000000000002,-0.283173,-0.004520000000000001,-0.012042,0.0141,-45.0,8.5,-17.0,1a
2019-07-12_115923:420,-0.42807,-0.027435,-0.293335,-0.0018039999999999998,-0.011249,0.011903,-45.0,8.5,-17.0,1a
2019-07-12_115923:440,-0.415375,-0.026427999999999997,-0.303528,0.00137,-0.010974,0.01111,-45.0,9.68,-16.559998999999998,1a
2019-07-12_115923:460,-0.40316799999999997,-0.020325,-0.314697,0.003781,-0.009876000000000001,0.009584,-45.0,9.68,-16.559998999999998,1a
2019-07-12_115923:480,-0.38385,-0.021851,-0.310638,0.005825,-0.0061530000000000005,0.007387,-45.0,9.68,-17.0,1a
2019-07-12_115923:500,-0.398071,-0.028442000000000002,-0.322327,0.008267,-0.003925,0.0037549999999999997,-45.0,9.68,-17.0,1a
2019-07-12_115923:520,-0.531799,-0.025421,-0.396545,0.010006000000000001,-0.010639000000000001,0.002778,-45.0,9.68,-17.0,1a
2019-07-12_115923:540,-0.49975600000000003,-0.049805,-0.43670699999999996,0.011349,-0.018604,0.008973,-45.0,9.68,-16.18,1a
2019-07-12_115923:560,-0.500275,-0.06149299999999999,-0.42401099999999997,0.014981,-0.020893000000000002,0.008333,-45.0,9.68,-16.18,1a
2019-07-12_115923:580,-0.473846,-0.071686,-0.416382,0.015469,-0.018421,0.0032359999999999997,-44.18,10.68,-17.0,1a
2019-07-12_115923:600,-0.381805,-0.067108,-0.414337,0.01791,-0.014025999999999999,0.0034189999999999997,-44.18,10.68,-17.0,1a
2019-07-12_115923:620,-0.34570300000000004,-0.067596,-0.396057,0.018978000000000002,-0.009265,0.007997,-44.18,10.68,-17.0,1a
2019-07-12_115923:640,-0.302002,-0.065582,-0.37112399999999995,0.017787999999999998,-0.0030399999999999997,0.008790000000000001,-44.560001,10.68,-17.75,1a
2019-07-12_115923:660,-0.313171,-0.074738,-0.330963,0.015652000000000003,0.010357,0.004091,-44.560001,10.68,-17.75,1a
2019-07-12_115923:680,-0.322845,-0.06149299999999999,-0.301483,0.010860999999999999,0.020978,0.0007639999999999999,-44.560001,11.06,-17.0,1a
2019-07-12_115923:700,-0.288269,-0.067108,-0.303528,0.006558,0.020763999999999998,0.005464,-44.560001,11.06,-17.0,1a
2019-07-12_115923:720,-0.262329,-0.092529,-0.294373,0.003689,0.013866999999999999,0.006593000000000001,-44.560001,11.06,-17.0,1a
2019-07-12_115923:740,-0.285217,-0.102692,-0.301483,-0.000675,0.0023309999999999997,0.0026260000000000003,-45.25,11.75,-15.37,1a
2019-07-12_115923:760,-0.309113,-0.11233499999999999,-0.326904,-0.0037270000000000003,-0.0076170000000000005,0.005342,-45.25,11.75,-15.37,1a
2019-07-12_115923:780,-0.312164,-0.12558,-0.334534,-0.004581,-0.017475,0.008394,-45.0,10.68,-15.0,1a
2019-07-12_115923:800,-0.339111,-0.128113,-0.349274,-0.005679999999999999,-0.026569,-0.000762,-45.0,10.68,-15.0,1a
2019-07-12_115923:820,-0.366058,-0.11795,-0.353333,-0.0064730000000000005,-0.030902,-0.017058,-45.0,10.68,-15.0,1a
2019-07-12_115923:840,-0.397583,-0.092529,-0.34875500000000004,-0.005558,-0.028980000000000002,-0.028685000000000002,-45.25,11.75,-15.37,1a
2019-07-12_115923:860,-0.401642,-0.076752,-0.335022,-0.005375,-0.021472,-0.031951,-45.25,11.75,-15.37,1a
2019-07-12_115923:880,-0.38028,-0.057434000000000006,-0.313171,-0.0061070000000000004,-0.012256,-0.030333,-45.68,10.68,-16.18,1a
2019-07-12_115923:900,-0.359955,-0.049805,-0.29895,-0.00748,-0.0055119999999999995,-0.026824,-45.68,10.68,-16.18,1a
2019-07-12_115923:920,-0.334015,-0.040161,-0.287231,-0.007816,-0.002246,-0.022978,-45.68,10.68,-16.18,1a
2019-07-12_115923:940,-0.326385,-0.038116000000000004,-0.280121,-0.007816,-0.002246,-0.020995,-45.18,9.68,-17.0,1a
2019-07-12_115923:960,-0.319794,-0.034546,-0.27301,-0.007755,-0.00365,-0.02014,-45.18,9.68,-17.0,1a
2019-07-12_115923:980,-0.324371,-0.029480000000000003,-0.274017,-0.0076939999999999995,-0.0055119999999999995,-0.017089,-45.560001,8.18,-17.75,1a
2019-07-12_115924:000,-0.353333,-0.029968,-0.278595,-0.007541,-0.007343000000000001,-0.011778,-45.560001,8.18,-17.75,1a
2019-07-12_115924:020,-0.352844,-0.034058,-0.29180900000000004,-0.007755,-0.009509,-0.006987,-45.560001,8.18,-17.75,1a
2019-07-12_115924:040,-0.36911,-0.034546,-0.298431,-0.008213,-0.012714,-0.002989,-46.0,5.87,-17.0,1a
2019-07-12_115924:060,-0.390442,-0.031494,-0.312164,-0.009556,-0.015308,0.002382,-46.0,5.87,-17.0,1a
2019-07-12_115924:080,-0.411285,-0.041168,-0.319275,-0.011722,-0.015491,0.006929,-45.68,5.87,-16.559998999999998,1a
2019-07-12_115924:100,-0.404694,-0.044219999999999995,-0.320801,-0.013797,-0.013446000000000001,0.007661,-45.68,5.87,-16.559998999999998,1a
2019-07-12_115924:120,-0.390442,-0.046752999999999996,-0.325897,-0.016513999999999997,-0.011249,0.004945000000000001,-45.68,5.87,-16.559998999999998,1a
2019-07-12_115924:140,-0.390442,-0.045226999999999996,-0.330475,-0.018894,-0.009723,0.001497,-45.68,5.87,-17.370001000000002,1a
2019-07-12_115924:160,-0.37011700000000003,-0.045745999999999995,-0.325897,-0.020633000000000002,-0.0070680000000000005,-0.002135,-45.68,5.87,-17.370001000000002,1a
2019-07-12_115924:180,-0.344696,-0.043701,-0.323334,-0.022159,-0.0035280000000000003,-0.005675,-45.68,5.5,-17.75,1a
2019-07-12_115924:200,-0.33758499999999997,-0.035583,-0.332489,-0.022831,-0.0023989999999999997,-0.007994,-45.68,5.5,-17.75,1a
2019-07-12_115924:220,-0.397583,-0.023895,-0.35131799999999996,-0.023014,-0.005695,-0.009184000000000001,-45.68,5.5,-17.75,1a
2019-07-12_115924:240,-0.40976,-0.013213999999999998,-0.393494,-0.022892,-0.009784000000000001,-0.008787999999999999,-45.25,5.18,-18.18,1a
2019-07-12_115924:260,-0.494171,0.004547,-0.377228,-0.022434,-0.009937,-0.010253,-45.25,5.18,-18.18,1a
2019-07-12_115924:280,-0.48095699999999997,0.03302,-0.426544,-0.024479,-0.010578,-0.006437999999999999,-46.369999,4.0,-18.18,1a
2019-07-12_115924:300,-0.43011499999999997,0.048279,-0.41485600000000006,-0.024753,-0.009204,-0.002288,-46.369999,4.0,-18.18,1a
2019-07-12_115924:320,-0.364014,0.062012,-0.42248500000000005,-0.025730000000000003,-0.011066,-0.006712999999999999,-46.369999,4.0,-18.18,1a
2019-07-12_115924:340,-0.384338,0.082336,-0.417908,-0.025851999999999997,-0.01073,-0.013822999999999998,-46.060001,2.56,-19.0,1a
2019-07-12_115924:360,-0.361481,0.10675,-0.395538,-0.024997,-0.006214,-0.010375,-46.060001,2.56,-19.0,1a
2019-07-12_115924:380,-0.348267,0.113373,-0.35943600000000003,-0.024265000000000002,0.005108,0.001527,-45.25,2.18,-20.18,1a
2019-07-12_115924:400,-0.300476,0.11386099999999999,-0.302002,-0.024418000000000002,0.021252,0.013215000000000001,-45.25,2.18,-20.18,1a
2019-07-12_115924:420,-0.277069,0.11386099999999999,-0.279633,-0.02515,0.030194,0.025238999999999998,-45.25,2.18,-20.18,1a
2019-07-12_115924:440,-0.274536,0.107269,-0.28418000000000004,-0.025333,0.027142000000000003,0.036653,-45.25,0.68,-19.370001000000002,1a
2019-07-12_115924:460,-0.275055,0.098633,-0.284698,-0.026126999999999997,0.017651,0.041505,-45.25,0.68,-19.370001000000002,1a
2019-07-12_115924:480,-0.293335,0.091003,-0.297913,-0.027408,0.0027890000000000002,0.039369,-47.18,1.56,-17.0,1a
2019-07-12_115924:500,-0.327423,0.08743300000000001,-0.312653,-0.027591,-0.011859,0.035920999999999995,-47.18,1.56,-17.0,1a
2019-07-12_115924:520,-0.347748,0.079803,-0.338593,-0.027347000000000003,-0.023609,0.032991,-47.18,1.56,-17.0,1a
2019-07-12_115924:540,-0.354858,0.076752,-0.354858,-0.027744,-0.032367,0.031892000000000004,-47.18,3.37,-17.059998999999998,1a
2019-07-12_115924:560,-0.404175,0.063019,-0.378265,-0.027530000000000002,-0.035938,0.03412,-47.18,3.37,-17.059998999999998,1a
2019-07-12_115924:580,-0.430634,0.052338,-0.381317,-0.025851999999999997,-0.029620999999999998,0.037172000000000004,-46.75,3.37,-18.25,1a
2019-07-12_115924:600,-0.441803,0.043701,-0.358917,-0.023075,-0.017475,0.039307999999999996,-46.75,3.37,-18.25,1a
2019-07-12_115924:620,-0.43621800000000005,0.043701,-0.34063699999999997,-0.020023,-0.0037719999999999997,0.041108,-46.75,3.37,-18.25,1a
2019-07-12_115924:640,-0.390961,0.050323,-0.309601,-0.0181,0.008282,0.043764,-45.25,5.25,-18.25,1a
2019-07-12_115924:660,-0.364014,0.050842,-0.28674299999999997,-0.017978,0.013866999999999999,0.046205,-45.25,5.25,-18.25,1a
2019-07-12_115924:680,-0.341644,0.051849,-0.273529,-0.018772,0.013623,0.047273,-45.68,5.56,-19.059998999999998,1a
2019-07-12_115924:700,-0.333496,0.047272,-0.262329,-0.020908000000000003,0.010570999999999999,0.047548,-45.68,5.56,-19.059998999999998,1a
2019-07-12_115924:720,-0.333496,0.039124,-0.26181,-0.023472,0.00639,0.046144,-45.68,5.56,-19.059998999999998,1a
2019-07-12_115924:740,-0.34368899999999997,0.03302,-0.267914,-0.025730000000000003,0.001599,0.043702,-45.25,7.87,-17.870001000000002,1a
2019-07-12_115924:760,-0.363007,0.021851,-0.274536,-0.026614999999999996,-0.001941,0.041047,-45.25,7.87,-17.870001000000002,1a
2019-07-12_115924:780,-0.35739099999999996,0.010162000000000001,-0.28112800000000004,-0.026066000000000002,-0.0045049999999999995,0.038452999999999994,-45.25,8.56,-17.5,1a
2019-07-12_115924:800,-0.35739099999999996,0.0,-0.28418000000000004,-0.022953,-0.006945999999999999,0.034273000000000005,-45.25,8.56,-17.5,1a
2019-07-12_115924:820,-0.386902,-0.0035399999999999997,-0.29995700000000003,-0.0181,-0.009265,0.027498,-45.25,8.56,-17.5,1a
2019-07-12_115924:840,-0.390442,-0.0025329999999999997,-0.30300900000000003,-0.012211,-0.01073,0.022371000000000002,-45.25,11.18,-17.059998999999998,1a
2019-07-12_115924:860,-0.397064,0.001007,-0.307587,-0.0051,-0.01192,0.019929,-45.25,11.18,-17.059998999999998,1a
2019-07-12_115924:880,-0.41485600000000006,0.007111,-0.312653,0.0015220000000000001,-0.011524,0.017549000000000002,-44.18,11.5,-17.870001000000002,1a
2019-07-12_115924:900,-0.391479,0.022858,-0.305542,0.007901,-0.007678,0.016481,-44.18,11.5,-17.870001000000002,1a
2019-07-12_115924:920,-0.382812,0.028442000000000002,-0.309113,0.012997,-0.0035280000000000003,0.01822,-44.18,11.5,-17.870001000000002,1a
2019-07-12_115924:940,-0.385864,0.033539,-0.326904,0.016444999999999998,-0.00185,0.022004,-44.560001,12.25,-17.059998999999998,1a
2019-07-12_115924:960,-0.416382,0.024902,-0.325897,0.018185,-0.000659,0.027039999999999998,-44.560001,12.25,-17.059998999999998,1a
2019-07-12_115924:980,-0.46670500000000004,0.022858,-0.333496,0.017514,-0.004993,0.035646,-44.560001,12.56,-16.25,1a
2019-07-12_115925:000,-0.47943100000000005,0.0,-0.35436999999999996,0.01672,-0.005359,0.048188999999999996,-44.560001,12.56,-16.25,1a
2019-07-12_115925:020,-0.425018,-0.017792,-0.425537,0.014065000000000001,-0.010669,0.055238,-44.560001,12.56,-16.25,1a
2019-07-12_115925:040,-0.36911,-0.040161,-0.388916,0.011746,-0.007343000000000001,0.056764,-43.5,14.06,-17.5,1a
2019-07-12_115925:060,-0.367584,-0.043213,-0.417908,0.008023,-0.006458,0.05359,-43.5,14.06,-17.5,1a
2019-07-12_115925:080,-0.377747,-0.041168,-0.427063,0.00198,-0.005298,0.059175,-42.68,16.0,-16.25,1a
2019-07-12_115925:100,-0.32995599999999997,-0.052338,-0.380798,-0.005497,0.004895,0.06637699999999999,-42.68,16.0,-16.25,1a
2019-07-12_115925:120,-0.293854,-0.057434000000000006,-0.36044299999999996,-0.015171,0.018719,0.06347799999999999,-42.68,16.0,-16.25,1a
2019-07-12_115925:140,-0.26944,-0.055389,-0.322845,-0.025058,0.034526999999999995,0.05444500000000001,-41.560001,19.0,-16.68,1a
2019-07-12_115925:160,-0.265381,-0.048279,-0.33300799999999997,-0.036227999999999996,0.037883999999999994,0.051729,-41.560001,19.0,-16.68,1a
2019-07-12_115925:180,-0.264374,-0.072693,-0.34570300000000004,-0.045444,0.032269,0.057557000000000004,-40.869999,21.25,-14.68,1a
2019-07-12_115925:200,-0.276581,-0.09201000000000001,-0.338593,-0.053287,0.024243,0.058503999999999994,-40.869999,21.25,-14.68,1a
2019-07-12_115925:220,-0.323334,-0.108276,-0.350281,-0.060917,0.017377,0.058626,-40.869999,21.25,-14.68,1a
2019-07-12_115925:240,-0.338593,-0.108795,-0.354858,-0.064914,0.012494,0.066865,-40.060001,23.5,-15.87,1a
2019-07-12_115925:260,-0.368591,-0.130127,-0.36911,-0.06708099999999999,0.009807999999999999,0.072358,-40.060001,23.5,-15.87,1a
2019-07-12_115925:280,-0.37316900000000003,-0.13269,-0.36911,-0.0694,0.009015,0.065187,-39.75,24.18,-15.06,1a
2019-07-12_115925:300,-0.36911,-0.11233499999999999,-0.34674099999999997,-0.07068200000000001,0.010418,0.056428,-39.75,24.18,-15.06,1a
2019-07-12_115925:320,-0.368591,-0.104706,-0.34317,-0.070865,0.014721000000000001,0.055452,-39.75,24.18,-15.06,1a
2019-07-12_115925:340,-0.355377,-0.08743300000000001,-0.327911,-0.072452,0.019574,0.057496000000000005,-37.68,25.68,-16.0,1a
2019-07-12_115925:360,-0.339111,-0.062012,-0.307068,-0.07703,0.022168,0.060335,-37.68,25.68,-16.0,1a
2019-07-12_115925:380,-0.327423,-0.045745999999999995,-0.30249000000000004,-0.082676,0.022687,0.065523,-36.18,26.059998999999998,-16.25,1a
2019-07-12_115925:400,-0.319275,-0.028961,-0.301483,-0.090061,0.0211,0.071504,-36.18,26.059998999999998,-16.25,1a
2019-07-12_115925:420,-0.318268,-0.032532,-0.316223,-0.098819,0.018445,0.07596,-36.18,26.059998999999998,-16.25,1a
2019-07-12_115925:440,-0.317749,-0.035065,-0.32132,-0.107242,0.015332,0.080324,-35.75,27.18,-17.5,1a
2019-07-12_115925:460,-0.3396,-0.069641,-0.338074,-0.113559,0.012066,0.08352799999999999,-35.75,27.18,-17.5,1a
2019-07-12_115925:480,-0.345215,-0.079803,-0.341644,-0.11746600000000001,0.009839,0.084779,-34.25,27.870001000000002,-18.559998999999998,1a
2019-07-12_115925:500,-0.374176,-0.11233499999999999,-0.346222,-0.118076,0.00935,0.085451,-34.25,27.870001000000002,-18.559998999999998,1a
2019-07-12_115925:520,-0.384338,-0.11795,-0.348267,-0.11621400000000001,0.010693000000000001,0.086641,-34.25,27.870001000000002,-18.559998999999998,1a
2019-07-12_115925:540,-0.369598,-0.130646,-0.344177,-0.11316300000000001,0.012950999999999999,0.087312,-32.369999,29.059998999999998,-21.370001000000002,1a
2019-07-12_115925:560,-0.360962,-0.133698,-0.341125,-0.10983599999999999,0.013684,0.084596,-32.369999,29.059998999999998,-21.370001000000002,1a
2019-07-12_115925:580,-0.327911,-0.13269,-0.338074,-0.10477,0.012402,0.077943,-31.370001000000002,27.870001000000002,-23.0,1a
2019-07-12_115925:600,-0.323334,-0.127106,-0.33605999999999997,-0.10095599999999999,0.010357,0.06942899999999999,-31.370001000000002,27.870001000000002,-23.0,1a
2019-07-12_115925:620,-0.316223,-0.108795,-0.34265100000000004,-0.09793400000000001,0.0069700000000000005,0.062471000000000006,-31.370001000000002,27.870001000000002,-23.0,1a
2019-07-12_115925:640,-0.319794,-0.103699,-0.344696,-0.095829,0.002972,0.057313,-28.25,27.870001000000002,-25.059998999999998,1a
2019-07-12_115925:660,-0.34368899999999997,-0.090485,-0.356903,-0.095493,1.2e-05,0.052064,-28.25,27.870001000000002,-25.059998999999998,1a
2019-07-12_115925:680,-0.34674099999999997,-0.08743300000000001,-0.358917,-0.09564600000000001,-4.9e-05,0.047944,-26.75,27.559998999999998,-26.559998999999998,1a
2019-07-12_115925:700,-0.37316900000000003,-0.082855,-0.360962,-0.094974,0.00227,0.047609,-26.75,27.559998999999998,-26.559998999999998,1a
2019-07-12_115925:720,-0.377228,-0.084381,-0.360962,-0.09375399999999999,0.00636,0.050263999999999996,-26.75,27.559998999999998,-26.559998999999998,1a
2019-07-12_115925:740,-0.37112399999999995,-0.084381,-0.355377,-0.09296,0.009167,0.051729,-26.75,25.68,-28.25,1a
2019-07-12_115925:760,-0.364532,-0.082855,-0.347748,-0.090061,0.015668,0.053377,-26.75,25.68,-28.25,1a
2019-07-12_115925:780,-0.36044299999999996,-0.076263,-0.34317,-0.089176,0.017773,0.053132000000000006,-25.25,24.059998999999998,-30.559998999999998,1a
2019-07-12_115925:800,-0.35638400000000003,-0.071167,-0.3396,-0.087314,0.021374,0.053041,-25.25,24.059998999999998,-30.559998999999998,1a
2019-07-12_115925:820,-0.364014,-0.063019,-0.337067,-0.086948,0.023755000000000002,0.053773,-25.25,24.059998999999998,-30.559998999999998,1a
2019-07-12_115925:840,-0.375214,-0.063538,-0.335022,-0.087589,0.026410000000000003,0.055452,-24.559998999999998,22.68,-31.75,1a
2019-07-12_115925:860,-0.5073850000000001,-0.072174,-0.349792,-0.09045800000000001,0.021435,0.061341999999999994,-24.559998999999998,22.68,-31.75,1a
2019-07-12_115925:880,-0.492126,-0.06405599999999999,-0.41995200000000005,-0.09271599999999999,0.013409,0.07303,-25.25,21.18,-32.18,1a
2019-07-12_115925:900,-0.506378,-0.106232,-0.338593,-0.09296,0.016003,0.06793300000000001,-25.25,21.18,-32.18,1a
2019-07-12_115925:920,-0.461639,-0.11233499999999999,-0.37265,-0.093845,0.017315,0.05536,-25.25,21.18,-32.18,1a
2019-07-12_115925:940,-0.427063,-0.09811399999999999,-0.33197,-0.091373,0.021435,0.050263999999999996,-23.870001000000002,20.370001000000002,-33.060001,1a
2019-07-12_115925:960,-0.385864,-0.091003,-0.309601,-0.08469,0.029064999999999997,0.038057,-23.870001000000002,20.370001000000002,-33.060001,1a
2019-07-12_115925:980,-0.331482,-0.071167,-0.272491,-0.082554,0.030316000000000003,0.032686,-25.68,18.059998999999998,-34.25,1a
2019-07-12_115926:000,-0.316742,-0.052338,-0.24453699999999998,-0.075931,0.032451999999999995,0.015290999999999999,-25.68,18.059998999999998,-34.25,1a
2019-07-12_115926:020,-0.30300900000000003,-0.021332,-0.238434,-0.071018,0.031659,0.006135,-25.68,18.059998999999998,-34.25,1a
2019-07-12_115926:040,-0.32843,0.005065999999999999,-0.231323,-0.067356,0.030682,-0.004058,-24.559998999999998,16.18,-35.869999,1a
2019-07-12_115926:060,-0.389954,0.067108,-0.248108,-0.067478,0.024884,-0.010558,-24.559998999999998,16.18,-35.869999,1a
2019-07-12_115926:080,-0.348267,0.105743,-0.272003,-0.067691,0.013684,-0.008329999999999999,-26.5,14.68,-35.060001,1a
2019-07-12_115926:100,-0.35739099999999996,0.144897,-0.26944,-0.068607,0.001202,-0.008055,-26.5,14.68,-35.060001,1a
2019-07-12_115926:120,-0.358917,0.170319,-0.28927600000000003,-0.070987,-0.007678,-0.008237999999999999,-26.5,14.68,-35.060001,1a
2019-07-12_115926:140,-0.376221,0.20944200000000002,-0.307587,-0.071872,-0.010974,-0.004729,-27.18,12.06,-36.25,1a
2019-07-12_115926:160,-0.38028,0.22116100000000002,-0.330475,-0.07584,-0.021655,0.021455000000000002,-27.18,12.06,-36.25,1a
2019-07-12_115926:180,-0.358917,0.212006,-0.3508,-0.077762,-0.024463,0.030733,-26.5,9.87,-35.060001,1a
2019-07-12_115926:200,-0.37112399999999995,0.198792,-0.34570300000000004,-0.082218,-0.028095,0.050263999999999996,-26.5,9.87,-35.060001,1a
2019-07-12_115926:220,-0.379272,0.18096900000000002,-0.348267,-0.08353,-0.024738,0.063539,-26.5,9.87,-35.060001,1a
2019-07-12_115926:240,-0.382324,0.162689,-0.34317,-0.08380499999999999,-0.022022,0.0701,-25.0,7.25,-37.869999,1a
2019-07-12_115926:260,-0.391479,0.134705,-0.333496,-0.084018,-0.013843000000000001,0.079591,-25.0,7.25,-37.869999,1a
2019-07-12_115926:280,-0.396545,0.119965,-0.327911,-0.083957,-0.011706999999999999,0.07925499999999999,-25.0,5.06,-37.5,1a
2019-07-12_115926:300,-0.384857,0.103699,-0.31012,-0.082035,-0.006885,0.075685,-25.0,5.06,-37.5,1a
2019-07-12_115926:320,-0.376221,0.091003,-0.294373,-0.079563,-0.003711,0.071962,-25.0,5.06,-37.5,1a
2019-07-12_115926:340,-0.380798,0.074738,-0.278107,-0.078098,-0.00246,0.069368,-24.25,3.87,-38.25,1a
2019-07-12_115926:360,-0.382812,0.067596,-0.269958,-0.071659,-8e-05,0.060274,-24.25,3.87,-38.25,1a
2019-07-12_115926:380,-0.378265,0.06149299999999999,-0.260803,-0.06876,-0.00041500000000000006,0.057954,-23.5,3.18,-38.369999,1a
2019-07-12_115926:400,-0.37112399999999995,0.058441,-0.258759,-0.058048,-0.0023989999999999997,0.049867,-23.5,3.18,-38.369999,1a
2019-07-12_115926:420,-0.358917,0.057953,-0.24353000000000002,-0.049686,-0.002979,0.043489,-23.5,3.18,-38.369999,1a
2019-07-12_115926:440,-0.353333,0.061005,-0.23690799999999998,-0.04108,-0.003375,0.039827,-23.870001000000002,2.06,-38.369999,1a
2019-07-12_115926:460,-0.360962,0.066071,-0.23233,-0.033024,-0.003314,0.039125,-23.870001000000002,2.06,-38.369999,1a
2019-07-12_115926:480,-0.375214,0.065063,-0.23791500000000002,-0.029452999999999997,-0.003192,0.039186,-23.870001000000002,2.06,-38.369999,1a
2019-07-12_115926:500,-0.42147799999999996,0.063538,-0.245056,-0.020419999999999997,-0.004444,0.040559,-24.25,0.56,-38.369999,1a
2019-07-12_115926:520,-0.44638100000000003,0.060486,-0.242004,-0.013706,-0.001666,0.044679,-24.25,0.56,-38.369999,1a
2019-07-12_115926:540,-0.42453,0.055908000000000006,-0.23028600000000002,-0.010135,-0.000202,0.043153,-23.870001000000002,1.37,-38.0,1a
2019-07-12_115926:560,-0.382324,0.050323,-0.231323,-0.00748,-0.006275,0.036043,-23.870001000000002,1.37,-38.0,1a
2019-07-12_115926:580,-0.392487,0.040649,-0.268951,-0.006504,-0.012775,0.032625,-25.0,2.5,-37.18,1a
2019-07-12_115926:600,-0.467743,0.042694,-0.306061,-0.004275999999999999,-0.037586,0.035066,-25.0,2.5,-37.18,1a
2019-07-12_115926:620,-0.540955,0.036072,-0.341644,-0.004520000000000001,-0.045551,0.044496,-25.0,2.5,-37.18,1a
2019-07-12_115926:640,-0.5323180000000001,0.025908999999999998,-0.359955,-0.0051,-0.045185,0.049745,-23.5,3.18,-39.18,1a
2019-07-12_115926:660,-0.43518100000000004,-0.005065999999999999,-0.376221,-0.007084,-0.034931,0.058228999999999996,-23.5,3.18,-39.18,1a
2019-07-12_115926:680,-0.394012,-0.028961,-0.391479,-0.007755,-0.030567,0.05948,-22.370001000000002,3.87,-39.18,1a
2019-07-12_115926:700,-0.393494,-0.063019,-0.401642,-0.007877,-0.013507,0.060487,-22.370001000000002,3.87,-39.18,1a
2019-07-12_115926:720,-0.402161,-0.078796,-0.390442,-0.008152,0.000317,0.050386,-22.370001000000002,3.87,-39.18,1a
2019-07-12_115926:740,-0.383331,-0.09454299999999999,-0.36554000000000003,-0.00867,0.007031,0.041719,-22.0,5.06,-40.369999,1a
2019-07-12_115926:760,-0.369598,-0.09149199999999999,-0.344696,-0.010593,0.025616000000000003,0.015169,-22.0,5.06,-40.369999,1a
2019-07-12_115926:780,-0.34368899999999997,-0.082336,-0.302002,-0.011417,0.02995,0.008973,-22.0,5.06,-40.369999,1a
2019-07-12_115926:800,-0.312164,-0.076752,-0.275055,-0.014041999999999999,0.02995,0.002321,-21.68,5.25,-40.0,1a
2019-07-12_115926:820,-0.283173,-0.081329,-0.275543,-0.014469,0.018658,0.00403,-21.68,5.25,-40.0,1a
2019-07-12_115926:840,-0.282166,-0.091003,-0.28927600000000003,-0.014591,0.011883,0.005311,-22.0,4.56,-40.0,1a
2019-07-12_115926:860,-0.293335,-0.104706,-0.303528,-0.013401,-0.011798000000000001,0.007965999999999999,-22.0,4.56,-40.0,1a
2019-07-12_115926:880,-0.328949,-0.110321,-0.323853,-0.012454999999999999,-0.020008,0.008577,-23.870001000000002,5.06,-37.18,1a
2019-07-12_115926:900,-0.375702,-0.110321,-0.356903,-0.009556,-0.032031,0.007203,-23.870001000000002,5.06,-37.18,1a
2019-07-12_115926:920,-0.446899,-0.097107,-0.355896,-0.007297,-0.028522000000000002,-0.001616,-23.870001000000002,5.06,-37.18,1a
2019-07-12_115926:940,-0.45706199999999997,-0.080322,-0.35436999999999996,-0.006962,-0.022387999999999998,-0.004515,-23.5,4.56,-39.18,1a
2019-07-12_115926:960,-0.439758,-0.055389,-0.326904,-0.008609,-0.0021850000000000003,-0.009581000000000001,-23.5,4.56,-39.18,1a
2019-07-12_115926:980,-0.420441,-0.039642000000000004,-0.310638,-0.009951999999999999,0.003125,-0.010558,-23.5,4.56,-39.18,1a
2019-07-12_115927:000,-0.388428,-0.027954000000000003,-0.278107,-0.014774,0.012341,-0.010314,-22.0,4.56,-39.18,1a
2019-07-12_115927:020,-0.376221,-0.023895,-0.258759,-0.015903,0.013074,-0.009429,-22.0,4.56,-39.18,1a
2019-07-12_115927:040,-0.37316900000000003,-0.021332,-0.243011,-0.017887,0.012066,-0.007384,-22.75,4.18,-40.0,1a
2019-07-12_115927:060,-0.37112399999999995,-0.021851,-0.233856,-0.019625999999999998,0.00935,-0.006072,-22.75,4.18,-40.0,1a
2019-07-12_115927:080,-0.373688,-0.022369,-0.231323,-0.020419999999999997,0.004925,-0.005248,-22.75,4.18,-40.0,1a
2019-07-12_115927:100,-0.382812,-0.019318000000000002,-0.22927899999999998,-0.020816,0.000134,-0.004850999999999999,-23.18,3.5,-38.75,1a
2019-07-12_115927:120,-0.379272,-0.015228,-0.231323,-0.021427,-0.007587000000000001,-0.003325,-23.18,3.5,-38.75,1a
2019-07-12_115927:140,-0.384857,-0.010162000000000001,-0.23284899999999997,-0.022007,-0.010517,-0.002745,-23.5,2.37,-38.75,1a
2019-07-12_115927:160,-0.393005,-0.0035399999999999997,-0.24353000000000002,-0.024143,-0.01781,0.001497,-23.5,2.37,-38.75,1a
2019-07-12_115927:180,-0.391968,-0.001495,-0.246063,-0.025089,-0.019214,0.003023,-23.5,2.37,-38.75,1a
2019-07-12_115927:200,-0.397583,-0.004547,-0.249115,-0.028506999999999998,-0.021015,0.005739,-24.25,1.25,-39.18,1a
2019-07-12_115927:220,-0.398071,-0.0055850000000000006,-0.259796,-0.030032999999999997,-0.021289,0.0067150000000000005,-24.25,1.25,-39.18,1a
2019-07-12_115927:240,-0.40316799999999997,-0.004059,-0.275055,-0.032382999999999995,-0.022418,0.009126,-23.870001000000002,0.87,-38.75,1a
2019-07-12_115927:260,-0.381317,-0.011169,-0.280121,-0.034885,-0.022815000000000002,0.011049,-23.870001000000002,0.87,-38.75,1a
2019-07-12_115927:280,-0.394012,-0.014221000000000001,-0.28674299999999997,-0.036899,-0.022785,0.010103000000000001,-23.870001000000002,0.87,-38.75,1a
2019-07-12_115927:300,-0.397064,-0.015228,-0.29995700000000003,-0.038761000000000004,-0.022144,0.009096,-22.370001000000002,0.5,-39.18,1a
2019-07-12_115927:320,-0.397583,-0.016753999999999998,-0.309601,-0.03928,-0.020496,0.009187,-22.370001000000002,0.5,-39.18,1a
2019-07-12_115927:340,-0.407227,-0.017792,-0.316742,-0.040531,-0.019031,0.008394,-22.0,-1.0,-40.369999,1a
2019-07-12_115927:360,-0.421967,-0.013702,-0.31723,-0.041538,-0.014759,0.007905,-22.0,-1.0,-40.369999,1a
2019-07-12_115927:380,-0.42758199999999996,-0.010162000000000001,-0.318268,-0.042453,-0.00893,0.009096,-22.0,-1.0,-40.369999,1a
2019-07-12_115927:400,-0.408752,-0.005065999999999999,-0.32132,-0.044039999999999996,-0.0031309999999999997,0.010255,-21.68,-2.06,-38.369999,1a
2019-07-12_115927:420,-0.394531,-0.001495,-0.325378,-0.045261,0.001446,0.010225,-21.68,-2.06,-38.369999,1a
2019-07-12_115927:440,-0.42605600000000005,0.006072999999999999,-0.328949,-0.046633999999999995,0.004529,0.009035,-22.0,-4.25,-39.560001,1a
2019-07-12_115927:460,-0.574493,0.028442000000000002,-0.34570300000000004,-0.047702,0.002972,0.008699,-22.0,-4.25,-39.560001,1a
2019-07-12_115927:480,-0.461639,0.028442000000000002,-0.35943600000000003,-0.049564,0.0018739999999999998,0.013765000000000001,-22.0,-4.25,-39.560001,1a
2019-07-12_115927:500,-0.565338,0.053863999999999995,-0.361481,-0.047977,0.001782,0.014344999999999998,-22.370001000000002,-5.37,-39.560001,1a
2019-07-12_115927:520,-0.512482,0.054901,-0.377747,-0.050358,-0.000202,0.01822,-22.370001000000002,-5.37,-39.560001,1a
2019-07-12_115927:540,-0.45043900000000003,0.063019,-0.358429,-0.045658,0.001538,0.022371000000000002,-22.75,-6.87,-39.560001,1a
2019-07-12_115927:560,-0.43518100000000004,0.050323,-0.326385,-0.043399,0.002728,0.020723,-22.75,-6.87,-39.560001,1a
2019-07-12_115927:580,-0.397064,0.053863999999999995,-0.305542,-0.037601,0.00758,0.013032,-22.75,-6.87,-39.560001,1a
2019-07-12_115927:600,-0.329437,0.060486,-0.264374,-0.031314999999999996,0.01289,0.008394,-21.68,-8.37,-37.560001,1a
2019-07-12_115927:620,-0.284698,0.071167,-0.23895300000000003,-0.023807,0.019055000000000002,0.010225,-21.68,-8.37,-37.560001,1a
2019-07-12_115927:640,-0.287231,0.084381,-0.206909,-0.018833000000000003,0.023175,0.015931,-23.5,-9.18,-38.369999,1a
2019-07-12_115927:660,-0.293335,0.094055,-0.223175,-0.015506,0.01817,0.02292,-23.5,-9.18,-38.369999,1a
2019-07-12_115927:680,-0.29232800000000003,0.102173,-0.23486300000000002,-0.014774,0.007184,0.027833,-23.5,-9.18,-38.369999,1a
2019-07-12_115927:700,-0.29995700000000003,0.100647,-0.23895300000000003,-0.01511,-0.007129000000000001,0.028352,-25.0,-9.18,-37.18,1a
2019-07-12_115927:720,-0.35739099999999996,0.08996599999999999,-0.264862,-0.015506,-0.021472,0.023530000000000002,-25.0,-9.18,-37.18,1a
2019-07-12_115927:740,-0.394531,0.08081100000000001,-0.282166,-0.014652000000000002,-0.031635,0.017335,-23.870001000000002,-9.87,-36.0,1a
2019-07-12_115927:760,-0.40368699999999996,0.069122,-0.308075,-0.012668,-0.038349,0.014955000000000001,-23.870001000000002,-9.87,-36.0,1a
2019-07-12_115927:780,-0.41842700000000005,0.060486,-0.328949,-0.010348999999999999,-0.043384,0.0188,-23.870001000000002,-9.87,-36.0,1a
2019-07-12_115927:800,-0.45043900000000003,0.039124,-0.34570300000000004,-0.007633,-0.042255,0.025178,-24.25,-9.87,-37.560001,1a
2019-07-12_115927:820,-0.465179,0.029480000000000003,-0.341125,-0.003849,-0.034809,0.029237,-24.25,-9.87,-37.560001,1a
2019-07-12_115927:840,-0.461121,0.021851,-0.318268,-6.500000000000001e-05,-0.023059,0.028749,-23.18,-9.5,-38.060001,1a
2019-07-12_115927:860,-0.437225,0.023895,-0.294373,0.00372,-0.009784000000000001,0.027498,-23.18,-9.5,-38.060001,1a
2019-07-12_115927:880,-0.396545,0.029968,-0.270966,0.006375,-0.000202,0.027955,-23.18,-9.5,-38.060001,1a
2019-07-12_115927:900,-0.380798,0.032013,-0.25827,0.006954999999999999,0.0033079999999999997,0.02823,-22.75,-9.5,-37.68,1a
2019-07-12_115927:920,-0.354858,0.032013,-0.243011,0.006222,0.003186,0.028076999999999998,-22.75,-9.5,-37.68,1a
2019-07-12_115927:940,-0.344696,0.029480000000000003,-0.235382,0.004818,0.0007440000000000001,0.026552,-22.75,-8.0,-38.5,1a
2019-07-12_115927:960,-0.355896,0.022858,-0.231812,0.0035060000000000004,-0.0023989999999999997,0.0235,-22.75,-8.0,-38.5,1a
2019-07-12_115927:980,-0.355377,0.017273,-0.244019,0.002438,-0.006214,0.019929,-22.75,-8.0,-38.5,1a
2019-07-12_115928:000,-0.35791,0.011169,-0.248596,0.002652,-0.01012,0.016298,-23.870001000000002,-6.87,-37.68,1a
2019-07-12_115928:020,-0.358917,0.0055850000000000006,-0.252686,0.0035060000000000004,-0.013294,0.0123,-23.870001000000002,-6.87,-37.68,1a
2019-07-12_115928:040,-0.383331,0.0,-0.26181,0.006161,-0.015552000000000002,0.006776000000000001,-23.18,-5.75,-38.869999,1a
2019-07-12_115928:060,-0.39859,0.0,-0.273529,0.009732,-0.017078,0.0011,-23.18,-5.75,-38.869999,1a
2019-07-12_115928:080,-0.42858900000000005,0.006072999999999999,-0.268951,0.01434,-0.016375999999999998,-0.002593,-23.18,-5.75,-38.869999,1a
2019-07-12_115928:100,-0.42453,0.013213999999999998,-0.282654,0.017971,-0.016222999999999998,-0.002806,-22.75,-6.5,-37.68,1a
2019-07-12_115928:120,-0.429108,0.021332,-0.275543,0.021969,-0.013965,-0.00186,-22.75,-6.5,-37.68,1a
2019-07-12_115928:140,-0.417908,0.027954000000000003,-0.281647,0.024013999999999997,-0.011524,-0.0011279999999999999,-22.370001000000002,-6.18,-38.869999,1a
2019-07-12_115928:160,-0.40368699999999996,0.03302,-0.28674299999999997,0.025204,-0.010242,0.0017100000000000001,-22.370001000000002,-6.18,-38.869999,1a
2019-07-12_115928:180,-0.386902,0.032013,-0.29486100000000004,0.025601,-0.010242,0.005647,-22.370001000000002,-6.18,-38.869999,1a
2019-07-12_115928:200,-0.387909,0.010651,-0.312653,0.025418,-0.012256,0.006776000000000001,-22.370001000000002,-4.68,-38.5,1a
2019-07-12_115928:220,-0.5424800000000001,-0.009125,-0.335541,0.025418,-0.019611,0.006044,-22.370001000000002,-4.68,-38.5,1a
2019-07-12_115928:240,-0.49316400000000005,-0.039124,-0.433655,0.02496,-0.028705,0.010988,-22.0,-3.18,-38.869999,1a
2019-07-12_115928:260,-0.616699,-0.045226999999999996,-0.39502,0.027523000000000002,-0.027727999999999996,0.012697,-22.0,-3.18,-38.869999,1a
2019-07-12_115928:280,-0.492126,-0.07775900000000001,-0.454529,0.026547,-0.027973,0.010652,-22.0,-3.18,-38.869999,1a
2019-07-12_115928:300,-0.404694,-0.08081100000000001,-0.43823199999999995,0.029141000000000004,-0.01955,0.006837,-22.0,-2.5,-39.25,1a
2019-07-12_115928:320,-0.360962,-0.08843999999999999,-0.420441,0.027859,-0.0125,0.006837,-22.0,-2.5,-39.25,1a
2019-07-12_115928:340,-0.35131799999999996,-0.092529,-0.402649,0.027279,-0.000995,0.009187,-20.5,-0.18,-39.25,1a
2019-07-12_115928:360,-0.28775,-0.098633,-0.350281,0.025143000000000002,0.013196000000000001,0.007051000000000001,-20.5,-0.18,-39.25,1a
2019-07-12_115928:380,-0.234375,-0.102173,-0.303528,0.023495,0.023419,-0.002196,-20.5,-0.18,-39.25,1a
2019-07-12_115928:400,-0.24706999999999998,-0.097595,-0.29180900000000004,0.021419999999999998,0.024548,-0.013609999999999999,-20.870001000000002,0.5,-39.25,1a
2019-07-12_115928:420,-0.25317399999999995,-0.09301799999999999,-0.291321,0.021084000000000002,0.019726,-0.019469,-20.870001000000002,0.5,-39.25,1a
2019-07-12_115928:440,-0.259277,-0.095062,-0.285217,0.021939,0.011944,-0.021971,-22.0,2.37,-39.68,1a
2019-07-12_115928:460,-0.295898,-0.096588,-0.303528,0.022549,0.000317,-0.025907999999999997,-22.0,2.37,-39.68,1a
2019-07-12_115928:480,-0.323853,-0.090485,-0.325897,0.023068,-0.011859,-0.027219999999999998,-22.0,2.37,-39.68,1a
2019-07-12_115928:500,-0.326904,-0.08843999999999999,-0.359955,0.023219999999999998,-0.024066,-0.023497,-22.370001000000002,2.0,-38.869999,1a
2019-07-12_115928:520,-0.352844,-0.08843999999999999,-0.37265,0.023341999999999998,-0.035144,-0.022063,-22.370001000000002,2.0,-38.869999,1a
2019-07-12_115928:540,-0.42401099999999997,-0.075226,-0.406738,0.021817,-0.038593,-0.028411000000000002,-22.370001000000002,2.37,-38.5,1a
2019-07-12_115928:560,-0.425537,-0.062012,-0.405212,0.019894,-0.032702999999999996,-0.036254,-22.370001000000002,2.37,-38.5,1a
2019-07-12_115928:580,-0.432159,-0.031494,-0.379791,0.018032,-0.022387999999999998,-0.040892000000000005,-22.370001000000002,2.37,-38.5,1a
2019-07-12_115928:600,-0.434174,-0.016753999999999998,-0.361969,0.015133,-0.009876000000000001,-0.041838,-21.25,2.37,-40.060001,1a
2019-07-12_115928:620,-0.415375,0.002014,-0.326904,0.0108,0.00346,-0.039427,-21.25,2.37,-40.060001,1a
2019-07-12_115928:640,-0.388428,0.006592,-0.29943800000000004,0.006039,0.015851,-0.033934,-20.870001000000002,2.75,-40.869999,1a
2019-07-12_115928:660,-0.35180700000000004,0.008118,-0.262848,0.0014609999999999998,0.024487000000000002,-0.027098,-20.870001000000002,2.75,-40.869999,1a
2019-07-12_115928:680,-0.34063699999999997,0.006072999999999999,-0.24758899999999998,-0.001224,0.027081,-0.021666,-20.870001000000002,2.75,-40.869999,1a
2019-07-12_115928:700,-0.318756,0.0055850000000000006,-0.22927899999999998,-0.002414,0.025158,-0.018522999999999998,-21.25,2.0,-38.060001,1a
2019-07-12_115928:720,-0.326385,0.009644,-0.22421300000000002,-0.002933,0.018536,-0.017058,-21.25,2.0,-38.060001,1a
2019-07-12_115928:740,-0.34674099999999997,0.015747,-0.22421300000000002,-0.003147,0.010541,-0.013487,-22.75,1.56,-38.869999,1a
2019-07-12_115928:760,-0.35739099999999996,0.021332,-0.220642,-0.004123,0.003918,-0.0075060000000000005,-22.75,1.56,-38.869999,1a
2019-07-12_115928:780,-0.374176,0.022369,-0.22521999999999998,-0.0069,-0.001666,-0.0015550000000000002,-22.75,1.56,-38.869999,1a
2019-07-12_115928:800,-0.381317,0.026917,-0.233856,-0.011264,-0.0060609999999999995,0.003297,-23.870001000000002,0.5,-37.68,1a
2019-07-12_115928:820,-0.393005,0.026427999999999997,-0.231323,-0.016361,-0.008258,0.0071730000000000006,-23.870001000000002,0.5,-37.68,1a
2019-07-12_115928:840,-0.39859,0.024902,-0.24706999999999998,-0.023075,-0.011127,0.011384,-23.5,0.87,-38.5,1a
2019-07-12_115928:860,-0.38739,0.011687999999999999,-0.25116,-0.029911,-0.014118,0.015352000000000001,-23.5,0.87,-38.5,1a
2019-07-12_115928:880,-0.40774499999999997,0.006592,-0.262329,-0.036838,-0.017108,0.015931,-23.5,0.87,-38.5,1a
2019-07-12_115928:900,-0.42605600000000005,0.001495,-0.283173,-0.043644,-0.020465,0.015535,-23.18,0.06,-38.869999,1a
2019-07-12_115928:920,-0.433655,-0.001495,-0.28064,-0.049839,-0.020679,0.015809,-23.18,0.06,-38.869999,1a
2019-07-12_115928:940,-0.444855,-0.001495,-0.290802,-0.05582,-0.020343,0.017152,-22.370001000000002,-0.18,-38.5,1a
2019-07-12_115928:960,-0.44433599999999995,-0.002014,-0.293335,-0.061527,-0.016956,0.018678,-22.370001000000002,-0.18,-38.5,1a
2019-07-12_115928:980,-0.42807,0.001495,-0.307068,-0.066898,-0.014697,0.018922,-22.370001000000002,-0.18,-38.5,1a
2019-07-12_115929:000,-0.420959,0.005065999999999999,-0.31012,-0.071598,-0.011798000000000001,0.018678,-23.18,-2.06,-39.25,1a
2019-07-12_115929:020,-0.455017,0.012695,-0.309113,-0.075535,-0.009143,0.017396000000000002,-23.18,-2.06,-39.25,1a
2019-07-12_115929:040,-0.5211180000000001,0.031494,-0.354858,-0.078373,-0.011401999999999999,0.014161000000000002,-22.0,-4.0,-38.060001,1a
2019-07-12_115929:060,-0.509918,0.022858,-0.331482,-0.07864700000000001,-0.017963,0.010957,-22.0,-4.0,-38.060001,1a
2019-07-12_115929:080,-0.460114,0.049316000000000006,-0.381805,-0.074405,-0.02367,0.002229,-22.0,-4.0,-38.060001,1a
2019-07-12_115929:100,-0.35180700000000004,0.0737,-0.401642,-0.069797,-0.033039,0.001588,-21.68,-7.25,-38.5,1a
2019-07-12_115929:120,-0.267426,0.08743300000000001,-0.416901,-0.059848,-0.041522,0.007722,-21.68,-7.25,-38.5,1a
2019-07-12_115929:140,-0.33300799999999997,0.103699,-0.40316799999999997,-0.050296,-0.039264,0.010713,-21.0,-9.18,-38.060001,1a
2019-07-12_115929:160,-0.398071,0.12200899999999999,-0.397583,-0.041935,-0.025072999999999998,0.012422,-21.0,-9.18,-38.060001,1a
2019-07-12_115929:180,-0.337067,0.139801,-0.396545,-0.035373,-0.010639000000000001,0.020265000000000002,-21.0,-9.18,-38.060001,1a
2019-07-12_115929:200,-0.331482,0.14386,-0.37265,-0.030521,-0.001911,0.029695,-19.870001000000002,-11.37,-38.060001,1a
2019-07-12_115929:220,-0.36044299999999996,0.139282,-0.35791,-0.029667000000000002,0.001843,0.035858999999999995,-19.870001000000002,-11.37,-38.060001,1a
2019-07-12_115929:240,-0.358429,0.133698,-0.333496,-0.030368,0.007306,0.044496,-20.25,-12.87,-38.5,1a
2019-07-12_115929:260,-0.34265100000000004,0.098633,-0.315216,-0.031376,0.008771,0.056916999999999995,-20.25,-12.87,-38.5,1a
2019-07-12_115929:280,-0.34875500000000004,0.07016,-0.313171,-0.031772,0.004132,0.064058,-20.25,-12.87,-38.5,1a
2019-07-12_115929:300,-0.326385,0.036591000000000005,-0.301483,-0.031192,-0.0012699999999999999,0.06488200000000001,-21.75,-11.68,-37.75,1a
2019-07-12_115929:320,-0.30300900000000003,0.01828,-0.29486100000000004,-0.028995,-0.0060609999999999995,0.063325,-21.75,-11.68,-37.75,1a
2019-07-12_115929:340,-0.318268,-0.0055850000000000006,-0.296906,-0.024936,-0.011127,0.058748,-23.25,-11.68,-37.369999,1a
2019-07-12_115929:360,-0.32843,-0.008636,-0.29895,-0.021366,-0.01485,0.051576,-23.25,-11.68,-37.369999,1a
2019-07-12_115929:380,-0.35943600000000003,-0.009125,-0.293854,-0.016697,-0.016040000000000002,0.047395,-23.25,-11.68,-37.369999,1a
2019-07-12_115929:400,-0.37674,-0.009644,-0.29486100000000004,-0.01218,-0.015949,0.044954,-22.870001000000002,-11.0,-37.369999,1a
2019-07-12_115929:420,-0.401642,-0.004059,-0.28875700000000004,-0.008426000000000001,-0.013324,0.038789,-22.870001000000002,-11.0,-37.369999,1a
2019-07-12_115929:440,-0.407227,0.0025329999999999997,-0.282654,-0.005741,-0.008808,0.032289,-22.870001000000002,-11.0,-36.5,1a
2019-07-12_115929:460,-0.397064,0.007599,-0.267426,-0.004184,-0.003436,0.028962,-22.870001000000002,-11.0,-36.5,1a
2019-07-12_115929:480,-0.388428,0.010651,-0.263855,-0.002811,0.000653,0.026918,-22.870001000000002,-11.0,-36.5,1a
2019-07-12_115929:500,-0.372162,0.010162000000000001,-0.24658200000000002,-0.002536,0.003186,0.025238999999999998,-22.870001000000002,-9.5,-36.18,1a
2019-07-12_115929:520,-0.371643,0.010651,-0.24353000000000002,-0.002475,0.00346,0.023897,-22.870001000000002,-9.5,-36.18,1a
2019-07-12_115929:540,-0.380798,0.006592,-0.243011,-0.002597,0.001202,0.021730000000000003,-24.0,-10.25,-36.869999,1a
2019-07-12_115929:560,-0.390961,0.0055850000000000006,-0.241486,-0.001468,-0.002796,0.017731999999999998,-24.0,-10.25,-36.869999,1a
2019-07-12_115929:580,-0.369598,0.006072999999999999,-0.24453699999999998,-0.000614,-0.007281999999999999,0.0123,-24.0,-10.25,-36.869999,1a
2019-07-12_115929:600,-0.38739,0.006592,-0.263855,0.004025,-0.017902,0.012178,-25.059998999999998,-10.25,-36.560001,1a
2019-07-12_115929:620,-0.391968,0.006072999999999999,-0.268433,0.004025,-0.017902,0.012178,-25.059998999999998,-10.25,-36.560001,1a
2019-07-12_115929:640,-0.391479,0.0025329999999999997,-0.275543,0.005368,-0.019885,0.013215000000000001,-24.25,-10.25,-37.75,1a
2019-07-12_115929:660,-0.405212,-0.0030210000000000002,-0.28875700000000004,0.00787,-0.022387999999999998,0.01291,-24.25,-10.25,-37.75,1a
2019-07-12_115929:680,-0.417389,-0.004059,-0.29486100000000004,0.010860999999999999,-0.021472,0.010957,-24.25,-10.25,-37.75,1a
2019-07-12_115929:700,-0.408752,-0.008636,-0.29895,0.014065000000000001,-0.016162,0.011231999999999999,-23.870001000000002,-9.87,-37.0,1a
2019-07-12_115929:720,-0.395538,-0.017273,-0.312164,0.017117,-0.010669,0.011629,-23.870001000000002,-9.87,-37.0,1a
2019-07-12_115929:740,-0.472321,-0.044739,-0.33197,0.019619,-0.007526000000000001,0.010652,-23.870001000000002,-9.18,-37.369999,1a
2019-07-12_115929:760,-0.531281,-0.036072,-0.42605600000000005,0.02203,-0.015155000000000002,0.011751000000000001,-23.870001000000002,-9.18,-37.369999,1a
2019-07-12_115929:780,-0.5495909999999999,-0.076752,-0.39859,0.025265,-0.022418,0.016541999999999998,-23.870001000000002,-9.18,-37.369999,1a
2019-07-12_115929:800,-0.433167,-0.102173,-0.45654300000000003,0.029720999999999997,-0.029437,0.012971000000000002,-23.870001000000002,-8.75,-36.869999,1a
2019-07-12_115929:820,-0.44027700000000003,-0.112854,-0.458588,0.032162,-0.031145999999999997,0.007783,-23.870001000000002,-8.75,-36.869999,1a
2019-07-12_115929:840,-0.365021,-0.12558,-0.475861,0.034451,-0.031024,0.010652,-23.370001000000002,-6.5,-37.68,1a
2019-07-12_115929:860,-0.360962,-0.146912,-0.44232200000000005,0.036496,-0.024921000000000002,0.016481,-23.370001000000002,-6.5,-37.68,1a
2019-07-12_115929:880,-0.328949,-0.157074,-0.396057,0.036831,-0.012531,0.015352000000000001,-23.370001000000002,-6.5,-37.68,1a
2019-07-12_115929:900,-0.29538000000000003,-0.160126,-0.352325,0.038754000000000004,0.004529,0.007661,-21.870001000000002,-5.0,-38.060001,1a
2019-07-12_115929:920,-0.252686,-0.149475,-0.30300900000000003,0.04208,0.025738,-0.011901,-21.870001000000002,-5.0,-38.060001,1a
2019-07-12_115929:940,-0.227753,-0.140808,-0.296906,0.043331,0.025372,-0.02072,-22.68,-2.87,-39.68,1a
2019-07-12_115929:960,-0.227264,-0.141327,-0.278595,0.045254,0.017865,-0.02484,-22.68,-2.87,-39.68,1a
2019-07-12_115929:980,-0.24453699999999998,-0.143372,-0.285217,0.046231,0.005627,-0.029539999999999997,-22.68,-2.06,-38.869999,1a
2019-07-12_115930:000,-0.267914,-0.144897,-0.30300900000000003,0.047055,-0.007984,-0.032073000000000004,-22.68,-2.06,-38.869999,1a
2019-07-12_115930:020,-0.276581,-0.142334,-0.325378,0.047726,-0.023059,-0.030333,-22.68,-2.06,-38.869999,1a
2019-07-12_115930:040,-0.28927600000000003,-0.142853,-0.35180700000000004,0.047451,-0.035938,-0.029752999999999998,-24.18,-1.37,-37.25,1a
2019-07-12_115930:060,-0.30300900000000003,-0.139282,-0.368073,0.045986,-0.045368,-0.035276999999999996,-24.18,-1.37,-37.25,1a
2019-07-12_115930:080,-0.35943600000000003,-0.12301600000000001,-0.388916,0.044644,-0.048358,-0.046599,-24.18,-1.37,-37.25,1a
2019-07-12_115930:100,-0.386383,-0.108276,-0.392487,0.041989,-0.042987,-0.060027,-22.68,-0.18,-38.869999,1a
2019-07-12_115930:120,-0.398071,-0.074738,-0.369598,0.038479,-0.031635,-0.069243,-22.68,-0.18,-38.869999,1a
2019-07-12_115930:140,-0.39502,-0.058441,-0.350281,0.033688,-0.018024000000000002,-0.070647,-21.559998999999998,0.5,-40.060001,1a
2019-07-12_115930:160,-0.379272,-0.039124,-0.32132,0.027981,-0.006092,-0.06777799999999999,-21.559998999999998,0.5,-40.060001,1a
2019-07-12_115930:180,-0.36248800000000003,-0.031006,-0.30300900000000003,0.022152,0.001446,-0.062743,-21.559998999999998,0.5,-40.060001,1a
2019-07-12_115930:200,-0.328949,-0.026427999999999997,-0.276581,0.017636000000000002,0.004834000000000001,-0.056975,-20.75,1.56,-40.369999,1a
2019-07-12_115930:220,-0.313171,-0.025908999999999998,-0.267426,0.014126,0.004376,-0.052641999999999994,-20.75,1.56,-40.369999,1a
2019-07-12_115930:240,-0.308075,-0.025421,-0.264862,0.011470999999999999,0.0009279999999999999,-0.049071,-19.68,0.5,-39.25,1a
2019-07-12_115930:260,-0.317749,-0.024902,-0.27301,0.009732,-0.00539,-0.043883,-19.68,0.5,-39.25,1a
2019-07-12_115930:280,-0.338074,-0.024384,-0.278107,0.008816,-0.010272,-0.038114999999999996,-19.68,0.5,-39.25,1a
2019-07-12_115930:300,-0.354858,-0.024902,-0.277588,0.007687,-0.012775,-0.033812,-21.559998999999998,0.06,-40.5,1a
2019-07-12_115930:320,-0.377747,-0.017792,-0.285217,0.006344,-0.013233000000000002,-0.029692000000000003,-21.559998999999998,0.06,-40.5,1a
2019-07-12_115930:340,-0.372162,-0.016753999999999998,-0.285706,0.00491,-0.012042,-0.024901,-21.870001000000002,-0.18,-39.68,1a
2019-07-12_115930:360,-0.38028,-0.009125,-0.29232800000000003,0.00198,-0.011188,-0.021514,-21.870001000000002,-0.18,-39.68,1a
2019-07-12_115930:380,-0.393005,-0.004059,-0.30249000000000004,-0.0027199999999999998,-0.010974,-0.017606999999999998,-21.870001000000002,-0.18,-39.68,1a
2019-07-12_115930:400,-0.394531,0.000488,-0.306061,-0.008091,-0.010394,-0.013365,-20.75,-0.18,-40.369999,1a
2019-07-12_115930:420,-0.40570100000000003,0.0025329999999999997,-0.301483,-0.015231999999999999,-0.008197,-0.010893,-20.75,-0.18,-40.369999,1a
2019-07-12_115930:440,-0.406738,0.007111,-0.308075,-0.023136,-0.005176,-0.009368000000000001,-20.059998999999998,-1.0,-40.060001,1a
2019-07-12_115930:460,-0.390961,0.009644,-0.307068,-0.031252999999999996,-0.002796,-0.007262,-20.059998999999998,-1.0,-40.060001,1a
2019-07-12_115930:480,-0.377747,0.015228,-0.323334,-0.039798,-0.003925,-0.006072,-20.059998999999998,-1.0,-40.060001,1a
2019-07-12_115930:500,-0.410797,0.016753999999999998,-0.336548,-0.047519,-0.007343000000000001,-0.006468000000000001,-19.68,-1.68,-39.68,1a
2019-07-12_115930:520,-0.474854,0.031006,-0.41485600000000006,-0.054477,-0.017291,-0.006437999999999999,-19.68,-1.68,-39.68,1a
2019-07-12_115930:540,-0.525177,0.019806,-0.40976,-0.058262,-0.022602,-0.008177,-20.370001000000002,-4.68,-40.060001,1a
2019-07-12_115930:560,-0.5267029999999999,0.040649,-0.477386,-0.06171,-0.028461,-0.012175,-20.370001000000002,-4.68,-40.060001,1a
2019-07-12_115930:580,-0.501282,0.05285599999999999,-0.44027700000000003,-0.060703,-0.022144,-0.013212999999999999,-20.370001000000002,-4.68,-40.060001,1a
2019-07-12_115930:600,-0.359955,0.080322,-0.415375,-0.056949,-0.012256,-0.016538999999999998,-20.18,-6.5,-40.869999,1a
2019-07-12_115930:620,-0.342163,0.097595,-0.397064,-0.052402,-0.002246,-0.022124,-20.18,-6.5,-40.869999,1a
2019-07-12_115930:640,-0.286224,0.12454200000000001,-0.36349499999999996,-0.047977,0.010754000000000001,-0.020322999999999997,-18.68,-9.5,-40.369999,1a
2019-07-12_115930:660,-0.28979499999999997,0.134705,-0.314697,-0.042911000000000005,0.024426,-0.006774,-18.68,-9.5,-40.369999,1a
2019-07-12_115930:680,-0.268433,0.134216,-0.315704,-0.038547000000000005,0.026744999999999998,0.009645,-18.68,-9.5,-40.369999,1a
2019-07-12_115930:700,-0.245056,0.131653,-0.31369,-0.035679,0.019787,0.020600999999999998,-19.5,-11.0,-39.0,1a
2019-07-12_115930:720,-0.278107,0.12149000000000001,-0.29284699999999997,-0.032169,0.008618,0.028076999999999998,-19.5,-11.0,-39.0,1a
2019-07-12_115930:740,-0.311646,0.111847,-0.300476,-0.027256,-0.001117,0.033143,-19.870001000000002,-12.06,-37.369999,1a
2019-07-12_115930:760,-0.349274,0.094055,-0.31012,-0.021549000000000002,-0.009143,0.03293,-19.870001000000002,-12.06,-37.369999,1a
2019-07-12_115930:780,-0.344696,0.08743300000000001,-0.32486,-0.015964,-0.017230000000000002,0.031556,-19.870001000000002,-12.06,-37.369999,1a
2019-07-12_115930:800,-0.322327,0.078278,-0.34368899999999997,-0.009922,-0.025043,0.033479,-20.559998999999998,-13.18,-37.0,1a
2019-07-12_115930:820,-0.318268,0.075745,-0.350281,-0.00629,-0.031757,0.039857,-20.559998999999998,-13.18,-37.0,1a
2019-07-12_115930:840,-0.374695,0.057953,-0.355377,-0.005039,-0.033618,0.048524,-20.559998999999998,-13.56,-39.369999,1a
2019-07-12_115930:860,-0.404694,0.044739,-0.352325,-0.004123,-0.027727999999999996,0.054384,-20.559998999999998,-13.56,-39.369999,1a
2019-07-12_115930:880,-0.41842700000000005,0.036591000000000005,-0.332489,-0.0036049999999999997,-0.016956,0.053864999999999996,-20.559998999999998,-13.56,-39.369999,1a
2019-07-12_115930:900,-0.41842700000000005,0.036072,-0.316223,-0.003452,-0.004993,0.050081,-20.25,-12.06,-39.369999,1a
2019-07-12_115930:920,-0.393494,0.036591000000000005,-0.29538000000000003,-0.004123,0.004986,0.046296,-20.25,-12.06,-39.369999,1a
2019-07-12_115930:940,-0.372162,0.034546,-0.278595,-0.005222,0.010631999999999999,0.044099,-20.25,-11.37,-37.75,1a
2019-07-12_115930:960,-0.344696,0.032532,-0.257751,-0.006962,0.011761,0.04236,-20.25,-11.37,-37.75,1a
2019-07-12_115930:980,-0.335022,0.029480000000000003,-0.251648,-0.00867,0.009961,0.040956,-20.25,-11.37,-37.75,1a
2019-07-12_115931:000,-0.337067,0.022858,-0.24963400000000002,-0.010288,0.005627,0.039644,-21.75,-10.25,-37.75,1a
2019-07-12_115931:020,-0.34317,0.015228,-0.248108,-0.01099,0.001385,0.03766,-21.75,-10.25,-37.75,1a
2019-07-12_115931:040,-0.35739099999999996,0.004059,-0.246063,-0.010409999999999999,-0.002124,0.033815,-22.059998999999998,-9.87,-37.75,1a
2019-07-12_115931:060,-0.388916,0.000488,-0.252686,-0.008823000000000001,-0.006397,0.028810000000000002,-22.059998999999998,-9.87,-37.75,1a
2019-07-12_115931:080,-0.374695,-0.0030210000000000002,-0.261322,-0.005893,-0.009662,0.024965,-22.059998999999998,-9.87,-37.75,1a
2019-07-12_115931:100,-0.395538,-0.0055850000000000006,-0.258759,-0.002323,-0.011706999999999999,0.022584,-22.870001000000002,-9.5,-36.560001,1a
2019-07-12_115931:120,-0.381317,-0.0025329999999999997,-0.28927600000000003,0.000698,-0.015033000000000001,0.022249,-22.870001000000002,-9.5,-36.560001,1a
2019-07-12_115931:140,-0.411285,-0.001495,-0.278595,0.004696,-0.016222999999999998,0.022401,-22.870001000000002,-9.18,-37.0,1a
2019-07-12_115931:160,-0.40316799999999997,0.006072999999999999,-0.29232800000000003,0.0068319999999999995,-0.015827,0.021181000000000002,-22.870001000000002,-9.18,-37.0,1a
2019-07-12_115931:180,-0.39502,0.007599,-0.29486100000000004,0.008357999999999999,-0.012653,0.020936,-22.870001000000002,-9.18,-37.0,1a
2019-07-12_115931:200,-0.37011700000000003,0.0025329999999999997,-0.320282,0.008877,-0.009937,0.022645,-22.5,-9.5,-36.560001,1a
2019-07-12_115931:220,-0.387909,-0.017792,-0.329437,0.009549,-0.007220999999999999,0.024232,-22.5,-9.5,-36.560001,1a
2019-07-12_115931:240,-0.505371,-0.023895,-0.41384899999999997,0.010128,-0.011706999999999999,0.027375999999999998,-22.059998999999998,-8.37,-37.75,1a
2019-07-12_115931:260,-0.470276,-0.069122,-0.41232299999999994,0.013271999999999999,-0.009937,0.03293,-22.059998999999998,-8.37,-37.75,1a
2019-07-12_115931:280,-0.504333,-0.083862,-0.465179,0.016507,-0.013628999999999999,0.032411,-22.059998999999998,-8.37,-37.75,1a
2019-07-12_115931:300,-0.489075,-0.10775799999999999,-0.449432,0.020809,-0.010912999999999999,0.029146,-22.059998999999998,-7.25,-37.369999,1a
2019-07-12_115931:320,-0.382812,-0.119476,-0.45654300000000003,0.025082,-0.010456,0.025026,-22.059998999999998,-7.25,-37.369999,1a
2019-07-12_115931:340,-0.391968,-0.12149000000000001,-0.445374,0.027188,-0.007739,0.027284,-21.68,-5.75,-37.369999,1a
2019-07-12_115931:360,-0.38028,-0.130127,-0.41384899999999997,0.027005,0.003125,0.03235,-21.68,-5.75,-37.369999,1a
2019-07-12_115931:380,-0.330963,-0.14032,-0.354858,0.026333,0.021313,0.026887,-21.68,-5.75,-37.369999,1a
2019-07-12_115931:400,-0.301483,-0.134705,-0.30300900000000003,0.024197,0.039898,0.009096,-21.25,-5.37,-37.0,1a
2019-07-12_115931:420,-0.266907,-0.114899,-0.28112800000000004,0.020901,0.045880000000000004,-0.005065,-21.25,-5.37,-37.0,1a
2019-07-12_115931:440,-0.274536,-0.114899,-0.276581,0.019162000000000002,0.041424,-0.007384,-23.18,-3.18,-37.369999,1a
2019-07-12_115931:460,-0.276581,-0.132172,-0.267426,0.017238999999999997,0.032330000000000005,-0.008695999999999999,-23.18,-3.18,-37.369999,1a
2019-07-12_115931:480,-0.300476,-0.13623,-0.267914,0.015133,0.020825,-0.012236,-23.18,-3.18,-37.369999,1a
2019-07-12_115931:500,-0.3396,-0.135742,-0.281647,0.014462000000000001,0.009564,-0.010954,-24.559998999999998,-2.06,-35.0,1a
2019-07-12_115931:520,-0.32843,-0.144379,-0.29232800000000003,0.014706,-0.000324,-0.009764,-24.559998999999998,-2.06,-35.0,1a
2019-07-12_115931:540,-0.341125,-0.13623,-0.303528,0.014706,-0.011859,-0.018340000000000002,-25.25,-2.5,-35.369999,1a
2019-07-12_115931:560,-0.355377,-0.12048299999999999,-0.310638,0.015103,-0.022876,-0.031675999999999996,-25.25,-2.5,-35.369999,1a
2019-07-12_115931:580,-0.38028,-0.090485,-0.300476,0.015927,-0.028827,-0.043028,-25.25,-2.5,-35.369999,1a
2019-07-12_115931:600,-0.40774499999999997,-0.068115,-0.288269,0.015469,-0.027637000000000002,-0.048612999999999996,-24.559998999999998,-1.0,-35.369999,1a
2019-07-12_115931:620,-0.415375,-0.043213,-0.276062,0.01318,-0.020343,-0.050322000000000006,-24.559998999999998,-1.0,-35.369999,1a
2019-07-12_115931:640,-0.401642,-0.032013,-0.263336,0.009549,-0.010517,-0.048522,-25.0,-2.5,-35.75,1a
2019-07-12_115931:660,-0.386383,-0.022858,-0.24758899999999998,0.005612,-0.0031309999999999997,-0.045012,-25.0,-2.5,-35.75,1a
2019-07-12_115931:680,-0.37011700000000003,-0.022858,-0.24096700000000001,0.0018280000000000002,0.000866,-0.041625,-25.0,-2.5,-35.75,1a
2019-07-12_115931:700,-0.354858,-0.022369,-0.22521999999999998,-0.000889,0.0016600000000000002,-0.039061,-22.75,-2.5,-37.0,1a
2019-07-12_115931:720,-0.3508,-0.021851,-0.224701,-0.002475,-0.000263,-0.036528,-22.75,-2.5,-37.0,1a
2019-07-12_115931:740,-0.36349499999999996,-0.017273,-0.22879000000000002,-0.0032689999999999998,-0.003986,-0.033141000000000004,-24.559998999999998,-3.87,-37.0,1a
2019-07-12_115931:760,-0.36654699999999996,-0.015747,-0.228271,-0.004123,-0.007220999999999999,-0.029204,-24.559998999999998,-3.87,-37.0,1a
2019-07-12_115931:780,-0.38739,-0.011687999999999999,-0.234375,-0.004703,-0.010242,-0.025389,-24.559998999999998,-3.87,-37.0,1a
2019-07-12_115931:800,-0.40368699999999996,-0.009125,-0.243011,-0.006076,-0.012897,-0.021605000000000003,-23.5,-4.68,-36.18,1a
2019-07-12_115931:820,-0.432648,-0.0055850000000000006,-0.25317399999999995,-0.008091,-0.014575,-0.016265,-23.5,-4.68,-36.18,1a
2019-07-12_115931:840,-0.43518100000000004,-0.0055850000000000006,-0.261322,-0.011478,-0.015827,-0.009642,-23.870001000000002,-4.68,-36.18,1a
2019-07-12_115931:860,-0.43518100000000004,-0.007111,-0.261322,-0.014713,-0.014362,-0.005278,-23.870001000000002,-4.68,-36.18,1a
2019-07-12_115931:880,-0.434692,-0.009125,-0.266907,-0.018711000000000002,-0.01305,-0.005461,-23.870001000000002,-4.68,-36.18,1a
2019-07-12_115931:900,-0.418915,-0.008636,-0.270477,-0.022281,-0.010912999999999999,-0.006987,-22.370001000000002,-6.18,-35.75,1a
2019-07-12_115931:920,-0.404175,-0.009125,-0.267914,-0.025791,-0.009448,-0.006987,-22.370001000000002,-6.18,-35.75,1a
2019-07-12_115931:940,-0.387909,-0.0055850000000000006,-0.277069,-0.028598000000000002,-0.009448,-0.007598000000000001,-22.370001000000002,-6.87,-36.18,1a
2019-07-12_115931:960,-0.381317,0.001007,-0.285217,-0.031711,-0.011127,-0.009032,-22.370001000000002,-6.87,-36.18,1a
2019-07-12_115931:980,-0.390961,0.016753999999999998,-0.309601,-0.033817,-0.012988,-0.010648999999999999,-22.370001000000002,-6.87,-36.18,1a
2019-07-12_115932:000,-0.461121,0.030487,-0.315704,-0.036014,-0.014057,-0.012908000000000001,-21.68,-7.25,-35.75,1a
2019-07-12_115932:020,-0.536377,0.057434000000000006,-0.41586300000000004,-0.038761000000000004,-0.019733,-0.013487,-21.68,-7.25,-35.75,1a
2019-07-12_115932:040,-0.6238100000000001,0.067596,-0.364014,-0.040531,-0.016437,-0.008329999999999999,-21.25,-9.5,-35.75,1a
2019-07-12_115932:060,-0.458588,0.082336,-0.41995200000000005,-0.042789,-0.014697,0.001497,-21.25,-9.5,-35.75,1a
2019-07-12_115932:080,-0.402649,0.0849,-0.377747,-0.043674,-0.007129000000000001,0.011384,-21.25,-9.5,-35.75,1a
2019-07-12_115932:100,-0.32132,0.089478,-0.396545,-0.043795999999999995,-0.007801000000000001,0.015290999999999999,-20.559998999999998,-11.37,-35.0,1a
2019-07-12_115932:120,-0.349792,0.082855,-0.381805,-0.042331,-0.00893,0.011354000000000001,-20.559998999999998,-11.37,-35.0,1a
2019-07-12_115932:140,-0.308594,0.088959,-0.336548,-0.038547000000000005,-0.002124,0.005189,-21.0,-12.06,-34.560001,1a
2019-07-12_115932:160,-0.34265100000000004,0.096069,-0.29995700000000003,-0.033847,0.004529,0.004548,-21.0,-12.06,-34.560001,1a
2019-07-12_115932:180,-0.334015,0.100159,-0.319275,-0.029117,0.004529,0.010988,-21.0,-12.06,-34.560001,1a
2019-07-12_115932:200,-0.34063699999999997,0.097107,-0.295898,-0.024326,0.004254,0.0188,-20.25,-12.87,-34.18,1a
2019-07-12_115932:220,-0.361969,0.09201000000000001,-0.29180900000000004,-0.020694,0.000805,0.022004,-20.25,-12.87,-34.18,1a
2019-07-12_115932:240,-0.385376,0.088959,-0.28927600000000003,-0.018313999999999997,-0.002582,0.02292,-21.75,-13.18,-33.369999,1a
2019-07-12_115932:260,-0.38385,0.07775900000000001,-0.28927600000000003,-0.015323,-0.006336,0.025972000000000002,-21.75,-13.18,-33.369999,1a
2019-07-12_115932:280,-0.384338,0.068634,-0.287231,-0.013187,-0.01073,0.028291000000000004,-21.75,-13.18,-33.369999,1a
2019-07-12_115932:300,-0.384338,0.051849,-0.287231,-0.011661,-0.014759,0.029542000000000002,-21.75,-13.56,-32.560001,1a
2019-07-12_115932:320,-0.390442,0.043701,-0.280121,-0.009739,-0.017169,0.031160000000000004,-21.75,-13.56,-32.560001,1a
2019-07-12_115932:340,-0.394012,0.035065,-0.266907,-0.0076939999999999995,-0.017108,0.031862,-21.0,-13.0,-32.18,1a
2019-07-12_115932:360,-0.387909,0.033539,-0.256226,-0.006168,-0.014575,0.030275,-21.0,-13.0,-32.18,1a
2019-07-12_115932:380,-0.38028,0.03302,-0.24758899999999998,-0.0051,-0.012775,0.028810000000000002,-21.0,-13.0,-32.18,1a
2019-07-12_115932:400,-0.379272,0.034058,-0.246063,-0.004001,-0.012714,0.028413,-21.370001000000002,-12.56,-33.0,1a
2019-07-12_115932:420,-0.379272,0.03302,-0.241486,-0.003208,-0.013294,0.027162000000000002,-21.370001000000002,-12.56,-33.0,1a
2019-07-12_115932:440,-0.380798,0.032532,-0.23995999999999998,-0.002597,-0.013904,0.025026,-20.559998999999998,-12.56,-31.870001000000002,1a
2019-07-12_115932:460,-0.381317,0.033539,-0.240479,-0.002079,-0.013843000000000001,0.023712999999999998,-20.559998999999998,-12.56,-31.870001000000002,1a
2019-07-12_115932:480,-0.379791,0.034058,-0.24353000000000002,-0.0016820000000000001,-0.013781999999999999,0.022645,-20.559998999999998,-12.56,-31.870001000000002,1a
2019-07-12_115932:500,-0.378265,0.03302,-0.24706999999999998,-0.001224,-0.013721,0.021181000000000002,-21.0,-11.75,-33.75,1a
2019-07-12_115932:520,-0.381805,0.033539,-0.24963400000000002,-0.000156,-0.013628999999999999,0.018341999999999997,-21.0,-11.75,-33.75,1a
2019-07-12_115932:540,-0.390961,0.034058,-0.255707,0.0017670000000000001,-0.01305,0.015931,-20.559998999999998,-11.06,-33.369999,1a
2019-07-12_115932:560,-0.394012,0.034058,-0.258759,0.004177,-0.012653,0.014406,-20.559998999999998,-11.06,-33.369999,1a
2019-07-12_115932:580,-0.41232299999999994,0.034058,-0.257751,0.007137999999999999,-0.011798000000000001,0.013947999999999999,-20.559998999999998,-11.06,-33.369999,1a
2019-07-12_115932:600,-0.420441,0.035583,-0.270477,0.009884,-0.011309999999999999,0.014497,-20.25,-11.5,-32.560001,1a
2019-07-12_115932:620,-0.401642,0.034058,-0.278595,0.011746,-0.011371,0.017,-20.25,-11.5,-32.560001,1a
2019-07-12_115932:640,-0.384857,0.029968,-0.28775,0.013729,-0.012165,0.019929,-20.25,-10.75,-34.25,1a
2019-07-12_115932:660,-0.40368699999999996,0.009125,-0.298431,0.01492,-0.01012,0.02054,-20.25,-10.75,-34.25,1a
2019-07-12_115932:680,-0.458588,-0.009644,-0.324371,0.015133,-0.011249,0.019258,-20.25,-10.75,-34.25,1a
2019-07-12_115932:700,-0.510437,-0.032013,-0.43670699999999996,0.013668000000000001,-0.020404,0.021608000000000002,-19.059998999999998,-10.37,-33.060001,1a
2019-07-12_115932:720,-0.528748,-0.05285599999999999,-0.41384899999999997,0.013607,-0.023395,0.024446000000000002,-19.059998999999998,-10.37,-33.060001,1a
2019-07-12_115932:740,-0.41943400000000003,-0.09201000000000001,-0.433167,0.013729,-0.025713999999999997,0.018007,-19.5,-8.0,-33.5,1a
2019-07-12_115932:760,-0.402161,-0.100647,-0.452484,0.012448,-0.028095,0.013887,-19.5,-8.0,-33.5,1a
2019-07-12_115932:780,-0.381317,-0.130127,-0.47842399999999996,0.012204000000000001,-0.030383999999999998,0.024446000000000002,-19.5,-8.0,-33.5,1a
2019-07-12_115932:800,-0.385864,-0.153015,-0.46316499999999994,0.011319,-0.025134,0.034059,-18.75,-7.68,-34.25,1a
2019-07-12_115932:820,-0.333496,-0.172333,-0.401642,0.010525,-0.009784000000000001,0.025422,-18.75,-7.68,-34.25,1a
2019-07-12_115932:840,-0.316742,-0.167267,-0.34875500000000004,0.010678,0.011334,0.0029,-17.68,-6.5,-33.5,1a
2019-07-12_115932:860,-0.263855,-0.140808,-0.330475,0.011531999999999999,0.021832,-0.016538999999999998,-17.68,-6.5,-33.5,1a
2019-07-12_115932:880,-0.25012199999999996,-0.129639,-0.30654899999999996,0.01434,0.022503,-0.02426,-17.68,-6.5,-33.5,1a
2019-07-12_115932:900,-0.275543,-0.12200899999999999,-0.288269,0.016444999999999998,0.014996,-0.027708999999999998,-17.25,-6.5,-33.5,1a
2019-07-12_115932:920,-0.308075,-0.113373,-0.302002,0.017787999999999998,0.004497999999999999,-0.029539999999999997,-17.25,-6.5,-33.5,1a
2019-07-12_115932:940,-0.305542,-0.111847,-0.301483,0.019558000000000002,-0.005451,-0.028044,-18.370001000000002,-6.18,-33.869999,1a
2019-07-12_115932:960,-0.308075,-0.10775799999999999,-0.313171,0.021237,-0.014240000000000001,-0.02777,-18.370001000000002,-6.18,-33.869999,1a
2019-07-12_115932:980,-0.318268,-0.100159,-0.326904,0.021694,-0.021411000000000003,-0.033415,-18.370001000000002,-6.18,-33.869999,1a
2019-07-12_115933:000,-0.34875500000000004,-0.083862,-0.34063699999999997,0.021481,-0.027332,-0.041777,-17.68,-6.5,-33.5,1a
2019-07-12_115933:020,-0.385376,-0.069122,-0.341125,0.021878,-0.029254000000000002,-0.047423,-17.68,-6.5,-33.5,1a
2019-07-12_115933:040,-0.40316799999999997,-0.049805,-0.325378,0.021756,-0.023944,-0.052184,-17.25,-5.75,-35.060001,1a
2019-07-12_115933:060,-0.402649,-0.036591000000000005,-0.307587,0.02023,-0.014025999999999999,-0.05569299999999999,-17.25,-5.75,-35.060001,1a
2019-07-12_115933:080,-0.386902,-0.018799,-0.288269,0.018429,-0.00484,-0.054442,-17.25,-5.75,-35.060001,1a
2019-07-12_115933:100,-0.368073,-0.012695,-0.272003,0.016903,0.001446,-0.050322000000000006,-16.18,-5.75,-34.25,1a
2019-07-12_115933:120,-0.338593,-0.006592,-0.25827,0.015438,0.00404,-0.04727,-16.18,-5.75,-34.25,1a
2019-07-12_115933:140,-0.335022,-0.000488,-0.257751,0.013913,0.0020570000000000002,-0.044829,-16.18,-6.5,-35.5,1a
2019-07-12_115933:160,-0.347229,0.005065999999999999,-0.257751,0.013058000000000002,-0.002124,-0.041227999999999994,-16.18,-6.5,-35.5,1a
2019-07-12_115933:180,-0.354858,0.009125,-0.259796,0.011807,-0.0066099999999999996,-0.037656999999999996,-16.18,-6.5,-35.5,1a
2019-07-12_115933:200,-0.37011700000000003,0.019318000000000002,-0.261322,0.009426,-0.009387000000000001,-0.034056,-14.68,-6.18,-34.25,1a
2019-07-12_115933:220,-0.371643,0.021332,-0.26181,0.006222,-0.009662,-0.028745999999999997,-14.68,-6.18,-34.25,1a
2019-07-12_115933:240,-0.386902,0.023895,-0.267914,0.002499,-0.009113,-0.02426,-13.87,-6.87,-34.25,1a
2019-07-12_115933:260,-0.388428,0.029968,-0.28927600000000003,-0.002872,-0.009601,-0.021514,-13.87,-6.87,-34.25,1a
2019-07-12_115933:280,-0.396057,0.026427999999999997,-0.28064,-0.008213,-0.009662,-0.018340000000000002,-13.87,-6.87,-34.25,1a
2019-07-12_115933:300,-0.38028,0.024902,-0.293854,-0.012790000000000001,-0.008990999999999999,-0.0166,-13.56,-6.87,-33.869999,1a
2019-07-12_115933:320,-0.406219,0.023375999999999997,-0.293854,-0.017429,-0.006397,-0.01541,-13.56,-6.87,-33.869999,1a
2019-07-12_115933:340,-0.380798,0.023375999999999997,-0.29284699999999997,-0.021274,-0.001666,-0.012084000000000001,-13.18,-7.0,-34.25,1a
2019-07-12_115933:360,-0.345215,0.031494,-0.303528,-0.024021,0.002118,-0.008329999999999999,-13.18,-7.0,-34.25,1a
2019-07-12_115933:380,-0.389435,0.039642000000000004,-0.32132,-0.026798000000000002,0.000134,-0.005675,-13.18,-7.0,-34.25,1a
2019-07-12_115933:400,-0.528748,0.062012,-0.432648,-0.029056,-0.010272,-0.001738,-13.56,-7.37,-33.5,1a
2019-07-12_115933:420,-0.547058,0.057434000000000006,-0.447388,-0.031252999999999996,-0.028369,0.004274,-13.56,-7.37,-33.5,1a
2019-07-12_115933:440,-0.5424800000000001,0.057434000000000006,-0.437225,-0.030307,-0.039539,0.008790000000000001,-14.25,-8.06,-33.869999,1a
2019-07-12_115933:460,-0.401642,0.07421900000000001,-0.467743,-0.029392,-0.038928,0.008729,-14.25,-8.06,-33.869999,1a
2019-07-12_115933:480,-0.415375,0.101685,-0.488068,-0.026676,-0.033405000000000004,0.006074,-14.25,-8.06,-33.869999,1a
2019-07-12_115933:500,-0.389954,0.111847,-0.460114,-0.024204,-0.018817,0.006196,-11.68,-8.87,-33.060001,1a
2019-07-12_115933:520,-0.355896,0.121002,-0.36349499999999996,-0.020755000000000003,0.004132,0.006654,-11.68,-8.87,-33.060001,1a
2019-07-12_115933:540,-0.356903,0.130127,-0.336548,-0.019169,0.021953999999999998,0.008638,-11.68,-10.37,-34.68,1a
2019-07-12_115933:560,-0.279114,0.146423,-0.327423,-0.019625999999999998,0.027997,0.017549000000000002,-11.68,-10.37,-34.68,1a
2019-07-12_115933:580,-0.264374,0.146912,-0.297913,-0.020541999999999998,0.024548,0.031495,-11.68,-10.37,-34.68,1a
2019-07-12_115933:600,-0.300476,0.128113,-0.28979499999999997,-0.023136,0.016644,0.041231,-11.0,-9.56,-33.060001,1a
2019-07-12_115933:620,-0.328949,0.11438,-0.298431,-0.024875,0.008709999999999999,0.043367,-11.0,-9.56,-33.060001,1a
2019-07-12_115933:640,-0.337067,0.10318,-0.304016,-0.025333,0.00040899999999999997,0.043611000000000004,-12.06,-10.37,-32.68,1a
2019-07-12_115933:660,-0.32995599999999997,0.094055,-0.31012,-0.024692,-0.0076170000000000005,0.044099,-12.06,-10.37,-32.68,1a
2019-07-12_115933:680,-0.319794,0.078796,-0.319275,-0.023929,-0.014422999999999998,0.044832,-12.06,-10.37,-32.68,1a
2019-07-12_115933:700,-0.327911,0.072693,-0.321808,-0.023014,-0.019428,0.047395,-12.06,-11.06,-32.25,1a
2019-07-12_115933:720,-0.37316900000000003,0.06149299999999999,-0.329437,-0.022007,-0.021259,0.051973,-12.06,-11.06,-32.25,1a
2019-07-12_115933:740,-0.381805,0.057434000000000006,-0.328949,-0.020755000000000003,-0.017414,0.05450599999999999,-12.75,-10.37,-32.68,1a
2019-07-12_115933:760,-0.409271,0.044219999999999995,-0.311646,-0.020023,-0.011035,0.05352899999999999,-12.75,-10.37,-32.68,1a
2019-07-12_115933:780,-0.417389,0.042175,-0.303528,-0.019015999999999998,-0.00307,0.05291900000000001,-12.75,-10.37,-32.68,1a
2019-07-12_115933:800,-0.406738,0.040161,-0.288269,-0.018039,0.005566,0.052522000000000006,-12.06,-11.06,-32.25,1a
2019-07-12_115933:820,-0.375214,0.036072,-0.262848,-0.017978,0.011029,0.050722,-12.06,-11.06,-32.25,1a
2019-07-12_115933:840,-0.35436999999999996,0.034058,-0.254211,-0.018558,0.013684,0.048463,-13.56,-10.75,-32.25,1a
2019-07-12_115933:860,-0.325378,0.032532,-0.23590100000000003,-0.018619,0.013409,0.047333999999999994,-13.56,-10.75,-32.25,1a
2019-07-12_115933:880,-0.321808,0.022369,-0.237427,-0.018619,0.009411,0.044893,-13.56,-10.75,-32.25,1a
2019-07-12_115933:900,-0.322845,0.01828,-0.238434,-0.017978,0.004925,0.040773000000000004,-12.37,-10.0,-31.870001000000002,1a
2019-07-12_115933:920,-0.34674099999999997,0.012695,-0.24758899999999998,-0.016239,-0.00072,0.036409,-12.37,-10.0,-31.870001000000002,1a
2019-07-12_115933:940,-0.352325,0.007599,-0.249115,-0.013340000000000001,-0.004901,0.031800999999999996,-14.68,-11.5,-31.059998999999998,1a
2019-07-12_115933:960,-0.41485600000000006,0.0030210000000000002,-0.2659,-0.010471,-0.007281999999999999,0.028016000000000003,-14.68,-11.5,-31.059998999999998,1a
2019-07-12_115933:980,-0.420441,0.0025329999999999997,-0.271484,-0.007755,-0.006854000000000001,0.027162000000000002,-14.68,-11.5,-31.059998999999998,1a
2019-07-12_115934:000,-0.417908,-0.001495,-0.275543,-0.0052829999999999995,-0.0030399999999999997,0.027162000000000002,-15.06,-8.87,-30.0,1a
2019-07-12_115934:020,-0.402649,-0.0055850000000000006,-0.28064,-0.003483,0.000134,0.025238999999999998,-15.06,-8.87,-30.0,1a
2019-07-12_115934:040,-0.414337,-0.035583,-0.311646,-0.001194,-0.000537,0.021516,-15.18,-9.56,-31.5,1a
2019-07-12_115934:060,-0.48349,-0.050323,-0.322845,0.00079,-0.010791,0.019929,-15.18,-9.56,-31.5,1a
2019-07-12_115934:080,-0.556213,-0.079803,-0.45196499999999995,0.0028350000000000003,-0.021686,0.024782,-15.18,-9.56,-31.5,1a
2019-07-12_115934:100,-0.590759,-0.086914,-0.41232299999999994,0.008694,-0.028461,0.020997,-14.75,-9.56,-30.25,1a
2019-07-12_115934:120,-0.444855,-0.12149000000000001,-0.44995100000000005,0.013913,-0.030292000000000003,0.009858,-14.75,-9.56,-30.25,1a
2019-07-12_115934:140,-0.405212,-0.119476,-0.454529,0.020047,-0.026599,0.007661,-13.68,-8.37,-31.059998999999998,1a
2019-07-12_115934:160,-0.363007,-0.12048299999999999,-0.44384799999999996,0.024197,-0.019336000000000002,0.020143,-13.68,-8.37,-31.059998999999998,1a
2019-07-12_115934:180,-0.366058,-0.12506099999999998,-0.434174,0.027127,-0.002124,0.028169,-13.68,-8.37,-31.059998999999998,1a
2019-07-12_115934:200,-0.335022,-0.14032,-0.375214,0.027583999999999997,0.020459,0.019746,-12.87,-7.68,-31.5,1a
2019-07-12_115934:220,-0.315216,-0.138275,-0.326904,0.027279,0.033642,0.007265000000000001,-12.87,-7.68,-31.5,1a
2019-07-12_115934:240,-0.260803,-0.127594,-0.31012,0.027066000000000003,0.035626,0.001893,-12.5,-6.5,-31.059998999999998,1a
2019-07-12_115934:260,-0.23690799999999998,-0.134705,-0.29284699999999997,0.02673,0.030072,-0.003386,-12.5,-6.5,-31.059998999999998,1a
2019-07-12_115934:280,-0.24096700000000001,-0.148956,-0.274017,0.02554,0.018933000000000002,-0.010832,-12.5,-6.5,-31.059998999999998,1a
2019-07-12_115934:300,-0.286224,-0.154541,-0.281647,0.026211,0.007367,-0.015227000000000001,-13.25,-5.75,-31.5,1a
2019-07-12_115934:320,-0.333496,-0.160126,-0.29538000000000003,0.028652999999999998,-0.002246,-0.020659,-13.25,-5.75,-31.5,1a
2019-07-12_115934:340,-0.34368899999999997,-0.157074,-0.29284699999999997,0.031185,-0.012165,-0.033354,-14.0,-4.68,-31.5,1a
2019-07-12_115934:360,-0.35436999999999996,-0.137756,-0.304016,0.033566000000000006,-0.020801,-0.045348,-14.0,-4.68,-31.5,1a
2019-07-12_115934:380,-0.355377,-0.11691300000000002,-0.309113,0.035641,-0.025806,-0.049589999999999995,-14.0,-4.68,-31.5,1a
2019-07-12_115934:400,-0.369598,-0.09454299999999999,-0.305054,0.035213999999999995,-0.026507999999999997,-0.050597,-13.25,-4.56,-31.5,1a
2019-07-12_115934:420,-0.384857,-0.080322,-0.29943800000000004,0.031764999999999995,-0.022022,-0.05197,-13.25,-4.56,-31.5,1a
2019-07-12_115934:440,-0.391479,-0.063538,-0.288269,0.027462,-0.014819999999999998,-0.053252,-13.25,-3.87,-33.060001,1a
2019-07-12_115934:460,-0.383331,-0.05996699999999999,-0.279633,0.023068,-0.008655,-0.055358000000000004,-13.25,-3.87,-33.060001,1a
2019-07-12_115934:480,-0.37316900000000003,-0.051330999999999995,-0.272491,0.019436000000000002,-0.004229999999999999,-0.058562,-13.25,-3.87,-33.060001,1a
2019-07-12_115934:500,-0.361481,-0.044739,-0.26181,0.017178,-0.0009339999999999999,-0.058776,-12.5,-3.56,-32.68,1a
2019-07-12_115934:520,-0.34674099999999997,-0.038116000000000004,-0.246063,0.016049,0.00105,-0.056914,-12.5,-3.56,-32.68,1a
2019-07-12_115934:540,-0.34875500000000004,-0.036072,-0.242004,0.015652000000000003,0.000989,-0.055235,-11.06,-3.56,-32.68,1a
2019-07-12_115934:560,-0.352325,-0.025908999999999998,-0.24658200000000002,0.015316,-8e-05,-0.052976999999999996,-11.06,-3.56,-32.68,1a
2019-07-12_115934:580,-0.35638400000000003,-0.017792,-0.24658200000000002,0.014706,-0.00246,-0.049071,-11.06,-3.56,-32.68,1a
2019-07-12_115934:600,-0.376221,-0.005065999999999999,-0.257233,0.012813999999999999,-0.004596,-0.043089999999999996,-11.75,-3.56,-32.68,1a
2019-07-12_115934:620,-0.41333000000000003,0.001495,-0.261322,0.009945,-0.006275,-0.036406,-11.75,-3.56,-32.68,1a
2019-07-12_115934:640,-0.44384799999999996,0.010162000000000001,-0.276062,0.0062829999999999995,-0.0021850000000000003,-0.030669,-11.75,-3.18,-32.68,1a
2019-07-12_115934:660,-0.484497,0.017792,-0.275055,0.000241,0.003583,-0.027677999999999998,-11.75,-3.18,-32.68,1a
2019-07-12_115934:680,-0.501282,0.027435,-0.285706,-0.006229,0.01286,-0.024169,-11.75,-3.18,-32.68,1a
2019-07-12_115934:700,-0.478912,0.031494,-0.278595,-0.012729,0.023755000000000002,-0.018614,-10.0,-3.56,-32.68,1a
2019-07-12_115934:720,-0.41995200000000005,0.033539,-0.262848,-0.019169,0.029278,-0.013762,-10.0,-3.56,-32.68,1a
2019-07-12_115934:740,-0.393494,0.039124,-0.267914,-0.022556,0.028607,-0.011382,-11.75,-4.37,-33.869999,1a
2019-07-12_115934:760,-0.386902,0.055389,-0.276062,-0.032779,0.020703,-0.004454,-11.75,-4.37,-33.869999,1a
2019-07-12_115934:780,-0.486023,0.065582,-0.263855,-0.041416,0.010296,-0.002135,-11.75,-4.37,-33.869999,1a
2019-07-12_115934:800,-0.520111,0.070648,-0.330475,-0.048893,0.000866,0.001497,-11.75,-4.75,-31.75,1a
2019-07-12_115934:820,-0.60907,0.069641,-0.29486100000000004,-0.054416,-0.009387000000000001,0.0029620000000000002,-11.75,-4.75,-31.75,1a
2019-07-12_115934:840,-0.503845,0.073212,-0.348267,-0.059664999999999996,-0.014240000000000001,0.007051000000000001,-12.5,-6.25,-32.18,1a
2019-07-12_115934:860,-0.391968,0.072174,-0.319275,-0.059848,-0.014057,0.009981,-12.5,-6.25,-32.18,1a
2019-07-12_115934:880,-0.398071,0.068634,-0.316223,-0.058933000000000006,-0.015155000000000002,0.005861,-12.5,-6.25,-32.18,1a
2019-07-12_115934:900,-0.384338,0.071686,-0.338593,-0.057254,-0.012317,0.002229,-12.87,-7.37,-33.369999,1a
2019-07-12_115934:920,-0.325378,0.081329,-0.280121,-0.048038,0.005719,0.000398,-12.87,-7.37,-33.369999,1a
2019-07-12_115934:940,-0.340118,0.091003,-0.24353000000000002,-0.044864,0.010876,0.002687,-12.5,-9.56,-31.75,1a
2019-07-12_115934:960,-0.338074,0.102173,-0.267426,-0.035434,0.011822,0.011903,-12.5,-9.56,-31.75,1a
2019-07-12_115934:980,-0.324371,0.103699,-0.263855,-0.029056,0.005963,0.0141,-12.5,-9.56,-31.75,1a
2019-07-12_115935:000,-0.368073,0.104706,-0.259796,-0.022678,-0.001392,0.012758,-11.75,-10.75,-30.559998999999998,1a
2019-07-12_115935:020,-0.40063499999999996,0.108795,-0.263855,-0.015781,-0.006488,0.011445,-11.75,-10.75,-30.559998999999998,1a
2019-07-12_115935:040,-0.42453,0.11233499999999999,-0.268433,-0.008945,-0.011646,0.012239,-12.87,-10.0,-30.559998999999998,1a
2019-07-12_115935:060,-0.410278,0.11386099999999999,-0.27301,-0.004062,-0.016956,0.016267,-12.87,-10.0,-30.559998999999998,1a
2019-07-12_115935:080,-0.389435,0.10928299999999999,-0.277588,-0.001224,-0.023119999999999998,0.025238999999999998,-12.87,-10.0,-30.559998999999998,1a
2019-07-12_115935:100,-0.411285,0.10116599999999999,-0.282166,-0.000339,-0.025256999999999998,0.030945999999999998,-13.25,-11.5,-31.0,1a
2019-07-12_115935:120,-0.430634,0.081329,-0.275055,0.002896,-0.023119999999999998,0.042817,-13.25,-11.5,-31.0,1a
2019-07-12_115935:140,-0.43518100000000004,0.071686,-0.263336,0.003689,-0.020281999999999998,0.043213999999999995,-11.75,-10.37,-31.75,1a
2019-07-12_115935:160,-0.429596,0.066071,-0.248108,0.005307,-0.011035,0.043886,-11.75,-10.37,-31.75,1a
2019-07-12_115935:180,-0.411285,0.06253099999999999,-0.23233,0.0055509999999999995,-0.006548999999999999,0.045747,-11.75,-10.37,-31.75,1a
2019-07-12_115935:200,-0.407227,0.056915,-0.223694,0.0038420000000000004,-0.004321,0.046662999999999996,-12.5,-9.56,-31.370001000000002,1a
2019-07-12_115935:220,-0.394531,0.049316000000000006,-0.217072,0.0018579999999999998,-0.002582,0.04648,-12.5,-9.56,-31.370001000000002,1a
2019-07-12_115935:240,-0.385864,0.041168,-0.20742800000000003,0.001187,-0.001911,0.045961,-12.5,-8.5,-31.370001000000002,1a
2019-07-12_115935:260,-0.38385,0.033539,-0.20486500000000002,-0.00159,-0.002124,0.039705000000000004,-12.5,-8.5,-31.370001000000002,1a
2019-07-12_115935:280,-0.384857,0.033539,-0.20538299999999998,-0.002872,-0.00365,0.035798,-12.5,-8.5,-31.370001000000002,1a
2019-07-12_115935:300,-0.382324,0.025421,-0.203369,-0.003208,-0.004961999999999999,0.034333999999999996,-12.87,-8.87,-32.560001,1a
2019-07-12_115935:320,-0.394012,0.018799,-0.20285,-0.002659,-0.00893,0.027772,-12.87,-8.87,-32.560001,1a
2019-07-12_115935:340,-0.426544,0.015228,-0.21554600000000002,-0.0022010000000000003,-0.010669,0.0253,-12.87,-7.37,-33.0,1a
2019-07-12_115935:360,-0.418915,0.014221000000000001,-0.220123,0.00079,-0.015491,0.022371000000000002,-12.87,-7.37,-33.0,1a
2019-07-12_115935:380,-0.417908,0.016753999999999998,-0.23233,0.002499,-0.020496,0.022798,-12.87,-7.37,-33.0,1a
2019-07-12_115935:400,-0.431122,0.009644,-0.23590100000000003,0.003445,-0.022418,0.023134000000000002,-12.18,-8.06,-32.18,1a
2019-07-12_115935:420,-0.433655,0.014221000000000001,-0.251648,0.005703,-0.022876,0.022981,-12.18,-8.06,-32.18,1a
2019-07-12_115935:440,-0.43774399999999997,0.016266,-0.250641,0.0061,-0.020404,0.023897,-12.18,-7.75,-32.18,1a
2019-07-12_115935:460,-0.43011499999999997,0.012177,-0.26944,0.004757,-0.014240000000000001,0.029939,-12.18,-7.75,-32.18,1a
2019-07-12_115935:480,-0.42401099999999997,0.0,-0.28418000000000004,0.003445,-0.010456,0.031495,-12.18,-7.75,-32.18,1a
2019-07-12_115935:500,-0.551636,-0.034058,-0.294373,0.00259,-0.009845,0.031007,-12.18,-7.37,-33.75,1a
2019-07-12_115935:520,-0.565338,-0.028961,-0.383331,0.000302,-0.017841,0.038239999999999996,-12.18,-7.37,-33.75,1a
2019-07-12_115935:540,-0.629425,-0.057953,-0.34875500000000004,0.00137,-0.016437,0.039583,-12.5,-6.25,-33.369999,1a
2019-07-12_115935:560,-0.515015,-0.065063,-0.396057,0.00079,-0.021137,0.031465,-12.5,-6.25,-33.369999,1a
2019-07-12_115935:580,-0.41333000000000003,-0.067108,-0.34063699999999997,0.000851,-0.016162,0.023897,-12.5,-6.25,-33.369999,1a
2019-07-12_115935:600,-0.397583,-0.053375,-0.350281,-0.001011,-0.015552000000000002,0.026887,-11.37,-5.5,-34.18,1a
2019-07-12_115935:620,-0.36044299999999996,-0.056915,-0.338074,-0.004062,-0.004047,0.050722,-11.37,-5.5,-34.18,1a
2019-07-12_115935:640,-0.320801,-0.063538,-0.31723,-0.0067480000000000005,0.000653,0.052644,-11.37,-5.5,-34.18,1a
2019-07-12_115935:660,-0.272491,-0.063019,-0.277588,-0.014988,0.014325,0.037904,-11.06,-4.75,-33.369999,1a
2019-07-12_115935:680,-0.277069,-0.058960000000000005,-0.257751,-0.020419999999999997,0.019055000000000002,0.029024,-11.06,-4.75,-33.369999,1a
2019-07-12_115935:700,-0.277069,-0.05438200000000001,-0.267914,-0.022953,0.018323,0.027955,-11.75,-5.06,-35.0,1a
2019-07-12_115935:720,-0.274536,-0.063019,-0.274536,-0.029636000000000003,0.007031,0.030427,-11.75,-5.06,-35.0,1a
2019-07-12_115935:740,-0.298431,-0.082336,-0.290283,-0.032047000000000006,0.001477,0.030275,-11.75,-5.06,-35.0,1a
2019-07-12_115935:760,-0.33197,-0.083374,-0.307068,-0.037693,-0.015033000000000001,0.036409,-13.25,-5.06,-33.75,1a
2019-07-12_115935:780,-0.36554000000000003,-0.08743300000000001,-0.340118,-0.038761000000000004,-0.019611,0.040833999999999995,-13.25,-5.06,-33.75,1a
2019-07-12_115935:800,-0.396057,-0.089478,-0.353333,-0.04047,-0.025318,0.044008,-13.25,-5.87,-34.560001,1a
2019-07-12_115935:820,-0.41943400000000003,-0.077271,-0.37265,-0.042331,-0.027332,0.036134,-13.25,-5.87,-34.560001,1a
2019-07-12_115935:840,-0.414337,-0.054901,-0.368591,-0.043399,-0.02486,0.028352,-12.18,-5.87,-34.560001,1a
2019-07-12_115935:860,-0.40368699999999996,-0.021851,-0.350281,-0.045322,-0.018695,0.028810000000000002,-12.18,-5.87,-34.560001,1a
2019-07-12_115935:880,-0.390442,-0.008636,-0.335541,-0.053623000000000004,-0.004993,0.03766,-12.18,-5.87,-34.560001,1a
2019-07-12_115935:900,-0.374695,0.001495,-0.32132,-0.057468,-0.00047599999999999997,0.040712,-12.5,-7.25,-34.560001,1a
2019-07-12_115935:920,-0.368073,0.0030210000000000002,-0.314697,-0.069492,0.009442,0.049745,-12.5,-7.25,-34.560001,1a
2019-07-12_115935:940,-0.358917,-0.0030210000000000002,-0.309601,-0.073337,0.011365,0.052125,-12.5,-7.25,-34.560001,1a
2019-07-12_115935:960,-0.354858,-0.011687999999999999,-0.304016,-0.083866,0.013623,0.055299,-12.5,-9.18,-34.18,1a
2019-07-12_115935:980,-0.35131799999999996,-0.026427999999999997,-0.30249000000000004,-0.08646000000000001,0.013012000000000001,0.056305999999999995,-12.5,-9.18,-34.18,1a
2019-07-12_115936:000,-0.369598,-0.03302,-0.302002,-0.089786,0.010876,0.059938,-14.0,-11.37,-33.369999,1a
2019-07-12_115936:020,-0.375702,-0.045226999999999996,-0.307068,-0.091587,0.008556999999999999,0.064943,-14.0,-11.37,-33.369999,1a
2019-07-12_115936:040,-0.382324,-0.047272,-0.308075,-0.092502,0.005383,0.068727,-14.75,-12.5,-31.0,1a
2019-07-12_115936:060,-0.38739,-0.049316000000000006,-0.311646,-0.094486,0.002514,0.072297,-14.75,-12.5,-31.0,1a
2019-07-12_115936:080,-0.383331,-0.048279,-0.313171,-0.098606,0.000531,0.076295,-14.75,-12.5,-31.0,1a
2019-07-12_115936:100,-0.35739099999999996,-0.049316000000000006,-0.316742,-0.100284,7.3e-05,0.075807,-16.68,-14.68,-29.870001000000002,1a
2019-07-12_115936:120,-0.352325,-0.049316000000000006,-0.310638,-0.10510599999999999,0.000348,0.067506,-16.68,-14.68,-29.870001000000002,1a
2019-07-12_115936:140,-0.35739099999999996,-0.043701,-0.322327,-0.10690699999999999,0.00040899999999999997,0.065278,-16.68,-14.68,-29.870001000000002,1a
2019-07-12_115936:160,-0.355377,-0.042694,-0.33605999999999997,-0.11108699999999999,0.000134,0.066591,-18.0,-15.87,-28.25,1a
2019-07-12_115936:180,-0.355896,-0.052338,-0.333496,-0.11221700000000001,0.000714,0.066987,-18.0,-15.87,-28.25,1a
2019-07-12_115936:200,-0.35180700000000004,-0.050842,-0.337067,-0.114292,0.001843,0.066194,-18.370001000000002,-18.059998999999998,-27.5,1a
2019-07-12_115936:220,-0.34570300000000004,-0.049316000000000006,-0.335541,-0.114628,0.003796,0.06903200000000001,-18.370001000000002,-18.059998999999998,-27.5,1a
2019-07-12_115936:240,-0.334015,-0.049316000000000006,-0.340118,-0.114628,0.005169,0.074434,-18.370001000000002,-18.059998999999998,-27.5,1a
2019-07-12_115936:260,-0.34265100000000004,-0.056427,-0.3508,-0.11426099999999999,0.004193,0.078523,-20.25,-19.559998999999998,-25.559998999999998,1a
2019-07-12_115936:280,-0.391968,-0.073212,-0.360962,-0.114292,0.000256,0.081575,-20.25,-19.559998999999998,-25.559998999999998,1a
2019-07-12_115936:300,-0.43823199999999995,-0.089478,-0.43670699999999996,-0.114872,-0.011066,0.089876,-21.370001000000002,-20.370001000000002,-22.75,1a
2019-07-12_115936:320,-0.48043800000000003,-0.086426,-0.402649,-0.114597,-0.013628999999999999,0.097139,-21.370001000000002,-20.370001000000002,-22.75,1a
2019-07-12_115936:340,-0.411285,-0.095581,-0.390442,-0.116459,-0.01192,0.095064,-21.370001000000002,-20.370001000000002,-22.75,1a
2019-07-12_115936:360,-0.394531,-0.086914,-0.374695,-0.116398,-0.007006999999999999,0.087312,-23.559998999999998,-21.059998999999998,-20.5,1a
2019-07-12_115936:380,-0.374176,-0.07016,-0.366058,-0.114872,-0.002124,0.076997,-23.559998999999998,-21.059998999999998,-20.5,1a
2019-07-12_115936:400,-0.35131799999999996,-0.05438200000000001,-0.353851,-0.11395599999999999,0.001141,0.063753,-25.370001000000002,-21.870001000000002,-18.059998999999998,1a
2019-07-12_115936:420,-0.325378,0.000488,-0.308594,-0.110508,0.00639,0.043611000000000004,-25.370001000000002,-21.870001000000002,-18.059998999999998,1a
2019-07-12_115936:440,-0.325378,0.000488,-0.308594,-0.110508,0.00639,0.043611000000000004,-25.370001000000002,-21.870001000000002,-18.059998999999998,1a
2019-07-12_115936:460,-0.301483,0.039642000000000004,-0.28979499999999997,-0.10815799999999999,0.010541,0.040559,-26.5,-20.75,-15.25,1a
2019-07-12_115936:480,-0.29284699999999997,0.07421900000000001,-0.283173,-0.105503,0.013347999999999999,0.037599,-26.5,-20.75,-15.25,1a
2019-07-12_115936:500,-0.29895,0.12048299999999999,-0.291321,-0.10373299999999999,0.012402,0.034517,-26.75,-21.18,-14.87,1a
2019-07-12_115936:520,-0.32843,0.151001,-0.29895,-0.101993,0.007886,0.033264999999999996,-26.75,-21.18,-14.87,1a
2019-07-12_115936:540,-0.361969,0.187073,-0.323853,-0.101078,-0.000324,0.03235,-26.75,-21.18,-14.87,1a
2019-07-12_115936:560,-0.36248800000000003,0.208954,-0.338074,-0.10052799999999999,-0.010242,0.030488,-29.059998999999998,-22.370001000000002,-12.56,1a
2019-07-12_115936:580,-0.37011700000000003,0.23233,-0.34875500000000004,-0.09979600000000001,-0.020281999999999998,0.031343,-29.059998999999998,-22.370001000000002,-12.56,1a
2019-07-12_115936:600,-0.382324,0.23895300000000003,-0.35791,-0.098209,-0.02779,0.038698,-29.5,-21.5,-9.37,1a
2019-07-12_115936:620,-0.391968,0.226227,-0.363007,-0.094761,-0.03075,0.052125,-29.5,-21.5,-9.37,1a
2019-07-12_115936:640,-0.385376,0.212006,-0.365021,-0.089786,-0.031879000000000005,0.067109,-29.5,-21.5,-9.37,1a
2019-07-12_115936:660,-0.37316900000000003,0.182007,-0.34570300000000004,-0.084476,-0.029987,0.082307,-31.0,-22.0,-7.37,1a
2019-07-12_115936:680,-0.353851,0.153015,-0.32843,-0.07937999999999999,-0.026111000000000002,0.09613200000000001,-31.0,-22.0,-7.37,1a
2019-07-12_115936:700,-0.34317,0.141846,-0.322327,-0.075443,-0.022387999999999998,0.103547,-31.0,-20.870001000000002,-6.56,1a
2019-07-12_115936:720,-0.328949,0.133698,-0.317749,-0.073795,-0.020954,0.10376099999999999,-31.0,-20.870001000000002,-6.56,1a
2019-07-12_115936:740,-0.312653,0.128113,-0.317749,-0.073581,-0.021289,0.10132000000000001,-31.0,-20.870001000000002,-6.56,1a
2019-07-12_115936:760,-0.325897,0.11386099999999999,-0.327423,-0.073978,-0.023334,0.09857300000000001,-32.75,-18.559998999999998,-7.0,1a
2019-07-12_115936:780,-0.334534,0.107269,-0.32995599999999997,-0.074375,-0.024402,0.095003,-32.75,-18.559998999999998,-7.0,1a
2019-07-12_115936:800,-0.33197,0.095062,-0.33197,-0.073978,-0.023334,0.0907,-34.25,-15.25,-5.75,1a
2019-07-12_115936:820,-0.327423,0.086914,-0.333496,-0.071811,-0.021655,0.086091,-34.25,-15.25,-5.75,1a
2019-07-12_115936:840,-0.331482,0.07775900000000001,-0.338593,-0.068485,-0.020343,0.08279600000000001,-34.25,-15.25,-5.75,1a
2019-07-12_115936:860,-0.33758499999999997,0.071167,-0.342163,-0.06345,-0.020862000000000002,0.07974400000000001,-36.18,-13.06,-5.37,1a
2019-07-12_115936:880,-0.347229,0.068634,-0.341125,-0.057346,-0.02135,0.075624,-36.18,-13.06,-5.37,1a
