timestamp,AccX,AccY,AccZ,GyroX,GyroY,GyroZ,MagX,MagY,MagZ,Activity
2019-07-12_102200:420,-0.46417200000000003,0.103699,-0.224701,-0.044925,-0.022663,-0.001952,-40.18,4.18,5.18,1a
2019-07-12_102200:440,-0.389954,0.105225,-0.22164899999999998,-0.045383,-0.023150999999999998,-0.004058,-40.18,4.18,5.18,1a
2019-07-12_102200:460,-0.402649,0.11795,-0.182007,-0.044925,-0.017627,-0.012419,-41.369999,5.0,5.18,1a
2019-07-12_102200:480,-0.46823100000000006,0.147949,-0.159637,-0.04517,-0.00307,-0.016875,-41.369999,5.0,5.18,1a
2019-07-12_102200:500,-0.448425,0.157593,-0.16217,-0.045963,0.007092,-0.005065,-41.68,3.06,3.18,1a
2019-07-12_102200:520,-0.46316499999999994,0.142334,-0.133179,-0.046695,0.013409,0.012971000000000002,-41.68,3.06,3.18,1a
2019-07-12_102200:540,-0.47433500000000006,0.126068,-0.12200899999999999,-0.047519,0.015668,0.028627,-41.68,3.06,3.18,1a
2019-07-12_102200:560,-0.46469099999999997,0.099121,-0.10675,-0.046512,0.015790000000000002,0.032472,-41.68,4.56,3.68,1a
2019-07-12_102200:580,-0.434692,0.078278,-0.099121,-0.041019,0.011761,0.043489,-41.68,4.56,3.68,1a
2019-07-12_102200:600,-0.417389,0.050842,-0.107269,-0.038822,0.007763,0.045808,-41.68,4.56,3.68,1a
2019-07-12_102200:620,-0.411804,0.035583,-0.11386099999999999,-0.03284,-0.010394,0.04947,-41.369999,5.0,4.5,1a
2019-07-12_102200:640,-0.42758199999999996,0.021332,-0.11538699999999999,-0.030521,-0.016895,0.049928,-41.369999,5.0,4.5,1a
2019-07-12_102200:660,-0.457581,0.018799,-0.112854,-0.024662,-0.029437,0.046541,-41.68,7.56,4.75,1a
2019-07-12_102200:680,-0.481476,0.020325,-0.102692,-0.022678,-0.028582999999999997,0.042634,-41.68,7.56,4.75,1a
2019-07-12_102200:700,-0.482483,0.024384,-0.100159,-0.021884999999999998,-0.023212,0.042299,-41.68,7.56,4.75,1a
2019-07-12_102200:720,-0.47433500000000006,0.021332,-0.097107,-0.023197,-0.012592,0.044618,-41.68,8.68,4.5,1a
2019-07-12_102200:740,-0.45196499999999995,0.015747,-0.09353600000000001,-0.024326,-0.009326000000000001,0.044099,-41.68,8.68,4.5,1a
2019-07-12_102200:760,-0.44027700000000003,0.005065999999999999,-0.084381,-0.025851999999999997,-0.004108,0.042177,-40.560001,10.5,2.75,1a
2019-07-12_102200:780,-0.448425,-0.007111,-0.078796,-0.026462,-0.000537,0.039705000000000004,-40.560001,10.5,2.75,1a
2019-07-12_102200:800,-0.44433599999999995,-0.021332,-0.07421900000000001,-0.024936,0.00105,0.036927999999999996,-40.560001,10.5,2.75,1a
2019-07-12_102200:820,-0.44027700000000003,-0.028961,-0.07016,-0.021700999999999998,0.0007440000000000001,0.032197,-40.18,12.75,2.0,1a
2019-07-12_102200:840,-0.437225,-0.031006,-0.07016,-0.017643,-0.002002,0.027162000000000002,-40.18,12.75,2.0,1a
2019-07-12_102200:860,-0.453491,-0.032532,-0.073212,-0.013065,-0.005817,0.024721,-41.369999,13.5,1.25,1a
2019-07-12_102200:880,-0.506897,-0.03302,-0.074738,-0.0067480000000000005,-0.010851999999999999,0.026704000000000002,-41.369999,13.5,1.25,1a
2019-07-12_102200:900,-0.5048520000000001,-0.033539,-0.083374,-0.004764,-0.012103000000000001,0.028413,-41.369999,13.5,1.25,1a
2019-07-12_102200:920,-0.503845,-0.039124,-0.084381,-0.0013460000000000002,-0.012531,0.028839999999999998,-41.68,14.25,1.37,1a
2019-07-12_102200:940,-0.51297,-0.037108999999999996,-0.084381,-0.000217,-0.009662,0.026491000000000004,-41.68,14.25,1.37,1a
2019-07-12_102200:960,-0.5048520000000001,-0.05438200000000001,-0.101685,-0.000675,-0.008136,0.025758,-40.560001,15.75,1.75,1a
2019-07-12_102200:980,-0.640076,-0.087952,-0.078278,0.001187,-0.006336,0.024782,-40.560001,15.75,1.75,1a
2019-07-12_102201:000,-0.627899,-0.11538699999999999,-0.185547,0.0028350000000000003,-0.013172,0.025636000000000003,-40.560001,15.75,1.75,1a
2019-07-12_102201:020,-0.695496,-0.151001,-0.128601,0.009396,-0.014118,0.021119,-40.18,16.5,1.75,1a
2019-07-12_102201:040,-0.588745,-0.157074,-0.201324,0.015469,-0.026172000000000004,0.012758,-40.18,16.5,1.75,1a
2019-07-12_102201:060,-0.5134890000000001,-0.159119,-0.213013,0.022609999999999998,-0.032825,0.007722,-40.560001,17.18,1.75,1a
2019-07-12_102201:080,-0.432159,-0.155548,-0.23233,0.027583999999999997,-0.037342,0.007997,-40.560001,17.18,1.75,1a
2019-07-12_102201:100,-0.42605600000000005,-0.157074,-0.22927899999999998,0.031063,-0.030628,0.008638,-40.560001,17.18,1.75,1a
2019-07-12_102201:120,-0.401123,-0.154541,-0.208954,0.033627,-0.016345,0.004182,-41.369999,17.18,1.37,1a
2019-07-12_102201:140,-0.402161,-0.147949,-0.187073,0.035213999999999995,-0.00014099999999999998,-0.003996,-41.369999,17.18,1.37,1a
2019-07-12_102201:160,-0.417389,-0.135223,-0.164703,0.035153,0.01289,-0.009093,-41.0,16.870001000000002,1.75,1a
2019-07-12_102201:180,-0.41384899999999997,-0.130127,-0.15506,0.03497,0.018047999999999998,-0.007262,-41.0,16.870001000000002,1.75,1a
2019-07-12_102201:200,-0.411804,-0.138275,-0.139282,0.034359,0.016980000000000002,-0.0034170000000000003,-41.0,16.870001000000002,1.75,1a
2019-07-12_102201:220,-0.433655,-0.145905,-0.130127,0.033444,0.011883,-0.002928,-41.0,16.5,2.56,1a
2019-07-12_102201:240,-0.462128,-0.149963,-0.12506099999999998,0.032498,0.005841,-0.003539,-41.0,16.5,2.56,1a
2019-07-12_102201:260,-0.46417200000000003,-0.150482,-0.118958,0.032162,-0.000781,-0.004393,-41.68,16.5,2.87,1a
2019-07-12_102201:280,-0.460114,-0.142334,-0.11843900000000002,0.031307999999999996,-0.008319,-0.009459,-41.68,16.5,2.87,1a
2019-07-12_102201:300,-0.455017,-0.130127,-0.12149000000000001,0.029324,-0.016040000000000002,-0.017211,-41.68,16.5,2.87,1a
2019-07-12_102201:320,-0.451477,-0.108276,-0.11795,0.026211,-0.02193,-0.023924,-41.369999,15.0,4.87,1a
2019-07-12_102201:340,-0.45907600000000004,-0.097595,-0.11233499999999999,0.022091,-0.022997999999999998,-0.028838,-41.369999,15.0,4.87,1a
2019-07-12_102201:360,-0.46670500000000004,-0.083374,-0.107269,0.0173,-0.019,-0.032286,-42.869999,15.37,3.75,1a
2019-07-12_102201:380,-0.46417200000000003,-0.076263,-0.098633,0.012875,-0.012897,-0.035063,-42.869999,15.37,3.75,1a
2019-07-12_102201:400,-0.44232200000000005,-0.069641,-0.090485,0.009823,-0.007343000000000001,-0.036711,-42.869999,15.37,3.75,1a
2019-07-12_102201:420,-0.425018,-0.063538,-0.08743300000000001,0.008023,-0.004383,-0.037656999999999996,-44.0,13.37,3.75,1a
2019-07-12_102201:440,-0.40774499999999997,-0.051849,-0.08743300000000001,0.006619,-0.004444,-0.037505000000000004,-44.0,13.37,3.75,1a
2019-07-12_102201:460,-0.406738,-0.044219999999999995,-0.086914,0.005703,-0.0060609999999999995,-0.034789,-43.560001,11.87,4.56,1a
2019-07-12_102201:480,-0.42453,-0.037598,-0.088959,0.004422,-0.008533,-0.031066000000000003,-43.560001,11.87,4.56,1a
2019-07-12_102201:500,-0.431641,-0.036591000000000005,-0.09149199999999999,0.003353,-0.010851999999999999,-0.028013999999999997,-43.560001,11.87,4.56,1a
2019-07-12_102201:520,-0.438751,-0.032013,-0.096069,0.002041,-0.012836000000000002,-0.026091000000000003,-44.68,9.87,4.06,1a
2019-07-12_102201:540,-0.45401,-0.028961,-0.100647,0.000698,-0.013568,-0.022917,-44.68,9.87,4.06,1a
2019-07-12_102201:560,-0.484497,-0.027435,-0.104706,-0.001194,-0.012897,-0.018675,-45.869999,8.68,4.06,1a
2019-07-12_102201:580,-0.48300200000000004,-0.026917,-0.111328,-0.0027199999999999998,-0.012165,-0.015806999999999998,-45.869999,8.68,4.06,1a
2019-07-12_102201:600,-0.503845,-0.021851,-0.113373,-0.004581,-0.010669,-0.014495,-45.869999,8.68,4.06,1a
2019-07-12_102201:620,-0.529755,-0.013213999999999998,-0.11538699999999999,-0.007084,-0.009143,-0.013701,-45.5,7.56,3.75,1a
2019-07-12_102201:640,-0.523163,-0.006592,-0.12048299999999999,-0.009922,-0.007220999999999999,-0.013487,-45.5,7.56,3.75,1a
2019-07-12_102201:660,-0.511444,0.006592,-0.13269,-0.013248,-0.0070680000000000005,-0.014341999999999999,-45.5,7.56,4.06,1a
2019-07-12_102201:680,-0.618225,0.023895,-0.122528,-0.016452,-0.007984,-0.014159,-45.5,7.56,4.06,1a
2019-07-12_102201:700,-0.659424,0.055908000000000006,-0.200317,-0.022098,-0.010791,-0.009764,-45.5,7.56,4.06,1a
2019-07-12_102201:720,-0.721436,0.063019,-0.171844,-0.029331,-0.015430000000000001,-0.002806,-45.0,5.68,3.75,1a
2019-07-12_102201:740,-0.567383,0.075745,-0.196747,-0.035709,-0.01955,0.000245,-45.0,5.68,3.75,1a
2019-07-12_102201:760,-0.544495,0.084381,-0.21402,-0.04108,-0.019091999999999998,0.000917,-46.060001,5.37,2.87,1a
2019-07-12_102201:780,-0.434692,0.102692,-0.23233,-0.044071,-0.02074,0.000642,-46.060001,5.37,2.87,1a
2019-07-12_102201:800,-0.409271,0.11233499999999999,-0.212006,-0.045719,-0.016895,-0.0042710000000000005,-46.060001,5.37,2.87,1a
2019-07-12_102201:820,-0.47943100000000005,0.13623,-0.167267,-0.047825,-0.004901,-0.008787999999999999,-45.869999,5.0,1.37,1a
2019-07-12_102201:840,-0.46060200000000007,0.147949,-0.166229,-0.051609,0.00758,-0.003264,-45.869999,5.0,1.37,1a
2019-07-12_102201:860,-0.420959,0.142334,-0.152008,-0.055088,0.013134999999999999,0.009706000000000001,-46.18,5.37,0.87,1a
2019-07-12_102201:880,-0.421967,0.12454200000000001,-0.142334,-0.05871900000000001,0.013531,0.019197,-46.18,5.37,0.87,1a
2019-07-12_102201:900,-0.43774399999999997,0.099121,-0.128113,-0.059971000000000003,0.012097,0.025789,-46.18,5.37,0.87,1a
2019-07-12_102201:920,-0.45095799999999997,0.075745,-0.122528,-0.05871900000000001,0.008374,0.033875999999999996,-46.18,4.18,2.56,1a
2019-07-12_102201:940,-0.44027700000000003,0.041687,-0.121002,-0.055667999999999995,0.0018739999999999998,0.040651,-46.18,4.18,2.56,1a
2019-07-12_102201:960,-0.427063,0.021332,-0.122528,-0.0517,-0.006885,0.043764,-46.560001,6.06,3.75,1a
2019-07-12_102201:980,-0.42248500000000005,0.0055850000000000006,-0.124054,-0.046573,-0.014697,0.045137000000000004,-46.560001,6.06,3.75,1a
2019-07-12_102202:000,-0.454529,0.001007,-0.12301600000000001,-0.041263,-0.021259,0.045808,-46.560001,6.06,3.75,1a
2019-07-12_102202:020,-0.46823100000000006,-0.005065999999999999,-0.11795,-0.037479000000000005,-0.023059,0.045961,-45.869999,7.56,2.87,1a
2019-07-12_102202:040,-0.475861,-0.0030210000000000002,-0.11386099999999999,-0.03397,-0.021137,0.045625,-45.869999,7.56,2.87,1a
2019-07-12_102202:060,-0.47689799999999993,-0.007111,-0.10775799999999999,-0.031925,-0.016284,0.044496,-46.18,8.68,2.06,1a
2019-07-12_102202:080,-0.46417200000000003,-0.008118,-0.10116599999999999,-0.031162,-0.010578,0.043641,-46.18,8.68,2.06,1a
2019-07-12_102202:100,-0.44638100000000003,-0.017273,-0.097107,-0.030643,-0.005634,0.042879,-46.18,8.68,2.06,1a
2019-07-12_102202:120,-0.434692,-0.025421,-0.09353600000000001,-0.030063,-0.002002,0.041231,-45.5,10.87,0.87,1a
2019-07-12_102202:140,-0.43011499999999997,-0.032532,-0.08743300000000001,-0.029238999999999998,-4.9e-05,0.039186,-45.5,10.87,0.87,1a
2019-07-12_102202:160,-0.430634,-0.038635,-0.084381,-0.027256,0.00040899999999999997,0.037507,-45.869999,12.37,1.25,1a
2019-07-12_102202:180,-0.426544,-0.048279,-0.082336,-0.024021,-8e-05,0.03528,-45.869999,12.37,1.25,1a
2019-07-12_102202:200,-0.438751,-0.05285599999999999,-0.075226,-0.019443000000000002,-0.001209,0.032197,-45.869999,12.37,1.25,1a
2019-07-12_102202:220,-0.423004,-0.055389,-0.082855,-0.013858,-0.0031309999999999997,0.026826,-44.369999,13.5,0.75,1a
2019-07-12_102202:240,-0.461639,-0.053863999999999995,-0.066071,-0.0067480000000000005,-0.004321,0.019349,-44.369999,13.5,0.75,1a
2019-07-12_102202:260,-0.520111,-0.048279,-0.08743300000000001,-0.000797,-0.006793,0.014039,-43.869999,14.68,0.5,1a
2019-07-12_102202:280,-0.5134890000000001,-0.050842,-0.08996599999999999,0.00549,-0.010242,0.014344999999999998,-43.869999,14.68,0.5,1a
2019-07-12_102202:300,-0.504333,-0.06405599999999999,-0.098633,0.012081,-0.014178999999999999,0.011384,-43.869999,14.68,0.5,1a
2019-07-12_102202:320,-0.537903,-0.081329,-0.109802,0.019223,-0.016834000000000002,0.001924,-44.25,14.25,0.0,1a
2019-07-12_102202:340,-0.736176,-0.100647,-0.141327,0.026791000000000002,-0.015491,-0.010588,-44.25,14.25,0.0,1a
2019-07-12_102202:360,-0.647217,-0.108276,-0.19927999999999998,0.030117,-0.023731,-0.012023,-44.560001,15.0,-0.25,1a
2019-07-12_102202:380,-0.64212,-0.118958,-0.19165,0.037808,-0.027698,-0.005797,-44.560001,15.0,-0.25,1a
2019-07-12_102202:400,-0.5429689999999999,-0.130646,-0.228271,0.044064,-0.035938,-0.00186,-44.560001,15.0,-0.25,1a
2019-07-12_102202:420,-0.429596,-0.12048299999999999,-0.23284899999999997,0.049893,-0.037952,-0.007598000000000001,-44.25,13.87,0.5,1a
2019-07-12_102202:440,-0.404175,-0.10928299999999999,-0.237427,0.048764,-0.03606,-0.005644,-44.25,13.87,0.5,1a
2019-07-12_102202:460,-0.43621800000000005,-0.111847,-0.21759,0.047238,-0.025318,0.007965999999999999,-45.0,14.25,1.68,1a
2019-07-12_102202:480,-0.46670500000000004,-0.128601,-0.20233199999999998,0.042996,-0.009113,0.01349,-45.0,14.25,1.68,1a
2019-07-12_102202:500,-0.431122,-0.141327,-0.192688,0.037564,0.00346,0.003572,-45.0,14.25,1.68,1a
2019-07-12_102202:520,-0.40976,-0.14386,-0.18096900000000002,0.035305,0.009167,-0.006255,-45.0,13.5,0.5,1a
2019-07-12_102202:540,-0.407227,-0.153015,-0.166748,0.036099,0.009503,-0.009032,-45.0,13.5,0.5,1a
2019-07-12_102202:560,-0.439758,-0.159119,-0.152527,0.038021,0.007306,-0.010709999999999999,-44.5,13.87,1.25,1a
2019-07-12_102202:580,-0.448425,-0.152527,-0.156586,0.041348,0.001324,-0.014891,-44.5,13.87,1.25,1a
2019-07-12_102202:600,-0.44995100000000005,-0.137756,-0.158112,0.04559,-0.005817,-0.021971,-44.5,13.87,1.25,1a
2019-07-12_102202:620,-0.459595,-0.105743,-0.156586,0.048489,-0.013721,-0.029539999999999997,-44.869999,12.37,2.0,1a
2019-07-12_102202:640,-0.461639,-0.080322,-0.156586,0.048825,-0.020069,-0.035185,-44.869999,12.37,2.0,1a
2019-07-12_102202:660,-0.46926899999999994,-0.05438200000000001,-0.151001,0.046444,-0.023119999999999998,-0.037505000000000004,-45.68,11.25,2.5,1a
2019-07-12_102202:680,-0.472321,-0.041687,-0.143372,0.042538,-0.021472,-0.038787,-45.68,11.25,2.5,1a
2019-07-12_102202:700,-0.45553599999999994,-0.027954000000000003,-0.130127,0.036557,-0.014819999999999998,-0.039702,-45.68,11.25,2.5,1a
2019-07-12_102202:720,-0.440796,-0.023895,-0.124054,0.030667000000000003,-0.007923000000000001,-0.039855,-46.0,9.5,2.06,1a
2019-07-12_102202:740,-0.423492,-0.021332,-0.11795,0.025936,-0.0032530000000000002,-0.039305,-46.0,9.5,2.06,1a
2019-07-12_102202:760,-0.409271,-0.022369,-0.108795,0.02203,-0.0008119999999999999,-0.037932,-46.369999,7.18,1.37,1a
2019-07-12_102202:780,-0.406738,-0.022369,-0.097107,0.019833,7.3e-05,-0.035643,-46.369999,7.18,1.37,1a
2019-07-12_102202:800,-0.415375,-0.020844,-0.105743,0.018246000000000002,-0.000995,-0.032073000000000004,-46.369999,7.18,1.37,1a
2019-07-12_102202:820,-0.416382,-0.012695,-0.111328,0.017117,-0.004108,-0.029082,-46.68,5.37,4.06,1a
2019-07-12_102202:840,-0.417908,-0.008118,-0.10928299999999999,0.015438,-0.006885,-0.027831,-46.68,5.37,4.06,1a
2019-07-12_102202:860,-0.44433599999999995,0.0,-0.11438,0.01199,-0.008655,-0.025633,-46.369999,3.87,3.75,1a
2019-07-12_102202:880,-0.484497,0.001495,-0.106232,0.008877,-0.008808,-0.021238999999999997,-46.369999,3.87,3.75,1a
2019-07-12_102202:900,-0.489075,0.0035399999999999997,-0.122528,0.004971,-0.008869,-0.018218,-46.369999,3.87,3.75,1a
2019-07-12_102202:920,-0.514008,0.006592,-0.11795,-0.000278,-0.00838,-0.018218,-46.68,1.68,3.75,1a
2019-07-12_102202:940,-0.517059,0.013213999999999998,-0.127594,-0.005832,-0.00838,-0.017546,-46.68,1.68,3.75,1a
2019-07-12_102202:960,-0.516022,0.011687999999999999,-0.128113,-0.0116,-0.007862000000000001,-0.016753,-47.18,0.25,2.87,1a
2019-07-12_102202:980,-0.5348510000000001,0.014740000000000001,-0.144379,-0.016513999999999997,-0.008533,-0.017668,-47.18,0.25,2.87,1a
2019-07-12_102203:000,-0.517059,0.020844,-0.165222,-0.021671,-0.010578,-0.019927,-47.18,0.25,2.87,1a
2019-07-12_102203:020,-0.675171,0.048798,-0.13623,-0.025943,-0.010912999999999999,-0.021453,-47.18,-0.06,2.87,1a
2019-07-12_102203:040,-0.653809,0.068634,-0.210968,-0.033359,-0.012256,-0.020322999999999997,-47.18,-0.06,2.87,1a
2019-07-12_102203:060,-0.721436,0.096069,-0.172852,-0.041141000000000004,-0.010456,-0.014159,-46.5,-1.56,2.56,1a
2019-07-12_102203:080,-0.5872189999999999,0.101685,-0.21249400000000002,-0.047245,-0.011768,-0.004515,-46.5,-1.56,2.56,1a
2019-07-12_102203:100,-0.489075,0.08590700000000001,-0.20080599999999998,-0.050815,-0.006336,0.002168,-46.5,-1.56,2.56,1a
2019-07-12_102203:120,-0.41384899999999997,0.08996599999999999,-0.203369,-0.052097000000000004,-0.005817,-0.000151,-47.18,-2.0,2.87,1a
2019-07-12_102203:140,-0.361481,0.104218,-0.183014,-0.051609,-0.003467,-0.006652,-47.18,-2.0,2.87,1a
2019-07-12_102203:160,-0.399109,0.118958,-0.142853,-0.050082999999999996,0.003064,-0.009764,-46.060001,-1.56,2.56,1a
2019-07-12_102203:180,-0.44995100000000005,0.130646,-0.131653,-0.047519,0.011151000000000001,-0.0042710000000000005,-46.060001,-1.56,2.56,1a
2019-07-12_102203:200,-0.417389,0.128601,-0.131165,-0.043918,0.013866999999999999,0.006593000000000001,-46.060001,-1.56,2.56,1a
2019-07-12_102203:220,-0.417389,0.12200899999999999,-0.11233499999999999,-0.039158,0.0117,0.015169,-46.5,-2.37,2.87,1a
2019-07-12_102203:240,-0.43621800000000005,0.118958,-0.11080899999999999,-0.034366,0.007031,0.020112,-46.5,-2.37,2.87,1a
2019-07-12_102203:260,-0.445374,0.102173,-0.105225,-0.029972000000000002,0.002392,0.026826,-46.060001,-2.37,4.06,1a
2019-07-12_102203:280,-0.437225,0.0849,-0.10675,-0.025272,-0.004566,0.035585000000000006,-46.060001,-2.37,4.06,1a
2019-07-12_102203:300,-0.41842700000000005,0.055908000000000006,-0.119476,-0.021671,-0.014178999999999999,0.041382999999999996,-46.060001,-2.37,4.06,1a
2019-07-12_102203:320,-0.41943400000000003,0.046752999999999996,-0.12658699999999998,-0.018375,-0.024188,0.042756,-46.060001,-1.56,4.87,1a
2019-07-12_102203:340,-0.43927,0.039642000000000004,-0.130646,-0.015506,-0.032367,0.041841,-46.060001,-1.56,4.87,1a
2019-07-12_102203:360,-0.453003,0.035065,-0.129639,-0.013401,-0.034168000000000004,0.041444,-45.869999,-1.0,3.25,1a
2019-07-12_102203:380,-0.475861,0.034546,-0.127106,-0.013065,-0.03017,0.040315,-45.869999,-1.0,3.25,1a
2019-07-12_102203:400,-0.467743,0.03302,-0.127106,-0.013981,-0.023944,0.039705000000000004,-45.869999,-1.0,3.25,1a
2019-07-12_102203:420,-0.462128,0.028961,-0.122528,-0.015323,-0.018238,0.04004,-46.18,1.75,2.87,1a
2019-07-12_102203:440,-0.448425,0.020325,-0.119476,-0.016727000000000002,-0.014697,0.039583,-46.18,1.75,2.87,1a
2019-07-12_102203:460,-0.445374,0.012177,-0.11795,-0.017582,-0.011646,0.037111,-46.869999,2.87,1.37,1a
2019-07-12_102203:480,-0.44232200000000005,0.007599,-0.108795,-0.017124,-0.00893,0.033662,-46.869999,2.87,1.37,1a
2019-07-12_102203:500,-0.44384799999999996,0.0035399999999999997,-0.10675,-0.015506,-0.006793,0.03174,-46.869999,2.87,1.37,1a
2019-07-12_102203:520,-0.45654300000000003,0.0,-0.09963999999999999,-0.012454999999999999,-0.005817,0.031618,-45.869999,3.56,2.06,1a
2019-07-12_102203:540,-0.46469099999999997,0.0,-0.100647,-0.008213,-0.005298,0.029602999999999997,-45.869999,3.56,2.06,1a
2019-07-12_102203:560,-0.45806899999999995,0.006592,-0.102692,-0.0036659999999999996,-0.005756,0.026032999999999997,-46.060001,5.06,0.56,1a
2019-07-12_102203:580,-0.484497,0.010651,-0.100159,0.0017050000000000001,-0.006793,0.023438999999999998,-46.060001,5.06,0.56,1a
2019-07-12_102203:600,-0.519592,0.017792,-0.104706,0.005947,-0.007220999999999999,0.022401,-46.060001,5.06,0.56,1a
2019-07-12_102203:620,-0.5211180000000001,0.01828,-0.110321,0.008999,-0.0070680000000000005,0.024843,-46.060001,6.56,1.75,1a
2019-07-12_102203:640,-0.495697,0.009125,-0.12912,0.011593000000000001,-0.007923000000000001,0.026552,-46.060001,6.56,1.75,1a
2019-07-12_102203:660,-0.515533,-0.006592,-0.13269,0.013058000000000002,-0.009143,0.024843,-45.75,7.68,1.37,1a
2019-07-12_102203:680,-0.7453310000000001,-0.034058,-0.141846,0.014644999999999998,-0.012317,0.022706,-45.75,7.68,1.37,1a
2019-07-12_102203:700,-0.694489,-0.045226999999999996,-0.227264,0.015469,-0.018024000000000002,0.026491000000000004,-45.75,7.68,1.37,1a
2019-07-12_102203:720,-0.641113,-0.09301799999999999,-0.21859699999999999,0.015835,-0.024921000000000002,0.03412,-45.75,7.25,1.37,1a
2019-07-12_102203:740,-0.517548,-0.11438,-0.25012199999999996,0.018246000000000002,-0.031909,0.030885000000000003,-45.75,7.25,1.37,1a
2019-07-12_102203:760,-0.396057,-0.12912,-0.257233,0.016995,-0.030688999999999998,0.020204,-45.0,8.5,1.37,1a
2019-07-12_102203:780,-0.397583,-0.134705,-0.236389,0.015255000000000001,-0.02605,0.020387,-45.0,8.5,1.37,1a
2019-07-12_102203:800,-0.44433599999999995,-0.168793,-0.21859699999999999,0.013668000000000001,-0.015552000000000002,0.031862,-45.0,8.5,1.37,1a
2019-07-12_102203:820,-0.432648,-0.186584,-0.20538299999999998,0.012448,-0.003436,0.033418,-45.75,9.56,0.56,1a
2019-07-12_102203:840,-0.40976,-0.18811,-0.17996199999999998,0.011319,0.006024,0.021608000000000002,-45.75,9.56,0.56,1a
2019-07-12_102203:860,-0.41995200000000005,-0.184021,-0.164703,0.012661,0.012066,0.009981,-44.560001,10.56,0.56,1a
2019-07-12_102203:880,-0.446899,-0.18454,-0.14032,0.014644999999999998,0.014813,0.003572,-44.560001,10.56,0.56,1a
2019-07-12_102203:900,-0.435699,-0.177948,-0.14032,0.017056,0.014813,-0.002349,-44.560001,10.56,0.56,1a
2019-07-12_102203:920,-0.40063499999999996,-0.163696,-0.137268,0.018887,0.008709999999999999,-0.007932999999999999,-45.75,10.25,1.37,1a
2019-07-12_102203:940,-0.384857,-0.151489,-0.138794,0.020901,0.000653,-0.013822999999999998,-45.75,10.25,1.37,1a
2019-07-12_102203:960,-0.41232299999999994,-0.12048299999999999,-0.145386,0.021297999999999997,-0.009876000000000001,-0.022704,-46.0,10.56,1.37,1a
2019-07-12_102203:980,-0.42807,-0.096588,-0.146423,0.019223,-0.020008,-0.031066000000000003,-46.0,10.56,1.37,1a
2019-07-12_102204:000,-0.445862,-0.074738,-0.133698,0.016903,-0.024799,-0.035185,-46.0,10.56,1.37,1a
2019-07-12_102204:020,-0.447388,-0.06149299999999999,-0.127106,0.014187,-0.023212,-0.038237,-46.369999,8.75,2.87,1a
2019-07-12_102204:040,-0.447906,-0.046265,-0.11691300000000002,0.011073999999999999,-0.017230000000000002,-0.039061,-46.369999,8.75,2.87,1a
2019-07-12_102204:060,-0.44384799999999996,-0.040161,-0.11843900000000002,0.007809,-0.008136,-0.033354,-46.369999,7.0,2.06,1a
2019-07-12_102204:080,-0.42758199999999996,-0.036072,-0.112854,0.0060079999999999995,-0.003589,-0.03015,-46.369999,7.0,2.06,1a
2019-07-12_102204:100,-0.40976,-0.035065,-0.108276,0.004025,-0.000781,-0.027953,-46.369999,7.0,2.06,1a
2019-07-12_102204:120,-0.40316799999999997,-0.035065,-0.110321,0.002652,-0.000263,-0.024321000000000002,-46.369999,5.06,0.87,1a
2019-07-12_102204:140,-0.406219,-0.038635,-0.116425,0.000576,-0.0020629999999999997,-0.020049,-46.369999,5.06,0.87,1a
2019-07-12_102204:160,-0.409271,-0.044219999999999995,-0.128113,-0.002262,-0.006458,-0.016295,-46.0,4.25,2.06,1a
2019-07-12_102204:180,-0.411804,-0.047791,-0.134216,-0.004764,-0.010912999999999999,-0.013640000000000001,-46.0,4.25,2.06,1a
2019-07-12_102204:200,-0.44281000000000004,-0.050842,-0.12912,-0.008548,-0.013446000000000001,-0.013030000000000002,-46.0,4.25,2.06,1a
2019-07-12_102204:220,-0.43823199999999995,-0.049316000000000006,-0.156067,-0.012943000000000001,-0.018938999999999998,-0.012023,-46.68,2.06,2.56,1a
2019-07-12_102204:240,-0.449432,-0.055908000000000006,-0.170319,-0.016909999999999998,-0.025713999999999997,-0.011382,-46.68,2.06,2.56,1a
2019-07-12_102204:260,-0.45095799999999997,-0.06149299999999999,-0.192169,-0.01923,-0.033039,-0.015806999999999998,-47.060001,1.37,0.56,1a
2019-07-12_102204:280,-0.539917,-0.046265,-0.190643,-0.020968999999999998,-0.03487,-0.020995,-47.060001,1.37,0.56,1a
2019-07-12_102204:300,-0.7804260000000001,-0.021851,-0.204376,-0.022281,-0.03374,-0.019927,-47.060001,1.37,0.56,1a
2019-07-12_102204:320,-0.813477,0.001007,-0.28775,-0.024418000000000002,-0.034748,-0.012023,-46.68,1.0,0.06,1a
2019-07-12_102204:340,-0.684845,0.022858,-0.271484,-0.025547,-0.029498000000000003,-0.008695999999999999,-46.68,1.0,0.06,1a
2019-07-12_102204:360,-0.5119630000000001,0.053375,-0.261322,-0.026614999999999996,-0.025134,-0.010648999999999999,-46.75,-0.87,-0.56,1a
2019-07-12_102204:380,-0.45553599999999994,0.07775900000000001,-0.25116,-0.025882,-0.021808,-0.018859,-46.75,-0.87,-0.56,1a
2019-07-12_102204:400,-0.393494,0.100159,-0.241486,-0.025455000000000002,-0.016834000000000002,-0.02957,-46.75,-0.87,-0.56,1a
2019-07-12_102204:420,-0.445862,0.11691300000000002,-0.186584,-0.023807,0.00040899999999999997,-0.034148000000000005,-47.18,-1.18,-1.37,1a
2019-07-12_102204:440,-0.431122,0.14386,-0.18249500000000002,-0.022953,0.013409,-0.02365,-47.18,-1.18,-1.37,1a
2019-07-12_102204:460,-0.395538,0.145905,-0.17944300000000002,-0.022556,0.019847999999999998,-0.00659,-47.560001,-2.0,-2.18,1a
2019-07-12_102204:480,-0.402161,0.138275,-0.159637,-0.022831,0.019177,0.005586,-47.560001,-2.0,-2.18,1a
2019-07-12_102204:500,-0.429596,0.127106,-0.1586,-0.022341999999999997,0.015393,0.014284,-47.560001,-2.0,-2.18,1a
2019-07-12_102204:520,-0.453491,0.10775799999999999,-0.153534,-0.020908000000000003,0.010937,0.022401,-47.18,-4.18,-1.37,1a
2019-07-12_102204:540,-0.432648,0.089478,-0.153015,-0.019962,0.004895,0.029207,-47.18,-4.18,-1.37,1a
2019-07-12_102204:560,-0.396545,0.065063,-0.165222,-0.018833000000000003,-0.005054,0.032075,-48.68,-2.37,-0.18,1a
2019-07-12_102204:580,-0.385864,0.049805,-0.17843599999999998,-0.017825999999999998,-0.017688,0.032472,-48.68,-2.37,-0.18,1a
2019-07-12_102204:600,-0.408752,0.034546,-0.19622799999999999,-0.01511,-0.028461,0.030670999999999997,-48.68,-2.37,-0.18,1a
2019-07-12_102204:620,-0.439758,0.034546,-0.196747,-0.012943000000000001,-0.033007999999999996,0.028076999999999998,-48.0,-3.06,0.06,1a
2019-07-12_102204:640,-0.478912,0.033539,-0.191162,-0.011478,-0.028582999999999997,0.027681,-48.0,-3.06,0.06,1a
2019-07-12_102204:660,-0.48300200000000004,0.036072,-0.19165,-0.010256999999999999,-0.018756000000000002,0.028505000000000003,-48.0,-1.18,-1.06,1a
2019-07-12_102204:680,-0.473846,0.039124,-0.18249500000000002,-0.010196,-0.008197,0.027498,-48.0,-1.18,-1.06,1a
2019-07-12_102204:700,-0.45907600000000004,0.041168,-0.176422,-0.01099,0.00040899999999999997,0.025422,-48.0,-1.18,-1.06,1a
2019-07-12_102204:720,-0.425537,0.039124,-0.159637,-0.0116,0.007245000000000001,0.025422,-48.68,-0.06,-1.37,1a
2019-07-12_102204:740,-0.41232299999999994,0.033539,-0.146912,-0.011081,0.011609,0.025575,-48.68,-0.06,-1.37,1a
2019-07-12_102204:760,-0.411285,0.027954000000000003,-0.140808,-0.010013,0.013287,0.023530000000000002,-48.25,1.37,-1.06,1a
2019-07-12_102204:780,-0.40011599999999997,0.03302,-0.139801,-0.007541,0.012158,0.020387,-48.25,1.37,-1.06,1a
2019-07-12_102204:800,-0.421967,0.037598,-0.134216,-0.004612,0.009442,0.017824,-48.25,1.37,-1.06,1a
2019-07-12_102204:820,-0.452484,0.038116000000000004,-0.138275,-0.000553,0.007092,0.015931,-47.18,2.5,-0.18,1a
2019-07-12_102204:840,-0.492645,0.050323,-0.139282,0.003109,0.006451,0.013887,-47.18,2.5,-0.18,1a
2019-07-12_102204:860,-0.497742,0.062012,-0.144379,0.005429,0.005719,0.01587,-48.0,2.5,0.56,1a
2019-07-12_102204:880,-0.463654,0.062012,-0.140808,0.006770999999999999,0.005841,0.020204,-48.0,2.5,0.56,1a
2019-07-12_102204:900,-0.520111,0.051330999999999995,-0.142853,0.0074730000000000005,0.00285,0.020051,-48.0,2.5,0.56,1a
2019-07-12_102204:920,-0.673126,0.032013,-0.185059,0.006497,-0.005878,0.020326,-48.0,2.5,0.56,1a
2019-07-12_102204:940,-0.733643,0.019318000000000002,-0.21148699999999998,0.006741,-0.019336000000000002,0.028627,-48.0,2.5,0.56,1a
2019-07-12_102204:960,-0.611603,-0.022369,-0.276062,0.007504,-0.034168000000000004,0.040712,-48.25,4.0,1.75,1a
2019-07-12_102204:980,-0.5048520000000001,-0.065063,-0.267914,0.009212999999999999,-0.037920999999999996,0.042879,-48.25,4.0,1.75,1a
2019-07-12_102205:000,-0.46875,-0.100159,-0.275055,0.007901,-0.029560000000000003,0.042177,-48.25,4.0,1.75,1a
2019-07-12_102205:020,-0.438751,-0.12506099999999998,-0.265381,0.007351000000000001,-0.013568,0.050783,-47.560001,4.68,-0.18,1a
2019-07-12_102205:040,-0.394012,-0.157593,-0.22421300000000002,0.009212999999999999,0.006756,0.053773,-47.560001,4.68,-0.18,1a
2019-07-12_102205:060,-0.42605600000000005,-0.17337,-0.18811,0.008754999999999999,0.025372,0.038576,-46.5,6.18,-0.18,1a
2019-07-12_102205:080,-0.40368699999999996,-0.165222,-0.17538499999999999,0.0072900000000000005,0.035565,0.017824,-46.5,6.18,-0.18,1a
2019-07-12_102205:100,-0.36654699999999996,-0.16217,-0.150482,0.008816,0.035382,0.008577,-46.5,6.18,-0.18,1a
2019-07-12_102205:120,-0.36706500000000003,-0.169281,-0.141327,0.011807,0.028424,0.005342,-46.5,8.75,0.87,1a
2019-07-12_102205:140,-0.401123,-0.172333,-0.138275,0.0126,0.018994,0.001039,-46.5,8.75,0.87,1a
2019-07-12_102205:160,-0.395538,-0.172333,-0.152527,0.013333000000000001,0.006634,0.003023,-47.18,9.18,2.06,1a
2019-07-12_102205:180,-0.417389,-0.174377,-0.167755,0.015316,-0.00838,0.006044,-47.18,9.18,2.06,1a
2019-07-12_102205:200,-0.441284,-0.167755,-0.190125,0.015927,-0.025256999999999998,-0.003783,-47.18,9.18,2.06,1a
2019-07-12_102205:220,-0.47842399999999996,-0.130127,-0.19622799999999999,0.015590999999999999,-0.037799,-0.023313999999999998,-46.5,9.56,2.87,1a
2019-07-12_102205:240,-0.495697,-0.100159,-0.188599,0.014126,-0.039112,-0.037047000000000004,-46.5,9.56,2.87,1a
2019-07-12_102205:260,-0.489075,-0.064545,-0.18249500000000002,0.011654000000000001,-0.029498000000000003,-0.041625,-47.18,8.06,1.75,1a
2019-07-12_102205:280,-0.473846,-0.051330999999999995,-0.17538499999999999,0.007351000000000001,-0.016773,-0.041625,-47.18,8.06,1.75,1a
2019-07-12_102205:300,-0.441803,-0.038635,-0.171326,0.00372,-0.006793,-0.039458,-47.18,8.06,1.75,1a
2019-07-12_102205:320,-0.420959,-0.035583,-0.164703,0.0017050000000000001,-0.0013310000000000002,-0.036986,-47.560001,6.18,2.56,1a
2019-07-12_102205:340,-0.39859,-0.034546,-0.152527,0.001431,0.000714,-0.035643,-47.560001,6.18,2.56,1a
2019-07-12_102205:360,-0.401642,-0.034058,-0.150482,0.0023769999999999998,0.000653,-0.034545,-47.18,4.0,1.75,1a
2019-07-12_102205:380,-0.425018,-0.030487,-0.152527,0.00372,-0.000659,-0.030608,-47.18,4.0,1.75,1a
2019-07-12_102205:400,-0.434692,-0.030487,-0.155548,0.005032,-0.002857,-0.024443,-47.18,4.0,1.75,1a
2019-07-12_102205:420,-0.455017,-0.029968,-0.158112,0.005612,-0.0052369999999999995,-0.019530000000000002,-47.18,2.06,2.06,1a
2019-07-12_102205:440,-0.473846,-0.028961,-0.153534,0.005246,-0.005878,-0.015562999999999999,-47.18,2.06,2.06,1a
2019-07-12_102205:460,-0.48349,-0.028442000000000002,-0.159119,0.0039030000000000002,-0.004169,-0.011045999999999999,-48.25,1.0,1.75,1a
2019-07-12_102205:480,-0.510437,-0.033539,-0.14386,0.00137,-0.00041500000000000006,-0.006712999999999999,-48.25,1.0,1.75,1a
2019-07-12_102205:500,-0.514008,-0.042175,-0.143372,-0.0011330000000000001,0.003399,-0.005675,-48.25,1.0,1.75,1a
2019-07-12_102205:520,-0.502808,-0.049316000000000006,-0.139282,-0.003452,0.0071530000000000005,-0.008849,-47.18,0.56,2.56,1a
2019-07-12_102205:540,-0.46670500000000004,-0.053863999999999995,-0.141327,-0.004612,0.0067870000000000005,-0.011351,-47.18,0.56,2.56,1a
2019-07-12_102205:560,-0.465179,-0.056915,-0.137268,-0.005222,0.005169,-0.010985,-48.68,-0.06,2.06,1a
2019-07-12_102205:580,-0.46926899999999994,-0.06149299999999999,-0.141327,-0.005222,0.002911,-0.011106999999999999,-48.68,-0.06,2.06,1a
2019-07-12_102205:600,-0.473846,-0.055908000000000006,-0.139801,-0.005344,0.001385,-0.013640000000000001,-48.68,-0.06,2.06,1a
2019-07-12_102205:620,-0.47995,-0.045745999999999995,-0.142853,-0.006504,0.000989,-0.015531999999999999,-48.0,-1.5,2.56,1a
2019-07-12_102205:640,-0.471283,-0.042694,-0.148956,-0.007816,0.002392,-0.015531999999999999,-48.0,-1.5,2.56,1a
2019-07-12_102205:660,-0.5109560000000001,-0.034546,-0.14743,-0.010256999999999999,0.0037049999999999995,-0.016996999999999998,-48.25,-1.87,3.25,1a
2019-07-12_102205:680,-0.6177060000000001,-0.028961,-0.150482,-0.012577,0.004986,-0.019988,-48.25,-1.87,3.25,1a
2019-07-12_102205:700,-0.611603,-0.029968,-0.18811,-0.014438,0.001538,-0.021575,-48.25,-1.87,3.25,1a
2019-07-12_102205:720,-0.670593,-0.035583,-0.162689,-0.012272,0.00404,-0.023191999999999997,-48.25,-3.0,3.25,1a
2019-07-12_102205:740,-0.508423,-0.034546,-0.213531,-0.009951999999999999,0.001782,-0.025359,-48.25,-3.0,3.25,1a
2019-07-12_102205:760,-0.45401,-0.031006,-0.183533,-0.0042450000000000005,0.006177,-0.023924,-48.68,-4.37,4.06,1a
2019-07-12_102205:780,-0.41586300000000004,-0.046265,-0.193695,0.004757,0.012097,-0.022795,-48.68,-4.37,4.06,1a
2019-07-12_102205:800,-0.386902,-0.05285599999999999,-0.192688,0.017514,0.018902000000000002,-0.028899,-48.68,-4.37,4.06,1a
2019-07-12_102205:820,-0.417908,-0.043213,-0.157593,0.03558,0.026958999999999997,-0.036925,-46.75,-5.87,4.56,1a
2019-07-12_102205:840,-0.45095799999999997,-0.042175,-0.165222,0.055813,0.031139999999999998,-0.041442,-46.75,-5.87,4.56,1a
2019-07-12_102205:860,-0.42147799999999996,-0.027954000000000003,-0.17690999999999998,0.076779,0.027417,-0.043212,-47.18,-7.37,5.75,1a
2019-07-12_102205:880,-0.429596,-0.01828,-0.185059,0.098477,0.021374,-0.044341000000000005,-47.18,-7.37,5.75,1a
2019-07-12_102205:900,-0.454529,-0.009125,-0.19775399999999999,0.117947,0.01701,-0.045073,-47.18,-7.37,5.75,1a
2019-07-12_102205:920,-0.459595,-0.011687999999999999,-0.21249400000000002,0.138577,0.014355000000000001,-0.044036,-48.060001,-9.68,5.75,1a
2019-07-12_102205:940,-0.477905,-0.011169,-0.238434,0.15728399999999998,0.010937,-0.045683,-48.060001,-9.68,5.75,1a
2019-07-12_102205:960,-0.488068,-0.004547,-0.25012199999999996,0.171353,0.008099,-0.046477,-47.560001,-12.25,4.06,1a
2019-07-12_102205:980,-0.49926800000000005,-0.008118,-0.25317399999999995,0.182919,0.009686,-0.041716,-47.560001,-12.25,4.06,1a
2019-07-12_102206:000,-0.494171,-0.014221000000000001,-0.256226,0.19225699999999998,0.016278,-0.041381,-47.560001,-12.25,4.06,1a
2019-07-12_102206:020,-0.44281000000000004,0.005065999999999999,-0.26181,0.198696,0.024487000000000002,-0.051055,-46.5,-16.0,3.75,1a
2019-07-12_102206:040,-0.435699,0.030487,-0.24353000000000002,0.19949,0.030345999999999998,-0.060698,-46.5,-16.0,3.75,1a
2019-07-12_102206:060,-0.394531,0.071686,-0.24706999999999998,0.19652999999999998,0.030469,-0.060941999999999996,-46.5,-17.75,0.87,1a
2019-07-12_102206:080,-0.423492,0.075745,-0.216583,0.190029,0.02995,-0.054991,-46.5,-17.75,0.87,1a
2019-07-12_102206:100,-0.397583,0.095062,-0.21554600000000002,0.182858,0.025342,-0.05313,-46.5,-17.75,0.87,1a
2019-07-12_102206:120,-0.41232299999999994,0.108795,-0.20385699999999998,0.174465,0.022168,-0.052519,-44.560001,-21.25,-1.75,1a
2019-07-12_102206:140,-0.43774399999999997,0.12658699999999998,-0.198273,0.166256,0.018658,-0.048522,-44.560001,-21.25,-1.75,1a
2019-07-12_102206:160,-0.459595,0.13269,-0.19165,0.157833,0.015149000000000001,-0.043089999999999996,-43.869999,-24.25,-3.25,1a
2019-07-12_102206:180,-0.47689799999999993,0.135223,-0.17337,0.14937999999999999,0.013531,-0.04019,-43.869999,-24.25,-3.25,1a
2019-07-12_102206:200,-0.474854,0.136749,-0.169281,0.142025,0.013988999999999998,-0.037779,-43.869999,-24.25,-3.25,1a
2019-07-12_102206:220,-0.48300200000000004,0.135223,-0.157593,0.133938,0.014599,-0.031889999999999995,-43.060001,-25.0,-7.25,1a
2019-07-12_102206:240,-0.49468999999999996,0.12353499999999999,-0.152527,0.12575899999999998,0.014721000000000001,-0.022795,-43.060001,-25.0,-7.25,1a
2019-07-12_102206:260,-0.49468999999999996,0.104218,-0.145905,0.117855,0.013226,-0.015013,-42.0,-25.68,-8.37,1a
2019-07-12_102206:280,-0.494171,0.096588,-0.142334,0.11181300000000001,0.010235,-0.009093,-42.0,-25.68,-8.37,1a
2019-07-12_102206:300,-0.47689799999999993,0.0849,-0.135742,0.105648,0.007886,-0.003264,-42.0,-25.68,-8.37,1a
2019-07-12_102206:320,-0.47433500000000006,0.068115,-0.136749,0.099881,0.005566,0.001832,-41.560001,-25.0,-10.75,1a
2019-07-12_102206:340,-0.481476,0.047791,-0.135223,0.09518099999999999,0.005261,0.003053,-41.560001,-25.0,-10.75,1a
2019-07-12_102206:360,-0.47689799999999993,0.041687,-0.138275,0.09170199999999999,0.006299,-0.000365,-40.869999,-25.0,-12.5,1a
2019-07-12_102206:380,-0.47842399999999996,0.042694,-0.132172,0.089077,0.007886,-0.005797,-40.869999,-25.0,-12.5,1a
2019-07-12_102206:400,-0.463654,0.047791,-0.137268,0.08694099999999999,0.007916,-0.010558,-40.869999,-25.0,-12.5,1a
2019-07-12_102206:420,-0.46417200000000003,0.046752999999999996,-0.124054,0.085537,0.009839,-0.014341999999999999,-42.060001,-23.370001000000002,-14.75,1a
2019-07-12_102206:440,-0.46469099999999997,0.045226999999999996,-0.118958,0.086087,0.01286,-0.018340000000000002,-42.060001,-23.370001000000002,-14.75,1a
2019-07-12_102206:460,-0.461121,0.049805,-0.11795,0.08819199999999999,0.015790000000000002,-0.022368,-41.68,-22.68,-15.5,1a
2019-07-12_102206:480,-0.44232200000000005,0.051849,-0.121002,0.09158,0.017193,-0.024382,-41.68,-22.68,-15.5,1a
2019-07-12_102206:500,-0.43823199999999995,0.06149299999999999,-0.114899,0.0957,0.018047999999999998,-0.024382,-41.68,-22.68,-15.5,1a
2019-07-12_102206:520,-0.45654300000000003,0.06149299999999999,-0.11386099999999999,0.099881,0.017804,-0.024047,-41.68,-21.559998999999998,-16.68,1a
2019-07-12_102206:540,-0.646179,0.058960000000000005,-0.130127,0.104122,0.020978,-0.024321000000000002,-41.68,-21.559998999999998,-16.68,1a
2019-07-12_102206:560,-0.552124,0.072174,-0.131653,0.107052,0.012463,-0.025023,-42.060001,-21.18,-18.370001000000002,1a
2019-07-12_102206:580,-0.583649,0.059479,-0.100647,0.113552,0.014537999999999999,-0.019652,-42.060001,-21.18,-18.370001000000002,1a
2019-07-12_102206:600,-0.5246890000000001,0.036591000000000005,-0.11843900000000002,0.114498,0.01286,-0.017089,-42.060001,-21.18,-18.370001000000002,1a
2019-07-12_102206:620,-0.48095699999999997,0.019806,-0.0849,0.11336900000000001,0.016797,-0.009368000000000001,-41.68,-20.75,-18.5,1a
2019-07-12_102206:640,-0.48754899999999995,-0.027954000000000003,-0.09963999999999999,0.110043,0.015790000000000002,0.008058,-41.68,-20.75,-18.5,1a
2019-07-12_102206:660,-0.47433500000000006,-0.065582,-0.097595,0.106716,0.015393,0.015931,-41.68,-19.25,-20.75,1a
2019-07-12_102206:680,-0.465179,-0.090485,-0.086914,0.10418399999999998,0.015790000000000002,0.007051000000000001,-41.68,-19.25,-20.75,1a
2019-07-12_102206:700,-0.466217,-0.116425,-0.085388,0.104458,0.019237999999999998,-0.006987,-41.68,-19.25,-20.75,1a
2019-07-12_102206:720,-0.408752,-0.11843900000000002,-0.08743300000000001,0.108822,0.022351,-0.019255,-42.869999,-16.75,-21.559998999999998,1a
2019-07-12_102206:740,-0.404694,-0.116425,-0.086914,0.114071,0.022046,-0.024657,-42.869999,-16.75,-21.559998999999998,1a
2019-07-12_102206:760,-0.43621800000000005,-0.103699,-0.095062,0.119931,0.017071,-0.022856,-43.18,-14.37,-21.559998999999998,1a
2019-07-12_102206:780,-0.5368649999999999,-0.095062,-0.099121,0.12325699999999999,0.01228,-0.017606999999999998,-43.18,-14.37,-21.559998999999998,1a
2019-07-12_102206:800,-0.538391,-0.095062,-0.109802,0.12575899999999998,0.007916,-0.013487,-43.18,-14.37,-21.559998999999998,1a
2019-07-12_102206:820,-0.5323180000000001,-0.09301799999999999,-0.108276,0.126553,0.0069700000000000005,-0.014341999999999999,-43.18,-12.87,-22.75,1a
2019-07-12_102206:840,-0.488068,-0.092529,-0.112854,0.122769,0.007916,-0.019408,-43.18,-12.87,-22.75,1a
2019-07-12_102206:860,-0.476379,-0.088959,-0.114899,0.11858800000000001,0.007886,-0.02365,-42.869999,-11.0,-23.18,1a
2019-07-12_102206:880,-0.46060200000000007,-0.067596,-0.111328,0.114346,0.0047729999999999995,-0.025389,-42.869999,-11.0,-23.18,1a
2019-07-12_102206:900,-0.46417200000000003,-0.058960000000000005,-0.110321,0.10964600000000001,0.000989,-0.029020999999999998,-42.869999,-11.0,-23.18,1a
2019-07-12_102206:920,-0.46926899999999994,-0.028961,-0.099121,0.10473299999999999,-0.000537,-0.033263,-43.560001,-9.18,-24.75,1a
2019-07-12_102206:940,-0.463654,-0.022858,-0.096069,0.100094,-0.000995,-0.034789,-43.560001,-9.18,-24.75,1a
2019-07-12_102206:960,-0.45907600000000004,0.001007,-0.08996599999999999,0.09457,-0.000598,-0.032347,-42.869999,-7.68,-24.0,1a
2019-07-12_102206:980,-0.461639,0.0035399999999999997,-0.087952,0.089047,-0.0008119999999999999,-0.028502,-42.869999,-7.68,-24.0,1a
2019-07-12_102207:000,-0.47180200000000005,0.015747,-0.078796,0.082699,-0.002338,-0.025389,-42.869999,-7.68,-24.0,1a
2019-07-12_102207:020,-0.470276,0.019806,-0.078278,0.077236,-0.003375,-0.023313999999999998,-43.18,-7.68,-25.25,1a
2019-07-12_102207:040,-0.45654300000000003,0.033539,-0.063019,0.070156,-0.004779,-0.020781,-43.18,-7.68,-25.25,1a
2019-07-12_102207:060,-0.45806899999999995,0.035065,-0.05996699999999999,0.061978,-0.005634,-0.015898,-42.5,-7.0,-26.0,1a
2019-07-12_102207:080,-0.461121,0.024384,-0.050323,0.053890999999999994,-0.006,-0.010893,-42.5,-7.0,-26.0,1a
2019-07-12_102207:100,-0.46417200000000003,0.023375999999999997,-0.046265,0.046597,-0.004961999999999999,-0.009429,-42.5,-7.0,-26.0,1a
2019-07-12_102207:120,-0.459595,0.021851,-0.045745999999999995,0.039151,-0.004993,-0.009764,-42.869999,-5.75,-25.18,1a
2019-07-12_102207:140,-0.46823100000000006,0.019806,-0.038635,0.032314999999999997,-0.005878,-0.007384,-42.869999,-5.75,-25.18,1a
2019-07-12_102207:160,-0.484009,0.017792,-0.037108999999999996,0.026211,-0.007587000000000001,-0.00421,-43.18,-4.56,-26.0,1a
2019-07-12_102207:180,-0.519073,0.015228,-0.038635,0.020169,-0.008808,-0.0034170000000000003,-43.18,-4.56,-26.0,1a
2019-07-12_102207:200,-0.522125,0.019806,-0.041168,0.01434,-0.008197,-0.004332,-43.18,-4.56,-26.0,1a
2019-07-12_102207:220,-0.504333,0.020325,-0.049805,0.006741,-0.007526000000000001,-0.002288,-41.68,-5.0,-25.559998999999998,1a
2019-07-12_102207:240,-0.465179,0.026427999999999997,-0.065063,-0.002018,-0.010181,0.005983,-41.68,-5.0,-25.559998999999998,1a
2019-07-12_102207:260,-0.610107,0.039124,-0.063538,-0.015964,-0.014422999999999998,0.018403,-42.060001,-3.87,-26.75,1a
2019-07-12_102207:280,-0.777863,0.019318000000000002,-0.11386099999999999,-0.018436,-0.019428,0.017213,-42.060001,-3.87,-26.75,1a
2019-07-12_102207:300,-0.611115,0.045745999999999995,-0.152527,-0.023288,-0.017841,0.009584,-42.060001,-3.87,-26.75,1a
2019-07-12_102207:320,-0.526215,0.085388,-0.170807,-0.025791,-0.019611,0.00992,-42.060001,-4.18,-25.559998999999998,1a
2019-07-12_102207:340,-0.445862,0.096069,-0.250641,-0.03635,-0.02016,0.021852,-42.060001,-4.18,-25.559998999999998,1a
2019-07-12_102207:360,-0.44995100000000005,0.099121,-0.224701,-0.038363999999999995,-0.017963,0.025972000000000002,-41.0,-4.56,-27.18,1a
2019-07-12_102207:380,-0.525696,0.08590700000000001,-0.216583,-0.040592,-0.009052,0.014406,-41.0,-4.56,-27.18,1a
2019-07-12_102207:400,-0.531281,0.081848,-0.20486500000000002,-0.041201999999999996,-0.004321,0.001192,-41.0,-4.56,-27.18,1a
2019-07-12_102207:420,-0.46823100000000006,0.090485,-0.18249500000000002,-0.039341,-0.000781,0.00229,-40.560001,-3.87,-27.18,1a
2019-07-12_102207:440,-0.45401,0.092529,-0.165741,-0.036686,0.0024530000000000003,0.010957,-40.560001,-3.87,-27.18,1a
2019-07-12_102207:460,-0.463654,0.07775900000000001,-0.141846,-0.034305,0.003399,0.018463999999999998,-40.560001,-5.68,-27.559998999999998,1a
2019-07-12_102207:480,-0.453491,0.058441,-0.12353499999999999,-0.030581999999999998,0.0016600000000000002,0.028016000000000003,-40.560001,-5.68,-27.559998999999998,1a
2019-07-12_102207:500,-0.44384799999999996,0.040649,-0.114899,-0.024326,-0.000659,0.036714,-40.560001,-5.68,-27.559998999999998,1a
2019-07-12_102207:520,-0.427063,0.018799,-0.11080899999999999,-0.021488,-0.001911,0.037781999999999996,-40.18,-5.68,-26.75,1a
2019-07-12_102207:540,-0.427063,0.019806,-0.102692,-0.016697,-0.005573,0.033143,-40.18,-5.68,-26.75,1a
2019-07-12_102207:560,-0.455017,0.027954000000000003,-0.101685,-0.016452,-0.0066099999999999996,0.033204000000000004,-40.18,-5.37,-27.18,1a
2019-07-12_102207:580,-0.459595,0.022858,-0.098633,-0.015567,-0.008594,0.035858999999999995,-40.18,-5.37,-27.18,1a
2019-07-12_102207:600,-0.462646,0.014740000000000001,-0.09963999999999999,-0.016117,-0.010059,0.032808,-40.18,-5.37,-27.18,1a
2019-07-12_102207:620,-0.46060200000000007,0.009125,-0.098633,-0.015903,-0.010333,0.028901,-41.369999,-3.87,-26.0,1a
2019-07-12_102207:640,-0.482483,-0.001007,-0.086914,-0.014133000000000001,-0.009601,0.026581999999999998,-41.369999,-3.87,-26.0,1a
2019-07-12_102207:660,-0.489075,-0.006072999999999999,-0.088959,-0.012394,-0.008411,0.0235,-41.369999,-3.56,-25.18,1a
2019-07-12_102207:680,-0.48858599999999996,-0.006592,-0.082855,-0.010288,-0.00719,0.020723,-41.369999,-3.56,-25.18,1a
2019-07-12_102207:700,-0.502319,-0.002014,-0.078796,-0.008395999999999999,-0.004993,0.020662,-41.369999,-3.56,-25.18,1a
2019-07-12_102207:720,-0.501801,-0.001495,-0.074738,-0.007541,-0.003925,0.020997,-40.18,-3.18,-26.370001000000002,1a
2019-07-12_102207:740,-0.490112,-0.006072999999999999,-0.069641,-0.004886,-0.0020629999999999997,0.020875,-40.18,-3.18,-26.370001000000002,1a
2019-07-12_102207:760,-0.492126,-0.007599,-0.06149299999999999,-0.003788,-0.001209,0.019716,-41.0,-2.37,-26.0,1a
2019-07-12_102207:780,-0.477905,-0.006592,-0.060486,-0.000889,0.001538,0.016267,-41.0,-2.37,-26.0,1a
2019-07-12_102207:800,-0.478912,0.0,-0.049805,-0.000553,0.003399,0.015169,-41.0,-2.37,-26.0,1a
2019-07-12_102207:820,-0.477905,0.0055850000000000006,-0.048798,-0.000889,0.003796,0.015077000000000002,-40.560001,-1.25,-26.0,1a
2019-07-12_102207:840,-0.477386,0.006072999999999999,-0.047272,-0.002597,0.003064,0.01587,-40.560001,-1.25,-26.0,1a
2019-07-12_102207:860,-0.49365200000000004,0.000488,-0.050323,-0.0027199999999999998,0.002575,0.01587,-40.560001,-1.25,-26.0,1a
2019-07-12_102207:880,-0.503845,-0.009125,-0.049316000000000006,-0.001285,0.004834000000000001,0.016359000000000002,-41.68,-2.06,-25.559998999999998,1a
2019-07-12_102207:900,-0.5058590000000001,-0.012695,-0.049316000000000006,0.000454,0.007367,0.016023,-41.68,-2.06,-25.559998999999998,1a
2019-07-12_102207:920,-0.486023,-0.019806,-0.051330999999999995,0.001583,0.008618,0.015290999999999999,-41.369999,-0.56,-24.75,1a
2019-07-12_102207:940,-0.467224,-0.027435,-0.05438200000000001,0.005429,0.009686,0.012422,-41.369999,-0.56,-24.75,1a
2019-07-12_102207:960,-0.666534,-0.042175,-0.030487,0.007137999999999999,0.011151000000000001,0.012514,-42.060001,-0.87,-24.75,1a
2019-07-12_102207:980,-0.619751,-0.047272,-0.080322,0.010464,0.002118,0.022584,-42.060001,-0.87,-24.75,1a
2019-07-12_102208:000,-0.720917,-0.067108,-0.056915,0.012936000000000001,-0.00893,0.030610000000000002,-42.060001,-0.87,-24.75,1a
2019-07-12_102208:020,-0.562286,-0.081848,-0.129639,0.012387,-0.017963,0.033479,-41.369999,0.56,-22.75,1a
2019-07-12_102208:040,-0.370636,-0.10675,-0.130646,0.0126,-0.039051,0.032594,-41.369999,0.56,-22.75,1a
2019-07-12_102208:060,-0.376221,-0.12200899999999999,-0.157074,0.010617,-0.042194,0.032869,-41.68,1.68,-23.559998999999998,1a
2019-07-12_102208:080,-0.420441,-0.151489,-0.170319,0.0108,-0.031024,0.033388,-41.68,1.68,-23.559998999999998,1a
2019-07-12_102208:100,-0.45605500000000004,-0.171326,-0.154022,0.012448,-0.017353,0.023530000000000002,-41.68,1.68,-23.559998999999998,1a
2019-07-12_102208:120,-0.475372,-0.180481,-0.147949,0.013850999999999999,-0.010974,0.016663999999999998,-40.560001,2.75,-24.75,1a
2019-07-12_102208:140,-0.459595,-0.17385899999999999,-0.138794,0.01791,-0.000324,0.005861,-40.560001,2.75,-24.75,1a
2019-07-12_102208:160,-0.43927,-0.17690999999999998,-0.128113,0.019894,0.00047000000000000004,0.004945000000000001,-40.18,3.87,-25.18,1a
2019-07-12_102208:180,-0.434692,-0.183014,-0.12048299999999999,0.026119999999999997,-0.001911,-0.00186,-40.18,3.87,-25.18,1a
2019-07-12_102208:200,-0.44281000000000004,-0.186066,-0.11386099999999999,0.03143,-0.008533,-0.007445,-40.18,3.87,-25.18,1a
2019-07-12_102208:220,-0.45907600000000004,-0.18096900000000002,-0.12912,0.034085000000000004,-0.013628999999999999,-0.008298999999999999,-39.5,4.25,-24.370001000000002,1a
2019-07-12_102208:240,-0.45654300000000003,-0.172333,-0.149475,0.038937,-0.025531,-0.008055,-39.5,4.25,-24.370001000000002,1a
2019-07-12_102208:260,-0.471283,-0.162689,-0.154022,0.04205,-0.035266000000000006,-0.012236,-39.869999,4.25,-24.75,1a
2019-07-12_102208:280,-0.51297,-0.136749,-0.16217,0.042813,-0.037127999999999994,-0.019805,-39.869999,4.25,-24.75,1a
2019-07-12_102208:300,-0.5134890000000001,-0.117432,-0.155548,0.040737,-0.023791999999999997,-0.029296,-39.869999,4.25,-24.75,1a
2019-07-12_102208:320,-0.497742,-0.08996599999999999,-0.13623,0.039273,-0.017963,-0.032225,-38.75,5.75,-25.559998999999998,1a
2019-07-12_102208:340,-0.48043800000000003,-0.07016,-0.12506099999999998,0.032772,-0.0015140000000000002,-0.038633999999999995,-38.75,5.75,-25.559998999999998,1a
2019-07-12_102208:360,-0.452484,-0.049805,-0.09963999999999999,0.030575,0.00224,-0.03897,-38.75,5.75,-25.559998999999998,1a
2019-07-12_102208:380,-0.44384799999999996,-0.042694,-0.089478,0.024594,0.007428,-0.036009,-39.060001,5.0,-26.370001000000002,1a
2019-07-12_102208:400,-0.44433599999999995,-0.040161,-0.072693,0.023098,0.008496,-0.035185,-39.060001,5.0,-26.370001000000002,1a
2019-07-12_102208:420,-0.43670699999999996,-0.034058,-0.063019,0.020108,0.008832,-0.033750999999999996,-39.060001,3.87,-25.559998999999998,1a
2019-07-12_102208:440,-0.42605600000000005,-0.030487,-0.058960000000000005,0.017453,0.006756,-0.029875,-39.060001,3.87,-25.559998999999998,1a
2019-07-12_102208:460,-0.423492,-0.029968,-0.058960000000000005,0.015133,0.003125,-0.025115000000000002,-39.060001,3.87,-25.559998999999998,1a
2019-07-12_102208:480,-0.433655,-0.031006,-0.055908000000000006,0.012326,-0.001178,-0.021453,-38.75,3.5,-24.370001000000002,1a
2019-07-12_102208:500,-0.43518100000000004,-0.032013,-0.058960000000000005,0.008145,-0.007343000000000001,-0.016265,-38.75,3.5,-24.370001000000002,1a
2019-07-12_102208:520,-0.47689799999999993,-0.032013,-0.054901,0.006497,-0.008747,-0.014341999999999999,-40.18,2.37,-24.0,1a
2019-07-12_102208:540,-0.494171,-0.034058,-0.06253099999999999,0.001126,-0.011188,-0.010709999999999999,-40.18,2.37,-24.0,1a
2019-07-12_102208:560,-0.47995,-0.038635,-0.067596,-0.000278,-0.012439,-0.011443,-40.18,2.37,-24.0,1a
2019-07-12_102208:580,-0.48553500000000005,-0.024902,-0.078796,-0.003788,-0.014972,-0.015868,-39.869999,2.06,-24.0,1a
2019-07-12_102208:600,-0.532806,-0.013702,-0.078278,-0.006626000000000001,-0.014057,-0.014769,-39.869999,2.06,-24.0,1a
2019-07-12_102208:620,-0.5424800000000001,-0.01828,-0.075745,-0.0116,-0.010394,-0.009978,-40.18,1.68,-24.0,1a
2019-07-12_102208:640,-0.5272220000000001,-0.028961,-0.0737,-0.015842,-0.005359,-0.00952,-40.18,1.68,-24.0,1a
2019-07-12_102208:660,-0.49468999999999996,-0.021332,-0.083374,-0.020237,-0.0037719999999999997,-0.012023,-38.369999,1.0,-24.0,1a
2019-07-12_102208:680,-0.569916,-0.007111,-0.069641,-0.02341,-0.006945999999999999,-0.011626000000000001,-38.369999,1.0,-24.0,1a
2019-07-12_102208:700,-0.6873779999999999,-0.0030210000000000002,-0.09353600000000001,-0.031833,-0.017688,-0.011106999999999999,-38.369999,1.0,-24.0,1a
2019-07-12_102208:720,-0.687866,0.01828,-0.098633,-0.034885,-0.019336000000000002,-0.010893,-39.060001,-1.25,-24.75,1a
2019-07-12_102208:740,-0.602478,0.032013,-0.12048299999999999,-0.039126999999999995,-0.022479,-0.013701,-39.060001,-1.25,-24.75,1a
2019-07-12_102208:760,-0.531281,0.061005,-0.14032,-0.045047000000000004,-0.023273,-0.019927,-39.060001,-1.25,-24.75,1a
2019-07-12_102208:780,-0.445862,0.089478,-0.169281,-0.048649,-0.027576,-0.02484,-39.060001,-2.75,-25.18,1a
2019-07-12_102208:800,-0.382812,0.114899,-0.186066,-0.050876,-0.030902,-0.027281,-39.060001,-2.75,-25.18,1a
2019-07-12_102208:820,-0.437225,0.131653,-0.166229,-0.052036,-0.025072999999999998,-0.030211000000000002,-38.18,-3.87,-26.0,1a
2019-07-12_102208:840,-0.501801,0.164703,-0.160645,-0.053684,-0.010974,-0.026579000000000002,-38.18,-3.87,-26.0,1a
2019-07-12_102208:860,-0.46417200000000003,0.17538499999999999,-0.161652,-0.054874,-0.00072,-0.010497,-38.18,-3.87,-26.0,1a
2019-07-12_102208:880,-0.46670500000000004,0.162689,-0.144897,-0.055393,0.004529,0.008119,-36.68,-6.5,-25.18,1a
2019-07-12_102208:900,-0.47433500000000006,0.145905,-0.136749,-0.054537999999999996,0.007306,0.020143,-36.68,-6.5,-25.18,1a
2019-07-12_102208:920,-0.492126,0.118958,-0.11080899999999999,-0.052341,0.009167,0.027833,-37.75,-8.37,-24.75,1a
2019-07-12_102208:940,-0.47079499999999996,0.100647,-0.104706,-0.049503,0.007763,0.036531,-37.75,-8.37,-24.75,1a
2019-07-12_102208:960,-0.43927,0.073212,-0.10116599999999999,-0.04639,0.001446,0.044435,-37.75,-8.37,-24.75,1a
2019-07-12_102208:980,-0.43518100000000004,0.053375,-0.10675,-0.044132,-0.008319,0.048524,-38.18,-8.68,-24.0,1a
2019-07-12_102209:000,-0.432159,0.030487,-0.104706,-0.041721,-0.016773,0.049531,-38.18,-8.68,-24.0,1a
2019-07-12_102209:020,-0.46417200000000003,0.021332,-0.09963999999999999,-0.038547000000000005,-0.020862000000000002,0.048524,-38.5,-8.68,-24.059998999999998,1a
2019-07-12_102209:040,-0.475372,0.021332,-0.09811399999999999,-0.035953,-0.019946000000000002,0.045686000000000004,-38.5,-8.68,-24.059998999999998,1a
2019-07-12_102209:060,-0.476379,0.021332,-0.094055,-0.035038,-0.016284,0.044282,-38.5,-8.68,-24.059998999999998,1a
2019-07-12_102209:080,-0.45706199999999997,0.015747,-0.08996599999999999,-0.034244,-0.012195000000000001,0.046357999999999996,-38.869999,-8.0,-23.68,1a
2019-07-12_102209:100,-0.435699,0.002014,-0.081848,-0.033451,-0.008747,0.047333999999999994,-38.869999,-8.0,-23.68,1a
2019-07-12_102209:120,-0.430634,-0.007111,-0.078796,-0.032962,-0.006548999999999999,0.045228,-38.5,-7.18,-22.870001000000002,1a
2019-07-12_102209:140,-0.41943400000000003,-0.018799,-0.065582,-0.031498000000000005,-0.004993,0.044343,-38.5,-7.18,-22.870001000000002,1a
2019-07-12_102209:160,-0.425537,-0.025908999999999998,-0.060486,-0.028385000000000004,-0.004229999999999999,0.044557,-38.5,-7.18,-22.870001000000002,1a
2019-07-12_102209:180,-0.417389,-0.036591000000000005,-0.063538,-0.025089,-0.0055119999999999995,0.042634,-38.18,-7.56,-24.870001000000002,1a
2019-07-12_102209:200,-0.423004,-0.039642000000000004,-0.060486,-0.020908000000000003,-0.0076170000000000005,0.038452999999999994,-38.18,-7.56,-24.870001000000002,1a
2019-07-12_102209:220,-0.453003,-0.044219999999999995,-0.063019,-0.015842,-0.011066,0.033815,-37.75,-5.68,-22.870001000000002,1a
2019-07-12_102209:240,-0.48043800000000003,-0.051330999999999995,-0.056427,-0.009922,-0.01305,0.029298,-37.75,-5.68,-22.870001000000002,1a
2019-07-12_102209:260,-0.5541689999999999,-0.064545,-0.069641,-0.003147,-0.013843000000000001,0.025636000000000003,-37.75,-5.68,-22.870001000000002,1a
2019-07-12_102209:280,-0.546021,-0.08081100000000001,-0.07928500000000001,0.005703,-0.014911,0.024782,-38.18,-5.0,-24.059998999999998,1a
2019-07-12_102209:300,-0.519592,-0.097107,-0.083374,0.017453,-0.015766,0.020479,-38.18,-5.0,-24.059998999999998,1a
2019-07-12_102209:320,-0.579071,-0.100159,-0.078796,0.029507,-0.016681,0.012483,-38.869999,-3.87,-24.059998999999998,1a
2019-07-12_102209:340,-0.657379,-0.110321,-0.139282,0.040341,-0.019091999999999998,0.009126,-38.869999,-3.87,-24.059998999999998,1a
2019-07-12_102209:360,-0.720917,-0.134216,-0.134216,0.051174000000000004,-0.026202999999999997,0.014802000000000001,-38.869999,-3.87,-24.059998999999998,1a
2019-07-12_102209:380,-0.632965,-0.153534,-0.189636,0.061795,-0.029712,0.015169,-38.5,-3.56,-22.870001000000002,1a
2019-07-12_102209:400,-0.515533,-0.157074,-0.203369,0.067074,-0.035816,0.009431,-38.5,-3.56,-22.870001000000002,1a
2019-07-12_102209:420,-0.385376,-0.12454200000000001,-0.21554600000000002,0.069546,-0.042102,0.003572,-37.68,-1.25,-24.5,1a
2019-07-12_102209:440,-0.386902,-0.11538699999999999,-0.21911599999999998,0.06292400000000001,-0.04253,0.003053,-37.68,-1.25,-24.5,1a
2019-07-12_102209:460,-0.44384799999999996,-0.12301600000000001,-0.191162,0.052609,-0.033557,0.006196,-37.68,-1.25,-24.5,1a
2019-07-12_102209:480,-0.481476,-0.135742,-0.180481,0.042660000000000003,-0.018421,0.002229,-37.25,-1.25,-26.5,1a
2019-07-12_102209:500,-0.42807,-0.152008,-0.186066,0.032925,-0.009448,-0.008634999999999999,-37.25,-1.25,-26.5,1a
2019-07-12_102209:520,-0.411804,-0.1586,-0.170807,0.027798000000000003,-0.004718,-0.015685,-35.75,0.56,-27.68,1a
2019-07-12_102209:540,-0.41485600000000006,-0.181488,-0.161163,0.026486000000000003,-0.004444,-0.017485,-35.75,0.56,-27.68,1a
2019-07-12_102209:560,-0.431122,-0.186584,-0.159119,0.028988,-0.006458,-0.020781,-35.75,0.56,-27.68,1a
2019-07-12_102209:580,-0.414337,-0.172852,-0.165741,0.033779,-0.0125,-0.025176,-35.369999,1.25,-26.5,1a
2019-07-12_102209:600,-0.423492,-0.148956,-0.170319,0.040402,-0.019,-0.029936,-35.369999,1.25,-26.5,1a
2019-07-12_102209:620,-0.454529,-0.101685,-0.172333,0.044338999999999996,-0.023853,-0.037505000000000004,-36.18,0.68,-26.5,1a
2019-07-12_102209:640,-0.47079499999999996,-0.066071,-0.166748,0.044338999999999996,-0.025653,-0.04547,-36.18,0.68,-26.5,1a
2019-07-12_102209:660,-0.484497,-0.031006,-0.156067,0.040219,-0.022937,-0.047789,-36.18,0.68,-26.5,1a
2019-07-12_102209:680,-0.478912,-0.017792,-0.142853,0.033963,-0.016375999999999998,-0.045897,-34.25,1.0,-27.25,1a
2019-07-12_102209:700,-0.463654,-0.010162000000000001,-0.127594,0.026119999999999997,-0.008533,-0.044157999999999996,-34.25,1.0,-27.25,1a
2019-07-12_102209:720,-0.453003,-0.006592,-0.12301600000000001,0.019284,-0.002735,-0.041838,-35.060001,0.68,-28.059998999999998,1a
2019-07-12_102209:740,-0.423004,-0.005065999999999999,-0.11438,0.01379,0.001385,-0.039427,-35.060001,0.68,-28.059998999999998,1a
2019-07-12_102209:760,-0.406219,-0.0035399999999999997,-0.10775799999999999,0.009487,0.002514,-0.038114999999999996,-35.060001,0.68,-28.059998999999998,1a
2019-07-12_102209:780,-0.406738,0.0,-0.100647,0.005825,0.00227,-0.036802999999999995,-34.25,-0.5,-27.68,1a
2019-07-12_102209:800,-0.431122,0.001007,-0.097595,0.003109,0.00105,-0.033750999999999996,-34.25,-0.5,-27.68,1a
2019-07-12_102209:820,-0.438751,-0.000488,-0.106232,0.000515,-0.001178,-0.03015,-35.369999,-2.0,-28.059998999999998,1a
2019-07-12_102209:840,-0.44232200000000005,0.0,-0.10116599999999999,-0.0013460000000000002,-0.003375,-0.028166000000000004,-35.369999,-2.0,-28.059998999999998,1a
2019-07-12_102209:860,-0.45401,-0.002014,-0.10116599999999999,-0.002933,-0.005054,-0.026366000000000004,-35.369999,-2.0,-28.059998999999998,1a
2019-07-12_102209:880,-0.48706099999999997,-0.005065999999999999,-0.095581,-0.004123,-0.004229999999999999,-0.023131,-35.369999,-3.06,-26.5,1a
2019-07-12_102209:900,-0.497742,-0.006592,-0.10318,-0.0052829999999999995,-0.003833,-0.020842,-35.369999,-3.06,-26.5,1a
2019-07-12_102209:920,-0.49722299999999997,-0.006592,-0.107269,-0.006504,-0.004383,-0.020597999999999998,-35.060001,-4.5,-27.25,1a
2019-07-12_102209:940,-0.50943,-0.000488,-0.115906,-0.007358,-0.006885,-0.021330000000000002,-35.060001,-4.5,-27.25,1a
2019-07-12_102209:960,-0.5119630000000001,0.007599,-0.11843900000000002,-0.008762,-0.008655,-0.023313999999999998,-35.060001,-4.5,-27.25,1a
2019-07-12_102209:980,-0.532806,0.034058,-0.128601,-0.010806999999999999,-0.010851999999999999,-0.026244,-34.68,-5.56,-28.0,1a
2019-07-12_102210:000,-0.629425,0.065582,-0.122528,-0.014377000000000001,-0.012103000000000001,-0.026641,-34.68,-5.56,-28.0,1a
2019-07-12_102210:020,-0.655853,0.099121,-0.176422,-0.019687,-0.014178999999999999,-0.023497,-34.369999,-7.06,-27.559998999999998,1a
2019-07-12_102210:040,-0.665497,0.10928299999999999,-0.164703,-0.026066000000000002,-0.016498,-0.01715,-34.369999,-7.06,-27.559998999999998,1a
2019-07-12_102210:060,-0.52774,0.12658699999999998,-0.19165,-0.030704000000000002,-0.02016,-0.011351,-34.369999,-7.06,-27.559998999999998,1a
2019-07-12_102210:080,-0.46060200000000007,0.132172,-0.21554600000000002,-0.03458,-0.023609,-0.007201000000000001,-34.75,-8.25,-28.0,1a
2019-07-12_102210:100,-0.40976,0.141846,-0.245544,-0.036686,-0.030628,-0.006194,-34.75,-8.25,-28.0,1a
2019-07-12_102210:120,-0.399109,0.14843800000000001,-0.248108,-0.037937,-0.032825,-0.009581000000000001,-33.25,-9.75,-28.370001000000002,1a
2019-07-12_102210:140,-0.447906,0.168274,-0.209961,-0.040012,-0.02544,-0.01184,-33.25,-9.75,-28.370001000000002,1a
2019-07-12_102210:160,-0.444855,0.169281,-0.21249400000000002,-0.041416,-0.015186000000000002,-0.004607,-33.25,-9.75,-28.370001000000002,1a
2019-07-12_102210:180,-0.401123,0.148956,-0.20538299999999998,-0.042942,-0.01012,0.00818,-32.25,-10.5,-28.870001000000002,1a
2019-07-12_102210:200,-0.41485600000000006,0.130127,-0.193176,-0.041538,-0.009052,0.017061,-32.25,-10.5,-28.870001000000002,1a
2019-07-12_102210:220,-0.446899,0.109802,-0.17337,-0.038822,-0.009113,0.018129,-32.25,-11.56,-28.059998999999998,1a
2019-07-12_102210:240,-0.45043900000000003,0.099121,-0.161652,-0.035556,-0.009326000000000001,0.018953,-32.25,-11.56,-28.059998999999998,1a
2019-07-12_102210:260,-0.434174,0.081329,-0.154541,-0.030704000000000002,-0.010333,0.024568,-32.25,-11.56,-28.059998999999998,1a
2019-07-12_102210:280,-0.429108,0.076752,-0.1586,-0.026218,-0.013781999999999999,0.029878,-31.870001000000002,-12.37,-27.25,1a
2019-07-12_102210:300,-0.42605600000000005,0.081329,-0.165222,-0.022831,-0.019,0.03293,-31.870001000000002,-12.37,-27.25,1a
2019-07-12_102210:320,-0.42605600000000005,0.08743300000000001,-0.1698,-0.020237,-0.023212,0.036073,-33.0,-12.06,-28.870001000000002,1a
2019-07-12_102210:340,-0.441284,0.09301799999999999,-0.168274,-0.019778999999999998,-0.024311000000000003,0.039522,-33.0,-12.06,-28.870001000000002,1a
2019-07-12_102210:360,-0.444855,0.09201000000000001,-0.172852,-0.02161,-0.022418,0.04178,-33.0,-12.06,-28.870001000000002,1a
2019-07-12_102210:380,-0.44638100000000003,0.08081100000000001,-0.167267,-0.02454,-0.018359999999999998,0.044160000000000005,-32.25,-12.06,-27.68,1a
2019-07-12_102210:400,-0.448425,0.068115,-0.159119,-0.027073000000000003,-0.013965,0.045747,-32.25,-12.06,-27.68,1a
2019-07-12_102210:420,-0.44281000000000004,0.048798,-0.151001,-0.028720999999999997,-0.008655,0.045228,-32.25,-11.25,-29.25,1a
2019-07-12_102210:440,-0.433655,0.041687,-0.143372,-0.029911,-0.002857,0.043641,-32.25,-11.25,-29.25,1a
2019-07-12_102210:460,-0.421967,0.027954000000000003,-0.135742,-0.030032999999999997,0.0016600000000000002,0.042695,-32.25,-11.25,-29.25,1a
2019-07-12_102210:480,-0.429108,0.022369,-0.135223,-0.029667000000000002,0.004895,0.041231,-32.25,-11.25,-28.5,1a
2019-07-12_102210:500,-0.427063,0.018799,-0.130646,-0.027805,0.006299,0.038179000000000005,-32.25,-11.25,-28.5,1a
2019-07-12_102210:520,-0.438751,0.01828,-0.12506099999999998,-0.024814,0.0069700000000000005,0.034852,-31.870001000000002,-11.18,-27.25,1a
2019-07-12_102210:540,-0.459595,0.021332,-0.12301600000000001,-0.020908000000000003,0.007977,0.031892000000000004,-31.870001000000002,-11.18,-27.25,1a
2019-07-12_102210:560,-0.49722299999999997,0.023375999999999997,-0.11538699999999999,-0.017307,0.009961,0.029481,-31.870001000000002,-11.18,-27.25,1a
2019-07-12_102210:580,-0.515533,0.025908999999999998,-0.127106,-0.013858,0.011212,0.029024,-33.0,-10.5,-26.870001000000002,1a
2019-07-12_102210:600,-0.501801,0.022369,-0.130646,-0.009281000000000001,0.008496,0.02997,-33.0,-10.5,-26.870001000000002,1a
2019-07-12_102210:620,-0.490112,0.011169,-0.138275,-0.006962,0.005108,0.027955,-33.75,-10.06,-26.059998999999998,1a
2019-07-12_102210:640,-0.599915,0.001007,-0.118958,-0.004123,0.002667,0.025178,-33.75,-10.06,-26.059998999999998,1a
2019-07-12_102210:660,-0.663971,-0.026917,-0.181488,-0.000675,-0.0052369999999999995,0.024628999999999998,-33.75,-10.06,-26.059998999999998,1a
2019-07-12_102210:680,-0.704651,-0.041168,-0.162689,0.004361,-0.012165,0.026094,-34.5,-9.75,-25.25,1a
2019-07-12_102210:700,-0.594849,-0.062012,-0.219635,0.007687,-0.02486,0.027039999999999998,-34.5,-9.75,-25.25,1a
2019-07-12_102210:720,-0.47180200000000005,-0.086914,-0.222687,0.01022,-0.028308,0.027162000000000002,-33.75,-9.75,-26.059998999999998,1a
2019-07-12_102210:740,-0.43774399999999997,-0.104218,-0.220123,0.01022,-0.023456,0.029207,-33.75,-9.75,-26.059998999999998,1a
2019-07-12_102210:760,-0.404694,-0.132172,-0.21048000000000003,0.011134999999999999,-0.010578,0.031618,-33.75,-9.75,-26.059998999999998,1a
2019-07-12_102210:780,-0.42605600000000005,-0.152008,-0.18249500000000002,0.013333000000000001,0.004925,0.028169,-34.369999,-8.56,-27.68,1a
2019-07-12_102210:800,-0.42758199999999996,-0.170807,-0.180481,0.016507,0.014599,0.017824,-34.369999,-8.56,-27.68,1a
2019-07-12_102210:820,-0.399109,-0.181488,-0.170807,0.021359,0.016064,0.006135,-33.68,-6.75,-26.059998999999998,1a
2019-07-12_102210:840,-0.393494,-0.17843599999999998,-0.143372,0.028469,0.013744999999999999,-0.002684,-33.68,-6.75,-26.059998999999998,1a
2019-07-12_102210:860,-0.43518100000000004,-0.174896,-0.133179,0.034512,0.010296,-0.009459,-33.68,-6.75,-26.059998999999998,1a
2019-07-12_102210:880,-0.447906,-0.162689,-0.141327,0.039883,0.0055049999999999995,-0.013425999999999999,-34.0,-5.56,-26.059998999999998,1a
2019-07-12_102210:900,-0.434692,-0.147949,-0.134705,0.044979000000000005,-0.000537,-0.016265,-34.0,-5.56,-26.059998999999998,1a
2019-07-12_102210:920,-0.42758199999999996,-0.117432,-0.142853,0.048184,-0.008319,-0.022917,-34.369999,-5.56,-26.059998999999998,1a
2019-07-12_102210:940,-0.431641,-0.09149199999999999,-0.145905,0.048519,-0.017169,-0.032286,-34.369999,-5.56,-26.059998999999998,1a
2019-07-12_102210:960,-0.441803,-0.053375,-0.146912,0.046231,-0.024340999999999998,-0.037505000000000004,-34.369999,-5.56,-26.059998999999998,1a
2019-07-12_102210:980,-0.446899,-0.039124,-0.141846,0.041745,-0.027301,-0.038787,-34.0,-4.5,-27.25,1a
2019-07-12_102211:000,-0.45806899999999995,-0.023895,-0.134216,0.035946,-0.024799,-0.040496,-34.0,-4.5,-27.25,1a
2019-07-12_102211:020,-0.45706199999999997,-0.016266,-0.130646,0.029934,-0.018207,-0.040831,-32.869999,-5.25,-27.68,1a
2019-07-12_102211:040,-0.445374,-0.007599,-0.124054,0.024929,-0.011706999999999999,-0.040251,-32.869999,-5.25,-27.68,1a
2019-07-12_102211:060,-0.438751,-0.001007,-0.118958,0.020565,-0.006793,-0.039763,-32.869999,-5.25,-27.68,1a
2019-07-12_102211:080,-0.41485600000000006,0.008636,-0.11691300000000002,0.016842,-0.004596,-0.038573,-31.75,-6.0,-28.059998999999998,1a
2019-07-12_102211:100,-0.41232299999999994,0.013702,-0.111847,0.013577,-0.0035280000000000003,-0.035918,-31.75,-6.0,-28.059998999999998,1a
2019-07-12_102211:120,-0.425018,0.019806,-0.111328,0.010739,-0.0031309999999999997,-0.032622000000000005,-32.18,-6.37,-27.68,1a
2019-07-12_102211:140,-0.431122,0.021332,-0.111328,0.007412,-0.0037719999999999997,-0.028441,-32.18,-6.37,-27.68,1a
2019-07-12_102211:160,-0.43621800000000005,0.023895,-0.11795,0.0042380000000000004,-0.005756,-0.022704,-32.18,-6.37,-27.68,1a
2019-07-12_102211:180,-0.484009,0.025421,-0.111328,0.000698,-0.005298,-0.016661000000000002,-31.75,-7.06,-28.059998999999998,1a
2019-07-12_102211:200,-0.49468999999999996,0.025421,-0.118958,-0.003879,-0.005634,-0.011168,-31.75,-7.06,-28.059998999999998,1a
2019-07-12_102211:220,-0.506897,0.025421,-0.116425,-0.008213,-0.005054,-0.007445,-30.68,-7.5,-26.870001000000002,1a
2019-07-12_102211:240,-0.537384,0.026917,-0.127594,-0.012729,-0.006092,-0.00659,-30.68,-7.5,-26.870001000000002,1a
2019-07-12_102211:260,-0.526215,0.03302,-0.13623,-0.017582,-0.006854000000000001,-0.006652,-30.68,-7.5,-26.870001000000002,1a
2019-07-12_102211:280,-0.5419619999999999,0.046752999999999996,-0.136749,-0.023136,-0.009387000000000001,-0.004118999999999999,-30.68,-7.06,-27.68,1a
2019-07-12_102211:300,-0.676178,0.055389,-0.13623,-0.028873000000000003,-0.012195000000000001,-0.000487,-30.68,-7.06,-27.68,1a
2019-07-12_102211:320,-0.693481,0.06253099999999999,-0.198792,-0.035618000000000004,-0.020221,0.002839,-30.25,-8.25,-29.25,1a
2019-07-12_102211:340,-0.67569,0.063538,-0.180481,-0.039737,-0.020069,0.005311,-30.25,-8.25,-29.25,1a
2019-07-12_102211:360,-0.5348510000000001,0.068115,-0.212006,-0.042606,-0.021137,0.005861,-30.25,-8.25,-29.25,1a
2019-07-12_102211:380,-0.420441,0.075745,-0.22421300000000002,-0.043247,-0.021075999999999998,0.00525,-30.0,-9.0,-26.5,1a
2019-07-12_102211:400,-0.377228,0.082336,-0.23791500000000002,-0.042667000000000004,-0.02193,0.00229,-30.0,-9.0,-26.5,1a
2019-07-12_102211:420,-0.410797,0.08996599999999999,-0.227264,-0.040133999999999996,-0.017169,-0.004454,-28.75,-9.75,-27.68,1a
2019-07-12_102211:440,-0.47332799999999997,0.11538699999999999,-0.192688,-0.037204,-0.005634,-0.008513,-28.75,-9.75,-27.68,1a
2019-07-12_102211:460,-0.421967,0.130646,-0.20742800000000003,-0.034549,-0.001056,-0.003539,-28.75,-9.75,-27.68,1a
2019-07-12_102211:480,-0.399109,0.134216,-0.189117,-0.031772,0.0009279999999999999,0.005678,-29.18,-11.25,-27.68,1a
2019-07-12_102211:500,-0.399109,0.131165,-0.183533,-0.030979000000000003,0.000805,0.015931,-29.18,-11.25,-27.68,1a
2019-07-12_102211:520,-0.45553599999999994,0.11080899999999999,-0.16217,-0.031101,0.000195,0.028810000000000002,-28.75,-11.68,-27.25,1a
2019-07-12_102211:540,-0.473846,0.085388,-0.162689,-0.030764999999999997,-0.0035280000000000003,0.039522,-28.75,-11.68,-27.25,1a
2019-07-12_102211:560,-0.460114,0.048798,-0.162689,-0.030368,-0.008990999999999999,0.04355,-28.75,-11.68,-27.25,1a
2019-07-12_102211:580,-0.43774399999999997,0.029968,-0.159119,-0.028141000000000003,-0.014575,0.043489,-28.75,-12.06,-26.5,1a
2019-07-12_102211:600,-0.44384799999999996,0.013213999999999998,-0.157593,-0.024875,-0.017475,0.040833999999999995,-28.75,-12.06,-26.5,1a
2019-07-12_102211:620,-0.44384799999999996,0.011687999999999999,-0.156586,-0.021671,-0.016773,0.037172000000000004,-29.18,-11.68,-26.5,1a
2019-07-12_102211:640,-0.459595,0.013213999999999998,-0.143372,-0.019108,-0.013843000000000001,0.033662,-29.18,-11.68,-26.5,1a
2019-07-12_102211:660,-0.457581,0.015228,-0.144897,-0.016971,-0.010669,0.030366000000000004,-29.18,-11.68,-26.5,1a
2019-07-12_102211:680,-0.449432,0.021332,-0.128113,-0.01511,-0.006548999999999999,0.024904,-29.559998999999998,-10.87,-26.059998999999998,1a
2019-07-12_102211:700,-0.434692,0.021332,-0.110321,-0.013340000000000001,-0.0015140000000000002,0.02292,-29.18,-10.87,-26.059998999999998,1a
2019-07-12_102211:720,-0.434692,0.021332,-0.110321,-0.013340000000000001,-0.0015140000000000002,0.02292,-29.18,-10.87,-26.059998999999998,1a
2019-07-12_102211:740,-0.423004,0.020325,-0.101685,-0.011661,0.001599,0.022798,-29.18,-10.87,-26.059998999999998,1a
2019-07-12_102211:760,-0.410797,0.021851,-0.099121,-0.009281000000000001,0.002667,0.023897,-29.18,-10.87,-26.059998999999998,1a
2019-07-12_102211:780,-0.408752,0.021332,-0.102173,-0.007145,0.00108,0.024843,-30.0,-10.56,-26.059998999999998,1a
2019-07-12_102211:800,-0.42248500000000005,0.021332,-0.09811399999999999,-0.004764,-0.0012699999999999999,0.023712999999999998,-30.0,-10.56,-26.059998999999998,1a
2019-07-12_102211:820,-0.44433599999999995,0.025421,-0.103699,-0.002353,-0.00307,0.020326,-30.0,-9.5,-25.25,1a
2019-07-12_102211:840,-0.48300200000000004,0.038116000000000004,-0.096588,0.000302,-0.004718,0.016267,-30.0,-9.5,-25.25,1a
2019-07-12_102211:860,-0.520111,0.047791,-0.104706,0.002194,-0.006,0.014894,-30.0,-9.5,-25.25,1a
2019-07-12_102211:880,-0.520111,0.052338,-0.12149000000000001,0.002438,-0.008411,0.016481,-29.18,-9.5,-24.870001000000002,1a
2019-07-12_102211:900,-0.503845,0.050842,-0.122528,0.001126,-0.009876000000000001,0.017946,-29.18,-9.5,-24.870001000000002,1a
2019-07-12_102211:920,-0.514008,0.034546,-0.144897,-0.0022010000000000003,-0.011127,0.017946,-28.5,-8.68,-25.68,1a
2019-07-12_102211:940,-0.6873779999999999,0.0055850000000000006,-0.145386,-0.005375,-0.010791,0.01819,-28.5,-8.68,-25.68,1a
2019-07-12_102211:960,-0.649231,-0.050323,-0.257751,-0.006076,-0.017841,0.020600999999999998,-28.5,-8.68,-25.68,1a
2019-07-12_102211:980,-0.706177,-0.08996599999999999,-0.207916,-0.001285,-0.014513999999999999,0.019258,-29.18,-8.37,-26.059998999999998,1a
2019-07-12_102212:000,-0.554688,-0.102173,-0.249115,0.0060079999999999995,-0.017230000000000002,0.008394,-29.18,-8.37,-26.059998999999998,1a
2019-07-12_102212:020,-0.445862,-0.09301799999999999,-0.248596,0.01318,-0.013568,-0.0014939999999999999,-29.18,-9.06,-26.870001000000002,1a
2019-07-12_102212:040,-0.36911,-0.0737,-0.23233,0.015194,-0.009845,0.0017100000000000001,-29.18,-9.06,-26.870001000000002,1a
2019-07-12_102212:060,-0.435699,-0.07928500000000001,-0.206909,0.01434,-0.001911,0.014802000000000001,-29.18,-9.06,-26.870001000000002,1a
2019-07-12_102212:080,-0.461639,-0.10675,-0.201843,0.012478,0.0069700000000000005,0.022401,-28.059998999999998,-8.25,-25.25,1a
2019-07-12_102212:100,-0.42147799999999996,-0.11795,-0.198792,0.011257,0.007916,0.019014,-28.059998999999998,-8.25,-25.25,1a
2019-07-12_102212:120,-0.393005,-0.128601,-0.189117,0.012051000000000001,0.004529,0.012178,-27.68,-6.37,-25.68,1a
2019-07-12_102212:140,-0.409271,-0.136749,-0.177948,0.013607,0.00224,0.006929,-27.68,-6.37,-25.68,1a
2019-07-12_102212:160,-0.467743,-0.142853,-0.167755,0.016507,0.001935,0.00345,-27.68,-6.37,-25.68,1a
2019-07-12_102212:180,-0.47995,-0.13269,-0.167755,0.021633000000000003,0.000989,-0.001952,-27.68,-5.56,-25.25,1a
2019-07-12_102212:200,-0.484497,-0.10318,-0.159637,0.025265,-0.0021850000000000003,-0.01248,-27.68,-5.56,-25.25,1a
2019-07-12_102212:220,-0.47079499999999996,-0.07421900000000001,-0.158112,0.026608,-0.0061530000000000005,-0.021117,-27.68,-6.0,-25.68,1a
2019-07-12_102212:240,-0.445374,-0.045226999999999996,-0.143372,0.024197,-0.00893,-0.020934,-27.68,-6.0,-25.68,1a
2019-07-12_102212:260,-0.432648,-0.040649,-0.135223,0.020809,-0.010181,-0.016538999999999998,-27.68,-6.0,-25.68,1a
2019-07-12_102212:280,-0.425537,-0.035583,-0.130127,0.016171,-0.010394,-0.016081,-27.25,-5.25,-25.68,1a
2019-07-12_102212:300,-0.418915,-0.028442000000000002,-0.127594,0.011196,-0.010791,-0.018340000000000002,-27.25,-5.25,-25.68,1a
2019-07-12_102212:320,-0.41232299999999994,-0.023895,-0.12506099999999998,0.006893000000000001,-0.010517,-0.018614,-25.75,-5.25,-26.5,1a
2019-07-12_102212:340,-0.405212,-0.028442000000000002,-0.12558,0.0035060000000000004,-0.010272,-0.018004,-25.75,-5.25,-26.5,1a
2019-07-12_102212:360,-0.405212,-0.033539,-0.12353499999999999,0.000698,-0.009265,-0.017728999999999998,-25.75,-5.25,-26.5,1a
2019-07-12_102212:380,-0.411804,-0.03302,-0.122528,0.00011899999999999999,-0.007526000000000001,-0.018553,-25.75,-5.25,-26.059998999999998,1a
2019-07-12_102212:400,-0.432159,-0.024902,-0.118958,-0.000156,-0.00539,-0.02072,-25.75,-5.25,-26.059998999999998,1a
2019-07-12_102212:420,-0.42807,-0.015228,-0.128601,-0.000889,-0.005695,-0.020322999999999997,-25.5,-6.37,-26.5,1a
2019-07-12_102212:440,-0.439758,-0.011169,-0.130646,-0.001957,-0.008075,-0.014281,-25.5,-6.37,-26.5,1a
2019-07-12_102212:460,-0.49111899999999997,-0.012695,-0.138794,-0.00394,-0.009265,-0.007598000000000001,-25.5,-6.37,-26.5,1a
2019-07-12_102212:480,-0.491638,-0.012695,-0.145905,-0.0076939999999999995,-0.011066,-0.003935,-25.5,-7.06,-26.059998999999998,1a
2019-07-12_102212:500,-0.510437,-0.010162000000000001,-0.149475,-0.011417,-0.011309999999999999,-0.0024100000000000002,-25.5,-7.06,-26.059998999999998,1a
2019-07-12_102212:520,-0.5343319999999999,-0.011169,-0.15506,-0.015903,-0.011463,-0.001738,-24.870001000000002,-7.5,-26.5,1a
2019-07-12_102212:540,-0.531281,-0.012177,-0.164703,-0.020359,-0.010791,-0.002257,-24.870001000000002,-7.5,-26.5,1a
2019-07-12_102212:560,-0.521637,-0.011169,-0.172852,-0.023624000000000003,-0.008472,-0.00302,-24.870001000000002,-7.5,-26.5,1a
2019-07-12_102212:580,-0.52774,0.009644,-0.177429,-0.026676,-0.0066099999999999996,-0.002745,-25.25,-7.06,-25.68,1a
2019-07-12_102212:600,-0.682281,0.033539,-0.153534,-0.029331,-0.001392,-0.000609,-25.25,-7.06,-25.68,1a
2019-07-12_102212:620,-0.640594,0.075745,-0.20843499999999998,-0.034641000000000005,-0.001056,0.004091,-24.5,-8.25,-26.870001000000002,1a
2019-07-12_102212:640,-0.639587,0.082336,-0.168793,-0.040256,0.004712,0.013093,-24.5,-8.25,-26.870001000000002,1a
2019-07-12_102212:660,-0.48095699999999997,0.065582,-0.178955,-0.046451,0.004132,0.027039999999999998,-24.5,-8.25,-26.870001000000002,1a
2019-07-12_102212:680,-0.348267,0.041168,-0.190125,-0.04871,0.005719,0.036927999999999996,-24.5,-9.0,-26.059998999999998,1a
2019-07-12_102212:700,-0.475372,0.015228,-0.16217,-0.045719,0.006451,0.030031,-24.5,-9.0,-26.059998999999998,1a
2019-07-12_102212:720,-0.521637,0.028442000000000002,-0.186066,-0.041477,0.007916,0.008333,-24.870001000000002,-9.0,-26.059998999999998,1a
2019-07-12_102212:740,-0.45196499999999995,0.057434000000000006,-0.164703,-0.037295999999999996,0.006512,-0.000365,-24.870001000000002,-9.0,-26.059998999999998,1a
2019-07-12_102212:760,-0.469757,0.050842,-0.161652,-0.030979000000000003,-0.0008730000000000001,0.007326000000000001,-24.870001000000002,-9.0,-26.059998999999998,1a
2019-07-12_102212:780,-0.44995100000000005,0.036591000000000005,-0.1698,-0.027256,-0.0060609999999999995,0.012636,-24.059998999999998,-9.75,-24.5,1a
2019-07-12_102212:800,-0.430634,0.03302,-0.161652,-0.023349,-0.010181,0.016878,-24.059998999999998,-9.75,-24.5,1a
2019-07-12_102212:820,-0.454529,0.019318000000000002,-0.192169,-0.017703999999999998,-0.017841,0.025453,-24.059998999999998,-9.75,-24.059998999999998,1a
2019-07-12_102212:840,-0.461639,0.007111,-0.185547,-0.012943000000000001,-0.023791999999999997,0.029878,-24.059998999999998,-9.75,-24.059998999999998,1a
2019-07-12_102212:860,-0.46469099999999997,0.001495,-0.172333,-0.009739,-0.023212,0.028291000000000004,-24.059998999999998,-9.75,-24.059998999999998,1a
2019-07-12_102212:880,-0.45654300000000003,0.0030210000000000002,-0.161163,-0.007297,-0.015766,0.028291000000000004,-24.5,-10.5,-24.870001000000002,1a
2019-07-12_102212:900,-0.449432,-0.000488,-0.144897,-0.005436,-0.006397,0.028901,-24.5,-10.5,-24.870001000000002,1a
2019-07-12_102212:920,-0.445374,0.0,-0.14032,-0.005771,0.000195,0.02762,-24.059998999999998,-9.75,-24.059998999999998,1a
2019-07-12_102212:940,-0.433655,-0.006592,-0.12454200000000001,-0.006962,0.003399,0.027437,-24.059998999999998,-9.75,-24.059998999999998,1a
2019-07-12_102212:960,-0.420959,-0.012177,-0.11843900000000002,-0.007816,0.003522,0.028016000000000003,-24.059998999999998,-9.75,-24.059998999999998,1a
2019-07-12_102212:980,-0.41384899999999997,-0.020325,-0.109802,-0.00867,0.002514,0.0253,-24.059998999999998,-8.56,-25.68,1a
2019-07-12_102213:000,-0.406219,-0.024902,-0.104218,-0.008823000000000001,0.000714,0.020265000000000002,-24.059998999999998,-8.56,-25.68,1a
2019-07-12_102213:020,-0.396545,-0.028442000000000002,-0.105225,-0.00748,-0.001209,0.016267,-24.5,-8.56,-24.870001000000002,1a
2019-07-12_102213:040,-0.42453,-0.032013,-0.096069,-0.004642,-0.003375,0.012483,-24.5,-8.56,-24.870001000000002,1a
2019-07-12_102213:060,-0.45907600000000004,-0.027435,-0.103699,-0.001224,-0.004596,0.008394,-24.5,-8.56,-24.870001000000002,1a
2019-07-12_102213:080,-0.467224,-0.020325,-0.10116599999999999,0.0027129999999999997,-0.005756,0.005525,-23.75,-8.25,-25.68,1a
2019-07-12_102213:100,-0.489594,-0.006592,-0.09149199999999999,0.0068319999999999995,-0.0061530000000000005,0.002687,-23.75,-8.25,-25.68,1a
2019-07-12_102213:120,-0.502808,0.006592,-0.100647,0.009945,-0.004961999999999999,0.000398,-23.75,-8.56,-25.25,1a
2019-07-12_102213:140,-0.496216,0.017792,-0.10116599999999999,0.010617,-0.004566,0.0038469999999999997,-23.75,-8.56,-25.25,1a
2019-07-12_102213:160,-0.48706099999999997,0.020844,-0.11538699999999999,0.0108,-0.006488,0.010316,-23.75,-8.56,-25.25,1a
2019-07-12_102213:180,-0.48095699999999997,0.018799,-0.13269,0.008694,-0.010059,0.014161000000000002,-24.870001000000002,-8.56,-25.68,1a
2019-07-12_102213:200,-0.47943100000000005,0.019318000000000002,-0.140808,0.006161,-0.013385,0.015137999999999999,-24.870001000000002,-8.56,-25.68,1a
2019-07-12_102213:220,-0.523651,0.021851,-0.157593,0.00372,-0.017902,0.015625999999999998,-23.75,-7.06,-26.059998999999998,1a
2019-07-12_102213:240,-0.714325,0.025908999999999998,-0.14743,0.000241,-0.019611,0.01761,-23.75,-7.06,-26.059998999999998,1a
2019-07-12_102213:260,-0.599426,0.015747,-0.231812,-0.007206000000000001,-0.028644,0.027101,-23.75,-7.06,-26.059998999999998,1a
2019-07-12_102213:280,-0.636536,-0.037108999999999996,-0.21402,-0.012516,-0.027576,0.03766,-24.5,-6.75,-26.870001000000002,1a
2019-07-12_102213:300,-0.5709529999999999,-0.10928299999999999,-0.272003,-0.014072,-0.031909,0.042299,-24.5,-6.75,-26.870001000000002,1a
2019-07-12_102213:320,-0.475861,-0.145386,-0.26181,-0.010685,-0.02605,0.040956,-22.559998999999998,-7.06,-26.5,1a
2019-07-12_102213:340,-0.410278,-0.1698,-0.22421300000000002,-0.004886,-0.017230000000000002,0.036989,-22.559998999999998,-7.06,-26.5,1a
2019-07-12_102213:360,-0.416382,-0.172333,-0.205902,-6.500000000000001e-05,-0.003986,0.034212,-22.559998999999998,-7.06,-26.5,1a
2019-07-12_102213:380,-0.43518100000000004,-0.189636,-0.192169,0.0035060000000000004,0.009015,0.031800999999999996,-21.870001000000002,-6.37,-26.870001000000002,1a
2019-07-12_102213:400,-0.394531,-0.19622799999999999,-0.190125,0.005642,0.015941999999999998,0.025514,-21.870001000000002,-6.37,-26.870001000000002,1a
2019-07-12_102213:420,-0.372162,-0.200317,-0.166748,0.008023,0.016675,0.014406,-22.25,-5.25,-26.5,1a
2019-07-12_102213:440,-0.39859,-0.198792,-0.158112,0.010159,0.013623,0.003633,-22.25,-5.25,-26.5,1a
2019-07-12_102213:460,-0.434692,-0.189636,-0.1586,0.013119,0.009015,-0.000762,-22.25,-5.25,-26.5,1a
2019-07-12_102213:480,-0.461639,-0.176422,-0.157074,0.016262000000000002,0.00404,-0.002867,-23.370001000000002,-5.25,-26.5,1a
2019-07-12_102213:500,-0.46417200000000003,-0.145905,-0.166229,0.016995,-0.00365,-0.008574,-23.370001000000002,-5.25,-26.5,1a
2019-07-12_102213:520,-0.45553599999999994,-0.121002,-0.163696,0.016232,-0.01012,-0.016081,-22.25,-4.5,-26.5,1a
2019-07-12_102213:540,-0.45401,-0.09149199999999999,-0.160645,0.013607,-0.015949,-0.021971,-22.25,-4.5,-26.5,1a
2019-07-12_102213:560,-0.453003,-0.08081100000000001,-0.157074,0.009335,-0.019,-0.02545,-22.25,-4.5,-26.5,1a
2019-07-12_102213:580,-0.45401,-0.07016,-0.147949,0.005215,-0.017353,-0.028227,-22.559998999999998,-4.0,-27.68,1a
2019-07-12_102213:600,-0.453491,-0.066071,-0.143372,0.0015220000000000001,-0.013111000000000001,-0.028807,-22.559998999999998,-4.0,-27.68,1a
2019-07-12_102213:620,-0.448425,-0.063019,-0.135742,-0.00095,-0.007678,-0.026427,-23.0,-5.18,-27.25,1a
2019-07-12_102213:640,-0.44232200000000005,-0.066071,-0.129639,-0.002475,-0.00307,-0.022978,-23.0,-5.18,-27.25,1a
2019-07-12_102213:660,-0.433655,-0.06405599999999999,-0.126068,-0.002872,-4.9e-05,-0.021514,-23.0,-5.18,-27.25,1a
2019-07-12_102213:680,-0.42758199999999996,-0.05996699999999999,-0.122528,-0.002659,0.001782,-0.020537,-21.5,-5.87,-27.68,1a
2019-07-12_102213:700,-0.417908,-0.05438200000000001,-0.11843900000000002,-0.002079,0.002392,-0.019194,-21.5,-5.87,-27.68,1a
2019-07-12_102213:720,-0.420441,-0.048798,-0.115906,-0.001957,0.002728,-0.018859,-22.25,-6.25,-27.68,1a
2019-07-12_102213:740,-0.431641,-0.046752999999999996,-0.12301600000000001,-0.002811,0.001538,-0.017211,-22.25,-6.25,-27.68,1a
2019-07-12_102213:760,-0.438751,-0.046265,-0.122528,-0.0036659999999999996,-0.000263,-0.013701,-22.25,-6.25,-27.68,1a
2019-07-12_102213:780,-0.462646,-0.044739,-0.12149000000000001,-0.005832,-0.0012699999999999999,-0.010985,-22.559998999999998,-6.68,-26.870001000000002,1a
2019-07-12_102213:800,-0.49111899999999997,-0.040649,-0.119476,-0.008732,-0.000995,-0.008329999999999999,-22.559998999999998,-6.68,-26.870001000000002,1a
2019-07-12_102213:820,-0.47842399999999996,-0.043213,-0.133698,-0.012943000000000001,-0.0008730000000000001,-0.0038740000000000003,-22.25,-7.37,-27.68,1a
2019-07-12_102213:840,-0.492126,-0.047791,-0.12658699999999998,-0.016575,-0.001056,-0.002257,-22.25,-7.37,-27.68,1a
2019-07-12_102213:860,-0.5058590000000001,-0.051849,-0.139282,-0.021152,-0.0014529999999999999,-0.005004,-22.25,-7.37,-27.68,1a
2019-07-12_102213:880,-0.475372,-0.047791,-0.131653,-0.023349,0.001324,-0.006377000000000001,-21.5,-7.06,-27.68,1a
2019-07-12_102213:900,-0.47689799999999993,-0.035065,-0.135742,-0.024326,0.003003,-0.0070480000000000004,-21.5,-7.06,-27.68,1a
2019-07-12_102213:920,-0.64212,-0.022369,-0.12048299999999999,-0.027805,0.0009279999999999999,-0.006194,-21.870001000000002,-8.25,-28.059998999999998,1a
2019-07-12_102213:940,-0.6507569999999999,-0.011169,-0.193695,-0.030032999999999997,-0.005695,-0.001952,-21.870001000000002,-8.25,-28.059998999999998,1a
2019-07-12_102213:960,-0.654327,-0.018799,-0.193176,-0.031252999999999996,-0.016375999999999998,0.006654,-21.870001000000002,-8.25,-28.059998999999998,1a
2019-07-12_102213:980,-0.575012,-0.027954000000000003,-0.20944200000000002,-0.032322000000000004,-0.027576,0.006929,-22.25,-9.75,-27.18,1a
2019-07-12_102214:000,-0.49823,-0.010162000000000001,-0.22164899999999998,-0.027744,-0.028033999999999996,-0.002257,-22.25,-9.75,-27.18,1a
2019-07-12_102214:020,-0.476379,0.017792,-0.220642,-0.023563,-0.022266,-0.007384,-21.5,-9.37,-27.68,1a
2019-07-12_102214:040,-0.417389,0.034546,-0.206909,-0.01923,-0.010578,-0.01184,-21.5,-9.37,-27.68,1a
2019-07-12_102214:060,-0.43774399999999997,0.066071,-0.14743,-0.016971,0.00639,-0.013548,-21.5,-9.37,-27.68,1a
2019-07-12_102214:080,-0.45806899999999995,0.087952,-0.151489,-0.018619,0.018658,-0.004943,-20.370001000000002,-10.5,-28.75,1a
2019-07-12_102214:100,-0.40774499999999997,0.095062,-0.153534,-0.021427,0.0211,0.008912,-20.370001000000002,-10.5,-28.75,1a
2019-07-12_102214:120,-0.411804,0.086426,-0.138794,-0.025669,0.016736,0.016298,-20.370001000000002,-10.5,-27.18,1a
2019-07-12_102214:140,-0.465179,0.06253099999999999,-0.131653,-0.029056,0.010876,0.018922,-20.370001000000002,-10.5,-27.18,1a
2019-07-12_102214:160,-0.475861,0.046265,-0.131653,-0.028995,0.0047729999999999995,0.022371000000000002,-20.370001000000002,-10.5,-27.18,1a
2019-07-12_102214:180,-0.460114,0.021332,-0.133179,-0.027134,-0.004108,0.023316999999999997,-21.870001000000002,-11.18,-27.559998999999998,1a
2019-07-12_102214:200,-0.443329,0.009125,-0.158112,-0.024600999999999998,-0.016040000000000002,0.020662,-21.870001000000002,-11.18,-27.559998999999998,1a
2019-07-12_102214:220,-0.44232200000000005,0.004059,-0.1698,-0.020908000000000003,-0.028582999999999997,0.020997,-22.559998999999998,-11.56,-28.0,1a
2019-07-12_102214:240,-0.481476,0.000488,-0.172852,-0.016513999999999997,-0.035694,0.023836000000000003,-22.559998999999998,-11.56,-28.0,1a
2019-07-12_102214:260,-0.507904,0.0030210000000000002,-0.169281,-0.013858,-0.032764,0.024263,-22.559998999999998,-11.56,-28.0,1a
2019-07-12_102214:280,-0.505371,0.006592,-0.165222,-0.012668,-0.023791999999999997,0.024965,-21.5,-11.06,-26.75,1a
2019-07-12_102214:300,-0.48706099999999997,0.009644,-0.160126,-0.011936,-0.012988,0.027833,-21.5,-11.06,-26.75,1a
2019-07-12_102214:320,-0.454529,0.008118,-0.153534,-0.012943000000000001,-0.00484,0.029633999999999997,-21.5,-11.06,-27.559998999999998,1a
2019-07-12_102214:340,-0.429596,0.006072999999999999,-0.141846,-0.014865999999999999,0.000714,0.029207,-21.5,-11.06,-27.559998999999998,1a
2019-07-12_102214:360,-0.40976,0.0,-0.127594,-0.016697,0.004529,0.02823,-21.5,-11.06,-27.559998999999998,1a
2019-07-12_102214:380,-0.441803,-0.006072999999999999,-0.119965,-0.017429,0.0067870000000000005,0.026369,-21.870001000000002,-11.06,-28.0,1a
2019-07-12_102214:400,-0.429108,-0.011169,-0.122528,-0.016849,0.006634,0.0235,-21.870001000000002,-11.06,-28.0,1a
2019-07-12_102214:420,-0.417908,-0.013213999999999998,-0.116425,-0.014713,0.0045899999999999995,0.018463999999999998,-21.870001000000002,-10.68,-27.18,1a
2019-07-12_102214:440,-0.455017,-0.013213999999999998,-0.116425,-0.011326000000000001,0.0020570000000000002,0.012239,-21.870001000000002,-10.68,-27.18,1a
2019-07-12_102214:460,-0.45043900000000003,-0.007111,-0.121002,-0.007023000000000001,-0.0008119999999999999,0.009431,-21.870001000000002,-10.68,-27.18,1a
2019-07-12_102214:480,-0.473846,-0.004059,-0.112854,-0.003452,-0.002246,0.008699,-23.0,-11.06,-27.18,1a
2019-07-12_102214:500,-0.498749,0.009644,-0.118958,-0.00095,-0.003467,0.010316,-23.0,-11.06,-27.18,1a
2019-07-12_102214:520,-0.501282,0.015747,-0.12301600000000001,0.001034,-0.004961999999999999,0.011293000000000001,-22.559998999999998,-11.5,-26.75,1a
2019-07-12_102214:540,-0.49722299999999997,0.020844,-0.127594,0.001065,-0.0061530000000000005,0.010225,-22.559998999999998,-11.5,-26.75,1a
2019-07-12_102214:560,-0.508423,0.024902,-0.128113,5.7999999999999994e-05,-0.005939,0.011964,-22.559998999999998,-11.5,-26.75,1a
2019-07-12_102214:580,-0.5185850000000001,0.020325,-0.132172,-0.0013460000000000002,-0.003711,0.015290999999999999,-22.559998999999998,-11.06,-26.75,1a
2019-07-12_102214:600,-0.600952,0.005065999999999999,-0.11843900000000002,-0.002872,0.0007440000000000001,0.015931,-22.559998999999998,-11.06,-26.75,1a
2019-07-12_102214:620,-0.665009,0.0055850000000000006,-0.141846,-0.004978,0.004437,0.019075,-23.0,-10.37,-26.75,1a
2019-07-12_102214:640,-0.655853,-0.024902,-0.135742,-0.0060149999999999995,0.001782,0.026764999999999997,-23.0,-10.37,-26.75,1a
2019-07-12_102214:660,-0.590271,-0.032013,-0.168274,-0.006168,-0.004444,0.027162000000000002,-23.0,-10.37,-26.75,1a
2019-07-12_102214:680,-0.44638100000000003,-0.047791,-0.18249500000000002,-0.005771,-0.01369,0.024324000000000002,-23.75,-10.75,-26.75,1a
2019-07-12_102214:700,-0.418915,-0.040649,-0.17385899999999999,-0.005771,-0.017841,0.021242,-23.75,-10.75,-26.75,1a
2019-07-12_102214:720,-0.41232299999999994,-0.038116000000000004,-0.178955,-0.009861,-0.018878,0.030092,-24.059998999999998,-10.37,-27.18,1a
2019-07-12_102214:740,-0.417908,-0.050323,-0.186584,-0.013248,-0.012927000000000001,0.040162,-24.059998999999998,-10.37,-27.18,1a
2019-07-12_102214:760,-0.383331,-0.074738,-0.182007,-0.018711000000000002,-0.005756,0.036867000000000004,-24.059998999999998,-10.37,-27.18,1a
2019-07-12_102214:780,-0.380798,-0.076752,-0.18249500000000002,-0.024326,0.001263,0.025514,-24.059998999999998,-9.68,-27.18,1a
2019-07-12_102214:800,-0.385864,-0.09201000000000001,-0.175903,-0.028933999999999998,0.006024,0.019655000000000002,-24.059998999999998,-9.68,-27.18,1a
2019-07-12_102214:820,-0.375214,-0.099121,-0.18249500000000002,-0.030979000000000003,0.00224,0.020784,-23.75,-10.0,-27.18,1a
2019-07-12_102214:840,-0.361969,-0.12658699999999998,-0.20538299999999998,-0.028933999999999998,-0.009723,0.017946,-23.75,-10.0,-27.18,1a
2019-07-12_102214:860,-0.374176,-0.122528,-0.210968,-0.028141000000000003,-0.023273,0.009523,-23.75,-10.0,-27.18,1a
2019-07-12_102214:880,-0.408752,-0.108795,-0.22216799999999998,-0.028201999999999998,-0.033161,0.006776000000000001,-24.370001000000002,-10.0,-26.75,1a
2019-07-12_102214:900,-0.49316400000000005,-0.09149199999999999,-0.243011,-0.027530000000000002,-0.037952,0.006929,-24.370001000000002,-10.0,-26.75,1a
2019-07-12_102214:920,-0.523651,-0.081848,-0.264862,-0.030368,-0.035601999999999995,0.002443,-23.25,-11.06,-27.559998999999998,1a
2019-07-12_102214:940,-0.531799,-0.054901,-0.267426,-0.035679,-0.027727999999999996,0.003175,-23.25,-11.06,-27.559998999999998,1a
2019-07-12_102214:960,-0.510437,-0.036591000000000005,-0.2547,-0.040133999999999996,-0.016834000000000002,0.010773999999999999,-23.25,-11.06,-27.559998999999998,1a
2019-07-12_102214:980,-0.502319,-0.037598,-0.24758899999999998,-0.045993,-0.005176,0.01349,-22.870001000000002,-10.75,-27.18,1a
2019-07-12_102215:000,-0.45553599999999994,-0.032532,-0.21859699999999999,-0.051639,0.0037049999999999995,0.011231999999999999,-22.870001000000002,-10.75,-27.18,1a
2019-07-12_102215:020,-0.446899,-0.029480000000000003,-0.213531,-0.056277999999999995,0.010144,0.013307,-23.68,-11.87,-28.0,1a
2019-07-12_102215:040,-0.42758199999999996,-0.021332,-0.193176,-0.061527,0.014203,0.018403,-23.68,-11.87,-28.0,1a
2019-07-12_102215:060,-0.425018,-0.020844,-0.193176,-0.067478,0.014721000000000001,0.020204,-23.68,-11.87,-28.0,1a
2019-07-12_102215:080,-0.440796,-0.035583,-0.185547,-0.072056,0.01347,0.019472,-24.0,-13.0,-27.18,1a
2019-07-12_102215:100,-0.444855,-0.035583,-0.183014,-0.07446599999999999,0.011487,0.017824,-24.0,-13.0,-27.18,1a
2019-07-12_102215:120,-0.469757,-0.028961,-0.172852,-0.07703,0.010235,0.018525,-24.370001000000002,-14.5,-24.370001000000002,1a
2019-07-12_102215:140,-0.477386,-0.023375999999999997,-0.172852,-0.080234,0.00935,0.02231,-24.370001000000002,-14.5,-24.370001000000002,1a
2019-07-12_102215:160,-0.496216,-0.002014,-0.170319,-0.085941,0.008893,0.02823,-24.370001000000002,-14.5,-24.370001000000002,1a
2019-07-12_102215:180,-0.5073850000000001,-0.0030210000000000002,-0.165741,-0.093235,0.009442,0.033723,-24.75,-15.56,-24.0,1a
2019-07-12_102215:200,-0.49722299999999997,-0.007599,-0.163696,-0.099613,0.010357,0.037202,-24.75,-15.56,-24.0,1a
2019-07-12_102215:220,-0.491638,-0.008118,-0.157593,-0.106327,0.012066,0.039705000000000004,-26.559998999999998,-17.75,-21.559998999999998,1a
2019-07-12_102215:240,-0.467224,-0.007599,-0.159637,-0.11194200000000001,0.011944,0.041719,-26.559998999999998,-17.75,-21.559998999999998,1a
2019-07-12_102215:260,-0.455017,-0.007111,-0.162689,-0.118473,0.010693000000000001,0.040986,-26.559998999999998,-17.75,-21.559998999999998,1a
2019-07-12_102215:280,-0.439758,-0.016266,-0.166229,-0.12091400000000001,0.00935,0.039247000000000004,-25.75,-18.870001000000002,-20.059998999999998,1a
2019-07-12_102215:300,-0.434174,-0.016753999999999998,-0.17385899999999999,-0.126224,0.002179,0.031160000000000004,-25.75,-18.870001000000002,-20.059998999999998,1a
2019-07-12_102215:320,-0.431122,-0.018799,-0.18249500000000002,-0.127628,-0.000598,0.02997,-28.059998999999998,-19.68,-18.559998999999998,1a
2019-07-12_102215:340,-0.438751,-0.022369,-0.188599,-0.128299,-0.006275,0.034212,-28.059998999999998,-19.68,-18.559998999999998,1a
2019-07-12_102215:360,-0.459595,-0.026427999999999997,-0.19574,-0.127414,-0.008075,0.034913,-28.059998999999998,-19.68,-18.559998999999998,1a
2019-07-12_102215:380,-0.475372,-0.019318000000000002,-0.196747,-0.126835,-0.007587000000000001,0.035524,-29.18,-21.870001000000002,-15.68,1a
2019-07-12_102215:400,-0.46316499999999994,-0.004547,-0.20080599999999998,-0.127903,-0.0052369999999999995,0.04117,-29.18,-21.870001000000002,-15.68,1a
2019-07-12_102215:420,-0.46060200000000007,-0.000488,-0.201843,-0.131321,-0.002735,0.048677,-30.0,-21.5,-11.75,1a
2019-07-12_102215:440,-0.46469099999999997,-0.004547,-0.21148699999999998,-0.13718,0.000714,0.054048,-30.0,-21.5,-11.75,1a
2019-07-12_102215:460,-0.467743,-0.010162000000000001,-0.213531,-0.14322200000000002,0.004529,0.056428,-30.0,-21.5,-11.75,1a
2019-07-12_102215:480,-0.452484,-0.018799,-0.220123,-0.146946,0.00639,0.057222,-30.68,-21.870001000000002,-9.87,1a
2019-07-12_102215:500,-0.48858599999999996,-0.029968,-0.209961,-0.154178,0.012341,0.058412,-30.68,-21.870001000000002,-9.87,1a
2019-07-12_102215:520,-0.574005,-0.038116000000000004,-0.234375,-0.156376,0.013806,0.058748,-31.5,-21.559998999999998,-7.5,1a
2019-07-12_102215:540,-0.46875,-0.048279,-0.249115,-0.157962,0.011151000000000001,0.058351,-31.5,-21.559998999999998,-7.5,1a
2019-07-12_102215:560,-0.519073,-0.050842,-0.192688,-0.159549,0.015453999999999999,0.049348,-31.5,-21.559998999999998,-7.5,1a
2019-07-12_102215:580,-0.492126,-0.031494,-0.22216799999999998,-0.161411,0.016675,0.05166799999999999,-32.869999,-21.25,-3.87,1a
2019-07-12_102215:600,-0.455017,-0.022858,-0.21148699999999998,-0.16128900000000002,0.015393,0.056093,-32.869999,-21.25,-3.87,1a
2019-07-12_102215:620,-0.439758,-0.020325,-0.217072,-0.164982,0.011487,0.048555,-33.68,-19.68,-1.5,1a
2019-07-12_102215:640,-0.427063,-0.007111,-0.219635,-0.16711800000000002,0.007916,0.039369,-33.68,-19.68,-1.5,1a
2019-07-12_102215:660,-0.423492,0.0025329999999999997,-0.222687,-0.167514,0.0055049999999999995,0.036256000000000004,-33.68,-19.68,-1.5,1a
2019-07-12_102215:680,-0.415375,0.014740000000000001,-0.216583,-0.167453,0.005658,0.035982,-34.369999,-17.75,2.75,1a
2019-07-12_102215:700,-0.40976,0.021851,-0.207916,-0.167514,0.010570999999999999,0.037172000000000004,-34.369999,-17.75,2.75,1a
2019-07-12_102215:720,-0.41995200000000005,0.030487,-0.20233199999999998,-0.16678199999999999,0.012463,0.038301,-35.18,-15.56,4.75,1a
2019-07-12_102215:740,-0.451477,0.029968,-0.200317,-0.162876,0.012738,0.038576,-35.18,-15.56,4.75,1a
2019-07-12_102215:760,-0.46926899999999994,0.028961,-0.19927999999999998,-0.158634,0.008435,0.03415,-35.18,-15.56,4.75,1a
2019-07-12_102215:780,-0.470276,0.035583,-0.18811,-0.155948,0.005963,0.031618,-34.369999,-13.25,8.06,1a
2019-07-12_102215:800,-0.5058590000000001,0.050323,-0.170807,-0.147739,0.000592,0.028839999999999998,-34.369999,-13.25,8.06,1a
2019-07-12_102215:820,-0.516022,0.064545,-0.170807,-0.145725,-0.00014099999999999998,0.030366000000000004,-35.5,-10.68,10.5,1a
2019-07-12_102215:840,-0.498749,0.07775900000000001,-0.164215,-0.141819,-0.000598,0.037904,-35.5,-10.68,10.5,1a
2019-07-12_102215:860,-0.490112,0.07928500000000001,-0.159119,-0.141483,1.2e-05,0.040773000000000004,-35.5,-10.68,10.5,1a
2019-07-12_102215:880,-0.477386,0.083374,-0.154541,-0.1413,0.000592,0.042879,-35.18,-8.75,12.5,1a
2019-07-12_102215:900,-0.466217,0.07775900000000001,-0.146912,-0.142551,0.002972,0.051515,-35.18,-8.75,12.5,1a
2019-07-12_102215:920,-0.46569799999999995,0.057953,-0.139801,-0.142765,0.003735,0.053193,-34.75,-6.56,13.25,1a
2019-07-12_102215:940,-0.45907600000000004,0.046752999999999996,-0.13623,-0.141758,0.005841,0.055452,-34.75,-6.56,13.25,1a
2019-07-12_102215:960,-0.45401,0.026917,-0.12912,-0.138431,0.006512,0.05536,-34.75,-6.56,13.25,1a
2019-07-12_102215:980,-0.45553599999999994,0.015747,-0.121002,-0.13611199999999998,0.0062380000000000005,0.053834,-34.75,-2.06,12.75,1a
2019-07-12_102216:000,-0.46060200000000007,0.004547,-0.113373,-0.125095,0.004497999999999999,0.043825,-34.75,-2.06,12.75,1a
2019-07-12_102216:020,-0.46670500000000004,0.0030210000000000002,-0.104706,-0.120304,0.003583,0.040101,-34.75,1.0,14.06,1a
2019-07-12_102216:040,-0.45654300000000003,0.008636,-0.097107,-0.104648,0.001263,0.034791,-34.75,1.0,14.06,1a
2019-07-12_102216:060,-0.455017,0.008118,-0.08996599999999999,-0.09357,-0.00038500000000000003,0.032808,-34.75,1.0,14.06,1a
2019-07-12_102216:080,-0.452484,0.017792,-0.081848,-0.083133,-0.002124,0.030610000000000002,-34.369999,3.5,14.06,1a
2019-07-12_102216:100,-0.461121,0.020844,-0.076263,-0.072879,-0.0031309999999999997,0.030366000000000004,-34.369999,3.5,14.06,1a
2019-07-12_102216:120,-0.45706199999999997,0.029968,-0.073212,-0.068363,-0.003711,0.031282,-34.369999,6.18,13.68,1a
2019-07-12_102216:140,-0.45907600000000004,0.032013,-0.072693,-0.057071000000000004,-0.006336,0.033815,-34.369999,6.18,13.68,1a
2019-07-12_102216:160,-0.457581,0.037598,-0.072174,-0.051639,-0.009448,0.033326999999999996,-34.369999,6.18,13.68,1a
2019-07-12_102216:180,-0.485016,0.034058,-0.067596,-0.049167,-0.010578,0.032686,-32.869999,7.68,13.68,1a
2019-07-12_102216:200,-0.489075,0.019806,-0.0737,-0.040928,-0.012836000000000002,0.035066,-32.869999,7.68,13.68,1a
2019-07-12_102216:220,-0.48349,-0.000488,-0.071167,-0.037357,-0.0125,0.036043,-33.68,9.5,12.87,1a
2019-07-12_102216:240,-0.5404359999999999,-0.026917,-0.066071,-0.026614999999999996,-0.009601,0.034456,-33.68,9.5,12.87,1a
2019-07-12_102216:260,-0.6161800000000001,-0.037598,-0.070648,-0.020419999999999997,-0.009387000000000001,0.035249,-33.68,9.5,12.87,1a
2019-07-12_102216:280,-0.5658569999999999,-0.057434000000000006,-0.102692,-0.017978,-0.011706999999999999,0.036073,-32.869999,11.0,12.18,1a
2019-07-12_102216:300,-0.561279,-0.066589,-0.110321,-0.013736000000000002,-0.017414,0.033326999999999996,-32.869999,11.0,12.18,1a
2019-07-12_102216:320,-0.48654200000000003,-0.067108,-0.161652,-0.013736000000000002,-0.021472,0.034547,-32.869999,11.0,12.18,1a
2019-07-12_102216:340,-0.467224,-0.081329,-0.193695,-0.0163,-0.039264,0.03705,-32.5,11.25,11.5,1a
2019-07-12_102216:360,-0.503845,-0.10318,-0.233856,-0.020298,-0.044025,0.028627,-32.5,11.25,11.5,1a
2019-07-12_102216:380,-0.510437,-0.111847,-0.237427,-0.022037,-0.041582999999999995,0.022066,-33.25,13.68,11.0,1a
2019-07-12_102216:400,-0.5119630000000001,-0.112854,-0.23284899999999997,-0.024143,-0.029041,0.007997,-33.25,13.68,11.0,1a
2019-07-12_102216:420,-0.48754899999999995,-0.106232,-0.222687,-0.026188,-0.012195000000000001,-0.002806,-32.18,13.25,10.25,1a
2019-07-12_102216:440,-0.44638100000000003,-0.09201000000000001,-0.183014,-0.027469,0.01048,-0.011626000000000001,-32.18,13.25,10.25,1a
2019-07-12_102216:460,-0.43927,-0.08743300000000001,-0.164703,-0.027195,0.016522,-0.009978,-32.18,13.25,10.25,1a
2019-07-12_102216:480,-0.417908,-0.09149199999999999,-0.155548,-0.026218,0.0164,-0.0075060000000000005,-32.869999,13.68,9.5,1a
2019-07-12_102216:500,-0.42401099999999997,-0.09454299999999999,-0.142334,-0.02222,0.008282,-0.006468000000000001,-32.869999,13.68,9.5,1a
2019-07-12_102216:520,-0.473846,-0.091003,-0.151001,-0.021091,0.004132,-0.006774,-32.869999,13.68,9.5,1a
2019-07-12_102216:540,-0.45706199999999997,-0.086426,-0.159119,-0.016697,-0.008472,-0.002349,-32.18,12.87,9.75,1a
2019-07-12_102216:560,-0.45907600000000004,-0.081329,-0.15506,-0.016239,-0.014422999999999998,-0.004332,-32.18,12.87,9.75,1a
2019-07-12_102216:580,-0.46875,-0.071686,-0.165222,-0.017093,-0.016681,-0.006072,-31.75,12.56,9.75,1a
2019-07-12_102216:600,-0.473846,-0.06253099999999999,-0.162689,-0.019687,-0.016773,-0.007842,-31.75,12.56,9.75,1a
2019-07-12_102216:620,-0.481476,-0.063019,-0.15506,-0.020908000000000003,-0.015368999999999999,-0.009429,-32.869999,13.25,9.06,1a
2019-07-12_102216:640,-0.48095699999999997,-0.05996699999999999,-0.143372,-0.023929,-0.007220999999999999,-0.016753,-32.869999,13.25,9.06,1a
2019-07-12_102216:660,-0.47842399999999996,-0.058441,-0.13623,-0.023288,-0.0015140000000000002,-0.015624,-32.869999,13.25,9.06,1a
2019-07-12_102216:680,-0.461639,-0.057434000000000006,-0.12506099999999998,-0.022159,0.000714,-0.014341999999999999,-32.869999,12.56,9.06,1a
2019-07-12_102216:700,-0.45401,-0.055389,-0.11691300000000002,-0.018558,0.003918,-0.014616999999999998,-32.869999,12.56,9.06,1a
2019-07-12_102216:720,-0.44995100000000005,-0.049316000000000006,-0.11386099999999999,-0.016849,0.003979,-0.015074,-32.869999,12.56,9.06,1a
2019-07-12_102216:740,-0.446899,-0.042694,-0.114899,-0.012790000000000001,0.002911,-0.013243000000000001,-33.25,11.75,9.5,1a
2019-07-12_102216:760,-0.445862,-0.035065,-0.11386099999999999,-0.007999,0.000866,-0.010954,-33.25,11.75,9.5,1a
2019-07-12_102216:780,-0.44891400000000004,-0.026917,-0.114899,-0.004581,-0.002246,-0.008695999999999999,-32.869999,11.75,8.68,1a
2019-07-12_102216:800,-0.455017,-0.023375999999999997,-0.11691300000000002,-0.000889,-0.006,-0.002349,-32.869999,11.75,8.68,1a
2019-07-12_102216:820,-0.458588,-0.027435,-0.115906,0.00018,-0.0061530000000000005,-0.0008230000000000001,-32.869999,11.75,8.68,1a
2019-07-12_102216:840,-0.453491,-0.025421,-0.11795,0.000729,-0.004993,-0.000731,-32.869999,11.06,8.25,1a
2019-07-12_102216:860,-0.478912,-0.026427999999999997,-0.10775799999999999,0.000973,-0.002246,-0.000884,-32.869999,11.06,8.25,1a
2019-07-12_102216:880,-0.481476,-0.031006,-0.12149000000000001,0.001126,0.000256,0.000368,-33.25,11.37,8.68,1a
2019-07-12_102216:900,-0.47180200000000005,-0.027435,-0.117432,0.0017670000000000001,0.000592,-0.000365,-33.25,11.37,8.68,1a
2019-07-12_102216:920,-0.481476,-0.021851,-0.124054,0.0017050000000000001,-0.00072,-0.0042710000000000005,-33.25,11.37,8.68,1a
2019-07-12_102216:940,-0.494171,-0.016266,-0.124054,0.00011899999999999999,-0.0017280000000000002,-0.006072,-33.68,10.25,9.5,1a
2019-07-12_102216:960,-0.500275,-0.016266,-0.12454200000000001,-0.001621,-0.001789,-0.004729,-33.68,10.25,9.5,1a
2019-07-12_102216:980,-0.496704,-0.010651,-0.131165,-0.0032689999999999998,-0.001209,-0.004058,-33.25,10.0,9.06,1a
2019-07-12_102217:000,-0.490601,-0.0030210000000000002,-0.13623,-0.005039,-0.001178,-0.003935,-33.25,10.0,9.06,1a
2019-07-12_102217:020,-0.731598,0.015747,-0.096069,-0.005375,-0.001209,-0.003783,-33.25,10.0,9.06,1a
2019-07-12_102217:040,-0.657898,0.027435,-0.184021,-0.008152,0.000653,-0.0016769999999999999,-34.0,10.25,8.25,1a
2019-07-12_102217:060,-0.710754,0.024902,-0.138275,-0.009922,-0.0060609999999999995,0.004335,-34.0,10.25,8.25,1a
2019-07-12_102217:080,-0.600433,0.036591000000000005,-0.186066,-0.009678,-0.004383,0.006654,-33.68,9.56,8.25,1a
2019-07-12_102217:100,-0.503845,0.039642000000000004,-0.17996199999999998,-0.010074,-0.00185,0.01642,-33.68,9.56,8.25,1a
2019-07-12_102217:120,-0.40823400000000004,0.03302,-0.193176,-0.007601999999999999,-0.0020629999999999997,0.028687999999999998,-33.68,9.56,8.25,1a
2019-07-12_102217:140,-0.373688,0.026917,-0.1586,-0.004337,-0.004047,0.025117,-32.5,10.0,8.25,1a
2019-07-12_102217:160,-0.429108,0.046752999999999996,-0.131653,-0.0022010000000000003,0.003186,-0.005736,-32.5,10.0,8.25,1a
2019-07-12_102217:180,-0.429596,0.084381,-0.142334,-0.002323,0.0057799999999999995,-0.009368000000000001,-32.869999,9.87,8.25,1a
2019-07-12_102217:200,-0.40316799999999997,0.08590700000000001,-0.127594,-0.003208,0.004193,-0.000151,-32.869999,9.87,8.25,1a
2019-07-12_102217:220,-0.425018,0.07016,-0.128601,-0.005344,-8e-05,0.009767,-32.869999,9.87,8.25,1a
2019-07-12_102217:240,-0.44232200000000005,0.065582,-0.12353499999999999,-0.008762,-0.0052369999999999995,0.010773999999999999,-32.869999,10.0,9.06,1a
2019-07-12_102217:260,-0.467743,0.055908000000000006,-0.119476,-0.010685,-0.007678,0.012697,-32.869999,10.0,9.06,1a
2019-07-12_102217:280,-0.478912,0.041168,-0.12558,-0.011997,-0.011859,0.019806999999999998,-32.18,10.25,9.06,1a
2019-07-12_102217:300,-0.47332799999999997,0.01828,-0.130127,-0.013248,-0.016895,0.024049,-32.18,10.25,9.06,1a
2019-07-12_102217:320,-0.46875,0.0055850000000000006,-0.132172,-0.014072,-0.021259,0.023530000000000002,-32.18,10.25,9.06,1a
2019-07-12_102217:340,-0.454529,-0.001495,-0.133179,-0.012851,-0.023609,0.022127,-33.25,10.68,7.87,1a
2019-07-12_102217:360,-0.454529,-0.0025329999999999997,-0.133179,-0.011478,-0.023731,0.01999,-33.25,10.68,7.87,1a
2019-07-12_102217:380,-0.45401,0.001495,-0.134216,-0.010256999999999999,-0.022479,0.017549000000000002,-33.25,11.37,7.87,1a
2019-07-12_102217:400,-0.45553599999999994,0.0055850000000000006,-0.130646,-0.010013,-0.021686,0.018007,-33.25,11.37,7.87,1a
2019-07-12_102217:420,-0.45654300000000003,0.004059,-0.126068,-0.011387000000000001,-0.019153,0.020112,-33.25,11.37,7.87,1a
2019-07-12_102217:440,-0.45196499999999995,0.0025329999999999997,-0.11843900000000002,-0.012119,-0.017353,0.020600999999999998,-32.5,11.75,6.68,1a
2019-07-12_102217:460,-0.443329,-0.000488,-0.112854,-0.013340000000000001,-0.011066,0.019746,-32.5,11.75,6.68,1a
2019-07-12_102217:480,-0.433655,-0.0030210000000000002,-0.11233499999999999,-0.013462,-0.007678,0.018341999999999997,-33.25,12.18,6.68,1a
2019-07-12_102217:500,-0.43774399999999997,-0.0055850000000000006,-0.112854,-0.012668,-0.006,0.017671,-33.25,12.18,6.68,1a
2019-07-12_102217:520,-0.432648,-0.008636,-0.116425,-0.010806999999999999,-0.0045049999999999995,0.017213,-33.25,12.18,6.68,1a
2019-07-12_102217:540,-0.46926899999999994,-0.013213999999999998,-0.10775799999999999,-0.007937999999999999,-0.002979,0.014161000000000002,-33.25,11.75,6.25,1a
2019-07-12_102217:560,-0.45095799999999997,-0.007599,-0.122528,-0.004642,-0.003314,0.010316,-33.25,11.75,6.25,1a
2019-07-12_102217:580,-0.489075,0.002014,-0.114899,-0.00095,-0.003986,0.006074,-32.5,11.75,5.06,1a
2019-07-12_102217:600,-0.490601,0.016753999999999998,-0.137756,0.00018,-0.0070680000000000005,0.004457,-32.5,11.75,5.06,1a
2019-07-12_102217:620,-0.498749,0.022858,-0.142334,-0.000339,-0.008869,0.006868000000000001,-32.5,11.75,5.06,1a
2019-07-12_102217:640,-0.49975600000000003,0.01828,-0.149963,-0.002475,-0.00954,0.009584,-33.25,13.25,5.06,1a
2019-07-12_102217:660,-0.56076,-0.009125,-0.152527,-0.004275999999999999,-0.009143,0.010499,-33.25,13.25,5.06,1a
2019-07-12_102217:680,-0.754486,-0.033539,-0.146423,-0.004459,-0.0076170000000000005,0.010896,-33.68,12.87,5.5,1a
2019-07-12_102217:700,-0.6670229999999999,-0.058960000000000005,-0.20639000000000002,-0.003849,-0.014911,0.013704,-33.68,12.87,5.5,1a
2019-07-12_102217:720,-0.71228,-0.075745,-0.178955,0.000332,-0.01369,0.009584,-33.68,12.87,5.5,1a
2019-07-12_102217:740,-0.530792,-0.08743300000000001,-0.236389,0.0023769999999999998,-0.01955,0.004182,-33.68,13.25,5.5,1a
2019-07-12_102217:760,-0.43011499999999997,-0.086426,-0.230804,0.006558,-0.020862000000000002,0.001771,-33.68,13.25,5.5,1a
2019-07-12_102217:780,-0.36706500000000003,-0.092529,-0.228271,0.005825,-0.020893000000000002,0.008729,-33.68,14.06,4.25,1a
2019-07-12_102217:800,-0.364532,-0.104218,-0.213531,0.007016,-0.014118,0.01288,-33.68,14.06,4.25,1a
2019-07-12_102217:820,-0.435699,-0.119965,-0.177429,0.0060079999999999995,-0.00185,0.005311,-33.68,14.06,4.25,1a
2019-07-12_102217:840,-0.432159,-0.117432,-0.172852,0.005886,0.005841,-0.00421,-34.0,13.25,4.75,1a
2019-07-12_102217:860,-0.396057,-0.11080899999999999,-0.169281,0.007901,0.004254,-0.006377000000000001,-34.0,13.25,4.75,1a
2019-07-12_102217:880,-0.390442,-0.109802,-0.160645,0.011134999999999999,-0.00072,-0.008298999999999999,-33.25,12.87,4.0,1a
2019-07-12_102217:900,-0.43774399999999997,-0.100647,-0.144379,0.01379,-0.0038640000000000002,-0.014341999999999999,-33.25,12.87,4.0,1a
2019-07-12_102217:920,-0.48300200000000004,-0.08843999999999999,-0.145386,0.015652000000000003,-0.0045049999999999995,-0.017089,-33.25,12.87,4.0,1a
2019-07-12_102217:940,-0.47689799999999993,-0.069122,-0.157074,0.017361,-0.007465,-0.013365,-34.0,12.87,3.56,1a
2019-07-12_102217:960,-0.46316499999999994,-0.062012,-0.164703,0.016781,-0.015155000000000002,-0.011504,-34.0,12.87,3.56,1a
2019-07-12_102217:980,-0.45095799999999997,-0.046265,-0.181488,0.012813999999999999,-0.023609,-0.012816,-33.68,12.18,4.75,1a
2019-07-12_102218:000,-0.44891400000000004,-0.043213,-0.18096900000000002,0.008297,-0.028766000000000003,-0.012572,-33.68,12.18,4.75,1a
2019-07-12_102218:020,-0.466217,-0.045226999999999996,-0.176422,0.004971,-0.027576,-0.014098,-33.68,12.18,4.75,1a
2019-07-12_102218:040,-0.47079499999999996,-0.039642000000000004,-0.171326,0.000973,-0.020862000000000002,-0.020262,-34.75,12.56,4.75,1a
2019-07-12_102218:060,-0.45605500000000004,-0.024384,-0.159119,-0.001407,-0.013172,-0.024503999999999998,-34.75,12.56,4.75,1a
2019-07-12_102218:080,-0.441803,-0.016753999999999998,-0.151489,-0.002872,-0.006670999999999999,-0.023924,-35.869999,11.06,3.5,1a
2019-07-12_102218:100,-0.421967,-0.014740000000000001,-0.135742,-0.003788,-0.002643,-0.022063,-35.869999,11.06,3.5,1a
2019-07-12_102218:120,-0.415375,-0.009644,-0.13269,-0.004123,-0.001178,-0.020475999999999998,-35.869999,11.06,3.5,1a
2019-07-12_102218:140,-0.417389,-0.005065999999999999,-0.12658699999999998,-0.004184,-0.001209,-0.018218,-35.5,10.68,2.75,1a
2019-07-12_102218:160,-0.425537,-0.001007,-0.127594,-0.004978,-0.001392,-0.014495,-35.5,10.68,2.75,1a
2019-07-12_102218:180,-0.42807,-0.002014,-0.129639,-0.006809,-0.001605,-0.00952,-36.68,9.25,2.25,1a
2019-07-12_102218:200,-0.43670699999999996,-0.006592,-0.13269,-0.009067,-0.002796,-0.003325,-36.68,9.25,2.25,1a
2019-07-12_102218:220,-0.469757,-0.014221000000000001,-0.135742,-0.0116,-0.004169,-0.000273,-36.68,9.25,2.25,1a
2019-07-12_102218:240,-0.49316400000000005,-0.016753999999999998,-0.144897,-0.014865999999999999,-0.005939,-0.0005480000000000001,-36.68,8.87,3.06,1a
2019-07-12_102218:260,-0.473846,-0.017273,-0.14843800000000001,-0.017093,-0.006885,-0.001464,-36.68,8.87,3.06,1a
2019-07-12_102218:280,-0.48858599999999996,-0.01828,-0.14743,-0.019443000000000002,-0.006854000000000001,-0.003203,-35.869999,9.25,2.75,1a
2019-07-12_102218:300,-0.48300200000000004,-0.018799,-0.164215,-0.020816,-0.005725,-0.0038130000000000004,-35.869999,9.25,2.75,1a
2019-07-12_102218:320,-0.477386,-0.012177,-0.168793,-0.020755000000000003,-0.005695,-0.001738,-35.869999,9.25,2.75,1a
2019-07-12_102218:340,-0.561279,0.006072999999999999,-0.171326,-0.021091,-0.008136,-0.000273,-37.0,8.5,3.06,1a
2019-07-12_102218:360,-0.7727970000000001,0.014740000000000001,-0.177948,-0.023624000000000003,-0.008747,0.000306,-37.0,8.5,3.06,1a
2019-07-12_102218:380,-0.7011109999999999,0.022369,-0.209961,-0.02634,-0.013111000000000001,0.006532,-36.68,8.06,2.0,1a
2019-07-12_102218:400,-0.588745,0.03302,-0.201324,-0.027012,-0.01012,0.015016,-36.68,8.06,2.0,1a
2019-07-12_102218:420,-0.514496,0.049805,-0.21759,-0.027744,-0.008594,0.021181000000000002,-36.68,8.06,2.0,1a
2019-07-12_102218:440,-0.45196499999999995,0.06253099999999999,-0.245056,-0.029667000000000002,-0.013965,0.019868,-36.25,8.5,1.56,1a
2019-07-12_102218:460,-0.384338,0.070648,-0.24706999999999998,-0.029911,-0.017841,0.011964,-36.25,8.5,1.56,1a
2019-07-12_102218:480,-0.36554000000000003,0.07775900000000001,-0.21859699999999999,-0.027805,-0.012714,0.001192,-37.0,8.5,0.37,1a
2019-07-12_102218:500,-0.43621800000000005,0.095062,-0.183014,-0.027530000000000002,-0.0015140000000000002,-0.002593,-37.0,8.5,0.37,1a
2019-07-12_102218:520,-0.406738,0.098633,-0.205902,-0.026676,0.00108,0.0067150000000000005,-37.0,8.5,0.37,1a
2019-07-12_102218:540,-0.396545,0.084381,-0.20285,-0.025211,-0.00246,0.014619,-37.369999,9.25,1.06,1a
2019-07-12_102218:560,-0.420959,0.075226,-0.198273,-0.023684999999999998,-0.007129000000000001,0.014009,-37.369999,9.25,1.06,1a
2019-07-12_102218:580,-0.457581,0.072693,-0.191162,-0.020541999999999998,-0.008594,0.015687,-37.369999,8.87,1.56,1a
2019-07-12_102218:600,-0.45196499999999995,0.06405599999999999,-0.193695,-0.017429,-0.00954,0.023438999999999998,-37.369999,8.87,1.56,1a
2019-07-12_102218:620,-0.45706199999999997,0.043701,-0.193176,-0.016056,-0.011585,0.030488,-37.369999,8.87,1.56,1a
2019-07-12_102218:640,-0.46823100000000006,0.027954000000000003,-0.19775399999999999,-0.015597999999999999,-0.014178999999999999,0.034730000000000004,-37.369999,9.56,0.0,1a
2019-07-12_102218:660,-0.47332799999999997,0.016266,-0.192688,-0.014927000000000001,-0.015155000000000002,0.035982,-37.369999,9.56,0.0,1a
2019-07-12_102218:680,-0.470276,0.009125,-0.17996199999999998,-0.014438,-0.012927000000000001,0.03354,-37.75,10.25,-0.37,1a
2019-07-12_102218:700,-0.467224,0.010162000000000001,-0.170319,-0.014133000000000001,-0.008075,0.029602999999999997,-37.75,10.25,-0.37,1a
2019-07-12_102218:720,-0.45654300000000003,0.008636,-0.164215,-0.014315999999999999,-0.003833,0.027437,-37.75,10.25,-0.37,1a
2019-07-12_102218:740,-0.447906,0.0055850000000000006,-0.1586,-0.014469,-0.001056,0.027375999999999998,-37.369999,11.5,-0.87,1a
2019-07-12_102218:760,-0.432159,-0.0025329999999999997,-0.144897,-0.015384,0.001385,0.02762,-37.369999,11.5,-0.87,1a
2019-07-12_102218:780,-0.42147799999999996,-0.008118,-0.13623,-0.015231999999999999,0.003186,0.027894,-37.369999,13.0,-0.87,1a
2019-07-12_102218:800,-0.415375,-0.014740000000000001,-0.128113,-0.014377000000000001,0.004712,0.027833,-37.369999,13.0,-0.87,1a
2019-07-12_102218:820,-0.409271,-0.017792,-0.128601,-0.012851,0.004925,0.027039999999999998,-37.369999,13.0,-0.87,1a
2019-07-12_102218:840,-0.407227,-0.019806,-0.11795,-0.010806999999999999,0.003857,0.025972000000000002,-37.75,13.25,-0.37,1a
2019-07-12_102218:860,-0.42807,-0.021332,-0.11538699999999999,-0.008029999999999999,0.002911,0.023927,-37.75,13.25,-0.37,1a
2019-07-12_102218:880,-0.44281000000000004,-0.01828,-0.12454200000000001,-0.0052829999999999995,0.001843,0.020143,-37.0,14.37,-0.37,1a
2019-07-12_102218:900,-0.43518100000000004,-0.014740000000000001,-0.12353499999999999,-0.002262,-0.001575,0.015747999999999998,-37.0,14.37,-0.37,1a
2019-07-12_102218:920,-0.49468999999999996,-0.007111,-0.134216,0.000241,-0.004169,0.011384,-37.0,14.37,-0.37,1a
2019-07-12_102218:940,-0.510437,-0.004059,-0.136749,0.001065,-0.005756,0.011445,-36.68,14.37,0.75,1a
2019-07-12_102218:960,-0.516022,-0.010651,-0.141846,0.001065,-0.005451,0.013093,-36.68,14.37,0.75,1a
2019-07-12_102218:980,-0.514008,-0.023375999999999997,-0.146912,0.000454,-0.004229999999999999,0.014223,-37.0,14.37,0.37,1a
2019-07-12_102219:000,-0.5770569999999999,-0.046752999999999996,-0.156586,5.7999999999999994e-05,-0.00539,0.0141,-37.0,14.37,0.37,1a
2019-07-12_102219:020,-0.70517,-0.070648,-0.18249500000000002,-0.00046100000000000004,-0.007923000000000001,0.01349,-37.0,14.37,0.37,1a
2019-07-12_102219:040,-0.62738,-0.110321,-0.209961,0.001126,-0.017414,0.013093,-38.18,15.56,-0.37,1a
2019-07-12_102219:060,-0.62738,-0.11538699999999999,-0.216583,0.0072900000000000005,-0.018146000000000002,0.0027170000000000002,-38.18,15.56,-0.37,1a
2019-07-12_102219:080,-0.52774,-0.117432,-0.24353000000000002,0.011196,-0.020679,-0.007903,-37.75,15.56,0.0,1a
2019-07-12_102219:100,-0.45907600000000004,-0.105225,-0.244019,0.016568,-0.019611,-0.013425999999999999,-37.75,15.56,0.0,1a
2019-07-12_102219:120,-0.368073,-0.09963999999999999,-0.242493,0.017636000000000002,-0.016681,-0.011168,-37.75,15.56,0.0,1a
2019-07-12_102219:140,-0.37112399999999995,-0.097595,-0.213531,0.018521,-0.0070680000000000005,-0.009368000000000001,-38.5,15.18,0.0,1a
2019-07-12_102219:160,-0.455017,-0.09454299999999999,-0.18454,0.016995,0.006695,-0.011382,-38.5,15.18,0.0,1a
2019-07-12_102219:180,-0.438751,-0.0849,-0.184021,0.016568,0.016064,-0.013884,-38.5,14.37,-0.37,1a
2019-07-12_102219:200,-0.392487,-0.078796,-0.17538499999999999,0.016444999999999998,0.015453999999999999,-0.013822999999999998,-38.5,14.37,-0.37,1a
2019-07-12_102219:220,-0.399109,-0.079803,-0.165222,0.016964,0.010357,-0.015074,-38.5,14.37,-0.37,1a
2019-07-12_102219:240,-0.444855,-0.072174,-0.159637,0.017787999999999998,0.004651,-0.016692,-39.18,14.06,0.0,1a
2019-07-12_102219:260,-0.462646,-0.061005,-0.162689,0.018826,-0.001392,-0.015746,-39.18,14.06,0.0,1a
2019-07-12_102219:280,-0.462128,-0.048279,-0.169281,0.019772,-0.009448,-0.014159,-38.869999,13.68,0.75,1a
2019-07-12_102219:300,-0.462128,-0.040161,-0.174896,0.019162000000000002,-0.018543,-0.015227000000000001,-38.869999,13.68,0.75,1a
2019-07-12_102219:320,-0.46926899999999994,-0.029480000000000003,-0.171326,0.017117,-0.025134,-0.015471,-38.869999,13.68,0.75,1a
2019-07-12_102219:340,-0.473846,-0.028442000000000002,-0.165222,0.014981,-0.02544,-0.013609999999999999,-40.0,12.87,1.56,1a
2019-07-12_102219:360,-0.466217,-0.027954000000000003,-0.154541,0.011868,-0.019946000000000002,-0.014433000000000001,-40.0,12.87,1.56,1a
2019-07-12_102219:380,-0.45095799999999997,-0.023375999999999997,-0.148956,0.008694,-0.011859,-0.017272,-40.25,12.56,1.06,1a
2019-07-12_102219:400,-0.43011499999999997,-0.012695,-0.139801,0.0060079999999999995,-0.005298,-0.018798,-40.25,12.56,1.06,1a
2019-07-12_102219:420,-0.42453,-0.010162000000000001,-0.136749,0.003353,-0.001575,-0.01892,-40.25,12.56,1.06,1a
2019-07-12_102219:440,-0.409271,-0.007111,-0.132172,0.001034,-0.000324,-0.019316,-40.25,11.75,0.75,1a
2019-07-12_102219:460,-0.40368699999999996,-0.006592,-0.12912,-0.000675,-0.0008730000000000001,-0.018462,-40.25,11.75,0.75,1a
2019-07-12_102219:480,-0.41842700000000005,-0.0055850000000000006,-0.130646,-0.001865,-0.002307,-0.015685,-41.0,10.68,0.75,1a
2019-07-12_102219:500,-0.42453,-0.008118,-0.131653,-0.002659,-0.00365,-0.012908000000000001,-41.0,10.68,0.75,1a
2019-07-12_102219:520,-0.42807,-0.009644,-0.143372,-0.0033909999999999995,-0.006,-0.009856,-41.0,10.68,0.75,1a
2019-07-12_102219:540,-0.443329,-0.009125,-0.144897,-0.004123,-0.008197,-0.005797,-41.0,9.25,1.56,1a
2019-07-12_102219:560,-0.458588,-0.0035399999999999997,-0.15506,-0.006412,-0.008655,-0.001402,-41.0,9.25,1.56,1a
2019-07-12_102219:580,-0.490601,-0.004547,-0.151489,-0.009678,-0.007923000000000001,0.001771,-41.369999,8.87,1.06,1a
2019-07-12_102219:600,-0.505371,-0.006072999999999999,-0.167755,-0.013981,-0.0076170000000000005,0.003511,-41.369999,8.87,1.06,1a
2019-07-12_102219:620,-0.503845,-0.012695,-0.168274,-0.017490000000000002,-0.007006999999999999,0.003633,-41.369999,8.87,1.06,1a
2019-07-12_102219:640,-0.49975600000000003,-0.016753999999999998,-0.174896,-0.019169,-0.005573,0.002443,-42.18,8.87,1.06,1a
2019-07-12_102219:660,-0.502808,-0.008118,-0.18454,-0.019625999999999998,-0.005176,0.001924,-42.18,8.87,1.06,1a
2019-07-12_102219:680,-0.683319,0.007599,-0.19165,-0.020023,-0.006092,0.0025039999999999997,-42.060001,8.87,1.06,1a
2019-07-12_102219:700,-0.612122,0.019318000000000002,-0.252686,-0.022007,-0.014422999999999998,0.005861,-42.060001,8.87,1.06,1a
2019-07-12_102219:720,-0.617218,0.015747,-0.21859699999999999,-0.021488,-0.013568,0.007997,-42.060001,8.87,1.06,1a
2019-07-12_102219:740,-0.578064,0.017273,-0.220642,-0.021946,-0.016834000000000002,0.011629,-41.68,9.25,-0.87,1a
2019-07-12_102219:760,-0.473846,0.023895,-0.219635,-0.01923,-0.014636000000000001,0.01587,-41.68,9.25,-0.87,1a
2019-07-12_102219:780,-0.390961,0.023895,-0.222687,-0.017032,-0.014025999999999999,0.016663999999999998,-42.060001,9.25,-1.18,1a
