timestamp,AccX,AccY,AccZ,GyroX,GyroY,GyroZ,MagX,MagY,MagZ,Activity
2019-07-12_105351:520,-0.496216,-0.006592,-0.076263,-0.0036049999999999997,-0.006275,0.004548,-44.68,6.37,10.87,3a
2019-07-12_105351:540,-0.496216,-0.006072999999999999,-0.074738,-0.0036659999999999996,-0.0061530000000000005,0.004609,-44.68,6.37,10.87,3a
2019-07-12_105351:560,-0.497742,-0.004547,-0.075226,-0.004062,-0.005878,0.004915,-44.68,6.37,10.87,3a
2019-07-12_105351:580,-0.495697,-0.004547,-0.072693,-0.0042450000000000005,-0.004993,0.00525,-44.68,6.0,11.25,3a
2019-07-12_105351:600,-0.49365200000000004,-0.0030210000000000002,-0.074738,-0.004581,-0.005054,0.004548,-44.68,6.0,11.25,3a
2019-07-12_105351:620,-0.491638,-0.0035399999999999997,-0.075745,-0.004947,-0.005176,0.004091,-44.68,6.75,11.25,3a
2019-07-12_105351:640,-0.49111899999999997,-0.004547,-0.072693,-0.005161,-0.005817,0.004793,-44.68,6.75,11.25,3a
2019-07-12_105351:660,-0.494171,-0.005065999999999999,-0.07421900000000001,-0.005436,-0.006214,0.005189,-44.68,6.75,11.25,3a
2019-07-12_105351:680,-0.492645,-0.0055850000000000006,-0.071686,-0.005436,-0.005817,0.004915,-45.5,5.68,10.87,3a
2019-07-12_105351:700,-0.49316400000000005,-0.006072999999999999,-0.071686,-0.005741,-0.005939,0.005128,-45.5,5.68,10.87,3a
2019-07-12_105351:720,-0.49365200000000004,-0.006072999999999999,-0.072174,-0.005558,-0.006092,0.005647,-45.060001,6.0,11.25,3a
2019-07-12_105351:740,-0.496216,-0.007599,-0.072174,-0.005619,-0.006336,0.005861,-45.060001,6.0,11.25,3a
2019-07-12_105351:760,-0.496704,-0.008636,-0.0737,-0.005497,-0.006488,0.005861,-45.060001,6.0,11.25,3a
2019-07-12_105351:780,-0.497742,-0.008636,-0.072693,-0.005375,-0.006458,0.005922,-46.18,6.37,10.37,3a
2019-07-12_105351:800,-0.49517799999999995,-0.010162000000000001,-0.071167,-0.005222,-0.005939,0.006044,-46.18,6.37,10.37,3a
2019-07-12_105351:820,-0.49365200000000004,-0.009644,-0.070648,-0.005039,-0.0052369999999999995,0.006135,-44.68,6.75,12.06,3a
2019-07-12_105351:840,-0.489075,-0.010162000000000001,-0.070648,-0.004612,-0.00539,0.006470999999999999,-44.68,6.75,12.06,3a
2019-07-12_105351:860,-0.48754899999999995,-0.010162000000000001,-0.072174,-0.004764,-0.005878,0.006837,-44.68,6.75,12.06,3a
2019-07-12_105351:880,-0.489075,-0.010651,-0.073212,-0.004978,-0.006854000000000001,0.0069900000000000006,-44.25,6.0,11.25,3a
2019-07-12_105351:900,-0.49111899999999997,-0.009644,-0.070648,-0.005558,-0.007343000000000001,0.007387,-44.25,6.0,11.25,3a
2019-07-12_105351:920,-0.49111899999999997,-0.012177,-0.072174,-0.006076,-0.007862000000000001,0.0076,-45.060001,6.0,11.25,3a
2019-07-12_105351:940,-0.492126,-0.018799,-0.07421900000000001,-0.0064730000000000005,-0.007984,0.0069900000000000006,-45.060001,6.0,11.25,3a
2019-07-12_105351:960,-0.49111899999999997,-0.017792,-0.076263,-0.006168,-0.008075,0.005525,-45.060001,6.0,11.25,3a
2019-07-12_105351:980,-0.492126,-0.01828,-0.077271,-0.0060149999999999995,-0.008472,0.003908,-45.060001,6.37,11.25,3a
2019-07-12_105352:000,-0.492645,-0.016266,-0.076752,-0.005619,-0.008533,0.003908,-45.060001,6.37,11.25,3a
2019-07-12_105352:020,-0.496704,-0.015747,-0.076263,-0.004947,-0.007923000000000001,0.004213000000000001,-45.5,6.37,10.06,3a
2019-07-12_105352:040,-0.496216,-0.015228,-0.07421900000000001,-0.004825,-0.007129000000000001,0.003694,-45.5,6.37,10.06,3a
2019-07-12_105352:060,-0.49468999999999996,-0.013213999999999998,-0.07421900000000001,-0.004612,-0.0061530000000000005,0.003175,-45.5,6.37,10.06,3a
2019-07-12_105352:080,-0.489594,-0.011687999999999999,-0.076263,-0.004459,-0.0060609999999999995,0.003633,-45.060001,6.75,10.37,3a
2019-07-12_105352:100,-0.489594,-0.011169,-0.07421900000000001,-0.004520000000000001,-0.0066099999999999996,0.004182,-45.060001,6.75,10.37,3a
2019-07-12_105352:120,-0.489594,-0.012695,-0.0737,-0.004825,-0.007923000000000001,0.004671,-44.68,7.18,10.87,3a
2019-07-12_105352:140,-0.49365200000000004,-0.012177,-0.075745,-0.004886,-0.008014,0.005006,-44.68,7.18,10.87,3a
2019-07-12_105352:160,-0.492126,-0.013702,-0.075226,-0.004978,-0.008472,0.005861,-44.68,7.18,10.87,3a
2019-07-12_105352:180,-0.490601,-0.014221000000000001,-0.077271,-0.005436,-0.008990999999999999,0.005311,-44.25,7.18,11.25,3a
2019-07-12_105352:200,-0.491638,-0.013213999999999998,-0.078796,-0.005771,-0.009143,0.0058,-44.25,7.18,11.25,3a
2019-07-12_105352:220,-0.49316400000000005,-0.014221000000000001,-0.078796,-0.006076,-0.009387000000000001,0.006257,-44.68,6.37,9.25,3a
2019-07-12_105352:240,-0.495697,-0.016753999999999998,-0.082336,-0.0064730000000000005,-0.00893,0.006257,-44.68,6.37,9.25,3a
2019-07-12_105352:260,-0.496216,-0.015747,-0.081848,-0.006687,-0.008258,0.006135,-44.68,6.37,9.25,3a
2019-07-12_105352:280,-0.495697,-0.016753999999999998,-0.084381,-0.006687,-0.007343000000000001,0.005861,-45.5,6.75,10.06,3a
2019-07-12_105352:300,-0.49316400000000005,-0.01828,-0.083862,-0.00687,-0.006885,0.005067,-45.5,6.75,10.06,3a
2019-07-12_105352:320,-0.491638,-0.017273,-0.086914,-0.006687,-0.006488,0.004854,-45.060001,7.5,10.87,3a
2019-07-12_105352:340,-0.490601,-0.017273,-0.08843999999999999,-0.0065650000000000005,-0.006854000000000001,0.004793,-45.060001,7.5,10.87,3a
2019-07-12_105352:360,-0.49111899999999997,-0.017792,-0.08843999999999999,-0.006229,-0.006731999999999999,0.004732,-45.060001,7.5,10.87,3a
2019-07-12_105352:380,-0.48858599999999996,-0.015747,-0.089478,-0.005893,-0.007006999999999999,0.004945000000000001,-44.25,6.75,9.68,3a
2019-07-12_105352:400,-0.488068,-0.015747,-0.087952,-0.005771,-0.007129000000000001,0.004915,-44.25,6.75,9.68,3a
2019-07-12_105352:420,-0.489075,-0.015228,-0.090485,-0.005954,-0.007587000000000001,0.004854,-45.060001,7.18,9.68,3a
2019-07-12_105352:440,-0.49365200000000004,-0.014221000000000001,-0.08996599999999999,-0.006229,-0.0076170000000000005,0.005342,-45.060001,7.18,9.68,3a
2019-07-12_105352:460,-0.488068,-0.013213999999999998,-0.089478,-0.00629,-0.0076170000000000005,0.005922,-45.060001,7.18,9.68,3a
2019-07-12_105352:480,-0.496216,-0.015228,-0.09353600000000001,-0.006412,-0.0076170000000000005,0.005922,-44.68,7.87,9.68,3a
2019-07-12_105352:500,-0.496216,-0.013213999999999998,-0.089478,-0.007145,-0.006214,0.006470999999999999,-44.68,7.87,9.68,3a
2019-07-12_105352:520,-0.496216,-0.016753999999999998,-0.091003,-0.007418999999999999,-0.005939,0.006837,-44.68,7.18,9.68,3a
2019-07-12_105352:540,-0.492126,-0.019318000000000002,-0.090485,-0.008152,-0.005298,0.006379,-44.68,7.18,9.68,3a
2019-07-12_105352:560,-0.49316400000000005,-0.023895,-0.091003,-0.008334999999999999,-0.005298,0.004793,-44.68,7.18,9.68,3a
2019-07-12_105352:580,-0.492645,-0.023375999999999997,-0.09149199999999999,-0.008152,-0.005634,0.004945000000000001,-44.68,7.5,8.87,3a
2019-07-12_105352:600,-0.488068,-0.025908999999999998,-0.087952,-0.007267,-0.0055119999999999995,0.005739,-44.68,7.5,8.87,3a
2019-07-12_105352:620,-0.49316400000000005,-0.027435,-0.087952,-0.0065650000000000005,-0.0052369999999999995,0.005403,-45.060001,7.87,10.06,3a
2019-07-12_105352:640,-0.49365200000000004,-0.026427999999999997,-0.0849,-0.005619,-0.0045049999999999995,0.004732,-45.060001,7.87,10.06,3a
2019-07-12_105352:660,-0.495697,-0.025908999999999998,-0.083862,-0.004612,-0.003711,0.004396,-45.060001,7.87,10.06,3a
2019-07-12_105352:680,-0.490601,-0.025908999999999998,-0.085388,-0.004062,-0.0035280000000000003,0.004152,-45.060001,6.75,9.25,3a
2019-07-12_105352:700,-0.49111899999999997,-0.021851,-0.082336,-0.0033299999999999996,-0.004229999999999999,0.003175,-45.060001,6.75,9.25,3a
2019-07-12_105352:720,-0.488068,-0.019806,-0.084381,-0.002994,-0.004321,0.0032359999999999997,-45.060001,7.5,10.06,3a
2019-07-12_105352:740,-0.491638,-0.019806,-0.083374,-0.003452,-0.005176,0.003572,-45.060001,7.5,10.06,3a
2019-07-12_105352:760,-0.48654200000000003,-0.018799,-0.079803,-0.0033299999999999996,-0.005756,0.003175,-45.060001,7.5,10.06,3a
2019-07-12_105352:780,-0.489075,-0.017273,-0.081329,-0.0033909999999999995,-0.005878,0.003053,-45.060001,7.18,11.25,3a
2019-07-12_105352:800,-0.490112,-0.014740000000000001,-0.079803,-0.003483,-0.005939,0.002687,-45.060001,7.18,11.25,3a
2019-07-12_105352:820,-0.490112,-0.014740000000000001,-0.08081100000000001,-0.003544,-0.006,0.002778,-45.5,7.18,9.68,3a
2019-07-12_105352:840,-0.490601,-0.013702,-0.081329,-0.003483,-0.006731999999999999,0.002839,-45.5,7.18,9.68,3a
2019-07-12_105352:860,-0.489075,-0.015228,-0.079803,-0.003483,-0.0070680000000000005,0.002565,-45.5,7.18,9.68,3a
2019-07-12_105352:880,-0.492645,-0.013702,-0.082855,-0.003452,-0.007465,0.002443,-44.68,7.87,10.06,3a
2019-07-12_105352:900,-0.49365200000000004,-0.013213999999999998,-0.083862,-0.003788,-0.007862000000000001,0.00229,-44.68,7.87,10.06,3a
2019-07-12_105352:920,-0.494171,-0.011687999999999999,-0.085388,-0.0036659999999999996,-0.007862000000000001,0.00229,-45.5,7.5,10.37,3a
2019-07-12_105352:940,-0.491638,-0.014221000000000001,-0.090485,-0.004184,-0.007343000000000001,0.003053,-45.5,7.5,10.37,3a
2019-07-12_105352:960,-0.49722299999999997,-0.011169,-0.08743300000000001,-0.004184,-0.007129000000000001,0.003694,-45.5,7.5,10.37,3a
2019-07-12_105352:980,-0.49468999999999996,-0.011687999999999999,-0.08743300000000001,-0.004703,-0.006670999999999999,0.003908,-46.18,6.37,8.87,3a
2019-07-12_105353:000,-0.494171,-0.010651,-0.08590700000000001,-0.005039,-0.006336,0.0037549999999999997,-46.18,6.37,8.87,3a
2019-07-12_105353:020,-0.49365200000000004,-0.010651,-0.087952,-0.005497,-0.006092,0.0037549999999999997,-45.060001,7.87,10.06,3a
2019-07-12_105353:040,-0.492645,-0.011687999999999999,-0.086914,-0.0060149999999999995,-0.005634,0.0039689999999999994,-45.060001,7.87,10.06,3a
2019-07-12_105353:060,-0.49111899999999997,-0.013702,-0.086426,-0.006168,-0.005573,0.0039689999999999994,-45.060001,7.87,10.06,3a
2019-07-12_105353:080,-0.490601,-0.014221000000000001,-0.087952,-0.0061070000000000004,-0.005817,0.0039689999999999994,-44.25,7.5,10.06,3a
2019-07-12_105353:100,-0.490601,-0.015747,-0.08590700000000001,-0.005771,-0.005573,0.004091,-44.25,7.5,10.06,3a
2019-07-12_105353:120,-0.489594,-0.012695,-0.087952,-0.005344,-0.005817,0.004396,-45.75,7.18,10.37,3a
2019-07-12_105353:140,-0.494171,-0.013213999999999998,-0.086426,-0.005436,-0.005695,0.005006,-45.75,7.18,10.37,3a
2019-07-12_105353:160,-0.492645,-0.012695,-0.085388,-0.005619,-0.005695,0.005525,-45.75,7.18,10.37,3a
2019-07-12_105353:180,-0.48858599999999996,-0.013702,-0.086426,-0.005558,-0.005451,0.005739,-45.060001,7.18,8.87,3a
2019-07-12_105353:200,-0.491638,-0.015747,-0.085388,-0.005679999999999999,-0.005939,0.004152,-45.060001,7.18,8.87,3a
2019-07-12_105353:220,-0.49111899999999997,-0.014221000000000001,-0.086914,-0.005741,-0.006458,0.004091,-45.060001,7.18,10.06,3a
2019-07-12_105353:240,-0.48654200000000003,-0.013702,-0.086914,-0.005771,-0.0070680000000000005,0.005342,-45.060001,7.18,10.06,3a
2019-07-12_105353:260,-0.489075,-0.015228,-0.08590700000000001,-0.005497,-0.007281999999999999,0.005861,-45.060001,7.18,10.06,3a
2019-07-12_105353:280,-0.489075,-0.014740000000000001,-0.086426,-0.005679999999999999,-0.007281999999999999,0.005647,-45.5,7.18,9.25,3a
2019-07-12_105353:300,-0.486023,-0.015228,-0.084381,-0.005679999999999999,-0.007862000000000001,0.0058,-45.5,7.18,9.25,3a
2019-07-12_105353:320,-0.48858599999999996,-0.015228,-0.08590700000000001,-0.005741,-0.007801000000000001,0.006074,-44.68,6.75,9.68,3a
2019-07-12_105353:340,-0.486023,-0.015228,-0.087952,-0.0060149999999999995,-0.008869,0.006044,-44.68,6.75,9.68,3a
2019-07-12_105353:360,-0.48754899999999995,-0.016266,-0.086426,-0.006168,-0.009601,0.005983,-44.68,6.75,9.68,3a
2019-07-12_105353:380,-0.491638,-0.016753999999999998,-0.087952,-0.00629,-0.009876000000000001,0.006135,-45.060001,7.18,9.68,3a
2019-07-12_105353:400,-0.489075,-0.018799,-0.088959,-0.006076,-0.009937,0.006135,-45.060001,7.18,9.68,3a
2019-07-12_105353:420,-0.49365200000000004,-0.01828,-0.090485,-0.006168,-0.009723,0.005647,-44.25,7.87,9.25,3a
2019-07-12_105353:440,-0.49316400000000005,-0.019318000000000002,-0.095581,-0.0060149999999999995,-0.009113,0.005464,-44.25,7.87,9.25,3a
2019-07-12_105353:460,-0.49365200000000004,-0.019318000000000002,-0.09353600000000001,-0.005741,-0.008258,0.005922,-44.25,7.87,9.25,3a
2019-07-12_105353:480,-0.49722299999999997,-0.020844,-0.096588,-0.005619,-0.008136,0.0058,-45.060001,7.18,9.25,3a
2019-07-12_105353:500,-0.495697,-0.021332,-0.09353600000000001,-0.005375,-0.006397,0.004945000000000001,-45.060001,7.18,9.25,3a
2019-07-12_105353:520,-0.49365200000000004,-0.020325,-0.09454299999999999,-0.005222,-0.005756,0.005189,-45.060001,7.18,9.68,3a
2019-07-12_105353:540,-0.496216,-0.021851,-0.09963999999999999,-0.004978,-0.005054,0.004915,-45.060001,7.18,9.68,3a
2019-07-12_105353:560,-0.490601,-0.019318000000000002,-0.09201000000000001,-0.004825,-0.004444,0.004274,-45.060001,7.18,9.68,3a
2019-07-12_105353:580,-0.490601,-0.020325,-0.09454299999999999,-0.004947,-0.004444,0.004152,-44.25,8.18,8.87,3a
2019-07-12_105353:600,-0.491638,-0.019806,-0.09201000000000001,-0.004459,-0.00426,0.004152,-44.25,8.18,8.87,3a
2019-07-12_105353:620,-0.48858599999999996,-0.020325,-0.09201000000000001,-0.004337,-0.004108,0.004274,-45.5,7.5,10.06,3a
2019-07-12_105353:640,-0.489594,-0.01828,-0.09149199999999999,-0.004337,-0.004444,0.0039689999999999994,-45.5,7.5,10.06,3a
2019-07-12_105353:660,-0.48754899999999995,-0.01828,-0.090485,-0.004062,-0.0045049999999999995,0.004335,-45.5,7.5,10.06,3a
2019-07-12_105353:680,-0.486023,-0.020325,-0.09201000000000001,-0.004062,-0.004566,0.004518,-45.060001,7.87,9.25,3a
2019-07-12_105353:700,-0.485016,-0.017792,-0.08996599999999999,-0.004398,-0.005695,0.004457,-45.060001,7.87,9.25,3a
2019-07-12_105353:720,-0.48858599999999996,-0.020325,-0.08996599999999999,-0.004459,-0.006488,0.004548,-45.75,7.87,8.87,3a
2019-07-12_105353:740,-0.48754899999999995,-0.017792,-0.091003,-0.004581,-0.006548999999999999,0.004518,-45.75,7.87,8.87,3a
2019-07-12_105353:760,-0.48858599999999996,-0.019806,-0.091003,-0.004642,-0.006885,0.004182,-45.75,7.87,8.87,3a
2019-07-12_105353:780,-0.488068,-0.020325,-0.094055,-0.004764,-0.006885,0.004091,-44.68,7.87,9.68,3a
2019-07-12_105353:800,-0.48858599999999996,-0.020325,-0.094055,-0.004612,-0.007343000000000001,0.004274,-44.68,7.87,9.68,3a
2019-07-12_105353:820,-0.490601,-0.021332,-0.09811399999999999,-0.004398,-0.0076170000000000005,0.004396,-44.68,7.87,9.68,3a
2019-07-12_105353:840,-0.49517799999999995,-0.020844,-0.095062,-0.004337,-0.007281999999999999,0.004732,-45.060001,7.18,9.25,3a
2019-07-12_105353:860,-0.49316400000000005,-0.021332,-0.096069,-0.004398,-0.006854000000000001,0.005006,-45.060001,7.18,9.25,3a
2019-07-12_105353:880,-0.49316400000000005,-0.021851,-0.09454299999999999,-0.004520000000000001,-0.005634,0.004732,-45.060001,8.18,9.25,3a
2019-07-12_105353:900,-0.49365200000000004,-0.021332,-0.096069,-0.004612,-0.0052369999999999995,0.004091,-45.060001,8.18,9.25,3a
2019-07-12_105353:920,-0.490112,-0.01828,-0.09454299999999999,-0.0052829999999999995,-0.004961999999999999,0.00345,-44.68,8.18,8.87,3a
2019-07-12_105353:940,-0.48754899999999995,-0.019806,-0.09454299999999999,-0.0051,-0.005298,0.004152,-44.68,8.18,8.87,3a
2019-07-12_105353:960,-0.491638,-0.021332,-0.092529,-0.005039,-0.005115,0.004335,-44.68,8.18,8.87,3a
2019-07-12_105353:980,-0.492126,-0.019806,-0.08996599999999999,-0.0051,-0.0045049999999999995,0.004274,-45.060001,7.87,9.25,3a
2019-07-12_105354:000,-0.490601,-0.018799,-0.08743300000000001,-0.004886,-0.003375,0.004396,-45.060001,7.87,9.25,3a
2019-07-12_105354:020,-0.48706099999999997,-0.020844,-0.087952,-0.004886,-0.0035280000000000003,0.004457,-45.060001,7.87,9.25,3a
2019-07-12_105354:040,-0.48654200000000003,-0.020844,-0.08996599999999999,-0.004825,-0.004718,0.004457,-44.68,7.87,9.68,3a
2019-07-12_105354:060,-0.48654200000000003,-0.021332,-0.089478,-0.005039,-0.0052369999999999995,0.004396,-44.68,7.87,9.68,3a
2019-07-12_105354:080,-0.489594,-0.019806,-0.091003,-0.0052829999999999995,-0.006548999999999999,0.004671,-45.5,7.87,8.87,3a
2019-07-12_105354:100,-0.490601,-0.020844,-0.089478,-0.005222,-0.006793,0.004732,-45.5,7.87,8.87,3a
2019-07-12_105354:120,-0.494171,-0.020844,-0.09301799999999999,-0.005161,-0.006458,0.003511,-44.68,8.18,9.25,3a
2019-07-12_105354:140,-0.49316400000000005,-0.019806,-0.09149199999999999,-0.005161,-0.0061530000000000005,0.003175,-44.68,8.18,9.25,3a
2019-07-12_105354:160,-0.494171,-0.019806,-0.09201000000000001,-0.0051,-0.00484,0.004274,-44.68,8.18,9.25,3a
2019-07-12_105354:180,-0.49468999999999996,-0.019806,-0.09149199999999999,-0.0051,-0.004657,0.004457,-45.5,8.18,9.25,3a
2019-07-12_105354:200,-0.492645,-0.020844,-0.08996599999999999,-0.004825,-0.0037719999999999997,0.003908,-45.5,8.18,9.25,3a
2019-07-12_105354:220,-0.491638,-0.019806,-0.089478,-0.004886,-0.003833,0.00403,-45.5,8.18,9.25,3a
2019-07-12_105354:240,-0.490112,-0.019806,-0.091003,-0.004764,-0.00365,0.004182,-44.68,7.87,9.25,3a
2019-07-12_105354:260,-0.488068,-0.017273,-0.089478,-0.004886,-0.003925,0.004274,-44.68,7.87,9.25,3a
2019-07-12_105354:280,-0.48858599999999996,-0.019318000000000002,-0.090485,-0.004947,-0.00426,0.004335,-46.560001,8.18,8.87,3a
2019-07-12_105354:300,-0.48754899999999995,-0.020844,-0.090485,-0.004642,-0.004596,0.004274,-46.560001,8.18,8.87,3a
2019-07-12_105354:320,-0.488068,-0.020844,-0.08843999999999999,-0.004459,-0.004779,0.004335,-45.060001,7.87,10.37,3a
2019-07-12_105354:340,-0.489594,-0.021332,-0.08996599999999999,-0.004398,-0.0052369999999999995,0.003694,-45.060001,7.87,10.37,3a
2019-07-12_105354:360,-0.48858599999999996,-0.020325,-0.088959,-0.003849,-0.005298,0.00403,-45.060001,7.87,10.37,3a
2019-07-12_105354:380,-0.48858599999999996,-0.019806,-0.089478,-0.0037270000000000003,-0.005695,0.00403,-45.060001,8.18,8.5,3a
2019-07-12_105354:400,-0.489594,-0.018799,-0.08843999999999999,-0.003452,-0.005878,0.0038469999999999997,-45.060001,8.18,8.5,3a
2019-07-12_105354:420,-0.490601,-0.019318000000000002,-0.08843999999999999,-0.003452,-0.005878,0.004182,-44.68,8.18,8.87,3a
2019-07-12_105354:440,-0.492126,-0.016753999999999998,-0.08843999999999999,-0.003544,-0.005939,0.004213000000000001,-44.68,8.18,8.87,3a
2019-07-12_105354:460,-0.490112,-0.016753999999999998,-0.086426,-0.004001,-0.005573,0.004152,-44.68,8.18,8.87,3a
2019-07-12_105354:480,-0.490112,-0.017273,-0.086426,-0.004184,-0.005695,0.004335,-45.060001,7.87,9.25,3a
2019-07-12_105354:500,-0.48858599999999996,-0.020325,-0.08590700000000001,-0.004337,-0.005939,0.004091,-45.060001,7.87,9.25,3a
2019-07-12_105354:520,-0.48754899999999995,-0.018799,-0.085388,-0.004398,-0.006488,0.00403,-45.060001,7.87,9.25,3a
2019-07-12_105354:540,-0.490601,-0.019318000000000002,-0.089478,-0.004581,-0.006945999999999999,0.0038469999999999997,-45.060001,8.18,9.68,3a
2019-07-12_105354:560,-0.490601,-0.01828,-0.089478,-0.004337,-0.006670999999999999,0.004152,-45.060001,8.18,9.68,3a
2019-07-12_105354:580,-0.497742,-0.017792,-0.090485,-0.004581,-0.006793,0.004518,-45.5,7.87,8.87,3a
2019-07-12_105354:600,-0.49926800000000005,-0.017273,-0.08996599999999999,-0.004642,-0.006214,0.004945000000000001,-45.5,7.87,8.87,3a
2019-07-12_105354:620,-0.495697,-0.020325,-0.089478,-0.004764,-0.0052369999999999995,0.005128,-45.060001,7.5,9.68,3a
2019-07-12_105354:640,-0.490601,-0.020844,-0.08843999999999999,-0.004947,-0.004657,0.004915,-45.060001,7.5,9.68,3a
2019-07-12_105354:660,-0.491638,-0.021332,-0.08843999999999999,-0.004581,-0.004383,0.004152,-45.060001,7.5,9.68,3a
2019-07-12_105354:680,-0.48858599999999996,-0.020325,-0.089478,-0.004612,-0.004901,0.0037549999999999997,-45.060001,8.56,9.68,3a
2019-07-12_105354:700,-0.486023,-0.020844,-0.08743300000000001,-0.004337,-0.005573,0.004396,-45.060001,8.56,9.68,3a
2019-07-12_105354:720,-0.489075,-0.021332,-0.08843999999999999,-0.003879,-0.006092,0.004915,-45.5,8.18,9.68,3a
2019-07-12_105354:740,-0.489594,-0.020844,-0.08743300000000001,-0.003788,-0.005878,0.005189,-45.5,8.18,9.68,3a
2019-07-12_105354:760,-0.48858599999999996,-0.017273,-0.086914,-0.004001,-0.005634,0.005189,-45.5,8.18,9.68,3a
2019-07-12_105354:780,-0.489075,-0.018799,-0.088959,-0.004520000000000001,-0.005573,0.005525,-45.060001,7.75,9.68,3a
2019-07-12_105354:800,-0.488068,-0.020325,-0.089478,-0.005039,-0.006092,0.005922,-45.060001,7.75,9.68,3a
2019-07-12_105354:820,-0.48754899999999995,-0.020844,-0.090485,-0.005832,-0.006458,0.005647,-45.060001,7.75,9.68,3a
2019-07-12_105354:840,-0.489594,-0.022369,-0.091003,-0.0065650000000000005,-0.0070680000000000005,0.005586,-45.5,8.18,10.87,3a
2019-07-12_105354:860,-0.489075,-0.024384,-0.08843999999999999,-0.0065650000000000005,-0.007343000000000001,0.005922,-45.5,8.18,10.87,3a
2019-07-12_105354:880,-0.490112,-0.024384,-0.09149199999999999,-0.0064730000000000005,-0.007343000000000001,0.005464,-45.5,8.56,9.68,3a
2019-07-12_105354:900,-0.490601,-0.023895,-0.091003,-0.006504,-0.00719,0.004182,-45.5,8.56,9.68,3a
2019-07-12_105354:920,-0.490601,-0.023895,-0.090485,-0.006351,-0.0070680000000000005,0.004152,-45.5,8.56,9.68,3a
2019-07-12_105354:940,-0.49111899999999997,-0.024384,-0.09201000000000001,-0.0061070000000000004,-0.006731999999999999,0.004945000000000001,-45.5,8.56,10.37,3a
2019-07-12_105354:960,-0.492645,-0.023895,-0.08996599999999999,-0.005954,-0.006731999999999999,0.004671,-45.5,8.56,10.37,3a
2019-07-12_105354:980,-0.492126,-0.023895,-0.09201000000000001,-0.0060149999999999995,-0.006092,0.004213000000000001,-45.75,8.56,9.68,3a
2019-07-12_105355:000,-0.492126,-0.022858,-0.08996599999999999,-0.005771,-0.005695,0.0039689999999999994,-45.75,8.56,9.68,3a
2019-07-12_105355:020,-0.491638,-0.022858,-0.090485,-0.005832,-0.005695,0.0037549999999999997,-45.75,8.56,9.68,3a
2019-07-12_105355:040,-0.49111899999999997,-0.023375999999999997,-0.089478,-0.005893,-0.005451,0.00345,-45.5,7.87,8.87,3a
2019-07-12_105355:060,-0.489075,-0.022369,-0.089478,-0.005497,-0.005359,0.0038159999999999995,-45.5,7.87,8.87,3a
2019-07-12_105355:080,-0.489075,-0.022369,-0.089478,-0.005222,-0.005573,0.0039689999999999994,-45.5,8.56,9.25,3a
2019-07-12_105355:100,-0.488068,-0.022369,-0.086426,-0.004978,-0.005725,0.004091,-45.5,8.56,9.25,3a
2019-07-12_105355:120,-0.48858599999999996,-0.020325,-0.087952,-0.004825,-0.006214,0.004091,-45.5,8.56,9.25,3a
2019-07-12_105355:140,-0.489075,-0.019806,-0.088959,-0.004703,-0.006488,0.004518,-45.060001,8.18,8.87,3a
2019-07-12_105355:160,-0.490601,-0.019318000000000002,-0.08996599999999999,-0.004947,-0.006397,0.004945000000000001,-45.060001,8.18,8.87,3a
2019-07-12_105355:180,-0.49316400000000005,-0.019318000000000002,-0.090485,-0.005497,-0.0066099999999999996,0.004793,-45.060001,7.87,8.87,3a
2019-07-12_105355:200,-0.495697,-0.019806,-0.090485,-0.0060149999999999995,-0.0060609999999999995,0.004396,-45.060001,7.87,8.87,3a
2019-07-12_105355:220,-0.497742,-0.023375999999999997,-0.09201000000000001,-0.006351,-0.004993,0.004213000000000001,-45.060001,7.87,8.87,3a
2019-07-12_105355:240,-0.495697,-0.024384,-0.09301799999999999,-0.006351,-0.0037719999999999997,0.0037549999999999997,-45.060001,7.87,8.87,3a
2019-07-12_105355:260,-0.49517799999999995,-0.022369,-0.092529,-0.0061070000000000004,-0.002704,0.0037549999999999997,-45.060001,7.87,8.87,3a
2019-07-12_105355:280,-0.494171,-0.020325,-0.09149199999999999,-0.005954,-0.002307,0.004152,-44.68,8.56,8.5,3a
2019-07-12_105355:300,-0.49111899999999997,-0.019806,-0.090485,-0.006076,-0.001666,0.004457,-44.68,8.56,8.5,3a
2019-07-12_105355:320,-0.48858599999999996,-0.019318000000000002,-0.087952,-0.006504,-0.001789,0.004548,-44.68,8.56,8.5,3a
2019-07-12_105355:340,-0.49316400000000005,-0.021851,-0.086914,-0.006962,-0.002338,0.004945000000000001,-44.68,7.87,9.68,3a
2019-07-12_105355:360,-0.49365200000000004,-0.022858,-0.081329,-0.0067480000000000005,-0.002857,0.005006,-44.68,7.87,9.68,3a
2019-07-12_105355:380,-0.492645,-0.023895,-0.082855,-0.0067480000000000005,-0.002735,0.004854,-45.060001,8.18,10.06,3a
2019-07-12_105355:400,-0.489075,-0.023375999999999997,-0.081329,-0.006412,-0.0025210000000000002,0.00525,-45.060001,8.18,10.06,3a
2019-07-12_105355:420,-0.48706099999999997,-0.024902,-0.082336,-0.005771,-0.002643,0.004945000000000001,-45.060001,8.18,10.06,3a
2019-07-12_105355:440,-0.48349,-0.022369,-0.083374,-0.005771,-0.003833,0.0037549999999999997,-45.5,7.87,9.25,3a
2019-07-12_105355:460,-0.48095699999999997,-0.022369,-0.082336,-0.0052829999999999995,-0.005634,0.003908,-45.5,7.87,9.25,3a
2019-07-12_105355:480,-0.48706099999999997,-0.021851,-0.083862,-0.005039,-0.006793,0.004915,-44.25,7.5,9.68,3a
2019-07-12_105355:500,-0.48706099999999997,-0.022369,-0.083862,-0.005039,-0.007526000000000001,0.005067,-44.25,7.5,9.68,3a
2019-07-12_105355:520,-0.48553500000000005,-0.021851,-0.085388,-0.004947,-0.0076170000000000005,0.004915,-44.25,7.5,9.68,3a
2019-07-12_105355:540,-0.48654200000000003,-0.022858,-0.08590700000000001,-0.004947,-0.008014,0.004854,-44.25,8.56,9.68,3a
2019-07-12_105355:560,-0.48349,-0.022858,-0.085388,-0.005161,-0.009265,0.004793,-44.25,8.56,9.68,3a
2019-07-12_105355:580,-0.484009,-0.022858,-0.08843999999999999,-0.005344,-0.010791,0.004671,-45.5,9.0,9.25,3a
2019-07-12_105355:600,-0.489075,-0.022858,-0.087952,-0.005436,-0.011524,0.004854,-45.5,9.0,9.25,3a
2019-07-12_105355:620,-0.486023,-0.023375999999999997,-0.089478,-0.005619,-0.012927000000000001,0.005403,-45.5,9.0,9.25,3a
2019-07-12_105355:640,-0.489075,-0.023895,-0.08996599999999999,-0.005497,-0.013507,0.004548,-44.68,7.87,9.25,3a
2019-07-12_105355:660,-0.492126,-0.022858,-0.09353600000000001,-0.005497,-0.01369,0.004213000000000001,-44.68,7.87,9.25,3a
2019-07-12_105355:680,-0.492126,-0.023895,-0.094055,-0.005161,-0.013781999999999999,0.004793,-45.060001,8.56,8.87,3a
2019-07-12_105355:700,-0.496704,-0.024384,-0.09454299999999999,-0.0051,-0.012653,0.005006,-45.060001,8.56,8.87,3a
2019-07-12_105355:720,-0.500793,-0.025908999999999998,-0.098633,-0.004947,-0.011127,0.004671,-45.060001,8.56,8.87,3a
2019-07-12_105355:740,-0.501801,-0.025421,-0.100159,-0.004520000000000001,-0.009113,0.004335,-44.68,8.18,8.5,3a
2019-07-12_105355:760,-0.500793,-0.025421,-0.102692,-0.004184,-0.007006999999999999,0.00403,-44.68,8.18,8.5,3a
2019-07-12_105355:780,-0.501282,-0.025908999999999998,-0.104218,-0.004001,-0.005115,0.003511,-46.18,8.18,9.25,3a
2019-07-12_105355:800,-0.496216,-0.024902,-0.100647,-0.003788,-0.003467,0.003175,-46.18,8.18,9.25,3a
2019-07-12_105355:820,-0.49316400000000005,-0.024902,-0.102173,-0.0037270000000000003,-0.002857,0.003114,-46.18,8.18,9.25,3a
2019-07-12_105355:840,-0.49111899999999997,-0.022369,-0.099121,-0.003544,-0.0025210000000000002,0.003023,-44.25,8.56,8.06,3a
2019-07-12_105355:860,-0.490112,-0.023895,-0.097107,-0.0033909999999999995,-0.002246,0.0029620000000000002,-44.25,8.56,8.06,3a
2019-07-12_105355:880,-0.489075,-0.022369,-0.09454299999999999,-0.0033909999999999995,-0.002338,0.002839,-45.5,8.18,8.06,3a
2019-07-12_105355:900,-0.488068,-0.020844,-0.09201000000000001,-0.0032689999999999998,-0.002582,0.003053,-45.5,8.18,8.06,3a
2019-07-12_105355:920,-0.48858599999999996,-0.021851,-0.09301799999999999,-0.0033299999999999996,-0.002979,0.00345,-45.5,8.18,8.06,3a
2019-07-12_105355:940,-0.48754899999999995,-0.020844,-0.09201000000000001,-0.0036049999999999997,-0.0035280000000000003,0.00345,-44.68,8.56,9.68,3a
2019-07-12_105355:960,-0.486023,-0.019806,-0.08996599999999999,-0.00394,-0.003986,0.003511,-44.68,8.56,9.68,3a
2019-07-12_105355:980,-0.486023,-0.021851,-0.09149199999999999,-0.004123,-0.004444,0.003572,-45.060001,8.18,8.06,3a
2019-07-12_105356:000,-0.48654200000000003,-0.020844,-0.090485,-0.004275999999999999,-0.005359,0.003511,-45.060001,8.18,8.06,3a
2019-07-12_105356:020,-0.48553500000000005,-0.021332,-0.09201000000000001,-0.004459,-0.005695,0.003572,-45.060001,8.18,8.06,3a
2019-07-12_105356:040,-0.489075,-0.019806,-0.09201000000000001,-0.004612,-0.006458,0.0037549999999999997,-45.060001,7.5,9.25,3a
2019-07-12_105356:060,-0.489594,-0.019318000000000002,-0.090485,-0.004825,-0.006548999999999999,0.00345,-45.060001,7.5,9.25,3a
2019-07-12_105356:080,-0.49316400000000005,-0.019318000000000002,-0.090485,-0.0052829999999999995,-0.006397,0.00345,-45.5,8.56,9.68,3a
2019-07-12_105356:100,-0.490601,-0.021332,-0.09201000000000001,-0.005893,-0.006397,0.003175,-45.5,8.56,9.68,3a
2019-07-12_105356:120,-0.488068,-0.021851,-0.089478,-0.006168,-0.006214,0.002046,-45.5,8.56,9.68,3a
2019-07-12_105356:140,-0.48553500000000005,-0.021851,-0.09454299999999999,-0.006351,-0.006945999999999999,0.001161,-45.75,8.18,8.5,3a
2019-07-12_105356:160,-0.481476,-0.020844,-0.09149199999999999,-0.006229,-0.008014,0.001832,-45.75,8.18,8.5,3a
2019-07-12_105356:180,-0.48706099999999997,-0.019806,-0.091003,-0.005893,-0.008869,0.002839,-45.5,8.56,8.87,3a
2019-07-12_105356:200,-0.489594,-0.019318000000000002,-0.08996599999999999,-0.005832,-0.008808,0.002443,-45.5,8.56,8.87,3a
2019-07-12_105356:220,-0.489075,-0.017273,-0.091003,-0.006076,-0.008594,0.0019850000000000002,-45.5,8.56,8.87,3a
2019-07-12_105356:240,-0.48654200000000003,-0.01828,-0.09454299999999999,-0.0061070000000000004,-0.008716,0.002382,-45.060001,7.87,7.68,3a
2019-07-12_105356:260,-0.489075,-0.018799,-0.096588,-0.005619,-0.009113,0.003023,-45.060001,7.87,7.68,3a
2019-07-12_105356:280,-0.49111899999999997,-0.019318000000000002,-0.100647,-0.0051,-0.009509,0.003053,-45.060001,9.0,8.87,3a
2019-07-12_105356:300,-0.496216,-0.016753999999999998,-0.098633,-0.004612,-0.009052,0.003908,-45.060001,9.0,8.87,3a
2019-07-12_105356:320,-0.496216,-0.01828,-0.100647,-0.004123,-0.008075,0.005311,-45.060001,9.0,8.87,3a
2019-07-12_105356:340,-0.496216,-0.019318000000000002,-0.102692,-0.003452,-0.006670999999999999,0.004854,-45.060001,8.56,8.87,3a
2019-07-12_105356:360,-0.49823,-0.016753999999999998,-0.103699,-0.003208,-0.0055119999999999995,0.004091,-45.060001,8.56,8.87,3a
2019-07-12_105356:380,-0.49365200000000004,-0.016753999999999998,-0.102692,-0.0027199999999999998,-0.004383,0.005128,-45.5,7.87,8.06,3a
2019-07-12_105356:400,-0.49316400000000005,-0.019318000000000002,-0.100647,-0.002414,-0.0035280000000000003,0.0058,-45.5,7.87,8.06,3a
2019-07-12_105356:420,-0.49365200000000004,-0.018799,-0.101685,-0.002597,-0.0030399999999999997,0.005464,-45.5,7.87,8.06,3a
2019-07-12_105356:440,-0.489594,-0.01828,-0.099121,-0.002414,-0.002582,0.005342,-45.5,7.87,8.06,3a
2019-07-12_105356:460,-0.490601,-0.019318000000000002,-0.097107,-0.002597,-0.002246,0.005403,-45.5,7.87,8.06,3a
2019-07-12_105356:480,-0.490112,-0.019318000000000002,-0.095581,-0.002872,-0.0023989999999999997,0.005067,-44.68,8.18,8.5,3a
2019-07-12_105356:500,-0.489075,-0.017792,-0.094055,-0.003116,-0.00246,0.004732,-44.68,8.18,8.5,3a
2019-07-12_105356:520,-0.48706099999999997,-0.019806,-0.094055,-0.003055,-0.002582,0.004732,-44.68,8.18,8.5,3a
2019-07-12_105356:540,-0.48654200000000003,-0.018799,-0.09454299999999999,-0.0032689999999999998,-0.0030399999999999997,0.004457,-45.5,7.87,10.06,3a
2019-07-12_105356:560,-0.48349,-0.019318000000000002,-0.092529,-0.003452,-0.00365,0.004396,-45.5,7.87,10.06,3a
2019-07-12_105356:580,-0.486023,-0.01828,-0.091003,-0.003483,-0.00426,0.004732,-45.060001,8.18,10.06,3a
2019-07-12_105356:600,-0.48654200000000003,-0.01828,-0.091003,-0.00394,-0.005359,0.004854,-45.060001,8.18,10.06,3a
2019-07-12_105356:620,-0.48706099999999997,-0.016753999999999998,-0.092529,-0.004398,-0.005878,0.005006,-45.060001,8.18,10.06,3a
2019-07-12_105356:640,-0.48858599999999996,-0.017273,-0.09353600000000001,-0.004825,-0.006336,0.005067,-45.75,8.56,9.68,3a
2019-07-12_105356:660,-0.489075,-0.01828,-0.09201000000000001,-0.0051,-0.006397,0.004854,-45.75,8.56,9.68,3a
2019-07-12_105356:680,-0.48706099999999997,-0.019806,-0.094055,-0.005344,-0.0066099999999999996,0.004793,-45.060001,8.18,8.06,3a
2019-07-12_105356:700,-0.489075,-0.021332,-0.09353600000000001,-0.005375,-0.007220999999999999,0.004793,-45.060001,8.18,8.06,3a
2019-07-12_105356:720,-0.49111899999999997,-0.019806,-0.09201000000000001,-0.005344,-0.007129000000000001,0.005067,-45.060001,8.18,8.06,3a
2019-07-12_105356:740,-0.491638,-0.021332,-0.092529,-0.005497,-0.0066099999999999996,0.005586,-45.060001,9.0,9.25,3a
2019-07-12_105356:760,-0.490112,-0.021851,-0.09353600000000001,-0.005375,-0.006336,0.005586,-45.060001,9.0,9.25,3a
2019-07-12_105356:780,-0.490112,-0.023375999999999997,-0.09353600000000001,-0.005436,-0.006458,0.004274,-45.060001,7.5,8.5,3a
2019-07-12_105356:800,-0.490112,-0.021332,-0.095062,-0.0052829999999999995,-0.0066099999999999996,0.003114,-45.060001,7.5,8.5,3a
2019-07-12_105356:820,-0.488068,-0.020325,-0.095062,-0.0052829999999999995,-0.007281999999999999,0.004152,-45.060001,7.5,8.5,3a
2019-07-12_105356:840,-0.49365200000000004,-0.022369,-0.095581,-0.004886,-0.006854000000000001,0.00525,-45.5,8.18,8.5,3a
2019-07-12_105356:860,-0.49517799999999995,-0.020844,-0.095581,-0.004764,-0.005817,0.004854,-45.5,8.18,8.5,3a
2019-07-12_105356:880,-0.492126,-0.019806,-0.095062,-0.004947,-0.004779,0.004732,-45.060001,8.56,8.5,3a
2019-07-12_105356:900,-0.489594,-0.020844,-0.09454299999999999,-0.004886,-0.004229999999999999,0.005342,-45.060001,8.56,8.5,3a
2019-07-12_105356:920,-0.488068,-0.020325,-0.094055,-0.005375,-0.004229999999999999,0.005678,-45.060001,8.56,8.5,3a
2019-07-12_105356:940,-0.48654200000000003,-0.021851,-0.095062,-0.005436,-0.004901,0.005403,-45.5,9.0,8.5,3a
2019-07-12_105356:960,-0.49365200000000004,-0.022858,-0.09353600000000001,-0.005558,-0.0055119999999999995,0.005464,-45.5,9.0,8.5,3a
2019-07-12_105356:980,-0.48754899999999995,-0.024902,-0.09201000000000001,-0.005375,-0.005451,0.005861,-44.68,8.56,9.25,3a
2019-07-12_105357:000,-0.490601,-0.025908999999999998,-0.09149199999999999,-0.0052829999999999995,-0.005298,0.004945000000000001,-44.68,8.56,9.25,3a
2019-07-12_105357:020,-0.48754899999999995,-0.024384,-0.092529,-0.0051,-0.0052369999999999995,0.004548,-44.68,8.56,9.25,3a
2019-07-12_105357:040,-0.48754899999999995,-0.024902,-0.092529,-0.004764,-0.005573,0.005189,-45.060001,8.56,8.87,3a
2019-07-12_105357:060,-0.488068,-0.026427999999999997,-0.090485,-0.004703,-0.005695,0.005403,-45.060001,8.56,8.87,3a
2019-07-12_105357:080,-0.48858599999999996,-0.024902,-0.09201000000000001,-0.004825,-0.006214,0.004915,-44.68,8.18,8.5,3a
2019-07-12_105357:100,-0.489075,-0.024902,-0.090485,-0.004947,-0.006092,0.004915,-44.68,8.18,8.5,3a
2019-07-12_105357:120,-0.48706099999999997,-0.025421,-0.091003,-0.0051,-0.006397,0.004945000000000001,-44.68,8.18,8.5,3a
2019-07-12_105357:140,-0.48858599999999996,-0.026427999999999997,-0.094055,-0.004947,-0.006670999999999999,0.004518,-45.5,8.56,8.06,3a
2019-07-12_105357:160,-0.48858599999999996,-0.024384,-0.09301799999999999,-0.005039,-0.007006999999999999,0.004457,-45.5,8.56,8.06,3a
2019-07-12_105357:180,-0.49111899999999997,-0.024902,-0.09454299999999999,-0.004947,-0.007006999999999999,0.004793,-45.060001,8.18,8.87,3a
2019-07-12_105357:200,-0.491638,-0.024902,-0.094055,-0.004978,-0.006548999999999999,0.004671,-45.060001,8.18,8.87,3a
2019-07-12_105357:220,-0.490601,-0.026427999999999997,-0.095581,-0.005039,-0.006336,0.004609,-45.060001,8.18,8.87,3a
2019-07-12_105357:240,-0.489075,-0.025908999999999998,-0.096588,-0.005161,-0.0060609999999999995,0.004793,-45.060001,8.56,8.5,3a
2019-07-12_105357:260,-0.490112,-0.026427999999999997,-0.096588,-0.0052829999999999995,-0.006488,0.004671,-45.060001,8.56,8.5,3a
2019-07-12_105357:280,-0.490112,-0.026917,-0.096588,-0.0052829999999999995,-0.0061530000000000005,0.004671,-45.75,8.56,8.06,3a
2019-07-12_105357:300,-0.49111899999999997,-0.025908999999999998,-0.096069,-0.005375,-0.006336,0.004671,-45.75,8.56,8.06,3a
2019-07-12_105357:320,-0.489594,-0.026917,-0.095581,-0.005344,-0.005725,0.004396,-45.75,8.56,8.06,3a
2019-07-12_105357:340,-0.489075,-0.027435,-0.095581,-0.005161,-0.005573,0.00403,-45.060001,8.56,8.87,3a
2019-07-12_105357:360,-0.490112,-0.028442000000000002,-0.096069,-0.004978,-0.005451,0.003633,-45.060001,8.56,8.87,3a
2019-07-12_105357:380,-0.488068,-0.027435,-0.095581,-0.004612,-0.005298,0.0034189999999999997,-45.5,7.87,8.5,3a
2019-07-12_105357:400,-0.488068,-0.027435,-0.096069,-0.004337,-0.005573,0.003358,-45.5,7.87,8.5,3a
2019-07-12_105357:420,-0.490112,-0.025421,-0.09301799999999999,-0.003849,-0.0055119999999999995,0.003511,-45.5,7.87,8.5,3a
2019-07-12_105357:440,-0.49111899999999997,-0.025421,-0.09353600000000001,-0.0037270000000000003,-0.005451,0.003572,-44.68,9.0,8.87,3a
2019-07-12_105357:460,-0.48858599999999996,-0.025908999999999998,-0.094055,-0.003483,-0.005298,0.0037549999999999997,-44.68,9.0,8.87,3a
2019-07-12_105357:480,-0.489075,-0.024902,-0.094055,-0.0033909999999999995,-0.005115,0.002687,-44.68,9.0,8.87,3a
2019-07-12_105357:500,-0.48706099999999997,-0.021851,-0.096588,-0.003483,-0.00539,0.001771,-44.68,9.0,8.87,3a
2019-07-12_105357:520,-0.484497,-0.021851,-0.096588,-0.0033299999999999996,-0.006092,0.0025039999999999997,-44.68,9.0,8.87,3a
2019-07-12_105357:540,-0.489075,-0.022369,-0.096588,-0.003208,-0.0066099999999999996,0.003694,-45.5,8.56,9.25,3a
2019-07-12_105357:560,-0.490112,-0.021851,-0.095581,-0.003147,-0.006488,0.003694,-45.5,8.56,9.25,3a
2019-07-12_105357:580,-0.490112,-0.019318000000000002,-0.095581,-0.003452,-0.006,0.00345,-45.060001,9.25,8.87,3a
2019-07-12_105357:600,-0.490601,-0.019806,-0.096588,-0.0036659999999999996,-0.005695,0.0038469999999999997,-45.060001,9.25,8.87,3a
2019-07-12_105357:620,-0.490112,-0.021332,-0.097107,-0.0042450000000000005,-0.0055119999999999995,0.004182,-45.060001,9.25,8.87,3a
2019-07-12_105357:640,-0.489594,-0.021851,-0.097107,-0.004642,-0.005573,0.003908,-45.060001,8.56,8.87,3a
2019-07-12_105357:660,-0.492645,-0.022369,-0.094055,-0.004947,-0.005725,0.003908,-45.060001,8.56,8.87,3a
2019-07-12_105357:680,-0.48858599999999996,-0.023895,-0.096069,-0.004642,-0.005634,0.004274,-45.060001,9.0,8.06,3a
2019-07-12_105357:700,-0.49111899999999997,-0.024384,-0.09454299999999999,-0.004398,-0.005359,0.00403,-45.060001,9.0,8.06,3a
2019-07-12_105357:720,-0.490112,-0.022369,-0.095062,-0.004184,-0.005298,0.003297,-45.060001,9.0,8.06,3a
2019-07-12_105357:740,-0.48654200000000003,-0.021332,-0.094055,-0.00394,-0.00539,0.004091,-45.060001,9.0,8.87,3a
2019-07-12_105357:760,-0.48754899999999995,-0.020844,-0.094055,-0.00394,-0.005756,0.004671,-45.060001,9.0,8.87,3a
2019-07-12_105357:780,-0.48754899999999995,-0.021332,-0.094055,-0.004337,-0.0061530000000000005,0.004091,-45.060001,9.0,8.87,3a
2019-07-12_105357:800,-0.48754899999999995,-0.019806,-0.094055,-0.004459,-0.0066099999999999996,0.00403,-45.060001,9.0,8.87,3a
2019-07-12_105357:820,-0.489075,-0.021332,-0.094055,-0.004764,-0.007006999999999999,0.004213000000000001,-45.060001,9.0,8.87,3a
2019-07-12_105357:840,-0.489075,-0.021851,-0.095062,-0.004947,-0.007006999999999999,0.004335,-45.060001,8.18,7.68,3a
2019-07-12_105357:860,-0.490112,-0.021851,-0.095581,-0.005039,-0.007281999999999999,0.004213000000000001,-45.060001,8.18,7.68,3a
2019-07-12_105357:880,-0.490601,-0.023375999999999997,-0.095062,-0.004703,-0.0070680000000000005,0.004457,-45.75,8.18,8.87,3a
2019-07-12_105357:900,-0.489075,-0.024384,-0.094055,-0.004398,-0.006670999999999999,0.004793,-45.75,8.18,8.87,3a
2019-07-12_105357:920,-0.490112,-0.024384,-0.095581,-0.00394,-0.006793,0.004793,-45.75,8.18,8.87,3a
2019-07-12_105357:940,-0.489075,-0.024384,-0.097107,-0.003452,-0.006488,0.004793,-44.68,8.18,8.87,3a
2019-07-12_105357:960,-0.491638,-0.023375999999999997,-0.096588,-0.003147,-0.006488,0.005311,-44.68,8.18,8.87,3a
2019-07-12_105357:980,-0.489075,-0.022369,-0.096069,-0.003116,-0.006214,0.005067,-45.060001,8.56,8.06,3a
2019-07-12_105358:000,-0.49111899999999997,-0.021851,-0.096069,-0.003483,-0.0060609999999999995,0.005342,-45.060001,8.56,8.06,3a
2019-07-12_105358:020,-0.490112,-0.022369,-0.097595,-0.0037270000000000003,-0.005939,0.00525,-45.060001,8.56,8.06,3a
2019-07-12_105358:040,-0.49111899999999997,-0.023375999999999997,-0.09811399999999999,-0.004337,-0.005725,0.005006,-45.060001,8.18,8.87,3a
2019-07-12_105358:060,-0.490601,-0.024902,-0.096069,-0.004703,-0.0055119999999999995,0.004915,-45.060001,8.18,8.87,3a
2019-07-12_105358:080,-0.489075,-0.024902,-0.096588,-0.004978,-0.0052369999999999995,0.004671,-45.75,8.56,8.5,3a
2019-07-12_105358:100,-0.489594,-0.025908999999999998,-0.095581,-0.005161,-0.005573,0.004518,-45.75,8.56,8.5,3a
2019-07-12_105358:120,-0.48858599999999996,-0.026427999999999997,-0.095581,-0.005039,-0.005756,0.004732,-45.75,8.56,8.5,3a
2019-07-12_105358:140,-0.48754899999999995,-0.026917,-0.096069,-0.0051,-0.005756,0.004732,-45.5,8.56,8.06,3a
2019-07-12_105358:160,-0.48754899999999995,-0.026427999999999997,-0.096069,-0.004886,-0.005878,0.004457,-45.5,8.56,8.06,3a
2019-07-12_105358:180,-0.488068,-0.027435,-0.097107,-0.004703,-0.006092,0.00403,-45.75,9.0,7.25,3a
2019-07-12_105358:200,-0.485016,-0.027435,-0.096588,-0.004581,-0.006458,0.004152,-45.75,9.0,7.25,3a
2019-07-12_105358:220,-0.490112,-0.025908999999999998,-0.097595,-0.004398,-0.006670999999999999,0.004335,-45.75,9.0,7.25,3a
2019-07-12_105358:240,-0.490112,-0.024902,-0.095581,-0.004398,-0.006548999999999999,0.004548,-44.68,9.0,9.68,3a
2019-07-12_105358:260,-0.491638,-0.026427999999999997,-0.09811399999999999,-0.004581,-0.006397,0.004915,-44.68,9.0,9.68,3a
2019-07-12_105358:280,-0.488068,-0.026917,-0.097595,-0.004612,-0.005939,0.004793,-45.5,9.0,7.25,3a
2019-07-12_105358:300,-0.489594,-0.027435,-0.097595,-0.004947,-0.005725,0.00345,-45.5,9.0,7.25,3a
2019-07-12_105358:320,-0.48654200000000003,-0.024384,-0.098633,-0.005161,-0.006275,0.002321,-45.5,9.0,7.25,3a
2019-07-12_105358:340,-0.486023,-0.025421,-0.098633,-0.004947,-0.0070680000000000005,0.00345,-45.5,9.0,8.87,3a
2019-07-12_105358:360,-0.489594,-0.025908999999999998,-0.097595,-0.004520000000000001,-0.007006999999999999,0.004396,-45.5,9.0,8.87,3a
2019-07-12_105358:380,-0.48858599999999996,-0.023895,-0.097595,-0.004184,-0.0066099999999999996,0.00403,-45.060001,9.0,9.68,3a
2019-07-12_105358:400,-0.489075,-0.022369,-0.097595,-0.0042450000000000005,-0.006092,0.0039689999999999994,-45.060001,9.0,9.68,3a
2019-07-12_105358:420,-0.489075,-0.023895,-0.097595,-0.004642,-0.006214,0.004548,-45.060001,9.0,9.68,3a
2019-07-12_105358:440,-0.48754899999999995,-0.023895,-0.098633,-0.005039,-0.006458,0.004213000000000001,-45.75,8.56,8.06,3a
2019-07-12_105358:460,-0.48754899999999995,-0.025421,-0.099121,-0.0052829999999999995,-0.006731999999999999,0.004213000000000001,-45.75,8.56,8.06,3a
2019-07-12_105358:480,-0.492645,-0.025421,-0.099121,-0.005375,-0.006885,0.004335,-46.18,8.18,9.68,3a
2019-07-12_105358:500,-0.489075,-0.026917,-0.09811399999999999,-0.005222,-0.006336,0.004671,-46.18,8.18,9.68,3a
2019-07-12_105358:520,-0.49111899999999997,-0.027954000000000003,-0.099121,-0.004825,-0.005939,0.004213000000000001,-46.18,8.18,9.68,3a
2019-07-12_105358:540,-0.490112,-0.023895,-0.100159,-0.004703,-0.005451,0.003694,-45.5,9.25,8.5,3a
2019-07-12_105358:560,-0.489075,-0.024902,-0.098633,-0.004581,-0.005298,0.004091,-45.5,9.25,8.5,3a
2019-07-12_105358:580,-0.488068,-0.024902,-0.099121,-0.004520000000000001,-0.00539,0.004671,-45.5,8.56,7.25,3a
2019-07-12_105358:600,-0.488068,-0.025908999999999998,-0.098633,-0.004612,-0.005634,0.004335,-45.5,8.56,7.25,3a
2019-07-12_105358:620,-0.489075,-0.025421,-0.099121,-0.004642,-0.005634,0.00403,-45.5,8.56,7.25,3a
2019-07-12_105358:640,-0.489075,-0.024902,-0.097595,-0.004642,-0.005573,0.003908,-44.68,8.56,9.68,3a
2019-07-12_105358:660,-0.488068,-0.025908999999999998,-0.09811399999999999,-0.004703,-0.005573,0.0037549999999999997,-44.68,8.56,9.68,3a
2019-07-12_105358:680,-0.48754899999999995,-0.024902,-0.09811399999999999,-0.004612,-0.005451,0.003572,-44.68,9.0,8.87,3a
2019-07-12_105358:700,-0.488068,-0.024902,-0.098633,-0.004612,-0.005695,0.0038159999999999995,-44.68,9.0,8.87,3a
2019-07-12_105358:720,-0.486023,-0.024902,-0.098633,-0.004398,-0.005878,0.0038159999999999995,-44.68,9.0,8.87,3a
2019-07-12_105358:740,-0.48553500000000005,-0.023895,-0.099121,-0.004062,-0.006092,0.0038159999999999995,-45.5,8.56,7.68,3a
2019-07-12_105358:760,-0.485016,-0.023375999999999997,-0.09811399999999999,-0.00394,-0.006214,0.003908,-45.5,8.56,7.68,3a
2019-07-12_105358:780,-0.485016,-0.023375999999999997,-0.100647,-0.003849,-0.006854000000000001,0.0039689999999999994,-45.5,7.87,8.06,3a
2019-07-12_105358:800,-0.48754899999999995,-0.021332,-0.098633,-0.0036659999999999996,-0.0070680000000000005,0.004182,-45.5,7.87,8.06,3a
2019-07-12_105358:820,-0.48754899999999995,-0.021851,-0.09963999999999999,-0.00394,-0.007220999999999999,0.004518,-45.5,7.87,8.06,3a
2019-07-12_105358:840,-0.490601,-0.022369,-0.09963999999999999,-0.004184,-0.007129000000000001,0.004915,-44.68,8.18,7.68,3a
2019-07-12_105358:860,-0.489075,-0.023375999999999997,-0.10116599999999999,-0.004520000000000001,-0.006945999999999999,0.004793,-44.68,8.18,7.68,3a
2019-07-12_105358:880,-0.490601,-0.023895,-0.102692,-0.004825,-0.006885,0.004732,-45.060001,9.0,8.06,3a
2019-07-12_105358:900,-0.490601,-0.024384,-0.10116599999999999,-0.004978,-0.006854000000000001,0.004671,-45.060001,9.0,8.06,3a
2019-07-12_105358:920,-0.491638,-0.024902,-0.101685,-0.005039,-0.006336,0.004732,-45.060001,9.0,8.06,3a
2019-07-12_105358:940,-0.492126,-0.025908999999999998,-0.100647,-0.004978,-0.005878,0.004793,-45.060001,9.0,8.06,3a
2019-07-12_105358:960,-0.489594,-0.024902,-0.099121,-0.004825,-0.00539,0.004609,-45.060001,9.0,8.06,3a
2019-07-12_105358:980,-0.490112,-0.025421,-0.099121,-0.004581,-0.0052369999999999995,0.004854,-44.25,8.56,7.25,3a
2019-07-12_105359:000,-0.488068,-0.024384,-0.09811399999999999,-0.004764,-0.005176,0.004915,-44.25,8.56,7.25,3a
2019-07-12_105359:020,-0.48858599999999996,-0.024384,-0.09811399999999999,-0.004825,-0.00539,0.005067,-44.25,8.56,7.25,3a
2019-07-12_105359:040,-0.488068,-0.025421,-0.097595,-0.004886,-0.005451,0.005128,-45.5,9.0,7.68,3a
2019-07-12_105359:060,-0.48858599999999996,-0.024384,-0.09811399999999999,-0.005344,-0.005725,0.004945000000000001,-45.5,9.0,7.68,3a
2019-07-12_105359:080,-0.48858599999999996,-0.024902,-0.09811399999999999,-0.005375,-0.005725,0.004548,-44.68,8.18,8.06,3a
2019-07-12_105359:100,-0.48858599999999996,-0.027435,-0.096069,-0.005497,-0.005725,0.004457,-44.68,8.18,8.06,3a
2019-07-12_105359:120,-0.48858599999999996,-0.026917,-0.097107,-0.005222,-0.005817,0.004671,-44.68,8.18,8.06,3a
2019-07-12_105359:140,-0.492126,-0.026427999999999997,-0.099121,-0.005222,-0.005695,0.005128,-44.0,8.56,8.5,3a
2019-07-12_105359:160,-0.489075,-0.025421,-0.09454299999999999,-0.004978,-0.005359,0.005403,-44.0,8.56,8.5,3a
2019-07-12_105359:180,-0.490112,-0.026917,-0.100159,-0.005039,-0.005451,0.0058,-45.060001,8.56,7.68,3a
2019-07-12_105359:200,-0.48754899999999995,-0.028961,-0.096069,-0.0051,-0.005573,0.005067,-45.060001,8.56,7.68,3a
2019-07-12_105359:220,-0.486023,-0.027954000000000003,-0.099121,-0.0052829999999999995,-0.006092,0.0038159999999999995,-45.060001,8.56,7.68,3a
2019-07-12_105359:240,-0.48349,-0.027435,-0.100159,-0.0052829999999999995,-0.007220999999999999,0.004091,-45.75,8.56,8.5,3a
2019-07-12_105359:260,-0.48553500000000005,-0.027954000000000003,-0.09963999999999999,-0.004947,-0.007343000000000001,0.00525,-45.75,8.56,8.5,3a
2019-07-12_105359:280,-0.490601,-0.027954000000000003,-0.10116599999999999,-0.004703,-0.007220999999999999,0.005128,-45.060001,9.25,8.06,3a
2019-07-12_105359:300,-0.489594,-0.027954000000000003,-0.100647,-0.004703,-0.006488,0.004609,-45.060001,9.25,8.06,3a
2019-07-12_105359:320,-0.48858599999999996,-0.027435,-0.102173,-0.004764,-0.006275,0.004854,-45.060001,9.25,8.06,3a
2019-07-12_105359:340,-0.48858599999999996,-0.028442000000000002,-0.102173,-0.005161,-0.0061530000000000005,0.004915,-45.060001,9.0,7.68,3a
2019-07-12_105359:360,-0.488068,-0.029480000000000003,-0.102692,-0.005619,-0.0066099999999999996,0.004335,-45.060001,9.0,7.68,3a
2019-07-12_105359:380,-0.48706099999999997,-0.029968,-0.10318,-0.005558,-0.006488,0.004152,-45.75,8.56,7.68,3a
2019-07-12_105359:400,-0.492126,-0.030487,-0.102692,-0.005344,-0.006275,0.004518,-45.75,8.56,7.68,3a
2019-07-12_105359:420,-0.48754899999999995,-0.030487,-0.101685,-0.004947,-0.005725,0.004609,-45.75,8.56,7.68,3a
2019-07-12_105359:440,-0.489075,-0.030487,-0.102692,-0.004520000000000001,-0.005359,0.004152,-44.68,9.68,8.87,3a
2019-07-12_105359:460,-0.488068,-0.029480000000000003,-0.101685,-0.004398,-0.005451,0.003511,-44.68,9.68,8.87,3a
2019-07-12_105359:480,-0.48706099999999997,-0.027954000000000003,-0.101685,-0.004520000000000001,-0.00539,0.004091,-45.060001,8.56,8.87,3a
2019-07-12_105359:500,-0.48754899999999995,-0.027954000000000003,-0.10116599999999999,-0.0042450000000000005,-0.005878,0.004335,-45.060001,8.56,8.87,3a
2019-07-12_105359:520,-0.489075,-0.027435,-0.100647,-0.004337,-0.005939,0.0038469999999999997,-45.060001,8.56,8.87,3a
2019-07-12_105359:540,-0.489075,-0.027435,-0.101685,-0.004337,-0.005878,0.0038469999999999997,-45.75,9.25,7.25,3a
2019-07-12_105359:560,-0.490112,-0.028442000000000002,-0.10116599999999999,-0.004398,-0.005634,0.004182,-45.75,9.25,7.25,3a
2019-07-12_105359:580,-0.490112,-0.028961,-0.10116599999999999,-0.004459,-0.005359,0.0038469999999999997,-45.5,9.25,7.68,3a
2019-07-12_105359:600,-0.489075,-0.027435,-0.100647,-0.004337,-0.005298,0.003694,-45.5,9.25,7.68,3a
2019-07-12_105359:620,-0.488068,-0.028442000000000002,-0.100647,-0.004062,-0.005115,0.003908,-45.5,9.25,7.68,3a
2019-07-12_105359:640,-0.48706099999999997,-0.028961,-0.10116599999999999,-0.003849,-0.005176,0.0037549999999999997,-44.68,9.0,7.68,3a
2019-07-12_105359:660,-0.48754899999999995,-0.027435,-0.100159,-0.003788,-0.00539,0.0037549999999999997,-44.68,9.0,7.68,3a
2019-07-12_105359:680,-0.48706099999999997,-0.026427999999999997,-0.10116599999999999,-0.003483,-0.005451,0.003908,-45.75,9.25,6.87,3a
2019-07-12_105359:700,-0.48706099999999997,-0.024902,-0.099121,-0.0036659999999999996,-0.005298,0.0038469999999999997,-45.75,9.25,6.87,3a
2019-07-12_105359:720,-0.488068,-0.024902,-0.10116599999999999,-0.003849,-0.005573,0.0038159999999999995,-45.75,9.25,6.87,3a
2019-07-12_105359:740,-0.488068,-0.025421,-0.100647,-0.00394,-0.005573,0.00403,-45.5,9.0,8.06,3a
2019-07-12_105359:760,-0.489594,-0.025421,-0.10116599999999999,-0.004398,-0.005634,0.004152,-45.5,9.0,8.06,3a
2019-07-12_105359:780,-0.489075,-0.025421,-0.102692,-0.004337,-0.0055119999999999995,0.004152,-44.68,9.0,8.5,3a
2019-07-12_105359:800,-0.490112,-0.025908999999999998,-0.09963999999999999,-0.004398,-0.005298,0.004091,-44.68,9.0,8.5,3a
2019-07-12_105359:820,-0.48858599999999996,-0.026427999999999997,-0.100647,-0.004459,-0.005176,0.00403,-44.68,9.0,8.5,3a
2019-07-12_105359:840,-0.489594,-0.026917,-0.100159,-0.004398,-0.004993,0.004152,-45.060001,9.0,8.5,3a
2019-07-12_105359:860,-0.488068,-0.027435,-0.09811399999999999,-0.004398,-0.004961999999999999,0.004152,-45.060001,9.0,8.5,3a
2019-07-12_105359:880,-0.48706099999999997,-0.025421,-0.100159,-0.004520000000000001,-0.004961999999999999,0.004152,-45.5,9.0,7.68,3a
2019-07-12_105359:900,-0.486023,-0.025908999999999998,-0.09811399999999999,-0.004520000000000001,-0.005115,0.003908,-45.5,9.0,7.68,3a
2019-07-12_105359:920,-0.486023,-0.024902,-0.09963999999999999,-0.004612,-0.005451,0.0038159999999999995,-45.5,9.0,7.68,3a
2019-07-12_105359:940,-0.486023,-0.025908999999999998,-0.100159,-0.004612,-0.005695,0.003694,-44.68,8.18,8.87,3a
2019-07-12_105359:960,-0.48654200000000003,-0.025908999999999998,-0.09811399999999999,-0.004642,-0.005878,0.004213000000000001,-44.68,8.18,8.87,3a
2019-07-12_105359:980,-0.489594,-0.025421,-0.100159,-0.004398,-0.006214,0.004518,-45.5,9.25,7.68,3a
2019-07-12_105400:000,-0.489075,-0.024384,-0.095581,-0.004520000000000001,-0.005634,0.004609,-45.5,9.25,7.68,3a
2019-07-12_105400:020,-0.489594,-0.024902,-0.097107,-0.004886,-0.005725,0.004915,-45.5,9.25,7.68,3a
2019-07-12_105400:040,-0.48706099999999997,-0.026427999999999997,-0.097107,-0.004978,-0.0055119999999999995,0.004671,-45.060001,8.56,8.5,3a
2019-07-12_105400:060,-0.486023,-0.026917,-0.096588,-0.0052829999999999995,-0.006,0.0038159999999999995,-45.060001,8.56,8.5,3a
2019-07-12_105400:080,-0.486023,-0.027954000000000003,-0.100647,-0.005161,-0.006731999999999999,0.003511,-44.0,8.56,8.06,3a
2019-07-12_105400:100,-0.48654200000000003,-0.027435,-0.09963999999999999,-0.004825,-0.00719,0.004335,-44.0,8.56,8.06,3a
2019-07-12_105400:120,-0.489594,-0.027954000000000003,-0.10116599999999999,-0.0042450000000000005,-0.00719,0.005006,-44.0,8.56,8.06,3a
2019-07-12_105400:140,-0.49111899999999997,-0.027435,-0.10116599999999999,-0.0042450000000000005,-0.006397,0.004854,-45.060001,9.25,8.87,3a
2019-07-12_105400:160,-0.48754899999999995,-0.025421,-0.102173,-0.004398,-0.005695,0.004671,-45.060001,9.25,8.87,3a
2019-07-12_105400:180,-0.48858599999999996,-0.025421,-0.10116599999999999,-0.004764,-0.006,0.005189,-45.5,9.0,8.06,3a
2019-07-12_105400:200,-0.489075,-0.027435,-0.100159,-0.005375,-0.0060609999999999995,0.004854,-45.5,9.0,8.06,3a
2019-07-12_105400:220,-0.488068,-0.027954000000000003,-0.101685,-0.005497,-0.006214,0.004335,-45.5,9.0,8.06,3a
2019-07-12_105400:240,-0.489594,-0.028961,-0.10318,-0.005375,-0.0061530000000000005,0.004457,-45.060001,9.25,8.87,3a
2019-07-12_105400:260,-0.488068,-0.031494,-0.100647,-0.005039,-0.005573,0.005006,-45.060001,9.25,8.87,3a
2019-07-12_105400:280,-0.490112,-0.031006,-0.100159,-0.004520000000000001,-0.004961999999999999,0.004518,-44.25,8.56,8.5,3a
2019-07-12_105400:300,-0.48654200000000003,-0.027435,-0.100159,-0.004275999999999999,-0.004566,0.0037549999999999997,-44.25,8.56,8.5,3a
2019-07-12_105400:320,-0.48706099999999997,-0.027435,-0.10116599999999999,-0.004459,-0.0052369999999999995,0.004152,-44.25,8.56,8.5,3a
2019-07-12_105400:340,-0.48858599999999996,-0.028442000000000002,-0.099121,-0.004398,-0.00539,0.004671,-44.25,8.56,8.5,3a
2019-07-12_105400:360,-0.48858599999999996,-0.027954000000000003,-0.099121,-0.004642,-0.00539,0.00403,-44.25,8.56,8.5,3a
2019-07-12_105400:380,-0.489075,-0.027435,-0.098633,-0.004825,-0.00539,0.0039689999999999994,-45.5,9.0,6.87,3a
2019-07-12_105400:400,-0.489075,-0.027954000000000003,-0.09811399999999999,-0.004978,-0.004961999999999999,0.004457,-45.5,9.0,6.87,3a
2019-07-12_105400:420,-0.48858599999999996,-0.027954000000000003,-0.099121,-0.005161,-0.004901,0.004213000000000001,-45.5,9.0,6.87,3a
2019-07-12_105400:440,-0.48858599999999996,-0.029968,-0.09811399999999999,-0.005344,-0.005115,0.004091,-44.68,9.25,8.5,3a
2019-07-12_105400:460,-0.48754899999999995,-0.031006,-0.09811399999999999,-0.005222,-0.005359,0.004091,-44.68,9.25,8.5,3a
2019-07-12_105400:480,-0.489075,-0.028961,-0.09811399999999999,-0.004978,-0.005756,0.00403,-45.5,9.0,7.68,3a
2019-07-12_105400:500,-0.48706099999999997,-0.028442000000000002,-0.096588,-0.004978,-0.005756,0.0038159999999999995,-45.5,9.0,7.68,3a
2019-07-12_105400:520,-0.48706099999999997,-0.027954000000000003,-0.098633,-0.005039,-0.0060609999999999995,0.003694,-45.5,9.0,7.68,3a
2019-07-12_105400:540,-0.48858599999999996,-0.026427999999999997,-0.09811399999999999,-0.005039,-0.005939,0.003633,-45.060001,9.25,8.5,3a
2019-07-12_105400:560,-0.48858599999999996,-0.026427999999999997,-0.09811399999999999,-0.0052829999999999995,-0.005878,0.0037549999999999997,-45.060001,9.25,8.5,3a
2019-07-12_105400:580,-0.489075,-0.025908999999999998,-0.09811399999999999,-0.005436,-0.0060609999999999995,0.0038469999999999997,-45.5,8.18,8.87,3a
2019-07-12_105400:600,-0.489075,-0.027435,-0.098633,-0.005497,-0.0060609999999999995,0.003908,-45.5,8.18,8.87,3a
2019-07-12_105400:620,-0.489594,-0.027435,-0.099121,-0.005679999999999999,-0.006,0.0039689999999999994,-45.5,8.18,8.87,3a
2019-07-12_105400:640,-0.48754899999999995,-0.026917,-0.10116599999999999,-0.005741,-0.0060609999999999995,0.004091,-45.5,8.56,8.5,3a
2019-07-12_105400:660,-0.48858599999999996,-0.027435,-0.09811399999999999,-0.005619,-0.005939,0.00403,-45.5,8.56,8.5,3a
2019-07-12_105400:680,-0.489594,-0.028442000000000002,-0.099121,-0.005436,-0.0060609999999999995,0.0038469999999999997,-45.75,9.0,7.68,3a
2019-07-12_105400:700,-0.489075,-0.027435,-0.09811399999999999,-0.005497,-0.005695,0.003908,-45.75,9.0,7.68,3a
2019-07-12_105400:720,-0.489075,-0.027435,-0.09811399999999999,-0.005222,-0.005695,0.004091,-45.75,9.0,7.68,3a
2019-07-12_105400:740,-0.48754899999999995,-0.027435,-0.099121,-0.0051,-0.005695,0.0039689999999999994,-45.060001,8.56,7.68,3a
2019-07-12_105400:760,-0.48706099999999997,-0.027435,-0.099121,-0.005161,-0.005939,0.0037549999999999997,-45.060001,8.56,7.68,3a
2019-07-12_105400:780,-0.48706099999999997,-0.026427999999999997,-0.100647,-0.005222,-0.006092,0.003511,-45.75,9.0,8.06,3a
2019-07-12_105400:800,-0.48754899999999995,-0.025908999999999998,-0.09963999999999999,-0.005344,-0.0061530000000000005,0.003114,-45.75,9.0,8.06,3a
2019-07-12_105400:820,-0.48754899999999995,-0.026427999999999997,-0.099121,-0.005222,-0.0061530000000000005,0.003633,-45.75,9.0,8.06,3a
2019-07-12_105400:840,-0.489075,-0.026427999999999997,-0.102692,-0.004886,-0.006214,0.0038469999999999997,-45.060001,9.0,7.68,3a
2019-07-12_105400:860,-0.492645,-0.024902,-0.099121,-0.004978,-0.005695,0.00403,-45.060001,9.0,7.68,3a
2019-07-12_105400:880,-0.489075,-0.024902,-0.097107,-0.005161,-0.005725,0.004213000000000001,-45.060001,9.0,8.06,3a
2019-07-12_105400:900,-0.490112,-0.025421,-0.102173,-0.005344,-0.005573,0.004152,-45.060001,9.0,8.06,3a
2019-07-12_105400:920,-0.488068,-0.027435,-0.09811399999999999,-0.005497,-0.005695,0.0032359999999999997,-45.060001,9.0,8.06,3a
2019-07-12_105400:940,-0.48654200000000003,-0.026427999999999997,-0.100647,-0.005497,-0.006275,0.002687,-44.25,9.25,8.87,3a
2019-07-12_105400:960,-0.48349,-0.025421,-0.09963999999999999,-0.0051,-0.006945999999999999,0.00345,-44.25,9.25,8.87,3a
2019-07-12_105400:980,-0.488068,-0.025908999999999998,-0.100159,-0.004581,-0.006885,0.004213000000000001,-45.5,8.56,8.5,3a
2019-07-12_105401:000,-0.48858599999999996,-0.024384,-0.100647,-0.004612,-0.006488,0.0038159999999999995,-45.5,8.56,8.5,3a
2019-07-12_105401:020,-0.48858599999999996,-0.022369,-0.09963999999999999,-0.004825,-0.006336,0.0038159999999999995,-45.5,8.56,8.5,3a
2019-07-12_105401:040,-0.490112,-0.021332,-0.10318,-0.005344,-0.0055119999999999995,0.004091,-45.060001,9.0,8.5,3a
2019-07-12_105401:060,-0.489075,-0.021332,-0.10116599999999999,-0.005832,-0.005573,0.004091,-45.060001,9.0,8.5,3a
2019-07-12_105401:080,-0.48754899999999995,-0.024384,-0.101685,-0.006229,-0.005634,0.0037549999999999997,-45.060001,8.56,8.5,3a
2019-07-12_105401:100,-0.489075,-0.024902,-0.102692,-0.005832,-0.005756,0.0038469999999999997,-45.060001,8.56,8.5,3a
2019-07-12_105401:120,-0.489075,-0.025421,-0.100647,-0.005497,-0.005756,0.004396,-45.060001,8.56,8.5,3a
2019-07-12_105401:140,-0.488068,-0.025421,-0.101685,-0.0051,-0.005451,0.004518,-45.060001,9.68,9.25,3a
2019-07-12_105401:160,-0.489075,-0.024384,-0.101685,-0.004886,-0.005298,0.003572,-45.060001,9.68,9.25,3a
2019-07-12_105401:180,-0.48654200000000003,-0.023375999999999997,-0.102173,-0.005161,-0.005573,0.003694,-44.68,9.25,8.06,3a
2019-07-12_105401:200,-0.48858599999999996,-0.023375999999999997,-0.102173,-0.005039,-0.005451,0.004915,-44.68,9.25,8.06,3a
2019-07-12_105401:220,-0.48654200000000003,-0.024902,-0.102173,-0.005161,-0.005725,0.004915,-44.68,9.25,8.06,3a
2019-07-12_105401:240,-0.488068,-0.024902,-0.102692,-0.005375,-0.005695,0.003908,-45.5,8.56,8.06,3a
2019-07-12_105401:260,-0.485016,-0.024902,-0.10116599999999999,-0.0051,-0.005725,0.003908,-45.5,8.56,8.06,3a
2019-07-12_105401:280,-0.488068,-0.024384,-0.102173,-0.004825,-0.005878,0.004548,-45.5,7.75,7.68,3a
2019-07-12_105401:300,-0.48858599999999996,-0.025421,-0.101685,-0.004581,-0.005725,0.004335,-45.5,7.75,7.68,3a
2019-07-12_105401:320,-0.48754899999999995,-0.024902,-0.102692,-0.004398,-0.005756,0.004213000000000001,-45.5,7.75,7.68,3a
2019-07-12_105401:340,-0.48754899999999995,-0.025908999999999998,-0.102692,-0.003879,-0.005756,0.003633,-44.68,9.0,9.25,3a
2019-07-12_105401:360,-0.48706099999999997,-0.023375999999999997,-0.10116599999999999,-0.00394,-0.005756,0.003114,-44.68,9.0,9.25,3a
2019-07-12_105401:380,-0.489075,-0.023895,-0.10116599999999999,-0.003544,-0.0055119999999999995,0.003572,-44.68,9.0,6.87,3a
2019-07-12_105401:400,-0.489594,-0.023375999999999997,-0.100647,-0.003208,-0.005115,0.004091,-44.68,9.0,6.87,3a
2019-07-12_105401:420,-0.491638,-0.021851,-0.09963999999999999,-0.0033909999999999995,-0.004993,0.00403,-44.68,9.0,6.87,3a
2019-07-12_105401:440,-0.49111899999999997,-0.020844,-0.09963999999999999,-0.003208,-0.004779,0.004091,-45.060001,9.0,8.5,3a
2019-07-12_105401:460,-0.490601,-0.022858,-0.098633,-0.0036659999999999996,-0.004657,0.004274,-45.060001,9.0,8.5,3a
2019-07-12_105401:480,-0.491638,-0.021851,-0.098633,-0.0037270000000000003,-0.004566,0.004091,-45.75,9.25,8.5,3a
2019-07-12_105401:500,-0.48754899999999995,-0.023895,-0.097595,-0.003788,-0.00426,0.004548,-45.75,9.25,8.5,3a
2019-07-12_105401:520,-0.48654200000000003,-0.024384,-0.096069,-0.003544,-0.004383,0.00525,-45.75,9.25,8.5,3a
2019-07-12_105401:540,-0.48553500000000005,-0.024902,-0.096069,-0.0036659999999999996,-0.004566,0.005189,-45.060001,9.0,8.87,3a
2019-07-12_105401:560,-0.486023,-0.024902,-0.095062,-0.003788,-0.005054,0.005189,-45.060001,9.0,8.87,3a
2019-07-12_105401:580,-0.48654200000000003,-0.024902,-0.096588,-0.004062,-0.005573,0.005067,-45.5,9.25,8.5,3a
2019-07-12_105401:600,-0.48654200000000003,-0.027435,-0.097107,-0.004184,-0.005878,0.004396,-45.5,9.25,8.5,3a
2019-07-12_105401:620,-0.48754899999999995,-0.028442000000000002,-0.09811399999999999,-0.003879,-0.006214,0.003511,-45.5,9.25,8.5,3a
2019-07-12_105401:640,-0.48858599999999996,-0.029968,-0.09811399999999999,-0.003544,-0.006214,0.003053,-44.25,9.25,9.68,3a
2019-07-12_105401:660,-0.48706099999999997,-0.028442000000000002,-0.097107,-0.002994,-0.006548999999999999,0.0034189999999999997,-44.25,9.25,9.68,3a
2019-07-12_105401:680,-0.491638,-0.027435,-0.099121,-0.002872,-0.006670999999999999,0.003511,-45.5,9.0,7.68,3a
2019-07-12_105401:700,-0.489594,-0.026427999999999997,-0.096069,-0.002536,-0.005695,0.0032359999999999997,-45.5,9.0,7.68,3a
2019-07-12_105401:720,-0.491638,-0.026427999999999997,-0.096069,-0.002536,-0.005634,0.003358,-45.5,9.0,7.68,3a
2019-07-12_105401:740,-0.489075,-0.029480000000000003,-0.096588,-0.002475,-0.0055119999999999995,0.003023,-45.060001,9.0,8.06,3a
2019-07-12_105401:760,-0.486023,-0.028442000000000002,-0.096069,-0.001468,-0.005939,0.0011,-45.060001,9.0,8.06,3a
2019-07-12_105401:780,-0.48654200000000003,-0.026427999999999997,-0.100647,-0.001194,-0.0060609999999999995,0.000398,-45.060001,9.0,8.06,3a
2019-07-12_105401:800,-0.48553500000000005,-0.022858,-0.100647,-0.000492,-0.006945999999999999,0.001039,-45.060001,9.68,7.68,3a
2019-07-12_105401:820,-0.489594,-0.019806,-0.099121,-0.000614,-0.006793,0.001832,-45.060001,9.68,7.68,3a
2019-07-12_105401:840,-0.491638,-0.017273,-0.098633,-0.000797,-0.006488,0.001893,-45.5,9.25,7.68,3a
2019-07-12_105401:860,-0.490601,-0.016753999999999998,-0.098633,-0.001865,-0.005451,0.002778,-45.5,9.25,7.68,3a
2019-07-12_105401:880,-0.49111899999999997,-0.016753999999999998,-0.100159,-0.002079,-0.0055119999999999995,0.003175,-45.5,9.25,7.68,3a
2019-07-12_105401:900,-0.491638,-0.019806,-0.100159,-0.002811,-0.004961999999999999,0.004182,-45.5,8.18,9.68,3a
2019-07-12_105401:920,-0.489594,-0.018799,-0.097595,-0.003055,-0.00484,0.004915,-45.5,8.18,9.68,3a
2019-07-12_105401:940,-0.49111899999999997,-0.020844,-0.097107,-0.003147,-0.004779,0.005525,-45.75,8.56,7.68,3a
2019-07-12_105401:960,-0.49316400000000005,-0.023375999999999997,-0.09811399999999999,-0.003544,-0.004657,0.0067150000000000005,-45.75,8.56,7.68,3a
2019-07-12_105401:980,-0.489075,-0.026427999999999997,-0.095062,-0.0036659999999999996,-0.00426,0.0067150000000000005,-45.5,8.56,8.5,3a
2019-07-12_105402:000,-0.48754899999999995,-0.027435,-0.097107,-0.003788,-0.004383,0.005311,-45.5,8.56,8.5,3a
2019-07-12_105402:020,-0.485016,-0.026917,-0.09353600000000001,-0.003544,-0.004779,0.005128,-45.5,8.56,8.5,3a
2019-07-12_105402:040,-0.48654200000000003,-0.027435,-0.095062,-0.0036049999999999997,-0.005115,0.005525,-44.68,8.56,7.68,3a
2019-07-12_105402:060,-0.48754899999999995,-0.027954000000000003,-0.092529,-0.003208,-0.005634,0.005586,-44.68,8.56,7.68,3a
2019-07-12_105402:080,-0.489075,-0.027954000000000003,-0.095581,-0.0033299999999999996,-0.005695,0.005067,-45.060001,9.0,8.87,3a
2019-07-12_105402:100,-0.490112,-0.026427999999999997,-0.096069,-0.0033299999999999996,-0.005817,0.004793,-45.060001,9.0,8.87,3a
2019-07-12_105402:120,-0.48858599999999996,-0.025908999999999998,-0.095581,-0.003788,-0.005939,0.004671,-45.060001,9.0,8.87,3a
2019-07-12_105402:140,-0.48858599999999996,-0.024902,-0.095581,-0.004184,-0.005817,0.004152,-45.75,7.87,8.06,3a
2019-07-12_105402:160,-0.48858599999999996,-0.025908999999999998,-0.096588,-0.004764,-0.005878,0.004396,-45.75,7.87,8.06,3a
2019-07-12_105402:180,-0.48654200000000003,-0.027435,-0.097107,-0.004886,-0.006,0.004274,-45.5,8.56,8.87,3a
2019-07-12_105402:200,-0.48754899999999995,-0.026427999999999997,-0.097595,-0.0051,-0.006397,0.003572,-45.5,8.56,8.87,3a
2019-07-12_105402:220,-0.486023,-0.027435,-0.096588,-0.004947,-0.006458,0.0039689999999999994,-45.5,8.56,8.87,3a
2019-07-12_105402:240,-0.486023,-0.027435,-0.097595,-0.004978,-0.006548999999999999,0.004152,-44.25,7.87,8.5,3a
2019-07-12_105402:260,-0.48754899999999995,-0.027435,-0.09811399999999999,-0.004764,-0.006854000000000001,0.004213000000000001,-44.25,7.87,8.5,3a
2019-07-12_105402:280,-0.48858599999999996,-0.026427999999999997,-0.100159,-0.004886,-0.007220999999999999,0.004152,-44.25,7.87,8.5,3a
2019-07-12_105402:300,-0.490601,-0.025908999999999998,-0.10116599999999999,-0.004825,-0.00719,0.004213000000000001,-44.68,8.18,8.06,3a
2019-07-12_105402:320,-0.49111899999999997,-0.025908999999999998,-0.101685,-0.004978,-0.00719,0.004091,-44.68,8.18,8.06,3a
2019-07-12_105402:340,-0.491638,-0.025908999999999998,-0.102692,-0.005344,-0.006458,0.0038159999999999995,-45.060001,9.0,9.25,3a
2019-07-12_105402:360,-0.490112,-0.025908999999999998,-0.100159,-0.005436,-0.005817,0.003694,-45.060001,9.0,9.25,3a
2019-07-12_105402:380,-0.489594,-0.025908999999999998,-0.100647,-0.0051,-0.005817,0.0032359999999999997,-45.060001,8.56,8.06,3a
2019-07-12_105402:400,-0.489075,-0.025908999999999998,-0.100159,-0.005039,-0.005695,0.003053,-45.060001,8.56,8.06,3a
2019-07-12_105402:420,-0.48858599999999996,-0.022369,-0.100159,-0.004642,-0.005573,0.0038159999999999995,-45.060001,8.56,8.06,3a
2019-07-12_105402:440,-0.490601,-0.022858,-0.100159,-0.004703,-0.005359,0.00403,-46.18,9.0,8.5,3a
2019-07-12_105402:460,-0.489075,-0.021851,-0.097595,-0.005161,-0.004566,0.004457,-46.18,9.0,8.5,3a
2019-07-12_105402:480,-0.48754899999999995,-0.021851,-0.095062,-0.0051,-0.004444,0.004732,-46.18,9.0,8.5,3a
2019-07-12_105402:500,-0.49111899999999997,-0.023895,-0.097595,-0.005344,-0.004566,0.004671,-45.060001,9.0,8.5,3a
2019-07-12_105402:520,-0.482483,-0.023895,-0.094055,-0.005771,-0.005176,0.004091,-45.060001,9.0,8.5,3a
2019-07-12_105402:540,-0.486023,-0.023895,-0.100647,-0.005375,-0.006214,0.0039689999999999994,-45.5,8.18,8.06,3a
2019-07-12_105402:560,-0.484009,-0.023895,-0.098633,-0.005344,-0.007129000000000001,0.004457,-45.5,8.18,8.06,3a
2019-07-12_105402:580,-0.486023,-0.022369,-0.099121,-0.005161,-0.007678,0.00525,-45.5,8.18,8.06,3a
2019-07-12_105402:600,-0.489594,-0.022858,-0.098633,-0.005039,-0.007343000000000001,0.00525,-45.060001,8.56,8.06,3a
2019-07-12_105402:620,-0.489075,-0.021851,-0.09963999999999999,-0.005344,-0.006793,0.005006,-45.060001,8.56,8.06,3a
2019-07-12_105402:640,-0.49111899999999997,-0.022858,-0.10116599999999999,-0.005893,-0.006458,0.005464,-44.68,8.56,8.87,3a
2019-07-12_105402:660,-0.491638,-0.024902,-0.09963999999999999,-0.006076,-0.0060609999999999995,0.005678,-44.68,8.56,8.87,3a
2019-07-12_105402:680,-0.489594,-0.025908999999999998,-0.101685,-0.006168,-0.005878,0.005586,-44.68,8.56,8.87,3a
2019-07-12_105402:700,-0.48654200000000003,-0.027954000000000003,-0.100647,-0.006076,-0.005878,0.005739,-45.5,8.56,8.87,3a
2019-07-12_105402:720,-0.49111899999999997,-0.026917,-0.09963999999999999,-0.006076,-0.005817,0.005922,-45.5,8.56,8.87,3a
2019-07-12_105402:740,-0.489075,-0.028442000000000002,-0.09811399999999999,-0.005771,-0.0052369999999999995,0.006044,-45.5,8.56,8.87,3a
2019-07-12_105402:760,-0.491638,-0.029968,-0.096588,-0.005558,-0.004993,0.005128,-45.5,8.56,8.87,3a
2019-07-12_105402:780,-0.49111899999999997,-0.028442000000000002,-0.099121,-0.005741,-0.004657,0.004671,-45.5,8.56,8.87,3a
2019-07-12_105402:800,-0.48706099999999997,-0.028961,-0.096588,-0.005679999999999999,-0.004566,0.005464,-45.060001,9.0,8.06,3a
2019-07-12_105402:820,-0.48654200000000003,-0.030487,-0.095581,-0.005893,-0.004779,0.005525,-45.060001,9.0,8.06,3a
2019-07-12_105402:840,-0.48706099999999997,-0.029480000000000003,-0.095581,-0.006229,-0.005054,0.004732,-44.0,8.56,7.25,3a
2019-07-12_105402:860,-0.488068,-0.029480000000000003,-0.09454299999999999,-0.0069,-0.005573,0.004457,-44.0,8.56,7.25,3a
2019-07-12_105402:880,-0.486023,-0.032013,-0.096069,-0.007755,-0.005878,0.004182,-44.0,8.56,7.25,3a
2019-07-12_105402:900,-0.484009,-0.03302,-0.095062,-0.008426000000000001,-0.006397,0.0029,-45.75,8.56,8.06,3a
2019-07-12_105402:920,-0.48300200000000004,-0.036591000000000005,-0.095062,-0.008334999999999999,-0.006731999999999999,0.001161,-45.75,8.56,8.06,3a
2019-07-12_105402:940,-0.48196400000000006,-0.036591000000000005,-0.09811399999999999,-0.007297,-0.007281999999999999,3.2e-05,-44.68,9.0,6.87,3a
2019-07-12_105402:960,-0.485016,-0.03302,-0.09811399999999999,-0.005741,-0.008319,0.000123,-44.68,9.0,6.87,3a
2019-07-12_105402:980,-0.48858599999999996,-0.031006,-0.100647,-0.004123,-0.008747,0.000978,-44.68,9.0,6.87,3a
2019-07-12_105403:000,-0.49316400000000005,-0.024902,-0.10116599999999999,-0.003116,-0.008808,0.001314,-44.25,8.56,8.5,3a
2019-07-12_105403:020,-0.49517799999999995,-0.023375999999999997,-0.100647,-0.00275,-0.008075,0.001832,-44.25,8.56,8.5,3a
2019-07-12_105403:040,-0.49365200000000004,-0.021332,-0.102692,-0.002933,-0.006945999999999999,0.002443,-44.68,9.0,9.25,3a
2019-07-12_105403:060,-0.494171,-0.020844,-0.101685,-0.003788,-0.005939,0.002321,-44.68,9.0,9.25,3a
2019-07-12_105403:080,-0.492645,-0.022369,-0.101685,-0.004581,-0.005451,0.00229,-44.68,9.0,9.25,3a
2019-07-12_105403:100,-0.490601,-0.023895,-0.100159,-0.004703,-0.005054,0.001893,-45.060001,9.25,8.5,3a
2019-07-12_105403:120,-0.49111899999999997,-0.026427999999999997,-0.099121,-0.004581,-0.00484,0.001192,-45.060001,9.25,8.5,3a
2019-07-12_105403:140,-0.489594,-0.026427999999999997,-0.098633,-0.003544,-0.004718,0.001161,-45.5,9.0,8.87,3a
2019-07-12_105403:160,-0.48754899999999995,-0.026917,-0.095062,-0.002475,-0.004718,0.0011,-45.5,9.0,8.87,3a
2019-07-12_105403:180,-0.490601,-0.023895,-0.09811399999999999,-0.001072,-0.004718,0.0011,-45.5,9.0,8.87,3a
2019-07-12_105403:200,-0.48706099999999997,-0.019318000000000002,-0.092529,-0.000339,-0.004657,0.001375,-45.060001,8.56,8.5,3a
2019-07-12_105403:220,-0.49111899999999997,-0.017792,-0.095062,-0.000217,-0.004993,0.002046,-45.060001,8.56,8.5,3a
2019-07-12_105403:240,-0.485016,-0.015747,-0.095581,-0.00046100000000000004,-0.005115,0.002107,-45.75,7.87,7.68,3a
2019-07-12_105403:260,-0.48754899999999995,-0.015228,-0.095581,-0.0008269999999999999,-0.005573,0.001436,-45.75,7.87,7.68,3a
2019-07-12_105403:280,-0.486023,-0.014221000000000001,-0.097595,-0.001529,-0.006214,0.001527,-45.75,7.87,7.68,3a
2019-07-12_105403:300,-0.484497,-0.013702,-0.09811399999999999,-0.002079,-0.007281999999999999,0.0029620000000000002,-45.75,8.18,8.5,3a
2019-07-12_105403:320,-0.492126,-0.015747,-0.098633,-0.002353,-0.007739,0.003908,-45.75,8.18,8.5,3a
2019-07-12_105403:340,-0.490112,-0.017273,-0.098633,-0.002811,-0.00719,0.0037549999999999997,-44.68,8.18,9.25,3a
2019-07-12_105403:360,-0.489594,-0.019806,-0.098633,-0.003147,-0.007006999999999999,0.0038469999999999997,-44.68,8.18,9.25,3a
2019-07-12_105403:380,-0.489594,-0.021851,-0.100159,-0.002872,-0.006885,0.0039689999999999994,-44.68,8.18,9.25,3a
2019-07-12_105403:400,-0.490112,-0.022858,-0.09963999999999999,-0.002353,-0.006854000000000001,0.003694,-45.75,8.18,8.5,3a
2019-07-12_105403:420,-0.488068,-0.023895,-0.100647,-0.001621,-0.00719,0.0038159999999999995,-45.75,8.18,8.5,3a
2019-07-12_105403:440,-0.489594,-0.021851,-0.101685,-0.0008269999999999999,-0.007006999999999999,0.004152,-45.5,8.18,7.68,3a
2019-07-12_105403:460,-0.49468999999999996,-0.020844,-0.099121,-0.0008269999999999999,-0.006731999999999999,0.004518,-45.5,8.18,7.68,3a
2019-07-12_105403:480,-0.48754899999999995,-0.019806,-0.100647,-0.000889,-0.006397,0.004732,-45.5,8.18,7.68,3a
2019-07-12_105403:500,-0.48858599999999996,-0.018799,-0.10116599999999999,-0.0013460000000000002,-0.006397,0.0037549999999999997,-44.68,8.18,8.06,3a
2019-07-12_105403:520,-0.48706099999999997,-0.01828,-0.10116599999999999,-0.002079,-0.006548999999999999,0.0025039999999999997,-44.68,8.18,8.06,3a
2019-07-12_105403:540,-0.48553500000000005,-0.01828,-0.100647,-0.002597,-0.006670999999999999,0.002382,-45.75,8.18,8.5,3a
2019-07-12_105403:560,-0.48553500000000005,-0.019318000000000002,-0.10116599999999999,-0.00275,-0.007220999999999999,0.002839,-45.75,8.18,8.5,3a
2019-07-12_105403:580,-0.48349,-0.020325,-0.102692,-0.0027199999999999998,-0.007281999999999999,0.002443,-45.75,8.18,8.5,3a
2019-07-12_105403:600,-0.485016,-0.01828,-0.10116599999999999,-0.002811,-0.007465,0.002168,-45.060001,7.5,8.5,3a
2019-07-12_105403:620,-0.485016,-0.016753999999999998,-0.100647,-0.00275,-0.0076170000000000005,0.00229,-45.060001,7.5,8.5,3a
2019-07-12_105403:640,-0.486023,-0.014221000000000001,-0.103699,-0.002933,-0.007923000000000001,0.0019850000000000002,-45.5,7.75,8.06,3a
2019-07-12_105403:660,-0.48654200000000003,-0.012695,-0.102692,-0.003544,-0.00838,0.001588,-45.5,7.75,8.06,3a
2019-07-12_105403:680,-0.48654200000000003,-0.012695,-0.104218,-0.004123,-0.008533,0.0016489999999999999,-45.5,7.75,8.06,3a
2019-07-12_105403:700,-0.48858599999999996,-0.012695,-0.105225,-0.004703,-0.008594,0.001375,-46.18,7.5,9.68,3a
2019-07-12_105403:720,-0.484009,-0.012695,-0.105743,-0.005161,-0.008472,0.0011,-46.18,7.5,9.68,3a
2019-07-12_105403:740,-0.484009,-0.012177,-0.10775799999999999,-0.004947,-0.008472,0.001039,-45.5,7.87,6.87,3a
2019-07-12_105403:760,-0.47995,-0.010162000000000001,-0.108276,-0.004459,-0.008716,0.0007030000000000001,-45.5,7.87,6.87,3a
2019-07-12_105403:780,-0.47995,-0.008636,-0.11080899999999999,-0.0042450000000000005,-0.009326000000000001,0.000642,-45.5,7.87,6.87,3a
2019-07-12_105403:800,-0.47689799999999993,-0.005065999999999999,-0.114899,-0.004001,-0.009937,0.001893,-45.5,7.18,7.68,3a
2019-07-12_105403:820,-0.47995,-0.004059,-0.114899,-0.004520000000000001,-0.010394,0.004335,-45.5,7.18,7.68,3a
2019-07-12_105403:840,-0.48553500000000005,-0.007599,-0.119965,-0.005436,-0.010242,0.006257,-45.5,7.87,8.5,3a
2019-07-12_105403:860,-0.48553500000000005,-0.009125,-0.12048299999999999,-0.0069,-0.009937,0.006470999999999999,-45.5,7.87,8.5,3a
2019-07-12_105403:880,-0.49316400000000005,-0.015747,-0.121002,-0.008091,-0.00954,0.005311,-45.5,7.87,8.5,3a
2019-07-12_105403:900,-0.496216,-0.017273,-0.122528,-0.008732,-0.008747,0.004152,-45.75,6.75,7.25,3a
2019-07-12_105403:920,-0.496216,-0.018799,-0.12301600000000001,-0.008334999999999999,-0.007739,0.0029620000000000002,-45.75,6.75,7.25,3a
2019-07-12_105403:940,-0.49823,-0.016753999999999998,-0.12048299999999999,-0.007267,-0.0061530000000000005,0.002321,-45.5,6.75,6.87,3a
2019-07-12_105403:960,-0.498749,-0.013702,-0.11843900000000002,-0.0064730000000000005,-0.004566,0.002839,-45.5,6.75,6.87,3a
2019-07-12_105403:980,-0.492645,-0.014221000000000001,-0.11538699999999999,-0.005497,-0.002735,0.004518,-45.5,6.75,6.87,3a
2019-07-12_105404:000,-0.489075,-0.011169,-0.11538699999999999,-0.004978,-0.001605,0.005525,-44.68,6.75,8.06,3a
2019-07-12_105404:020,-0.48553500000000005,-0.010651,-0.11691300000000002,-0.005436,-0.001666,0.006044,-44.68,6.75,8.06,3a
2019-07-12_105404:040,-0.484497,-0.010162000000000001,-0.112854,-0.0061070000000000004,-0.001941,0.006868000000000001,-46.18,7.5,7.68,3a
2019-07-12_105404:060,-0.49111899999999997,-0.011169,-0.110321,-0.007023000000000001,-0.001789,0.007661,-46.18,7.5,7.68,3a
2019-07-12_105404:080,-0.491638,-0.015747,-0.10928299999999999,-0.007999,-0.001392,0.0076,-46.18,7.5,7.68,3a
2019-07-12_105404:100,-0.49111899999999997,-0.017792,-0.107269,-0.008762,-0.00041500000000000006,0.007387,-45.75,7.5,7.68,3a
2019-07-12_105404:120,-0.489594,-0.022369,-0.105743,-0.009006,-0.00014099999999999998,0.006837,-45.75,7.5,7.68,3a
2019-07-12_105404:140,-0.488068,-0.023895,-0.10116599999999999,-0.00867,-4.9e-05,0.005678,-45.75,8.18,7.25,3a
2019-07-12_105404:160,-0.48706099999999997,-0.023375999999999997,-0.099121,-0.008091,-0.000324,0.004915,-45.75,8.18,7.25,3a
2019-07-12_105404:180,-0.486023,-0.024384,-0.098633,-0.007023000000000001,-0.000781,0.004793,-45.75,8.18,7.25,3a
2019-07-12_105404:200,-0.489075,-0.021851,-0.097595,-0.006229,-0.0014529999999999999,0.004854,-46.18,7.87,8.5,3a
2019-07-12_105404:220,-0.48349,-0.019806,-0.09454299999999999,-0.005436,-0.001911,0.004548,-46.18,7.87,8.5,3a
2019-07-12_105404:240,-0.484009,-0.015228,-0.097107,-0.005039,-0.002643,0.003511,-45.5,7.5,7.68,3a
2019-07-12_105404:260,-0.48196400000000006,-0.013702,-0.09454299999999999,-0.0051,-0.00365,0.002565,-45.5,7.5,7.68,3a
2019-07-12_105404:280,-0.478912,-0.009644,-0.096588,-0.005344,-0.004596,0.0032359999999999997,-45.5,7.5,7.68,3a
2019-07-12_105404:300,-0.48095699999999997,-0.009125,-0.098633,-0.006076,-0.006092,0.004518,-45.75,7.75,8.87,3a
2019-07-12_105404:320,-0.481476,-0.011169,-0.101685,-0.007084,-0.007526000000000001,0.005006,-45.75,7.75,8.87,3a
2019-07-12_105404:340,-0.48706099999999997,-0.011687999999999999,-0.102173,-0.007937999999999999,-0.008258,0.004671,-44.25,7.5,8.06,3a
2019-07-12_105404:360,-0.48858599999999996,-0.013702,-0.103699,-0.008426000000000001,-0.009052,0.004457,-44.25,7.5,8.06,3a
2019-07-12_105404:380,-0.492645,-0.016266,-0.104706,-0.009159,-0.008472,0.004609,-44.25,7.5,8.06,3a
2019-07-12_105404:400,-0.496216,-0.018799,-0.104706,-0.009281000000000001,-0.008014,0.004396,-45.75,8.18,8.06,3a
2019-07-12_105404:420,-0.49468999999999996,-0.019318000000000002,-0.105225,-0.008823000000000001,-0.006731999999999999,0.0039689999999999994,-45.75,8.18,8.06,3a
2019-07-12_105404:440,-0.49517799999999995,-0.018799,-0.104706,-0.008213,-0.005817,0.00345,-45.060001,7.5,8.5,3a
2019-07-12_105404:460,-0.49111899999999997,-0.020325,-0.101685,-0.007418999999999999,-0.005054,0.003175,-45.060001,7.5,8.5,3a
2019-07-12_105404:480,-0.48858599999999996,-0.019318000000000002,-0.103699,-0.00629,-0.004383,0.0029620000000000002,-45.060001,7.5,8.5,3a
2019-07-12_105404:500,-0.486023,-0.017792,-0.09963999999999999,-0.005619,-0.0045049999999999995,0.00229,-45.060001,8.18,8.87,3a
2019-07-12_105404:520,-0.48654200000000003,-0.014740000000000001,-0.098633,-0.004886,-0.004779,0.001832,-45.060001,8.18,8.87,3a
2019-07-12_105404:540,-0.48706099999999997,-0.012177,-0.097595,-0.004642,-0.005298,0.0019850000000000002,-44.68,7.87,7.68,3a
2019-07-12_105404:560,-0.490112,-0.010162000000000001,-0.095062,-0.004703,-0.005695,0.002046,-44.68,7.87,7.68,3a
2019-07-12_105404:580,-0.490112,-0.008636,-0.094055,-0.005161,-0.005725,0.001893,-44.68,7.87,7.68,3a
2019-07-12_105404:600,-0.489594,-0.009644,-0.097107,-0.005741,-0.0060609999999999995,0.002046,-45.060001,7.5,8.5,3a
2019-07-12_105404:620,-0.48654200000000003,-0.008636,-0.096588,-0.006076,-0.006548999999999999,0.0019850000000000002,-45.060001,7.5,8.5,3a
2019-07-12_105404:640,-0.485016,-0.009125,-0.095062,-0.006168,-0.006854000000000001,0.002046,-45.060001,7.5,8.5,3a
2019-07-12_105404:660,-0.48754899999999995,-0.008636,-0.097107,-0.005619,-0.007465,0.002321,-45.060001,7.5,8.5,3a
2019-07-12_105404:680,-0.48349,-0.008118,-0.095062,-0.005222,-0.007465,0.003023,-45.060001,7.5,8.5,3a
2019-07-12_105404:700,-0.48858599999999996,-0.0035399999999999997,-0.09811399999999999,-0.005039,-0.007862000000000001,0.003908,-45.060001,7.18,8.06,3a
2019-07-12_105404:720,-0.48858599999999996,-0.0035399999999999997,-0.09811399999999999,-0.005771,-0.007923000000000001,0.0039689999999999994,-45.060001,7.18,8.06,3a
2019-07-12_105404:740,-0.489594,-0.000488,-0.10116599999999999,-0.006687,-0.00838,0.003694,-46.18,7.18,8.5,3a
2019-07-12_105404:760,-0.486023,-0.004547,-0.10116599999999999,-0.007999,-0.008411,0.004548,-46.18,7.18,8.5,3a
2019-07-12_105404:780,-0.48196400000000006,-0.009125,-0.10318,-0.008426000000000001,-0.008808,0.005983,-46.18,7.18,8.5,3a
2019-07-12_105404:800,-0.48095699999999997,-0.015747,-0.105743,-0.008334999999999999,-0.009509,0.005983,-45.5,7.75,8.06,3a
2019-07-12_105404:820,-0.482483,-0.017792,-0.10675,-0.007418999999999999,-0.010242,0.004945000000000001,-45.5,7.75,8.06,3a
2019-07-12_105404:840,-0.485016,-0.016266,-0.108276,-0.005954,-0.010669,0.003908,-46.560001,7.5,8.06,3a
2019-07-12_105404:860,-0.49111899999999997,-0.014740000000000001,-0.107269,-0.004886,-0.010639000000000001,0.003572,-46.560001,7.5,8.06,3a
2019-07-12_105404:880,-0.490601,-0.011687999999999999,-0.10928299999999999,-0.00394,-0.009876000000000001,0.003908,-46.560001,7.5,8.06,3a
2019-07-12_105404:900,-0.48858599999999996,-0.008636,-0.11233499999999999,-0.003849,-0.009265,0.00345,-45.75,7.87,8.06,3a
2019-07-12_105404:920,-0.490112,-0.008636,-0.112854,-0.003788,-0.008990999999999999,0.002443,-45.75,7.87,8.06,3a
2019-07-12_105404:940,-0.489075,-0.006592,-0.114899,-0.00394,-0.008472,0.001771,-45.75,8.56,7.25,3a
2019-07-12_105404:960,-0.489075,-0.004059,-0.109802,-0.0036659999999999996,-0.007984,0.001527,-45.75,8.56,7.25,3a
2019-07-12_105404:980,-0.485016,-0.004547,-0.11386099999999999,-0.003452,-0.007465,0.001497,-45.75,8.56,7.25,3a
2019-07-12_105405:000,-0.47689799999999993,-0.005065999999999999,-0.114899,-0.0033299999999999996,-0.007129000000000001,0.001497,-45.060001,7.5,5.68,3a
2019-07-12_105405:020,-0.466217,-0.004547,-0.118958,-0.003116,-0.008197,0.001588,-45.060001,7.5,5.68,3a
2019-07-12_105405:040,-0.46670500000000004,-0.005065999999999999,-0.12149000000000001,-0.00275,-0.009662,0.001039,-45.75,7.5,6.56,3a
2019-07-12_105405:060,-0.461121,-0.006592,-0.12353499999999999,-0.002536,-0.011066,0.0007639999999999999,-45.75,7.5,6.56,3a
2019-07-12_105405:080,-0.467224,-0.009644,-0.131165,-0.002353,-0.012775,0.0019850000000000002,-45.75,7.5,6.56,3a
2019-07-12_105405:100,-0.48300200000000004,-0.012177,-0.136749,-0.001072,-0.01485,0.001497,-45.060001,7.5,8.06,3a
2019-07-12_105405:120,-0.49722299999999997,-0.004059,-0.135742,0.000698,-0.015247,-0.00186,-45.060001,7.5,8.06,3a
2019-07-12_105405:140,-0.507904,0.004547,-0.137268,0.001583,-0.013843000000000001,-0.002989,-45.5,7.18,7.25,3a
2019-07-12_105405:160,-0.510437,0.007111,-0.133179,0.00259,-0.01073,3.2e-05,-45.5,7.18,7.25,3a
2019-07-12_105405:180,-0.5058590000000001,0.013213999999999998,-0.133698,0.0027129999999999997,-0.00719,0.0017100000000000001,-45.5,7.18,7.25,3a
2019-07-12_105405:200,-0.49975600000000003,0.015747,-0.134216,0.001583,-0.004169,0.002839,-46.18,6.75,6.56,3a
2019-07-12_105405:220,-0.490601,0.017273,-0.128601,0.000454,-0.002246,0.004793,-46.18,6.75,6.56,3a
2019-07-12_105405:240,-0.49111899999999997,0.017273,-0.12454200000000001,-0.001529,-0.000537,0.007112,-45.060001,7.18,5.68,3a
2019-07-12_105405:260,-0.485016,0.012177,-0.12048299999999999,-0.003849,0.000653,0.009309,-45.060001,7.18,5.68,3a
2019-07-12_105405:280,-0.484009,0.004547,-0.115906,-0.006076,0.001263,0.010957,-45.060001,7.18,5.68,3a
2019-07-12_105405:300,-0.484497,-0.001007,-0.112854,-0.008274,0.001263,0.011445,-45.75,6.37,6.06,3a
2019-07-12_105405:320,-0.485016,-0.0055850000000000006,-0.110321,-0.009617,0.001141,0.011842,-45.75,6.37,6.06,3a
2019-07-12_105405:340,-0.490601,-0.014221000000000001,-0.10928299999999999,-0.010685,0.000989,0.012239,-46.560001,6.37,6.06,3a
2019-07-12_105405:360,-0.492126,-0.017273,-0.104218,-0.011051,0.0007440000000000001,0.011903,-46.560001,6.37,6.06,3a
2019-07-12_105405:380,-0.49111899999999997,-0.021332,-0.103699,-0.010685,0.000592,0.010621,-46.560001,6.37,6.06,3a
2019-07-12_105405:400,-0.491638,-0.023375999999999997,-0.10116599999999999,-0.009922,0.000134,0.009309,-45.75,6.75,7.25,3a
2019-07-12_105405:420,-0.49365200000000004,-0.024902,-0.097107,-0.008395999999999999,-8e-05,0.008729,-45.75,6.75,7.25,3a
2019-07-12_105405:440,-0.49111899999999997,-0.023375999999999997,-0.09201000000000001,-0.0069,0.00047000000000000004,0.008333,-45.75,7.5,7.68,3a
2019-07-12_105405:460,-0.48858599999999996,-0.021851,-0.09201000000000001,-0.005679999999999999,0.00105,0.007844,-45.75,7.5,7.68,3a
2019-07-12_105405:480,-0.48095699999999997,-0.020325,-0.09149199999999999,-0.004642,0.000866,0.007112,-45.75,7.5,7.68,3a
2019-07-12_105405:500,-0.477386,-0.016753999999999998,-0.092529,-0.003879,-0.00041500000000000006,0.0058,-45.5,7.5,8.06,3a
2019-07-12_105405:520,-0.476379,-0.015228,-0.09301799999999999,-0.0036049999999999997,-0.0023989999999999997,0.004457,-45.5,7.5,8.06,3a
2019-07-12_105405:540,-0.473846,-0.013213999999999998,-0.09353600000000001,-0.0033299999999999996,-0.004657,0.004457,-46.18,8.18,8.06,3a
2019-07-12_105405:560,-0.47842399999999996,-0.012177,-0.09454299999999999,-0.0033299999999999996,-0.006670999999999999,0.005067,-46.18,8.18,8.06,3a
2019-07-12_105405:580,-0.48043800000000003,-0.014221000000000001,-0.097595,-0.003483,-0.007801000000000001,0.005647,-46.18,8.18,8.06,3a
2019-07-12_105405:600,-0.48095699999999997,-0.014221000000000001,-0.102173,-0.003544,-0.008869,0.005403,-45.5,8.56,7.68,3a
2019-07-12_105405:620,-0.481476,-0.014740000000000001,-0.103699,-0.003788,-0.009784000000000001,0.004671,-45.5,8.56,7.68,3a
2019-07-12_105405:640,-0.484497,-0.014221000000000001,-0.106232,-0.003849,-0.010272,0.004945000000000001,-44.68,7.87,8.06,3a
2019-07-12_105405:660,-0.486023,-0.016266,-0.10775799999999999,-0.003849,-0.010242,0.005067,-44.68,7.87,8.06,3a
2019-07-12_105405:680,-0.48858599999999996,-0.018799,-0.109802,-0.0037270000000000003,-0.010456,0.004182,-44.68,7.87,8.06,3a
2019-07-12_105405:700,-0.496216,-0.018799,-0.11233499999999999,-0.003147,-0.009662,0.003053,-45.5,7.87,7.25,3a
2019-07-12_105405:720,-0.49365200000000004,-0.01828,-0.110321,-0.002018,-0.008594,0.002229,-45.5,7.87,7.25,3a
2019-07-12_105405:740,-0.49365200000000004,-0.015747,-0.111328,-0.001072,-0.008075,0.001497,-44.68,8.18,7.68,3a
2019-07-12_105405:760,-0.488068,-0.013702,-0.112854,0.00011899999999999999,-0.007526000000000001,0.002382,-44.68,8.18,7.68,3a
2019-07-12_105405:780,-0.48553500000000005,-0.010651,-0.11386099999999999,0.00079,-0.0076170000000000005,0.00403,-44.68,8.18,7.68,3a
2019-07-12_105405:800,-0.48706099999999997,-0.011687999999999999,-0.11438,0.001065,-0.007281999999999999,0.004548,-45.75,7.5,8.06,3a
2019-07-12_105405:820,-0.486023,-0.008636,-0.113373,0.000698,-0.007006999999999999,0.004671,-45.75,7.5,8.06,3a
2019-07-12_105405:840,-0.485016,-0.009125,-0.11538699999999999,0.000393,-0.006670999999999999,0.005647,-46.560001,7.87,8.06,3a
2019-07-12_105405:860,-0.48095699999999997,-0.012177,-0.114899,-0.000339,-0.006548999999999999,0.006379,-46.560001,7.87,8.06,3a
2019-07-12_105405:880,-0.48095699999999997,-0.015228,-0.11538699999999999,-0.0011330000000000001,-0.006458,0.006318,-46.560001,7.87,8.06,3a
2019-07-12_105405:900,-0.48706099999999997,-0.017273,-0.11795,-0.001468,-0.006275,0.005983,-45.5,8.56,6.56,3a
2019-07-12_105405:920,-0.489075,-0.020325,-0.11691300000000002,-0.001621,-0.006,0.005586,-45.5,8.56,6.56,3a
2019-07-12_105405:940,-0.491638,-0.020325,-0.116425,-0.001468,-0.004993,0.004793,-45.75,7.87,7.68,3a
2019-07-12_105405:960,-0.494171,-0.019318000000000002,-0.113373,-0.001407,-0.004047,0.004671,-45.75,7.87,7.68,3a
2019-07-12_105405:980,-0.490601,-0.01828,-0.113373,-0.001194,-0.0032530000000000002,0.005006,-45.75,7.87,7.68,3a
2019-07-12_105406:000,-0.490601,-0.017792,-0.110321,-0.0011330000000000001,-0.0025210000000000002,0.005189,-45.75,8.18,6.87,3a
2019-07-12_105406:020,-0.48754899999999995,-0.017792,-0.110321,-0.001621,-0.002338,0.005647,-45.75,8.18,6.87,3a
2019-07-12_105406:040,-0.48754899999999995,-0.01828,-0.108795,-0.0022010000000000003,-0.0020629999999999997,0.006074,-45.5,7.87,6.56,3a
2019-07-12_105406:060,-0.48349,-0.019318000000000002,-0.107269,-0.003208,-0.002307,0.006257,-45.5,7.87,6.56,3a
2019-07-12_105406:080,-0.481476,-0.021332,-0.106232,-0.0036659999999999996,-0.00246,0.006044,-45.5,7.87,6.56,3a
2019-07-12_105406:100,-0.482483,-0.022858,-0.106232,-0.004123,-0.003192,0.006135,-45.5,7.5,8.87,3a
2019-07-12_105406:120,-0.486023,-0.024902,-0.103699,-0.0042450000000000005,-0.003589,0.006318,-45.5,7.5,8.87,3a
2019-07-12_105406:140,-0.488068,-0.025421,-0.106232,-0.004001,-0.004383,0.006470999999999999,-46.560001,7.87,8.06,3a
2019-07-12_105406:160,-0.490112,-0.026427999999999997,-0.102173,-0.004062,-0.004229999999999999,0.006257,-46.560001,7.87,8.06,3a
2019-07-12_105406:180,-0.494171,-0.026917,-0.10116599999999999,-0.004703,-0.003986,0.006257,-46.560001,7.87,8.06,3a
2019-07-12_105406:200,-0.489594,-0.026427999999999997,-0.101685,-0.005039,-0.003375,0.005922,-45.060001,7.87,8.5,3a
2019-07-12_105406:220,-0.48858599999999996,-0.027954000000000003,-0.096588,-0.005344,-0.002643,0.004548,-45.060001,7.87,8.5,3a
2019-07-12_105406:240,-0.48858599999999996,-0.027435,-0.098633,-0.005771,-0.002704,0.0034189999999999997,-45.060001,8.18,7.68,3a
2019-07-12_105406:260,-0.48349,-0.027435,-0.099121,-0.005832,-0.0032530000000000002,0.003908,-45.060001,8.18,7.68,3a
2019-07-12_105406:280,-0.48196400000000006,-0.031006,-0.099121,-0.005436,-0.004047,0.004609,-45.060001,8.18,7.68,3a
2019-07-12_105406:300,-0.481476,-0.031494,-0.09963999999999999,-0.005344,-0.004901,0.003908,-45.75,8.56,8.87,3a
2019-07-12_105406:320,-0.477386,-0.032532,-0.100159,-0.004947,-0.005298,0.00403,-45.75,8.56,8.87,3a
2019-07-12_105406:340,-0.48095699999999997,-0.032013,-0.10318,-0.004459,-0.007006999999999999,0.0038159999999999995,-45.5,8.56,7.25,3a
2019-07-12_105406:360,-0.484497,-0.031494,-0.103699,-0.003849,-0.008136,0.0029,-45.5,8.56,7.25,3a
2019-07-12_105406:380,-0.489594,-0.029968,-0.103699,-0.0033909999999999995,-0.00893,0.001924,-45.5,8.56,7.25,3a
2019-07-12_105406:400,-0.49468999999999996,-0.026427999999999997,-0.105225,-0.0027199999999999998,-0.008716,0.0019850000000000002,-45.060001,8.56,7.68,3a
2019-07-12_105406:420,-0.500275,-0.024902,-0.104218,-0.002475,-0.007739,0.002168,-45.060001,8.56,7.68,3a
2019-07-12_105406:440,-0.49365200000000004,-0.020325,-0.105743,-0.002536,-0.006397,0.002687,-45.5,8.18,8.5,3a
2019-07-12_105406:460,-0.492645,-0.020325,-0.104218,-0.002414,-0.005451,0.002565,-45.5,8.18,8.5,3a
2019-07-12_105406:480,-0.489075,-0.016266,-0.104706,-0.003116,-0.004718,0.0027170000000000002,-45.5,8.18,8.5,3a
2019-07-12_105406:500,-0.485016,-0.016266,-0.10675,-0.0036659999999999996,-0.004718,0.003908,-45.5,7.75,8.5,3a
2019-07-12_105406:520,-0.48300200000000004,-0.016753999999999998,-0.104706,-0.004184,-0.00484,0.005403,-45.5,7.75,8.5,3a
2019-07-12_105406:540,-0.48196400000000006,-0.019318000000000002,-0.105225,-0.004947,-0.005115,0.005342,-45.060001,7.87,7.68,3a
2019-07-12_105406:560,-0.484009,-0.020844,-0.105743,-0.005741,-0.005725,0.005342,-45.060001,7.87,7.68,3a
2019-07-12_105406:580,-0.484497,-0.022858,-0.107269,-0.005954,-0.0061530000000000005,0.005311,-45.060001,7.87,7.68,3a
2019-07-12_105406:600,-0.48706099999999997,-0.025421,-0.107269,-0.005954,-0.006397,0.004548,-45.5,7.5,8.87,3a
2019-07-12_105406:620,-0.489075,-0.027954000000000003,-0.10675,-0.005558,-0.006397,0.003908,-45.5,7.5,8.87,3a
2019-07-12_105406:640,-0.490112,-0.026427999999999997,-0.108276,-0.004886,-0.0060609999999999995,0.0037549999999999997,-45.75,7.87,8.5,3a
2019-07-12_105406:660,-0.489075,-0.025908999999999998,-0.106232,-0.003849,-0.005725,0.0037549999999999997,-45.75,7.87,8.5,3a
2019-07-12_105406:680,-0.489075,-0.022858,-0.106232,-0.0033909999999999995,-0.00539,0.003511,-45.75,7.87,8.5,3a
2019-07-12_105406:700,-0.48553500000000005,-0.021851,-0.105743,-0.003116,-0.004901,0.003694,-45.5,7.87,7.68,3a
2019-07-12_105406:720,-0.486023,-0.019806,-0.106232,-0.003208,-0.0052369999999999995,0.00403,-45.5,7.87,7.68,3a
2019-07-12_105406:740,-0.484009,-0.017792,-0.104218,-0.003879,-0.005359,0.004152,-46.18,7.5,8.06,3a
2019-07-12_105406:760,-0.485016,-0.019318000000000002,-0.104218,-0.004275999999999999,-0.005695,0.004396,-46.18,7.5,8.06,3a
2019-07-12_105406:780,-0.48349,-0.020844,-0.104218,-0.004581,-0.006,0.004548,-46.18,7.5,8.06,3a
2019-07-12_105406:800,-0.48349,-0.021851,-0.106232,-0.004703,-0.0066099999999999996,0.004548,-45.060001,7.5,9.25,3a
2019-07-12_105406:820,-0.48654200000000003,-0.022858,-0.10675,-0.004642,-0.006885,0.004671,-45.060001,7.5,9.25,3a
2019-07-12_105406:840,-0.489594,-0.023895,-0.105743,-0.004520000000000001,-0.006854000000000001,0.005189,-45.75,7.87,8.06,3a
2019-07-12_105406:860,-0.492645,-0.023895,-0.107269,-0.004275999999999999,-0.006854000000000001,0.005128,-45.75,7.87,8.06,3a
2019-07-12_105406:880,-0.49111899999999997,-0.021851,-0.105225,-0.004459,-0.005878,0.005067,-45.75,7.87,8.06,3a
2019-07-12_105406:900,-0.490112,-0.022369,-0.10775799999999999,-0.004612,-0.005298,0.005342,-44.68,8.18,8.06,3a
2019-07-12_105406:920,-0.48654200000000003,-0.023895,-0.102692,-0.004825,-0.004779,0.004854,-44.68,8.18,8.06,3a
2019-07-12_105406:940,-0.486023,-0.024384,-0.105225,-0.0051,-0.005115,0.003572,-45.5,8.18,6.87,3a
2019-07-12_105406:960,-0.481476,-0.023375999999999997,-0.105225,-0.0052829999999999995,-0.006,0.003358,-45.5,8.18,6.87,3a
2019-07-12_105406:980,-0.481476,-0.024384,-0.106232,-0.005161,-0.006670999999999999,0.004335,-45.5,8.18,6.87,3a
2019-07-12_105407:000,-0.48706099999999997,-0.025908999999999998,-0.105743,-0.004642,-0.007129000000000001,0.004671,-44.68,8.18,7.68,3a
2019-07-12_105407:020,-0.48654200000000003,-0.023375999999999997,-0.105743,-0.004398,-0.006793,0.004335,-44.68,8.18,7.68,3a
2019-07-12_105407:040,-0.48553500000000005,-0.022369,-0.106232,-0.004275999999999999,-0.006548999999999999,0.004548,-44.68,8.18,8.06,3a
2019-07-12_105407:060,-0.48754899999999995,-0.022369,-0.105225,-0.004337,-0.006548999999999999,0.005128,-44.68,8.18,8.06,3a
2019-07-12_105407:080,-0.48553500000000005,-0.023375999999999997,-0.10775799999999999,-0.004612,-0.006731999999999999,0.004609,-44.68,8.18,8.06,3a
2019-07-12_105407:100,-0.485016,-0.024384,-0.107269,-0.0051,-0.006854000000000001,0.004274,-44.68,8.56,6.87,3a
2019-07-12_105407:120,-0.48858599999999996,-0.024384,-0.107269,-0.0052829999999999995,-0.0070680000000000005,0.004335,-44.68,8.56,6.87,3a
2019-07-12_105407:140,-0.490112,-0.025908999999999998,-0.10928299999999999,-0.0052829999999999995,-0.006945999999999999,0.004213000000000001,-46.18,8.56,7.68,3a
2019-07-12_105407:160,-0.489075,-0.026427999999999997,-0.107269,-0.004825,-0.0066099999999999996,0.00403,-46.18,8.56,7.68,3a
2019-07-12_105407:180,-0.488068,-0.025421,-0.10775799999999999,-0.004703,-0.006214,0.003694,-46.18,8.56,7.68,3a
2019-07-12_105407:200,-0.486023,-0.022369,-0.10775799999999999,-0.004459,-0.006092,0.003908,-46.18,8.56,8.5,3a
2019-07-12_105407:220,-0.48553500000000005,-0.022369,-0.10775799999999999,-0.004581,-0.006092,0.004609,-46.18,8.56,8.5,3a
2019-07-12_105407:240,-0.484497,-0.022369,-0.10775799999999999,-0.004764,-0.006488,0.004609,-45.75,7.87,8.5,3a
2019-07-12_105407:260,-0.48553500000000005,-0.022369,-0.10775799999999999,-0.005161,-0.006793,0.004548,-45.75,7.87,8.5,3a
2019-07-12_105407:280,-0.48553500000000005,-0.023895,-0.108795,-0.005558,-0.006793,0.004854,-45.75,7.87,8.5,3a
2019-07-12_105407:300,-0.48706099999999997,-0.025421,-0.10775799999999999,-0.005558,-0.006885,0.004335,-44.68,8.18,7.68,3a
2019-07-12_105407:320,-0.48754899999999995,-0.026917,-0.108276,-0.005375,-0.006731999999999999,0.004182,-44.68,8.18,7.68,3a
2019-07-12_105407:340,-0.486023,-0.025421,-0.10928299999999999,-0.004978,-0.006854000000000001,0.004213000000000001,-45.060001,8.18,8.87,3a
2019-07-12_105407:360,-0.486023,-0.025908999999999998,-0.109802,-0.004581,-0.006670999999999999,0.0039689999999999994,-45.060001,8.18,8.87,3a
2019-07-12_105407:380,-0.484497,-0.024902,-0.110321,-0.004123,-0.0066099999999999996,0.00403,-45.060001,8.18,8.87,3a
2019-07-12_105407:400,-0.484009,-0.024902,-0.111328,-0.0037270000000000003,-0.006731999999999999,0.004152,-45.060001,9.0,7.68,3a
2019-07-12_105407:420,-0.484009,-0.021851,-0.109802,-0.0037270000000000003,-0.006731999999999999,0.004518,-45.060001,9.0,7.68,3a
2019-07-12_105407:440,-0.486023,-0.021851,-0.111847,-0.004123,-0.007006999999999999,0.004396,-44.68,8.18,7.68,3a
2019-07-12_105407:460,-0.489075,-0.023375999999999997,-0.109802,-0.004581,-0.006945999999999999,0.004518,-44.68,8.18,7.68,3a
2019-07-12_105407:480,-0.489594,-0.022858,-0.10928299999999999,-0.005039,-0.006945999999999999,0.004274,-44.68,8.18,7.68,3a
2019-07-12_105407:500,-0.48858599999999996,-0.024384,-0.110321,-0.005436,-0.0061530000000000005,0.003908,-45.060001,7.87,6.87,3a
2019-07-12_105407:520,-0.486023,-0.025421,-0.11080899999999999,-0.005497,-0.005939,0.0037549999999999997,-45.060001,7.87,6.87,3a
2019-07-12_105407:540,-0.48349,-0.023895,-0.11233499999999999,-0.0051,-0.006214,0.004091,-45.060001,7.87,6.56,3a
2019-07-12_105407:560,-0.48654200000000003,-0.024902,-0.11233499999999999,-0.004642,-0.006336,0.004548,-45.060001,7.87,6.56,3a
2019-07-12_105407:580,-0.489075,-0.022858,-0.109802,-0.004398,-0.006458,0.005067,-45.060001,7.87,6.56,3a
2019-07-12_105407:600,-0.48858599999999996,-0.020844,-0.110321,-0.004398,-0.005939,0.005586,-45.75,8.56,8.06,3a
2019-07-12_105407:620,-0.48706099999999997,-0.021851,-0.111328,-0.005161,-0.005573,0.006257,-45.75,8.56,8.06,3a
2019-07-12_105407:640,-0.48754899999999995,-0.023895,-0.10928299999999999,-0.005679999999999999,-0.004779,0.006044,-45.060001,8.18,6.56,3a
2019-07-12_105407:660,-0.485016,-0.026427999999999997,-0.110321,-0.0064730000000000005,-0.005115,0.004671,-45.060001,8.18,6.56,3a
2019-07-12_105407:680,-0.48349,-0.028442000000000002,-0.111328,-0.006687,-0.005725,0.004335,-45.060001,8.18,6.56,3a
2019-07-12_105407:700,-0.48553500000000005,-0.031006,-0.109802,-0.006076,-0.006092,0.004945000000000001,-45.5,8.18,7.68,3a
2019-07-12_105407:720,-0.48754899999999995,-0.031006,-0.110321,-0.0051,-0.006092,0.005006,-45.5,8.18,7.68,3a
2019-07-12_105407:740,-0.485016,-0.027435,-0.10928299999999999,-0.004337,-0.00539,0.00403,-46.560001,8.18,8.06,3a
2019-07-12_105407:760,-0.484497,-0.026427999999999997,-0.109802,-0.004123,-0.0055119999999999995,0.004091,-46.560001,8.18,8.06,3a
2019-07-12_105407:780,-0.48196400000000006,-0.025421,-0.109802,-0.004123,-0.005451,0.004213000000000001,-46.560001,8.18,8.06,3a
2019-07-12_105407:800,-0.485016,-0.024384,-0.111328,-0.004764,-0.006,0.003694,-45.060001,9.25,7.25,3a
2019-07-12_105407:820,-0.484009,-0.024902,-0.11080899999999999,-0.005222,-0.006458,0.003572,-45.060001,9.25,7.25,3a
2019-07-12_105407:840,-0.48858599999999996,-0.025421,-0.111328,-0.005436,-0.006548999999999999,0.0039689999999999994,-45.060001,8.56,6.87,3a
2019-07-12_105407:860,-0.48754899999999995,-0.025908999999999998,-0.110321,-0.005344,-0.006275,0.004457,-45.060001,8.56,6.87,3a
2019-07-12_105407:880,-0.489075,-0.027435,-0.113373,-0.004978,-0.005634,0.004274,-45.060001,8.56,6.87,3a
2019-07-12_105407:900,-0.488068,-0.026427999999999997,-0.11233499999999999,-0.004947,-0.005359,0.0038469999999999997,-45.5,7.5,6.06,3a
2019-07-12_105407:920,-0.486023,-0.026427999999999997,-0.111328,-0.004764,-0.0052369999999999995,0.004213000000000001,-45.5,7.5,6.06,3a
2019-07-12_105407:940,-0.486023,-0.027435,-0.111847,-0.004581,-0.004993,0.004854,-46.18,8.56,6.87,3a
2019-07-12_105407:960,-0.48553500000000005,-0.026427999999999997,-0.108795,-0.004459,-0.004993,0.004213000000000001,-46.18,8.56,6.87,3a
2019-07-12_105407:980,-0.48553500000000005,-0.025421,-0.10928299999999999,-0.004703,-0.004718,0.004091,-46.18,8.56,6.87,3a
2019-07-12_105408:000,-0.484497,-0.026427999999999997,-0.10928299999999999,-0.004642,-0.004961999999999999,0.004274,-45.75,8.18,8.06,3a
2019-07-12_105408:020,-0.48754899999999995,-0.026917,-0.10775799999999999,-0.004642,-0.004718,0.0038469999999999997,-45.75,8.18,8.06,3a
2019-07-12_105408:040,-0.48553500000000005,-0.025908999999999998,-0.108276,-0.004764,-0.004596,0.00345,-46.18,8.18,7.25,3a
2019-07-12_105408:060,-0.48654200000000003,-0.026917,-0.106232,-0.004459,-0.004779,0.003572,-46.18,8.18,7.25,3a
2019-07-12_105408:080,-0.484497,-0.024384,-0.106232,-0.004184,-0.00484,0.003572,-46.18,8.18,7.25,3a
2019-07-12_105408:100,-0.484497,-0.021851,-0.106232,-0.004001,-0.004961999999999999,0.0038159999999999995,-45.060001,8.18,7.25,3a
2019-07-12_105408:120,-0.484009,-0.021851,-0.10675,-0.004062,-0.005298,0.004335,-45.060001,8.18,7.25,3a
2019-07-12_105408:140,-0.484497,-0.020844,-0.10675,-0.004581,-0.006,0.004518,-45.5,8.18,7.68,3a
2019-07-12_105408:160,-0.488068,-0.021851,-0.10675,-0.005375,-0.006092,0.004915,-45.5,8.18,7.68,3a
2019-07-12_105408:180,-0.489075,-0.025421,-0.10775799999999999,-0.0060149999999999995,-0.005817,0.005067,-45.5,8.18,7.68,3a
2019-07-12_105408:200,-0.488068,-0.026917,-0.107269,-0.006229,-0.005451,0.004457,-45.5,8.56,7.68,3a
2019-07-12_105408:220,-0.48706099999999997,-0.027954000000000003,-0.105743,-0.006229,-0.005176,0.0039689999999999994,-45.5,8.56,7.68,3a
2019-07-12_105408:240,-0.48654200000000003,-0.027954000000000003,-0.10775799999999999,-0.005893,-0.005359,0.0039689999999999994,-45.5,8.18,7.25,3a
2019-07-12_105408:260,-0.485016,-0.026917,-0.103699,-0.005039,-0.00539,0.0038469999999999997,-45.5,8.18,7.25,3a
2019-07-12_105408:280,-0.48654200000000003,-0.026427999999999997,-0.104218,-0.004581,-0.005634,0.004274,-45.5,8.18,7.25,3a
2019-07-12_105408:300,-0.488068,-0.024384,-0.104218,-0.004275999999999999,-0.0055119999999999995,0.004854,-44.68,8.56,8.5,3a
2019-07-12_105408:320,-0.48754899999999995,-0.023375999999999997,-0.102692,-0.004642,-0.005298,0.004945000000000001,-44.68,8.56,8.5,3a
2019-07-12_105408:340,-0.484009,-0.022858,-0.104706,-0.0052829999999999995,-0.005451,0.004945000000000001,-46.18,8.18,7.68,3a
2019-07-12_105408:360,-0.484497,-0.024902,-0.101685,-0.005832,-0.005451,0.004396,-46.18,8.18,7.68,3a
2019-07-12_105408:380,-0.48349,-0.025908999999999998,-0.107269,-0.00629,-0.0060609999999999995,0.003572,-46.18,8.18,7.68,3a
2019-07-12_105408:400,-0.482483,-0.025421,-0.106232,-0.006168,-0.006793,0.003511,-45.75,8.56,7.68,3a
2019-07-12_105408:420,-0.48349,-0.029968,-0.10675,-0.005436,-0.007678,0.004396,-45.75,8.56,7.68,3a
2019-07-12_105408:440,-0.485016,-0.029480000000000003,-0.10775799999999999,-0.004612,-0.007739,0.004274,-45.5,8.56,7.25,3a
2019-07-12_105408:460,-0.485016,-0.026427999999999997,-0.106232,-0.004001,-0.007465,0.003694,-45.5,8.56,7.25,3a
2019-07-12_105408:480,-0.48553500000000005,-0.026427999999999997,-0.108795,-0.003452,-0.007526000000000001,0.0039689999999999994,-45.5,8.56,7.25,3a
2019-07-12_105408:500,-0.488068,-0.026427999999999997,-0.11233499999999999,-0.0033909999999999995,-0.007526000000000001,0.003908,-46.18,8.18,8.5,3a
2019-07-12_105408:520,-0.489075,-0.025421,-0.109802,-0.0033909999999999995,-0.007404000000000001,0.003358,-46.18,8.18,8.5,3a
2019-07-12_105408:540,-0.48858599999999996,-0.023895,-0.11233499999999999,-0.003544,-0.006885,0.003053,-46.18,8.56,7.25,3a
2019-07-12_105408:560,-0.49111899999999997,-0.023895,-0.11080899999999999,-0.0032689999999999998,-0.006488,0.003297,-46.18,8.56,7.25,3a
2019-07-12_105408:580,-0.48553500000000005,-0.024384,-0.110321,-0.003452,-0.0060609999999999995,0.0034189999999999997,-46.18,8.56,7.25,3a
2019-07-12_105408:600,-0.48706099999999997,-0.025421,-0.111328,-0.0033909999999999995,-0.005634,0.002565,-45.75,8.18,7.68,3a
2019-07-12_105408:620,-0.48043800000000003,-0.022369,-0.109802,-0.003544,-0.005298,0.002046,-45.75,8.18,7.68,3a
2019-07-12_105408:640,-0.478912,-0.023375999999999997,-0.10928299999999999,-0.0036049999999999997,-0.005573,0.003175,-45.5,7.87,6.56,3a
2019-07-12_105408:660,-0.48095699999999997,-0.025421,-0.113373,-0.0036659999999999996,-0.006214,0.003908,-45.5,7.87,6.56,3a
2019-07-12_105408:680,-0.47943100000000005,-0.024902,-0.112854,-0.003788,-0.006793,0.002778,-45.5,7.87,6.56,3a
2019-07-12_105408:700,-0.48858599999999996,-0.022858,-0.11538699999999999,-0.003849,-0.007526000000000001,0.002046,-45.5,8.18,7.25,3a
2019-07-12_105408:720,-0.491638,-0.022369,-0.113373,-0.003452,-0.00719,0.002565,-45.5,8.18,7.25,3a
2019-07-12_105408:740,-0.49517799999999995,-0.021851,-0.115906,-0.003208,-0.0061530000000000005,0.0027170000000000002,-46.560001,8.18,8.06,3a
2019-07-12_105408:760,-0.49468999999999996,-0.018799,-0.114899,-0.003116,-0.004718,0.002443,-46.560001,8.18,8.06,3a
2019-07-12_105408:780,-0.489594,-0.014740000000000001,-0.112854,-0.002933,-0.004108,0.003114,-46.560001,8.18,8.06,3a
2019-07-12_105408:800,-0.486023,-0.014740000000000001,-0.11233499999999999,-0.003116,-0.003436,0.004518,-45.75,7.75,8.06,3a
2019-07-12_105408:820,-0.48300200000000004,-0.013702,-0.10928299999999999,-0.004123,-0.0035280000000000003,0.005647,-45.75,7.75,8.06,3a
2019-07-12_105408:840,-0.47943100000000005,-0.012695,-0.109802,-0.004978,-0.004229999999999999,0.006532,-45.5,7.5,7.68,3a
2019-07-12_105408:860,-0.481476,-0.01828,-0.10928299999999999,-0.006076,-0.004901,0.006868000000000001,-45.5,7.5,7.68,3a
2019-07-12_105408:880,-0.48300200000000004,-0.021851,-0.108276,-0.0069,-0.005573,0.006654,-45.5,7.5,7.68,3a
2019-07-12_105408:900,-0.48553500000000005,-0.027435,-0.109802,-0.00687,-0.0060609999999999995,0.006318,-45.75,8.18,8.5,3a
2019-07-12_105408:920,-0.489075,-0.030487,-0.108795,-0.006076,-0.005939,0.005861,-45.75,8.18,8.5,3a
2019-07-12_105408:940,-0.489075,-0.03302,-0.110321,-0.004337,-0.005298,0.004518,-45.060001,8.56,8.5,3a
2019-07-12_105408:960,-0.489075,-0.029480000000000003,-0.10928299999999999,-0.0033299999999999996,-0.00484,0.0038469999999999997,-45.060001,8.56,8.5,3a
2019-07-12_105408:980,-0.48654200000000003,-0.025908999999999998,-0.10928299999999999,-0.002872,-0.00484,0.003694,-45.060001,8.56,8.5,3a
2019-07-12_105409:000,-0.486023,-0.022858,-0.10675,-0.003055,-0.005298,0.004335,-44.68,8.56,7.68,3a
2019-07-12_105409:020,-0.486023,-0.01828,-0.108795,-0.0036659999999999996,-0.005054,0.004335,-44.68,8.56,7.68,3a
2019-07-12_105409:040,-0.486023,-0.017273,-0.104706,-0.004703,-0.005176,0.004915,-45.5,9.0,8.06,3a
2019-07-12_105409:060,-0.48654200000000003,-0.018799,-0.10675,-0.005741,-0.00539,0.005647,-45.5,9.0,8.06,3a
2019-07-12_105409:080,-0.485016,-0.019806,-0.10675,-0.006351,-0.0055119999999999995,0.00525,-45.5,9.0,8.06,3a
2019-07-12_105409:100,-0.48553500000000005,-0.024384,-0.106232,-0.006809,-0.005878,0.004732,-45.060001,8.18,8.06,3a
2019-07-12_105409:120,-0.48654200000000003,-0.024384,-0.10675,-0.006687,-0.006670999999999999,0.005403,-45.060001,8.18,8.06,3a
2019-07-12_105409:140,-0.485016,-0.029480000000000003,-0.10775799999999999,-0.006351,-0.0066099999999999996,0.006074,-45.75,8.56,7.25,3a
2019-07-12_105409:160,-0.48754899999999995,-0.031006,-0.108795,-0.005222,-0.006458,0.006074,-45.75,8.56,7.25,3a
2019-07-12_105409:180,-0.489075,-0.029968,-0.108795,-0.004764,-0.005695,0.005586,-45.75,8.56,7.25,3a
2019-07-12_105409:200,-0.486023,-0.027435,-0.10775799999999999,-0.004612,-0.00539,0.005922,-44.68,8.18,6.56,3a
2019-07-12_105409:220,-0.48349,-0.028442000000000002,-0.107269,-0.004612,-0.005817,0.0058,-44.68,8.18,6.56,3a
2019-07-12_105409:240,-0.48349,-0.027954000000000003,-0.10928299999999999,-0.004947,-0.006670999999999999,0.004854,-45.5,9.0,8.06,3a
2019-07-12_105409:260,-0.48300200000000004,-0.028961,-0.10928299999999999,-0.004886,-0.007129000000000001,0.004457,-45.5,9.0,8.06,3a
2019-07-12_105409:280,-0.48349,-0.029480000000000003,-0.10928299999999999,-0.004703,-0.007343000000000001,0.004457,-45.5,9.0,8.06,3a
2019-07-12_105409:300,-0.486023,-0.031494,-0.113373,-0.004275999999999999,-0.007129000000000001,0.004396,-45.5,9.68,7.68,3a
2019-07-12_105409:320,-0.48553500000000005,-0.031494,-0.108795,-0.003483,-0.007006999999999999,0.003572,-45.5,9.68,7.68,3a
2019-07-12_105409:340,-0.48754899999999995,-0.028961,-0.11386099999999999,-0.003208,-0.006548999999999999,0.0032359999999999997,-45.5,9.0,7.68,3a
2019-07-12_105409:360,-0.48654200000000003,-0.028442000000000002,-0.113373,-0.0027199999999999998,-0.006336,0.004396,-45.5,9.0,7.68,3a
2019-07-12_105409:380,-0.48706099999999997,-0.027435,-0.113373,-0.002659,-0.005695,0.004671,-45.5,9.0,7.68,3a
2019-07-12_105409:400,-0.48654200000000003,-0.025908999999999998,-0.112854,-0.00275,-0.0055119999999999995,0.004548,-45.75,9.0,8.06,3a
2019-07-12_105409:420,-0.488068,-0.024902,-0.111847,-0.0036049999999999997,-0.0052369999999999995,0.004396,-45.75,9.0,8.06,3a
2019-07-12_105409:440,-0.48706099999999997,-0.026917,-0.111328,-0.003879,-0.004779,0.004518,-45.060001,9.0,8.06,3a
2019-07-12_105409:460,-0.488068,-0.026427999999999997,-0.10928299999999999,-0.0042450000000000005,-0.004657,0.004335,-45.060001,9.0,8.06,3a
2019-07-12_105409:480,-0.48654200000000003,-0.028442000000000002,-0.109802,-0.003879,-0.004383,0.004274,-45.060001,9.0,8.06,3a
2019-07-12_105409:500,-0.486023,-0.029480000000000003,-0.108795,-0.0036659999999999996,-0.004383,0.004518,-45.060001,9.0,6.87,3a
2019-07-12_105409:520,-0.48553500000000005,-0.029480000000000003,-0.10775799999999999,-0.0033299999999999996,-0.004444,0.004457,-45.060001,9.0,6.87,3a
2019-07-12_105409:540,-0.485016,-0.028442000000000002,-0.10775799999999999,-0.003208,-0.004596,0.004396,-45.5,8.18,8.06,3a
2019-07-12_105409:560,-0.48349,-0.026427999999999997,-0.10775799999999999,-0.003208,-0.005054,0.004548,-45.5,8.18,8.06,3a
2019-07-12_105409:580,-0.48349,-0.026917,-0.106232,-0.003544,-0.005634,0.004793,-45.5,8.18,8.06,3a
2019-07-12_105409:600,-0.482483,-0.025421,-0.107269,-0.004123,-0.005817,0.004793,-45.5,8.56,7.68,3a
2019-07-12_105409:620,-0.486023,-0.026427999999999997,-0.106232,-0.004612,-0.0061530000000000005,0.004609,-45.5,8.56,7.68,3a
2019-07-12_105409:640,-0.484497,-0.027435,-0.107269,-0.004825,-0.0061530000000000005,0.004609,-45.75,9.0,8.06,3a
2019-07-12_105409:660,-0.485016,-0.027435,-0.10775799999999999,-0.004978,-0.006488,0.004518,-45.75,9.0,8.06,3a
2019-07-12_105409:680,-0.485016,-0.028961,-0.108276,-0.004825,-0.006275,0.004609,-45.75,9.0,8.06,3a
2019-07-12_105409:700,-0.48706099999999997,-0.029968,-0.108795,-0.004978,-0.006548999999999999,0.004945000000000001,-45.75,8.18,8.06,3a
2019-07-12_105409:720,-0.488068,-0.029480000000000003,-0.108276,-0.004825,-0.006275,0.005128,-45.75,8.18,8.06,3a
2019-07-12_105409:740,-0.492126,-0.027435,-0.107269,-0.0051,-0.005939,0.005189,-45.75,8.18,8.06,3a
2019-07-12_105409:760,-0.489594,-0.028442000000000002,-0.10775799999999999,-0.005832,-0.005115,0.005983,-45.75,8.18,8.06,3a
2019-07-12_105409:780,-0.48754899999999995,-0.032013,-0.108276,-0.0060149999999999995,-0.004993,0.0058,-45.75,8.18,8.06,3a
2019-07-12_105409:800,-0.48095699999999997,-0.034058,-0.107269,-0.005954,-0.005054,0.004915,-45.75,9.0,7.25,3a
2019-07-12_105409:820,-0.482483,-0.035065,-0.10928299999999999,-0.005954,-0.005878,0.004335,-45.75,9.0,7.25,3a
2019-07-12_105409:840,-0.47995,-0.037598,-0.109802,-0.005436,-0.006885,0.005311,-45.060001,9.0,8.06,3a
2019-07-12_105409:860,-0.482483,-0.039124,-0.110321,-0.004520000000000001,-0.007404000000000001,0.005922,-45.060001,9.0,8.06,3a
2019-07-12_105409:880,-0.48754899999999995,-0.037598,-0.111328,-0.003452,-0.00719,0.0038469999999999997,-45.060001,9.0,8.06,3a
2019-07-12_105409:900,-0.48858599999999996,-0.035065,-0.111328,-0.003147,-0.007220999999999999,0.003297,-44.68,10.06,6.87,3a
2019-07-12_105409:920,-0.492645,-0.032013,-0.110321,-0.002933,-0.006092,0.003023,-44.68,10.06,6.87,3a
2019-07-12_105409:940,-0.49316400000000005,-0.032013,-0.11080899999999999,-0.002994,-0.005939,0.0027170000000000002,-44.68,10.06,6.87,3a
2019-07-12_105409:960,-0.489594,-0.030487,-0.110321,-0.0032689999999999998,-0.005359,0.0017100000000000001,-45.75,9.25,8.06,3a
2019-07-12_105409:980,-0.488068,-0.029480000000000003,-0.109802,-0.0032689999999999998,-0.0052369999999999995,0.0017100000000000001,-45.75,9.25,8.06,3a
2019-07-12_105410:000,-0.48858599999999996,-0.028442000000000002,-0.111847,-0.003055,-0.005298,0.0019850000000000002,-45.75,9.0,7.25,3a
2019-07-12_105410:020,-0.48553500000000005,-0.026917,-0.105225,-0.002323,-0.0045049999999999995,0.0019850000000000002,-45.75,9.0,7.25,3a
2019-07-12_105410:040,-0.488068,-0.022858,-0.10928299999999999,-0.002475,-0.004383,0.0019850000000000002,-45.75,8.56,8.5,3a
2019-07-12_105410:060,-0.485016,-0.020844,-0.107269,-0.002659,-0.004321,0.003023,-45.75,8.56,8.5,3a
2019-07-12_105410:080,-0.485016,-0.023895,-0.107269,-0.0033299999999999996,-0.004779,0.004152,-45.75,8.56,8.5,3a
2019-07-12_105410:100,-0.484497,-0.022858,-0.107269,-0.0037270000000000003,-0.004718,0.0039689999999999994,-45.5,8.56,8.06,3a
2019-07-12_105410:120,-0.485016,-0.024384,-0.104706,-0.004612,-0.005054,0.0034189999999999997,-45.5,8.56,8.06,3a
2019-07-12_105410:140,-0.48553500000000005,-0.025908999999999998,-0.106232,-0.004703,-0.0052369999999999995,0.0034189999999999997,-45.060001,9.0,8.06,3a
2019-07-12_105410:160,-0.48553500000000005,-0.027435,-0.104706,-0.004703,-0.005359,0.002778,-45.060001,9.0,8.06,3a
2019-07-12_105410:180,-0.485016,-0.027435,-0.106232,-0.004275999999999999,-0.005725,0.002687,-45.060001,9.0,8.06,3a
2019-07-12_105410:200,-0.484009,-0.026427999999999997,-0.105225,-0.003849,-0.005878,0.002839,-44.25,8.18,8.5,3a
2019-07-12_105410:220,-0.48349,-0.024384,-0.105225,-0.003452,-0.006275,0.0032359999999999997,-44.25,8.18,8.5,3a
2019-07-12_105410:240,-0.48300200000000004,-0.021851,-0.10675,-0.003544,-0.0066099999999999996,0.003297,-44.25,8.18,8.5,3a
2019-07-12_105410:260,-0.485016,-0.021851,-0.10775799999999999,-0.003849,-0.00719,0.003694,-45.75,8.56,7.68,3a
2019-07-12_105410:280,-0.484497,-0.020325,-0.108795,-0.004581,-0.007404000000000001,0.004152,-45.75,8.56,7.68,3a
2019-07-12_105410:300,-0.486023,-0.021332,-0.109802,-0.005222,-0.007862000000000001,0.004457,-44.68,9.0,7.25,3a
2019-07-12_105410:320,-0.48654200000000003,-0.022858,-0.109802,-0.0060149999999999995,-0.007678,0.004518,-44.68,9.0,7.25,3a
2019-07-12_105410:340,-0.48754899999999995,-0.023375999999999997,-0.108276,-0.006351,-0.007404000000000001,0.005128,-44.68,9.0,7.25,3a
2019-07-12_105410:360,-0.48706099999999997,-0.025908999999999998,-0.109802,-0.0064730000000000005,-0.0070680000000000005,0.005525,-46.560001,8.56,8.06,3a
2019-07-12_105410:380,-0.48706099999999997,-0.027954000000000003,-0.11080899999999999,-0.0064730000000000005,-0.006793,0.005739,-46.560001,8.56,8.06,3a
2019-07-12_105410:400,-0.48553500000000005,-0.028961,-0.111847,-0.006229,-0.006731999999999999,0.005861,-45.060001,7.87,7.25,3a
2019-07-12_105410:420,-0.48858599999999996,-0.029480000000000003,-0.11080899999999999,-0.005771,-0.007006999999999999,0.0058,-45.060001,7.87,7.25,3a
2019-07-12_105410:440,-0.485016,-0.027435,-0.10928299999999999,-0.005954,-0.006397,0.005983,-45.060001,7.87,7.25,3a
2019-07-12_105410:460,-0.490112,-0.028961,-0.11233499999999999,-0.0060149999999999995,-0.006458,0.006318,-45.060001,8.56,6.56,3a
2019-07-12_105410:480,-0.481476,-0.031006,-0.108276,-0.0060149999999999995,-0.0061530000000000005,0.005647,-45.060001,8.56,6.56,3a
2019-07-12_105410:500,-0.48553500000000005,-0.029968,-0.111847,-0.006229,-0.006488,0.004274,-45.060001,8.56,7.68,3a
2019-07-12_105410:520,-0.48553500000000005,-0.028961,-0.112854,-0.00629,-0.0070680000000000005,0.004274,-45.060001,8.56,7.68,3a
2019-07-12_105410:540,-0.484497,-0.031006,-0.114899,-0.005893,-0.0070680000000000005,0.005342,-45.060001,8.56,7.68,3a
2019-07-12_105410:560,-0.488068,-0.031006,-0.11438,-0.005497,-0.0070680000000000005,0.005739,-45.060001,8.56,7.25,3a
2019-07-12_105410:580,-0.486023,-0.029968,-0.114899,-0.005375,-0.006214,0.005342,-45.060001,8.56,7.25,3a
2019-07-12_105410:600,-0.485016,-0.029480000000000003,-0.11538699999999999,-0.0052829999999999995,-0.005725,0.005464,-45.5,9.0,6.56,3a
2019-07-12_105410:620,-0.485016,-0.029480000000000003,-0.11538699999999999,-0.005558,-0.00539,0.005861,-45.5,9.0,6.56,3a
2019-07-12_105410:640,-0.484497,-0.030487,-0.116425,-0.0060149999999999995,-0.0055119999999999995,0.005525,-45.5,9.0,6.56,3a
2019-07-12_105410:660,-0.484009,-0.030487,-0.11538699999999999,-0.006076,-0.005817,0.005342,-46.18,9.0,7.68,3a
2019-07-12_105410:680,-0.490112,-0.03302,-0.114899,-0.0061070000000000004,-0.005756,0.005311,-46.18,9.0,7.68,3a
2019-07-12_105410:700,-0.485016,-0.034058,-0.11795,-0.005893,-0.0055119999999999995,0.00525,-45.5,9.0,7.68,3a
2019-07-12_105410:720,-0.48654200000000003,-0.036591000000000005,-0.112854,-0.005375,-0.004901,0.004396,-45.5,9.0,7.68,3a
2019-07-12_105410:740,-0.48553500000000005,-0.034058,-0.11438,-0.004825,-0.004596,0.003633,-45.5,9.0,7.68,3a
2019-07-12_105410:760,-0.484009,-0.032532,-0.113373,-0.004581,-0.004718,0.004182,-45.75,9.0,6.56,3a
2019-07-12_105410:780,-0.485016,-0.032532,-0.113373,-0.004123,-0.004961999999999999,0.004396,-45.75,9.0,6.56,3a
2019-07-12_105410:800,-0.48553500000000005,-0.032013,-0.111328,-0.004123,-0.004566,0.003511,-44.68,9.68,7.25,3a
2019-07-12_105410:820,-0.48706099999999997,-0.030487,-0.11080899999999999,-0.004275999999999999,-0.004383,0.0032359999999999997,-44.68,9.68,7.25,3a
2019-07-12_105410:840,-0.48654200000000003,-0.031006,-0.110321,-0.0042450000000000005,-0.004108,0.003511,-44.68,9.68,7.25,3a
2019-07-12_105410:860,-0.486023,-0.029480000000000003,-0.110321,-0.004275999999999999,-0.003986,0.003053,-45.060001,9.25,7.68,3a
2019-07-12_105410:880,-0.486023,-0.030487,-0.10928299999999999,-0.004184,-0.004047,0.003053,-45.060001,9.25,7.68,3a
2019-07-12_105410:900,-0.484497,-0.030487,-0.108795,-0.003849,-0.00426,0.003572,-45.5,8.56,8.06,3a
2019-07-12_105410:920,-0.48553500000000005,-0.028961,-0.10675,-0.003849,-0.004718,0.003694,-45.5,8.56,8.06,3a
2019-07-12_105410:940,-0.48349,-0.028961,-0.10675,-0.0037270000000000003,-0.004901,0.003572,-45.5,8.56,8.06,3a
2019-07-12_105410:960,-0.48300200000000004,-0.027954000000000003,-0.105743,-0.003788,-0.005054,0.003908,-45.060001,9.0,7.25,3a
2019-07-12_105410:980,-0.48300200000000004,-0.027954000000000003,-0.105225,-0.00394,-0.005451,0.004182,-45.060001,9.0,7.25,3a
2019-07-12_105411:000,-0.48300200000000004,-0.029968,-0.105225,-0.004459,-0.005878,0.004274,-45.5,8.56,7.25,3a
2019-07-12_105411:020,-0.48349,-0.031006,-0.105743,-0.004581,-0.006275,0.004335,-45.5,8.56,7.25,3a
2019-07-12_105411:040,-0.484009,-0.033539,-0.10928299999999999,-0.004520000000000001,-0.006548999999999999,0.004182,-45.5,8.56,7.25,3a
2019-07-12_105411:060,-0.48754899999999995,-0.03302,-0.108795,-0.0042450000000000005,-0.007129000000000001,0.003358,-45.75,8.56,7.25,3a
2019-07-12_105411:080,-0.49111899999999997,-0.030487,-0.108276,-0.003849,-0.0070680000000000005,0.0029,-45.75,8.56,7.25,3a
2019-07-12_105411:100,-0.492126,-0.028961,-0.109802,-0.003483,-0.006488,0.003023,-44.25,8.56,7.68,3a
2019-07-12_105411:120,-0.490112,-0.027435,-0.10675,-0.0033909999999999995,-0.0060609999999999995,0.003297,-44.25,8.56,7.68,3a
2019-07-12_105411:140,-0.48553500000000005,-0.026917,-0.107269,-0.003208,-0.00539,0.003633,-44.25,8.56,7.68,3a
2019-07-12_105411:160,-0.481476,-0.025908999999999998,-0.108795,-0.003544,-0.005756,0.004213000000000001,-45.5,9.0,7.68,3a
2019-07-12_105411:180,-0.481476,-0.025908999999999998,-0.105225,-0.003879,-0.006092,0.004335,-45.5,9.0,7.68,3a
2019-07-12_105411:200,-0.48196400000000006,-0.025908999999999998,-0.110321,-0.004398,-0.006731999999999999,0.0038469999999999997,-45.5,8.18,7.68,3a
2019-07-12_105411:220,-0.48196400000000006,-0.026427999999999997,-0.110321,-0.004764,-0.007526000000000001,0.004213000000000001,-45.5,8.18,7.68,3a
2019-07-12_105411:240,-0.48654200000000003,-0.028961,-0.111847,-0.005039,-0.007923000000000001,0.005128,-45.5,8.18,7.68,3a
2019-07-12_105411:260,-0.490112,-0.030487,-0.11386099999999999,-0.004764,-0.007587000000000001,0.004915,-45.5,8.56,7.68,3a
2019-07-12_105411:280,-0.489075,-0.029968,-0.111847,-0.004612,-0.006670999999999999,0.004091,-45.5,8.56,7.68,3a
2019-07-12_105411:300,-0.48858599999999996,-0.029480000000000003,-0.113373,-0.004398,-0.006275,0.0039689999999999994,-45.060001,8.56,7.25,3a
2019-07-12_105411:320,-0.48654200000000003,-0.027435,-0.111847,-0.004184,-0.005939,0.004152,-45.060001,8.56,7.25,3a
2019-07-12_105411:340,-0.48349,-0.027435,-0.111328,-0.004459,-0.006,0.003633,-45.060001,8.56,7.25,3a
2019-07-12_105411:360,-0.48349,-0.025421,-0.11233499999999999,-0.004612,-0.0061530000000000005,0.003175,-45.5,9.25,7.25,3a
2019-07-12_105411:380,-0.48706099999999997,-0.025421,-0.113373,-0.004703,-0.006397,0.00403,-45.5,9.25,7.25,3a
2019-07-12_105411:400,-0.485016,-0.025908999999999998,-0.111847,-0.004764,-0.006214,0.004518,-45.5,9.0,7.25,3a
