timestamp,AccX,AccY,AccZ,GyroX,GyroY,GyroZ,MagX,MagY,MagZ,Activity
2019-07-12_150238:040,-0.39502,-0.016753999999999998,-0.306061,-0.006364,-0.000582,0.001335,-42.060001,-18.25,-35.75,2b
2019-07-12_150238:060,-0.396057,-0.016753999999999998,-0.30249000000000004,-0.006181,-0.000857,0.001091,-42.060001,-18.25,-35.75,2b
2019-07-12_150238:080,-0.396057,-0.015747,-0.303528,-0.005906000000000001,-0.001101,0.001274,-42.060001,-18.25,-34.68,2b
2019-07-12_150238:100,-0.396057,-0.016753999999999998,-0.303528,-0.005967,-0.001101,0.001274,-42.060001,-18.25,-34.68,2b
2019-07-12_150238:120,-0.394012,-0.014740000000000001,-0.30300900000000003,-0.0056619999999999995,-0.001376,0.000878,-42.060001,-18.25,-34.68,2b
2019-07-12_150238:140,-0.396057,-0.012695,-0.301483,-0.005601,-0.0015890000000000001,0.001854,-42.869999,-17.870001000000002,-36.68,2b
2019-07-12_150238:160,-0.393005,-0.014221000000000001,-0.302002,-0.005784,-0.002016,0.0021899999999999997,-42.869999,-17.870001000000002,-36.68,2b
2019-07-12_150238:180,-0.393494,-0.015747,-0.30249000000000004,-0.005906000000000001,-0.002016,0.001152,-42.060001,-19.0,-36.18,2b
2019-07-12_150238:200,-0.39502,-0.013213999999999998,-0.303528,-0.006181,-0.002261,0.00103,-42.060001,-19.0,-36.18,2b
2019-07-12_150238:220,-0.395538,-0.014221000000000001,-0.30300900000000003,-0.006181,-0.002016,0.002495,-42.060001,-19.0,-36.18,2b
2019-07-12_150238:240,-0.396545,-0.016266,-0.305542,-0.00615,-0.002078,0.0023120000000000003,-42.869999,-18.68,-36.18,2b
2019-07-12_150238:260,-0.396057,-0.015747,-0.305054,-0.006547,-0.001925,0.001732,-42.869999,-18.68,-36.18,2b
2019-07-12_150238:280,-0.39502,-0.015747,-0.304016,-0.006425,-0.002016,0.0014880000000000002,-42.060001,-18.68,-36.18,2b
2019-07-12_150238:300,-0.396057,-0.017792,-0.305542,-0.006364,-0.001925,0.0014269999999999999,-42.060001,-18.68,-36.18,2b
2019-07-12_150238:320,-0.396545,-0.016266,-0.306061,-0.006089,-0.0018030000000000001,0.001396,-42.060001,-18.68,-36.18,2b
2019-07-12_150238:340,-0.396545,-0.016266,-0.306061,-0.005845,-0.001925,0.0016710000000000002,-41.369999,-18.68,-36.18,2b
2019-07-12_150238:360,-0.39502,-0.017273,-0.30300900000000003,-0.0054789999999999995,-0.001955,0.0016710000000000002,-41.369999,-18.68,-36.18,2b
2019-07-12_150238:380,-0.395538,-0.015228,-0.304016,-0.0054789999999999995,-0.002016,0.0016710000000000002,-42.869999,-18.25,-37.369999,2b
2019-07-12_150238:400,-0.395538,-0.014740000000000001,-0.305054,-0.005448,-0.0018030000000000001,0.002129,-42.869999,-18.25,-37.369999,2b
2019-07-12_150238:420,-0.39502,-0.014221000000000001,-0.305054,-0.00554,-0.002016,0.002037,-42.869999,-18.25,-37.369999,2b
2019-07-12_150238:440,-0.395538,-0.014221000000000001,-0.304535,-0.005845,-0.002139,0.0017629999999999998,-42.5,-18.25,-36.560001,2b
2019-07-12_150238:460,-0.394531,-0.014740000000000001,-0.304535,-0.005906000000000001,-0.002078,0.0019760000000000003,-42.5,-18.25,-36.560001,2b
2019-07-12_150238:480,-0.393494,-0.014740000000000001,-0.305542,-0.00615,-0.002078,0.002098,-42.5,-17.870001000000002,-35.75,2b
2019-07-12_150238:500,-0.394531,-0.014740000000000001,-0.305054,-0.006089,-0.002322,0.002037,-42.5,-17.870001000000002,-35.75,2b
2019-07-12_150238:520,-0.396057,-0.015228,-0.305542,-0.006089,-0.0022,0.002373,-42.5,-17.870001000000002,-35.75,2b
2019-07-12_150238:540,-0.397064,-0.015747,-0.305542,-0.005815,-0.001955,0.002373,-42.5,-18.25,-35.75,2b
2019-07-12_150238:560,-0.397064,-0.016753999999999998,-0.304016,-0.005723,-0.0018030000000000001,0.0019149999999999998,-42.5,-18.25,-35.75,2b
2019-07-12_150238:580,-0.395538,-0.015228,-0.30654899999999996,-0.005601,-0.001559,0.001732,-42.060001,-19.0,-35.369999,2b
2019-07-12_150238:600,-0.393494,-0.015228,-0.305542,-0.00554,-0.001437,0.0023120000000000003,-42.060001,-19.0,-35.369999,2b
2019-07-12_150238:620,-0.391479,-0.015747,-0.305542,-0.005723,-0.001498,0.0021899999999999997,-42.060001,-19.0,-35.369999,2b
2019-07-12_150238:640,-0.390961,-0.015747,-0.306061,-0.005845,-0.002078,0.00161,-41.75,-18.68,-36.68,2b
2019-07-12_150238:660,-0.393005,-0.015747,-0.307587,-0.005967,-0.0027489999999999997,0.0016710000000000002,-41.75,-18.68,-36.68,2b
2019-07-12_150238:680,-0.396545,-0.015228,-0.307587,-0.006028,-0.00281,0.0019760000000000003,-42.869999,-19.0,-35.75,2b
2019-07-12_150238:700,-0.398071,-0.016753999999999998,-0.307068,-0.005815,-0.002261,0.002983,-42.869999,-19.0,-35.75,2b
2019-07-12_150238:720,-0.399109,-0.017792,-0.308594,-0.005906000000000001,-0.001437,0.001854,-42.869999,-19.0,-35.75,2b
2019-07-12_150238:740,-0.394012,-0.016753999999999998,-0.306061,-0.00615,-0.000704,0.001274,-42.869999,-19.0,-35.5,2b
2019-07-12_150238:760,-0.394012,-0.017273,-0.305054,-0.006028,-0.0007650000000000001,0.0016710000000000002,-42.869999,-19.0,-35.5,2b
2019-07-12_150238:780,-0.396545,-0.01828,-0.306061,-0.0056619999999999995,-0.0010400000000000001,0.001213,-42.060001,-18.25,-35.869999,2b
2019-07-12_150238:800,-0.395538,-0.017273,-0.30654899999999996,-0.005326,-0.0011619999999999998,0.00161,-42.060001,-18.25,-35.869999,2b
2019-07-12_150238:820,-0.39502,-0.016753999999999998,-0.304016,-0.004991,-0.001376,0.002037,-42.060001,-18.25,-35.869999,2b
2019-07-12_150238:840,-0.39502,-0.016753999999999998,-0.304535,-0.005386999999999999,-0.001498,0.0014880000000000002,-42.5,-18.25,-35.869999,2b
2019-07-12_150238:860,-0.396545,-0.013213999999999998,-0.30249000000000004,-0.005784,-0.001376,0.001854,-42.5,-18.25,-35.869999,2b
2019-07-12_150238:880,-0.391968,-0.014740000000000001,-0.305542,-0.006089,-0.001498,0.0014269999999999999,-42.869999,-18.68,-36.68,2b
2019-07-12_150238:900,-0.393494,-0.016753999999999998,-0.305542,-0.006547,-0.0018030000000000001,0.000206,-42.869999,-18.68,-36.68,2b
2019-07-12_150238:920,-0.393494,-0.015747,-0.305542,-0.006486,-0.0016809999999999998,0.000817,-42.869999,-18.68,-36.68,2b
2019-07-12_150238:940,-0.393494,-0.016266,-0.304535,-0.00615,-0.00162,0.001854,-42.060001,-18.25,-35.869999,2b
2019-07-12_150238:960,-0.394531,-0.017792,-0.305542,-0.005845,-0.00162,0.001396,-42.060001,-18.25,-35.869999,2b
2019-07-12_150238:980,-0.39502,-0.017792,-0.307068,-0.005601,-0.0015890000000000001,0.001152,-42.5,-18.25,-36.25,2b
2019-07-12_150239:000,-0.397064,-0.015747,-0.30654899999999996,-0.005326,-0.001437,0.001549,-42.5,-18.25,-36.25,2b
2019-07-12_150239:020,-0.396057,-0.015747,-0.307068,-0.005386999999999999,-0.001254,0.0014269999999999999,-42.5,-18.25,-36.25,2b
2019-07-12_150239:040,-0.396057,-0.014221000000000001,-0.305054,-0.0056619999999999995,-0.000857,0.001152,-41.75,-17.870001000000002,-36.68,2b
2019-07-12_150239:060,-0.39502,-0.012695,-0.304016,-0.005815,-0.0010400000000000001,0.001213,-41.75,-17.870001000000002,-36.68,2b
2019-07-12_150239:080,-0.394012,-0.013213999999999998,-0.303528,-0.006028,-0.001437,0.0014269999999999999,-41.75,-19.75,-36.68,2b
2019-07-12_150239:100,-0.393494,-0.013213999999999998,-0.304535,-0.00615,-0.001559,0.0017929999999999999,-41.75,-19.75,-36.68,2b
2019-07-12_150239:120,-0.394531,-0.013213999999999998,-0.30300900000000003,-0.006028,-0.00162,0.0021899999999999997,-41.75,-19.75,-36.68,2b
2019-07-12_150239:140,-0.396057,-0.014221000000000001,-0.304016,-0.006028,-0.0016809999999999998,0.002037,-42.060001,-19.0,-36.25,2b
2019-07-12_150239:160,-0.396545,-0.013702,-0.30300900000000003,-0.005906000000000001,-0.001559,0.002251,-42.060001,-19.0,-36.25,2b
2019-07-12_150239:180,-0.394531,-0.014740000000000001,-0.306061,-0.005906000000000001,-0.00162,0.002526,-42.5,-19.370001000000002,-35.5,2b
2019-07-12_150239:200,-0.393494,-0.015228,-0.303528,-0.005845,-0.0017420000000000003,0.002526,-42.5,-19.370001000000002,-35.5,2b
2019-07-12_150239:220,-0.393005,-0.015747,-0.303528,-0.005784,-0.001925,0.002373,-42.5,-19.370001000000002,-35.5,2b
2019-07-12_150239:240,-0.393005,-0.016266,-0.305542,-0.0056619999999999995,-0.0022,0.002373,-42.5,-19.0,-35.869999,2b
2019-07-12_150239:260,-0.397064,-0.015747,-0.305542,-0.0054789999999999995,-0.002078,0.002709,-42.5,-19.0,-35.869999,2b
2019-07-12_150239:280,-0.398071,-0.015747,-0.306061,-0.00554,-0.001955,0.002526,-42.5,-17.5,-36.25,2b
2019-07-12_150239:300,-0.396545,-0.015228,-0.305054,-0.00554,-0.001925,0.00277,-42.5,-17.5,-36.25,2b
2019-07-12_150239:320,-0.397583,-0.016266,-0.303528,-0.005784,-0.0016809999999999998,0.002709,-42.5,-17.5,-36.25,2b
2019-07-12_150239:340,-0.391479,-0.017273,-0.305054,-0.006028,-0.0016809999999999998,0.0023120000000000003,-43.25,-18.25,-37.5,2b
2019-07-12_150239:360,-0.390442,-0.017792,-0.304016,-0.006028,-0.002139,0.0019149999999999998,-43.25,-18.25,-37.5,2b
2019-07-12_150239:380,-0.393005,-0.01828,-0.307587,-0.005906000000000001,-0.0022,0.002129,-42.5,-19.0,-35.869999,2b
2019-07-12_150239:400,-0.393005,-0.016266,-0.308075,-0.005784,-0.002261,0.002892,-42.5,-19.0,-35.869999,2b
2019-07-12_150239:420,-0.395538,-0.018799,-0.307068,-0.00554,-0.001925,0.002892,-42.5,-19.0,-35.869999,2b
2019-07-12_150239:440,-0.396057,-0.017273,-0.306061,-0.0056619999999999995,-0.0015890000000000001,0.00161,-41.75,-18.68,-36.68,2b
2019-07-12_150239:460,-0.395538,-0.016753999999999998,-0.305054,-0.0056619999999999995,-0.0011619999999999998,0.0014880000000000002,-41.75,-18.68,-36.68,2b
2019-07-12_150239:480,-0.394012,-0.017273,-0.30654899999999996,-0.0056619999999999995,-0.0010400000000000001,0.0019149999999999998,-42.060001,-18.25,-37.060001,2b
2019-07-12_150239:500,-0.39502,-0.018799,-0.305542,-0.005723,-0.001254,0.0016710000000000002,-42.060001,-18.25,-37.060001,2b
2019-07-12_150239:520,-0.394531,-0.016753999999999998,-0.304016,-0.00554,-0.0012230000000000001,0.0016710000000000002,-42.060001,-18.25,-37.060001,2b
2019-07-12_150239:540,-0.394012,-0.01828,-0.304535,-0.005326,-0.001376,0.002037,-42.5,-18.25,-35.560001,2b
2019-07-12_150239:560,-0.39502,-0.018799,-0.304535,-0.005265,-0.0015890000000000001,0.001854,-42.5,-18.25,-35.560001,2b
2019-07-12_150239:580,-0.396545,-0.015747,-0.305054,-0.005386999999999999,-0.002016,0.0017929999999999999,-41.75,-18.25,-36.75,2b
2019-07-12_150239:600,-0.393005,-0.014740000000000001,-0.304535,-0.005601,-0.0016809999999999998,0.0023120000000000003,-41.75,-18.25,-36.75,2b
2019-07-12_150239:620,-0.393494,-0.017792,-0.304535,-0.005784,-0.001925,0.002098,-41.75,-18.25,-36.75,2b
2019-07-12_150239:640,-0.393494,-0.017792,-0.307587,-0.006028,-0.002016,0.001,-42.060001,-18.25,-37.060001,2b
2019-07-12_150239:660,-0.391968,-0.016266,-0.305054,-0.005845,-0.002078,0.001732,-42.060001,-18.25,-37.060001,2b
2019-07-12_150239:680,-0.396545,-0.018799,-0.307068,-0.00554,-0.001955,0.002709,-42.060001,-17.5,-36.75,2b
2019-07-12_150239:700,-0.39502,-0.017792,-0.306061,-0.005784,-0.0017420000000000003,0.002037,-42.060001,-17.5,-36.75,2b
2019-07-12_150239:720,-0.396057,-0.017792,-0.306061,-0.005784,-0.001559,0.001732,-42.060001,-17.5,-36.75,2b
2019-07-12_150239:740,-0.394531,-0.016753999999999998,-0.308075,-0.0054789999999999995,-0.0015890000000000001,0.002037,-42.060001,-18.68,-35.869999,2b
2019-07-12_150239:760,-0.394012,-0.01828,-0.30654899999999996,-0.005815,-0.001559,0.0016710000000000002,-42.060001,-18.68,-35.869999,2b
2019-07-12_150239:780,-0.396057,-0.01828,-0.306061,-0.005815,-0.001376,0.001274,-42.5,-18.68,-36.68,2b
2019-07-12_150239:800,-0.39502,-0.017792,-0.30654899999999996,-0.005723,-0.0010400000000000001,0.001396,-42.5,-18.68,-36.68,2b
2019-07-12_150239:820,-0.395538,-0.017792,-0.305542,-0.005448,-0.001101,0.0019149999999999998,-42.5,-18.68,-36.68,2b
2019-07-12_150239:840,-0.394012,-0.016753999999999998,-0.305542,-0.005386999999999999,-0.001101,0.0019149999999999998,-42.5,-18.25,-35.5,2b
2019-07-12_150239:860,-0.394531,-0.016266,-0.304016,-0.00554,-0.001315,0.001854,-42.5,-18.25,-35.5,2b
2019-07-12_150239:880,-0.394531,-0.015747,-0.304535,-0.00554,-0.001254,0.001854,-42.5,-18.68,-36.68,2b
2019-07-12_150239:900,-0.393494,-0.016266,-0.305054,-0.006028,-0.001559,0.001854,-42.5,-18.68,-36.68,2b
2019-07-12_150239:920,-0.395538,-0.017273,-0.304016,-0.00615,-0.001376,0.0019760000000000003,-42.5,-18.68,-36.68,2b
2019-07-12_150239:940,-0.393494,-0.017273,-0.30654899999999996,-0.005967,-0.001559,0.0017929999999999999,-42.5,-18.68,-36.68,2b
2019-07-12_150239:960,-0.394012,-0.01828,-0.304016,-0.005845,-0.00162,0.001549,-42.5,-18.68,-36.68,2b
2019-07-12_150239:980,-0.394012,-0.017792,-0.305054,-0.005723,-0.0015890000000000001,0.0016710000000000002,-41.75,-18.68,-35.5,2b
2019-07-12_150240:000,-0.395538,-0.017792,-0.305054,-0.0054789999999999995,-0.001864,0.0017929999999999999,-41.75,-18.68,-35.5,2b
2019-07-12_150240:020,-0.396057,-0.016266,-0.306061,-0.0054789999999999995,-0.001925,0.001854,-41.75,-18.68,-35.5,2b
2019-07-12_150240:040,-0.399109,-0.017792,-0.307587,-0.00554,-0.001559,0.002251,-42.060001,-19.0,-36.25,2b
2019-07-12_150240:060,-0.395538,-0.016266,-0.30654899999999996,-0.005601,-0.001437,0.002251,-42.060001,-19.0,-36.25,2b
2019-07-12_150240:080,-0.395538,-0.016753999999999998,-0.305542,-0.005967,-0.0012230000000000001,0.002434,-42.060001,-19.0,-36.68,2b
2019-07-12_150240:100,-0.393005,-0.018799,-0.30654899999999996,-0.006242,-0.000918,0.002037,-42.060001,-19.0,-36.68,2b
2019-07-12_150240:120,-0.39502,-0.019806,-0.306061,-0.006364,-0.001315,0.001335,-42.060001,-19.0,-36.68,2b
2019-07-12_150240:140,-0.395538,-0.019806,-0.30654899999999996,-0.005967,-0.001437,0.001152,-43.25,-18.25,-37.060001,2b
2019-07-12_150240:160,-0.394012,-0.01828,-0.305054,-0.005784,-0.001498,0.002098,-43.25,-18.25,-37.060001,2b
2019-07-12_150240:180,-0.394012,-0.017792,-0.305542,-0.005326,-0.001437,0.002983,-43.25,-18.25,-37.060001,2b
2019-07-12_150240:200,-0.396057,-0.01828,-0.30654899999999996,-0.005386999999999999,-0.001101,0.0021899999999999997,-42.5,-18.68,-36.75,2b
2019-07-12_150240:220,-0.39502,-0.016753999999999998,-0.304016,-0.005601,-0.000704,0.0014269999999999999,-42.5,-18.68,-36.75,2b
2019-07-12_150240:240,-0.396057,-0.018799,-0.304016,-0.005784,-0.00045999999999999996,0.0016710000000000002,-42.060001,-17.870001000000002,-36.25,2b
2019-07-12_150240:260,-0.398071,-0.018799,-0.30249000000000004,-0.005815,-0.00043,0.001732,-42.060001,-17.870001000000002,-36.25,2b
2019-07-12_150240:280,-0.396057,-0.017273,-0.303528,-0.005784,-0.00045999999999999996,0.001396,-42.5,-18.68,-36.25,2b
2019-07-12_150240:300,-0.396057,-0.017273,-0.303528,-0.005784,-0.000704,0.0017929999999999999,-42.5,-18.68,-36.25,2b
2019-07-12_150240:320,-0.394531,-0.017792,-0.30300900000000003,-0.005448,-0.000826,0.0019149999999999998,-42.5,-18.68,-36.25,2b
2019-07-12_150240:340,-0.396057,-0.016266,-0.302002,-0.00554,-0.0009789999999999998,0.0017629999999999998,-42.869999,-18.25,-35.869999,2b
2019-07-12_150240:360,-0.393005,-0.017792,-0.302002,-0.005784,-0.0009789999999999998,0.002373,-42.869999,-18.25,-35.869999,2b
2019-07-12_150240:380,-0.39502,-0.020325,-0.303528,-0.0056619999999999995,-0.001101,0.002434,-42.869999,-18.25,-35.869999,2b
2019-07-12_150240:400,-0.395538,-0.016753999999999998,-0.303528,-0.005784,-0.001376,0.001274,-42.5,-17.870001000000002,-35.869999,2b
2019-07-12_150240:420,-0.394531,-0.015747,-0.302002,-0.006028,-0.0016809999999999998,0.0016710000000000002,-42.5,-17.870001000000002,-35.869999,2b
2019-07-12_150240:440,-0.397064,-0.018799,-0.303528,-0.005784,-0.0017420000000000003,0.002709,-41.75,-17.870001000000002,-35.869999,2b
2019-07-12_150240:460,-0.397064,-0.01828,-0.304535,-0.005845,-0.0015890000000000001,0.002251,-41.75,-17.870001000000002,-35.869999,2b
2019-07-12_150240:480,-0.396545,-0.01828,-0.304016,-0.006181,-0.00162,0.0017629999999999998,-41.75,-17.870001000000002,-35.869999,2b
2019-07-12_150240:500,-0.39502,-0.020325,-0.304535,-0.006028,-0.001315,0.002098,-42.5,-17.870001000000002,-35.060001,2b
2019-07-12_150240:520,-0.395538,-0.019318000000000002,-0.30300900000000003,-0.006028,-0.001376,0.00161,-42.5,-17.870001000000002,-35.060001,2b
2019-07-12_150240:540,-0.396545,-0.018799,-0.304016,-0.005967,-0.0009789999999999998,0.001396,-43.25,-17.870001000000002,-36.68,2b
2019-07-12_150240:560,-0.397064,-0.019318000000000002,-0.30249000000000004,-0.005723,-0.0011619999999999998,0.0016710000000000002,-43.25,-17.870001000000002,-36.68,2b
2019-07-12_150240:580,-0.396057,-0.017273,-0.30249000000000004,-0.00554,-0.0012230000000000001,0.002037,-43.25,-17.870001000000002,-36.68,2b
2019-07-12_150240:600,-0.396057,-0.017792,-0.30249000000000004,-0.005386999999999999,-0.0012230000000000001,0.002098,-43.25,-18.68,-35.869999,2b
2019-07-12_150240:620,-0.395538,-0.016753999999999998,-0.30249000000000004,-0.0054789999999999995,-0.001315,0.0021899999999999997,-43.25,-18.68,-35.869999,2b
2019-07-12_150240:640,-0.395538,-0.016753999999999998,-0.30249000000000004,-0.005906000000000001,-0.001498,0.001854,-42.869999,-18.68,-35.5,2b
2019-07-12_150240:660,-0.396545,-0.017792,-0.301483,-0.006181,-0.001376,0.002037,-42.869999,-18.68,-35.5,2b
2019-07-12_150240:680,-0.396057,-0.019318000000000002,-0.303528,-0.006364,-0.001376,0.0021899999999999997,-42.869999,-18.68,-35.5,2b
2019-07-12_150240:700,-0.397064,-0.020325,-0.302002,-0.006547,-0.0015890000000000001,0.002037,-42.5,-18.25,-35.869999,2b
2019-07-12_150240:720,-0.396057,-0.020325,-0.30249000000000004,-0.006242,-0.0016809999999999998,0.0017929999999999999,-42.5,-18.25,-35.869999,2b
2019-07-12_150240:740,-0.396057,-0.020844,-0.30249000000000004,-0.005906000000000001,-0.001498,0.001854,-42.060001,-17.870001000000002,-35.869999,2b
2019-07-12_150240:760,-0.39502,-0.019806,-0.302002,-0.005601,-0.0016809999999999998,0.0019760000000000003,-42.060001,-17.870001000000002,-35.869999,2b
2019-07-12_150240:780,-0.396545,-0.018799,-0.304535,-0.00554,-0.00162,0.0019149999999999998,-42.060001,-17.870001000000002,-35.869999,2b
2019-07-12_150240:800,-0.39859,-0.017792,-0.304016,-0.0056619999999999995,-0.001864,0.0019760000000000003,-42.060001,-17.870001000000002,-36.25,2b
2019-07-12_150240:820,-0.40011599999999997,-0.018799,-0.304016,-0.005815,-0.0015890000000000001,0.0021899999999999997,-42.060001,-17.870001000000002,-36.25,2b
2019-07-12_150240:840,-0.397064,-0.017273,-0.305054,-0.00615,-0.001376,0.0019760000000000003,-43.25,-17.870001000000002,-36.25,2b
2019-07-12_150240:860,-0.39859,-0.019318000000000002,-0.303528,-0.006425,-0.0010400000000000001,0.002037,-43.25,-17.870001000000002,-36.25,2b
2019-07-12_150240:880,-0.394012,-0.020844,-0.302002,-0.0063030000000000004,-0.0007650000000000001,0.001152,-43.25,-17.870001000000002,-36.25,2b
2019-07-12_150240:900,-0.396545,-0.021332,-0.303528,-0.0063030000000000004,-0.000918,0.000634,-42.869999,-17.870001000000002,-35.869999,2b
2019-07-12_150240:920,-0.396545,-0.01828,-0.303528,-0.005601,-0.001437,0.000817,-42.869999,-17.870001000000002,-35.869999,2b
2019-07-12_150240:940,-0.39502,-0.01828,-0.304016,-0.0054789999999999995,-0.00162,0.0019149999999999998,-42.5,-17.18,-35.869999,2b
2019-07-12_150240:960,-0.397583,-0.017273,-0.30300900000000003,-0.005386999999999999,-0.001315,0.002709,-42.5,-17.18,-35.869999,2b
2019-07-12_150240:980,-0.397064,-0.016753999999999998,-0.303528,-0.005723,-0.000857,0.001549,-42.5,-17.18,-35.869999,2b
2019-07-12_150241:000,-0.397583,-0.015228,-0.301483,-0.00615,-0.000521,0.001274,-42.5,-18.25,-36.75,2b
2019-07-12_150241:020,-0.398071,-0.01828,-0.302002,-0.006425,-0.000521,0.0017629999999999998,-42.5,-18.25,-36.75,2b
2019-07-12_150241:040,-0.399109,-0.017792,-0.302002,-0.0065769999999999995,-0.00045999999999999996,0.0016710000000000002,-42.5,-17.870001000000002,-35.5,2b
2019-07-12_150241:060,-0.396545,-0.018799,-0.301483,-0.00615,-0.00045999999999999996,0.0016710000000000002,-42.5,-17.870001000000002,-35.5,2b
2019-07-12_150241:080,-0.39859,-0.019318000000000002,-0.300964,-0.005784,-0.000704,0.002251,-42.5,-17.870001000000002,-35.5,2b
2019-07-12_150241:100,-0.397583,-0.018799,-0.303528,-0.005448,-0.0007650000000000001,0.002037,-42.869999,-18.25,-35.869999,2b
2019-07-12_150241:120,-0.399109,-0.016266,-0.301483,-0.005448,-0.0007650000000000001,0.0019149999999999998,-42.869999,-18.25,-35.869999,2b
2019-07-12_150241:140,-0.395538,-0.016266,-0.301483,-0.005448,-0.0007650000000000001,0.00277,-42.060001,-18.25,-34.369999,2b
2019-07-12_150241:160,-0.397583,-0.01828,-0.29895,-0.00554,-0.000826,0.0021899999999999997,-42.060001,-18.25,-34.369999,2b
2019-07-12_150241:180,-0.398071,-0.016753999999999998,-0.30249000000000004,-0.005815,-0.001101,0.0014269999999999999,-42.060001,-18.25,-34.369999,2b
2019-07-12_150241:200,-0.39859,-0.01828,-0.300964,-0.005967,-0.0010400000000000001,0.0021899999999999997,-42.5,-18.25,-36.25,2b
2019-07-12_150241:220,-0.398071,-0.019806,-0.29995700000000003,-0.005845,-0.000918,0.002495,-42.5,-18.25,-36.25,2b
2019-07-12_150241:240,-0.399109,-0.017792,-0.300476,-0.006089,-0.0007650000000000001,0.001854,-42.869999,-18.25,-36.68,2b
2019-07-12_150241:260,-0.397583,-0.017792,-0.29943800000000004,-0.006089,-0.000704,0.0019760000000000003,-42.869999,-18.25,-36.68,2b
2019-07-12_150241:280,-0.398071,-0.020325,-0.300476,-0.006089,-0.000643,0.002373,-42.869999,-18.25,-36.68,2b
2019-07-12_150241:300,-0.40011599999999997,-0.019806,-0.29943800000000004,-0.0063030000000000004,-0.000826,0.002037,-42.5,-18.25,-35.869999,2b
2019-07-12_150241:320,-0.40011599999999997,-0.019318000000000002,-0.29995700000000003,-0.00615,-0.0009789999999999998,0.0017929999999999999,-42.5,-18.25,-35.869999,2b
2019-07-12_150241:340,-0.39859,-0.020325,-0.29995700000000003,-0.005845,-0.000704,0.0019760000000000003,-43.25,-18.25,-35.869999,2b
2019-07-12_150241:360,-0.397064,-0.019806,-0.296906,-0.005784,-0.000857,0.0019149999999999998,-43.25,-18.25,-35.869999,2b
2019-07-12_150241:380,-0.397064,-0.020325,-0.298431,-0.00554,-0.0009789999999999998,0.0023120000000000003,-43.25,-18.25,-35.869999,2b
2019-07-12_150241:400,-0.397583,-0.019318000000000002,-0.297913,-0.005784,-0.001254,0.002129,-43.560001,-18.25,-34.75,2b
2019-07-12_150241:420,-0.399109,-0.018799,-0.29995700000000003,-0.005784,-0.001437,0.001732,-43.560001,-18.25,-34.75,2b
2019-07-12_150241:440,-0.399109,-0.019318000000000002,-0.297913,-0.006028,-0.001315,0.0014269999999999999,-42.060001,-17.870001000000002,-35.869999,2b
2019-07-12_150241:460,-0.399597,-0.019318000000000002,-0.29895,-0.006028,-0.001498,0.0017629999999999998,-42.060001,-17.870001000000002,-35.869999,2b
2019-07-12_150241:480,-0.401642,-0.019806,-0.298431,-0.00615,-0.00162,0.001732,-42.060001,-17.870001000000002,-35.869999,2b
2019-07-12_150241:500,-0.398071,-0.020844,-0.298431,-0.006242,-0.0017420000000000003,0.001396,-42.5,-18.68,-35.560001,2b
2019-07-12_150241:520,-0.399109,-0.018799,-0.29895,-0.005815,-0.001437,0.001335,-42.5,-18.68,-35.560001,2b
2019-07-12_150241:540,-0.396545,-0.01828,-0.29895,-0.005723,-0.00162,0.0016710000000000002,-42.869999,-17.5,-35.060001,2b
2019-07-12_150241:560,-0.397583,-0.018799,-0.298431,-0.005784,-0.0017420000000000003,0.0017629999999999998,-42.869999,-17.5,-35.060001,2b
2019-07-12_150241:580,-0.40063499999999996,-0.017792,-0.300964,-0.005815,-0.002139,0.001732,-42.869999,-17.5,-35.060001,2b
2019-07-12_150241:600,-0.402649,-0.019806,-0.29995700000000003,-0.005845,-0.002016,0.0017929999999999999,-42.5,-18.68,-35.560001,2b
2019-07-12_150241:620,-0.399109,-0.01828,-0.29943800000000004,-0.006028,-0.0015890000000000001,0.0016710000000000002,-42.5,-18.68,-35.560001,2b
2019-07-12_150241:640,-0.399109,-0.017792,-0.300476,-0.006089,-0.001498,0.0017929999999999999,-42.869999,-18.68,-36.25,2b
2019-07-12_150241:660,-0.396545,-0.01828,-0.29742399999999997,-0.0063030000000000004,-0.001376,0.0017929999999999999,-42.869999,-18.68,-36.25,2b
2019-07-12_150241:680,-0.397064,-0.020844,-0.301483,-0.006486,-0.0015890000000000001,0.001335,-42.869999,-18.68,-36.25,2b
2019-07-12_150241:700,-0.39859,-0.019318000000000002,-0.300476,-0.006486,-0.0017420000000000003,0.0009390000000000001,-42.5,-18.25,-35.869999,2b
2019-07-12_150241:720,-0.399597,-0.01828,-0.300476,-0.006181,-0.001955,0.001549,-42.5,-18.25,-35.869999,2b
2019-07-12_150241:740,-0.40011599999999997,-0.019318000000000002,-0.29995700000000003,-0.005815,-0.0017420000000000003,0.002587,-43.560001,-17.870001000000002,-36.75,2b
2019-07-12_150241:760,-0.40063499999999996,-0.018799,-0.29995700000000003,-0.005601,-0.001437,0.002129,-43.560001,-17.870001000000002,-36.75,2b
2019-07-12_150241:780,-0.397583,-0.016753999999999998,-0.296906,-0.005967,-0.000918,0.000878,-43.560001,-17.870001000000002,-36.75,2b
2019-07-12_150241:800,-0.398071,-0.016753999999999998,-0.29943800000000004,-0.00615,-0.000826,0.001396,-43.25,-18.25,-36.25,2b
2019-07-12_150241:820,-0.399597,-0.017792,-0.298431,-0.006181,-0.001315,0.001732,-43.25,-18.25,-36.25,2b
2019-07-12_150241:840,-0.40063499999999996,-0.017273,-0.29943800000000004,-0.006425,-0.001376,0.0014880000000000002,-42.869999,-17.870001000000002,-35.869999,2b
2019-07-12_150241:860,-0.399109,-0.01828,-0.296906,-0.0065769999999999995,-0.001437,0.00161,-42.869999,-17.870001000000002,-35.869999,2b
2019-07-12_150241:880,-0.40011599999999997,-0.020325,-0.29895,-0.006486,-0.00162,0.0019149999999999998,-42.869999,-17.870001000000002,-35.869999,2b
2019-07-12_150241:900,-0.40063499999999996,-0.017792,-0.29742399999999997,-0.006242,-0.001925,0.00161,-42.869999,-17.870001000000002,-35.869999,2b
2019-07-12_150241:920,-0.396545,-0.016266,-0.29742399999999997,-0.00615,-0.002078,0.0019149999999999998,-42.869999,-17.870001000000002,-35.869999,2b
2019-07-12_150241:940,-0.396545,-0.019806,-0.29895,-0.005784,-0.0022,0.0014880000000000002,-43.25,-18.25,-35.060001,2b
2019-07-12_150241:960,-0.398071,-0.017273,-0.29895,-0.005723,-0.002322,0.0007559999999999999,-43.25,-18.25,-35.060001,2b
2019-07-12_150241:980,-0.399109,-0.015747,-0.300964,-0.0056619999999999995,-0.0024739999999999996,0.0016710000000000002,-43.25,-18.25,-35.060001,2b
2019-07-12_150242:000,-0.40011599999999997,-0.01828,-0.302002,-0.005448,-0.0024739999999999996,0.002098,-42.060001,-18.68,-35.060001,2b
2019-07-12_150242:020,-0.40063499999999996,-0.015228,-0.301483,-0.005815,-0.002261,0.0014880000000000002,-42.060001,-18.68,-35.060001,2b
2019-07-12_150242:040,-0.399597,-0.014740000000000001,-0.302002,-0.0063030000000000004,-0.0022,0.001549,-42.060001,-17.5,-34.75,2b
2019-07-12_150242:060,-0.40011599999999997,-0.016753999999999998,-0.300476,-0.006425,-0.0017420000000000003,0.0019149999999999998,-42.060001,-17.5,-34.75,2b
2019-07-12_150242:080,-0.399109,-0.01828,-0.302002,-0.0067,-0.00162,0.001549,-42.060001,-17.5,-34.75,2b
2019-07-12_150242:100,-0.399109,-0.017792,-0.301483,-0.006486,-0.0016809999999999998,0.0014269999999999999,-42.869999,-18.25,-35.560001,2b
2019-07-12_150242:120,-0.399109,-0.01828,-0.29943800000000004,-0.006089,-0.001559,0.0017929999999999999,-42.869999,-18.25,-35.560001,2b
2019-07-12_150242:140,-0.398071,-0.016753999999999998,-0.29995700000000003,-0.005784,-0.00162,0.0017929999999999999,-42.869999,-18.25,-35.060001,2b
2019-07-12_150242:160,-0.399109,-0.015747,-0.29995700000000003,-0.0054789999999999995,-0.001559,0.002129,-42.869999,-18.25,-35.060001,2b
2019-07-12_150242:180,-0.39859,-0.017792,-0.29995700000000003,-0.0054789999999999995,-0.00162,0.002373,-42.869999,-18.25,-35.060001,2b
2019-07-12_150242:200,-0.399109,-0.016266,-0.301483,-0.005906000000000001,-0.001559,0.002037,-42.869999,-18.68,-35.060001,2b
2019-07-12_150242:220,-0.397583,-0.016266,-0.300476,-0.006089,-0.00162,0.001854,-42.869999,-18.68,-35.060001,2b
2019-07-12_150242:240,-0.397064,-0.015747,-0.300476,-0.006089,-0.0016809999999999998,0.0019149999999999998,-42.5,-18.68,-35.869999,2b
2019-07-12_150242:260,-0.39859,-0.017792,-0.29943800000000004,-0.006242,-0.0016809999999999998,0.0019149999999999998,-42.5,-18.68,-35.869999,2b
2019-07-12_150242:280,-0.397583,-0.017273,-0.29995700000000003,-0.005967,-0.001864,0.002129,-42.5,-18.68,-35.869999,2b
2019-07-12_150242:300,-0.399597,-0.017792,-0.300476,-0.005845,-0.001955,0.002129,-43.560001,-17.870001000000002,-35.060001,2b
2019-07-12_150242:320,-0.399109,-0.019318000000000002,-0.29943800000000004,-0.005601,-0.002139,0.001854,-43.560001,-17.870001000000002,-35.060001,2b
2019-07-12_150242:340,-0.401642,-0.01828,-0.300476,-0.005448,-0.0016809999999999998,0.0014880000000000002,-42.869999,-18.25,-36.75,2b
2019-07-12_150242:360,-0.397583,-0.015747,-0.297913,-0.00554,-0.0015890000000000001,0.0019760000000000003,-42.869999,-18.25,-36.75,2b
2019-07-12_150242:380,-0.39859,-0.016266,-0.29995700000000003,-0.005723,-0.0016809999999999998,0.0023120000000000003,-42.869999,-18.25,-36.75,2b
2019-07-12_150242:400,-0.394012,-0.015747,-0.29995700000000003,-0.006181,-0.0018030000000000001,0.002129,-42.869999,-18.68,-35.869999,2b
2019-07-12_150242:420,-0.397583,-0.017792,-0.302002,-0.006364,-0.0025960000000000002,0.001732,-42.869999,-18.68,-35.869999,2b
2019-07-12_150242:440,-0.39859,-0.017273,-0.30249000000000004,-0.006425,-0.002718,0.002098,-42.060001,-17.870001000000002,-35.869999,2b
2019-07-12_150242:460,-0.40063499999999996,-0.019318000000000002,-0.302002,-0.006242,-0.002322,0.003258,-42.060001,-17.870001000000002,-35.869999,2b
2019-07-12_150242:480,-0.40011599999999997,-0.019318000000000002,-0.30249000000000004,-0.006089,-0.0017420000000000003,0.00277,-42.060001,-17.870001000000002,-35.869999,2b
2019-07-12_150242:500,-0.39859,-0.019318000000000002,-0.302002,-0.006181,-0.001254,0.001335,-43.25,-18.25,-35.560001,2b
2019-07-12_150242:520,-0.397583,-0.019806,-0.300476,-0.006028,-0.001101,0.00161,-43.25,-18.25,-35.560001,2b
2019-07-12_150242:540,-0.39859,-0.020325,-0.302002,-0.00554,-0.001315,0.001854,-43.25,-18.25,-35.5,2b
2019-07-12_150242:560,-0.399597,-0.019806,-0.300476,-0.005448,-0.001254,0.001396,-43.25,-18.25,-35.5,2b
2019-07-12_150242:580,-0.399109,-0.016266,-0.301483,-0.005265,-0.001315,0.00161,-43.25,-18.25,-35.5,2b
2019-07-12_150242:600,-0.39859,-0.018799,-0.300476,-0.005052,-0.00162,0.0019149999999999998,-42.5,-17.870001000000002,-36.75,2b
2019-07-12_150242:620,-0.398071,-0.016266,-0.300964,-0.005448,-0.00162,0.001732,-42.5,-17.870001000000002,-36.75,2b
2019-07-12_150242:640,-0.397583,-0.014221000000000001,-0.301483,-0.005845,-0.0016809999999999998,0.0019760000000000003,-43.25,-17.870001000000002,-34.75,2b
2019-07-12_150242:660,-0.396545,-0.019318000000000002,-0.300476,-0.005967,-0.00162,0.001732,-43.25,-17.870001000000002,-34.75,2b
2019-07-12_150242:680,-0.399597,-0.01828,-0.30300900000000003,-0.00615,-0.001559,0.001335,-43.25,-17.870001000000002,-34.75,2b
2019-07-12_150242:700,-0.398071,-0.016753999999999998,-0.302002,-0.006089,-0.001559,0.001854,-41.369999,-18.25,-35.869999,2b
2019-07-12_150242:720,-0.398071,-0.019318000000000002,-0.301483,-0.005906000000000001,-0.0012230000000000001,0.002251,-41.369999,-18.25,-35.869999,2b
2019-07-12_150242:740,-0.398071,-0.019318000000000002,-0.302002,-0.005723,-0.001315,0.0017629999999999998,-43.25,-18.68,-35.869999,2b
2019-07-12_150242:760,-0.399109,-0.01828,-0.302002,-0.005784,-0.0010400000000000001,0.0014269999999999999,-43.25,-18.68,-35.869999,2b
2019-07-12_150242:780,-0.399109,-0.020325,-0.30249000000000004,-0.00554,-0.000857,0.0014269999999999999,-43.25,-18.68,-35.869999,2b
2019-07-12_150242:800,-0.399109,-0.020325,-0.301483,-0.005204,-0.000643,0.001152,-44.0,-17.870001000000002,-37.5,2b
2019-07-12_150242:820,-0.39859,-0.01828,-0.300476,-0.005265,-0.000643,0.0009390000000000001,-44.0,-17.870001000000002,-37.5,2b
2019-07-12_150242:840,-0.39859,-0.017273,-0.300476,-0.005326,-0.000582,0.001335,-42.869999,-18.68,-36.68,2b
2019-07-12_150242:860,-0.39859,-0.015747,-0.29742399999999997,-0.005265,-0.000857,0.001274,-42.869999,-18.68,-36.68,2b
2019-07-12_150242:880,-0.399109,-0.015747,-0.29895,-0.005448,-0.000918,0.001732,-42.869999,-18.68,-36.68,2b
2019-07-12_150242:900,-0.39859,-0.016266,-0.298431,-0.005723,-0.001101,0.0023120000000000003,-42.5,-19.370001000000002,-36.25,2b
2019-07-12_150242:920,-0.397064,-0.015747,-0.296906,-0.005845,-0.001101,0.0017929999999999999,-42.5,-19.370001000000002,-36.25,2b
2019-07-12_150242:940,-0.396545,-0.015747,-0.296906,-0.00615,-0.001559,0.0017629999999999998,-42.869999,-17.870001000000002,-35.560001,2b
2019-07-12_150242:960,-0.397583,-0.017273,-0.296387,-0.006242,-0.001864,0.0021899999999999997,-42.869999,-17.870001000000002,-35.560001,2b
2019-07-12_150242:980,-0.40011599999999997,-0.019318000000000002,-0.300476,-0.006089,-0.001955,0.0019149999999999998,-42.869999,-17.870001000000002,-35.560001,2b
2019-07-12_150243:000,-0.399109,-0.019318000000000002,-0.298431,-0.006028,-0.002139,0.0017929999999999999,-42.869999,-17.5,-35.060001,2b
2019-07-12_150243:020,-0.401642,-0.019806,-0.298431,-0.005723,-0.001864,0.0019149999999999998,-42.869999,-17.5,-35.060001,2b
2019-07-12_150243:040,-0.399109,-0.017792,-0.29995700000000003,-0.005601,-0.0018030000000000001,0.001732,-43.25,-18.25,-35.869999,2b
2019-07-12_150243:060,-0.399597,-0.017792,-0.29943800000000004,-0.005601,-0.001925,0.0017929999999999999,-43.25,-18.25,-35.869999,2b
2019-07-12_150243:080,-0.394531,-0.01828,-0.29943800000000004,-0.005784,-0.001864,0.00161,-43.25,-18.25,-35.869999,2b
2019-07-12_150243:100,-0.397583,-0.017792,-0.29895,-0.005906000000000001,-0.001955,0.00103,-42.060001,-18.25,-36.25,2b
2019-07-12_150243:120,-0.399597,-0.017273,-0.30249000000000004,-0.006028,-0.0024129999999999998,0.0007559999999999999,-42.060001,-18.25,-36.25,2b
2019-07-12_150243:140,-0.399597,-0.015747,-0.30300900000000003,-0.006181,-0.002352,0.0014880000000000002,-42.869999,-18.25,-35.560001,2b
2019-07-12_150243:160,-0.399109,-0.017273,-0.301483,-0.006089,-0.002078,0.002495,-42.869999,-18.25,-35.560001,2b
2019-07-12_150243:180,-0.399597,-0.020325,-0.302002,-0.006028,-0.0018030000000000001,0.002037,-42.869999,-18.25,-35.560001,2b
2019-07-12_150243:200,-0.399109,-0.018799,-0.29995700000000003,-0.006181,-0.001376,0.000695,-42.869999,-18.68,-35.5,2b
2019-07-12_150243:220,-0.397583,-0.018799,-0.300964,-0.005967,-0.0011619999999999998,0.0007559999999999999,-42.869999,-18.68,-35.5,2b
2019-07-12_150243:240,-0.401123,-0.017273,-0.29995700000000003,-0.005723,-0.0010400000000000001,0.000878,-42.060001,-19.0,-35.869999,2b
2019-07-12_150243:260,-0.399597,-0.017792,-0.297913,-0.005386999999999999,-0.001254,0.000695,-42.060001,-19.0,-35.869999,2b
2019-07-12_150243:280,-0.398071,-0.016753999999999998,-0.29995700000000003,-0.005326,-0.0012230000000000001,0.001274,-42.060001,-19.0,-35.869999,2b
2019-07-12_150243:300,-0.398071,-0.015747,-0.29995700000000003,-0.005204,-0.001559,0.001396,-42.869999,-17.870001000000002,-34.75,2b
2019-07-12_150243:320,-0.399597,-0.013702,-0.29943800000000004,-0.005448,-0.0018030000000000001,0.001274,-42.869999,-17.870001000000002,-34.75,2b
2019-07-12_150243:340,-0.397583,-0.012695,-0.29895,-0.005815,-0.001864,0.0019149999999999998,-43.560001,-18.25,-35.560001,2b
2019-07-12_150243:360,-0.396545,-0.016266,-0.300476,-0.006181,-0.002139,0.0017629999999999998,-43.560001,-18.25,-35.560001,2b
2019-07-12_150243:380,-0.39859,-0.015228,-0.301483,-0.006364,-0.0018030000000000001,0.0007559999999999999,-43.560001,-18.25,-35.560001,2b
2019-07-12_150243:400,-0.397583,-0.016753999999999998,-0.300476,-0.006181,-0.002078,0.001549,-42.869999,-18.68,-36.25,2b
2019-07-12_150243:420,-0.399597,-0.017273,-0.302002,-0.005967,-0.001925,0.002495,-42.869999,-18.68,-36.25,2b
2019-07-12_150243:440,-0.399597,-0.017273,-0.302002,-0.005845,-0.001864,0.002037,-42.869999,-18.68,-35.869999,2b
2019-07-12_150243:460,-0.397583,-0.015228,-0.301483,-0.005815,-0.0017420000000000003,0.001732,-42.869999,-18.68,-35.869999,2b
2019-07-12_150243:480,-0.399109,-0.015747,-0.300476,-0.0056619999999999995,-0.00162,0.0019149999999999998,-42.869999,-18.68,-35.869999,2b
2019-07-12_150243:500,-0.399109,-0.016753999999999998,-0.302002,-0.005784,-0.001437,0.0016710000000000002,-42.5,-17.870001000000002,-35.869999,2b
2019-07-12_150243:520,-0.399597,-0.017273,-0.300964,-0.005967,-0.001498,0.0014880000000000002,-42.5,-17.870001000000002,-35.869999,2b
2019-07-12_150243:540,-0.398071,-0.016266,-0.300964,-0.005967,-0.0011619999999999998,0.001732,-42.869999,-17.870001000000002,-34.75,2b
2019-07-12_150243:560,-0.398071,-0.016266,-0.29943800000000004,-0.005906000000000001,-0.001315,0.002037,-42.869999,-17.870001000000002,-34.75,2b
2019-07-12_150243:580,-0.398071,-0.016753999999999998,-0.300476,-0.005784,-0.0011619999999999998,0.0021899999999999997,-42.869999,-17.870001000000002,-34.75,2b
2019-07-12_150243:600,-0.398071,-0.016266,-0.29895,-0.005601,-0.001498,0.0021899999999999997,-43.560001,-18.25,-35.869999,2b
2019-07-12_150243:620,-0.399597,-0.014740000000000001,-0.29895,-0.005784,-0.001376,0.0019760000000000003,-43.560001,-18.25,-35.869999,2b
2019-07-12_150243:640,-0.396545,-0.016266,-0.29995700000000003,-0.005845,-0.001437,0.0019149999999999998,-42.869999,-18.25,-35.869999,2b
2019-07-12_150243:660,-0.397064,-0.016753999999999998,-0.29895,-0.005967,-0.0016809999999999998,0.002037,-42.869999,-18.25,-35.869999,2b
2019-07-12_150243:680,-0.40063499999999996,-0.017792,-0.300476,-0.005967,-0.0016809999999999998,0.0017929999999999999,-42.869999,-18.25,-35.869999,2b
2019-07-12_150243:700,-0.40063499999999996,-0.019318000000000002,-0.29995700000000003,-0.005815,-0.001864,0.00161,-42.869999,-18.25,-35.060001,2b
2019-07-12_150243:720,-0.402161,-0.016753999999999998,-0.29943800000000004,-0.00554,-0.001437,0.0019149999999999998,-42.869999,-18.25,-35.060001,2b
2019-07-12_150243:740,-0.397583,-0.016266,-0.300476,-0.005448,-0.001559,0.0019760000000000003,-43.25,-17.870001000000002,-35.869999,2b
2019-07-12_150243:760,-0.399597,-0.016266,-0.29895,-0.005601,-0.001376,0.0019760000000000003,-43.25,-17.870001000000002,-35.869999,2b
2019-07-12_150243:780,-0.396057,-0.016266,-0.29995700000000003,-0.006089,-0.0012230000000000001,0.0017629999999999998,-43.25,-17.870001000000002,-35.869999,2b
2019-07-12_150243:800,-0.397583,-0.017792,-0.30249000000000004,-0.0063030000000000004,-0.00162,0.001335,-42.869999,-17.5,-35.560001,2b
2019-07-12_150243:820,-0.399109,-0.01828,-0.301483,-0.00615,-0.002078,0.001274,-42.869999,-17.5,-35.560001,2b
2019-07-12_150243:840,-0.397583,-0.016266,-0.300964,-0.005967,-0.0022,0.002129,-42.869999,-18.68,-35.060001,2b
2019-07-12_150243:860,-0.399597,-0.01828,-0.301483,-0.005784,-0.001955,0.0030440000000000003,-42.869999,-18.68,-35.060001,2b
2019-07-12_150243:880,-0.399597,-0.016753999999999998,-0.300476,-0.005815,-0.001437,0.0019760000000000003,-42.869999,-18.68,-35.060001,2b
2019-07-12_150243:900,-0.398071,-0.016753999999999998,-0.300964,-0.005967,-0.0009789999999999998,0.001213,-44.0,-17.870001000000002,-35.060001,2b
2019-07-12_150243:920,-0.399597,-0.017792,-0.29995700000000003,-0.005845,-0.000643,0.0014269999999999999,-44.0,-17.870001000000002,-35.060001,2b
2019-07-12_150243:940,-0.399597,-0.017273,-0.29943800000000004,-0.005815,-0.0009789999999999998,0.0014269999999999999,-42.869999,-17.870001000000002,-35.060001,2b
2019-07-12_150243:960,-0.39859,-0.017273,-0.296387,-0.005723,-0.001101,0.0016710000000000002,-42.869999,-17.870001000000002,-35.060001,2b
2019-07-12_150243:980,-0.399109,-0.017273,-0.297913,-0.00554,-0.001498,0.0019760000000000003,-42.869999,-17.870001000000002,-35.060001,2b
2019-07-12_150244:000,-0.398071,-0.017273,-0.29895,-0.005448,-0.0017420000000000003,0.0017629999999999998,-42.060001,-18.25,-36.68,2b
2019-07-12_150244:020,-0.401642,-0.015228,-0.296387,-0.0056619999999999995,-0.001955,0.0017929999999999999,-42.060001,-18.25,-36.68,2b
2019-07-12_150244:040,-0.396545,-0.015747,-0.297913,-0.005815,-0.0017420000000000003,0.002373,-43.560001,-17.870001000000002,-35.869999,2b
2019-07-12_150244:060,-0.396057,-0.018799,-0.298431,-0.006028,-0.001925,0.001732,-43.560001,-17.870001000000002,-35.869999,2b
2019-07-12_150244:080,-0.398071,-0.015747,-0.300964,-0.00615,-0.002322,0.000817,-43.560001,-17.870001000000002,-35.869999,2b
2019-07-12_150244:100,-0.399109,-0.015747,-0.300476,-0.005906000000000001,-0.002322,0.0019760000000000003,-42.5,-18.25,-36.25,2b
2019-07-12_150244:120,-0.40011599999999997,-0.01828,-0.300964,-0.005784,-0.0024739999999999996,0.002709,-42.5,-18.25,-36.25,2b
2019-07-12_150244:140,-0.40011599999999997,-0.015747,-0.302002,-0.005845,-0.002322,0.0017929999999999999,-42.869999,-18.25,-35.869999,2b
2019-07-12_150244:160,-0.39859,-0.016266,-0.300476,-0.006028,-0.002078,0.001732,-42.869999,-18.25,-35.869999,2b
2019-07-12_150244:180,-0.399597,-0.018799,-0.301483,-0.006089,-0.001864,0.002098,-42.869999,-18.25,-35.869999,2b
2019-07-12_150244:200,-0.399109,-0.01828,-0.302002,-0.00615,-0.001376,0.0016710000000000002,-42.060001,-18.68,-35.869999,2b
2019-07-12_150244:220,-0.398071,-0.01828,-0.300476,-0.005967,-0.001376,0.001549,-42.060001,-18.68,-35.869999,2b
2019-07-12_150244:240,-0.39859,-0.017792,-0.300476,-0.0056619999999999995,-0.001315,0.001854,-42.5,-19.0,-35.869999,2b
2019-07-12_150244:260,-0.397583,-0.016753999999999998,-0.29943800000000004,-0.0054789999999999995,-0.001315,0.002129,-42.5,-19.0,-35.869999,2b
2019-07-12_150244:280,-0.39859,-0.015747,-0.29943800000000004,-0.005448,-0.0012230000000000001,0.0021899999999999997,-42.5,-19.0,-35.869999,2b
2019-07-12_150244:300,-0.399597,-0.016266,-0.29995700000000003,-0.0054789999999999995,-0.001498,0.0021899999999999997,-42.869999,-19.0,-35.869999,2b
2019-07-12_150244:320,-0.39859,-0.017273,-0.298431,-0.005845,-0.001254,0.0017929999999999999,-42.869999,-19.0,-35.869999,2b
2019-07-12_150244:340,-0.398071,-0.016266,-0.297913,-0.006364,-0.001498,0.001854,-43.25,-18.68,-35.560001,2b
2019-07-12_150244:360,-0.397064,-0.01828,-0.298431,-0.0063030000000000004,-0.001559,0.002037,-43.25,-18.68,-35.560001,2b
2019-07-12_150244:380,-0.397583,-0.019318000000000002,-0.29943800000000004,-0.006242,-0.00162,0.0019760000000000003,-43.25,-18.68,-35.560001,2b
2019-07-12_150244:400,-0.40011599999999997,-0.019318000000000002,-0.29995700000000003,-0.005906000000000001,-0.001864,0.0017929999999999999,-42.060001,-18.25,-35.560001,2b
2019-07-12_150244:420,-0.401123,-0.018799,-0.29943800000000004,-0.005723,-0.001925,0.0019760000000000003,-42.060001,-18.25,-35.560001,2b
2019-07-12_150244:440,-0.402649,-0.016753999999999998,-0.300964,-0.005448,-0.00162,0.002129,-43.25,-18.25,-35.869999,2b
2019-07-12_150244:460,-0.39859,-0.017792,-0.29943800000000004,-0.0054789999999999995,-0.001498,0.002129,-43.25,-18.25,-35.869999,2b
2019-07-12_150244:480,-0.398071,-0.01828,-0.29895,-0.0056619999999999995,-0.0015890000000000001,0.002037,-43.25,-18.25,-35.869999,2b
2019-07-12_150244:500,-0.395538,-0.016266,-0.298431,-0.006089,-0.001315,0.001549,-42.5,-18.25,-35.560001,2b
2019-07-12_150244:520,-0.397064,-0.019318000000000002,-0.300964,-0.006181,-0.0017420000000000003,0.001274,-42.5,-18.25,-35.560001,2b
2019-07-12_150244:540,-0.39859,-0.01828,-0.30249000000000004,-0.006089,-0.002322,0.001274,-42.060001,-18.25,-35.5,2b
2019-07-12_150244:560,-0.39859,-0.016753999999999998,-0.300964,-0.006089,-0.0022,0.002098,-42.060001,-18.25,-35.5,2b
2019-07-12_150244:580,-0.40063499999999996,-0.01828,-0.301483,-0.0056619999999999995,-0.001955,0.002983,-42.060001,-18.25,-35.5,2b
2019-07-12_150244:600,-0.399109,-0.017792,-0.302002,-0.005845,-0.0015890000000000001,0.001854,-43.25,-18.25,-35.560001,2b
2019-07-12_150244:620,-0.397583,-0.016266,-0.300476,-0.006242,-0.0011619999999999998,0.00103,-43.25,-18.25,-35.560001,2b
2019-07-12_150244:640,-0.399597,-0.018799,-0.300476,-0.006181,-0.001254,0.001549,-42.869999,-18.68,-35.869999,2b
2019-07-12_150244:660,-0.399597,-0.017273,-0.297913,-0.006028,-0.0012230000000000001,0.0014269999999999999,-42.869999,-18.68,-35.869999,2b
2019-07-12_150244:680,-0.39859,-0.016753999999999998,-0.29742399999999997,-0.005815,-0.001437,0.001396,-42.869999,-18.68,-35.869999,2b
2019-07-12_150244:700,-0.39859,-0.01828,-0.29895,-0.005601,-0.0015890000000000001,0.001854,-42.060001,-18.25,-35.869999,2b
2019-07-12_150244:720,-0.397064,-0.015228,-0.29943800000000004,-0.005386999999999999,-0.001864,0.001732,-42.060001,-18.25,-35.869999,2b
2019-07-12_150244:740,-0.398071,-0.014221000000000001,-0.29895,-0.005601,-0.002078,0.0017929999999999999,-42.5,-18.25,-35.869999,2b
2019-07-12_150244:760,-0.397064,-0.015747,-0.298431,-0.005906000000000001,-0.001955,0.002526,-42.5,-18.25,-35.869999,2b
2019-07-12_150244:780,-0.397064,-0.016753999999999998,-0.300964,-0.006089,-0.002261,0.0017929999999999999,-42.5,-18.25,-35.869999,2b
2019-07-12_150244:800,-0.398071,-0.016266,-0.302002,-0.006364,-0.002352,0.000878,-42.869999,-18.25,-35.560001,2b
2019-07-12_150244:820,-0.399597,-0.01828,-0.302002,-0.00615,-0.002657,0.0023120000000000003,-42.869999,-18.25,-35.560001,2b
2019-07-12_150244:840,-0.399597,-0.01828,-0.302002,-0.005845,-0.0024129999999999998,0.0030440000000000003,-43.25,-18.25,-35.869999,2b
2019-07-12_150244:860,-0.399597,-0.01828,-0.300476,-0.005906000000000001,-0.0018030000000000001,0.0019149999999999998,-43.25,-18.25,-35.869999,2b
2019-07-12_150244:880,-0.399597,-0.017273,-0.303528,-0.005906000000000001,-0.0016809999999999998,0.00161,-43.25,-18.25,-35.869999,2b
2019-07-12_150244:900,-0.40011599999999997,-0.01828,-0.302002,-0.005967,-0.00162,0.0019760000000000003,-43.560001,-17.870001000000002,-35.869999,2b
2019-07-12_150244:920,-0.399109,-0.01828,-0.301483,-0.006028,-0.001559,0.0017929999999999999,-43.560001,-17.870001000000002,-35.869999,2b
2019-07-12_150244:940,-0.399109,-0.01828,-0.300964,-0.005906000000000001,-0.0012230000000000001,0.001549,-43.25,-17.5,-35.060001,2b
2019-07-12_150244:960,-0.399597,-0.017273,-0.29995700000000003,-0.005784,-0.001376,0.0017929999999999999,-43.25,-17.5,-35.060001,2b
2019-07-12_150244:980,-0.397064,-0.016753999999999998,-0.300964,-0.0056619999999999995,-0.0015890000000000001,0.0019149999999999998,-43.25,-17.5,-35.060001,2b
2019-07-12_150245:000,-0.398071,-0.015747,-0.29943800000000004,-0.005784,-0.001254,0.0021899999999999997,-41.75,-17.5,-35.560001,2b
2019-07-12_150245:020,-0.39859,-0.016266,-0.300476,-0.005784,-0.001376,0.002434,-41.75,-17.5,-35.560001,2b
2019-07-12_150245:040,-0.398071,-0.017792,-0.29742399999999997,-0.005845,-0.001315,0.0021899999999999997,-42.869999,-18.25,-35.869999,2b
2019-07-12_150245:060,-0.397064,-0.016753999999999998,-0.29995700000000003,-0.00615,-0.0016809999999999998,0.0019149999999999998,-42.869999,-18.25,-35.869999,2b
2019-07-12_150245:080,-0.397064,-0.017792,-0.29895,-0.005967,-0.0016809999999999998,0.002129,-42.869999,-18.25,-35.869999,2b
2019-07-12_150245:100,-0.396545,-0.017792,-0.29995700000000003,-0.00615,-0.001925,0.002098,-42.5,-18.68,-35.560001,2b
2019-07-12_150245:120,-0.398071,-0.01828,-0.29895,-0.005815,-0.002322,0.002098,-42.5,-18.68,-35.560001,2b
2019-07-12_150245:140,-0.399109,-0.017792,-0.300964,-0.0056619999999999995,-0.002139,0.0021899999999999997,-42.869999,-18.68,-35.869999,2b
2019-07-12_150245:160,-0.397064,-0.01828,-0.29943800000000004,-0.005448,-0.002139,0.002251,-42.869999,-18.68,-35.869999,2b
2019-07-12_150245:180,-0.397583,-0.017792,-0.29943800000000004,-0.005601,-0.0022,0.002251,-42.869999,-18.68,-35.869999,2b
2019-07-12_150245:200,-0.397064,-0.017273,-0.302002,-0.005815,-0.002535,0.0023120000000000003,-43.25,-18.68,-35.5,2b
2019-07-12_150245:220,-0.397583,-0.016266,-0.300476,-0.005906000000000001,-0.0024129999999999998,0.002587,-43.25,-18.68,-35.5,2b
2019-07-12_150245:240,-0.40063499999999996,-0.019318000000000002,-0.302002,-0.005815,-0.002261,0.002587,-42.5,-18.68,-35.869999,2b
2019-07-12_150245:260,-0.402649,-0.018799,-0.30300900000000003,-0.006028,-0.0018030000000000001,0.002495,-42.5,-18.68,-35.869999,2b
2019-07-12_150245:280,-0.397064,-0.01828,-0.302002,-0.006028,-0.0015890000000000001,0.00277,-42.5,-18.68,-35.869999,2b
2019-07-12_150245:300,-0.399109,-0.01828,-0.301483,-0.0063030000000000004,-0.00162,0.002648,-42.869999,-17.870001000000002,-36.25,2b
2019-07-12_150245:320,-0.394531,-0.021851,-0.29895,-0.006364,-0.0015890000000000001,0.002129,-42.869999,-17.870001000000002,-36.25,2b
2019-07-12_150245:340,-0.394531,-0.021851,-0.30249000000000004,-0.006089,-0.0024739999999999996,0.0016710000000000002,-42.869999,-18.25,-35.869999,2b
2019-07-12_150245:360,-0.396057,-0.020844,-0.303528,-0.005967,-0.0025960000000000002,0.002251,-42.869999,-18.25,-35.869999,2b
2019-07-12_150245:380,-0.399109,-0.018799,-0.30300900000000003,-0.005815,-0.002261,0.003258,-42.869999,-18.25,-35.869999,2b
2019-07-12_150245:400,-0.40063499999999996,-0.021332,-0.303528,-0.005784,-0.001437,0.002373,-42.869999,-18.25,-35.869999,2b
2019-07-12_150245:420,-0.396545,-0.018799,-0.300476,-0.006028,-0.000826,0.001335,-42.869999,-18.25,-35.869999,2b
2019-07-12_150245:440,-0.397064,-0.017792,-0.302002,-0.006089,-0.000918,0.0016710000000000002,-42.5,-18.25,-35.869999,2b
2019-07-12_150245:460,-0.398071,-0.021332,-0.301483,-0.006028,-0.001254,0.0016710000000000002,-42.5,-18.25,-35.869999,2b
2019-07-12_150245:480,-0.396545,-0.01828,-0.301483,-0.006028,-0.001376,0.001549,-42.5,-18.25,-35.869999,2b
2019-07-12_150245:500,-0.39859,-0.01828,-0.300476,-0.005845,-0.0016809999999999998,0.002037,-42.869999,-18.68,-36.25,2b
2019-07-12_150245:520,-0.397583,-0.019806,-0.29895,-0.0056619999999999995,-0.0018030000000000001,0.00161,-42.869999,-18.68,-36.25,2b
2019-07-12_150245:540,-0.39502,-0.018799,-0.300964,-0.005815,-0.0022,0.00161,-43.25,-17.870001000000002,-36.25,2b
2019-07-12_150245:560,-0.399109,-0.01828,-0.29895,-0.005906000000000001,-0.0022,0.002434,-43.25,-17.870001000000002,-36.25,2b
2019-07-12_150245:580,-0.396057,-0.019318000000000002,-0.300476,-0.006089,-0.002261,0.0017629999999999998,-43.25,-17.870001000000002,-36.25,2b
2019-07-12_150245:600,-0.395538,-0.019806,-0.302002,-0.005967,-0.002718,0.000695,-42.5,-18.25,-35.869999,2b
2019-07-12_150245:620,-0.396545,-0.017273,-0.300964,-0.005815,-0.002932,0.0017929999999999999,-42.5,-18.25,-35.869999,2b
2019-07-12_150245:640,-0.398071,-0.017792,-0.30300900000000003,-0.005845,-0.0028710000000000003,0.002587,-42.5,-18.25,-36.25,2b
2019-07-12_150245:660,-0.399597,-0.017792,-0.304016,-0.005845,-0.0024129999999999998,0.0019760000000000003,-42.5,-18.25,-36.25,2b
2019-07-12_150245:680,-0.397583,-0.01828,-0.304016,-0.00615,-0.002078,0.00161,-42.5,-18.25,-36.25,2b
2019-07-12_150245:700,-0.398071,-0.01828,-0.304016,-0.00615,-0.001925,0.001732,-42.869999,-18.25,-34.68,2b
2019-07-12_150245:720,-0.397064,-0.019318000000000002,-0.303528,-0.00615,-0.001955,0.00161,-42.869999,-18.25,-34.68,2b
2019-07-12_150245:740,-0.397064,-0.019318000000000002,-0.304535,-0.006181,-0.0017420000000000003,0.00161,-43.25,-18.25,-36.18,2b
2019-07-12_150245:760,-0.39859,-0.01828,-0.304535,-0.005784,-0.001559,0.0017629999999999998,-43.25,-18.25,-36.18,2b
2019-07-12_150245:780,-0.398071,-0.018799,-0.304535,-0.00554,-0.001376,0.0016710000000000002,-43.25,-18.25,-36.18,2b
2019-07-12_150245:800,-0.397583,-0.018799,-0.305054,-0.0054789999999999995,-0.0012230000000000001,0.002037,-43.25,-18.68,-36.18,2b
2019-07-12_150245:820,-0.398071,-0.016266,-0.303528,-0.005265,-0.0009789999999999998,0.002251,-43.25,-18.68,-36.18,2b
2019-07-12_150245:840,-0.397064,-0.017792,-0.302002,-0.00554,-0.000857,0.002129,-43.25,-17.870001000000002,-35.5,2b
2019-07-12_150245:860,-0.396545,-0.017273,-0.302002,-0.005815,-0.0010400000000000001,0.0019760000000000003,-43.25,-17.870001000000002,-35.5,2b
2019-07-12_150245:880,-0.396545,-0.017792,-0.300476,-0.005845,-0.0010400000000000001,0.002251,-43.25,-17.870001000000002,-35.5,2b
2019-07-12_150245:900,-0.397064,-0.018799,-0.302002,-0.005845,-0.001101,0.0023120000000000003,-42.5,-17.5,-36.18,2b
2019-07-12_150245:920,-0.397064,-0.020844,-0.30249000000000004,-0.005784,-0.0011619999999999998,0.0021899999999999997,-42.5,-17.5,-36.18,2b
2019-07-12_150245:940,-0.39859,-0.021332,-0.30249000000000004,-0.005326,-0.001254,0.002037,-42.5,-17.870001000000002,-35.75,2b
2019-07-12_150245:960,-0.39859,-0.020325,-0.300476,-0.005204,-0.000918,0.0019149999999999998,-42.5,-17.870001000000002,-35.75,2b
2019-07-12_150245:980,-0.397583,-0.019806,-0.301483,-0.0049299999999999995,-0.001101,0.0019149999999999998,-42.5,-17.870001000000002,-35.75,2b
2019-07-12_150246:000,-0.397064,-0.020844,-0.300964,-0.005082,-0.001101,0.0019149999999999998,-42.5,-18.25,-35.75,2b
2019-07-12_150246:020,-0.396057,-0.018799,-0.29943800000000004,-0.0054789999999999995,-0.0012230000000000001,0.0017629999999999998,-42.5,-18.25,-35.75,2b
2019-07-12_150246:040,-0.39502,-0.01828,-0.302002,-0.0056619999999999995,-0.001376,0.0019149999999999998,-42.5,-17.870001000000002,-36.18,2b
2019-07-12_150246:060,-0.395538,-0.020844,-0.30249000000000004,-0.006089,-0.0017420000000000003,0.0017929999999999999,-42.5,-17.870001000000002,-36.18,2b
2019-07-12_150246:080,-0.399597,-0.020844,-0.300964,-0.006181,-0.001498,0.001854,-42.5,-17.870001000000002,-36.18,2b
2019-07-12_150246:100,-0.399597,-0.022369,-0.300964,-0.006547,-0.001559,0.00161,-42.869999,-17.870001000000002,-35.5,2b
2019-07-12_150246:120,-0.401123,-0.021851,-0.300476,-0.006364,-0.0009789999999999998,0.0014269999999999999,-42.869999,-17.870001000000002,-35.5,2b
2019-07-12_150246:140,-0.397064,-0.021851,-0.300964,-0.006242,-0.0010400000000000001,0.0016710000000000002,-42.869999,-17.870001000000002,-35.5,2b
2019-07-12_150246:160,-0.398071,-0.022369,-0.301483,-0.006242,-0.0011619999999999998,0.001335,-42.869999,-17.870001000000002,-35.5,2b
2019-07-12_150246:180,-0.390961,-0.021851,-0.298431,-0.005967,-0.001498,0.000542,-42.869999,-17.870001000000002,-35.5,2b
2019-07-12_150246:200,-0.39502,-0.020325,-0.302002,-0.006089,-0.0018030000000000001,0.000359,-42.5,-18.25,-36.18,2b
2019-07-12_150246:220,-0.397064,-0.019806,-0.302002,-0.005967,-0.0024739999999999996,0.0007559999999999999,-42.5,-18.25,-36.18,2b
2019-07-12_150246:240,-0.397583,-0.01828,-0.302002,-0.006089,-0.002139,0.001396,-42.869999,-17.5,-35.0,2b
2019-07-12_150246:260,-0.40063499999999996,-0.018799,-0.302002,-0.006089,-0.001559,0.000817,-42.869999,-17.5,-35.0,2b
2019-07-12_150246:280,-0.397064,-0.01828,-0.302002,-0.0063030000000000004,-0.001101,-9.9e-05,-42.869999,-17.5,-35.0,2b
2019-07-12_150246:300,-0.39859,-0.016266,-0.302002,-0.006242,-0.0011619999999999998,-9.9e-05,-43.25,-18.25,-35.5,2b
2019-07-12_150246:320,-0.39859,-0.017273,-0.300476,-0.006028,-0.001315,0.000359,-43.25,-18.25,-35.5,2b
2019-07-12_150246:340,-0.397064,-0.016753999999999998,-0.29995700000000003,-0.005906000000000001,-0.001559,0.000298,-42.060001,-17.870001000000002,-35.0,2b
2019-07-12_150246:360,-0.397583,-0.015747,-0.302002,-0.00554,-0.0015890000000000001,0.001,-42.060001,-17.870001000000002,-35.0,2b
2019-07-12_150246:380,-0.399597,-0.016266,-0.300964,-0.005448,-0.001925,0.001213,-42.060001,-17.870001000000002,-35.0,2b
2019-07-12_150246:400,-0.39502,-0.014740000000000001,-0.300964,-0.0054789999999999995,-0.002139,0.001091,-43.25,-17.870001000000002,-35.75,2b
2019-07-12_150246:420,-0.398071,-0.013702,-0.29995700000000003,-0.005815,-0.001864,0.0019149999999999998,-43.25,-17.870001000000002,-35.75,2b
2019-07-12_150246:440,-0.396057,-0.015228,-0.29995700000000003,-0.005967,-0.001955,0.0016710000000000002,-42.869999,-19.0,-36.68,2b
2019-07-12_150246:460,-0.395538,-0.015228,-0.30300900000000003,-0.00615,-0.002261,0.000634,-42.869999,-19.0,-36.68,2b
2019-07-12_150246:480,-0.397064,-0.015747,-0.302002,-0.006089,-0.002261,0.001549,-42.869999,-19.0,-36.68,2b
2019-07-12_150246:500,-0.399597,-0.016266,-0.30249000000000004,-0.005784,-0.002139,0.0028309999999999997,-42.869999,-18.25,-35.75,2b
2019-07-12_150246:520,-0.39859,-0.01828,-0.30249000000000004,-0.005723,-0.001864,0.0021899999999999997,-42.869999,-18.25,-35.75,2b
2019-07-12_150246:540,-0.39859,-0.015228,-0.303528,-0.005723,-0.0017420000000000003,0.002037,-43.25,-18.25,-35.5,2b
2019-07-12_150246:560,-0.398071,-0.015228,-0.303528,-0.005784,-0.0016809999999999998,0.002098,-43.25,-18.25,-35.5,2b
2019-07-12_150246:580,-0.39859,-0.017273,-0.30300900000000003,-0.005967,-0.0015890000000000001,0.002037,-43.25,-18.25,-35.5,2b
2019-07-12_150246:600,-0.399109,-0.017792,-0.302002,-0.005906000000000001,-0.001315,0.001854,-41.75,-17.870001000000002,-36.560001,2b
2019-07-12_150246:620,-0.397583,-0.018799,-0.302002,-0.005784,-0.000857,0.0019149999999999998,-41.75,-17.870001000000002,-36.560001,2b
2019-07-12_150246:640,-0.397064,-0.018799,-0.301483,-0.005845,-0.0009789999999999998,0.0019760000000000003,-43.25,-18.25,-35.369999,2b
2019-07-12_150246:660,-0.397583,-0.017792,-0.301483,-0.0054789999999999995,-0.0011619999999999998,0.0023120000000000003,-43.25,-18.25,-35.369999,2b
2019-07-12_150246:680,-0.396545,-0.017792,-0.300476,-0.005386999999999999,-0.001315,0.002373,-43.25,-18.25,-35.369999,2b
2019-07-12_150246:700,-0.397583,-0.01828,-0.300964,-0.0056619999999999995,-0.001254,0.002098,-43.25,-17.870001000000002,-36.68,2b
2019-07-12_150246:720,-0.397583,-0.016266,-0.29895,-0.0056619999999999995,-0.001315,0.002098,-43.25,-17.870001000000002,-36.68,2b
2019-07-12_150246:740,-0.396057,-0.01828,-0.300476,-0.006028,-0.001498,0.0019760000000000003,-42.5,-18.25,-35.0,2b
2019-07-12_150246:760,-0.397583,-0.01828,-0.29995700000000003,-0.006028,-0.0015890000000000001,0.0019760000000000003,-42.5,-18.25,-35.0,2b
2019-07-12_150246:780,-0.397064,-0.019806,-0.29943800000000004,-0.006089,-0.00162,0.001549,-42.5,-18.25,-35.0,2b
2019-07-12_150246:800,-0.398071,-0.019806,-0.300476,-0.005967,-0.0016809999999999998,0.001549,-42.5,-18.25,-35.75,2b
2019-07-12_150246:820,-0.39859,-0.018799,-0.29995700000000003,-0.0056619999999999995,-0.001925,0.0016710000000000002,-42.5,-18.25,-35.75,2b
2019-07-12_150246:840,-0.397064,-0.01828,-0.300476,-0.005601,-0.0016809999999999998,0.0014880000000000002,-42.869999,-17.870001000000002,-35.0,2b
2019-07-12_150246:860,-0.397064,-0.017273,-0.301483,-0.0054789999999999995,-0.001925,0.00161,-42.869999,-17.870001000000002,-35.0,2b
2019-07-12_150246:880,-0.397064,-0.017273,-0.29995700000000003,-0.005601,-0.001925,0.0016710000000000002,-42.869999,-17.870001000000002,-35.0,2b
2019-07-12_150246:900,-0.397064,-0.016266,-0.301483,-0.005845,-0.002139,0.00161,-43.25,-18.25,-36.18,2b
2019-07-12_150246:920,-0.39859,-0.017273,-0.300476,-0.006089,-0.002078,0.0016710000000000002,-43.25,-18.25,-36.18,2b
2019-07-12_150246:940,-0.398071,-0.017792,-0.30249000000000004,-0.005815,-0.001559,0.00161,-42.869999,-19.0,-35.0,2b
2019-07-12_150246:960,-0.396545,-0.016753999999999998,-0.30249000000000004,-0.005845,-0.001925,0.00161,-42.869999,-19.0,-35.0,2b
2019-07-12_150246:980,-0.396545,-0.017273,-0.301483,-0.005815,-0.0016809999999999998,0.0017929999999999999,-42.869999,-19.0,-35.0,2b
2019-07-12_150247:000,-0.397583,-0.017273,-0.30249000000000004,-0.005723,-0.001864,0.0017929999999999999,-42.5,-17.870001000000002,-36.68,2b
2019-07-12_150247:020,-0.399109,-0.017273,-0.30249000000000004,-0.005601,-0.001864,0.0017929999999999999,-42.5,-17.870001000000002,-36.68,2b
2019-07-12_150247:040,-0.399597,-0.017792,-0.302002,-0.005723,-0.001559,0.002037,-42.5,-18.68,-36.18,2b
2019-07-12_150247:060,-0.399597,-0.016266,-0.30249000000000004,-0.00554,-0.001437,0.002129,-42.5,-18.68,-36.18,2b
2019-07-12_150247:080,-0.399597,-0.016753999999999998,-0.300964,-0.0056619999999999995,-0.001101,0.002129,-42.5,-18.68,-36.18,2b
2019-07-12_150247:100,-0.395538,-0.016266,-0.300964,-0.00615,-0.0012230000000000001,0.0019149999999999998,-43.560001,-17.870001000000002,-35.5,2b
2019-07-12_150247:120,-0.396545,-0.019318000000000002,-0.300476,-0.0063030000000000004,-0.001315,0.0014880000000000002,-43.560001,-17.870001000000002,-35.5,2b
2019-07-12_150247:140,-0.396545,-0.019806,-0.301483,-0.006181,-0.0015890000000000001,0.001213,-43.560001,-17.870001000000002,-35.5,2b
2019-07-12_150247:160,-0.396057,-0.017273,-0.300964,-0.006028,-0.002016,0.001549,-42.060001,-18.68,-36.18,2b
2019-07-12_150247:180,-0.397583,-0.019318000000000002,-0.300964,-0.00554,-0.0016809999999999998,0.002587,-42.060001,-18.68,-36.18,2b
2019-07-12_150247:200,-0.39859,-0.017792,-0.302002,-0.005448,-0.00162,0.002587,-43.25,-17.870001000000002,-35.0,2b
2019-07-12_150247:220,-0.397064,-0.016266,-0.301483,-0.005906000000000001,-0.001376,0.001396,-43.25,-17.870001000000002,-35.0,2b
2019-07-12_150247:240,-0.398071,-0.017792,-0.302002,-0.005967,-0.0011619999999999998,0.001732,-42.869999,-18.25,-36.18,2b
2019-07-12_150247:260,-0.39859,-0.01828,-0.302002,-0.006028,-0.001315,0.001732,-42.869999,-18.25,-36.18,2b
2019-07-12_150247:280,-0.399109,-0.018799,-0.300476,-0.00615,-0.001101,0.0014880000000000002,-42.869999,-18.25,-36.18,2b
2019-07-12_150247:300,-0.397064,-0.018799,-0.29943800000000004,-0.005967,-0.001254,0.0019149999999999998,-42.060001,-18.68,-34.68,2b
2019-07-12_150247:320,-0.39859,-0.019806,-0.29995700000000003,-0.005784,-0.0017420000000000003,0.0019760000000000003,-42.060001,-18.68,-34.68,2b
2019-07-12_150247:340,-0.396545,-0.016753999999999998,-0.29995700000000003,-0.00554,-0.0018030000000000001,0.0014880000000000002,-42.060001,-18.68,-34.68,2b
2019-07-12_150247:360,-0.396545,-0.017273,-0.301483,-0.005723,-0.002016,0.002098,-43.25,-18.25,-34.68,2b
2019-07-12_150247:380,-0.396057,-0.018799,-0.29995700000000003,-0.0056619999999999995,-0.0018030000000000001,0.0021899999999999997,-43.25,-18.25,-34.68,2b
2019-07-12_150247:400,-0.395538,-0.016753999999999998,-0.301483,-0.005906000000000001,-0.002139,0.001213,-42.5,-17.5,-35.75,2b
2019-07-12_150247:420,-0.396057,-0.015747,-0.30249000000000004,-0.005906000000000001,-0.0022,0.0009390000000000001,-42.5,-17.5,-35.75,2b
2019-07-12_150247:440,-0.39859,-0.017273,-0.304016,-0.006028,-0.0022,0.002129,-42.060001,-17.5,-35.5,2b
2019-07-12_150247:460,-0.40011599999999997,-0.016753999999999998,-0.304535,-0.005845,-0.002016,0.002251,-42.060001,-17.5,-35.5,2b
2019-07-12_150247:480,-0.399597,-0.017792,-0.303528,-0.00615,-0.001864,0.001549,-42.060001,-17.5,-35.5,2b
2019-07-12_150247:500,-0.39859,-0.016266,-0.304535,-0.0063030000000000004,-0.001559,0.0014269999999999999,-42.060001,-19.0,-35.0,2b
2019-07-12_150247:520,-0.397583,-0.018799,-0.30249000000000004,-0.006028,-0.001315,0.0014269999999999999,-42.060001,-19.0,-35.0,2b
2019-07-12_150247:540,-0.39859,-0.01828,-0.303528,-0.005906000000000001,-0.001101,0.00103,-42.060001,-19.0,-35.0,2b
2019-07-12_150247:560,-0.397064,-0.017792,-0.300964,-0.0056619999999999995,-0.0010400000000000001,0.001335,-43.25,-18.68,-36.18,2b
2019-07-12_150247:580,-0.398071,-0.017273,-0.301483,-0.00554,-0.0009789999999999998,0.001549,-43.25,-18.68,-36.18,2b
2019-07-12_150247:600,-0.397583,-0.016266,-0.300964,-0.005386999999999999,-0.000918,0.001732,-43.560001,-18.25,-34.25,2b
2019-07-12_150247:620,-0.39859,-0.014221000000000001,-0.29895,-0.005386999999999999,-0.0010400000000000001,0.002251,-43.560001,-18.25,-34.25,2b
2019-07-12_150247:640,-0.398071,-0.016266,-0.29995700000000003,-0.005784,-0.0009789999999999998,0.002129,-43.560001,-18.25,-34.25,2b
2019-07-12_150247:660,-0.398071,-0.015747,-0.300476,-0.006028,-0.001254,0.001854,-42.060001,-18.25,-35.5,2b
2019-07-12_150247:680,-0.396545,-0.016753999999999998,-0.300476,-0.006364,-0.001254,0.0019149999999999998,-42.060001,-18.25,-35.5,2b
2019-07-12_150247:700,-0.396545,-0.01828,-0.29943800000000004,-0.006364,-0.001498,0.0017929999999999999,-42.5,-17.870001000000002,-35.75,2b
2019-07-12_150247:720,-0.397583,-0.020325,-0.300476,-0.006181,-0.0017420000000000003,0.002098,-42.5,-17.870001000000002,-35.75,2b
2019-07-12_150247:740,-0.399109,-0.019318000000000002,-0.301483,-0.005967,-0.001925,0.0019760000000000003,-42.5,-17.870001000000002,-35.75,2b
2019-07-12_150247:760,-0.399109,-0.018799,-0.29995700000000003,-0.005784,-0.002078,0.0016710000000000002,-42.060001,-18.25,-35.5,2b
2019-07-12_150247:780,-0.398071,-0.017792,-0.300476,-0.005386999999999999,-0.001955,0.001549,-42.060001,-18.25,-35.5,2b
2019-07-12_150247:800,-0.397583,-0.017273,-0.300964,-0.005326,-0.001925,0.001549,-43.25,-18.68,-36.68,2b
2019-07-12_150247:820,-0.399109,-0.017273,-0.302002,-0.00554,-0.001925,0.001549,-43.25,-18.68,-36.68,2b
2019-07-12_150247:840,-0.397583,-0.015747,-0.301483,-0.005601,-0.001955,0.0014880000000000002,-43.25,-18.68,-36.68,2b
2019-07-12_150247:860,-0.397583,-0.016266,-0.301483,-0.005723,-0.001864,0.00161,-41.75,-19.0,-36.18,2b
2019-07-12_150247:880,-0.398071,-0.017273,-0.303528,-0.005845,-0.002139,0.00161,-41.75,-19.0,-36.18,2b
2019-07-12_150247:900,-0.398071,-0.017792,-0.30249000000000004,-0.006028,-0.002139,0.0016710000000000002,-42.5,-18.25,-34.68,2b
2019-07-12_150247:920,-0.397064,-0.01828,-0.302002,-0.005845,-0.0016809999999999998,0.00161,-42.5,-18.25,-34.68,2b
2019-07-12_150247:940,-0.397064,-0.016266,-0.303528,-0.005906000000000001,-0.0018030000000000001,0.0014880000000000002,-42.5,-18.25,-34.68,2b
2019-07-12_150247:960,-0.398071,-0.017792,-0.301483,-0.005815,-0.0015890000000000001,0.0016710000000000002,-42.5,-18.68,-35.75,2b
2019-07-12_150247:980,-0.40011599999999997,-0.017273,-0.30249000000000004,-0.0056619999999999995,-0.0016809999999999998,0.00161,-42.5,-18.68,-35.75,2b
2019-07-12_150248:000,-0.40011599999999997,-0.017273,-0.302002,-0.005601,-0.001437,0.0019149999999999998,-42.5,-18.25,-36.18,2b
2019-07-12_150248:020,-0.40011599999999997,-0.016266,-0.29995700000000003,-0.005601,-0.0011619999999999998,0.002129,-42.5,-18.25,-36.18,2b
2019-07-12_150248:040,-0.396545,-0.016753999999999998,-0.300964,-0.005845,-0.0010400000000000001,0.002373,-42.5,-18.25,-36.18,2b
2019-07-12_150248:060,-0.39859,-0.016753999999999998,-0.300964,-0.006089,-0.0011619999999999998,0.0021899999999999997,-42.869999,-17.870001000000002,-34.68,2b
2019-07-12_150248:080,-0.396545,-0.017273,-0.29943800000000004,-0.006425,-0.0009789999999999998,0.001732,-42.869999,-17.870001000000002,-34.68,2b
2019-07-12_150248:100,-0.396545,-0.019806,-0.302002,-0.006425,-0.0015890000000000001,0.001549,-42.5,-17.870001000000002,-35.75,2b
2019-07-12_150248:120,-0.396057,-0.01828,-0.29995700000000003,-0.006181,-0.001925,0.001549,-42.5,-17.870001000000002,-35.75,2b
2019-07-12_150248:140,-0.396545,-0.018799,-0.300964,-0.005815,-0.002078,0.002495,-42.5,-17.870001000000002,-35.75,2b
2019-07-12_150248:160,-0.397583,-0.019318000000000002,-0.302002,-0.0054789999999999995,-0.001955,0.0029219999999999997,-42.5,-18.25,-35.5,2b
2019-07-12_150248:180,-0.397064,-0.015747,-0.300964,-0.005815,-0.00162,0.001732,-42.5,-18.25,-35.5,2b
2019-07-12_150248:200,-0.399597,-0.016266,-0.302002,-0.0063030000000000004,-0.001437,0.0017629999999999998,-43.25,-17.870001000000002,-36.68,2b
2019-07-12_150248:220,-0.401123,-0.01828,-0.301483,-0.006639,-0.001437,0.002251,-43.25,-17.870001000000002,-36.68,2b
2019-07-12_150248:240,-0.40011599999999997,-0.018799,-0.302002,-0.006973999999999999,-0.001376,0.001549,-43.25,-17.870001000000002,-36.68,2b
2019-07-12_150248:260,-0.39859,-0.019806,-0.301483,-0.0067,-0.0009789999999999998,0.001549,-43.560001,-17.870001000000002,-35.75,2b
2019-07-12_150248:280,-0.396545,-0.020844,-0.29895,-0.006242,-0.0010400000000000001,0.0019149999999999998,-43.560001,-17.870001000000002,-35.75,2b
2019-07-12_150248:300,-0.396057,-0.018799,-0.300476,-0.00554,-0.001437,0.001,-42.5,-19.0,-35.5,2b
2019-07-12_150248:320,-0.39859,-0.015747,-0.298431,-0.005204,-0.00162,0.0014880000000000002,-42.5,-19.0,-35.5,2b
2019-07-12_150248:340,-0.395538,-0.015747,-0.298431,-0.005448,-0.001559,0.00161,-42.5,-19.0,-35.5,2b
2019-07-12_150248:360,-0.397064,-0.015228,-0.300476,-0.00554,-0.0016809999999999998,0.00042,-42.5,-17.870001000000002,-35.0,2b
2019-07-12_150248:380,-0.397064,-0.011687999999999999,-0.29943800000000004,-0.006028,-0.002016,0.000542,-42.5,-17.870001000000002,-35.0,2b
2019-07-12_150248:400,-0.399597,-0.013702,-0.29995700000000003,-0.00615,-0.002139,0.002251,-43.560001,-17.870001000000002,-35.0,2b
2019-07-12_150248:420,-0.399109,-0.014740000000000001,-0.300964,-0.0063030000000000004,-0.001864,0.002434,-43.560001,-17.870001000000002,-35.0,2b
2019-07-12_150248:440,-0.39859,-0.015747,-0.300964,-0.0065769999999999995,-0.0017420000000000003,0.001732,-43.560001,-17.870001000000002,-35.0,2b
2019-07-12_150248:460,-0.397583,-0.016266,-0.30249000000000004,-0.006486,-0.0015890000000000001,0.0017929999999999999,-43.25,-18.68,-34.68,2b
2019-07-12_150248:480,-0.397583,-0.01828,-0.302002,-0.00615,-0.00162,0.0019149999999999998,-43.25,-18.68,-34.68,2b
2019-07-12_150248:500,-0.396545,-0.017273,-0.300964,-0.0056619999999999995,-0.0016809999999999998,0.001396,-42.869999,-18.68,-35.75,2b
2019-07-12_150248:520,-0.397064,-0.015747,-0.300476,-0.005265,-0.0016809999999999998,0.0017629999999999998,-42.869999,-18.68,-35.75,2b
2019-07-12_150248:540,-0.398071,-0.015747,-0.301483,-0.005082,-0.001925,0.0019149999999999998,-42.869999,-18.68,-35.75,2b
2019-07-12_150248:560,-0.39859,-0.014221000000000001,-0.300964,-0.005204,-0.00162,0.0017929999999999999,-42.060001,-17.870001000000002,-37.0,2b
2019-07-12_150248:580,-0.398071,-0.012695,-0.29995700000000003,-0.0056619999999999995,-0.0018030000000000001,0.002251,-42.060001,-17.870001000000002,-37.0,2b
2019-07-12_150248:600,-0.398071,-0.013213999999999998,-0.300476,-0.005967,-0.0017420000000000003,0.002434,-42.869999,-18.68,-35.0,2b
2019-07-12_150248:620,-0.396545,-0.014740000000000001,-0.300476,-0.0065769999999999995,-0.002078,0.0023120000000000003,-42.869999,-18.68,-35.0,2b
2019-07-12_150248:640,-0.396545,-0.017273,-0.29895,-0.006761,-0.002078,0.002526,-42.869999,-18.68,-35.0,2b
2019-07-12_150248:660,-0.398071,-0.018799,-0.29995700000000003,-0.0065769999999999995,-0.0022,0.002495,-41.75,-18.25,-35.5,2b
2019-07-12_150248:680,-0.39859,-0.019806,-0.300964,-0.006364,-0.002139,0.002434,-41.75,-18.25,-35.5,2b
2019-07-12_150248:700,-0.399109,-0.018799,-0.30300900000000003,-0.005845,-0.002139,0.002098,-43.560001,-18.68,-36.18,2b
2019-07-12_150248:720,-0.39859,-0.018799,-0.300964,-0.005723,-0.002139,0.0019760000000000003,-43.560001,-18.68,-36.18,2b
2019-07-12_150248:740,-0.397064,-0.017273,-0.302002,-0.005448,-0.0022,0.0019149999999999998,-43.560001,-18.68,-36.18,2b
2019-07-12_150248:760,-0.397583,-0.015747,-0.30300900000000003,-0.0054789999999999995,-0.002139,0.001854,-42.869999,-18.68,-36.18,2b
2019-07-12_150248:780,-0.39859,-0.015228,-0.302002,-0.00554,-0.002016,0.002037,-42.869999,-18.68,-36.18,2b
2019-07-12_150248:800,-0.397583,-0.015747,-0.301483,-0.005906000000000001,-0.0022,0.0019760000000000003,-43.25,-17.5,-36.18,2b
2019-07-12_150248:820,-0.397583,-0.016753999999999998,-0.29995700000000003,-0.006028,-0.002139,0.002037,-43.25,-17.5,-36.18,2b
2019-07-12_150248:840,-0.396545,-0.016753999999999998,-0.30300900000000003,-0.0063030000000000004,-0.002016,0.001854,-43.25,-17.5,-36.18,2b
2019-07-12_150248:860,-0.395538,-0.017273,-0.30249000000000004,-0.006028,-0.001955,0.002098,-42.5,-18.68,-35.5,2b
2019-07-12_150248:880,-0.396545,-0.018799,-0.30249000000000004,-0.005967,-0.0022,0.002098,-42.5,-18.68,-35.5,2b
2019-07-12_150248:900,-0.399109,-0.01828,-0.303528,-0.006028,-0.002261,0.002129,-42.869999,-18.68,-36.18,2b
2019-07-12_150248:920,-0.40011599999999997,-0.017273,-0.302002,-0.005784,-0.001925,0.002098,-42.869999,-18.68,-36.18,2b
2019-07-12_150248:940,-0.399597,-0.016266,-0.302002,-0.005784,-0.001559,0.0019149999999999998,-42.869999,-18.68,-36.18,2b
2019-07-12_150248:960,-0.396057,-0.017792,-0.301483,-0.005784,-0.0011619999999999998,0.002129,-42.869999,-18.25,-36.25,2b
2019-07-12_150248:980,-0.395538,-0.017273,-0.301483,-0.005845,-0.001254,0.002037,-42.869999,-18.25,-36.25,2b
2019-07-12_150249:000,-0.393494,-0.017273,-0.300964,-0.00615,-0.0016809999999999998,0.0017929999999999999,-42.869999,-17.870001000000002,-35.75,2b
2019-07-12_150249:020,-0.396545,-0.01828,-0.30249000000000004,-0.006089,-0.002139,0.00161,-42.869999,-17.870001000000002,-35.75,2b
2019-07-12_150249:040,-0.396545,-0.017273,-0.304016,-0.006181,-0.002535,0.001854,-42.869999,-17.870001000000002,-35.75,2b
2019-07-12_150249:060,-0.39859,-0.016753999999999998,-0.30300900000000003,-0.005906000000000001,-0.002261,0.0028309999999999997,-42.869999,-17.870001000000002,-34.25,2b
2019-07-12_150249:080,-0.399597,-0.01828,-0.304016,-0.005845,-0.001559,0.002495,-42.869999,-17.870001000000002,-34.25,2b
2019-07-12_150249:100,-0.39502,-0.017273,-0.30249000000000004,-0.006242,-0.0011619999999999998,0.0014269999999999999,-42.869999,-19.0,-36.18,2b
2019-07-12_150249:120,-0.39502,-0.016266,-0.301483,-0.006242,-0.0010400000000000001,0.0017929999999999999,-42.869999,-19.0,-36.18,2b
2019-07-12_150249:140,-0.39859,-0.01828,-0.30249000000000004,-0.006089,-0.001437,0.0017929999999999999,-42.869999,-19.0,-36.18,2b
2019-07-12_150249:160,-0.397064,-0.017792,-0.301483,-0.006028,-0.001498,0.0014880000000000002,-42.869999,-18.25,-35.5,2b
2019-07-12_150249:180,-0.397583,-0.017273,-0.300476,-0.005784,-0.0018030000000000001,0.002129,-42.869999,-18.25,-35.5,2b
2019-07-12_150249:200,-0.397583,-0.019318000000000002,-0.30249000000000004,-0.0054789999999999995,-0.0018030000000000001,0.002251,-42.869999,-19.0,-36.68,2b
2019-07-12_150249:220,-0.39502,-0.015747,-0.302002,-0.0056619999999999995,-0.0017420000000000003,0.0017629999999999998,-42.869999,-19.0,-36.68,2b
2019-07-12_150249:240,-0.399109,-0.014740000000000001,-0.301483,-0.005815,-0.002078,0.0021899999999999997,-42.869999,-19.0,-36.68,2b
2019-07-12_150249:260,-0.394531,-0.017792,-0.300476,-0.005906000000000001,-0.002078,0.0021899999999999997,-42.5,-19.0,-34.68,2b
2019-07-12_150249:280,-0.393494,-0.017273,-0.302002,-0.005967,-0.002261,0.001274,-42.5,-19.0,-34.68,2b
2019-07-12_150249:300,-0.397064,-0.015228,-0.303528,-0.005845,-0.002352,0.00161,-42.5,-17.870001000000002,-35.5,2b
2019-07-12_150249:320,-0.396057,-0.019318000000000002,-0.30300900000000003,-0.005723,-0.0024739999999999996,0.00277,-42.5,-17.870001000000002,-35.5,2b
2019-07-12_150249:340,-0.399597,-0.017792,-0.305054,-0.005723,-0.001925,0.002434,-42.5,-17.870001000000002,-35.5,2b
2019-07-12_150249:360,-0.398071,-0.017792,-0.305054,-0.0056619999999999995,-0.001559,0.0017629999999999998,-42.5,-18.25,-36.25,2b
2019-07-12_150249:380,-0.397583,-0.01828,-0.306061,-0.005967,-0.001559,0.002098,-42.5,-18.25,-36.25,2b
2019-07-12_150249:400,-0.396545,-0.01828,-0.30300900000000003,-0.005967,-0.0012230000000000001,0.0017629999999999998,-43.25,-17.870001000000002,-36.68,2b
2019-07-12_150249:420,-0.396057,-0.019318000000000002,-0.303528,-0.006089,-0.0011619999999999998,0.0016710000000000002,-43.25,-17.870001000000002,-36.68,2b
2019-07-12_150249:440,-0.396545,-0.020844,-0.305054,-0.005601,-0.000826,0.0017929999999999999,-43.25,-17.870001000000002,-36.68,2b
2019-07-12_150249:460,-0.398071,-0.020325,-0.30300900000000003,-0.005265,-0.0007650000000000001,0.001549,-43.25,-17.870001000000002,-36.18,2b
2019-07-12_150249:480,-0.397064,-0.017792,-0.301483,-0.0049299999999999995,-0.00045999999999999996,0.0016710000000000002,-43.25,-17.870001000000002,-36.18,2b
2019-07-12_150249:500,-0.397064,-0.017273,-0.30300900000000003,-0.004869,-0.00043,0.002129,-42.869999,-17.870001000000002,-36.18,2b
2019-07-12_150249:520,-0.396545,-0.017792,-0.300964,-0.005082,-0.000246,0.002037,-42.869999,-17.870001000000002,-36.18,2b
2019-07-12_150249:540,-0.397064,-0.017792,-0.301483,-0.00554,-0.00036899999999999997,0.0016710000000000002,-42.869999,-17.870001000000002,-36.18,2b
2019-07-12_150249:560,-0.396545,-0.017273,-0.302002,-0.005967,-0.000643,0.001549,-42.869999,-18.68,-35.5,2b
2019-07-12_150249:580,-0.397583,-0.01828,-0.29995700000000003,-0.0063030000000000004,-0.000521,0.001549,-42.869999,-18.68,-35.5,2b
2019-07-12_150249:600,-0.398071,-0.019318000000000002,-0.29995700000000003,-0.006364,-0.0007650000000000001,0.001549,-42.869999,-17.870001000000002,-36.68,2b
2019-07-12_150249:620,-0.397583,-0.020844,-0.300476,-0.006089,-0.000826,0.0014880000000000002,-42.869999,-17.870001000000002,-36.68,2b
2019-07-12_150249:640,-0.398071,-0.019806,-0.29943800000000004,-0.005784,-0.0010400000000000001,0.001396,-42.869999,-17.870001000000002,-36.68,2b
2019-07-12_150249:660,-0.397583,-0.019318000000000002,-0.298431,-0.0056619999999999995,-0.0012230000000000001,0.001335,-42.5,-17.870001000000002,-35.5,2b
2019-07-12_150249:680,-0.396057,-0.01828,-0.298431,-0.005386999999999999,-0.001376,0.001274,-42.5,-17.870001000000002,-35.5,2b
2019-07-12_150249:700,-0.39502,-0.017273,-0.29895,-0.005601,-0.0018030000000000001,0.001335,-42.869999,-18.25,-34.68,2b
2019-07-12_150249:720,-0.396545,-0.016266,-0.29742399999999997,-0.0056619999999999995,-0.002261,0.001396,-42.869999,-18.25,-34.68,2b
2019-07-12_150249:740,-0.39859,-0.017273,-0.302002,-0.005815,-0.002261,0.001396,-42.869999,-18.25,-34.68,2b
2019-07-12_150249:760,-0.40063499999999996,-0.016753999999999998,-0.301483,-0.005967,-0.0024739999999999996,0.001396,-43.25,-17.870001000000002,-37.369999,2b
2019-07-12_150249:780,-0.40011599999999997,-0.015747,-0.301483,-0.005967,-0.0022,0.001335,-43.25,-17.870001000000002,-37.369999,2b
2019-07-12_150249:800,-0.397583,-0.017792,-0.300476,-0.005967,-0.001955,0.00161,-43.560001,-18.25,-35.5,2b
2019-07-12_150249:820,-0.395538,-0.01828,-0.301483,-0.006089,-0.001864,0.001549,-43.560001,-18.25,-35.5,2b
2019-07-12_150249:840,-0.395538,-0.017792,-0.300964,-0.005967,-0.001955,0.001335,-43.560001,-18.25,-35.5,2b
2019-07-12_150249:860,-0.396545,-0.01828,-0.303528,-0.005723,-0.002078,0.001335,-43.25,-18.68,-35.75,2b
2019-07-12_150249:880,-0.398071,-0.015747,-0.30300900000000003,-0.005784,-0.0024129999999999998,0.001396,-43.25,-18.68,-35.75,2b
2019-07-12_150249:900,-0.39859,-0.016266,-0.304535,-0.0054789999999999995,-0.002139,0.0023120000000000003,-42.5,-19.0,-36.68,2b
2019-07-12_150249:920,-0.40011599999999997,-0.016753999999999998,-0.304016,-0.0056619999999999995,-0.0018030000000000001,0.0019760000000000003,-42.5,-19.0,-36.68,2b
2019-07-12_150249:940,-0.397583,-0.015228,-0.305054,-0.005906000000000001,-0.0011619999999999998,0.001152,-42.5,-19.0,-36.68,2b
2019-07-12_150249:960,-0.397583,-0.015747,-0.30249000000000004,-0.006181,-0.0009789999999999998,0.0014269999999999999,-42.869999,-18.25,-35.0,2b
2019-07-12_150249:980,-0.397583,-0.018799,-0.302002,-0.006089,-0.000826,0.00161,-42.869999,-18.25,-35.0,2b
2019-07-12_150250:000,-0.397583,-0.017792,-0.300476,-0.006028,-0.000704,0.001335,-42.5,-18.68,-35.0,2b
2019-07-12_150250:020,-0.397583,-0.016266,-0.29943800000000004,-0.005601,-0.000918,0.001854,-42.5,-18.68,-35.0,2b
2019-07-12_150250:040,-0.397064,-0.01828,-0.29995700000000003,-0.0054789999999999995,-0.0011619999999999998,0.0019760000000000003,-42.5,-18.68,-35.0,2b
2019-07-12_150250:060,-0.396057,-0.015747,-0.300476,-0.005326,-0.001376,0.0017629999999999998,-43.25,-18.25,-36.68,2b
2019-07-12_150250:080,-0.399109,-0.015228,-0.297913,-0.005448,-0.00162,0.002098,-43.25,-18.25,-36.68,2b
2019-07-12_150250:100,-0.39502,-0.016753999999999998,-0.29995700000000003,-0.005815,-0.0017420000000000003,0.002526,-42.5,-18.25,-35.75,2b
2019-07-12_150250:120,-0.396057,-0.017792,-0.300476,-0.005967,-0.0018030000000000001,0.001335,-42.5,-18.25,-35.75,2b
2019-07-12_150250:140,-0.396545,-0.015747,-0.302002,-0.006028,-0.002352,0.001091,-42.5,-18.25,-35.75,2b
2019-07-12_150250:160,-0.398071,-0.018799,-0.301483,-0.005845,-0.002322,0.002526,-43.25,-17.5,-35.0,2b
2019-07-12_150250:180,-0.398071,-0.018799,-0.30249000000000004,-0.0056619999999999995,-0.0022,0.002495,-43.25,-17.5,-35.0,2b
2019-07-12_150250:200,-0.39859,-0.016266,-0.304016,-0.005601,-0.001925,0.001732,-44.0,-18.25,-36.18,2b
2019-07-12_150250:220,-0.398071,-0.016266,-0.301483,-0.005784,-0.0018030000000000001,0.001854,-44.0,-18.25,-36.18,2b
2019-07-12_150250:240,-0.397583,-0.017273,-0.302002,-0.005784,-0.0016809999999999998,0.0019149999999999998,-44.0,-18.25,-36.18,2b
2019-07-12_150250:260,-0.398071,-0.01828,-0.304535,-0.005967,-0.001437,0.0014269999999999999,-42.5,-17.870001000000002,-36.68,2b
2019-07-12_150250:280,-0.398071,-0.017792,-0.304016,-0.005845,-0.001254,0.0014269999999999999,-42.5,-17.870001000000002,-36.68,2b
2019-07-12_150250:300,-0.397583,-0.019318000000000002,-0.302002,-0.00554,-0.0011619999999999998,0.001549,-43.25,-18.25,-35.5,2b
2019-07-12_150250:320,-0.396545,-0.017273,-0.301483,-0.0054789999999999995,-0.0010400000000000001,0.001854,-43.25,-18.25,-35.5,2b
2019-07-12_150250:340,-0.397064,-0.017273,-0.300476,-0.005265,-0.0011619999999999998,0.0021899999999999997,-43.25,-18.25,-35.5,2b
2019-07-12_150250:360,-0.398071,-0.017792,-0.300964,-0.005326,-0.0009789999999999998,0.0019149999999999998,-42.869999,-18.25,-35.75,2b
2019-07-12_150250:380,-0.398071,-0.016266,-0.29943800000000004,-0.0056619999999999995,-0.0010400000000000001,0.0017929999999999999,-42.869999,-18.25,-35.75,2b
2019-07-12_150250:400,-0.398071,-0.017792,-0.300476,-0.005845,-0.0010400000000000001,0.0017929999999999999,-42.869999,-18.25,-35.75,2b
2019-07-12_150250:420,-0.397064,-0.018799,-0.300476,-0.005784,-0.0012230000000000001,0.0017629999999999998,-42.869999,-18.25,-35.75,2b
2019-07-12_150250:440,-0.397583,-0.017792,-0.29995700000000003,-0.0056619999999999995,-0.001101,0.00161,-42.869999,-18.25,-35.75,2b
2019-07-12_150250:460,-0.396545,-0.017792,-0.29995700000000003,-0.0056619999999999995,-0.0011619999999999998,0.001732,-42.5,-17.5,-35.0,2b
2019-07-12_150250:480,-0.39859,-0.01828,-0.300476,-0.005601,-0.001437,0.001732,-42.5,-17.5,-35.0,2b
2019-07-12_150250:500,-0.39859,-0.017273,-0.29995700000000003,-0.005601,-0.001437,0.001854,-42.869999,-17.870001000000002,-35.5,2b
2019-07-12_150250:520,-0.397064,-0.016753999999999998,-0.298431,-0.005448,-0.001315,0.00161,-42.869999,-17.870001000000002,-35.5,2b
2019-07-12_150250:540,-0.396057,-0.015747,-0.301483,-0.00554,-0.0015890000000000001,0.00161,-42.869999,-17.870001000000002,-35.5,2b
2019-07-12_150250:560,-0.397583,-0.016753999999999998,-0.300476,-0.005723,-0.00162,0.0019760000000000003,-43.25,-17.5,-36.25,2b
2019-07-12_150250:580,-0.39859,-0.016266,-0.302002,-0.005784,-0.0017420000000000003,0.001854,-43.25,-17.5,-36.25,2b
2019-07-12_150250:600,-0.401123,-0.017792,-0.301483,-0.005906000000000001,-0.0015890000000000001,0.002037,-43.25,-17.870001000000002,-35.5,2b
2019-07-12_150250:620,-0.399597,-0.017273,-0.300964,-0.005815,-0.001498,0.0021899999999999997,-43.25,-17.870001000000002,-35.5,2b
2019-07-12_150250:640,-0.398071,-0.019318000000000002,-0.301483,-0.005906000000000001,-0.001101,0.002434,-43.25,-17.870001000000002,-35.5,2b
2019-07-12_150250:660,-0.396545,-0.019318000000000002,-0.29995700000000003,-0.006181,-0.0011619999999999998,0.0019760000000000003,-43.25,-18.25,-35.5,2b
2019-07-12_150250:680,-0.396545,-0.01828,-0.300476,-0.006181,-0.001315,0.0016710000000000002,-43.25,-18.25,-35.5,2b
2019-07-12_150250:700,-0.39859,-0.020325,-0.300476,-0.005815,-0.0016809999999999998,0.001335,-42.5,-18.68,-36.18,2b
2019-07-12_150250:720,-0.396545,-0.016266,-0.29895,-0.005723,-0.001864,0.0014880000000000002,-42.5,-18.68,-36.18,2b
2019-07-12_150250:740,-0.398071,-0.017273,-0.300964,-0.0054789999999999995,-0.001864,0.002434,-42.5,-18.68,-36.18,2b
2019-07-12_150250:760,-0.40011599999999997,-0.01828,-0.300476,-0.005448,-0.001864,0.002495,-41.75,-18.68,-36.18,2b
2019-07-12_150250:780,-0.398071,-0.016753999999999998,-0.29943800000000004,-0.005845,-0.001254,0.0014269999999999999,-41.75,-18.68,-36.18,2b
2019-07-12_150250:800,-0.398071,-0.016266,-0.300476,-0.00615,-0.0010400000000000001,0.0014880000000000002,-43.25,-17.870001000000002,-35.0,2b
2019-07-12_150250:820,-0.397064,-0.018799,-0.29995700000000003,-0.006364,-0.0011619999999999998,0.0017629999999999998,-43.25,-17.870001000000002,-35.0,2b
2019-07-12_150250:840,-0.40011599999999997,-0.019806,-0.29895,-0.006242,-0.0011619999999999998,0.001274,-43.25,-17.870001000000002,-35.0,2b
2019-07-12_150250:860,-0.397064,-0.018799,-0.29943800000000004,-0.006028,-0.001437,0.00161,-42.869999,-17.870001000000002,-35.0,2b
2019-07-12_150250:880,-0.398071,-0.020325,-0.29995700000000003,-0.0056619999999999995,-0.0017420000000000003,0.0017629999999999998,-42.869999,-17.870001000000002,-35.0,2b
2019-07-12_150250:900,-0.397583,-0.016753999999999998,-0.300476,-0.0054789999999999995,-0.002016,0.00161,-42.869999,-18.68,-34.68,2b
2019-07-12_150250:920,-0.399597,-0.016266,-0.29895,-0.005386999999999999,-0.002016,0.001732,-42.869999,-18.68,-34.68,2b
2019-07-12_150250:940,-0.397064,-0.016266,-0.29995700000000003,-0.00554,-0.001955,0.002251,-42.869999,-18.68,-34.68,2b
2019-07-12_150250:960,-0.396545,-0.017792,-0.300964,-0.0056619999999999995,-0.001925,0.001549,-43.25,-17.870001000000002,-36.18,2b
2019-07-12_150250:980,-0.397064,-0.014740000000000001,-0.301483,-0.005845,-0.0022,0.000878,-43.25,-17.870001000000002,-36.18,2b
2019-07-12_150251:000,-0.399109,-0.016753999999999998,-0.300964,-0.005845,-0.002139,0.002251,-42.869999,-19.0,-35.0,2b
2019-07-12_150251:020,-0.399597,-0.01828,-0.302002,-0.006028,-0.002016,0.0028309999999999997,-42.869999,-19.0,-35.0,2b
2019-07-12_150251:040,-0.399597,-0.018799,-0.302002,-0.006364,-0.0018030000000000001,0.0019149999999999998,-42.869999,-19.0,-35.0,2b
2019-07-12_150251:060,-0.39859,-0.018799,-0.30300900000000003,-0.0063030000000000004,-0.001437,0.0016710000000000002,-42.060001,-18.25,-34.68,2b
2019-07-12_150251:080,-0.397583,-0.019318000000000002,-0.302002,-0.00615,-0.001437,0.0019149999999999998,-42.060001,-18.25,-34.68,2b
2019-07-12_150251:100,-0.397583,-0.018799,-0.302002,-0.006028,-0.001315,0.0014880000000000002,-42.5,-18.68,-36.68,2b
2019-07-12_150251:120,-0.40011599999999997,-0.018799,-0.300476,-0.005784,-0.0012230000000000001,0.001549,-42.5,-18.68,-36.68,2b
2019-07-12_150251:140,-0.39859,-0.018799,-0.300476,-0.005326,-0.001315,0.0017929999999999999,-42.5,-18.68,-36.68,2b
2019-07-12_150251:160,-0.397583,-0.016753999999999998,-0.29995700000000003,-0.005326,-0.001315,0.0019149999999999998,-42.060001,-18.25,-35.75,2b
2019-07-12_150251:180,-0.397583,-0.016266,-0.298431,-0.005326,-0.001437,0.0023120000000000003,-42.060001,-18.25,-35.75,2b
2019-07-12_150251:200,-0.397583,-0.016753999999999998,-0.29943800000000004,-0.0056619999999999995,-0.001437,0.002129,-42.060001,-18.68,-35.75,2b
2019-07-12_150251:220,-0.39859,-0.017273,-0.297913,-0.006181,-0.001559,0.0019760000000000003,-42.060001,-18.68,-35.75,2b
2019-07-12_150251:240,-0.397583,-0.019806,-0.298431,-0.006425,-0.0016809999999999998,0.0019760000000000003,-42.060001,-18.68,-35.75,2b
2019-07-12_150251:260,-0.39859,-0.020844,-0.29943800000000004,-0.006364,-0.0016809999999999998,0.002037,-42.869999,-17.870001000000002,-35.0,2b
2019-07-12_150251:280,-0.39859,-0.021332,-0.29943800000000004,-0.006089,-0.0018030000000000001,0.001732,-42.869999,-17.870001000000002,-35.0,2b
2019-07-12_150251:300,-0.399109,-0.021332,-0.301483,-0.005815,-0.002016,0.0016710000000000002,-43.25,-18.68,-35.5,2b
2019-07-12_150251:320,-0.398071,-0.019318000000000002,-0.29895,-0.005601,-0.002016,0.0017629999999999998,-43.25,-18.68,-35.5,2b
2019-07-12_150251:340,-0.398071,-0.018799,-0.29995700000000003,-0.005386999999999999,-0.0018030000000000001,0.001732,-43.25,-18.68,-35.5,2b
2019-07-12_150251:360,-0.397064,-0.017792,-0.300476,-0.005448,-0.001955,0.001549,-42.5,-17.870001000000002,-35.0,2b
2019-07-12_150251:380,-0.397064,-0.015747,-0.301483,-0.005601,-0.001955,0.001335,-42.5,-17.870001000000002,-35.0,2b
2019-07-12_150251:400,-0.396545,-0.017273,-0.301483,-0.005967,-0.002016,0.0016710000000000002,-43.25,-18.25,-35.5,2b
2019-07-12_150251:420,-0.399597,-0.018799,-0.30249000000000004,-0.006028,-0.001955,0.001732,-43.25,-18.25,-35.5,2b
2019-07-12_150251:440,-0.40011599999999997,-0.020325,-0.302002,-0.005906000000000001,-0.0016809999999999998,0.001549,-43.25,-18.25,-35.5,2b
2019-07-12_150251:460,-0.40063499999999996,-0.018799,-0.30249000000000004,-0.0056619999999999995,-0.001437,0.001549,-42.869999,-18.25,-35.75,2b
2019-07-12_150251:480,-0.39859,-0.017792,-0.302002,-0.005723,-0.0012230000000000001,0.0017929999999999999,-42.869999,-18.25,-35.75,2b
2019-07-12_150251:500,-0.399109,-0.017273,-0.302002,-0.005967,-0.0010400000000000001,0.0014880000000000002,-42.5,-18.25,-35.0,2b
2019-07-12_150251:520,-0.396057,-0.017273,-0.29895,-0.006242,-0.0011619999999999998,0.00103,-42.5,-18.25,-35.0,2b
2019-07-12_150251:540,-0.397064,-0.017273,-0.300964,-0.005967,-0.0015890000000000001,0.00103,-42.5,-18.25,-35.0,2b
2019-07-12_150251:560,-0.397064,-0.01828,-0.300476,-0.005906000000000001,-0.0016809999999999998,0.001152,-42.060001,-18.25,-35.0,2b
2019-07-12_150251:580,-0.398071,-0.016266,-0.29995700000000003,-0.005601,-0.0015890000000000001,0.0023120000000000003,-42.060001,-18.25,-35.0,2b
2019-07-12_150251:600,-0.39859,-0.019318000000000002,-0.301483,-0.005448,-0.001559,0.002648,-43.560001,-17.5,-35.0,2b
2019-07-12_150251:620,-0.399109,-0.019806,-0.29895,-0.005601,-0.001101,0.001854,-43.560001,-17.5,-35.0,2b
2019-07-12_150251:640,-0.398071,-0.021851,-0.29895,-0.0054789999999999995,-0.0010400000000000001,0.002037,-43.560001,-17.5,-35.0,2b
2019-07-12_150251:660,-0.398071,-0.024384,-0.29895,-0.005082,-0.000918,0.0019760000000000003,-42.5,-18.25,-35.5,2b
2019-07-12_150251:680,-0.399109,-0.026427999999999997,-0.29895,-0.00435,-0.0015890000000000001,0.000298,-42.5,-18.25,-35.5,2b
2019-07-12_150251:700,-0.399597,-0.023375999999999997,-0.29742399999999997,-0.0036780000000000003,-0.001955,-0.000984,-42.5,-18.25,-36.25,2b
2019-07-12_150251:720,-0.40011599999999997,-0.019318000000000002,-0.29742399999999997,-0.003007,-0.002261,-0.000831,-42.5,-18.25,-36.25,2b
2019-07-12_150251:740,-0.397583,-0.012695,-0.298431,-0.003068,-0.002535,-0.000831,-42.5,-18.25,-36.25,2b
2019-07-12_150251:760,-0.396057,-0.009125,-0.296906,-0.004014,-0.002718,-0.00037400000000000004,-42.060001,-18.25,-35.0,2b
2019-07-12_150251:780,-0.391479,-0.007599,-0.29895,-0.005326,-0.0028710000000000003,0.0009390000000000001,-42.060001,-18.25,-35.0,2b
2019-07-12_150251:800,-0.391479,-0.008636,-0.29895,-0.006639,-0.003329,0.000878,-42.869999,-17.870001000000002,-35.0,2b
2019-07-12_150251:820,-0.396545,-0.011169,-0.30300900000000003,-0.0077069999999999994,-0.003542,0.000145,-42.869999,-17.870001000000002,-35.0,2b
2019-07-12_150251:840,-0.40011599999999997,-0.014221000000000001,-0.306061,-0.008073,-0.0036030000000000003,0.00161,-42.869999,-17.870001000000002,-35.0,2b
2019-07-12_150251:860,-0.40368699999999996,-0.019806,-0.307068,-0.0074930000000000005,-0.0027489999999999997,0.002434,-43.25,-19.0,-34.75,2b
2019-07-12_150251:880,-0.401123,-0.020325,-0.308075,-0.006822,-0.001955,0.0016710000000000002,-43.25,-19.0,-34.75,2b
2019-07-12_150251:900,-0.399109,-0.017273,-0.307587,-0.005906000000000001,-0.001315,0.00103,-42.869999,-18.68,-35.869999,2b
2019-07-12_150251:920,-0.39859,-0.017273,-0.305542,-0.004807,-0.000918,0.001213,-42.869999,-18.68,-35.869999,2b
2019-07-12_150251:940,-0.396545,-0.014221000000000001,-0.305054,-0.004472,-0.000521,0.001,-42.869999,-18.68,-35.869999,2b
2019-07-12_150251:960,-0.397583,-0.012695,-0.30300900000000003,-0.004746,-0.00036899999999999997,0.001213,-42.869999,-17.870001000000002,-37.869999,2b
2019-07-12_150251:980,-0.397583,-0.009644,-0.302002,-0.005265,-0.000124,0.0017629999999999998,-42.869999,-17.870001000000002,-37.869999,2b
2019-07-12_150252:000,-0.396545,-0.010651,-0.29995700000000003,-0.005906000000000001,-0.000124,0.0021899999999999997,-42.5,-18.68,-35.0,2b
2019-07-12_150252:020,-0.397583,-0.013213999999999998,-0.29943800000000004,-0.0065769999999999995,-0.000185,0.002709,-42.5,-18.68,-35.0,2b
2019-07-12_150252:040,-0.399597,-0.015228,-0.29995700000000003,-0.006973999999999999,-0.00036899999999999997,0.003167,-42.5,-18.68,-35.0,2b
2019-07-12_150252:060,-0.399109,-0.017273,-0.300476,-0.007156999999999999,-0.000521,0.003105,-42.5,-18.68,-35.75,2b
2019-07-12_150252:080,-0.399109,-0.019318000000000002,-0.29995700000000003,-0.006822,-0.00043,0.003167,-42.5,-18.68,-35.75,2b
2019-07-12_150252:100,-0.399597,-0.020325,-0.29943800000000004,-0.006242,-0.000521,0.0028309999999999997,-42.869999,-18.25,-34.68,2b
2019-07-12_150252:120,-0.399597,-0.020844,-0.298431,-0.0054789999999999995,-0.000521,0.002373,-42.869999,-18.25,-34.68,2b
2019-07-12_150252:140,-0.398071,-0.021332,-0.298431,-0.004991,-0.00045999999999999996,0.002098,-42.869999,-18.25,-34.68,2b
2019-07-12_150252:160,-0.399109,-0.01828,-0.298431,-0.004594,-0.000918,0.002098,-42.869999,-19.0,-34.68,2b
2019-07-12_150252:180,-0.399109,-0.015747,-0.296906,-0.004594,-0.000857,0.001854,-42.869999,-19.0,-34.68,2b
2019-07-12_150252:200,-0.398071,-0.014740000000000001,-0.297913,-0.005082,-0.0010400000000000001,0.00161,-42.5,-18.68,-35.0,2b
2019-07-12_150252:220,-0.397064,-0.014221000000000001,-0.297913,-0.0054789999999999995,-0.0012230000000000001,0.0017629999999999998,-42.5,-18.68,-35.0,2b
2019-07-12_150252:240,-0.396545,-0.015747,-0.298431,-0.005906000000000001,-0.001559,0.002251,-42.5,-18.68,-35.0,2b
2019-07-12_150252:260,-0.397583,-0.016266,-0.298431,-0.006486,-0.0018030000000000001,0.0023120000000000003,-42.869999,-18.68,-35.5,2b
2019-07-12_150252:280,-0.402649,-0.01828,-0.29943800000000004,-0.006486,-0.001955,0.0021899999999999997,-42.869999,-18.68,-35.5,2b
2019-07-12_150252:300,-0.40316799999999997,-0.020325,-0.29995700000000003,-0.0065769999999999995,-0.001437,0.002098,-42.869999,-18.25,-35.5,2b
2019-07-12_150252:320,-0.401123,-0.019318000000000002,-0.300476,-0.006425,-0.0011619999999999998,0.0019149999999999998,-42.869999,-18.25,-35.5,2b
2019-07-12_150252:340,-0.401123,-0.019318000000000002,-0.29895,-0.006425,-0.0010400000000000001,0.0016710000000000002,-42.869999,-18.25,-35.5,2b
2019-07-12_150252:360,-0.397583,-0.017273,-0.300964,-0.006242,-0.001254,0.00103,-43.25,-19.0,-36.25,2b
2019-07-12_150252:380,-0.396545,-0.016753999999999998,-0.29995700000000003,-0.005967,-0.001559,0.000634,-43.25,-19.0,-36.25,2b
2019-07-12_150252:400,-0.399109,-0.015747,-0.300476,-0.005815,-0.001864,0.0009390000000000001,-42.869999,-18.68,-36.18,2b
2019-07-12_150252:420,-0.40063499999999996,-0.013213999999999998,-0.300964,-0.005601,-0.0015890000000000001,0.002098,-42.869999,-18.68,-36.18,2b
2019-07-12_150252:440,-0.402649,-0.013702,-0.300476,-0.005815,-0.000826,0.002129,-42.869999,-18.68,-36.18,2b
2019-07-12_150252:460,-0.402161,-0.011169,-0.29943800000000004,-0.006486,-0.000124,0.00161,-42.869999,-19.0,-35.0,2b
2019-07-12_150252:480,-0.398071,-0.009644,-0.297913,-0.007156999999999999,-0.000246,0.002587,-42.869999,-19.0,-35.0,2b
2019-07-12_150252:500,-0.398071,-0.012177,-0.29895,-0.007615,-0.00045999999999999996,0.003228,-42.869999,-17.870001000000002,-36.18,2b
2019-07-12_150252:520,-0.40063499999999996,-0.016266,-0.29895,-0.0077069999999999994,-0.00036899999999999997,0.003105,-42.869999,-17.870001000000002,-36.18,2b
2019-07-12_150252:540,-0.401642,-0.017792,-0.29742399999999997,-0.007156999999999999,-0.00045999999999999996,0.003624,-42.869999,-17.870001000000002,-36.18,2b
2019-07-12_150252:560,-0.401642,-0.020325,-0.300476,-0.006883,-0.000643,0.0038380000000000003,-42.5,-18.68,-34.25,2b
2019-07-12_150252:580,-0.40011599999999997,-0.019318000000000002,-0.29742399999999997,-0.005815,-0.000826,0.0034409999999999996,-42.5,-18.68,-34.25,2b
2019-07-12_150252:600,-0.40011599999999997,-0.017273,-0.297913,-0.005723,-0.000918,0.0037159999999999997,-44.369999,-18.25,-35.560001,2b
2019-07-12_150252:620,-0.39859,-0.017273,-0.29742399999999997,-0.005815,-0.0007650000000000001,0.004448,-44.369999,-18.25,-35.560001,2b
2019-07-12_150252:640,-0.40011599999999997,-0.019318000000000002,-0.296906,-0.006181,-0.000826,0.0030440000000000003,-44.369999,-18.25,-35.560001,2b
2019-07-12_150252:660,-0.399597,-0.018799,-0.29943800000000004,-0.006242,-0.0007650000000000001,0.0029219999999999997,-42.869999,-18.25,-34.75,2b
2019-07-12_150252:680,-0.398071,-0.01828,-0.296387,-0.006089,-0.000857,0.004113,-42.869999,-18.25,-34.75,2b
2019-07-12_150252:700,-0.40011599999999997,-0.021332,-0.298431,-0.005967,-0.000826,0.004113,-43.560001,-18.68,-34.75,2b
2019-07-12_150252:720,-0.40063499999999996,-0.020325,-0.29742399999999997,-0.006364,-0.0010400000000000001,0.003655,-43.560001,-18.68,-34.75,2b
2019-07-12_150252:740,-0.401123,-0.018799,-0.297913,-0.006547,-0.0011619999999999998,0.0034409999999999996,-43.560001,-18.68,-34.75,2b
2019-07-12_150252:760,-0.402649,-0.022369,-0.298431,-0.006822,-0.001101,0.0033799999999999998,-42.869999,-18.68,-34.75,2b
2019-07-12_150252:780,-0.401123,-0.023375999999999997,-0.29742399999999997,-0.006761,-0.000857,0.0028309999999999997,-42.869999,-18.68,-34.75,2b
2019-07-12_150252:800,-0.402161,-0.023895,-0.296387,-0.006639,-0.000582,0.002434,-43.25,-17.18,-34.369999,2b
2019-07-12_150252:820,-0.402649,-0.024902,-0.296906,-0.005815,-0.00036899999999999997,0.002037,-43.25,-17.18,-34.369999,2b
2019-07-12_150252:840,-0.401642,-0.023895,-0.295898,-0.005082,-0.000307,0.002098,-43.25,-17.18,-34.369999,2b
2019-07-12_150252:860,-0.402161,-0.021851,-0.294373,-0.004746,-0.000582,0.002495,-44.0,-17.870001000000002,-35.560001,2b
2019-07-12_150252:880,-0.397064,-0.020844,-0.29232800000000003,-0.0049299999999999995,-0.001254,0.002373,-44.0,-17.870001000000002,-35.560001,2b
2019-07-12_150252:900,-0.402161,-0.018799,-0.29742399999999997,-0.0054789999999999995,-0.001254,0.002098,-43.560001,-17.870001000000002,-36.25,2b
2019-07-12_150252:920,-0.402649,-0.020325,-0.296387,-0.006089,-0.0011619999999999998,0.002037,-43.560001,-17.870001000000002,-36.25,2b
2019-07-12_150252:940,-0.40316799999999997,-0.020844,-0.29538000000000003,-0.006089,-0.000918,0.002098,-43.560001,-17.870001000000002,-36.25,2b
2019-07-12_150252:960,-0.40316799999999997,-0.019806,-0.29538000000000003,-0.00615,-0.000918,0.001854,-43.560001,-17.5,-35.560001,2b
2019-07-12_150252:980,-0.40368699999999996,-0.021332,-0.296387,-0.005906000000000001,-0.000918,0.0016710000000000002,-43.560001,-17.5,-35.560001,2b
2019-07-12_150253:000,-0.402649,-0.021851,-0.29538000000000003,-0.005815,-0.000857,0.0017629999999999998,-43.560001,-18.25,-35.869999,2b
2019-07-12_150253:020,-0.398071,-0.021851,-0.293854,-0.005326,-0.001101,0.001732,-43.560001,-18.25,-35.869999,2b
2019-07-12_150253:040,-0.402161,-0.021332,-0.29538000000000003,-0.005082,-0.001437,0.001549,-43.560001,-18.25,-35.869999,2b
2019-07-12_150253:060,-0.401123,-0.020844,-0.295898,-0.004869,-0.0011619999999999998,0.0017629999999999998,-44.369999,-18.25,-35.869999,2b
2019-07-12_150253:080,-0.40570100000000003,-0.021851,-0.293854,-0.005052,-0.0010400000000000001,0.0016710000000000002,-44.369999,-18.25,-35.869999,2b
2019-07-12_150253:100,-0.404694,-0.016753999999999998,-0.295898,-0.005204,-0.000643,0.0017629999999999998,-43.25,-18.25,-36.25,2b
2019-07-12_150253:120,-0.401123,-0.017273,-0.295898,-0.005601,-0.0007650000000000001,0.0019760000000000003,-43.25,-18.25,-36.25,2b
2019-07-12_150253:140,-0.40011599999999997,-0.019318000000000002,-0.29486100000000004,-0.006181,-0.000521,0.0017929999999999999,-43.25,-18.25,-36.25,2b
2019-07-12_150253:160,-0.397583,-0.020325,-0.293335,-0.006425,-0.0009789999999999998,0.001549,-43.25,-17.870001000000002,-35.560001,2b
2019-07-12_150253:180,-0.402649,-0.021332,-0.296906,-0.006486,-0.0015890000000000001,0.001732,-43.25,-17.870001000000002,-35.560001,2b
2019-07-12_150253:200,-0.404694,-0.020844,-0.300964,-0.00615,-0.001254,0.0021899999999999997,-43.560001,-17.870001000000002,-35.060001,2b
2019-07-12_150253:220,-0.401642,-0.022369,-0.29538000000000003,-0.005906000000000001,-0.001315,0.002129,-43.560001,-17.870001000000002,-35.060001,2b
2019-07-12_150253:240,-0.40570100000000003,-0.022369,-0.296387,-0.005845,-0.000643,0.0014880000000000002,-43.560001,-17.870001000000002,-35.060001,2b
2019-07-12_150253:260,-0.401123,-0.021851,-0.294373,-0.005906000000000001,-0.000246,0.001152,-44.0,-17.5,-35.560001,2b
2019-07-12_150253:280,-0.402161,-0.020325,-0.29232800000000003,-0.005723,-0.000307,0.001091,-44.0,-17.5,-35.560001,2b
2019-07-12_150253:300,-0.404694,-0.020844,-0.293854,-0.0056619999999999995,-0.00045999999999999996,0.000878,-43.560001,-17.870001000000002,-35.560001,2b
2019-07-12_150253:320,-0.40368699999999996,-0.020325,-0.293335,-0.005723,-0.000582,0.001,-43.560001,-17.870001000000002,-35.560001,2b
2019-07-12_150253:340,-0.402649,-0.019806,-0.29180900000000004,-0.00554,-0.000704,0.001549,-43.560001,-17.870001000000002,-35.560001,2b
2019-07-12_150253:360,-0.402649,-0.020325,-0.29180900000000004,-0.00554,-0.0010400000000000001,0.0014269999999999999,-44.0,-17.5,-35.060001,2b
2019-07-12_150253:380,-0.401642,-0.018799,-0.29180900000000004,-0.005815,-0.001437,0.001396,-44.0,-17.5,-35.060001,2b
2019-07-12_150253:400,-0.402649,-0.017273,-0.291321,-0.005906000000000001,-0.001559,0.0019760000000000003,-44.0,-17.5,-34.369999,2b
2019-07-12_150253:420,-0.401123,-0.021332,-0.291321,-0.00615,-0.001559,0.0014880000000000002,-44.0,-17.5,-34.369999,2b
2019-07-12_150253:440,-0.401123,-0.020844,-0.293854,-0.006242,-0.001925,0.000878,-44.0,-17.5,-34.369999,2b
2019-07-12_150253:460,-0.401642,-0.01828,-0.294373,-0.006364,-0.002261,0.0019760000000000003,-44.0,-17.5,-35.060001,2b
2019-07-12_150253:480,-0.40316799999999997,-0.020844,-0.29232800000000003,-0.006425,-0.002261,0.002373,-44.0,-17.5,-35.060001,2b
2019-07-12_150253:500,-0.404175,-0.020844,-0.294373,-0.006547,-0.001955,0.0019760000000000003,-43.560001,-18.68,-35.560001,2b
2019-07-12_150253:520,-0.404175,-0.020325,-0.29538000000000003,-0.006639,-0.0016809999999999998,0.001549,-43.560001,-18.68,-35.560001,2b
2019-07-12_150253:540,-0.402649,-0.018799,-0.294373,-0.006822,-0.001955,0.001732,-43.560001,-18.68,-35.560001,2b
2019-07-12_150253:560,-0.404175,-0.021851,-0.296387,-0.006822,-0.001925,0.001396,-44.0,-17.870001000000002,-35.060001,2b
2019-07-12_150253:580,-0.406219,-0.020844,-0.294373,-0.0065769999999999995,-0.0015890000000000001,0.0009390000000000001,-44.0,-17.870001000000002,-35.060001,2b
2019-07-12_150253:600,-0.404694,-0.020844,-0.294373,-0.0063030000000000004,-0.001376,0.000817,-44.0,-18.25,-35.060001,2b
2019-07-12_150253:620,-0.40316799999999997,-0.019806,-0.29180900000000004,-0.006089,-0.0010400000000000001,0.001,-44.0,-18.25,-35.060001,2b
2019-07-12_150253:640,-0.401642,-0.01828,-0.29180900000000004,-0.005967,-0.0011619999999999998,0.001274,-44.0,-18.25,-35.060001,2b
2019-07-12_150253:660,-0.401642,-0.018799,-0.293854,-0.005784,-0.0012230000000000001,0.001732,-43.25,-18.68,-35.560001,2b
2019-07-12_150253:680,-0.402649,-0.017792,-0.29284699999999997,-0.005906000000000001,-0.001498,0.001396,-43.25,-18.68,-35.560001,2b
2019-07-12_150253:700,-0.40316799999999997,-0.017273,-0.29284699999999997,-0.005967,-0.001376,0.0014880000000000002,-44.0,-17.870001000000002,-34.369999,2b
2019-07-12_150253:720,-0.40316799999999997,-0.01828,-0.293854,-0.006089,-0.001376,0.0016710000000000002,-44.0,-17.870001000000002,-34.369999,2b
2019-07-12_150253:740,-0.40368699999999996,-0.01828,-0.293854,-0.00615,-0.001498,0.0017929999999999999,-44.0,-17.870001000000002,-34.369999,2b
2019-07-12_150253:760,-0.404694,-0.019806,-0.29486100000000004,-0.005967,-0.001498,0.0017929999999999999,-43.560001,-17.870001000000002,-35.060001,2b
2019-07-12_150253:780,-0.40316799999999997,-0.019806,-0.293335,-0.005815,-0.001376,0.0019760000000000003,-43.560001,-17.870001000000002,-35.060001,2b
2019-07-12_150253:800,-0.402161,-0.019318000000000002,-0.29486100000000004,-0.005601,-0.0011619999999999998,0.0017629999999999998,-43.560001,-18.25,-35.060001,2b
2019-07-12_150253:820,-0.40316799999999997,-0.019318000000000002,-0.293335,-0.005204,-0.001376,0.001549,-43.560001,-18.25,-35.060001,2b
2019-07-12_150253:840,-0.40368699999999996,-0.017792,-0.29284699999999997,-0.005204,-0.001254,0.00161,-43.560001,-18.25,-35.060001,2b
2019-07-12_150253:860,-0.40570100000000003,-0.01828,-0.29486100000000004,-0.005143,-0.001376,0.001854,-43.560001,-18.68,-34.369999,2b
2019-07-12_150253:880,-0.40570100000000003,-0.016266,-0.293335,-0.005326,-0.0012230000000000001,0.002037,-43.560001,-18.68,-34.369999,2b
2019-07-12_150253:900,-0.404175,-0.017792,-0.293335,-0.005784,-0.0009789999999999998,0.0021899999999999997,-44.0,-17.870001000000002,-34.369999,2b
2019-07-12_150253:920,-0.401642,-0.019806,-0.29284699999999997,-0.006181,-0.000521,0.001732,-44.0,-17.870001000000002,-34.369999,2b
2019-07-12_150253:940,-0.402649,-0.019806,-0.293854,-0.006639,-0.0011619999999999998,0.001274,-44.0,-17.870001000000002,-34.369999,2b
2019-07-12_150253:960,-0.404694,-0.019806,-0.294373,-0.006486,-0.001254,0.0014880000000000002,-43.25,-17.18,-34.75,2b
2019-07-12_150253:980,-0.404175,-0.019318000000000002,-0.29232800000000003,-0.00615,-0.001437,0.0021899999999999997,-43.25,-17.18,-34.75,2b
2019-07-12_150254:000,-0.40368699999999996,-0.020844,-0.29180900000000004,-0.005845,-0.001437,0.002526,-43.560001,-17.870001000000002,-35.060001,2b
2019-07-12_150254:020,-0.405212,-0.021332,-0.29232800000000003,-0.005723,-0.0009789999999999998,0.001854,-43.560001,-17.870001000000002,-35.060001,2b
2019-07-12_150254:040,-0.402649,-0.019806,-0.291321,-0.005601,-0.000704,0.001,-43.560001,-17.870001000000002,-35.060001,2b
2019-07-12_150254:060,-0.404175,-0.019806,-0.29180900000000004,-0.005448,-0.000643,0.00103,-43.560001,-17.870001000000002,-35.560001,2b
2019-07-12_150254:080,-0.40570100000000003,-0.020325,-0.290283,-0.005265,-0.0007650000000000001,0.001091,-43.560001,-17.870001000000002,-35.560001,2b
2019-07-12_150254:100,-0.40570100000000003,-0.017273,-0.290802,-0.005386999999999999,-0.0007650000000000001,0.0007559999999999999,-43.560001,-17.870001000000002,-35.560001,2b
2019-07-12_150254:120,-0.402649,-0.01828,-0.290283,-0.005386999999999999,-0.001101,0.0009390000000000001,-44.0,-18.68,-33.869999,2b
2019-07-12_150254:140,-0.404694,-0.017273,-0.290283,-0.0054789999999999995,-0.001437,0.001152,-44.0,-18.68,-33.869999,2b
2019-07-12_150254:160,-0.404694,-0.016753999999999998,-0.290802,-0.0056619999999999995,-0.001559,0.00103,-44.0,-17.870001000000002,-35.060001,2b
2019-07-12_150254:180,-0.404694,-0.015747,-0.290283,-0.005845,-0.0018030000000000001,0.0014269999999999999,-44.0,-17.870001000000002,-35.060001,2b
2019-07-12_150254:200,-0.40368699999999996,-0.019318000000000002,-0.291321,-0.005906000000000001,-0.0015890000000000001,0.001854,-43.25,-18.25,-34.369999,2b
2019-07-12_150254:220,-0.404175,-0.016753999999999998,-0.291321,-0.00615,-0.001864,0.0009390000000000001,-43.25,-18.25,-34.369999,2b
2019-07-12_150254:240,-0.402649,-0.016753999999999998,-0.29284699999999997,-0.005967,-0.0022,0.000817,-43.25,-18.25,-34.369999,2b
2019-07-12_150254:260,-0.404175,-0.017792,-0.293335,-0.005906000000000001,-0.002016,0.0023120000000000003,-44.369999,-18.68,-33.869999,2b
2019-07-12_150254:280,-0.405212,-0.016753999999999998,-0.294373,-0.005723,-0.002078,0.002251,-44.369999,-18.68,-33.869999,2b
2019-07-12_150254:300,-0.406219,-0.015747,-0.294373,-0.005967,-0.0018030000000000001,0.0014269999999999999,-44.369999,-18.68,-33.869999,2b
2019-07-12_150254:320,-0.404175,-0.017273,-0.29284699999999997,-0.00615,-0.0016809999999999998,0.001854,-43.560001,-18.68,-35.060001,2b
2019-07-12_150254:340,-0.404175,-0.01828,-0.293854,-0.00615,-0.001437,0.0017629999999999998,-43.560001,-18.68,-35.060001,2b
2019-07-12_150254:360,-0.405212,-0.018799,-0.293335,-0.00615,-0.0012230000000000001,0.001274,-43.25,-18.68,-34.75,2b
2019-07-12_150254:380,-0.404694,-0.019806,-0.29284699999999997,-0.005906000000000001,-0.000918,0.0014269999999999999,-43.25,-18.68,-34.75,2b
2019-07-12_150254:400,-0.40316799999999997,-0.01828,-0.29232800000000003,-0.00554,-0.000826,0.0016710000000000002,-43.25,-17.870001000000002,-34.75,2b
2019-07-12_150254:420,-0.402649,-0.016753999999999998,-0.29232800000000003,-0.005326,-0.001101,0.0014269999999999999,-43.25,-17.870001000000002,-34.75,2b
2019-07-12_150254:440,-0.40316799999999997,-0.014740000000000001,-0.290283,-0.005386999999999999,-0.001101,0.0016710000000000002,-43.25,-17.870001000000002,-34.75,2b
2019-07-12_150254:460,-0.404175,-0.015228,-0.29232800000000003,-0.005784,-0.001315,0.001732,-43.560001,-17.870001000000002,-34.369999,2b
2019-07-12_150254:480,-0.407227,-0.016266,-0.28927600000000003,-0.005906000000000001,-0.0010400000000000001,0.0019760000000000003,-43.560001,-17.870001000000002,-34.369999,2b
2019-07-12_150254:500,-0.40570100000000003,-0.017273,-0.290802,-0.006181,-0.001101,0.0019760000000000003,-43.560001,-17.870001000000002,-34.369999,2b
2019-07-12_150254:520,-0.404175,-0.018799,-0.290283,-0.006028,-0.0009789999999999998,0.002037,-43.560001,-18.25,-35.060001,2b
2019-07-12_150254:540,-0.40368699999999996,-0.017792,-0.28875700000000004,-0.005845,-0.001101,0.0017629999999999998,-43.560001,-18.25,-35.060001,2b
2019-07-12_150254:560,-0.402649,-0.018799,-0.28979499999999997,-0.005723,-0.0012230000000000001,0.001396,-44.369999,-19.0,-35.060001,2b
2019-07-12_150254:580,-0.402649,-0.018799,-0.28927600000000003,-0.0054789999999999995,-0.001376,0.00161,-44.369999,-19.0,-35.060001,2b
2019-07-12_150254:600,-0.402161,-0.016753999999999998,-0.290802,-0.005265,-0.001955,0.001732,-44.369999,-19.0,-35.060001,2b
2019-07-12_150254:620,-0.40570100000000003,-0.015747,-0.290283,-0.0054789999999999995,-0.001955,0.0019149999999999998,-43.560001,-18.68,-35.060001,2b
2019-07-12_150254:640,-0.40823400000000004,-0.01828,-0.29180900000000004,-0.0054789999999999995,-0.002261,0.001854,-43.560001,-18.68,-35.060001,2b
2019-07-12_150254:660,-0.40823400000000004,-0.01828,-0.29232800000000003,-0.005601,-0.001559,0.0016710000000000002,-43.560001,-17.5,-33.869999,2b
2019-07-12_150254:680,-0.404175,-0.017273,-0.290283,-0.005601,-0.001498,0.0019149999999999998,-43.560001,-17.5,-33.869999,2b
2019-07-12_150254:700,-0.404694,-0.016753999999999998,-0.29232800000000003,-0.0056619999999999995,-0.001437,0.0019760000000000003,-43.560001,-17.5,-33.869999,2b
2019-07-12_150254:720,-0.401123,-0.016753999999999998,-0.290802,-0.006181,-0.001437,0.0014880000000000002,-44.0,-18.68,-34.75,2b
2019-07-12_150254:740,-0.402649,-0.016753999999999998,-0.29232800000000003,-0.006242,-0.0016809999999999998,0.001335,-44.0,-18.68,-34.75,2b
2019-07-12_150254:760,-0.404175,-0.018799,-0.293854,-0.006089,-0.002016,0.00161,-44.0,-18.68,-34.75,2b
2019-07-12_150254:780,-0.40368699999999996,-0.017792,-0.291321,-0.005967,-0.0022,0.002373,-44.0,-18.68,-34.75,2b
2019-07-12_150254:800,-0.406738,-0.017792,-0.293854,-0.0056619999999999995,-0.00162,0.00277,-44.0,-18.68,-34.75,2b
2019-07-12_150254:820,-0.40570100000000003,-0.01828,-0.29284699999999997,-0.005845,-0.0012230000000000001,0.0019760000000000003,-44.0,-18.25,-33.869999,2b
2019-07-12_150254:840,-0.404694,-0.017792,-0.290802,-0.00615,-0.000643,0.001854,-44.0,-18.25,-33.869999,2b
2019-07-12_150254:860,-0.404694,-0.019318000000000002,-0.29180900000000004,-0.006028,-0.0007650000000000001,0.002098,-43.560001,-17.870001000000002,-34.75,2b
2019-07-12_150254:880,-0.40570100000000003,-0.020325,-0.28875700000000004,-0.005967,-0.000918,0.00161,-43.560001,-17.870001000000002,-34.75,2b
2019-07-12_150254:900,-0.404694,-0.019318000000000002,-0.28979499999999997,-0.005845,-0.0010400000000000001,0.0017629999999999998,-43.560001,-17.870001000000002,-34.75,2b
2019-07-12_150254:920,-0.404175,-0.020844,-0.290283,-0.0056619999999999995,-0.001559,0.0019149999999999998,-43.560001,-18.68,-34.369999,2b
2019-07-12_150254:940,-0.40570100000000003,-0.019318000000000002,-0.28979499999999997,-0.005448,-0.0018030000000000001,0.001549,-43.560001,-18.68,-34.369999,2b
2019-07-12_150254:960,-0.404175,-0.016753999999999998,-0.288269,-0.005601,-0.001864,0.001732,-44.0,-18.25,-34.369999,2b
2019-07-12_150254:980,-0.40368699999999996,-0.016266,-0.290802,-0.005723,-0.0016809999999999998,0.002373,-44.0,-18.25,-34.369999,2b
2019-07-12_150255:000,-0.404694,-0.019318000000000002,-0.28927600000000003,-0.005967,-0.001955,0.001732,-44.0,-18.25,-34.369999,2b
2019-07-12_150255:020,-0.404694,-0.017792,-0.29284699999999997,-0.006089,-0.0022,0.000634,-44.0,-18.25,-34.369999,2b
2019-07-12_150255:040,-0.404175,-0.017792,-0.291321,-0.005906000000000001,-0.002016,0.0019760000000000003,-44.0,-18.25,-34.369999,2b
2019-07-12_150255:060,-0.406219,-0.019318000000000002,-0.293854,-0.0056619999999999995,-0.002139,0.002648,-43.560001,-18.68,-33.869999,2b
2019-07-12_150255:080,-0.40570100000000003,-0.017273,-0.29232800000000003,-0.005784,-0.0017420000000000003,0.001549,-43.560001,-18.68,-33.869999,2b
2019-07-12_150255:100,-0.404175,-0.015747,-0.29232800000000003,-0.005967,-0.001864,0.001396,-43.560001,-18.68,-33.869999,2b
2019-07-12_150255:120,-0.40570100000000003,-0.01828,-0.293854,-0.006028,-0.001955,0.002037,-43.25,-19.0,-34.75,2b
2019-07-12_150255:140,-0.404175,-0.01828,-0.29284699999999997,-0.006089,-0.001437,0.0017929999999999999,-43.25,-19.0,-34.75,2b
2019-07-12_150255:160,-0.406219,-0.019318000000000002,-0.29284699999999997,-0.006181,-0.001315,0.001549,-44.369999,-17.870001000000002,-34.75,2b
2019-07-12_150255:180,-0.40570100000000003,-0.019806,-0.29180900000000004,-0.005784,-0.001101,0.001732,-44.369999,-17.870001000000002,-34.75,2b
2019-07-12_150255:200,-0.404694,-0.017792,-0.291321,-0.005448,-0.001254,0.0017629999999999998,-44.369999,-17.870001000000002,-34.75,2b
2019-07-12_150255:220,-0.404175,-0.016753999999999998,-0.291321,-0.005326,-0.001376,0.0021899999999999997,-43.560001,-19.0,-34.75,2b
2019-07-12_150255:240,-0.404694,-0.016266,-0.290802,-0.005601,-0.001376,0.002434,-43.560001,-19.0,-34.75,2b
2019-07-12_150255:260,-0.404694,-0.016266,-0.291321,-0.005845,-0.001437,0.002098,-42.869999,-17.5,-35.060001,2b
2019-07-12_150255:280,-0.40368699999999996,-0.017273,-0.288269,-0.006242,-0.0015890000000000001,0.002098,-42.869999,-17.5,-35.060001,2b
2019-07-12_150255:300,-0.405212,-0.019318000000000002,-0.28979499999999997,-0.006364,-0.00162,0.002037,-42.869999,-17.5,-35.060001,2b
2019-07-12_150255:320,-0.405212,-0.019318000000000002,-0.28979499999999997,-0.006242,-0.0017420000000000003,0.002098,-43.560001,-18.25,-34.75,2b
2019-07-12_150255:340,-0.405212,-0.018799,-0.290283,-0.006181,-0.0018030000000000001,0.002037,-43.560001,-18.25,-34.75,2b
2019-07-12_150255:360,-0.404694,-0.019806,-0.290802,-0.00615,-0.0017420000000000003,0.002129,-43.25,-17.870001000000002,-34.369999,2b
2019-07-12_150255:380,-0.402649,-0.01828,-0.28927600000000003,-0.005906000000000001,-0.001955,0.001854,-43.25,-17.870001000000002,-34.369999,2b
2019-07-12_150255:400,-0.401642,-0.018799,-0.291321,-0.00554,-0.002016,0.002037,-43.25,-17.870001000000002,-34.369999,2b
2019-07-12_150255:420,-0.40368699999999996,-0.015747,-0.29180900000000004,-0.005386999999999999,-0.002657,0.002373,-43.560001,-19.0,-34.369999,2b
2019-07-12_150255:440,-0.40823400000000004,-0.016753999999999998,-0.29284699999999997,-0.0056619999999999995,-0.0025960000000000002,0.002648,-43.560001,-19.0,-34.369999,2b
2019-07-12_150255:460,-0.40976,-0.017273,-0.29284699999999997,-0.005967,-0.002261,0.002709,-44.369999,-17.870001000000002,-34.75,2b
2019-07-12_150255:480,-0.409271,-0.018799,-0.29180900000000004,-0.006242,-0.0015890000000000001,0.002434,-44.369999,-17.870001000000002,-34.75,2b
2019-07-12_150255:500,-0.404175,-0.019318000000000002,-0.291321,-0.006486,-0.001101,0.002434,-44.369999,-17.870001000000002,-34.75,2b
2019-07-12_150255:520,-0.401123,-0.020844,-0.290802,-0.0065769999999999995,-0.0011619999999999998,0.002098,-43.25,-17.5,-33.869999,2b
2019-07-12_150255:540,-0.40063499999999996,-0.021332,-0.290283,-0.006364,-0.0016809999999999998,0.001854,-43.25,-17.5,-33.869999,2b
2019-07-12_150255:560,-0.404175,-0.020844,-0.293854,-0.00615,-0.0022,0.001732,-44.0,-17.870001000000002,-34.369999,2b
2019-07-12_150255:580,-0.40368699999999996,-0.019318000000000002,-0.29232800000000003,-0.005784,-0.002322,0.002129,-44.0,-17.870001000000002,-34.369999,2b
2019-07-12_150255:600,-0.406219,-0.019318000000000002,-0.293854,-0.005448,-0.002078,0.0030440000000000003,-44.0,-17.870001000000002,-34.369999,2b
2019-07-12_150255:620,-0.407227,-0.01828,-0.29284699999999997,-0.0056619999999999995,-0.001315,0.002373,-43.560001,-18.25,-35.560001,2b
2019-07-12_150255:640,-0.402649,-0.016753999999999998,-0.29180900000000004,-0.00615,-0.001101,0.0019149999999999998,-43.560001,-18.25,-35.560001,2b
2019-07-12_150255:660,-0.405212,-0.017273,-0.291321,-0.006364,-0.0009789999999999998,0.0023120000000000003,-43.560001,-17.5,-34.75,2b
2019-07-12_150255:680,-0.40570100000000003,-0.020325,-0.28875700000000004,-0.006822,-0.001101,0.002098,-43.560001,-17.5,-34.75,2b
2019-07-12_150255:700,-0.404694,-0.019806,-0.28927600000000003,-0.006639,-0.001376,0.0019149999999999998,-43.560001,-17.5,-34.75,2b
2019-07-12_150255:720,-0.404694,-0.020325,-0.290283,-0.006425,-0.0015890000000000001,0.002526,-44.0,-17.870001000000002,-35.060001,2b
2019-07-12_150255:740,-0.406738,-0.021332,-0.290802,-0.006089,-0.0018030000000000001,0.002373,-44.0,-17.870001000000002,-35.060001,2b
2019-07-12_150255:760,-0.402161,-0.019806,-0.290802,-0.005906000000000001,-0.002139,0.0019760000000000003,-44.0,-17.5,-34.75,2b
2019-07-12_150255:780,-0.40368699999999996,-0.01828,-0.290802,-0.005784,-0.002261,0.002709,-44.0,-17.5,-34.75,2b
2019-07-12_150255:800,-0.402161,-0.020844,-0.29180900000000004,-0.005815,-0.002261,0.002434,-44.0,-17.5,-34.75,2b
2019-07-12_150255:820,-0.402649,-0.018799,-0.29284699999999997,-0.005967,-0.002322,0.001091,-43.560001,-18.25,-34.369999,2b
2019-07-12_150255:840,-0.402649,-0.017273,-0.29232800000000003,-0.005906000000000001,-0.0025960000000000002,0.0016710000000000002,-43.560001,-18.25,-34.369999,2b
2019-07-12_150255:860,-0.405212,-0.019806,-0.293335,-0.005906000000000001,-0.002657,0.003105,-43.560001,-17.870001000000002,-34.75,2b
2019-07-12_150255:880,-0.406219,-0.019806,-0.29284699999999997,-0.006242,-0.0024129999999999998,0.002373,-43.560001,-17.870001000000002,-34.75,2b
2019-07-12_150255:900,-0.40570100000000003,-0.020325,-0.29486100000000004,-0.006486,-0.0017420000000000003,0.0017629999999999998,-43.560001,-17.870001000000002,-34.75,2b
2019-07-12_150255:920,-0.405212,-0.020844,-0.29538000000000003,-0.0065769999999999995,-0.0016809999999999998,0.0019760000000000003,-44.0,-17.5,-34.369999,2b
2019-07-12_150255:940,-0.405212,-0.021851,-0.29538000000000003,-0.0063030000000000004,-0.001559,0.001854,-44.0,-17.5,-34.369999,2b
2019-07-12_150255:960,-0.40316799999999997,-0.020325,-0.293854,-0.005967,-0.001376,0.00161,-43.560001,-17.870001000000002,-35.060001,2b
2019-07-12_150255:980,-0.404175,-0.020844,-0.29232800000000003,-0.005723,-0.001254,0.001732,-43.560001,-17.870001000000002,-35.060001,2b
2019-07-12_150256:000,-0.404175,-0.020844,-0.294373,-0.005386999999999999,-0.0011619999999999998,0.00161,-43.560001,-17.870001000000002,-35.060001,2b
2019-07-12_150256:020,-0.404694,-0.017792,-0.29232800000000003,-0.005386999999999999,-0.0011619999999999998,0.0017929999999999999,-43.560001,-18.68,-34.369999,2b
2019-07-12_150256:040,-0.40570100000000003,-0.016266,-0.29180900000000004,-0.005386999999999999,-0.001254,0.002373,-43.560001,-18.68,-34.369999,2b
2019-07-12_150256:060,-0.40316799999999997,-0.01828,-0.29180900000000004,-0.0056619999999999995,-0.001101,0.0021899999999999997,-42.5,-17.5,-35.869999,2b
2019-07-12_150256:080,-0.404175,-0.018799,-0.290802,-0.005845,-0.001254,0.002251,-42.5,-17.5,-35.869999,2b
2019-07-12_150256:100,-0.40368699999999996,-0.01828,-0.293335,-0.006181,-0.001254,0.002373,-42.5,-17.5,-35.869999,2b
2019-07-12_150256:120,-0.40368699999999996,-0.020325,-0.290802,-0.006181,-0.001437,0.0021899999999999997,-43.25,-17.870001000000002,-35.560001,2b
2019-07-12_150256:140,-0.40570100000000003,-0.019806,-0.290802,-0.006181,-0.0015890000000000001,0.0023120000000000003,-43.25,-17.870001000000002,-35.560001,2b
2019-07-12_150256:160,-0.406738,-0.020844,-0.291321,-0.00615,-0.001559,0.0023120000000000003,-44.0,-18.25,-35.060001,2b
2019-07-12_150256:180,-0.404694,-0.021332,-0.290283,-0.005906000000000001,-0.001437,0.002037,-44.0,-18.25,-35.060001,2b
2019-07-12_150256:200,-0.402649,-0.021851,-0.291321,-0.005601,-0.001376,0.0019760000000000003,-44.0,-18.25,-35.060001,2b
2019-07-12_150256:220,-0.40368699999999996,-0.021332,-0.29180900000000004,-0.005448,-0.0015890000000000001,0.002037,-44.369999,-17.870001000000002,-34.75,2b
2019-07-12_150256:240,-0.406738,-0.019806,-0.29284699999999997,-0.005601,-0.0017420000000000003,0.002129,-44.369999,-17.870001000000002,-34.75,2b
2019-07-12_150256:260,-0.406738,-0.021332,-0.29180900000000004,-0.005723,-0.0017420000000000003,0.002098,-43.560001,-18.25,-34.369999,2b
2019-07-12_150256:280,-0.408752,-0.021851,-0.290802,-0.005723,-0.001559,0.0019760000000000003,-43.560001,-18.25,-34.369999,2b
2019-07-12_150256:300,-0.402649,-0.019806,-0.29232800000000003,-0.005906000000000001,-0.0012230000000000001,0.0019760000000000003,-43.560001,-18.25,-34.369999,2b
2019-07-12_150256:320,-0.405212,-0.021332,-0.291321,-0.005967,-0.001254,0.0021899999999999997,-44.0,-17.870001000000002,-35.560001,2b
2019-07-12_150256:340,-0.401642,-0.023375999999999997,-0.290283,-0.006089,-0.001498,0.0017929999999999999,-44.0,-17.870001000000002,-35.560001,2b
2019-07-12_150256:360,-0.402649,-0.023375999999999997,-0.29232800000000003,-0.005967,-0.0018030000000000001,0.001335,-44.0,-17.870001000000002,-33.869999,2b
2019-07-12_150256:380,-0.405212,-0.021851,-0.29180900000000004,-0.005723,-0.002016,0.001549,-44.0,-17.870001000000002,-33.869999,2b
