timestamp,AccX,AccY,AccZ,GyroX,GyroY,GyroZ,MagX,MagY,MagZ,Activity
2019-07-12_110321:360,-0.49316400000000005,0.026427999999999997,-0.095581,-0.004459,-0.00246,0.004548,-54.5,-22.370001000000002,-12.68,2a
2019-07-12_110321:380,-0.490112,0.025908999999999998,-0.09454299999999999,-0.004612,-0.002796,0.004793,-54.5,-22.370001000000002,-12.68,2a
2019-07-12_110321:400,-0.48754899999999995,0.024384,-0.094055,-0.005039,-0.002643,0.004396,-54.5,-22.370001000000002,-11.18,2a
2019-07-12_110321:420,-0.48300200000000004,0.026917,-0.090485,-0.005375,-0.002643,0.0039689999999999994,-54.5,-22.370001000000002,-11.18,2a
2019-07-12_110321:440,-0.48196400000000006,0.027954000000000003,-0.091003,-0.005741,-0.002307,0.004915,-54.5,-22.370001000000002,-11.18,2a
2019-07-12_110321:460,-0.48095699999999997,0.025421,-0.092529,-0.0061070000000000004,-0.0023989999999999997,0.005861,-54.18,-23.059998999999998,-11.5,2a
2019-07-12_110321:480,-0.48349,0.024902,-0.09149199999999999,-0.006229,-0.002643,0.006044,-54.18,-23.059998999999998,-11.5,2a
2019-07-12_110321:500,-0.488068,0.022858,-0.09201000000000001,-0.006504,-0.0038640000000000002,0.006379,-54.5,-23.059998999999998,-12.25,2a
2019-07-12_110321:520,-0.492645,0.022369,-0.08996599999999999,-0.006412,-0.004321,0.006593000000000001,-54.5,-23.059998999999998,-12.25,2a
2019-07-12_110321:540,-0.49468999999999996,0.021332,-0.089478,-0.006626000000000001,-0.004229999999999999,0.006257,-54.5,-23.059998999999998,-12.25,2a
2019-07-12_110321:560,-0.495697,0.019806,-0.087952,-0.00629,-0.003436,0.006379,-55.560001,-23.059998999999998,-10.68,2a
2019-07-12_110321:580,-0.49517799999999995,0.019806,-0.08996599999999999,-0.005954,-0.002735,0.006379,-55.560001,-23.059998999999998,-10.68,2a
2019-07-12_110321:600,-0.49111899999999997,0.019806,-0.08843999999999999,-0.005558,-0.002246,0.005464,-55.25,-22.75,-10.25,2a
2019-07-12_110321:620,-0.48196400000000006,0.022369,-0.08996599999999999,-0.005161,-0.002918,0.004671,-55.25,-22.75,-10.25,2a
2019-07-12_110321:640,-0.48706099999999997,0.022858,-0.090485,-0.005039,-0.00426,0.004945000000000001,-55.25,-22.75,-10.25,2a
2019-07-12_110321:660,-0.489075,0.022858,-0.08843999999999999,-0.005558,-0.004779,0.006257,-54.869999,-22.75,-11.87,2a
2019-07-12_110321:680,-0.491638,0.021332,-0.088959,-0.006229,-0.005054,0.006318,-54.869999,-22.75,-11.87,2a
2019-07-12_110321:700,-0.494171,0.020325,-0.090485,-0.0067480000000000005,-0.004993,0.004945000000000001,-54.5,-22.75,-10.25,2a
2019-07-12_110321:720,-0.495697,0.020844,-0.088959,-0.006809,-0.004961999999999999,0.003633,-54.5,-22.75,-10.25,2a
2019-07-12_110321:740,-0.501282,0.020325,-0.08743300000000001,-0.0067480000000000005,-0.005054,0.002687,-54.5,-22.75,-10.25,2a
2019-07-12_110321:760,-0.500793,0.019806,-0.086426,-0.006351,-0.004229999999999999,0.002382,-54.869999,-22.0,-11.18,2a
2019-07-12_110321:780,-0.496216,0.021332,-0.085388,-0.005436,-0.00365,0.0032359999999999997,-54.869999,-22.0,-11.18,2a
2019-07-12_110321:800,-0.49365200000000004,0.020325,-0.083862,-0.004764,-0.0031309999999999997,0.0037549999999999997,-55.25,-22.75,-10.25,2a
2019-07-12_110321:820,-0.48754899999999995,0.022369,-0.082336,-0.004123,-0.00307,0.0037549999999999997,-55.25,-22.75,-10.25,2a
2019-07-12_110321:840,-0.489075,0.022369,-0.085388,-0.003483,-0.003314,0.004152,-55.25,-22.75,-10.25,2a
2019-07-12_110321:860,-0.482483,0.021332,-0.082855,-0.003849,-0.003925,0.004274,-54.869999,-22.75,-11.18,2a
2019-07-12_110321:880,-0.484009,0.021851,-0.084381,-0.003879,-0.004718,0.003358,-54.869999,-22.75,-11.18,2a
2019-07-12_110321:900,-0.484497,0.024384,-0.086426,-0.0042450000000000005,-0.005878,0.002839,-54.869999,-22.370001000000002,-11.18,2a
2019-07-12_110321:920,-0.48553500000000005,0.025421,-0.084381,-0.004886,-0.006397,0.003511,-54.869999,-22.370001000000002,-11.18,2a
2019-07-12_110321:940,-0.48706099999999997,0.024902,-0.084381,-0.005619,-0.006670999999999999,0.003572,-54.869999,-22.370001000000002,-11.18,2a
2019-07-12_110321:960,-0.48553500000000005,0.025421,-0.0849,-0.006412,-0.006397,0.003175,-54.5,-22.75,-10.25,2a
2019-07-12_110321:980,-0.48553500000000005,0.024902,-0.08590700000000001,-0.00687,-0.006092,0.00345,-54.5,-22.75,-10.25,2a
2019-07-12_110322:000,-0.486023,0.023895,-0.087952,-0.007206000000000001,-0.0061530000000000005,0.0039689999999999994,-54.5,-22.370001000000002,-11.87,2a
2019-07-12_110322:020,-0.489075,0.022858,-0.087952,-0.007206000000000001,-0.006092,0.004396,-54.5,-22.370001000000002,-11.87,2a
2019-07-12_110322:040,-0.492645,0.022858,-0.088959,-0.00687,-0.006092,0.004548,-54.5,-22.370001000000002,-11.87,2a
2019-07-12_110322:060,-0.488068,0.021851,-0.095581,-0.0065650000000000005,-0.006275,0.004671,-55.25,-22.75,-10.0,2a
2019-07-12_110322:080,-0.490601,0.023375999999999997,-0.086426,-0.006168,-0.006275,0.004793,-55.25,-22.75,-10.0,2a
2019-07-12_110322:100,-0.498749,0.022858,-0.08843999999999999,-0.005558,-0.005115,0.005525,-54.869999,-22.0,-11.18,2a
2019-07-12_110322:120,-0.50943,0.022369,-0.08996599999999999,-0.004978,-0.0045049999999999995,0.00525,-54.869999,-22.0,-11.18,2a
2019-07-12_110322:140,-0.503845,0.023895,-0.090485,-0.004459,-0.004718,0.004548,-54.869999,-22.0,-11.18,2a
2019-07-12_110322:160,-0.49823,0.023895,-0.08743300000000001,-0.00394,-0.0052369999999999995,0.005311,-55.25,-22.75,-10.68,2a
2019-07-12_110322:180,-0.494171,0.022858,-0.083862,-0.003849,-0.004383,0.004518,-55.25,-22.75,-10.68,2a
2019-07-12_110322:200,-0.490601,0.023375999999999997,-0.086426,-0.004275999999999999,-0.0038640000000000002,0.002229,-55.560001,-22.370001000000002,-10.68,2a
2019-07-12_110322:220,-0.489075,0.023895,-0.085388,-0.004062,-0.004047,0.001832,-55.560001,-22.370001000000002,-10.68,2a
2019-07-12_110322:240,-0.490112,0.023375999999999997,-0.084381,-0.003544,-0.004444,0.003297,-55.560001,-22.370001000000002,-10.68,2a
2019-07-12_110322:260,-0.489594,0.022858,-0.082855,-0.0033299999999999996,-0.0045049999999999995,0.004182,-55.560001,-22.370001000000002,-10.68,2a
2019-07-12_110322:280,-0.48654200000000003,0.024902,-0.082336,-0.0033909999999999995,-0.004444,0.004457,-55.560001,-22.370001000000002,-10.68,2a
2019-07-12_110322:300,-0.48095699999999997,0.024902,-0.082855,-0.003483,-0.0045049999999999995,0.005128,-55.25,-22.370001000000002,-10.0,2a
2019-07-12_110322:320,-0.47943100000000005,0.025421,-0.082855,-0.004062,-0.005176,0.006074,-55.25,-22.370001000000002,-10.0,2a
2019-07-12_110322:340,-0.48349,0.023895,-0.086914,-0.004642,-0.005817,0.006318,-55.25,-22.370001000000002,-10.0,2a
2019-07-12_110322:360,-0.48300200000000004,0.023895,-0.086426,-0.005619,-0.006458,0.005861,-54.5,-23.059998999999998,-10.25,2a
2019-07-12_110322:380,-0.490601,0.024384,-0.08843999999999999,-0.00629,-0.007129000000000001,0.005464,-54.5,-23.059998999999998,-10.25,2a
2019-07-12_110322:400,-0.49823,0.023375999999999997,-0.08996599999999999,-0.0069,-0.007129000000000001,0.005464,-54.560001,-22.0,-10.68,2a
2019-07-12_110322:420,-0.502319,0.021851,-0.086426,-0.00748,-0.006488,0.006257,-54.560001,-22.0,-10.68,2a
2019-07-12_110322:440,-0.504333,0.018799,-0.087952,-0.007816,-0.005817,0.006593000000000001,-54.560001,-22.0,-10.68,2a
2019-07-12_110322:460,-0.503326,0.015228,-0.086426,-0.007816,-0.004901,0.005586,-55.25,-22.75,-11.18,2a
2019-07-12_110322:480,-0.501282,0.015228,-0.083862,-0.007297,-0.00426,0.004213000000000001,-55.25,-22.75,-11.18,2a
2019-07-12_110322:500,-0.49722299999999997,0.014221000000000001,-0.083862,-0.006626000000000001,-0.004596,0.003297,-55.25,-23.5,-11.18,2a
2019-07-12_110322:520,-0.496216,0.014740000000000001,-0.081848,-0.005679999999999999,-0.00484,0.0027170000000000002,-55.25,-23.5,-11.18,2a
2019-07-12_110322:540,-0.490601,0.016753999999999998,-0.081329,-0.004886,-0.005115,0.002321,-55.25,-23.5,-11.18,2a
2019-07-12_110322:560,-0.48654200000000003,0.017273,-0.081329,-0.003879,-0.0055119999999999995,0.002443,-55.25,-22.0,-10.0,2a
2019-07-12_110322:580,-0.48095699999999997,0.020844,-0.081848,-0.002872,-0.005939,0.002229,-55.25,-22.0,-10.0,2a
2019-07-12_110322:600,-0.47943100000000005,0.023375999999999997,-0.082336,-0.002353,-0.006397,0.002046,-54.5,-22.75,-11.18,2a
2019-07-12_110322:620,-0.47280900000000003,0.025908999999999998,-0.083374,-0.002475,-0.00719,0.0027170000000000002,-54.5,-22.75,-11.18,2a
2019-07-12_110322:640,-0.472321,0.025421,-0.086426,-0.002872,-0.008197,0.00345,-54.5,-22.75,-11.18,2a
2019-07-12_110322:660,-0.47842399999999996,0.028961,-0.08843999999999999,-0.004001,-0.008747,0.0034189999999999997,-54.869999,-22.75,-10.25,2a
2019-07-12_110322:680,-0.48349,0.029480000000000003,-0.090485,-0.0051,-0.009265,0.00403,-54.869999,-22.75,-10.25,2a
2019-07-12_110322:700,-0.49111899999999997,0.026917,-0.09149199999999999,-0.006351,-0.008655,0.005128,-54.869999,-22.75,-12.25,2a
2019-07-12_110322:720,-0.49823,0.025421,-0.09201000000000001,-0.007297,-0.007587000000000001,0.00525,-54.869999,-22.75,-12.25,2a
2019-07-12_110322:740,-0.501282,0.022858,-0.097595,-0.007816,-0.0066099999999999996,0.005067,-54.869999,-22.75,-12.25,2a
2019-07-12_110322:760,-0.494171,0.023375999999999997,-0.09301799999999999,-0.007816,-0.006,0.00525,-54.5,-22.0,-11.87,2a
2019-07-12_110322:780,-0.502319,0.022369,-0.09201000000000001,-0.007633,-0.004566,0.005983,-54.5,-22.0,-11.87,2a
2019-07-12_110322:800,-0.5109560000000001,0.020325,-0.092529,-0.00687,-0.002979,0.006044,-54.869999,-22.0,-11.18,2a
2019-07-12_110322:820,-0.5048520000000001,0.019806,-0.090485,-0.005954,-0.002582,0.005922,-54.869999,-22.0,-11.18,2a
2019-07-12_110322:840,-0.490601,0.019806,-0.087952,-0.004520000000000001,-0.0035280000000000003,0.005922,-54.869999,-22.0,-11.18,2a
2019-07-12_110322:860,-0.48754899999999995,0.020325,-0.086426,-0.003452,-0.003986,0.005189,-56.0,-22.370001000000002,-10.68,2a
2019-07-12_110322:880,-0.48706099999999997,0.022858,-0.086914,-0.002659,-0.004657,0.003358,-56.0,-22.370001000000002,-10.68,2a
2019-07-12_110322:900,-0.489594,0.023375999999999997,-0.08743300000000001,-0.002262,-0.005695,0.002443,-54.5,-23.5,-10.0,2a
2019-07-12_110322:920,-0.494171,0.024384,-0.0849,-0.001957,-0.006,0.0038159999999999995,-54.5,-23.5,-10.0,2a
2019-07-12_110322:940,-0.492126,0.025421,-0.085388,-0.002353,-0.005176,0.004915,-54.5,-23.5,-10.0,2a
2019-07-12_110322:960,-0.484497,0.026917,-0.0849,-0.003208,-0.004169,0.005128,-54.869999,-22.370001000000002,-9.18,2a
2019-07-12_110322:980,-0.477386,0.027435,-0.08743300000000001,-0.004275999999999999,-0.003986,0.005647,-54.869999,-22.370001000000002,-9.18,2a
2019-07-12_110323:000,-0.47995,0.025908999999999998,-0.085388,-0.005619,-0.004596,0.006868000000000001,-55.560001,-22.370001000000002,-10.25,2a
2019-07-12_110323:020,-0.484497,0.023895,-0.08590700000000001,-0.007358,-0.004993,0.007326000000000001,-55.560001,-22.370001000000002,-10.25,2a
2019-07-12_110323:040,-0.497742,0.020325,-0.08590700000000001,-0.008945,-0.004444,0.007905,-55.560001,-22.370001000000002,-10.25,2a
2019-07-12_110323:060,-0.503845,0.016266,-0.086914,-0.009861,-0.004047,0.007997,-54.869999,-22.75,-9.87,2a
2019-07-12_110323:080,-0.506378,0.011687999999999999,-0.083862,-0.009922,-0.0037719999999999997,0.007203,-54.869999,-22.75,-9.87,2a
2019-07-12_110323:100,-0.5058590000000001,0.009125,-0.082336,-0.009678,-0.00365,0.006074,-54.869999,-22.0,-10.68,2a
2019-07-12_110323:120,-0.49926800000000005,0.006592,-0.079803,-0.008426000000000001,-0.003833,0.005311,-54.869999,-22.0,-10.68,2a
2019-07-12_110323:140,-0.49365200000000004,0.006072999999999999,-0.079803,-0.0069,-0.004108,0.004548,-54.869999,-22.0,-10.68,2a
2019-07-12_110323:160,-0.484497,0.006592,-0.078796,-0.004642,-0.004961999999999999,0.003633,-54.18,-22.75,-9.5,2a
2019-07-12_110323:180,-0.47943100000000005,0.009644,-0.079803,-0.002536,-0.005939,0.002839,-54.18,-22.75,-9.5,2a
2019-07-12_110323:200,-0.477386,0.014740000000000001,-0.07928500000000001,-0.000614,-0.007281999999999999,0.002839,-55.560001,-22.0,-10.25,2a
2019-07-12_110323:220,-0.47995,0.018799,-0.078796,0.000393,-0.008197,0.002839,-55.560001,-22.0,-10.25,2a
2019-07-12_110323:240,-0.48349,0.023375999999999997,-0.082855,0.000515,-0.009052,0.003053,-55.560001,-22.0,-10.25,2a
2019-07-12_110323:260,-0.48654200000000003,0.024902,-0.083374,-9.499999999999999e-05,-0.009509,0.00345,-54.5,-22.370001000000002,-10.0,2a
2019-07-12_110323:280,-0.488068,0.024902,-0.084381,-0.001468,-0.009448,0.0039689999999999994,-54.5,-22.370001000000002,-10.0,2a
2019-07-12_110323:300,-0.48095699999999997,0.025908999999999998,-0.08590700000000001,-0.002994,-0.008869,0.004609,-55.25,-22.0,-11.5,2a
2019-07-12_110323:320,-0.484009,0.023375999999999997,-0.084381,-0.004275999999999999,-0.008808,0.005464,-55.25,-22.0,-11.5,2a
2019-07-12_110323:340,-0.49111899999999997,0.023375999999999997,-0.08743300000000001,-0.005436,-0.009326000000000001,0.005403,-55.25,-22.0,-11.5,2a
2019-07-12_110323:360,-0.492645,0.022369,-0.095062,-0.005954,-0.009784000000000001,0.004945000000000001,-55.25,-22.0,-10.25,2a
2019-07-12_110323:380,-0.502808,0.020844,-0.090485,-0.006626000000000001,-0.009204,0.005128,-55.25,-22.0,-10.25,2a
2019-07-12_110323:400,-0.507904,0.017792,-0.092529,-0.006809,-0.008075,0.0069900000000000006,-54.869999,-22.75,-11.18,2a
2019-07-12_110323:420,-0.50943,0.011687999999999999,-0.096588,-0.006687,-0.0066099999999999996,0.008516,-54.869999,-22.75,-11.18,2a
2019-07-12_110323:440,-0.496704,0.009644,-0.096588,-0.005954,-0.005939,0.0071730000000000006,-54.869999,-22.75,-11.18,2a
2019-07-12_110323:460,-0.49111899999999997,0.013213999999999998,-0.095581,-0.004947,-0.005725,0.005067,-55.25,-22.370001000000002,-10.0,2a
2019-07-12_110323:480,-0.492126,0.010651,-0.096588,-0.0037270000000000003,-0.005451,0.0038159999999999995,-55.25,-22.370001000000002,-10.0,2a
2019-07-12_110323:500,-0.492126,0.014221000000000001,-0.09811399999999999,-0.0027199999999999998,-0.0052369999999999995,0.0025039999999999997,-55.560001,-22.0,-11.5,2a
2019-07-12_110323:520,-0.49722299999999997,0.015747,-0.09454299999999999,-0.002018,-0.004718,0.00229,-55.560001,-22.0,-11.5,2a
2019-07-12_110323:540,-0.491638,0.016266,-0.09201000000000001,-0.00159,-0.004047,0.003358,-55.560001,-22.0,-11.5,2a
2019-07-12_110323:560,-0.484009,0.017273,-0.089478,-0.0011330000000000001,-0.0037719999999999997,0.0038469999999999997,-54.5,-21.25,-11.18,2a
2019-07-12_110323:580,-0.492645,0.015228,-0.08590700000000001,-0.001072,-0.0038640000000000002,0.004152,-54.5,-21.25,-11.18,2a
2019-07-12_110323:600,-0.48553500000000005,0.010162000000000001,-0.086426,-0.0008269999999999999,-0.003467,0.006318,-55.25,-22.0,-12.25,2a
2019-07-12_110323:620,-0.485016,0.006072999999999999,-0.087952,-0.0004,-0.0038640000000000002,0.006257,-55.25,-22.0,-12.25,2a
2019-07-12_110323:640,-0.48553500000000005,0.007111,-0.084381,0.001248,-0.004718,0.004609,-55.25,-22.0,-12.25,2a
2019-07-12_110323:660,-0.49365200000000004,0.007599,-0.085388,0.002041,-0.005115,0.004854,-54.869999,-22.0,-11.5,2a
2019-07-12_110323:680,-0.49823,0.008636,-0.086914,0.003689,-0.004779,0.004518,-54.869999,-22.0,-11.5,2a
2019-07-12_110323:700,-0.496704,0.013702,-0.08843999999999999,0.003781,-0.003589,0.0037549999999999997,-54.5,-21.559998999999998,-11.18,2a
2019-07-12_110323:720,-0.495697,0.017792,-0.08590700000000001,0.0035670000000000003,-0.002979,0.0038159999999999995,-54.5,-21.559998999999998,-11.18,2a
2019-07-12_110323:740,-0.49316400000000005,0.019806,-0.08843999999999999,0.0028350000000000003,-0.0023989999999999997,0.003572,-54.5,-21.559998999999998,-11.18,2a
2019-07-12_110323:760,-0.48858599999999996,0.021332,-0.087952,0.00137,-0.0023989999999999997,0.003114,-55.25,-21.559998999999998,-10.68,2a
2019-07-12_110323:780,-0.48858599999999996,0.021851,-0.08743300000000001,0.000302,-0.003436,0.003694,-55.25,-21.559998999999998,-10.68,2a
2019-07-12_110323:800,-0.490601,0.020325,-0.08996599999999999,-0.000553,-0.004108,0.004152,-54.869999,-22.0,-11.5,2a
2019-07-12_110323:820,-0.489594,0.020844,-0.088959,-0.001529,-0.004321,0.003633,-54.869999,-22.0,-11.5,2a
2019-07-12_110323:840,-0.490601,0.021851,-0.08743300000000001,-0.002597,-0.004047,0.0038469999999999997,-54.869999,-22.0,-11.5,2a
2019-07-12_110323:860,-0.490601,0.020844,-0.08843999999999999,-0.003483,-0.0031309999999999997,0.004854,-54.5,-21.559998999999998,-11.18,2a
2019-07-12_110323:880,-0.492126,0.019318000000000002,-0.08743300000000001,-0.0042450000000000005,-0.002735,0.004915,-54.5,-21.559998999999998,-11.18,2a
2019-07-12_110323:900,-0.49316400000000005,0.018799,-0.08843999999999999,-0.005222,-0.0031309999999999997,0.004152,-56.0,-21.559998999999998,-11.87,2a
2019-07-12_110323:920,-0.496704,0.017792,-0.0849,-0.005771,-0.003436,0.004518,-56.0,-21.559998999999998,-11.87,2a
2019-07-12_110323:940,-0.49468999999999996,0.014740000000000001,-0.08843999999999999,-0.006351,-0.003436,0.004671,-56.0,-21.559998999999998,-11.87,2a
2019-07-12_110323:960,-0.49316400000000005,0.011687999999999999,-0.0849,-0.006504,-0.002979,0.004213000000000001,-54.869999,-21.559998999999998,-11.87,2a
2019-07-12_110323:980,-0.49111899999999997,0.011169,-0.0849,-0.0060149999999999995,-0.0031309999999999997,0.004609,-54.869999,-21.559998999999998,-11.87,2a
2019-07-12_110324:000,-0.490601,0.010651,-0.0849,-0.005222,-0.00365,0.004518,-54.5,-21.559998999999998,-9.5,2a
2019-07-12_110324:020,-0.48858599999999996,0.011169,-0.082336,-0.004612,-0.004321,0.003694,-54.5,-21.559998999999998,-9.5,2a
2019-07-12_110324:040,-0.489075,0.015228,-0.081848,-0.004184,-0.0045049999999999995,0.00345,-54.5,-21.559998999999998,-9.5,2a
2019-07-12_110324:060,-0.489075,0.014740000000000001,-0.082336,-0.004123,-0.004229999999999999,0.0039689999999999994,-55.560001,-21.25,-10.25,2a
2019-07-12_110324:080,-0.490112,0.015228,-0.081848,-0.004184,-0.004383,0.004732,-55.560001,-21.25,-10.25,2a
2019-07-12_110324:100,-0.492126,0.013702,-0.082336,-0.004459,-0.004657,0.004548,-54.5,-21.559998999999998,-10.68,2a
2019-07-12_110324:120,-0.49365200000000004,0.014221000000000001,-0.079803,-0.004825,-0.005359,0.004152,-54.5,-21.559998999999998,-10.68,2a
2019-07-12_110324:140,-0.49365200000000004,0.013213999999999998,-0.08081100000000001,-0.0052829999999999995,-0.005634,0.003908,-54.5,-21.559998999999998,-10.68,2a
2019-07-12_110324:160,-0.494171,0.014740000000000001,-0.080322,-0.005619,-0.005725,0.0037549999999999997,-54.5,-20.870001000000002,-10.25,2a
2019-07-12_110324:180,-0.49365200000000004,0.011687999999999999,-0.078796,-0.005832,-0.005756,0.003633,-54.5,-20.870001000000002,-10.25,2a
2019-07-12_110324:200,-0.492126,0.012177,-0.078796,-0.005832,-0.0061530000000000005,0.003511,-55.25,-21.559998999999998,-10.68,2a
2019-07-12_110324:220,-0.491638,0.011687999999999999,-0.07928500000000001,-0.005741,-0.006731999999999999,0.002778,-55.25,-21.559998999999998,-10.68,2a
2019-07-12_110324:240,-0.489075,0.014740000000000001,-0.07928500000000001,-0.005558,-0.006793,0.002229,-55.25,-21.559998999999998,-10.68,2a
2019-07-12_110324:260,-0.489075,0.016753999999999998,-0.080322,-0.005771,-0.006397,0.002443,-55.25,-22.0,-11.5,2a
2019-07-12_110324:280,-0.485016,0.014221000000000001,-0.079803,-0.005893,-0.006397,0.0029620000000000002,-55.25,-22.0,-11.5,2a
2019-07-12_110324:300,-0.490112,0.015228,-0.082336,-0.005893,-0.007587000000000001,0.0027170000000000002,-55.560001,-21.559998999999998,-10.68,2a
2019-07-12_110324:320,-0.495697,0.015747,-0.082855,-0.005771,-0.008472,0.002778,-55.560001,-21.559998999999998,-10.68,2a
2019-07-12_110324:340,-0.49722299999999997,0.015747,-0.084381,-0.005679999999999999,-0.008716,0.0034189999999999997,-55.560001,-21.559998999999998,-10.68,2a
2019-07-12_110324:360,-0.49517799999999995,0.015228,-0.084381,-0.005679999999999999,-0.008075,0.003023,-55.25,-21.559998999999998,-10.25,2a
2019-07-12_110324:380,-0.494171,0.014221000000000001,-0.082336,-0.005619,-0.007404000000000001,0.002321,-55.25,-21.559998999999998,-10.25,2a
2019-07-12_110324:400,-0.49111899999999997,0.015747,-0.083862,-0.0052829999999999995,-0.006945999999999999,0.002382,-54.869999,-21.559998999999998,-11.5,2a
2019-07-12_110324:420,-0.490601,0.015747,-0.083374,-0.004886,-0.007281999999999999,0.002443,-54.869999,-21.559998999999998,-11.5,2a
2019-07-12_110324:440,-0.48706099999999997,0.017792,-0.083374,-0.004337,-0.007587000000000001,0.002168,-54.869999,-21.559998999999998,-11.5,2a
2019-07-12_110324:460,-0.48858599999999996,0.01828,-0.082855,-0.004123,-0.007465,0.002565,-55.25,-21.559998999999998,-9.87,2a
2019-07-12_110324:480,-0.489594,0.019806,-0.083374,-0.0042450000000000005,-0.007404000000000001,0.0032359999999999997,-55.25,-21.559998999999998,-9.87,2a
2019-07-12_110324:500,-0.491638,0.018799,-0.085388,-0.004398,-0.007404000000000001,0.003572,-55.25,-21.559998999999998,-12.0,2a
2019-07-12_110324:520,-0.49316400000000005,0.01828,-0.0849,-0.004703,-0.007801000000000001,0.0038159999999999995,-55.25,-21.559998999999998,-12.0,2a
2019-07-12_110324:540,-0.491638,0.01828,-0.086914,-0.004978,-0.008258,0.003633,-55.25,-21.559998999999998,-12.0,2a
2019-07-12_110324:560,-0.492645,0.01828,-0.08843999999999999,-0.005161,-0.008411,0.0026260000000000003,-54.5,-22.370001000000002,-9.87,2a
2019-07-12_110324:580,-0.49111899999999997,0.019318000000000002,-0.089478,-0.005558,-0.008533,0.002382,-54.5,-22.370001000000002,-9.87,2a
2019-07-12_110324:600,-0.490112,0.017792,-0.088959,-0.005344,-0.008655,0.0034189999999999997,-54.869999,-22.370001000000002,-12.25,2a
2019-07-12_110324:620,-0.488068,0.016753999999999998,-0.088959,-0.005161,-0.008747,0.003023,-54.869999,-22.370001000000002,-12.25,2a
2019-07-12_110324:640,-0.485016,0.017792,-0.088959,-0.004886,-0.008808,0.0019850000000000002,-54.869999,-22.370001000000002,-12.25,2a
2019-07-12_110324:660,-0.48706099999999997,0.020325,-0.08996599999999999,-0.004337,-0.009326000000000001,0.001771,-54.869999,-21.25,-11.5,2a
2019-07-12_110324:680,-0.486023,0.021851,-0.08996599999999999,-0.004275999999999999,-0.009448,0.001924,-54.869999,-21.25,-11.5,2a
2019-07-12_110324:700,-0.490601,0.022369,-0.092529,-0.004398,-0.009601,0.001832,-54.869999,-22.75,-11.18,2a
2019-07-12_110324:720,-0.491638,0.022369,-0.09149199999999999,-0.004886,-0.00954,0.0019850000000000002,-54.869999,-22.75,-11.18,2a
2019-07-12_110324:740,-0.49517799999999995,0.022858,-0.095581,-0.004978,-0.009723,0.001832,-54.869999,-22.75,-11.18,2a
2019-07-12_110324:760,-0.49365200000000004,0.023375999999999997,-0.094055,-0.005497,-0.009509,0.0019850000000000002,-54.869999,-22.370001000000002,-10.68,2a
2019-07-12_110324:780,-0.49316400000000005,0.022369,-0.096588,-0.005497,-0.009387000000000001,0.002382,-54.869999,-22.370001000000002,-10.68,2a
2019-07-12_110324:800,-0.490601,0.022369,-0.097595,-0.005741,-0.008808,0.00229,-55.25,-22.370001000000002,-11.87,2a
2019-07-12_110324:820,-0.488068,0.022858,-0.097107,-0.005741,-0.008594,0.001893,-55.25,-22.370001000000002,-11.87,2a
2019-07-12_110324:840,-0.48706099999999997,0.022858,-0.099121,-0.005375,-0.008533,0.001893,-55.25,-22.370001000000002,-11.87,2a
2019-07-12_110324:860,-0.48654200000000003,0.022858,-0.09811399999999999,-0.005222,-0.008533,0.002107,-54.869999,-22.75,-12.68,2a
2019-07-12_110324:880,-0.488068,0.023375999999999997,-0.09963999999999999,-0.005039,-0.008411,0.002321,-54.869999,-22.75,-12.68,2a
2019-07-12_110324:900,-0.488068,0.024384,-0.10116599999999999,-0.004764,-0.008136,0.002839,-55.25,-23.5,-11.5,2a
2019-07-12_110324:920,-0.489594,0.023895,-0.100647,-0.004703,-0.008197,0.003053,-55.25,-23.5,-11.5,2a
2019-07-12_110324:940,-0.492126,0.024384,-0.102173,-0.005039,-0.007923000000000001,0.003358,-55.25,-23.5,-11.5,2a
2019-07-12_110324:960,-0.492645,0.023895,-0.102173,-0.004886,-0.007984,0.003633,-53.75,-23.5,-11.87,2a
2019-07-12_110324:980,-0.49517799999999995,0.023375999999999997,-0.101685,-0.004825,-0.007526000000000001,0.0034189999999999997,-53.75,-23.5,-11.87,2a
2019-07-12_110325:000,-0.49316400000000005,0.024384,-0.103699,-0.004886,-0.006793,0.003114,-54.869999,-22.75,-13.18,2a
2019-07-12_110325:020,-0.489075,0.024384,-0.09963999999999999,-0.004642,-0.0060609999999999995,0.003511,-54.869999,-22.75,-13.18,2a
2019-07-12_110325:040,-0.489594,0.024384,-0.10116599999999999,-0.004764,-0.005573,0.003694,-54.869999,-22.75,-13.18,2a
2019-07-12_110325:060,-0.48349,0.023895,-0.10116599999999999,-0.004612,-0.005298,0.003358,-54.5,-22.370001000000002,-13.5,2a
2019-07-12_110325:080,-0.48349,0.024384,-0.10318,-0.004612,-0.005695,0.003297,-54.5,-22.370001000000002,-13.5,2a
2019-07-12_110325:100,-0.489594,0.026917,-0.103699,-0.004703,-0.006336,0.00345,-54.18,-22.370001000000002,-12.68,2a
2019-07-12_110325:120,-0.489075,0.025908999999999998,-0.102173,-0.0052829999999999995,-0.006731999999999999,0.004396,-54.18,-22.370001000000002,-12.68,2a
2019-07-12_110325:140,-0.490112,0.023375999999999997,-0.102692,-0.005679999999999999,-0.006397,0.004335,-54.18,-22.370001000000002,-12.68,2a
2019-07-12_110325:160,-0.490112,0.023375999999999997,-0.104218,-0.006168,-0.005451,0.003175,-54.869999,-23.059998999999998,-13.18,2a
2019-07-12_110325:180,-0.489594,0.023375999999999997,-0.103699,-0.0060149999999999995,-0.005054,0.002839,-54.869999,-23.059998999999998,-13.18,2a
2019-07-12_110325:200,-0.490601,0.022369,-0.10318,-0.005619,-0.004321,0.0029,-53.75,-23.059998999999998,-12.68,2a
2019-07-12_110325:220,-0.491638,0.023895,-0.10116599999999999,-0.0051,-0.003833,0.00229,-53.75,-23.059998999999998,-12.68,2a
2019-07-12_110325:240,-0.489594,0.024384,-0.100159,-0.004703,-0.0037719999999999997,0.002382,-53.75,-23.059998999999998,-12.68,2a
2019-07-12_110325:260,-0.488068,0.024902,-0.098633,-0.004459,-0.003436,0.00345,-53.75,-23.059998999999998,-11.87,2a
2019-07-12_110325:280,-0.488068,0.024384,-0.100159,-0.004337,-0.003925,0.0032359999999999997,-53.75,-23.059998999999998,-11.87,2a
2019-07-12_110325:300,-0.488068,0.026427999999999997,-0.098633,-0.004581,-0.003925,0.0029,-54.869999,-23.059998999999998,-13.18,2a
2019-07-12_110325:320,-0.485016,0.026917,-0.098633,-0.004520000000000001,-0.004321,0.003511,-54.869999,-23.059998999999998,-13.18,2a
2019-07-12_110325:340,-0.485016,0.024902,-0.09963999999999999,-0.004581,-0.004596,0.0027170000000000002,-54.869999,-23.059998999999998,-13.18,2a
2019-07-12_110325:360,-0.48858599999999996,0.026917,-0.099121,-0.004978,-0.0052369999999999995,0.001436,-53.75,-23.059998999999998,-12.25,2a
2019-07-12_110325:380,-0.489594,0.028442000000000002,-0.09811399999999999,-0.004978,-0.0052369999999999995,0.002107,-53.75,-23.059998999999998,-12.25,2a
2019-07-12_110325:400,-0.49111899999999997,0.026427999999999997,-0.097595,-0.004886,-0.005054,0.002839,-54.869999,-23.059998999999998,-13.18,2a
2019-07-12_110325:420,-0.492126,0.025421,-0.095581,-0.005344,-0.00484,0.001924,-54.869999,-23.059998999999998,-13.18,2a
2019-07-12_110325:440,-0.489594,0.025421,-0.09811399999999999,-0.005375,-0.00426,0.002839,-54.869999,-23.059998999999998,-13.18,2a
2019-07-12_110325:460,-0.492126,0.022858,-0.09963999999999999,-0.005436,-0.004566,0.00403,-53.75,-23.5,-12.25,2a
2019-07-12_110325:480,-0.495697,0.022369,-0.09811399999999999,-0.0060149999999999995,-0.004961999999999999,0.0034189999999999997,-53.75,-23.5,-12.25,2a
2019-07-12_110325:500,-0.50943,0.019806,-0.09353600000000001,-0.0069,-0.004993,0.004793,-53.5,-23.75,-13.18,2a
2019-07-12_110325:520,-0.5119630000000001,0.014740000000000001,-0.09454299999999999,-0.0067480000000000005,-0.003314,0.006135,-53.5,-23.75,-13.18,2a
2019-07-12_110325:540,-0.497742,0.012177,-0.097595,-0.0067480000000000005,-0.000781,0.0027170000000000002,-53.5,-23.75,-13.18,2a
2019-07-12_110325:560,-0.484497,0.015747,-0.095581,-0.005893,0.001324,-0.002135,-53.75,-23.5,-12.18,2a
2019-07-12_110325:580,-0.467224,0.022858,-0.09963999999999999,-0.004062,0.001385,-0.004332,-53.75,-23.5,-12.18,2a
2019-07-12_110325:600,-0.46316499999999994,0.025908999999999998,-0.100159,-0.002994,-0.00014099999999999998,-0.006194,-54.5,-22.75,-12.18,2a
2019-07-12_110325:620,-0.47280900000000003,0.036072,-0.097595,-0.0027199999999999998,-0.002857,-0.007262,-54.5,-22.75,-12.18,2a
2019-07-12_110325:640,-0.481476,0.040649,-0.096588,-0.002536,-0.00484,-0.0054,-54.5,-22.75,-12.18,2a
2019-07-12_110325:660,-0.48754899999999995,0.042694,-0.094055,-0.002659,-0.005695,-0.002989,-53.5,-24.18,-12.18,2a
2019-07-12_110325:680,-0.490601,0.045745999999999995,-0.09301799999999999,-0.002811,-0.005939,-0.002013,-53.5,-24.18,-12.18,2a
2019-07-12_110325:700,-0.491638,0.046265,-0.092529,-0.002872,-0.005756,-0.0024100000000000002,-53.5,-24.559998999999998,-12.18,2a
2019-07-12_110325:720,-0.49365200000000004,0.049805,-0.09201000000000001,-0.002872,-0.0052369999999999995,-0.002989,-53.5,-24.559998999999998,-12.18,2a
2019-07-12_110325:740,-0.497742,0.05438200000000001,-0.089478,-0.002933,-0.004383,-0.0034170000000000003,-53.5,-24.559998999999998,-12.18,2a
2019-07-12_110325:760,-0.497742,0.055389,-0.08743300000000001,-0.003116,-0.003467,-0.003386,-52.68,-25.0,-11.06,2a
2019-07-12_110325:780,-0.489075,0.056427,-0.08743300000000001,-0.003544,-0.00246,-0.002532,-52.68,-25.0,-11.06,2a
2019-07-12_110325:800,-0.482483,0.056427,-0.088959,-0.0036049999999999997,-0.002307,-0.000212,-53.060001,-23.75,-10.18,2a
2019-07-12_110325:820,-0.47180200000000005,0.053375,-0.08743300000000001,-0.003452,-0.003192,0.001924,-53.060001,-23.75,-10.18,2a
2019-07-12_110325:840,-0.474854,0.050842,-0.090485,-0.0033909999999999995,-0.005054,0.002839,-53.060001,-23.75,-10.18,2a
2019-07-12_110325:860,-0.488068,0.047791,-0.09149199999999999,-0.002872,-0.007006999999999999,0.004152,-52.68,-25.68,-11.75,2a
2019-07-12_110325:880,-0.489075,0.044739,-0.089478,-0.002018,-0.008075,0.005861,-52.68,-25.68,-11.75,2a
2019-07-12_110325:900,-0.48754899999999995,0.041168,-0.092529,-0.00046100000000000004,-0.007984,0.00525,-53.060001,-25.0,-11.06,2a
2019-07-12_110325:920,-0.491638,0.041687,-0.089478,0.000393,-0.007129000000000001,0.00229,-53.060001,-25.0,-11.06,2a
2019-07-12_110325:940,-0.490601,0.046752999999999996,-0.091003,0.0015220000000000001,-0.006458,0.002321,-53.060001,-25.0,-11.06,2a
2019-07-12_110325:960,-0.503845,0.041168,-0.08590700000000001,0.0028350000000000003,-0.004229999999999999,0.003023,-53.5,-25.25,-11.75,2a
2019-07-12_110325:980,-0.489075,0.045226999999999996,-0.0849,0.003353,-0.001789,0.0005200000000000001,-53.5,-25.25,-11.75,2a
2019-07-12_110326:000,-0.48095699999999997,0.049805,-0.083862,0.004574,0.000195,-0.0011279999999999999,-52.25,-24.559998999999998,-12.56,2a
2019-07-12_110326:020,-0.457581,0.055908000000000006,-0.089478,0.00549,-0.00038500000000000003,-0.001006,-52.25,-24.559998999999998,-12.56,2a
2019-07-12_110326:040,-0.5348510000000001,0.05285599999999999,-0.080322,0.005642,-0.002582,-0.0011279999999999999,-52.25,-24.559998999999998,-12.56,2a
2019-07-12_110326:060,-0.47995,0.06253099999999999,-0.076263,0.004361,-0.003436,0.000978,-54.18,-25.0,-12.18,2a
2019-07-12_110326:080,-0.47280900000000003,0.064545,-0.083374,0.005825,-0.004383,0.003694,-54.18,-25.0,-12.18,2a
2019-07-12_110326:100,-0.475861,0.068115,-0.09201000000000001,0.00317,-0.005725,0.001375,-53.75,-25.25,-11.06,2a
2019-07-12_110326:120,-0.467743,0.08081100000000001,-0.08996599999999999,0.0009119999999999999,-0.008197,0.001588,-53.75,-25.25,-11.06,2a
2019-07-12_110326:140,-0.47433500000000006,0.075226,-0.09454299999999999,-0.00275,-0.012042,0.009096,-53.75,-25.25,-11.06,2a
2019-07-12_110326:160,-0.475372,0.070648,-0.095062,-0.007023000000000001,-0.015094,0.015962,-53.5,-25.25,-12.68,2a
2019-07-12_110326:180,-0.48858599999999996,0.06253099999999999,-0.09454299999999999,-0.011936,-0.016834000000000002,0.017488,-53.5,-25.25,-12.68,2a
2019-07-12_110326:200,-0.49517799999999995,0.059479,-0.09963999999999999,-0.016697,-0.017627,0.017213,-52.68,-24.559998999999998,-12.68,2a
2019-07-12_110326:220,-0.484009,0.051849,-0.09811399999999999,-0.020419999999999997,-0.017291,0.018403,-52.68,-24.559998999999998,-12.68,2a
2019-07-12_110326:240,-0.484497,0.048279,-0.10116599999999999,-0.023349,-0.016375999999999998,0.017946,-52.68,-24.559998999999998,-12.68,2a
2019-07-12_110326:260,-0.496704,0.045226999999999996,-0.10675,-0.025333,-0.015430000000000001,0.015747999999999998,-53.75,-23.75,-13.87,2a
2019-07-12_110326:280,-0.5048520000000001,0.040649,-0.105225,-0.026066000000000002,-0.013781999999999999,0.016694,-53.75,-23.75,-13.87,2a
2019-07-12_110326:300,-0.503845,0.024384,-0.106232,-0.025058,-0.011706999999999999,0.018861000000000003,-53.75,-24.559998999999998,-13.06,2a
2019-07-12_110326:320,-0.523163,0.008636,-0.102692,-0.0228,-0.008472,0.01822,-53.75,-24.559998999999998,-13.06,2a
2019-07-12_110326:340,-0.5134890000000001,0.0,-0.103699,-0.0181,-0.003375,0.013947999999999999,-53.75,-24.559998999999998,-13.06,2a
2019-07-12_110326:360,-0.49722299999999997,0.0,-0.099121,-0.012668,0.001385,0.007265000000000001,-53.5,-22.75,-14.25,2a
2019-07-12_110326:380,-0.471283,0.000488,-0.101685,-0.007601999999999999,0.0033689999999999996,0.005922,-53.5,-22.75,-14.25,2a
2019-07-12_110326:400,-0.45806899999999995,-0.004059,-0.10675,-0.002018,0.002118,0.008973,-54.5,-23.5,-13.06,2a
2019-07-12_110326:420,-0.460114,-0.004547,-0.108795,0.002163,-0.0023989999999999997,0.008394,-54.5,-23.5,-13.06,2a
2019-07-12_110326:440,-0.47079499999999996,0.005065999999999999,-0.11080899999999999,0.0055509999999999995,-0.007343000000000001,0.005525,-54.5,-23.5,-13.06,2a
2019-07-12_110326:460,-0.484009,0.013213999999999998,-0.108795,0.008084000000000001,-0.011035,0.0039689999999999994,-53.5,-23.5,-12.56,2a
2019-07-12_110326:480,-0.497742,0.020325,-0.108795,0.008662999999999999,-0.012714,0.002687,-53.5,-23.5,-12.56,2a
2019-07-12_110326:500,-0.49975600000000003,0.023895,-0.107269,0.0077480000000000005,-0.011524,0.001527,-54.869999,-22.370001000000002,-13.5,2a
2019-07-12_110326:520,-0.496216,0.027435,-0.105743,0.0061,-0.009662,0.0016489999999999999,-54.869999,-22.370001000000002,-13.5,2a
2019-07-12_110326:540,-0.494171,0.027954000000000003,-0.10928299999999999,0.003781,-0.008014,0.002168,-54.869999,-22.370001000000002,-13.5,2a
2019-07-12_110326:560,-0.489075,0.032013,-0.108795,0.000973,-0.0070680000000000005,0.001375,-54.869999,-22.75,-12.18,2a
2019-07-12_110326:580,-0.489075,0.034546,-0.10928299999999999,-0.0016820000000000001,-0.007006999999999999,0.000978,-54.869999,-22.75,-12.18,2a
2019-07-12_110326:600,-0.49111899999999997,0.034546,-0.109802,-0.004520000000000001,-0.007465,0.000398,-53.75,-23.059998999999998,-13.06,2a
2019-07-12_110326:620,-0.492645,0.034546,-0.106232,-0.006962,-0.00719,-0.000884,-53.75,-23.059998999999998,-13.06,2a
2019-07-12_110326:640,-0.49316400000000005,0.034546,-0.10675,-0.008609,-0.006275,-0.001891,-53.75,-23.059998999999998,-13.06,2a
2019-07-12_110326:660,-0.488068,0.034546,-0.105225,-0.009678,-0.005359,-0.002288,-53.5,-24.18,-12.56,2a
2019-07-12_110326:680,-0.489075,0.034058,-0.107269,-0.009678,-0.004657,-0.002593,-53.5,-24.18,-12.56,2a
2019-07-12_110326:700,-0.488068,0.035583,-0.107269,-0.009678,-0.004047,-0.002593,-53.75,-23.75,-12.56,2a
2019-07-12_110326:720,-0.48349,0.036591000000000005,-0.101685,-0.008945,-0.003436,-0.0015550000000000002,-53.75,-23.75,-12.56,2a
2019-07-12_110326:740,-0.48300200000000004,0.035583,-0.10318,-0.007999,-0.0032530000000000002,0.000245,-53.75,-23.75,-12.56,2a
2019-07-12_110326:760,-0.48654200000000003,0.034058,-0.10318,-0.007023000000000001,-0.0035280000000000003,0.001893,-52.68,-23.75,-12.56,2a
2019-07-12_110326:780,-0.484497,0.032013,-0.102173,-0.0060149999999999995,-0.00365,0.0029,-52.68,-23.75,-12.56,2a
2019-07-12_110326:800,-0.485016,0.03302,-0.105225,-0.004886,-0.003711,0.002321,-53.5,-24.18,-12.25,2a
2019-07-12_110326:820,-0.485016,0.031494,-0.106232,-0.004001,-0.004108,0.001314,-53.5,-24.18,-12.25,2a
2019-07-12_110326:840,-0.48754899999999995,0.029480000000000003,-0.103699,-0.003055,-0.004383,0.001161,-53.5,-24.18,-12.25,2a
2019-07-12_110326:860,-0.488068,0.027954000000000003,-0.10675,-0.002079,-0.0045049999999999995,0.0007030000000000001,-53.5,-25.0,-13.18,2a
2019-07-12_110326:880,-0.489594,0.030487,-0.105225,-0.001529,-0.004321,-0.0016769999999999999,-53.5,-25.0,-13.18,2a
2019-07-12_110326:900,-0.489075,0.03302,-0.103699,-0.0008269999999999999,-0.003986,-0.0036,-54.060001,-24.559998999999998,-11.87,2a
2019-07-12_110326:920,-0.48858599999999996,0.038635,-0.101685,-3e-06,-0.0037719999999999997,-0.003722,-54.060001,-24.559998999999998,-11.87,2a
2019-07-12_110326:940,-0.488068,0.042694,-0.102173,0.00011899999999999999,-0.0030399999999999997,-0.003264,-54.060001,-24.559998999999998,-11.87,2a
2019-07-12_110326:960,-0.48654200000000003,0.047791,-0.098633,5.7999999999999994e-05,-0.002857,-0.002806,-53.060001,-25.25,-12.25,2a
2019-07-12_110326:980,-0.48654200000000003,0.051330999999999995,-0.099121,-0.00046100000000000004,-0.002246,-0.001464,-53.060001,-25.25,-12.25,2a
2019-07-12_110327:000,-0.48349,0.05285599999999999,-0.100159,-0.002079,-0.002796,0.000184,-53.060001,-24.18,-13.18,2a
2019-07-12_110327:020,-0.484497,0.055389,-0.098633,-0.002933,-0.002918,0.000398,-53.060001,-24.18,-13.18,2a
2019-07-12_110327:040,-0.486023,0.053863999999999995,-0.099121,-0.004978,-0.003589,0.000306,-53.060001,-24.18,-13.18,2a
2019-07-12_110327:060,-0.48349,0.05438200000000001,-0.097595,-0.005436,-0.003589,0.000184,-53.75,-25.0,-12.68,2a
2019-07-12_110327:080,-0.486023,0.054901,-0.09811399999999999,-0.0060149999999999995,-0.00426,-0.000151,-53.75,-25.0,-12.68,2a
2019-07-12_110327:100,-0.48654200000000003,0.055389,-0.097107,-0.0060149999999999995,-0.004961999999999999,-2.8999999999999997e-05,-52.25,-25.25,-13.18,2a
2019-07-12_110327:120,-0.48754899999999995,0.056915,-0.096588,-0.005375,-0.005451,0.0008560000000000001,-52.25,-25.25,-13.18,2a
2019-07-12_110327:140,-0.48858599999999996,0.057434000000000006,-0.097107,-0.005222,-0.005115,0.0017100000000000001,-52.25,-25.25,-13.18,2a
2019-07-12_110327:160,-0.48654200000000003,0.057953,-0.095062,-0.005161,-0.004718,0.0025039999999999997,-52.25,-25.25,-13.5,2a
2019-07-12_110327:180,-0.484009,0.058960000000000005,-0.096069,-0.005222,-0.004718,0.003572,-52.25,-25.25,-13.5,2a
2019-07-12_110327:200,-0.48553500000000005,0.056915,-0.097107,-0.0052829999999999995,-0.0045049999999999995,0.004335,-53.060001,-25.68,-11.06,2a
2019-07-12_110327:220,-0.48706099999999997,0.055389,-0.09454299999999999,-0.005558,-0.004383,0.004609,-53.060001,-25.68,-11.06,2a
2019-07-12_110327:240,-0.48706099999999997,0.054901,-0.095062,-0.005741,-0.004383,0.004671,-53.060001,-25.68,-11.06,2a
2019-07-12_110327:260,-0.48553500000000005,0.052338,-0.09353600000000001,-0.005832,-0.004596,0.004182,-53.060001,-25.25,-12.25,2a
2019-07-12_110327:280,-0.486023,0.051330999999999995,-0.09454299999999999,-0.005741,-0.004901,0.004091,-53.060001,-25.25,-12.25,2a
2019-07-12_110327:300,-0.48349,0.049805,-0.09454299999999999,-0.0052829999999999995,-0.0052369999999999995,0.004793,-53.060001,-25.25,-11.87,2a
2019-07-12_110327:320,-0.48349,0.049316000000000006,-0.09301799999999999,-0.004825,-0.005695,0.005525,-53.060001,-25.25,-11.87,2a
2019-07-12_110327:340,-0.482483,0.048279,-0.095581,-0.0042450000000000005,-0.006336,0.005739,-53.060001,-25.25,-11.87,2a
2019-07-12_110327:360,-0.48196400000000006,0.049805,-0.095581,-0.004184,-0.007006999999999999,0.005861,-53.060001,-26.5,-13.18,2a
2019-07-12_110327:380,-0.48300200000000004,0.049805,-0.096069,-0.004123,-0.0076170000000000005,0.006074,-53.060001,-26.5,-13.18,2a
2019-07-12_110327:400,-0.484009,0.049805,-0.099121,-0.004275999999999999,-0.008014,0.006196,-53.5,-25.68,-13.18,2a
2019-07-12_110327:420,-0.48706099999999997,0.047791,-0.09811399999999999,-0.004459,-0.00838,0.006074,-53.5,-25.68,-13.18,2a
2019-07-12_110327:440,-0.48754899999999995,0.048279,-0.10116599999999999,-0.004642,-0.008472,0.005647,-53.5,-25.68,-13.18,2a
2019-07-12_110327:460,-0.488068,0.046752999999999996,-0.10318,-0.004642,-0.00838,0.005067,-53.060001,-25.68,-12.56,2a
2019-07-12_110327:480,-0.489075,0.048279,-0.102173,-0.004978,-0.008319,0.004609,-53.060001,-25.68,-12.56,2a
2019-07-12_110327:500,-0.489594,0.049316000000000006,-0.103699,-0.005161,-0.007984,0.004152,-52.68,-25.68,-13.06,2a
2019-07-12_110327:520,-0.492126,0.051330999999999995,-0.102692,-0.0051,-0.007220999999999999,0.0038159999999999995,-52.68,-25.68,-13.06,2a
2019-07-12_110327:540,-0.49111899999999997,0.051330999999999995,-0.102692,-0.005344,-0.006458,0.0037549999999999997,-52.68,-25.68,-13.06,2a
2019-07-12_110327:560,-0.489594,0.052338,-0.101685,-0.005679999999999999,-0.005573,0.0038469999999999997,-53.5,-25.68,-13.06,2a
2019-07-12_110327:580,-0.48754899999999995,0.051849,-0.100159,-0.006168,-0.004718,0.004152,-53.5,-25.68,-13.06,2a
2019-07-12_110327:600,-0.48654200000000003,0.052338,-0.102173,-0.006351,-0.00426,0.004518,-53.060001,-25.68,-13.37,2a
2019-07-12_110327:620,-0.484009,0.051849,-0.098633,-0.0064730000000000005,-0.004566,0.004915,-53.060001,-25.68,-13.37,2a
2019-07-12_110327:640,-0.482483,0.049805,-0.09963999999999999,-0.006412,-0.005176,0.005067,-53.060001,-25.68,-13.37,2a
2019-07-12_110327:660,-0.48196400000000006,0.048798,-0.10116599999999999,-0.005893,-0.005756,0.005311,-53.060001,-25.68,-12.56,2a
2019-07-12_110327:680,-0.48553500000000005,0.047791,-0.09963999999999999,-0.005375,-0.006214,0.005067,-53.060001,-25.68,-12.56,2a
2019-07-12_110327:700,-0.484497,0.046752999999999996,-0.099121,-0.0051,-0.0066099999999999996,0.005067,-52.68,-26.059998999999998,-12.56,2a
2019-07-12_110327:720,-0.48553500000000005,0.046752999999999996,-0.100647,-0.004520000000000001,-0.006548999999999999,0.005464,-52.68,-26.059998999999998,-12.56,2a
2019-07-12_110327:740,-0.486023,0.046752999999999996,-0.10116599999999999,-0.004275999999999999,-0.006488,0.004945000000000001,-52.68,-26.059998999999998,-12.56,2a
2019-07-12_110327:760,-0.48349,0.048798,-0.103699,-0.00394,-0.006885,0.004091,-52.25,-25.25,-12.56,2a
2019-07-12_110327:780,-0.48349,0.048798,-0.103699,-0.003788,-0.007220999999999999,0.003908,-52.25,-25.25,-12.56,2a
2019-07-12_110327:800,-0.485016,0.05285599999999999,-0.104706,-0.003879,-0.0076170000000000005,0.005311,-53.75,-25.68,-13.37,2a
2019-07-12_110327:820,-0.486023,0.052338,-0.105743,-0.004520000000000001,-0.0076170000000000005,0.006593000000000001,-53.75,-25.68,-13.37,2a
2019-07-12_110327:840,-0.489075,0.051849,-0.104218,-0.005344,-0.006885,0.006532,-53.75,-25.68,-13.37,2a
2019-07-12_110327:860,-0.489075,0.050842,-0.104706,-0.0061070000000000004,-0.005939,0.005983,-52.0,-25.0,-13.37,2a
2019-07-12_110327:880,-0.48654200000000003,0.046265,-0.104706,-0.0065650000000000005,-0.005054,0.005525,-52.0,-25.0,-13.37,2a
2019-07-12_110327:900,-0.48654200000000003,0.045745999999999995,-0.104706,-0.006687,-0.004961999999999999,0.004915,-53.060001,-25.25,-12.56,2a
2019-07-12_110327:920,-0.489075,0.044739,-0.102692,-0.0064730000000000005,-0.004718,0.004671,-53.060001,-25.25,-12.56,2a
2019-07-12_110327:940,-0.488068,0.043213,-0.102173,-0.005954,-0.004321,0.005403,-53.060001,-25.25,-12.56,2a
2019-07-12_110327:960,-0.484497,0.041687,-0.10318,-0.005222,-0.00484,0.005128,-52.68,-25.25,-13.37,2a
2019-07-12_110327:980,-0.485016,0.041687,-0.102173,-0.004642,-0.005054,0.004609,-52.68,-25.25,-13.37,2a
2019-07-12_110328:000,-0.48553500000000005,0.043701,-0.10116599999999999,-0.004275999999999999,-0.005634,0.005128,-53.5,-25.25,-13.37,2a
2019-07-12_110328:020,-0.482483,0.044739,-0.101685,-0.00394,-0.005756,0.00525,-53.5,-25.25,-13.37,2a
2019-07-12_110328:040,-0.48095699999999997,0.044739,-0.10116599999999999,-0.004062,-0.006,0.004518,-53.5,-25.25,-13.37,2a
2019-07-12_110328:060,-0.485016,0.046265,-0.10318,-0.004184,-0.006731999999999999,0.004915,-53.060001,-24.559998999999998,-13.37,2a
2019-07-12_110328:080,-0.486023,0.046752999999999996,-0.102173,-0.004459,-0.006854000000000001,0.006379,-53.060001,-24.559998999999998,-13.37,2a
2019-07-12_110328:100,-0.48654200000000003,0.045745999999999995,-0.103699,-0.005039,-0.006670999999999999,0.006044,-53.5,-25.0,-13.37,2a
2019-07-12_110328:120,-0.48858599999999996,0.045745999999999995,-0.104706,-0.005619,-0.006336,0.005006,-53.5,-25.0,-13.37,2a
2019-07-12_110328:140,-0.489075,0.045226999999999996,-0.104706,-0.005893,-0.006275,0.005006,-53.5,-25.0,-13.37,2a
2019-07-12_110328:160,-0.489075,0.042694,-0.105225,-0.005954,-0.005634,0.004732,-52.68,-25.68,-13.37,2a
2019-07-12_110328:180,-0.48754899999999995,0.041687,-0.103699,-0.005619,-0.0052369999999999995,0.004457,-52.68,-25.68,-13.37,2a
2019-07-12_110328:200,-0.48654200000000003,0.041168,-0.104706,-0.005222,-0.0052369999999999995,0.00403,-53.060001,-24.559998999999998,-12.56,2a
2019-07-12_110328:220,-0.48654200000000003,0.040649,-0.105225,-0.004581,-0.005115,0.0038469999999999997,-53.060001,-24.559998999999998,-12.56,2a
2019-07-12_110328:240,-0.48754899999999995,0.042694,-0.106232,-0.0042450000000000005,-0.005115,0.0039689999999999994,-53.060001,-24.559998999999998,-12.56,2a
2019-07-12_110328:260,-0.48858599999999996,0.045226999999999996,-0.103699,-0.003879,-0.004779,0.004793,-52.68,-25.0,-13.37,2a
2019-07-12_110328:280,-0.48706099999999997,0.046265,-0.103699,-0.00394,-0.004657,0.005128,-52.68,-25.0,-13.37,2a
2019-07-12_110328:300,-0.48654200000000003,0.047791,-0.10318,-0.004459,-0.004596,0.005128,-53.5,-25.0,-12.56,2a
2019-07-12_110328:320,-0.485016,0.048798,-0.102692,-0.004886,-0.004566,0.005189,-53.5,-25.0,-12.56,2a
2019-07-12_110328:340,-0.486023,0.045226999999999996,-0.102173,-0.0052829999999999995,-0.004657,0.004945000000000001,-53.5,-25.0,-12.56,2a
2019-07-12_110328:360,-0.48654200000000003,0.044739,-0.101685,-0.005497,-0.004596,0.004854,-52.68,-24.559998999999998,-13.06,2a
2019-07-12_110328:380,-0.486023,0.045745999999999995,-0.10116599999999999,-0.005497,-0.0045049999999999995,0.005067,-52.68,-24.559998999999998,-13.06,2a
2019-07-12_110328:400,-0.48654200000000003,0.043213,-0.102173,-0.005497,-0.004779,0.005006,-53.5,-25.25,-13.06,2a
2019-07-12_110328:420,-0.486023,0.044219999999999995,-0.10116599999999999,-0.005161,-0.004718,0.004854,-53.5,-25.25,-13.06,2a
2019-07-12_110328:440,-0.488068,0.041168,-0.10116599999999999,-0.005039,-0.004779,0.005128,-53.5,-25.25,-13.06,2a
2019-07-12_110328:460,-0.48754899999999995,0.044219999999999995,-0.09963999999999999,-0.004886,-0.004779,0.005311,-53.060001,-24.559998999999998,-13.37,2a
2019-07-12_110328:480,-0.488068,0.041168,-0.09963999999999999,-0.004612,-0.004657,0.005464,-53.060001,-24.559998999999998,-13.37,2a
2019-07-12_110328:500,-0.48654200000000003,0.043213,-0.09963999999999999,-0.004459,-0.004444,0.005464,-52.68,-25.0,-13.75,2a
2019-07-12_110328:520,-0.48553500000000005,0.042694,-0.09963999999999999,-0.004581,-0.004718,0.005128,-52.68,-25.0,-13.75,2a
2019-07-12_110328:540,-0.48654200000000003,0.043213,-0.099121,-0.004612,-0.004901,0.005067,-52.68,-25.0,-13.75,2a
2019-07-12_110328:560,-0.48654200000000003,0.041687,-0.098633,-0.004581,-0.005176,0.004854,-53.060001,-23.75,-11.37,2a
2019-07-12_110328:580,-0.48654200000000003,0.042175,-0.098633,-0.004459,-0.00539,0.004609,-53.060001,-23.75,-11.37,2a
2019-07-12_110328:600,-0.48553500000000005,0.041687,-0.099121,-0.004520000000000001,-0.005359,0.004732,-53.060001,-25.0,-12.56,2a
2019-07-12_110328:620,-0.486023,0.043213,-0.099121,-0.004459,-0.005634,0.005311,-53.060001,-25.0,-12.56,2a
2019-07-12_110328:640,-0.48754899999999995,0.041168,-0.09963999999999999,-0.004520000000000001,-0.0055119999999999995,0.005464,-53.060001,-25.0,-12.56,2a
2019-07-12_110328:660,-0.48706099999999997,0.041687,-0.09963999999999999,-0.004398,-0.005359,0.00525,-52.68,-24.18,-14.18,2a
2019-07-12_110328:680,-0.486023,0.040161,-0.098633,-0.004275999999999999,-0.005451,0.005006,-52.68,-24.18,-14.18,2a
2019-07-12_110328:700,-0.485016,0.040649,-0.10116599999999999,-0.004398,-0.005634,0.005006,-53.5,-24.559998999999998,-13.37,2a
2019-07-12_110328:720,-0.484497,0.041687,-0.100647,-0.004459,-0.006092,0.005586,-53.5,-24.559998999999998,-13.37,2a
2019-07-12_110328:740,-0.486023,0.041687,-0.100647,-0.004703,-0.006397,0.006135,-53.5,-24.559998999999998,-13.37,2a
2019-07-12_110328:760,-0.490112,0.041168,-0.101685,-0.004947,-0.006275,0.006470999999999999,-53.5,-23.75,-13.06,2a
2019-07-12_110328:780,-0.491638,0.040161,-0.10116599999999999,-0.005375,-0.005756,0.006318,-53.5,-23.75,-13.06,2a
2019-07-12_110328:800,-0.489594,0.036072,-0.10116599999999999,-0.005375,-0.0055119999999999995,0.006196,-53.75,-24.18,-14.56,2a
2019-07-12_110328:820,-0.490112,0.034546,-0.10116599999999999,-0.005161,-0.004718,0.004793,-53.75,-24.18,-14.56,2a
2019-07-12_110328:840,-0.48553500000000005,0.033539,-0.101685,-0.004612,-0.004657,0.003694,-53.75,-24.18,-14.56,2a
2019-07-12_110328:860,-0.48553500000000005,0.036072,-0.102692,-0.004123,-0.004961999999999999,0.003572,-53.75,-24.18,-12.56,2a
2019-07-12_110328:880,-0.48754899999999995,0.040161,-0.102692,-0.004001,-0.005298,0.004793,-53.75,-24.18,-12.56,2a
2019-07-12_110328:900,-0.488068,0.042175,-0.102692,-0.003879,-0.00539,0.005678,-54.5,-25.0,-13.37,2a
2019-07-12_110328:920,-0.48858599999999996,0.040161,-0.10318,-0.004520000000000001,-0.004901,0.006135,-54.5,-25.0,-13.37,2a
2019-07-12_110328:940,-0.48858599999999996,0.040161,-0.101685,-0.005344,-0.004657,0.005189,-54.5,-25.0,-13.37,2a
2019-07-12_110328:960,-0.48858599999999996,0.040161,-0.100159,-0.005558,-0.004229999999999999,0.005067,-53.5,-24.559998999999998,-12.56,2a
2019-07-12_110328:980,-0.48754899999999995,0.036591000000000005,-0.099121,-0.0060149999999999995,-0.00365,0.005311,-53.5,-24.559998999999998,-12.56,2a
2019-07-12_110329:000,-0.489075,0.033539,-0.100159,-0.00629,-0.003833,0.00525,-53.75,-24.559998999999998,-12.18,2a
2019-07-12_110329:020,-0.489075,0.034546,-0.100159,-0.005771,-0.003467,0.005342,-53.75,-24.559998999999998,-12.18,2a
2019-07-12_110329:040,-0.489594,0.032532,-0.099121,-0.0052829999999999995,-0.003711,0.005464,-53.75,-24.559998999999998,-12.18,2a
2019-07-12_110329:060,-0.489075,0.032013,-0.098633,-0.004947,-0.003589,0.005189,-53.060001,-24.18,-11.06,2a
2019-07-12_110329:080,-0.48654200000000003,0.035065,-0.096588,-0.004398,-0.003711,0.004945000000000001,-53.060001,-24.18,-11.06,2a
2019-07-12_110329:100,-0.48754899999999995,0.034546,-0.095581,-0.004398,-0.0038640000000000002,0.005128,-54.060001,-25.25,-12.56,2a
2019-07-12_110329:120,-0.484497,0.035583,-0.097595,-0.004520000000000001,-0.003833,0.004396,-54.060001,-25.25,-12.56,2a
2019-07-12_110329:140,-0.48654200000000003,0.036072,-0.095062,-0.004764,-0.004108,0.003694,-54.060001,-25.25,-12.56,2a
2019-07-12_110329:160,-0.48754899999999995,0.038635,-0.097107,-0.004947,-0.00426,0.0038159999999999995,-54.18,-24.18,-11.75,2a
2019-07-12_110329:180,-0.48654200000000003,0.038635,-0.095062,-0.004978,-0.004566,0.005525,-54.18,-24.18,-11.75,2a
2019-07-12_110329:200,-0.490112,0.034546,-0.096069,-0.005222,-0.004444,0.005342,-54.5,-23.75,-11.75,2a
2019-07-12_110329:220,-0.490601,0.036072,-0.09454299999999999,-0.005741,-0.004229999999999999,0.004396,-54.5,-23.75,-11.75,2a
2019-07-12_110329:240,-0.489075,0.035583,-0.09353600000000001,-0.005619,-0.00426,0.004548,-54.5,-23.75,-11.75,2a
2019-07-12_110329:260,-0.48858599999999996,0.033539,-0.094055,-0.005558,-0.004169,0.004671,-53.5,-23.75,-11.37,2a
2019-07-12_110329:280,-0.48858599999999996,0.034058,-0.09353600000000001,-0.005436,-0.004108,0.004457,-53.5,-23.75,-11.37,2a
2019-07-12_110329:300,-0.489075,0.033539,-0.09454299999999999,-0.004978,-0.004321,0.004335,-53.060001,-23.75,-12.18,2a
2019-07-12_110329:320,-0.48858599999999996,0.034058,-0.094055,-0.004581,-0.00426,0.004335,-53.060001,-23.75,-12.18,2a
2019-07-12_110329:340,-0.489594,0.035583,-0.092529,-0.004275999999999999,-0.00426,0.004396,-53.060001,-23.75,-12.18,2a
2019-07-12_110329:360,-0.489594,0.034546,-0.09353600000000001,-0.004337,-0.004383,0.004732,-54.5,-25.0,-11.75,2a
2019-07-12_110329:380,-0.48858599999999996,0.036591000000000005,-0.092529,-0.004337,-0.004444,0.004457,-54.5,-25.0,-11.75,2a
2019-07-12_110329:400,-0.488068,0.036072,-0.09301799999999999,-0.004275999999999999,-0.004321,0.004396,-54.5,-25.0,-11.75,2a
2019-07-12_110329:420,-0.488068,0.036072,-0.09301799999999999,-0.004642,-0.004657,0.004671,-54.060001,-24.559998999999998,-11.37,2a
2019-07-12_110329:440,-0.488068,0.035583,-0.092529,-0.004764,-0.004566,0.004732,-54.060001,-24.559998999999998,-11.37,2a
2019-07-12_110329:460,-0.490112,0.035065,-0.092529,-0.004978,-0.004718,0.004671,-53.75,-24.18,-12.18,2a
2019-07-12_110329:480,-0.489594,0.03302,-0.09149199999999999,-0.004886,-0.00484,0.004609,-53.75,-24.18,-12.18,2a
2019-07-12_110329:500,-0.489594,0.034058,-0.09201000000000001,-0.004947,-0.004718,0.004548,-54.5,-25.0,-11.75,2a
2019-07-12_110329:520,-0.48754899999999995,0.033539,-0.092529,-0.004947,-0.004779,0.004609,-54.5,-25.0,-11.75,2a
2019-07-12_110329:540,-0.48858599999999996,0.034058,-0.09301799999999999,-0.004947,-0.004961999999999999,0.004793,-54.5,-25.0,-11.75,2a
2019-07-12_110329:560,-0.488068,0.032532,-0.09201000000000001,-0.004703,-0.005115,0.004945000000000001,-54.18,-23.75,-12.56,2a
2019-07-12_110329:580,-0.489075,0.034058,-0.09149199999999999,-0.004886,-0.005176,0.005006,-54.18,-23.75,-12.56,2a
2019-07-12_110329:600,-0.490601,0.03302,-0.09149199999999999,-0.004764,-0.005115,0.004793,-54.18,-23.75,-11.75,2a
2019-07-12_110329:620,-0.490601,0.032532,-0.091003,-0.004764,-0.00484,0.004609,-54.18,-23.75,-11.75,2a
2019-07-12_110329:640,-0.48858599999999996,0.032532,-0.092529,-0.004825,-0.00484,0.004548,-54.18,-23.75,-11.75,2a
2019-07-12_110329:660,-0.48754899999999995,0.034058,-0.09301799999999999,-0.004764,-0.00484,0.004671,-53.75,-23.75,-12.56,2a
2019-07-12_110329:680,-0.489075,0.032013,-0.090485,-0.004825,-0.005115,0.004793,-53.75,-23.75,-12.56,2a
2019-07-12_110329:700,-0.489594,0.03302,-0.09201000000000001,-0.004825,-0.005176,0.004854,-54.5,-23.75,-12.18,2a
2019-07-12_110329:720,-0.489594,0.032532,-0.09149199999999999,-0.004825,-0.004901,0.004945000000000001,-54.5,-23.75,-12.18,2a
2019-07-12_110329:740,-0.490601,0.032532,-0.092529,-0.004703,-0.004779,0.004854,-54.5,-23.75,-12.18,2a
2019-07-12_110329:760,-0.49111899999999997,0.031494,-0.09301799999999999,-0.004764,-0.004961999999999999,0.004548,-53.5,-23.75,-11.75,2a
2019-07-12_110329:780,-0.492645,0.032013,-0.09149199999999999,-0.004642,-0.004993,0.004793,-53.5,-23.75,-11.75,2a
2019-07-12_110329:800,-0.490112,0.031494,-0.091003,-0.004642,-0.004596,0.004671,-53.5,-23.75,-11.75,2a
2019-07-12_110329:820,-0.489075,0.032013,-0.090485,-0.004947,-0.0045049999999999995,0.004915,-53.060001,-22.75,-10.18,2a
2019-07-12_110329:840,-0.489594,0.031006,-0.09201000000000001,-0.004825,-0.004383,0.004915,-53.060001,-22.75,-10.18,2a
2019-07-12_110329:860,-0.488068,0.031006,-0.08996599999999999,-0.004886,-0.00426,0.00403,-54.5,-23.75,-11.37,2a
2019-07-12_110329:880,-0.490112,0.031494,-0.090485,-0.004703,-0.004383,0.003511,-54.5,-23.75,-11.37,2a
2019-07-12_110329:900,-0.490601,0.033539,-0.09149199999999999,-0.004642,-0.004901,0.003908,-53.5,-23.059998999999998,-11.75,2a
2019-07-12_110329:920,-0.490112,0.033539,-0.092529,-0.004612,-0.004961999999999999,0.005006,-53.5,-23.059998999999998,-11.75,2a
2019-07-12_110329:940,-0.489075,0.032532,-0.09201000000000001,-0.004703,-0.00484,0.005678,-53.5,-23.059998999999998,-11.75,2a
2019-07-12_110329:960,-0.489075,0.032532,-0.08996599999999999,-0.004764,-0.004718,0.004793,-54.18,-23.5,-12.18,2a
2019-07-12_110329:980,-0.490601,0.031006,-0.088959,-0.004886,-0.00426,0.004274,-54.18,-23.5,-12.18,2a
2019-07-12_110330:000,-0.489594,0.030487,-0.089478,-0.004886,-0.003925,0.004335,-54.18,-23.5,-12.18,2a
2019-07-12_110330:020,-0.492126,0.031006,-0.090485,-0.004520000000000001,-0.003833,0.004274,-54.18,-23.5,-11.37,2a
2019-07-12_110330:040,-0.491638,0.031494,-0.087952,-0.004275999999999999,-0.003589,0.004732,-54.18,-23.5,-11.37,2a
2019-07-12_110330:060,-0.49111899999999997,0.032013,-0.087952,-0.004062,-0.0035280000000000003,0.005342,-54.060001,-24.18,-11.06,2a
2019-07-12_110330:080,-0.491638,0.031494,-0.086426,-0.0042450000000000005,-0.003375,0.005464,-54.060001,-24.18,-11.06,2a
2019-07-12_110330:100,-0.49111899999999997,0.033539,-0.08743300000000001,-0.004398,-0.0037719999999999997,0.005067,-54.060001,-24.18,-11.06,2a
2019-07-12_110330:120,-0.489075,0.032013,-0.08743300000000001,-0.004764,-0.003711,0.005403,-53.75,-23.75,-10.56,2a
2019-07-12_110330:140,-0.48754899999999995,0.028961,-0.086914,-0.004978,-0.0038640000000000002,0.005311,-53.75,-23.75,-10.56,2a
2019-07-12_110330:160,-0.49111899999999997,0.028442000000000002,-0.085388,-0.005222,-0.0038640000000000002,0.004091,-54.060001,-23.75,-12.18,2a
2019-07-12_110330:180,-0.489075,0.029480000000000003,-0.083862,-0.005222,-0.003711,0.00403,-54.060001,-23.75,-12.18,2a
2019-07-12_110330:200,-0.490112,0.029480000000000003,-0.084381,-0.004764,-0.004169,0.005311,-54.060001,-23.75,-12.18,2a
2019-07-12_110330:220,-0.49111899999999997,0.029480000000000003,-0.08590700000000001,-0.004642,-0.00426,0.005311,-54.5,-23.5,-11.37,2a
2019-07-12_110330:240,-0.490601,0.031006,-0.0849,-0.004886,-0.00426,0.004671,-54.5,-23.5,-11.37,2a
2019-07-12_110330:260,-0.491638,0.030487,-0.084381,-0.004703,-0.004229999999999999,0.004854,-54.5,-23.059998999999998,-11.37,2a
2019-07-12_110330:280,-0.491638,0.029480000000000003,-0.083374,-0.004978,-0.003925,0.005006,-54.5,-23.059998999999998,-11.37,2a
2019-07-12_110330:300,-0.490112,0.029480000000000003,-0.086426,-0.005161,-0.004047,0.004793,-54.5,-23.059998999999998,-11.37,2a
2019-07-12_110330:320,-0.491638,0.028442000000000002,-0.0849,-0.0052829999999999995,-0.003986,0.004793,-54.869999,-23.059998999999998,-9.75,2a
2019-07-12_110330:340,-0.49111899999999997,0.028442000000000002,-0.083374,-0.005039,-0.004169,0.004518,-54.869999,-23.059998999999998,-9.75,2a
2019-07-12_110330:360,-0.49316400000000005,0.029480000000000003,-0.084381,-0.004947,-0.003986,0.004548,-53.5,-23.059998999999998,-11.37,2a
2019-07-12_110330:380,-0.492645,0.027954000000000003,-0.082855,-0.004703,-0.003925,0.005189,-53.5,-23.059998999999998,-11.37,2a
2019-07-12_110330:400,-0.49111899999999997,0.028961,-0.083374,-0.004764,-0.003711,0.005189,-53.5,-23.059998999999998,-11.37,2a
2019-07-12_110330:420,-0.492645,0.028961,-0.081329,-0.004612,-0.0037719999999999997,0.004854,-54.060001,-23.75,-10.18,2a
2019-07-12_110330:440,-0.49111899999999997,0.028442000000000002,-0.081848,-0.004642,-0.0038640000000000002,0.004793,-54.060001,-23.75,-10.18,2a
2019-07-12_110330:460,-0.491638,0.028442000000000002,-0.081848,-0.004764,-0.003925,0.004671,-53.75,-23.5,-9.75,2a
2019-07-12_110330:480,-0.492126,0.028442000000000002,-0.080322,-0.004764,-0.003925,0.004335,-53.75,-23.5,-9.75,2a
2019-07-12_110330:500,-0.490601,0.028442000000000002,-0.079803,-0.004764,-0.003986,0.004213000000000001,-53.75,-23.5,-9.75,2a
2019-07-12_110330:520,-0.490601,0.028442000000000002,-0.08081100000000001,-0.004764,-0.003925,0.004335,-54.5,-23.059998999999998,-10.56,2a
2019-07-12_110330:540,-0.490601,0.028961,-0.08081100000000001,-0.004978,-0.003986,0.004457,-54.5,-23.059998999999998,-10.56,2a
2019-07-12_110330:560,-0.490112,0.028961,-0.081329,-0.004703,-0.004321,0.004671,-54.869999,-23.75,-10.18,2a
2019-07-12_110330:580,-0.492126,0.028442000000000002,-0.078278,-0.004703,-0.00426,0.005128,-54.869999,-23.75,-10.18,2a
2019-07-12_110330:600,-0.49111899999999997,0.027954000000000003,-0.081848,-0.004703,-0.004444,0.004915,-54.869999,-23.75,-10.18,2a
2019-07-12_110330:620,-0.491638,0.027954000000000003,-0.079803,-0.004764,-0.004444,0.004732,-54.18,-23.5,-9.75,2a
2019-07-12_110330:640,-0.491638,0.027954000000000003,-0.079803,-0.005039,-0.004596,0.004915,-54.18,-23.5,-9.75,2a
2019-07-12_110330:660,-0.49365200000000004,0.027954000000000003,-0.07928500000000001,-0.004947,-0.004901,0.004548,-55.25,-23.059998999999998,-10.18,2a
2019-07-12_110330:680,-0.49365200000000004,0.026427999999999997,-0.078796,-0.0051,-0.004779,0.004457,-55.25,-23.059998999999998,-10.18,2a
2019-07-12_110330:700,-0.49316400000000005,0.026917,-0.078796,-0.004886,-0.0045049999999999995,0.00403,-55.25,-23.059998999999998,-10.18,2a
2019-07-12_110330:720,-0.491638,0.025421,-0.078796,-0.004703,-0.004321,0.0038159999999999995,-54.18,-22.75,-11.06,2a
2019-07-12_110330:740,-0.489594,0.027954000000000003,-0.078796,-0.004398,-0.0045049999999999995,0.0037549999999999997,-54.18,-22.75,-11.06,2a
2019-07-12_110330:760,-0.490601,0.027435,-0.078796,-0.004398,-0.00484,0.00403,-54.869999,-23.5,-9.75,2a
2019-07-12_110330:780,-0.49316400000000005,0.028961,-0.07775900000000001,-0.004581,-0.005298,0.004671,-54.869999,-23.5,-9.75,2a
2019-07-12_110330:800,-0.495697,0.027954000000000003,-0.07928500000000001,-0.004642,-0.005115,0.004671,-54.869999,-23.5,-9.75,2a
2019-07-12_110330:820,-0.49316400000000005,0.027954000000000003,-0.076752,-0.004947,-0.004779,0.004457,-54.869999,-23.5,-11.06,2a
2019-07-12_110330:840,-0.49316400000000005,0.027435,-0.076263,-0.004947,-0.0045049999999999995,0.004396,-54.869999,-23.5,-11.06,2a
2019-07-12_110330:860,-0.49316400000000005,0.027435,-0.07775900000000001,-0.0052829999999999995,-0.00426,0.0039689999999999994,-54.869999,-22.370001000000002,-10.56,2a
2019-07-12_110330:880,-0.490601,0.026427999999999997,-0.078278,-0.005161,-0.0045049999999999995,0.0034189999999999997,-54.869999,-22.370001000000002,-10.56,2a
2019-07-12_110330:900,-0.492126,0.028961,-0.07775900000000001,-0.005222,-0.004961999999999999,0.003175,-54.869999,-22.370001000000002,-10.56,2a
2019-07-12_110330:920,-0.492645,0.028961,-0.078796,-0.005039,-0.005176,0.004396,-54.5,-23.5,-9.75,2a
2019-07-12_110330:940,-0.491638,0.028961,-0.077271,-0.005161,-0.0055119999999999995,0.00525,-54.5,-23.5,-9.75,2a
2019-07-12_110330:960,-0.492645,0.027435,-0.07775900000000001,-0.0052829999999999995,-0.005054,0.004793,-54.869999,-23.059998999999998,-10.18,2a
2019-07-12_110330:980,-0.49365200000000004,0.028442000000000002,-0.076263,-0.005436,-0.004657,0.004091,-54.869999,-23.059998999999998,-10.18,2a
2019-07-12_110331:000,-0.492645,0.025908999999999998,-0.076752,-0.005436,-0.004169,0.0038469999999999997,-54.869999,-23.059998999999998,-10.18,2a
2019-07-12_110331:020,-0.49517799999999995,0.026917,-0.077271,-0.005222,-0.00365,0.0038469999999999997,-53.75,-22.75,-9.75,2a
2019-07-12_110331:040,-0.49316400000000005,0.026917,-0.077271,-0.004947,-0.00365,0.0038159999999999995,-53.75,-22.75,-9.75,2a
2019-07-12_110331:060,-0.49468999999999996,0.026917,-0.074738,-0.004581,-0.003833,0.004548,-54.5,-22.75,-10.56,2a
2019-07-12_110331:080,-0.494171,0.027954000000000003,-0.075226,-0.004398,-0.003986,0.004915,-54.5,-22.75,-10.56,2a
2019-07-12_110331:100,-0.49111899999999997,0.028961,-0.075226,-0.004520000000000001,-0.004108,0.004457,-54.5,-22.75,-10.56,2a
2019-07-12_110331:120,-0.492126,0.028442000000000002,-0.07421900000000001,-0.004703,-0.004321,0.004518,-54.869999,-22.75,-10.18,2a
2019-07-12_110331:140,-0.489594,0.027954000000000003,-0.07421900000000001,-0.004947,-0.004321,0.004518,-54.869999,-22.75,-10.18,2a
2019-07-12_110331:160,-0.492126,0.026427999999999997,-0.07421900000000001,-0.005222,-0.004779,0.003511,-55.18,-23.059998999999998,-9.75,2a
2019-07-12_110331:180,-0.49111899999999997,0.028442000000000002,-0.074738,-0.005436,-0.004718,0.003358,-55.18,-23.059998999999998,-9.75,2a
2019-07-12_110331:200,-0.49365200000000004,0.026917,-0.07421900000000001,-0.0052829999999999995,-0.004993,0.004854,-55.18,-23.059998999999998,-9.75,2a
2019-07-12_110331:220,-0.494171,0.025421,-0.0737,-0.004978,-0.004901,0.004915,-54.369999,-23.059998999999998,-9.37,2a
2019-07-12_110331:240,-0.494171,0.026917,-0.07421900000000001,-0.0051,-0.004779,0.0038159999999999995,-54.369999,-23.059998999999998,-9.37,2a
2019-07-12_110331:260,-0.49365200000000004,0.026427999999999997,-0.07421900000000001,-0.0051,-0.004779,0.003694,-55.5,-23.5,-11.06,2a
2019-07-12_110331:280,-0.49111899999999997,0.025908999999999998,-0.072174,-0.005039,-0.004657,0.00403,-55.5,-23.5,-11.06,2a
2019-07-12_110331:300,-0.492645,0.027435,-0.0737,-0.004978,-0.004657,0.0037549999999999997,-55.5,-23.5,-11.06,2a
2019-07-12_110331:320,-0.492645,0.027435,-0.0737,-0.004947,-0.00484,0.003908,-54.369999,-23.059998999999998,-11.06,2a
2019-07-12_110331:340,-0.49316400000000005,0.026917,-0.072693,-0.004825,-0.004993,0.003908,-54.369999,-23.059998999999998,-11.06,2a
2019-07-12_110331:360,-0.49468999999999996,0.028442000000000002,-0.073212,-0.004825,-0.005115,0.003633,-54.369999,-23.059998999999998,-10.18,2a
2019-07-12_110331:380,-0.49468999999999996,0.029480000000000003,-0.072693,-0.004703,-0.004993,0.0039689999999999994,-54.369999,-23.059998999999998,-10.18,2a
2019-07-12_110331:400,-0.49316400000000005,0.026917,-0.072174,-0.004581,-0.004993,0.004152,-54.369999,-23.059998999999998,-10.18,2a
2019-07-12_110331:420,-0.49365200000000004,0.026917,-0.072174,-0.004581,-0.005054,0.0037549999999999997,-54.369999,-23.059998999999998,-9.37,2a
2019-07-12_110331:440,-0.492645,0.027954000000000003,-0.072174,-0.004520000000000001,-0.005115,0.003633,-54.369999,-23.059998999999998,-9.37,2a
2019-07-12_110331:460,-0.492645,0.028961,-0.072693,-0.004520000000000001,-0.005298,0.0038469999999999997,-54.369999,-22.75,-10.56,2a
2019-07-12_110331:480,-0.49316400000000005,0.028961,-0.072174,-0.004612,-0.00539,0.0038159999999999995,-54.369999,-22.75,-10.56,2a
2019-07-12_110331:500,-0.49365200000000004,0.029968,-0.073212,-0.004642,-0.00539,0.004091,-54.369999,-22.75,-10.56,2a
2019-07-12_110331:520,-0.49365200000000004,0.028961,-0.071686,-0.004947,-0.0052369999999999995,0.004274,-54.369999,-23.5,-9.75,2a
2019-07-12_110331:540,-0.49316400000000005,0.028442000000000002,-0.072174,-0.0051,-0.0052369999999999995,0.004213000000000001,-54.369999,-23.5,-9.75,2a
2019-07-12_110331:560,-0.49316400000000005,0.027954000000000003,-0.0737,-0.0052829999999999995,-0.005298,0.004091,-54.060001,-23.059998999999998,-9.06,2a
2019-07-12_110331:580,-0.49365200000000004,0.029480000000000003,-0.071167,-0.005161,-0.00539,0.004091,-54.060001,-23.059998999999998,-9.06,2a
2019-07-12_110331:600,-0.49316400000000005,0.027435,-0.072693,-0.004978,-0.005451,0.004182,-54.060001,-23.059998999999998,-9.06,2a
2019-07-12_110331:620,-0.494171,0.028442000000000002,-0.072174,-0.004703,-0.005451,0.004213000000000001,-55.18,-22.75,-10.18,2a
2019-07-12_110331:640,-0.492126,0.028442000000000002,-0.071686,-0.004459,-0.00539,0.004396,-55.18,-22.75,-10.18,2a
2019-07-12_110331:660,-0.49365200000000004,0.028961,-0.073212,-0.004459,-0.00539,0.004396,-55.18,-23.5,-9.37,2a
2019-07-12_110331:680,-0.49365200000000004,0.028961,-0.071686,-0.004825,-0.005573,0.004609,-55.18,-23.5,-9.37,2a
2019-07-12_110331:700,-0.49365200000000004,0.028961,-0.072693,-0.004978,-0.00539,0.004732,-55.18,-23.5,-9.37,2a
2019-07-12_110331:720,-0.49468999999999996,0.028961,-0.072693,-0.005039,-0.005115,0.004548,-53.68,-23.75,-10.56,2a
2019-07-12_110331:740,-0.492126,0.027435,-0.071686,-0.0051,-0.005115,0.004182,-53.68,-23.75,-10.56,2a
2019-07-12_110331:760,-0.49316400000000005,0.027954000000000003,-0.073212,-0.005039,-0.005115,0.004152,-54.369999,-23.059998999999998,-10.18,2a
2019-07-12_110331:780,-0.49365200000000004,0.028961,-0.073212,-0.004978,-0.00539,0.004609,-54.369999,-23.059998999999998,-10.18,2a
2019-07-12_110331:800,-0.497742,0.027435,-0.072693,-0.004886,-0.005634,0.004915,-54.369999,-23.059998999999998,-10.18,2a
2019-07-12_110331:820,-0.49365200000000004,0.027435,-0.072693,-0.004978,-0.005298,0.004671,-55.869999,-23.059998999999998,-10.18,2a
2019-07-12_110331:840,-0.495697,0.026427999999999997,-0.071686,-0.0051,-0.005176,0.004518,-55.869999,-23.059998999999998,-10.18,2a
2019-07-12_110331:860,-0.49468999999999996,0.024902,-0.072693,-0.004947,-0.0045049999999999995,0.0039689999999999994,-55.5,-23.059998999999998,-9.06,2a
2019-07-12_110331:880,-0.492645,0.026427999999999997,-0.071167,-0.004947,-0.004383,0.0034189999999999997,-55.5,-23.059998999999998,-9.06,2a
2019-07-12_110331:900,-0.49316400000000005,0.026917,-0.071686,-0.004612,-0.004657,0.003358,-55.5,-23.059998999999998,-9.06,2a
2019-07-12_110331:920,-0.492126,0.029480000000000003,-0.071167,-0.004612,-0.005298,0.00403,-54.75,-23.75,-9.75,2a
2019-07-12_110331:940,-0.49365200000000004,0.028961,-0.071167,-0.004642,-0.005573,0.005311,-54.75,-23.75,-9.75,2a
2019-07-12_110331:960,-0.494171,0.027435,-0.0737,-0.004947,-0.005573,0.005128,-54.369999,-23.5,-9.75,2a
2019-07-12_110331:980,-0.49316400000000005,0.027435,-0.071167,-0.0052829999999999995,-0.005054,0.00403,-54.369999,-23.5,-9.75,2a
2019-07-12_110332:000,-0.49316400000000005,0.027435,-0.070648,-0.005222,-0.004596,0.003511,-54.369999,-23.5,-9.75,2a
2019-07-12_110332:020,-0.49316400000000005,0.025908999999999998,-0.071686,-0.005161,-0.004444,0.0037549999999999997,-55.18,-23.059998999999998,-9.75,2a
2019-07-12_110332:040,-0.49468999999999996,0.025908999999999998,-0.071167,-0.004825,-0.004566,0.0037549999999999997,-55.18,-23.059998999999998,-9.75,2a
2019-07-12_110332:060,-0.495697,0.026917,-0.071686,-0.004459,-0.0045049999999999995,0.0039689999999999994,-54.369999,-23.5,-9.37,2a
2019-07-12_110332:080,-0.494171,0.027954000000000003,-0.068634,-0.004184,-0.004657,0.004518,-54.369999,-23.5,-9.37,2a
2019-07-12_110332:100,-0.49468999999999996,0.028961,-0.069641,-0.004062,-0.004718,0.004396,-54.369999,-23.5,-9.37,2a
2019-07-12_110332:120,-0.49468999999999996,0.029480000000000003,-0.068634,-0.004275999999999999,-0.004596,0.004182,-54.75,-23.059998999999998,-9.06,2a
2019-07-12_110332:140,-0.492126,0.029968,-0.07016,-0.004581,-0.00484,0.004274,-54.75,-23.059998999999998,-9.06,2a
2019-07-12_110332:160,-0.490112,0.027954000000000003,-0.069641,-0.004581,-0.004901,0.0038159999999999995,-54.369999,-23.5,-10.18,2a
2019-07-12_110332:180,-0.492645,0.028961,-0.069641,-0.004886,-0.004993,0.003023,-54.369999,-23.5,-10.18,2a
2019-07-12_110332:200,-0.49517799999999995,0.029480000000000003,-0.071167,-0.004764,-0.005725,0.004182,-54.369999,-23.5,-10.18,2a
2019-07-12_110332:220,-0.495697,0.027954000000000003,-0.069641,-0.004978,-0.005634,0.005403,-54.369999,-23.059998999999998,-9.75,2a
2019-07-12_110332:240,-0.496216,0.026917,-0.071686,-0.004947,-0.005451,0.004609,-54.369999,-23.059998999999998,-9.75,2a
2019-07-12_110332:260,-0.496704,0.028961,-0.071167,-0.005222,-0.004961999999999999,0.0039689999999999994,-54.369999,-23.5,-10.18,2a
2019-07-12_110332:280,-0.49365200000000004,0.027435,-0.069641,-0.005222,-0.004779,0.004182,-54.369999,-23.5,-10.18,2a
2019-07-12_110332:300,-0.492126,0.025908999999999998,-0.069122,-0.005039,-0.004321,0.003908,-54.369999,-23.5,-10.18,2a
2019-07-12_110332:320,-0.49316400000000005,0.027435,-0.069641,-0.004886,-0.004718,0.003633,-53.68,-22.75,-9.75,2a
2019-07-12_110332:340,-0.49365200000000004,0.026917,-0.068115,-0.004520000000000001,-0.004657,0.0039689999999999994,-53.68,-22.75,-9.75,2a
2019-07-12_110332:360,-0.49468999999999996,0.028442000000000002,-0.069641,-0.004398,-0.005176,0.0038159999999999995,-54.75,-22.75,-9.06,2a
2019-07-12_110332:380,-0.49468999999999996,0.029968,-0.068634,-0.004275999999999999,-0.004961999999999999,0.004152,-54.75,-22.75,-9.06,2a
2019-07-12_110332:400,-0.495697,0.029968,-0.068634,-0.004459,-0.004961999999999999,0.004732,-54.75,-22.75,-9.06,2a
2019-07-12_110332:420,-0.49316400000000005,0.028961,-0.069641,-0.004642,-0.00484,0.004396,-55.18,-23.5,-10.18,2a
2019-07-12_110332:440,-0.491638,0.028961,-0.069122,-0.004978,-0.004657,0.0038159999999999995,-55.18,-23.5,-10.18,2a
2019-07-12_110332:460,-0.491638,0.028961,-0.069122,-0.005161,-0.004779,0.0039689999999999994,-54.75,-23.5,-9.37,2a
2019-07-12_110332:480,-0.492645,0.028961,-0.068115,-0.005161,-0.004901,0.004274,-54.75,-23.5,-9.37,2a
2019-07-12_110332:500,-0.494171,0.027954000000000003,-0.066589,-0.0052829999999999995,-0.00539,0.004396,-54.75,-23.5,-9.37,2a
2019-07-12_110332:520,-0.49365200000000004,0.026917,-0.068634,-0.005222,-0.004993,0.004335,-54.75,-23.059998999999998,-10.18,2a
2019-07-12_110332:540,-0.49365200000000004,0.027435,-0.066589,-0.005039,-0.004961999999999999,0.004091,-54.75,-23.059998999999998,-10.18,2a
2019-07-12_110332:560,-0.49365200000000004,0.029480000000000003,-0.068115,-0.004886,-0.004901,0.00403,-54.75,-23.5,-10.56,2a
2019-07-12_110332:580,-0.49365200000000004,0.028961,-0.066589,-0.004825,-0.005298,0.004518,-54.75,-23.5,-10.56,2a
2019-07-12_110332:600,-0.49468999999999996,0.027954000000000003,-0.067596,-0.004886,-0.005359,0.004915,-54.75,-23.5,-10.56,2a
2019-07-12_110332:620,-0.49468999999999996,0.027954000000000003,-0.068634,-0.004764,-0.0052369999999999995,0.004793,-53.68,-23.059998999999998,-9.37,2a
2019-07-12_110332:640,-0.49517799999999995,0.026917,-0.068634,-0.004947,-0.005054,0.004274,-53.68,-23.059998999999998,-9.37,2a
2019-07-12_110332:660,-0.494171,0.029480000000000003,-0.067596,-0.004978,-0.004961999999999999,0.0039689999999999994,-54.75,-23.059998999999998,-10.18,2a
2019-07-12_110332:680,-0.494171,0.028961,-0.067108,-0.004947,-0.004961999999999999,0.00403,-54.75,-23.059998999999998,-10.18,2a
2019-07-12_110332:700,-0.49365200000000004,0.028442000000000002,-0.068634,-0.005161,-0.004718,0.004457,-54.75,-23.059998999999998,-10.18,2a
2019-07-12_110332:720,-0.49468999999999996,0.028961,-0.067596,-0.005039,-0.004566,0.004609,-54.369999,-22.75,-9.87,2a
2019-07-12_110332:740,-0.494171,0.027954000000000003,-0.066589,-0.005039,-0.004596,0.004396,-54.369999,-22.75,-9.87,2a
2019-07-12_110332:760,-0.494171,0.028961,-0.068115,-0.005039,-0.004566,0.004609,-54.369999,-23.5,-10.18,2a
2019-07-12_110332:780,-0.494171,0.028442000000000002,-0.066071,-0.005161,-0.004657,0.004793,-54.369999,-23.5,-10.18,2a
2019-07-12_110332:800,-0.495697,0.027954000000000003,-0.066071,-0.005161,-0.005054,0.005006,-54.369999,-23.5,-10.18,2a
2019-07-12_110332:820,-0.496704,0.027435,-0.066589,-0.0052829999999999995,-0.004901,0.005189,-54.369999,-23.059998999999998,-7.75,2a
2019-07-12_110332:840,-0.496216,0.026427999999999997,-0.066071,-0.0052829999999999995,-0.0045049999999999995,0.005189,-54.369999,-23.059998999999998,-7.75,2a
2019-07-12_110332:860,-0.49468999999999996,0.026917,-0.065063,-0.0052829999999999995,-0.004383,0.005067,-54.75,-22.75,-8.56,2a
2019-07-12_110332:880,-0.495697,0.024902,-0.065063,-0.005222,-0.004229999999999999,0.005006,-54.75,-22.75,-8.56,2a
2019-07-12_110332:900,-0.49365200000000004,0.025421,-0.066071,-0.005161,-0.004229999999999999,0.004274,-54.75,-22.75,-8.56,2a
2019-07-12_110332:920,-0.49517799999999995,0.025908999999999998,-0.065063,-0.005161,-0.004444,0.0037549999999999997,-54.060001,-22.370001000000002,-8.18,2a
2019-07-12_110332:940,-0.496216,0.026427999999999997,-0.065582,-0.004764,-0.004657,0.003908,-54.060001,-22.370001000000002,-8.18,2a
2019-07-12_110332:960,-0.49365200000000004,0.026917,-0.065582,-0.004886,-0.004657,0.004732,-54.060001,-23.5,-8.56,2a
2019-07-12_110332:980,-0.49316400000000005,0.026427999999999997,-0.064545,-0.004978,-0.00484,0.005464,-54.060001,-23.5,-8.56,2a
2019-07-12_110333:000,-0.49365200000000004,0.026427999999999997,-0.06405599999999999,-0.0051,-0.004657,0.004793,-54.060001,-23.5,-8.56,2a
2019-07-12_110333:020,-0.49365200000000004,0.025908999999999998,-0.063538,-0.005679999999999999,-0.004718,0.003908,-55.5,-23.5,-9.06,2a
2019-07-12_110333:040,-0.49468999999999996,0.025421,-0.063538,-0.005619,-0.004596,0.0039689999999999994,-55.5,-23.5,-9.06,2a
2019-07-12_110333:060,-0.49722299999999997,0.024902,-0.06253099999999999,-0.005619,-0.004321,0.00403,-54.75,-23.5,-9.37,2a
2019-07-12_110333:080,-0.49823,0.024902,-0.062012,-0.005375,-0.004108,0.004091,-54.75,-23.5,-9.37,2a
2019-07-12_110333:100,-0.495697,0.025421,-0.062012,-0.004886,-0.003833,0.004518,-54.75,-23.5,-9.37,2a
2019-07-12_110333:120,-0.495697,0.024902,-0.06149299999999999,-0.004642,-0.0038640000000000002,0.004518,-55.5,-22.370001000000002,-8.18,2a
2019-07-12_110333:140,-0.494171,0.025908999999999998,-0.06149299999999999,-0.004337,-0.004169,0.0039689999999999994,-55.5,-22.370001000000002,-8.18,2a
2019-07-12_110333:160,-0.49316400000000005,0.026427999999999997,-0.063019,-0.004459,-0.0045049999999999995,0.0038159999999999995,-54.75,-23.5,-8.56,2a
2019-07-12_110333:180,-0.49316400000000005,0.025908999999999998,-0.060486,-0.004642,-0.004383,0.003633,-54.75,-23.5,-8.56,2a
2019-07-12_110333:200,-0.49468999999999996,0.025421,-0.06149299999999999,-0.004459,-0.004657,0.0025039999999999997,-54.75,-23.5,-8.56,2a
2019-07-12_110333:220,-0.49517799999999995,0.027954000000000003,-0.06253099999999999,-0.0042450000000000005,-0.004596,0.002229,-54.369999,-23.5,-8.18,2a
2019-07-12_110333:240,-0.49365200000000004,0.026917,-0.061005,-0.003849,-0.004961999999999999,0.0039689999999999994,-54.369999,-23.5,-8.18,2a
2019-07-12_110333:260,-0.49365200000000004,0.027435,-0.060486,-0.0037270000000000003,-0.005054,0.004732,-54.75,-23.059998999999998,-9.06,2a
2019-07-12_110333:280,-0.494171,0.027954000000000003,-0.061005,-0.004001,-0.005176,0.00403,-54.75,-23.059998999999998,-9.06,2a
2019-07-12_110333:300,-0.49365200000000004,0.031006,-0.062012,-0.004459,-0.00539,0.003358,-54.75,-23.059998999999998,-9.06,2a
2019-07-12_110333:320,-0.492645,0.029480000000000003,-0.062012,-0.004947,-0.005756,0.0034189999999999997,-55.5,-23.5,-9.37,2a
2019-07-12_110333:340,-0.492645,0.028961,-0.062012,-0.005344,-0.005817,0.003023,-55.5,-23.5,-9.37,2a
2019-07-12_110333:360,-0.494171,0.028961,-0.062012,-0.005558,-0.005939,0.0032359999999999997,-55.18,-23.059998999999998,-9.06,2a
2019-07-12_110333:380,-0.49468999999999996,0.027435,-0.06253099999999999,-0.005222,-0.006275,0.00345,-55.18,-23.059998999999998,-9.06,2a
2019-07-12_110333:400,-0.49722299999999997,0.028961,-0.06253099999999999,-0.005222,-0.006336,0.003023,-55.18,-23.059998999999998,-9.06,2a
2019-07-12_110333:420,-0.49722299999999997,0.028442000000000002,-0.062012,-0.004886,-0.005939,0.003297,-55.5,-23.75,-8.18,2a
2019-07-12_110333:440,-0.496216,0.028961,-0.06405599999999999,-0.004612,-0.005634,0.0039689999999999994,-55.5,-23.75,-8.18,2a
2019-07-12_110333:460,-0.49468999999999996,0.027954000000000003,-0.063538,-0.004459,-0.005298,0.003908,-55.18,-22.75,-9.06,2a
2019-07-12_110333:480,-0.494171,0.029480000000000003,-0.063019,-0.004398,-0.0052369999999999995,0.0037549999999999997,-55.18,-22.75,-9.06,2a
2019-07-12_110333:500,-0.49365200000000004,0.029968,-0.06405599999999999,-0.0042450000000000005,-0.005176,0.003908,-55.18,-22.75,-9.06,2a
2019-07-12_110333:520,-0.49468999999999996,0.030487,-0.063538,-0.0042450000000000005,-0.0052369999999999995,0.004152,-54.75,-22.75,-9.06,2a
2019-07-12_110333:540,-0.49468999999999996,0.029968,-0.062012,-0.004581,-0.005298,0.004091,-54.75,-22.75,-9.06,2a
2019-07-12_110333:560,-0.49517799999999995,0.029968,-0.063019,-0.004764,-0.005176,0.004213000000000001,-55.18,-22.75,-9.06,2a
2019-07-12_110333:580,-0.49468999999999996,0.028442000000000002,-0.06149299999999999,-0.005039,-0.005054,0.004182,-55.18,-22.75,-9.06,2a
2019-07-12_110333:600,-0.49316400000000005,0.028961,-0.06253099999999999,-0.004947,-0.005115,0.003908,-55.18,-22.75,-9.06,2a
2019-07-12_110333:620,-0.49468999999999996,0.028442000000000002,-0.060486,-0.005039,-0.00539,0.00403,-55.5,-23.5,-8.56,2a
2019-07-12_110333:640,-0.49468999999999996,0.027954000000000003,-0.062012,-0.004825,-0.00539,0.004335,-55.5,-23.5,-8.56,2a
2019-07-12_110333:660,-0.49468999999999996,0.027954000000000003,-0.06253099999999999,-0.004703,-0.005573,0.004335,-54.369999,-22.75,-9.37,2a
2019-07-12_110333:680,-0.49517799999999995,0.027954000000000003,-0.06149299999999999,-0.004612,-0.005451,0.004274,-54.369999,-22.75,-9.37,2a
2019-07-12_110333:700,-0.494171,0.028961,-0.062012,-0.004520000000000001,-0.005176,0.004274,-54.369999,-22.75,-9.37,2a
2019-07-12_110333:720,-0.49517799999999995,0.027435,-0.06253099999999999,-0.004337,-0.005115,0.004213000000000001,-55.18,-22.75,-9.37,2a
2019-07-12_110333:740,-0.49468999999999996,0.028442000000000002,-0.06149299999999999,-0.004612,-0.005115,0.004335,-55.18,-22.75,-9.37,2a
2019-07-12_110333:760,-0.494171,0.027954000000000003,-0.062012,-0.004703,-0.005054,0.004182,-54.75,-22.370001000000002,-9.06,2a
2019-07-12_110333:780,-0.49365200000000004,0.027435,-0.061005,-0.004642,-0.005115,0.0039689999999999994,-54.75,-22.370001000000002,-9.06,2a
2019-07-12_110333:800,-0.494171,0.028442000000000002,-0.06149299999999999,-0.004581,-0.005359,0.0039689999999999994,-54.75,-22.370001000000002,-9.06,2a
2019-07-12_110333:820,-0.49517799999999995,0.028961,-0.062012,-0.004581,-0.005756,0.004213000000000001,-54.75,-22.75,-9.37,2a
2019-07-12_110333:840,-0.498749,0.027954000000000003,-0.06149299999999999,-0.004520000000000001,-0.005817,0.004335,-54.75,-22.75,-9.37,2a
2019-07-12_110333:860,-0.495697,0.027954000000000003,-0.05996699999999999,-0.004703,-0.0055119999999999995,0.004091,-55.18,-23.75,-8.56,2a
2019-07-12_110333:880,-0.495697,0.027954000000000003,-0.061005,-0.004612,-0.004901,0.0039689999999999994,-55.18,-23.75,-8.56,2a
2019-07-12_110333:900,-0.495697,0.027435,-0.06253099999999999,-0.004337,-0.004596,0.003572,-55.18,-23.75,-8.56,2a
2019-07-12_110333:920,-0.49111899999999997,0.028961,-0.060486,-0.004398,-0.0045049999999999995,0.003114,-53.68,-23.059998999999998,-8.56,2a
2019-07-12_110333:940,-0.49468999999999996,0.031006,-0.062012,-0.004520000000000001,-0.004901,0.00345,-53.68,-23.059998999999998,-8.56,2a
2019-07-12_110333:960,-0.49517799999999995,0.032532,-0.06253099999999999,-0.004703,-0.005695,0.004152,-54.75,-23.5,-8.18,2a
2019-07-12_110333:980,-0.49517799999999995,0.030487,-0.061005,-0.005222,-0.005817,0.005189,-54.75,-23.5,-8.18,2a
2019-07-12_110334:000,-0.496216,0.029480000000000003,-0.061005,-0.005741,-0.0055119999999999995,0.005525,-54.75,-23.5,-8.18,2a
2019-07-12_110334:020,-0.495697,0.026917,-0.061005,-0.006229,-0.004901,0.004548,-54.75,-23.059998999999998,-7.06,2a
2019-07-12_110334:040,-0.49517799999999995,0.026427999999999997,-0.059479,-0.006351,-0.004169,0.003511,-54.75,-23.059998999999998,-7.06,2a
2019-07-12_110334:060,-0.49468999999999996,0.026427999999999997,-0.061005,-0.005954,-0.004229999999999999,0.0038159999999999995,-55.869999,-23.5,-8.56,2a
2019-07-12_110334:080,-0.496704,0.024902,-0.058441,-0.005375,-0.004321,0.0037549999999999997,-55.869999,-23.5,-8.56,2a
2019-07-12_110334:100,-0.497742,0.026427999999999997,-0.058441,-0.004703,-0.004321,0.003633,-55.869999,-23.5,-8.56,2a
2019-07-12_110334:120,-0.496216,0.026917,-0.057953,-0.004062,-0.004169,0.003694,-54.369999,-22.75,-9.37,2a
2019-07-12_110334:140,-0.494171,0.027954000000000003,-0.058960000000000005,-0.0033299999999999996,-0.00426,0.0038159999999999995,-54.369999,-22.75,-9.37,2a
2019-07-12_110334:160,-0.49365200000000004,0.032013,-0.057434000000000006,-0.003544,-0.004383,0.00403,-54.060001,-23.75,-8.56,2a
2019-07-12_110334:180,-0.49111899999999997,0.031494,-0.057953,-0.003879,-0.004657,0.004274,-54.060001,-23.75,-8.56,2a
2019-07-12_110334:200,-0.491638,0.030487,-0.057953,-0.004459,-0.004901,0.003694,-54.060001,-23.75,-8.56,2a
2019-07-12_110334:220,-0.495697,0.03302,-0.058960000000000005,-0.0051,-0.005359,0.0032359999999999997,-55.18,-22.75,-8.18,2a
2019-07-12_110334:240,-0.496704,0.031006,-0.057953,-0.005436,-0.005359,0.004609,-55.18,-22.75,-8.18,2a
2019-07-12_110334:260,-0.497742,0.028961,-0.058441,-0.005619,-0.005115,0.005189,-55.5,-23.5,-8.18,2a
2019-07-12_110334:280,-0.49517799999999995,0.026917,-0.056427,-0.005497,-0.004779,0.004274,-55.5,-23.5,-8.18,2a
2019-07-12_110334:300,-0.49468999999999996,0.028961,-0.057953,-0.005375,-0.004566,0.0038469999999999997,-55.5,-23.5,-8.18,2a
2019-07-12_110334:320,-0.49365200000000004,0.027954000000000003,-0.056915,-0.004886,-0.0045049999999999995,0.004396,-55.869999,-22.75,-8.56,2a
2019-07-12_110334:340,-0.495697,0.026427999999999997,-0.058441,-0.004642,-0.004657,0.004396,-55.869999,-22.75,-8.56,2a
2019-07-12_110334:360,-0.495697,0.026427999999999997,-0.057953,-0.004459,-0.004657,0.00403,-53.68,-22.75,-8.18,2a
2019-07-12_110334:380,-0.496216,0.028442000000000002,-0.056427,-0.004184,-0.004566,0.004152,-53.68,-22.75,-8.18,2a
2019-07-12_110334:400,-0.496216,0.028961,-0.056915,-0.004275999999999999,-0.004566,0.0037549999999999997,-53.68,-22.75,-8.18,2a
2019-07-12_110334:420,-0.49468999999999996,0.028961,-0.05438200000000001,-0.0042450000000000005,-0.004779,0.0038469999999999997,-54.060001,-22.75,-8.18,2a
2019-07-12_110334:440,-0.49365200000000004,0.029480000000000003,-0.056915,-0.004459,-0.005115,0.004274,-54.060001,-22.75,-8.18,2a
2019-07-12_110334:460,-0.494171,0.028961,-0.055908000000000006,-0.004459,-0.005451,0.004518,-55.18,-24.18,-7.87,2a
2019-07-12_110334:480,-0.49468999999999996,0.030487,-0.055389,-0.004825,-0.005817,0.004396,-55.18,-24.18,-7.87,2a
2019-07-12_110334:500,-0.495697,0.029968,-0.055908000000000006,-0.005039,-0.005817,0.004396,-55.18,-24.18,-7.87,2a
2019-07-12_110334:520,-0.495697,0.028442000000000002,-0.056915,-0.005222,-0.005817,0.004396,-54.369999,-23.059998999999998,-8.56,2a
2019-07-12_110334:540,-0.49517799999999995,0.027435,-0.058960000000000005,-0.005161,-0.005695,0.00403,-54.369999,-23.059998999999998,-8.56,2a
2019-07-12_110334:560,-0.494171,0.027954000000000003,-0.056427,-0.005161,-0.005725,0.00403,-55.18,-23.059998999999998,-7.87,2a
2019-07-12_110334:580,-0.494171,0.027954000000000003,-0.055908000000000006,-0.0051,-0.005939,0.00403,-55.18,-23.059998999999998,-7.87,2a
2019-07-12_110334:600,-0.494171,0.027954000000000003,-0.057953,-0.004886,-0.006,0.004091,-55.18,-23.059998999999998,-7.87,2a
2019-07-12_110334:620,-0.49468999999999996,0.028442000000000002,-0.057953,-0.004581,-0.006092,0.004091,-54.060001,-23.059998999999998,-7.37,2a
2019-07-12_110334:640,-0.49517799999999995,0.028442000000000002,-0.057434000000000006,-0.004612,-0.0060609999999999995,0.00403,-54.060001,-23.059998999999998,-7.37,2a
2019-07-12_110334:660,-0.49517799999999995,0.028961,-0.057953,-0.004612,-0.005939,0.0039689999999999994,-54.75,-24.18,-8.18,2a
2019-07-12_110334:680,-0.495697,0.028961,-0.058441,-0.004581,-0.006,0.004152,-54.75,-24.18,-8.18,2a
2019-07-12_110334:700,-0.495697,0.029480000000000003,-0.058441,-0.004703,-0.006214,0.004091,-54.75,-24.18,-8.18,2a
2019-07-12_110334:720,-0.496216,0.029480000000000003,-0.058960000000000005,-0.004642,-0.0060609999999999995,0.004152,-55.18,-23.75,-8.56,2a
2019-07-12_110334:740,-0.496216,0.031006,-0.058441,-0.004947,-0.005878,0.0039689999999999994,-55.18,-23.75,-8.56,2a
2019-07-12_110334:760,-0.494171,0.028961,-0.059479,-0.004978,-0.005695,0.004182,-55.18,-23.5,-7.37,2a
2019-07-12_110334:780,-0.496216,0.029968,-0.057434000000000006,-0.0051,-0.005939,0.004213000000000001,-55.18,-23.5,-7.37,2a
2019-07-12_110334:800,-0.49722299999999997,0.029480000000000003,-0.058960000000000005,-0.0052829999999999995,-0.005725,0.004274,-55.18,-23.5,-7.37,2a
2019-07-12_110334:820,-0.49722299999999997,0.028961,-0.057953,-0.0052829999999999995,-0.005573,0.004518,-54.75,-23.5,-7.87,2a
2019-07-12_110334:840,-0.49926800000000005,0.028442000000000002,-0.057953,-0.005039,-0.005298,0.004213000000000001,-54.75,-23.5,-7.87,2a
2019-07-12_110334:860,-0.49468999999999996,0.027954000000000003,-0.058441,-0.005039,-0.004901,0.004396,-54.369999,-23.059998999999998,-7.87,2a
2019-07-12_110334:880,-0.494171,0.028442000000000002,-0.058441,-0.004764,-0.004901,0.004213000000000001,-54.369999,-23.059998999999998,-7.87,2a
2019-07-12_110334:900,-0.494171,0.026917,-0.058960000000000005,-0.004764,-0.005054,0.0038159999999999995,-54.369999,-23.059998999999998,-7.87,2a
2019-07-12_110334:920,-0.49316400000000005,0.027954000000000003,-0.058441,-0.004612,-0.005359,0.00345,-54.75,-24.18,-8.56,2a
2019-07-12_110334:940,-0.497742,0.031006,-0.058441,-0.004642,-0.005725,0.003633,-54.75,-24.18,-8.56,2a
2019-07-12_110334:960,-0.495697,0.029968,-0.057953,-0.004703,-0.005756,0.004548,-54.75,-23.5,-9.06,2a
2019-07-12_110334:980,-0.49517799999999995,0.028961,-0.057434000000000006,-0.004947,-0.005725,0.005189,-54.75,-23.5,-9.06,2a
2019-07-12_110335:000,-0.494171,0.027435,-0.058960000000000005,-0.005039,-0.005451,0.004548,-54.75,-23.5,-9.06,2a
2019-07-12_110335:020,-0.49365200000000004,0.028442000000000002,-0.057953,-0.0051,-0.00539,0.0038159999999999995,-54.75,-23.059998999999998,-7.37,2a
2019-07-12_110335:040,-0.496704,0.026917,-0.056427,-0.0051,-0.005054,0.0038469999999999997,-54.75,-23.059998999999998,-7.37,2a
2019-07-12_110335:060,-0.497742,0.027435,-0.058441,-0.004978,-0.004993,0.0038469999999999997,-54.060001,-23.059998999999998,-8.18,2a
2019-07-12_110335:080,-0.49722299999999997,0.027954000000000003,-0.054901,-0.004581,-0.004993,0.003694,-54.060001,-23.059998999999998,-8.18,2a
2019-07-12_110335:100,-0.496704,0.028442000000000002,-0.056427,-0.004123,-0.004993,0.004335,-54.060001,-23.059998999999998,-8.18,2a
2019-07-12_110335:120,-0.495697,0.028961,-0.056427,-0.003849,-0.004993,0.004396,-54.369999,-24.18,-9.06,2a
2019-07-12_110335:140,-0.49468999999999996,0.029968,-0.057434000000000006,-0.00394,-0.0055119999999999995,0.004091,-54.369999,-24.18,-9.06,2a
2019-07-12_110335:160,-0.495697,0.029968,-0.057953,-0.0042450000000000005,-0.0055119999999999995,0.004396,-55.869999,-23.75,-9.37,2a
2019-07-12_110335:180,-0.49111899999999997,0.028961,-0.055389,-0.004764,-0.005634,0.004396,-55.869999,-23.75,-9.37,2a
2019-07-12_110335:200,-0.49468999999999996,0.029968,-0.058441,-0.004886,-0.005756,0.003358,-55.869999,-23.75,-9.37,2a
2019-07-12_110335:220,-0.49517799999999995,0.031494,-0.058441,-0.004978,-0.005939,0.003053,-55.5,-23.5,-7.87,2a
2019-07-12_110335:240,-0.495697,0.029480000000000003,-0.058441,-0.004947,-0.006488,0.004457,-55.5,-23.5,-7.87,2a
2019-07-12_110335:260,-0.497742,0.028961,-0.058960000000000005,-0.004825,-0.0061530000000000005,0.005189,-54.75,-23.5,-7.06,2a
2019-07-12_110335:280,-0.495697,0.028961,-0.057953,-0.0051,-0.005634,0.004335,-54.75,-23.5,-7.06,2a
2019-07-12_110335:300,-0.49468999999999996,0.029968,-0.058441,-0.005161,-0.0055119999999999995,0.004152,-54.75,-23.5,-7.06,2a
2019-07-12_110335:320,-0.49517799999999995,0.028442000000000002,-0.058960000000000005,-0.005161,-0.0055119999999999995,0.004274,-55.18,-23.059998999999998,-8.56,2a
2019-07-12_110335:340,-0.49468999999999996,0.027435,-0.057953,-0.004978,-0.005298,0.004213000000000001,-55.18,-23.059998999999998,-8.56,2a
2019-07-12_110335:360,-0.49722299999999997,0.027435,-0.058960000000000005,-0.004764,-0.005359,0.004091,-54.75,-23.75,-8.56,2a
2019-07-12_110335:380,-0.49722299999999997,0.028442000000000002,-0.057953,-0.004581,-0.005298,0.00403,-54.75,-23.75,-8.56,2a
2019-07-12_110335:400,-0.496704,0.028442000000000002,-0.057953,-0.004581,-0.005054,0.00403,-54.75,-23.75,-8.56,2a
2019-07-12_110335:420,-0.49468999999999996,0.029968,-0.057953,-0.004337,-0.005054,0.004396,-54.75,-23.75,-7.37,2a
2019-07-12_110335:440,-0.49468999999999996,0.028961,-0.056915,-0.004337,-0.0052369999999999995,0.004793,-54.75,-23.75,-7.37,2a
2019-07-12_110335:460,-0.49517799999999995,0.028961,-0.057434000000000006,-0.004520000000000001,-0.005176,0.004457,-54.369999,-23.75,-7.87,2a
2019-07-12_110335:480,-0.496216,0.029968,-0.055908000000000006,-0.004642,-0.004993,0.00403,-54.369999,-23.75,-7.87,2a
2019-07-12_110335:500,-0.49468999999999996,0.029968,-0.056427,-0.004764,-0.005115,0.004152,-54.369999,-23.75,-7.87,2a
2019-07-12_110335:520,-0.495697,0.028442000000000002,-0.056915,-0.005039,-0.0052369999999999995,0.004152,-54.75,-22.75,-9.06,2a
2019-07-12_110335:540,-0.49468999999999996,0.028442000000000002,-0.056915,-0.005039,-0.00539,0.004274,-54.75,-22.75,-9.06,2a
2019-07-12_110335:560,-0.495697,0.028442000000000002,-0.056915,-0.005039,-0.005451,0.004213000000000001,-54.75,-23.059998999999998,-7.87,2a
2019-07-12_110335:580,-0.495697,0.027954000000000003,-0.055389,-0.004703,-0.0052369999999999995,0.004152,-54.75,-23.059998999999998,-7.87,2a
2019-07-12_110335:600,-0.495697,0.028961,-0.056427,-0.004703,-0.005359,0.004152,-54.75,-23.059998999999998,-7.87,2a
2019-07-12_110335:620,-0.495697,0.028961,-0.056915,-0.004581,-0.005359,0.004182,-55.5,-23.5,-8.56,2a
2019-07-12_110335:640,-0.49517799999999995,0.027954000000000003,-0.057953,-0.004581,-0.005298,0.004152,-55.5,-23.5,-8.56,2a
2019-07-12_110335:660,-0.495697,0.029968,-0.056915,-0.004581,-0.005573,0.004152,-54.75,-23.5,-7.37,2a
2019-07-12_110335:680,-0.495697,0.029968,-0.056427,-0.004520000000000001,-0.005634,0.004182,-54.75,-23.5,-7.37,2a
2019-07-12_110335:700,-0.496216,0.029480000000000003,-0.057434000000000006,-0.004581,-0.005634,0.004182,-54.75,-23.5,-7.37,2a
2019-07-12_110335:720,-0.49517799999999995,0.029480000000000003,-0.055908000000000006,-0.004612,-0.0055119999999999995,0.004213000000000001,-55.5,-23.059998999999998,-7.87,2a
2019-07-12_110335:740,-0.496216,0.028961,-0.056427,-0.004825,-0.005359,0.004182,-55.5,-23.059998999999998,-7.87,2a
2019-07-12_110335:760,-0.494171,0.029480000000000003,-0.055908000000000006,-0.005039,-0.005298,0.004213000000000001,-55.18,-23.5,-9.75,2a
2019-07-12_110335:780,-0.49468999999999996,0.028961,-0.054901,-0.004764,-0.004993,0.004335,-55.18,-23.5,-9.75,2a
2019-07-12_110335:800,-0.49468999999999996,0.027435,-0.057953,-0.004825,-0.0052369999999999995,0.004548,-55.18,-23.5,-9.75,2a
2019-07-12_110335:820,-0.495697,0.028961,-0.056915,-0.004612,-0.0055119999999999995,0.004548,-54.75,-23.059998999999998,-7.37,2a
2019-07-12_110335:840,-0.496216,0.028961,-0.056915,-0.004612,-0.005634,0.004671,-54.75,-23.059998999999998,-7.37,2a
2019-07-12_110335:860,-0.49926800000000005,0.028442000000000002,-0.055908000000000006,-0.004581,-0.005359,0.004335,-55.869999,-23.059998999999998,-9.06,2a
2019-07-12_110335:880,-0.492645,0.028442000000000002,-0.056915,-0.004764,-0.005115,0.004518,-55.869999,-23.059998999999998,-9.06,2a
2019-07-12_110335:900,-0.494171,0.027954000000000003,-0.056915,-0.004459,-0.00539,0.004671,-55.869999,-23.059998999999998,-9.06,2a
2019-07-12_110335:920,-0.494171,0.027954000000000003,-0.056915,-0.004886,-0.005298,0.004152,-55.18,-23.75,-8.56,2a
2019-07-12_110335:940,-0.494171,0.027954000000000003,-0.054901,-0.004886,-0.005451,0.0037549999999999997,-55.18,-23.75,-8.56,2a
2019-07-12_110335:960,-0.49823,0.028961,-0.057434000000000006,-0.004703,-0.005756,0.003694,-55.18,-23.059998999999998,-7.87,2a
2019-07-12_110335:980,-0.49722299999999997,0.029968,-0.056427,-0.004978,-0.005695,0.004457,-55.18,-23.059998999999998,-7.87,2a
2019-07-12_110336:000,-0.49468999999999996,0.027954000000000003,-0.056427,-0.004947,-0.005817,0.005464,-55.18,-23.059998999999998,-7.87,2a
2019-07-12_110336:020,-0.494171,0.026427999999999997,-0.057434000000000006,-0.004978,-0.005756,0.005006,-54.75,-23.5,-8.56,2a
2019-07-12_110336:040,-0.49517799999999995,0.028442000000000002,-0.056427,-0.005436,-0.005573,0.003908,-54.75,-23.5,-8.56,2a
2019-07-12_110336:060,-0.49517799999999995,0.026917,-0.056427,-0.005497,-0.005054,0.0038159999999999995,-55.18,-23.75,-7.75,2a
2019-07-12_110336:080,-0.495697,0.026427999999999997,-0.055908000000000006,-0.005222,-0.005176,0.004091,-55.18,-23.75,-7.75,2a
2019-07-12_110336:100,-0.49722299999999997,0.026427999999999997,-0.055908000000000006,-0.004947,-0.005115,0.004182,-55.18,-23.75,-7.75,2a
2019-07-12_110336:120,-0.497742,0.026427999999999997,-0.056915,-0.004520000000000001,-0.004993,0.004396,-54.75,-23.75,-9.06,2a
2019-07-12_110336:140,-0.497742,0.026427999999999997,-0.053375,-0.0042450000000000005,-0.004961999999999999,0.004396,-54.75,-23.75,-9.06,2a
2019-07-12_110336:160,-0.496216,0.027435,-0.05438200000000001,-0.004398,-0.005054,0.003694,-55.869999,-23.5,-7.75,2a
2019-07-12_110336:180,-0.495697,0.028961,-0.052338,-0.0042450000000000005,-0.00484,0.003511,-55.869999,-23.5,-7.75,2a
2019-07-12_110336:200,-0.489594,0.027435,-0.05438200000000001,-0.004275999999999999,-0.00484,0.0039689999999999994,-55.869999,-23.5,-7.75,2a
2019-07-12_110336:220,-0.489075,0.028961,-0.055389,-0.004062,-0.005298,0.003297,-54.75,-23.059998999999998,-7.75,2a
2019-07-12_110336:240,-0.494171,0.03302,-0.054901,-0.004459,-0.006,0.002565,-54.75,-23.059998999999998,-7.75,2a
2019-07-12_110336:260,-0.49722299999999997,0.033539,-0.055389,-0.004459,-0.006458,0.004091,-55.5,-22.75,-8.56,2a
2019-07-12_110336:280,-0.49823,0.031006,-0.054901,-0.004978,-0.006214,0.005311,-55.5,-22.75,-8.56,2a
2019-07-12_110336:300,-0.49823,0.028961,-0.056915,-0.005436,-0.005817,0.004518,-55.5,-22.75,-8.56,2a
2019-07-12_110336:320,-0.495697,0.029480000000000003,-0.055908000000000006,-0.005771,-0.005451,0.0038469999999999997,-54.75,-23.5,-8.18,2a
2019-07-12_110336:340,-0.494171,0.027954000000000003,-0.056427,-0.005679999999999999,-0.005115,0.004152,-54.75,-23.5,-8.18,2a
2019-07-12_110336:360,-0.49468999999999996,0.027435,-0.057953,-0.005222,-0.0055119999999999995,0.0039689999999999994,-54.75,-23.5,-8.18,2a
2019-07-12_110336:380,-0.496216,0.027954000000000003,-0.055389,-0.004703,-0.005695,0.004152,-54.75,-23.5,-8.18,2a
2019-07-12_110336:400,-0.496216,0.027954000000000003,-0.056915,-0.004275999999999999,-0.0055119999999999995,0.004396,-54.75,-23.5,-8.18,2a
2019-07-12_110336:420,-0.49823,0.029480000000000003,-0.055389,-0.004184,-0.005359,0.004274,-54.0,-22.75,-8.18,2a
2019-07-12_110336:440,-0.49517799999999995,0.031494,-0.05438200000000001,-0.004275999999999999,-0.005054,0.004457,-54.0,-22.75,-8.18,2a
2019-07-12_110336:460,-0.495697,0.031494,-0.056915,-0.004398,-0.005115,0.004915,-55.869999,-23.5,-8.56,2a
2019-07-12_110336:480,-0.49517799999999995,0.031494,-0.055389,-0.004764,-0.00539,0.004854,-55.869999,-23.5,-8.56,2a
2019-07-12_110336:500,-0.495697,0.029968,-0.055389,-0.0052829999999999995,-0.005298,0.004671,-55.869999,-23.5,-8.56,2a
2019-07-12_110336:520,-0.49517799999999995,0.028961,-0.056427,-0.005832,-0.0052369999999999995,0.004732,-55.5,-23.5,-9.06,2a
2019-07-12_110336:540,-0.495697,0.027435,-0.056427,-0.005832,-0.005054,0.004671,-55.5,-23.5,-9.06,2a
2019-07-12_110336:560,-0.496216,0.026917,-0.054901,-0.005771,-0.0052369999999999995,0.004609,-55.18,-23.5,-7.75,2a
2019-07-12_110336:580,-0.496704,0.025421,-0.053863999999999995,-0.005497,-0.004993,0.004548,-55.18,-23.5,-7.75,2a
2019-07-12_110336:600,-0.49517799999999995,0.024902,-0.054901,-0.004947,-0.004993,0.004457,-55.18,-23.5,-7.75,2a
2019-07-12_110336:620,-0.495697,0.025421,-0.054901,-0.004459,-0.004993,0.004335,-55.5,-23.5,-8.18,2a
2019-07-12_110336:640,-0.49468999999999996,0.027435,-0.05438200000000001,-0.004184,-0.004961999999999999,0.004213000000000001,-55.5,-23.5,-8.18,2a
2019-07-12_110336:660,-0.49316400000000005,0.026917,-0.05438200000000001,-0.004123,-0.005115,0.004335,-55.5,-23.5,-8.18,2a
2019-07-12_110336:680,-0.49517799999999995,0.028442000000000002,-0.053375,-0.004275999999999999,-0.0055119999999999995,0.004274,-55.5,-23.5,-8.18,2a
2019-07-12_110336:700,-0.495697,0.028961,-0.05438200000000001,-0.004398,-0.00539,0.004091,-55.5,-23.5,-8.18,2a
2019-07-12_110336:720,-0.49722299999999997,0.028961,-0.05438200000000001,-0.004764,-0.005573,0.004091,-55.5,-23.75,-7.75,2a
2019-07-12_110336:740,-0.49722299999999997,0.028442000000000002,-0.05285599999999999,-0.004978,-0.005451,0.004274,-55.5,-23.75,-7.75,2a
2019-07-12_110336:760,-0.496704,0.027435,-0.055389,-0.0051,-0.005115,0.004335,-55.5,-22.370001000000002,-8.18,2a
2019-07-12_110336:780,-0.49468999999999996,0.026917,-0.054901,-0.005039,-0.005298,0.004182,-55.5,-22.370001000000002,-8.18,2a
2019-07-12_110336:800,-0.49517799999999995,0.027435,-0.05438200000000001,-0.004886,-0.005115,0.004182,-55.5,-22.370001000000002,-8.18,2a
2019-07-12_110336:820,-0.49517799999999995,0.027435,-0.055389,-0.004764,-0.005451,0.004182,-54.75,-23.5,-7.75,2a
2019-07-12_110336:840,-0.49468999999999996,0.028442000000000002,-0.054901,-0.004642,-0.005298,0.004335,-54.75,-23.5,-7.75,2a
2019-07-12_110336:860,-0.496216,0.028442000000000002,-0.054901,-0.004612,-0.005298,0.004457,-54.75,-22.75,-7.37,2a
2019-07-12_110336:880,-0.496704,0.027435,-0.053375,-0.004612,-0.0055119999999999995,0.004518,-54.75,-22.75,-7.37,2a
2019-07-12_110336:900,-0.49823,0.027954000000000003,-0.055389,-0.004764,-0.00539,0.004671,-54.75,-22.75,-7.37,2a
2019-07-12_110336:920,-0.49517799999999995,0.028442000000000002,-0.05438200000000001,-0.004764,-0.00484,0.004518,-54.75,-23.75,-7.75,2a
2019-07-12_110336:940,-0.495697,0.027435,-0.053375,-0.004886,-0.004961999999999999,0.004457,-54.75,-23.75,-7.75,2a
2019-07-12_110336:960,-0.496704,0.025908999999999998,-0.055389,-0.004825,-0.004901,0.004518,-54.75,-22.370001000000002,-7.37,2a
2019-07-12_110336:980,-0.49517799999999995,0.026917,-0.053375,-0.004703,-0.004718,0.003908,-54.75,-22.370001000000002,-7.37,2a
2019-07-12_110337:000,-0.496216,0.027435,-0.053863999999999995,-0.004703,-0.004993,0.003572,-54.75,-22.370001000000002,-7.37,2a
2019-07-12_110337:020,-0.496216,0.029480000000000003,-0.052338,-0.004703,-0.005359,0.00403,-54.75,-23.059998999999998,-8.56,2a
2019-07-12_110337:040,-0.49517799999999995,0.028442000000000002,-0.052338,-0.004703,-0.005359,0.005128,-54.75,-23.059998999999998,-8.56,2a
2019-07-12_110337:060,-0.494171,0.027954000000000003,-0.053375,-0.004886,-0.00539,0.005464,-54.75,-23.5,-8.18,2a
2019-07-12_110337:080,-0.49517799999999995,0.026917,-0.051849,-0.0052829999999999995,-0.00539,0.004671,-54.75,-23.5,-8.18,2a
2019-07-12_110337:100,-0.496216,0.025908999999999998,-0.052338,-0.005558,-0.005054,0.003908,-54.75,-23.5,-8.18,2a
2019-07-12_110337:120,-0.496704,0.025421,-0.053863999999999995,-0.005344,-0.004993,0.00403,-55.5,-23.059998999999998,-8.56,2a
2019-07-12_110337:140,-0.49975600000000003,0.025421,-0.053375,-0.004947,-0.0045049999999999995,0.0039689999999999994,-55.5,-23.059998999999998,-8.56,2a
2019-07-12_110337:160,-0.49722299999999997,0.025908999999999998,-0.051330999999999995,-0.004703,-0.004657,0.0037549999999999997,-55.18,-23.5,-7.37,2a
2019-07-12_110337:180,-0.495697,0.026427999999999997,-0.051849,-0.0042450000000000005,-0.004718,0.004274,-55.18,-23.5,-7.37,2a
2019-07-12_110337:200,-0.495697,0.027435,-0.052338,-0.00394,-0.004901,0.004457,-55.18,-23.5,-7.37,2a
2019-07-12_110337:220,-0.494171,0.029968,-0.051330999999999995,-0.004123,-0.005298,0.004091,-55.18,-23.059998999999998,-7.75,2a
2019-07-12_110337:240,-0.496704,0.028961,-0.050323,-0.004612,-0.005634,0.004274,-55.18,-23.059998999999998,-7.75,2a
2019-07-12_110337:260,-0.49316400000000005,0.026917,-0.050842,-0.005222,-0.00539,0.004396,-55.18,-23.5,-8.56,2a
2019-07-12_110337:280,-0.49468999999999996,0.026427999999999997,-0.052338,-0.005222,-0.005573,0.003175,-55.18,-23.5,-8.56,2a
2019-07-12_110337:300,-0.497742,0.028442000000000002,-0.05285599999999999,-0.005436,-0.005939,0.0029,-55.18,-23.5,-8.56,2a
2019-07-12_110337:320,-0.497742,0.027435,-0.052338,-0.0051,-0.006,0.004732,-55.18,-22.370001000000002,-7.37,2a
2019-07-12_110337:340,-0.496704,0.025908999999999998,-0.053375,-0.004825,-0.0060609999999999995,0.005189,-55.18,-22.370001000000002,-7.37,2a
2019-07-12_110337:360,-0.49722299999999997,0.025908999999999998,-0.05285599999999999,-0.004886,-0.005695,0.004152,-54.369999,-22.75,-8.56,2a
2019-07-12_110337:380,-0.49517799999999995,0.027954000000000003,-0.052338,-0.004703,-0.005573,0.0038469999999999997,-54.369999,-22.75,-8.56,2a
2019-07-12_110337:400,-0.49517799999999995,0.027435,-0.053375,-0.004642,-0.005573,0.004182,-54.369999,-22.75,-8.56,2a
2019-07-12_110337:420,-0.496216,0.027954000000000003,-0.05285599999999999,-0.004947,-0.005451,0.003908,-55.5,-23.059998999999998,-7.87,2a
2019-07-12_110337:440,-0.495697,0.028442000000000002,-0.051849,-0.004764,-0.005725,0.0038159999999999995,-55.5,-23.059998999999998,-7.87,2a
2019-07-12_110337:460,-0.498749,0.027435,-0.05285599999999999,-0.004642,-0.005695,0.0039689999999999994,-55.18,-23.75,-7.75,2a
2019-07-12_110337:480,-0.496704,0.026427999999999997,-0.052338,-0.004520000000000001,-0.0055119999999999995,0.003511,-55.18,-23.75,-7.75,2a
2019-07-12_110337:500,-0.496216,0.028961,-0.052338,-0.004581,-0.005451,0.0038469999999999997,-55.18,-23.75,-7.75,2a
2019-07-12_110337:520,-0.496216,0.028442000000000002,-0.053375,-0.004612,-0.00539,0.004671,-54.75,-23.5,-7.75,2a
2019-07-12_110337:540,-0.495697,0.027954000000000003,-0.052338,-0.004642,-0.00539,0.004548,-54.75,-23.5,-7.75,2a
2019-07-12_110337:560,-0.496216,0.027954000000000003,-0.052338,-0.004947,-0.0052369999999999995,0.0038469999999999997,-55.5,-23.059998999999998,-7.37,2a
2019-07-12_110337:580,-0.495697,0.026917,-0.052338,-0.0051,-0.005451,0.003908,-55.5,-23.059998999999998,-7.37,2a
2019-07-12_110337:600,-0.495697,0.027954000000000003,-0.052338,-0.004947,-0.00539,0.003908,-55.5,-23.059998999999998,-7.37,2a
2019-07-12_110337:620,-0.496704,0.026917,-0.05285599999999999,-0.0051,-0.005298,0.0037549999999999997,-54.75,-23.059998999999998,-7.37,2a
2019-07-12_110337:640,-0.496704,0.027954000000000003,-0.051330999999999995,-0.004947,-0.005359,0.003908,-54.75,-23.059998999999998,-7.37,2a
2019-07-12_110337:660,-0.49722299999999997,0.027435,-0.053863999999999995,-0.004642,-0.005451,0.004182,-55.18,-23.5,-7.06,2a
2019-07-12_110337:680,-0.497742,0.028442000000000002,-0.052338,-0.004764,-0.0052369999999999995,0.00403,-55.18,-23.5,-7.06,2a
2019-07-12_110337:700,-0.49468999999999996,0.027954000000000003,-0.052338,-0.004703,-0.00539,0.004182,-55.18,-23.5,-7.06,2a
2019-07-12_110337:720,-0.49468999999999996,0.028442000000000002,-0.052338,-0.004642,-0.005634,0.004091,-54.75,-22.370001000000002,-6.56,2a
2019-07-12_110337:740,-0.49517799999999995,0.028442000000000002,-0.051849,-0.004825,-0.005725,0.003908,-54.75,-22.370001000000002,-6.56,2a
2019-07-12_110337:760,-0.49517799999999995,0.028961,-0.052338,-0.004947,-0.005695,0.004091,-54.369999,-23.5,-7.37,2a
2019-07-12_110337:780,-0.496216,0.028961,-0.052338,-0.0051,-0.005573,0.004213000000000001,-54.369999,-23.5,-7.37,2a
2019-07-12_110337:800,-0.496704,0.028961,-0.052338,-0.005161,-0.005451,0.004457,-54.369999,-23.5,-7.37,2a
2019-07-12_110337:820,-0.496216,0.027435,-0.05285599999999999,-0.005375,-0.0055119999999999995,0.004274,-55.18,-23.5,-7.75,2a
2019-07-12_110337:840,-0.497742,0.027954000000000003,-0.052338,-0.005161,-0.005451,0.004182,-55.18,-23.5,-7.75,2a
2019-07-12_110337:860,-0.496704,0.026917,-0.051849,-0.005161,-0.005359,0.004152,-55.5,-22.75,-7.06,2a
2019-07-12_110337:880,-0.49517799999999995,0.025908999999999998,-0.053375,-0.0051,-0.005573,0.00403,-55.5,-22.75,-7.06,2a
2019-07-12_110337:900,-0.496216,0.026427999999999997,-0.053375,-0.004764,-0.005817,0.00403,-55.5,-22.75,-7.06,2a
2019-07-12_110337:920,-0.494171,0.026917,-0.051330999999999995,-0.004703,-0.005725,0.004274,-54.0,-23.5,-7.37,2a
2019-07-12_110337:940,-0.49517799999999995,0.028961,-0.051330999999999995,-0.004886,-0.006092,0.004396,-54.0,-23.5,-7.37,2a
2019-07-12_110337:960,-0.496704,0.028961,-0.052338,-0.004947,-0.006336,0.00403,-54.75,-23.059998999999998,-7.06,2a
2019-07-12_110337:980,-0.49926800000000005,0.028961,-0.052338,-0.0052829999999999995,-0.006,0.003908,-54.75,-23.059998999999998,-7.06,2a
2019-07-12_110338:000,-0.49468999999999996,0.027954000000000003,-0.050323,-0.0051,-0.005725,0.004152,-54.75,-23.059998999999998,-7.06,2a
2019-07-12_110338:020,-0.49468999999999996,0.027435,-0.051330999999999995,-0.004947,-0.005725,0.004091,-55.18,-22.75,-8.18,2a
2019-07-12_110338:040,-0.49722299999999997,0.026917,-0.051849,-0.004886,-0.005573,0.0037549999999999997,-55.18,-22.75,-8.18,2a
2019-07-12_110338:060,-0.49468999999999996,0.027435,-0.053863999999999995,-0.004825,-0.005939,0.003358,-55.18,-22.75,-7.75,2a
2019-07-12_110338:080,-0.497742,0.028442000000000002,-0.053863999999999995,-0.004520000000000001,-0.006458,0.003694,-55.18,-22.75,-7.75,2a
2019-07-12_110338:100,-0.496216,0.029480000000000003,-0.052338,-0.004612,-0.006397,0.004548,-55.18,-22.75,-7.75,2a
2019-07-12_110338:120,-0.49517799999999995,0.029968,-0.053375,-0.004764,-0.006488,0.004945000000000001,-54.369999,-23.75,-7.75,2a
2019-07-12_110338:140,-0.49517799999999995,0.028442000000000002,-0.053863999999999995,-0.005222,-0.006092,0.004213000000000001,-54.369999,-23.75,-7.75,2a
2019-07-12_110338:160,-0.495697,0.027954000000000003,-0.052338,-0.005375,-0.005817,0.00345,-55.18,-23.5,-7.75,2a
2019-07-12_110338:180,-0.49468999999999996,0.027954000000000003,-0.053375,-0.005436,-0.005359,0.003572,-55.18,-23.5,-7.75,2a
2019-07-12_110338:200,-0.497742,0.027435,-0.053375,-0.004978,-0.005298,0.0038469999999999997,-55.18,-23.5,-7.75,2a
2019-07-12_110338:220,-0.49926800000000005,0.027435,-0.053375,-0.005039,-0.00539,0.0039689999999999994,-54.75,-23.5,-6.56,2a
2019-07-12_110338:240,-0.49926800000000005,0.027435,-0.051849,-0.004703,-0.0052369999999999995,0.004274,-54.75,-23.5,-6.56,2a
2019-07-12_110338:260,-0.496216,0.027435,-0.052338,-0.004825,-0.005298,0.004274,-54.75,-23.059998999999998,-7.37,2a
2019-07-12_110338:280,-0.49517799999999995,0.026427999999999997,-0.053375,-0.004764,-0.00539,0.004152,-54.75,-23.059998999999998,-7.37,2a
2019-07-12_110338:300,-0.496216,0.028442000000000002,-0.051849,-0.004947,-0.005725,0.004091,-54.75,-23.059998999999998,-7.37,2a
2019-07-12_110338:320,-0.49365200000000004,0.028961,-0.053375,-0.005222,-0.005634,0.0039689999999999994,-55.5,-23.059998999999998,-7.75,2a
2019-07-12_110338:340,-0.49316400000000005,0.025908999999999998,-0.052338,-0.005375,-0.006,0.0026260000000000003,-55.5,-23.059998999999998,-7.75,2a
2019-07-12_110338:360,-0.496216,0.027435,-0.054901,-0.0052829999999999995,-0.005939,0.00229,-55.5,-23.059998999999998,-7.75,2a
2019-07-12_110338:380,-0.495697,0.028442000000000002,-0.053375,-0.004764,-0.006092,0.004091,-55.18,-23.75,-8.18,2a
2019-07-12_110338:400,-0.49823,0.027954000000000003,-0.054901,-0.004703,-0.005817,0.004518,-55.18,-23.75,-8.18,2a
2019-07-12_110338:420,-0.497742,0.026917,-0.053863999999999995,-0.004764,-0.0055119999999999995,0.003511,-54.75,-23.5,-7.75,2a
2019-07-12_110338:440,-0.49722299999999997,0.027954000000000003,-0.053863999999999995,-0.004947,-0.0052369999999999995,0.003511,-54.75,-23.5,-7.75,2a
2019-07-12_110338:460,-0.495697,0.028961,-0.05438200000000001,-0.004886,-0.005359,0.003694,-55.5,-23.059998999999998,-7.37,2a
2019-07-12_110338:480,-0.495697,0.028442000000000002,-0.05438200000000001,-0.004764,-0.005176,0.003053,-55.5,-23.059998999999998,-7.37,2a
2019-07-12_110338:500,-0.496704,0.028961,-0.052338,-0.004886,-0.0052369999999999995,0.0029,-55.5,-23.059998999999998,-7.37,2a
2019-07-12_110338:520,-0.496216,0.029968,-0.052338,-0.004612,-0.005115,0.003511,-54.75,-23.75,-8.56,2a
2019-07-12_110338:540,-0.496216,0.028961,-0.05285599999999999,-0.004612,-0.005359,0.003297,-54.75,-23.75,-8.56,2a
2019-07-12_110338:560,-0.49722299999999997,0.029968,-0.052338,-0.004398,-0.0052369999999999995,0.003511,-55.869999,-22.75,-7.75,2a
2019-07-12_110338:580,-0.497742,0.031006,-0.05285599999999999,-0.004337,-0.005115,0.004091,-55.869999,-22.75,-7.75,2a
2019-07-12_110338:600,-0.496704,0.030487,-0.052338,-0.004398,-0.005176,0.003633,-55.869999,-22.75,-7.75,2a
2019-07-12_110338:620,-0.496704,0.031006,-0.051849,-0.004459,-0.004993,0.0037549999999999997,-54.75,-23.059998999999998,-8.18,2a
2019-07-12_110338:640,-0.496704,0.032013,-0.051849,-0.004520000000000001,-0.004901,0.004152,-54.75,-23.059998999999998,-8.18,2a
2019-07-12_110338:660,-0.495697,0.031494,-0.052338,-0.004642,-0.004779,0.004091,-54.369999,-23.5,-7.06,2a
2019-07-12_110338:680,-0.496216,0.032532,-0.052338,-0.004886,-0.00484,0.004091,-54.369999,-23.5,-7.06,2a
2019-07-12_110338:700,-0.496216,0.032013,-0.051330999999999995,-0.0051,-0.00484,0.004396,-54.369999,-23.5,-7.06,2a
2019-07-12_110338:720,-0.49517799999999995,0.031006,-0.052338,-0.005161,-0.00484,0.004213000000000001,-55.18,-22.75,-7.06,2a
2019-07-12_110338:740,-0.496216,0.029480000000000003,-0.049805,-0.004947,-0.00484,0.004335,-55.18,-22.75,-7.06,2a
2019-07-12_110338:760,-0.49517799999999995,0.029480000000000003,-0.051849,-0.004764,-0.004901,0.004213000000000001,-54.75,-23.059998999999998,-7.75,2a
2019-07-12_110338:780,-0.494171,0.028961,-0.050323,-0.004612,-0.005176,0.004274,-54.75,-23.059998999999998,-7.75,2a
2019-07-12_110338:800,-0.49468999999999996,0.029480000000000003,-0.050842,-0.004275999999999999,-0.005451,0.004335,-54.75,-23.059998999999998,-7.75,2a
2019-07-12_110338:820,-0.49517799999999995,0.030487,-0.051849,-0.004123,-0.005359,0.004548,-54.75,-23.75,-7.75,2a
2019-07-12_110338:840,-0.49517799999999995,0.029968,-0.050842,-0.003879,-0.00539,0.004609,-54.75,-23.75,-7.75,2a
2019-07-12_110338:860,-0.495697,0.032013,-0.051330999999999995,-0.004062,-0.005451,0.004518,-54.369999,-23.5,-7.37,2a
2019-07-12_110338:880,-0.496216,0.03302,-0.051849,-0.004398,-0.005573,0.004609,-54.369999,-23.5,-7.37,2a
2019-07-12_110338:900,-0.49468999999999996,0.031494,-0.050842,-0.004581,-0.005573,0.004732,-54.369999,-23.5,-7.37,2a
2019-07-12_110338:920,-0.49365200000000004,0.031006,-0.051330999999999995,-0.004764,-0.005939,0.004854,-54.75,-23.5,-8.18,2a
2019-07-12_110338:940,-0.496216,0.030487,-0.049316000000000006,-0.004886,-0.006092,0.005128,-54.75,-23.5,-8.18,2a
2019-07-12_110338:960,-0.496216,0.028961,-0.050842,-0.004947,-0.006092,0.004945000000000001,-55.18,-23.5,-7.37,2a
2019-07-12_110338:980,-0.49517799999999995,0.028442000000000002,-0.05285599999999999,-0.005161,-0.005817,0.004945000000000001,-55.18,-23.5,-7.37,2a
2019-07-12_110339:000,-0.49468999999999996,0.028442000000000002,-0.051330999999999995,-0.0051,-0.006,0.005311,-55.18,-23.5,-7.37,2a
2019-07-12_110339:020,-0.496704,0.025908999999999998,-0.052338,-0.005039,-0.0061530000000000005,0.004854,-54.369999,-23.5,-6.56,2a
2019-07-12_110339:040,-0.49468999999999996,0.026917,-0.051330999999999995,-0.004825,-0.0061530000000000005,0.004274,-54.369999,-23.5,-6.56,2a
2019-07-12_110339:060,-0.495697,0.027435,-0.05285599999999999,-0.004764,-0.006397,0.0039689999999999994,-54.75,-23.5,-7.75,2a
2019-07-12_110339:080,-0.498749,0.027954000000000003,-0.054901,-0.004642,-0.006854000000000001,0.004518,-54.75,-23.5,-7.75,2a
2019-07-12_110339:100,-0.496216,0.029480000000000003,-0.05438200000000001,-0.004886,-0.006731999999999999,0.005128,-54.75,-23.5,-7.75,2a
2019-07-12_110339:120,-0.496704,0.028961,-0.055908000000000006,-0.004886,-0.006548999999999999,0.005128,-55.18,-23.059998999999998,-7.37,2a
2019-07-12_110339:140,-0.496216,0.027954000000000003,-0.05438200000000001,-0.004947,-0.0061530000000000005,0.004152,-55.18,-23.059998999999998,-7.37,2a
2019-07-12_110339:160,-0.495697,0.026917,-0.05438200000000001,-0.005222,-0.005725,0.0038469999999999997,-55.5,-23.059998999999998,-7.06,2a
2019-07-12_110339:180,-0.496704,0.025421,-0.054901,-0.004886,-0.005359,0.0037549999999999997,-55.5,-23.059998999999998,-7.06,2a
2019-07-12_110339:200,-0.49823,0.025908999999999998,-0.053863999999999995,-0.004642,-0.005115,0.0038469999999999997,-55.5,-23.059998999999998,-7.06,2a
2019-07-12_110339:220,-0.498749,0.026427999999999997,-0.054901,-0.004459,-0.00484,0.0039689999999999994,-55.5,-23.75,-8.18,2a
2019-07-12_110339:240,-0.49823,0.026917,-0.05285599999999999,-0.004337,-0.00484,0.004182,-55.5,-23.75,-8.18,2a
2019-07-12_110339:260,-0.49517799999999995,0.027954000000000003,-0.05285599999999999,-0.0042450000000000005,-0.004779,0.004213000000000001,-55.5,-23.059998999999998,-8.18,2a
2019-07-12_110339:280,-0.494171,0.028961,-0.053375,-0.004275999999999999,-0.004718,0.0037549999999999997,-55.5,-23.059998999999998,-8.18,2a
2019-07-12_110339:300,-0.496704,0.029480000000000003,-0.053375,-0.004642,-0.004993,0.004213000000000001,-55.5,-23.059998999999998,-8.18,2a
2019-07-12_110339:320,-0.492126,0.028961,-0.05285599999999999,-0.004703,-0.004901,0.004152,-55.18,-23.5,-7.37,2a
2019-07-12_110339:340,-0.496704,0.027435,-0.051849,-0.004886,-0.0052369999999999995,0.0025039999999999997,-55.18,-23.5,-7.37,2a
2019-07-12_110339:360,-0.49517799999999995,0.031006,-0.05285599999999999,-0.004886,-0.005298,0.002687,-55.18,-23.059998999999998,-7.75,2a
2019-07-12_110339:380,-0.49722299999999997,0.029480000000000003,-0.051330999999999995,-0.004520000000000001,-0.005451,0.004793,-55.18,-23.059998999999998,-7.75,2a
2019-07-12_110339:400,-0.496216,0.028961,-0.050842,-0.004642,-0.005451,0.004793,-55.18,-23.059998999999998,-7.75,2a
2019-07-12_110339:420,-0.496216,0.029480000000000003,-0.051849,-0.004886,-0.0052369999999999995,0.003908,-54.369999,-23.5,-8.18,2a
2019-07-12_110339:440,-0.49517799999999995,0.029480000000000003,-0.051330999999999995,-0.004978,-0.005054,0.00403,-54.369999,-23.5,-8.18,2a
2019-07-12_110339:460,-0.49517799999999995,0.028961,-0.052338,-0.004978,-0.005054,0.0039689999999999994,-54.75,-23.75,-7.37,2a
2019-07-12_110339:480,-0.49517799999999995,0.028961,-0.051849,-0.004947,-0.005176,0.0037549999999999997,-54.75,-23.75,-7.37,2a
2019-07-12_110339:500,-0.495697,0.028961,-0.051330999999999995,-0.004612,-0.005359,0.004152,-54.75,-23.75,-7.37,2a
2019-07-12_110339:520,-0.496704,0.028961,-0.051849,-0.004520000000000001,-0.00539,0.00403,-54.75,-23.5,-7.75,2a
2019-07-12_110339:540,-0.496704,0.030487,-0.051330999999999995,-0.004398,-0.005451,0.0039689999999999994,-54.75,-23.5,-7.75,2a
2019-07-12_110339:560,-0.495697,0.031006,-0.051849,-0.004337,-0.005451,0.004213000000000001,-54.369999,-23.059998999999998,-7.06,2a
2019-07-12_110339:580,-0.49468999999999996,0.030487,-0.050842,-0.004520000000000001,-0.005725,0.004609,-54.369999,-23.059998999999998,-7.06,2a
2019-07-12_110339:600,-0.49517799999999995,0.030487,-0.051330999999999995,-0.004612,-0.005634,0.004518,-54.369999,-23.059998999999998,-7.06,2a
2019-07-12_110339:620,-0.49468999999999996,0.030487,-0.05285599999999999,-0.004947,-0.005756,0.004335,-55.18,-23.5,-6.56,2a
2019-07-12_110339:640,-0.49517799999999995,0.030487,-0.050842,-0.0051,-0.005756,0.004548,-55.18,-23.5,-6.56,2a
2019-07-12_110339:660,-0.496216,0.029968,-0.052338,-0.005161,-0.005695,0.004518,-54.060001,-23.059998999999998,-7.87,2a
2019-07-12_110339:680,-0.49722299999999997,0.028442000000000002,-0.052338,-0.005222,-0.005725,0.004335,-54.060001,-23.059998999999998,-7.87,2a
2019-07-12_110339:700,-0.49722299999999997,0.029480000000000003,-0.051330999999999995,-0.004947,-0.005634,0.004396,-54.060001,-23.059998999999998,-7.87,2a
2019-07-12_110339:720,-0.495697,0.027435,-0.05285599999999999,-0.004947,-0.005451,0.004457,-55.869999,-23.059998999999998,-7.87,2a
2019-07-12_110339:740,-0.495697,0.027954000000000003,-0.051849,-0.004764,-0.005573,0.004518,-55.869999,-23.059998999999998,-7.87,2a
2019-07-12_110339:760,-0.49517799999999995,0.025908999999999998,-0.05285599999999999,-0.004642,-0.005695,0.004518,-55.18,-23.5,-7.75,2a
2019-07-12_110339:780,-0.49517799999999995,0.027954000000000003,-0.052338,-0.004520000000000001,-0.005695,0.004548,-55.18,-23.5,-7.75,2a
2019-07-12_110339:800,-0.495697,0.028442000000000002,-0.052338,-0.004520000000000001,-0.005725,0.004335,-55.18,-23.5,-7.75,2a
2019-07-12_110339:820,-0.496216,0.027954000000000003,-0.05285599999999999,-0.004612,-0.005573,0.004335,-55.18,-23.5,-7.37,2a
2019-07-12_110339:840,-0.49823,0.028442000000000002,-0.051849,-0.004642,-0.005725,0.004182,-55.18,-23.5,-7.37,2a
2019-07-12_110339:860,-0.497742,0.027954000000000003,-0.053863999999999995,-0.004764,-0.0055119999999999995,0.004152,-55.18,-23.5,-7.37,2a
2019-07-12_110339:880,-0.496704,0.027954000000000003,-0.051849,-0.004978,-0.005298,0.004182,-54.75,-23.5,-8.56,2a
2019-07-12_110339:900,-0.49517799999999995,0.026917,-0.053375,-0.005039,-0.005359,0.004152,-54.75,-23.5,-8.56,2a
2019-07-12_110339:920,-0.495697,0.027435,-0.05285599999999999,-0.004886,-0.0052369999999999995,0.004152,-54.75,-22.75,-7.37,2a
2019-07-12_110339:940,-0.49468999999999996,0.027954000000000003,-0.052338,-0.004642,-0.005359,0.004152,-54.75,-22.75,-7.37,2a
2019-07-12_110339:960,-0.496216,0.028442000000000002,-0.050842,-0.004703,-0.005359,0.004152,-55.18,-23.5,-6.56,2a
2019-07-12_110339:980,-0.49722299999999997,0.028442000000000002,-0.052338,-0.004642,-0.0055119999999999995,0.004152,-55.18,-23.5,-6.56,2a
2019-07-12_110340:000,-0.49823,0.027954000000000003,-0.051849,-0.004520000000000001,-0.005298,0.004213000000000001,-55.18,-23.5,-6.56,2a
2019-07-12_110340:020,-0.49468999999999996,0.028442000000000002,-0.051849,-0.004612,-0.004993,0.003908,-55.18,-23.5,-7.06,2a
2019-07-12_110340:040,-0.494171,0.028442000000000002,-0.051330999999999995,-0.004520000000000001,-0.005176,0.004182,-55.18,-23.5,-7.06,2a
2019-07-12_110340:060,-0.496216,0.027435,-0.052338,-0.004642,-0.004961999999999999,0.00403,-55.18,-23.5,-8.18,2a
2019-07-12_110340:080,-0.49316400000000005,0.028961,-0.050323,-0.004764,-0.0052369999999999995,0.003511,-55.18,-23.5,-8.18,2a
2019-07-12_110340:100,-0.49823,0.031006,-0.051330999999999995,-0.004825,-0.005573,0.003358,-55.18,-23.5,-8.18,2a
2019-07-12_110340:120,-0.496704,0.029968,-0.053375,-0.004764,-0.005756,0.003908,-54.75,-22.75,-8.18,2a
2019-07-12_110340:140,-0.49468999999999996,0.028961,-0.050323,-0.004947,-0.005725,0.005006,-54.75,-22.75,-8.18,2a
2019-07-12_110340:160,-0.49468999999999996,0.027954000000000003,-0.052338,-0.004947,-0.005878,0.005128,-54.75,-23.059998999999998,-8.18,2a
2019-07-12_110340:180,-0.494171,0.028442000000000002,-0.051849,-0.005161,-0.005756,0.00403,-54.75,-23.059998999999998,-8.18,2a
2019-07-12_110340:200,-0.495697,0.027954000000000003,-0.050323,-0.0051,-0.005573,0.003633,-54.75,-23.059998999999998,-8.18,2a
2019-07-12_110340:220,-0.496704,0.027435,-0.05285599999999999,-0.005039,-0.005298,0.0038469999999999997,-54.75,-22.75,-7.37,2a
