timestamp,AccX,AccY,AccZ,GyroX,GyroY,GyroZ,MagX,MagY,MagZ,Activity
2019-07-12_122932:880,-0.159637,-0.050842,-0.392487,0.023892,0.012066,-0.010497,-5.75,-9.0,-34.060001,1b
2019-07-12_122932:900,-0.194214,-0.043701,-0.368073,0.023219999999999998,0.017925999999999997,-0.009307,-5.75,-9.0,-34.060001,1b
2019-07-12_122932:920,-0.187073,-0.049316000000000006,-0.41384899999999997,0.020443,0.009686,-0.0015550000000000002,-6.18,-8.68,-35.560001,1b
2019-07-12_122932:940,-0.153015,-0.057434000000000006,-0.382812,0.019436000000000002,-0.00038500000000000003,0.001039,-6.18,-8.68,-35.560001,1b
2019-07-12_122932:960,-0.160126,-0.056915,-0.392487,0.014523,-0.013111000000000001,-0.008849,-6.18,-8.68,-35.560001,1b
2019-07-12_122932:980,-0.213531,-0.053375,-0.42453,0.009884,-0.023150999999999998,-0.015288,-5.5,-7.56,-35.25,1b
2019-07-12_122933:000,-0.226746,-0.057434000000000006,-0.438751,0.007504,-0.026386,-0.013425999999999999,-5.5,-7.56,-35.25,1b
2019-07-12_122933:020,-0.28674299999999997,-0.05996699999999999,-0.445374,0.004635,-0.025653,-0.015471,-4.25,-7.56,-34.75,1b
2019-07-12_122933:040,-0.338074,-0.055389,-0.445862,0.002255,-0.018604,-0.022856,-4.25,-7.56,-34.75,1b
2019-07-12_122933:060,-0.34570300000000004,-0.042694,-0.423004,0.0017670000000000001,-0.004566,-0.029082,-4.25,-7.56,-34.75,1b
2019-07-12_122933:080,-0.323853,-0.033539,-0.404175,0.0015220000000000001,0.007031,-0.032683,-4.0,-8.0,-35.560001,1b
2019-07-12_122933:100,-0.288269,-0.020325,-0.377228,0.000698,0.012005,-0.03308,-4.0,-8.0,-35.560001,1b
2019-07-12_122933:120,-0.260284,-0.017273,-0.35131799999999996,-0.000614,0.012799,-0.026976,-3.25,-7.56,-36.0,1b
2019-07-12_122933:140,-0.238434,-0.017792,-0.333496,-0.001957,0.009106,-0.018401,-3.25,-7.56,-36.0,1b
2019-07-12_122933:160,-0.233856,-0.020844,-0.33197,-0.0036049999999999997,0.003399,-0.012877000000000001,-3.25,-7.56,-36.0,1b
2019-07-12_122933:180,-0.230804,-0.019806,-0.330475,-0.005436,-0.002338,-0.011168,-3.25,-7.56,-35.25,1b
2019-07-12_122933:200,-0.233856,-0.022858,-0.33300799999999997,-0.007084,-0.006458,-0.009459,-3.25,-7.56,-35.25,1b
2019-07-12_122933:220,-0.267426,-0.029968,-0.342163,-0.008762,-0.008319,-0.007659,-3.25,-7.56,-36.5,1b
2019-07-12_122933:240,-0.30654899999999996,-0.033539,-0.3396,-0.009861,-0.004961999999999999,-0.007932999999999999,-3.25,-7.56,-36.5,1b
2019-07-12_122933:260,-0.308594,-0.029968,-0.361969,-0.011387000000000001,0.002179,-0.006774,-3.25,-7.56,-36.5,1b
2019-07-12_122933:280,-0.296906,-0.029968,-0.36248800000000003,-0.012790000000000001,0.007916,-0.000762,-2.87,-7.56,-36.0,1b
2019-07-12_122933:300,-0.304016,-0.027435,-0.390442,-0.01511,0.006634,0.007326000000000001,-2.87,-7.56,-36.0,1b
2019-07-12_122933:320,-0.307068,-0.031006,-0.402649,-0.017825999999999998,0.003186,0.012971000000000002,-2.5,-8.0,-35.560001,1b
2019-07-12_122933:340,-0.307068,-0.031494,-0.392487,-0.019747999999999998,0.000317,0.012147,-2.5,-8.0,-35.560001,1b
2019-07-12_122933:360,-0.31012,-0.023375999999999997,-0.404175,-0.0228,0.001446,0.008699,-2.5,-8.0,-35.560001,1b
2019-07-12_122933:380,-0.338074,-0.020325,-0.475861,-0.02515,-0.0038640000000000002,0.012147,-2.87,-8.37,-35.25,1b
2019-07-12_122933:400,-0.352325,-0.023895,-0.523163,-0.027012,-0.018756000000000002,0.020112,-2.87,-8.37,-35.25,1b
2019-07-12_122933:420,-0.401123,-0.020325,-0.545013,-0.028995,-0.032764,0.025056000000000002,-3.25,-9.18,-33.560001,1b
2019-07-12_122933:440,-0.381317,-0.015228,-0.5323180000000001,-0.029575,-0.031513,0.024507,-3.25,-9.18,-33.560001,1b
2019-07-12_122933:460,-0.293854,0.005065999999999999,-0.500275,-0.027469,-0.019428,0.014619,-3.25,-9.18,-33.560001,1b
2019-07-12_122933:480,-0.26944,0.021851,-0.481476,-0.024204,-0.006397,-0.001891,-1.75,-9.87,-34.75,1b
2019-07-12_122933:500,-0.268951,0.051849,-0.416901,-0.019778999999999998,0.009686,-0.013425999999999999,-1.75,-9.87,-34.75,1b
2019-07-12_122933:520,-0.242493,0.072693,-0.396057,-0.015842,0.024029,-0.012023,-1.37,-10.56,-34.75,1b
2019-07-12_122933:540,-0.19775399999999999,0.092529,-0.391968,-0.013462,0.023114,0.0005200000000000001,-1.37,-10.56,-34.75,1b
2019-07-12_122933:560,-0.20843499999999998,0.086426,-0.374176,-0.011936,0.017407,0.013643,-1.37,-10.56,-34.75,1b
2019-07-12_122933:580,-0.257751,0.08081100000000001,-0.375702,-0.011936,0.011151000000000001,0.019472,-2.5,-10.56,-35.25,1b
2019-07-12_122933:600,-0.276062,0.070648,-0.385376,-0.012211,0.005719,0.022645,-2.5,-10.56,-35.25,1b
2019-07-12_122933:620,-0.28775,0.055908000000000006,-0.406738,-0.011478,-0.002979,0.026979000000000003,-3.68,-11.37,-35.560001,1b
2019-07-12_122933:640,-0.291321,0.044219999999999995,-0.409271,-0.011539,-0.012775,0.029602999999999997,-3.68,-11.37,-35.560001,1b
2019-07-12_122933:660,-0.28927600000000003,0.033539,-0.393494,-0.011203,-0.018421,0.031892000000000004,-3.68,-11.37,-35.560001,1b
2019-07-12_122933:680,-0.291321,0.024902,-0.383331,-0.010348999999999999,-0.018817,0.034456,-2.5,-11.37,-34.060001,1b
2019-07-12_122933:700,-0.28775,0.013702,-0.36706500000000003,-0.010135,-0.015888,0.035188,-2.5,-11.37,-34.060001,1b
2019-07-12_122933:720,-0.284698,0.007599,-0.35943600000000003,-0.009922,-0.011798000000000001,0.036409,-2.87,-10.25,-34.68,1b
2019-07-12_122933:740,-0.275055,0.000488,-0.34674099999999997,-0.0098,-0.008319,0.037935,-2.87,-10.25,-34.68,1b
2019-07-12_122933:760,-0.272003,-0.001495,-0.345215,-0.010196,-0.006854000000000001,0.037446,-2.87,-10.25,-34.68,1b
2019-07-12_122933:780,-0.272491,-0.004059,-0.3396,-0.011051,-0.006214,0.035798,-2.87,-11.0,-34.0,1b
2019-07-12_122933:800,-0.269958,-0.0055850000000000006,-0.3396,-0.011997,-0.006092,0.033998,-2.87,-11.0,-34.0,1b
2019-07-12_122933:820,-0.274017,-0.007111,-0.34063699999999997,-0.012912,-0.005359,0.029085000000000003,-2.5,-11.37,-34.68,1b
2019-07-12_122933:840,-0.276062,-0.009644,-0.340118,-0.013004,-0.004901,0.027772,-2.5,-11.37,-34.68,1b
2019-07-12_122933:860,-0.286224,-0.012695,-0.345215,-0.01218,-0.002704,0.025056000000000002,-2.5,-11.37,-34.68,1b
2019-07-12_122933:880,-0.304016,-0.014740000000000001,-0.360962,-0.011875,-0.00246,0.023591,-2.5,-12.0,-34.369999,1b
2019-07-12_122933:900,-0.316223,-0.012695,-0.374695,-0.009342,-0.003436,0.017884999999999998,-2.5,-12.0,-34.369999,1b
2019-07-12_122933:920,-0.352325,-0.013213999999999998,-0.389435,-0.007601999999999999,-0.0038640000000000002,0.015625999999999998,-3.25,-12.37,-35.5,1b
2019-07-12_122933:940,-0.36248800000000003,-0.008118,-0.402649,-0.0065650000000000005,-0.003314,0.01819,-3.25,-12.37,-35.5,1b
2019-07-12_122933:960,-0.35131799999999996,-0.006592,-0.385376,-0.004703,0.000989,0.023836000000000003,-3.25,-12.37,-35.5,1b
2019-07-12_122933:980,-0.327423,-0.0055850000000000006,-0.391479,-0.004398,0.004497999999999999,0.023316999999999997,-3.25,-12.0,-34.68,1b
2019-07-12_122934:000,-0.264374,-0.009125,-0.40316799999999997,-0.0042450000000000005,0.0047729999999999995,0.018463999999999998,-3.25,-12.0,-34.68,1b
2019-07-12_122934:020,-0.327911,-0.025908999999999998,-0.43927,-0.004184,-0.00954,0.0141,-2.5,-11.25,-35.5,1b
2019-07-12_122934:040,-0.327423,-0.030487,-0.548584,-0.0033909999999999995,-0.027301,0.014344999999999998,-2.5,-11.25,-35.5,1b
2019-07-12_122934:060,-0.364532,-0.040161,-0.522644,-0.002475,-0.036395,0.01169,-2.5,-11.25,-35.5,1b
2019-07-12_122934:080,-0.35791,-0.045745999999999995,-0.546539,-0.001621,-0.034473000000000004,0.009858,-2.5,-12.0,-35.18,1b
2019-07-12_122934:100,-0.273529,-0.047272,-0.508911,0.001126,-0.017688,0.010316,-2.5,-12.0,-35.18,1b
2019-07-12_122934:120,-0.240479,-0.041687,-0.447906,0.002102,-0.00307,0.011751000000000001,-2.18,-12.37,-35.5,1b
2019-07-12_122934:140,-0.274536,-0.039642000000000004,-0.417389,0.002316,0.011883,0.017213,-2.18,-12.37,-35.5,1b
2019-07-12_122934:160,-0.21606399999999998,-0.032013,-0.416901,0.00011899999999999999,0.017315,0.022584,-2.18,-12.37,-35.5,1b
2019-07-12_122934:180,-0.166748,-0.032532,-0.401642,-0.002414,0.012341,0.019197,-1.0,-12.37,-36.369999,1b
2019-07-12_122934:200,-0.170319,-0.020844,-0.397064,-0.008029999999999999,0.002392,0.009126,-1.0,-12.37,-36.369999,1b
2019-07-12_122934:220,-0.20742800000000003,-0.019806,-0.411285,-0.013004,-0.005298,0.008851000000000001,-2.5,-11.87,-35.5,1b
2019-07-12_122934:240,-0.264862,-0.027435,-0.426544,-0.015659,-0.010669,0.013093,-2.5,-11.87,-35.5,1b
2019-07-12_122934:260,-0.29284699999999997,-0.029480000000000003,-0.43823199999999995,-0.018558,-0.013965,0.008973,-2.5,-11.87,-35.5,1b
2019-07-12_122934:280,-0.32486,-0.012177,-0.429108,-0.020755000000000003,-0.012775,0.003053,-2.87,-12.25,-35.18,1b
2019-07-12_122934:300,-0.328949,-0.002014,-0.414337,-0.021671,-0.007465,0.005128,-2.87,-12.25,-35.18,1b
2019-07-12_122934:320,-0.305054,0.004059,-0.391479,-0.022831,-0.0014529999999999999,0.010376999999999999,-1.0,-12.68,-35.869999,1b
2019-07-12_122934:340,-0.280121,0.008636,-0.372162,-0.02454,0.002728,0.015169,-1.0,-12.68,-35.869999,1b
2019-07-12_122934:360,-0.244019,0.012177,-0.355896,-0.026676,0.00285,0.019868,-1.0,-12.68,-35.869999,1b
2019-07-12_122934:380,-0.240479,0.009125,-0.35436999999999996,-0.028782,-0.00038500000000000003,0.024263,-2.87,-12.68,-35.18,1b
2019-07-12_122934:400,-0.244019,0.004059,-0.356903,-0.031039999999999998,-0.003833,0.027558999999999997,-2.87,-12.68,-35.18,1b
2019-07-12_122934:420,-0.25521900000000003,-0.000488,-0.35943600000000003,-0.033237,-0.006458,0.030427,-1.75,-13.75,-35.5,1b
2019-07-12_122934:440,-0.277588,-0.007599,-0.365021,-0.034763,-0.006488,0.033204000000000004,-1.75,-13.75,-35.5,1b
2019-07-12_122934:460,-0.28674299999999997,-0.015228,-0.361969,-0.036075,-0.0030399999999999997,0.034944,-1.75,-13.75,-35.5,1b
2019-07-12_122934:480,-0.305054,-0.017273,-0.364014,-0.036899,0.00047000000000000004,0.035524,-2.87,-14.56,-34.369999,1b
2019-07-12_122934:500,-0.310638,-0.018799,-0.375214,-0.038273,0.003735,0.038301,-2.87,-14.56,-34.369999,1b
2019-07-12_122934:520,-0.29943800000000004,-0.021851,-0.374176,-0.039341,0.0055049999999999995,0.042421,-3.25,-16.059998999999998,-34.369999,1b
2019-07-12_122934:540,-0.310638,-0.027435,-0.379791,-0.041263,0.00346,0.045076,-3.25,-16.059998999999998,-34.369999,1b
2019-07-12_122934:560,-0.30300900000000003,-0.024384,-0.41333000000000003,-0.043735,-0.00246,0.046814999999999996,-3.25,-16.059998999999998,-34.369999,1b
2019-07-12_122934:580,-0.285217,-0.026917,-0.381317,-0.044773,-0.00185,0.043031,-5.06,-16.68,-33.5,1b
2019-07-12_122934:600,-0.308075,-0.01828,-0.40316799999999997,-0.048556999999999996,-0.004444,0.037781999999999996,-5.06,-16.68,-33.5,1b
2019-07-12_122934:620,-0.306061,-0.012177,-0.40368699999999996,-0.048770999999999995,-0.000202,0.039033,-5.06,-18.18,-33.5,1b
2019-07-12_122934:640,-0.302002,-0.011169,-0.387909,-0.049747,0.003979,0.037935,-5.06,-18.18,-33.5,1b
2019-07-12_122934:660,-0.35638400000000003,0.0025329999999999997,-0.43774399999999997,-0.0517,-0.001941,0.037599,-5.06,-18.18,-33.5,1b
2019-07-12_122934:680,-0.36044299999999996,0.007599,-0.470276,-0.051303999999999995,-0.006275,0.047731,-5.75,-19.68,-32.68,1b
2019-07-12_122934:700,-0.364014,0.019806,-0.48043800000000003,-0.051944000000000004,-0.013385,0.055635000000000004,-5.75,-19.68,-32.68,1b
2019-07-12_122934:720,-0.337067,0.038116000000000004,-0.49111899999999997,-0.051426,-0.015308,0.056305999999999995,-7.25,-20.870001000000002,-33.25,1b
2019-07-12_122934:740,-0.332489,0.057953,-0.475372,-0.050754,-0.014362,0.051729,-7.25,-20.870001000000002,-33.25,1b
2019-07-12_122934:760,-0.330963,0.087952,-0.44891400000000004,-0.048954000000000004,-0.009143,0.04709,-7.25,-20.870001000000002,-33.25,1b
2019-07-12_122934:780,-0.29995700000000003,0.11386099999999999,-0.416382,-0.048221,0.000989,0.045625,-7.25,-21.059998999999998,-32.060001,1b
2019-07-12_122934:800,-0.24658200000000002,0.137756,-0.356903,-0.047855,0.013684,0.050203,-7.25,-21.059998999999998,-32.060001,1b
2019-07-12_122934:820,-0.223694,0.150482,-0.346222,-0.04935,0.01933,0.060884,-8.5,-23.0,-31.25,1b
2019-07-12_122934:840,-0.201843,0.163696,-0.37674,-0.052494000000000006,0.012494,0.07541,-8.5,-23.0,-31.25,1b
2019-07-12_122934:860,-0.182007,0.152527,-0.381805,-0.055942,0.000714,0.08279600000000001,-8.5,-23.0,-31.25,1b
2019-07-12_122934:880,-0.216583,0.134216,-0.391968,-0.060123,-0.01485,0.07776,-9.56,-23.370001000000002,-29.559998999999998,1b
2019-07-12_122934:900,-0.258759,0.124054,-0.42147799999999996,-0.06232000000000001,-0.026843000000000002,0.072358,-9.56,-23.370001000000002,-29.559998999999998,1b
2019-07-12_122934:920,-0.284698,0.10318,-0.44027700000000003,-0.061038999999999996,-0.032092,0.072358,-11.37,-24.059998999999998,-28.059998999999998,1b
2019-07-12_122934:940,-0.344696,0.075226,-0.447388,-0.056003,-0.030048000000000002,0.071962,-11.37,-24.059998999999998,-28.059998999999998,1b
2019-07-12_122934:960,-0.347229,0.070648,-0.44027700000000003,-0.053165,-0.025134,0.07190099999999999,-11.37,-24.059998999999998,-28.059998999999998,1b
2019-07-12_122934:980,-0.332489,0.071686,-0.417389,-0.047123000000000005,-0.012836000000000002,0.074434,-13.25,-25.18,-27.559998999999998,1b
2019-07-12_122935:000,-0.308594,0.071167,-0.388916,-0.041416,-0.001789,0.078676,-13.25,-25.18,-27.559998999999998,1b
2019-07-12_122935:020,-0.28674299999999997,0.0737,-0.370636,-0.037601,0.007092,0.082246,-14.37,-25.559998999999998,-26.5,1b
2019-07-12_122935:040,-0.251648,0.073212,-0.338074,-0.035769999999999996,0.010876,0.08416900000000001,-14.37,-25.559998999999998,-26.5,1b
2019-07-12_122935:060,-0.246063,0.072693,-0.33300799999999997,-0.036227999999999996,0.009564,0.085176,-14.37,-25.559998999999998,-26.5,1b
2019-07-12_122935:080,-0.25827,0.067596,-0.328949,-0.038089,0.005566,0.085451,-15.75,-25.18,-25.25,1b
2019-07-12_122935:100,-0.2659,0.06149299999999999,-0.329437,-0.040744,0.001385,0.08465700000000001,-15.75,-25.18,-25.25,1b
2019-07-12_122935:120,-0.270477,0.051330999999999995,-0.327423,-0.043399,-0.001117,0.08099500000000001,-18.370001000000002,-24.5,-24.870001000000002,1b
2019-07-12_122935:140,-0.276062,0.045226999999999996,-0.327423,-0.045444,-0.002582,0.07586799999999999,-18.370001000000002,-24.5,-24.870001000000002,1b
2019-07-12_122935:160,-0.290802,0.038116000000000004,-0.341644,-0.04639,-0.0037719999999999997,0.073152,-18.370001000000002,-24.5,-24.870001000000002,1b
2019-07-12_122935:180,-0.29943800000000004,0.032013,-0.352844,-0.045993,-0.005451,0.072572,-20.559998999999998,-24.059998999999998,-22.5,1b
2019-07-12_122935:200,-0.304535,0.024902,-0.37112399999999995,-0.04459,-0.007404000000000001,0.06991699999999999,-20.559998999999998,-24.059998999999998,-22.5,1b
2019-07-12_122935:220,-0.310638,0.023375999999999997,-0.387909,-0.042789,-0.010912999999999999,0.065065,-22.5,-23.370001000000002,-22.059998999999998,1b
2019-07-12_122935:240,-0.322327,0.027435,-0.411285,-0.040073000000000004,-0.014819999999999998,0.060274,-22.5,-23.370001000000002,-22.059998999999998,1b
2019-07-12_122935:260,-0.338593,0.032013,-0.40976,-0.037601,-0.014513999999999999,0.056642,-22.5,-23.370001000000002,-22.059998999999998,1b
2019-07-12_122935:280,-0.298431,0.043213,-0.409271,-0.034946,-0.009204,0.054323,-24.370001000000002,-23.0,-21.68,1b
2019-07-12_122935:300,-0.304016,0.041687,-0.465179,-0.033237,-0.01192,0.050263999999999996,-24.370001000000002,-23.0,-21.68,1b
2019-07-12_122935:320,-0.320282,0.037108999999999996,-0.512482,-0.031833,-0.022418,0.050996,-24.75,-22.68,-20.870001000000002,1b
2019-07-12_122935:340,-0.331482,0.032532,-0.511444,-0.029789,-0.027576,0.058289999999999995,-24.75,-22.68,-20.870001000000002,1b
2019-07-12_122935:360,-0.317749,0.021332,-0.523651,-0.030063,-0.029894999999999998,0.06833,-24.75,-22.68,-20.870001000000002,1b
2019-07-12_122935:380,-0.21911599999999998,0.006072999999999999,-0.498749,-0.028873000000000003,-0.021869,0.072358,-25.25,-22.0,-20.5,1b
2019-07-12_122935:400,-0.20486500000000002,0.005065999999999999,-0.490601,-0.030124,-0.016345,0.071229,-25.25,-22.0,-20.5,1b
2019-07-12_122935:420,-0.25827,0.001007,-0.492645,-0.030124,-0.010639000000000001,0.077211,-26.059998999999998,-20.870001000000002,-20.870001000000002,1b
2019-07-12_122935:440,-0.23690799999999998,-0.009125,-0.444855,-0.029056,0.005902,0.080873,-26.059998999999998,-20.870001000000002,-20.870001000000002,1b
2019-07-12_122935:460,-0.19165,-0.0035399999999999997,-0.41842700000000005,-0.03165,0.019969999999999998,0.07245,-26.059998999999998,-20.870001000000002,-20.870001000000002,1b
2019-07-12_122935:480,-0.170807,0.0030210000000000002,-0.44232200000000005,-0.034641000000000005,0.020245,0.06466799999999999,-27.18,-19.370001000000002,-19.68,1b
2019-07-12_122935:500,-0.142334,-0.0035399999999999997,-0.43927,-0.036838,0.014203,0.062929,-27.18,-19.370001000000002,-19.68,1b
2019-07-12_122935:520,-0.168274,-0.006072999999999999,-0.430634,-0.039889999999999995,0.0062380000000000005,0.063753,-29.75,-17.870001000000002,-20.5,1b
2019-07-12_122935:540,-0.24963400000000002,-0.013213999999999998,-0.458588,-0.043308,0.00040899999999999997,0.06979500000000001,-29.75,-17.870001000000002,-20.5,1b
2019-07-12_122935:560,-0.271484,-0.01828,-0.47079499999999996,-0.044315,-0.001117,0.079988,-29.75,-17.870001000000002,-20.5,1b
2019-07-12_122935:580,-0.290283,-0.026427999999999997,-0.45605500000000004,-0.045658,0.000195,0.082399,-30.18,-17.870001000000002,-18.870001000000002,1b
2019-07-12_122935:600,-0.305054,-0.019806,-0.451477,-0.04816,0.003003,0.079683,-30.18,-17.870001000000002,-18.870001000000002,1b
2019-07-12_122935:620,-0.291321,-0.018799,-0.432648,-0.049839,0.008374,0.081209,-31.68,-15.25,-17.25,1b
2019-07-12_122935:640,-0.272003,-0.020325,-0.41384899999999997,-0.051548000000000004,0.01286,0.083436,-31.68,-15.25,-17.25,1b
2019-07-12_122935:660,-0.24758899999999998,-0.017792,-0.396057,-0.054264,0.015118000000000001,0.081788,-31.68,-15.25,-17.25,1b
2019-07-12_122935:680,-0.23690799999999998,-0.01828,-0.389435,-0.057529,0.014081,0.081331,-32.75,-13.37,-16.870001000000002,1b
2019-07-12_122935:700,-0.24658200000000002,-0.027435,-0.388428,-0.060123,0.010296,0.082246,-32.75,-13.37,-16.870001000000002,1b
2019-07-12_122935:720,-0.253693,-0.038116000000000004,-0.385376,-0.062565,0.007702,0.08105599999999999,-34.0,-11.56,-16.059998999999998,1b
2019-07-12_122935:740,-0.266388,-0.052338,-0.385376,-0.063511,0.005719,0.07727200000000001,-34.0,-11.56,-16.059998999999998,1b
2019-07-12_122935:760,-0.274536,-0.059479,-0.38739,-0.063053,0.003583,0.073488,-34.0,-11.56,-16.059998999999998,1b
2019-07-12_122935:780,-0.291321,-0.066071,-0.384857,-0.060978,0.00224,0.07083300000000001,-34.75,-9.68,-14.5,1b
2019-07-12_122935:800,-0.29895,-0.068115,-0.381805,-0.058536000000000005,0.001935,0.06772,-34.75,-9.68,-14.5,1b
2019-07-12_122935:820,-0.305054,-0.068634,-0.372162,-0.056186,0.002575,0.063875,-36.25,-8.18,-13.25,1b
2019-07-12_122935:840,-0.311646,-0.066589,-0.36706500000000003,-0.053867,0.0037049999999999995,0.060823,-36.25,-8.18,-13.25,1b
2019-07-12_122935:860,-0.302002,-0.05996699999999999,-0.35436999999999996,-0.05227999999999999,0.0062380000000000005,0.05658099999999999,-36.25,-8.18,-13.25,1b
2019-07-12_122935:880,-0.265381,-0.056427,-0.35180700000000004,-0.052004999999999996,0.007824,0.052186,-36.0,-6.37,-12.5,1b
2019-07-12_122935:900,-0.233856,-0.048279,-0.374176,-0.052555,0.002911,0.048677,-36.0,-6.37,-12.5,1b
2019-07-12_122935:920,-0.25116,-0.050842,-0.379791,-0.053623000000000004,-0.00307,0.044008,-36.68,-5.18,-12.5,1b
2019-07-12_122935:940,-0.275543,-0.045226999999999996,-0.397583,-0.055607000000000004,-0.008533,0.038239999999999996,-36.68,-5.18,-12.5,1b
2019-07-12_122935:960,-0.293854,-0.038635,-0.40976,-0.056736,-0.012256,0.036043,-36.68,-5.18,-12.5,1b
2019-07-12_122935:980,-0.308594,-0.026427999999999997,-0.423004,-0.057254,-0.013965,0.035066,-36.68,-4.06,-12.06,1b
2019-07-12_122936:000,-0.315216,-0.015228,-0.431641,-0.057865,-0.013446000000000001,0.032869,-36.68,-4.06,-12.06,1b
2019-07-12_122936:020,-0.322327,0.006592,-0.440796,-0.057865,-0.010394,0.031862,-36.0,-3.68,-11.68,1b
2019-07-12_122936:040,-0.329437,0.023375999999999997,-0.443329,-0.058138999999999996,-0.004383,0.034395,-36.0,-3.68,-11.68,1b
2019-07-12_122936:060,-0.42758199999999996,0.048279,-0.509918,-0.060641999999999995,-0.0066099999999999996,0.043427999999999994,-36.0,-3.68,-11.68,1b
2019-07-12_122936:080,-0.390442,0.046265,-0.508423,-0.060978,-0.005634,0.059083000000000004,-36.5,-3.37,-12.0,1b
2019-07-12_122936:100,-0.332489,0.067108,-0.43011499999999997,-0.061832000000000005,0.007367,0.062532,-36.5,-3.37,-12.0,1b
2019-07-12_122936:120,-0.281647,0.08590700000000001,-0.399597,-0.062717,0.019635,0.0571,-36.5,-2.56,-12.37,1b
2019-07-12_122936:140,-0.226227,0.106232,-0.358429,-0.06085599999999999,0.030743,0.049806,-36.5,-2.56,-12.37,1b
2019-07-12_122936:160,-0.216583,0.130646,-0.385376,-0.060398,0.024609,0.041688,-36.5,-2.56,-12.37,1b
2019-07-12_122936:180,-0.242493,0.153015,-0.441803,-0.060703,0.00346,0.03943,-36.060001,-0.37,-10.75,1b
2019-07-12_122936:200,-0.262329,0.15506,-0.437225,-0.059329999999999994,-0.015827,0.040773000000000004,-36.060001,-0.37,-10.75,1b
2019-07-12_122936:220,-0.28112800000000004,0.151489,-0.433167,-0.058138999999999996,-0.025867,0.044893,-36.060001,-0.06,-10.37,1b
2019-07-12_122936:240,-0.300476,0.143372,-0.447906,-0.054996,-0.029560000000000003,0.05505499999999999,-36.060001,-0.06,-10.37,1b
2019-07-12_122936:260,-0.296387,0.12353499999999999,-0.44027700000000003,-0.050907,-0.027698,0.068239,-36.060001,-0.06,-10.37,1b
2019-07-12_122936:280,-0.287231,0.108276,-0.423492,-0.047916,-0.022327,0.07925499999999999,-36.5,0.75,-11.18,1b
2019-07-12_122936:300,-0.277588,0.083862,-0.391968,-0.04517,-0.014453,0.089143,-36.5,0.75,-11.18,1b
2019-07-12_122936:320,-0.264374,0.067596,-0.36911,-0.042331,-0.0055119999999999995,0.095979,-35.75,3.0,-12.75,1b
2019-07-12_122936:340,-0.235382,0.05438200000000001,-0.344696,-0.040806,0.000866,0.095277,-35.75,3.0,-12.75,1b
2019-07-12_122936:360,-0.22164899999999998,0.047791,-0.336548,-0.040348,0.002911,0.091066,-35.75,3.0,-12.75,1b
2019-07-12_122936:380,-0.21759,0.037108999999999996,-0.330963,-0.04047,0.000531,0.087221,-35.369999,5.18,-11.18,1b
2019-07-12_122936:400,-0.226746,0.032013,-0.329437,-0.040744,-0.004047,0.081788,-35.369999,5.18,-11.18,1b
2019-07-12_122936:420,-0.248108,0.024902,-0.337067,-0.041201999999999996,-0.009448,0.07394500000000001,-35.060001,8.56,-12.0,1b
2019-07-12_122936:440,-0.2547,0.021851,-0.339111,-0.040683,-0.012256,0.065248,-35.060001,8.56,-12.0,1b
2019-07-12_122936:460,-0.260284,0.016753999999999998,-0.34317,-0.039158,-0.012714,0.058228999999999996,-35.060001,8.56,-12.0,1b
2019-07-12_122936:480,-0.284698,0.012177,-0.34875500000000004,-0.036075,-0.013233000000000002,0.052247,-34.68,9.0,-11.87,1b
2019-07-12_122936:500,-0.304535,0.011687999999999999,-0.36554000000000003,-0.03223,-0.012775,0.046754000000000004,-34.68,9.0,-11.87,1b
2019-07-12_122936:520,-0.316742,0.014221000000000001,-0.36706500000000003,-0.026981,-0.010669,0.040498,-32.75,10.87,-10.75,1b
2019-07-12_122936:540,-0.319275,0.020325,-0.370636,-0.02161,-0.0070680000000000005,0.035188,-32.75,10.87,-10.75,1b
2019-07-12_122936:560,-0.324371,0.028442000000000002,-0.391479,-0.016636,-0.006336,0.033815,-32.75,10.87,-10.75,1b
2019-07-12_122936:580,-0.330963,0.030487,-0.40011599999999997,-0.011783,-0.005817,0.036714,-32.5,12.37,-13.18,1b
2019-07-12_122936:600,-0.307587,0.032013,-0.40976,-0.007877,-0.005359,0.036469999999999995,-32.5,12.37,-13.18,1b
2019-07-12_122936:620,-0.26944,0.028442000000000002,-0.42858900000000005,-0.005436,-0.005359,0.030945999999999998,-32.060001,12.75,-12.75,1b
2019-07-12_122936:640,-0.314697,0.014740000000000001,-0.454529,-0.00275,-0.009876000000000001,0.023988,-32.060001,12.75,-12.75,1b
2019-07-12_122936:660,-0.377747,0.006592,-0.572968,-0.0022010000000000003,-0.028247,0.022127,-32.060001,12.75,-12.75,1b
2019-07-12_122936:680,-0.40570100000000003,-0.020325,-0.50943,0.0019190000000000001,-0.025927999999999996,0.027315,-31.0,13.5,-14.37,1b
2019-07-12_122936:700,-0.384338,-0.035583,-0.561279,0.002499,-0.03017,0.028901,-31.0,13.5,-14.37,1b
2019-07-12_122936:720,-0.361969,-0.037598,-0.52417,0.0055509999999999995,-0.019336000000000002,0.028291000000000004,-31.059998999999998,13.87,-14.75,1b
2019-07-12_122936:740,-0.24658200000000002,-0.038635,-0.475372,0.006344,-0.007862000000000001,0.027955,-31.059998999999998,13.87,-14.75,1b
2019-07-12_122936:760,-0.197266,-0.039642000000000004,-0.41995200000000005,0.006161,0.0007440000000000001,0.027498,-31.059998999999998,13.87,-14.75,1b
2019-07-12_122936:780,-0.187073,-0.041168,-0.401123,0.003964,0.010235,0.024385,-30.25,15.0,-14.75,1b
2019-07-12_122936:800,-0.166748,-0.049805,-0.368073,0.000729,0.017377,0.019533000000000002,-30.25,15.0,-14.75,1b
2019-07-12_122936:820,-0.163177,-0.050842,-0.380798,-0.002262,0.011487,0.013612,-30.0,15.87,-14.37,1b
2019-07-12_122936:840,-0.149475,-0.057953,-0.391968,-0.004184,0.001263,0.0058,-30.0,15.87,-14.37,1b
2019-07-12_122936:860,-0.164703,-0.063538,-0.405212,-0.007267,-0.009845,-0.000212,-30.0,15.87,-14.37,1b
2019-07-12_122936:880,-0.23895300000000003,-0.070648,-0.441284,-0.008609,-0.020404,0.000642,-30.25,15.87,-14.0,1b
2019-07-12_122936:900,-0.279114,-0.078278,-0.45401,-0.007877,-0.025713999999999997,0.0034189999999999997,-30.25,15.87,-14.0,1b
2019-07-12_122936:920,-0.32995599999999997,-0.074738,-0.44433599999999995,-0.007145,-0.020801,-0.000365,-30.68,15.5,-14.0,1b
2019-07-12_122936:940,-0.350281,-0.063538,-0.435699,-0.006076,-0.011127,-0.008116,-30.68,15.5,-14.0,1b
2019-07-12_122936:960,-0.320282,-0.048279,-0.410797,-0.005222,1.2e-05,-0.011504,-30.68,15.5,-14.0,1b
2019-07-12_122936:980,-0.294373,-0.038635,-0.389435,-0.004612,0.007489,-0.011901,-30.0,15.06,-14.75,1b
2019-07-12_122937:000,-0.268951,-0.026427999999999997,-0.36044299999999996,-0.005436,0.008954,-0.012754999999999999,-30.0,15.06,-14.75,1b
2019-07-12_122937:020,-0.253693,-0.020325,-0.347229,-0.007541,0.007886,-0.011229000000000001,-29.18,15.5,-14.75,1b
2019-07-12_122937:040,-0.236389,-0.020844,-0.332489,-0.009525,0.004651,-0.008177,-29.18,15.5,-14.75,1b
2019-07-12_122937:060,-0.23995999999999998,-0.022858,-0.334015,-0.01218,-0.00047599999999999997,-0.008971,-29.18,15.5,-14.75,1b
2019-07-12_122937:080,-0.25827,-0.025421,-0.338593,-0.014438,-0.005359,-0.011168,-30.0,14.68,-13.56,1b
2019-07-12_122937:100,-0.261322,-0.031494,-0.342163,-0.015384,-0.007801000000000001,-0.011168,-30.0,14.68,-13.56,1b
2019-07-12_122937:120,-0.275543,-0.039124,-0.3508,-0.014713,-0.007862000000000001,-0.011106999999999999,-29.559998999999998,14.0,-14.0,1b
2019-07-12_122937:140,-0.282654,-0.039124,-0.355896,-0.013401,-0.006458,-0.012419,-29.559998999999998,14.0,-14.0,1b
2019-07-12_122937:160,-0.290283,-0.034546,-0.368073,-0.011326000000000001,-0.004047,-0.012084000000000001,-29.559998999999998,14.0,-14.0,1b
2019-07-12_122937:180,-0.29742399999999997,-0.034058,-0.37316900000000003,-0.009128,-0.00246,-0.010314,-29.559998999999998,13.18,-14.75,1b
2019-07-12_122937:200,-0.297913,-0.019806,-0.394012,-0.008152,-0.00038500000000000003,-0.008452,-29.559998999999998,13.18,-14.75,1b
2019-07-12_122937:220,-0.29995700000000003,-0.016266,-0.40316799999999997,-0.009006,-0.001941,-0.002806,-30.25,12.18,-14.37,1b
2019-07-12_122937:240,-0.300964,-0.009644,-0.41842700000000005,-0.009464,-0.001911,-0.001738,-30.25,12.18,-14.37,1b
2019-07-12_122937:260,-0.318268,0.001007,-0.423492,-0.012272,-0.001392,-0.003325,-30.25,12.18,-14.37,1b
2019-07-12_122937:280,-0.319275,0.004059,-0.429596,-0.015842,0.000134,-0.002349,-31.5,13.18,-15.56,1b
2019-07-12_122937:300,-0.28112800000000004,0.010162000000000001,-0.443329,-0.019291,0.00047000000000000004,0.001924,-31.5,13.18,-15.56,1b
2019-07-12_122937:320,-0.284698,0.013213999999999998,-0.454529,-0.02222,-0.01192,0.000184,-30.25,12.5,-15.18,1b
2019-07-12_122937:340,-0.394012,0.037108999999999996,-0.575012,-0.025089,-0.024340999999999998,0.007387,-30.25,12.5,-15.18,1b
2019-07-12_122937:360,-0.40011599999999997,0.036591000000000005,-0.558746,-0.02692,-0.022418,0.018678,-30.25,12.5,-15.18,1b
2019-07-12_122937:380,-0.359955,0.041687,-0.52417,-0.028537,-0.013507,0.020387,-30.68,11.37,-16.75,1b
2019-07-12_122937:400,-0.342163,0.043213,-0.506897,-0.028141000000000003,-0.0030399999999999997,0.009645,-30.68,11.37,-16.75,1b
2019-07-12_122937:420,-0.24758899999999998,0.066589,-0.44027700000000003,-0.025089,0.009686,-0.004058,-31.059998999999998,11.37,-17.18,1b
2019-07-12_122937:440,-0.259277,0.068634,-0.406738,-0.021366,0.020367,-0.013304,-31.059998999999998,11.37,-17.18,1b
2019-07-12_122937:460,-0.24706999999999998,0.110321,-0.391479,-0.01865,0.022168,-0.007994,-31.059998999999998,11.37,-17.18,1b
2019-07-12_122937:480,-0.223175,0.12048299999999999,-0.390961,-0.015384,0.017987,0.007326000000000001,-30.68,11.06,-15.56,1b
2019-07-12_122937:500,-0.186066,0.11538699999999999,-0.35943600000000003,-0.014469,0.008679000000000001,0.01523,-30.68,11.06,-15.56,1b
2019-07-12_122937:520,-0.20843499999999998,0.112854,-0.36349499999999996,-0.014591,0.001385,0.020051,-31.059998999999998,10.68,-16.75,1b
2019-07-12_122937:540,-0.280121,0.10318,-0.381317,-0.012668,-0.002918,0.029602999999999997,-31.059998999999998,10.68,-16.75,1b
2019-07-12_122937:560,-0.278107,0.08743300000000001,-0.384857,-0.011387000000000001,-0.007465,0.036714,-31.059998999999998,10.68,-16.75,1b
2019-07-12_122937:580,-0.282166,0.071167,-0.387909,-0.010654,-0.012439,0.040376,-30.68,11.37,-15.56,1b
2019-07-12_122937:600,-0.29742399999999997,0.051330999999999995,-0.385864,-0.008884,-0.013965,0.04535,-30.68,11.37,-15.56,1b
2019-07-12_122937:620,-0.300476,0.029968,-0.364014,-0.0067480000000000005,-0.011859,0.047609,-30.25,11.75,-16.75,1b
2019-07-12_122937:640,-0.295898,0.023895,-0.3508,-0.005222,-0.00838,0.044893,-30.25,11.75,-16.75,1b
2019-07-12_122937:660,-0.276581,0.022858,-0.340118,-0.004123,-0.006336,0.04178,-30.25,11.75,-16.75,1b
2019-07-12_122937:680,-0.267914,0.017792,-0.33758499999999997,-0.003483,-0.006854000000000001,0.039979,-29.559998999999998,12.18,-17.5,1b
2019-07-12_122937:700,-0.277588,0.019318000000000002,-0.335022,-0.004062,-0.008533,0.038239999999999996,-29.559998999999998,12.18,-17.5,1b
2019-07-12_122937:720,-0.281647,0.018799,-0.332489,-0.004764,-0.008411,0.036469999999999995,-29.18,13.25,-17.5,1b
2019-07-12_122937:740,-0.268433,0.018799,-0.327423,-0.0060149999999999995,-0.007587000000000001,0.032594,-29.18,13.25,-17.5,1b
2019-07-12_122937:760,-0.260284,0.014221000000000001,-0.327423,-0.006962,-0.006670999999999999,0.028169,-29.18,13.25,-17.5,1b
2019-07-12_122937:780,-0.263336,0.011169,-0.333496,-0.006168,-0.004718,0.026764999999999997,-28.5,14.5,-18.25,1b
2019-07-12_122937:800,-0.286224,0.002014,-0.34063699999999997,-0.004459,-0.0021850000000000003,0.025514,-28.5,14.5,-18.25,1b
2019-07-12_122937:820,-0.29895,-0.002014,-0.36349499999999996,-0.001621,-0.002735,0.021181000000000002,-28.75,14.5,-17.870001000000002,1b
2019-07-12_122937:840,-0.325378,-0.011687999999999999,-0.385376,0.002163,-0.0038640000000000002,0.013947999999999999,-28.75,14.5,-17.870001000000002,1b
2019-07-12_122937:860,-0.348267,-0.010162000000000001,-0.401123,0.005825,-0.0037719999999999997,0.009981,-28.75,14.5,-17.870001000000002,1b
2019-07-12_122937:880,-0.358429,-0.011169,-0.411285,0.009732,0.000531,0.011293000000000001,-28.0,16.0,-18.68,1b
2019-07-12_122937:900,-0.329437,-0.01828,-0.420441,0.012936000000000001,0.003735,0.010376999999999999,-28.0,16.0,-18.68,1b
2019-07-12_122937:920,-0.365021,-0.058960000000000005,-0.45654300000000003,0.016262000000000002,-0.008594,0.004213000000000001,-28.0,16.0,-17.870001000000002,1b
2019-07-12_122937:940,-0.465179,-0.09353600000000001,-0.557739,0.027859,-0.013904,0.0005200000000000001,-28.0,16.0,-17.870001000000002,1b
2019-07-12_122937:960,-0.469757,-0.144379,-0.5572199999999999,0.045254,-0.008747,-0.00479,-28.0,16.0,-17.870001000000002,1b
2019-07-12_122937:980,-0.41995200000000005,-0.12353499999999999,-0.586182,0.052303999999999996,-0.0032530000000000002,-0.0063159999999999996,-28.0,17.059998999999998,-19.5,1b
2019-07-12_122938:000,-0.336548,-0.088959,-0.546539,0.062527,0.014537999999999999,-0.005522,-28.0,17.059998999999998,-19.5,1b
2019-07-12_122938:020,-0.241486,-0.0737,-0.49111899999999997,0.0621,0.020763999999999998,-0.005248,-29.059998999999998,17.059998999999998,-18.25,1b
2019-07-12_122938:040,-0.168274,-0.064545,-0.416901,0.048977,0.026470999999999998,-0.004546,-29.059998999999998,17.059998999999998,-18.25,1b
2019-07-12_122938:060,-0.196747,-0.079803,-0.393005,0.038235000000000005,0.018658,-0.009459,-29.059998999999998,17.059998999999998,-18.25,1b
2019-07-12_122938:080,-0.22521999999999998,-0.09963999999999999,-0.410797,0.026608,0.010296,-0.017943,-28.68,17.75,-16.25,1b
2019-07-12_122938:100,-0.199799,-0.103699,-0.375214,0.017361,0.002728,-0.02246,-28.68,17.75,-16.25,1b
2019-07-12_122938:120,-0.18811,-0.114899,-0.348267,0.009945,-0.008258,-0.023131,-29.5,17.75,-15.5,1b
2019-07-12_122938:140,-0.213531,-0.124054,-0.36044299999999996,0.004635,-0.019489,-0.024962,-29.5,17.75,-15.5,1b
2019-07-12_122938:160,-0.238434,-0.127106,-0.36554000000000003,0.00198,-0.026386,-0.029479,-29.5,17.75,-15.5,1b
2019-07-12_122938:180,-0.252686,-0.11691300000000002,-0.347748,0.001187,-0.027454000000000003,-0.032225,-30.559998999999998,17.68,-15.06,1b
2019-07-12_122938:200,-0.282166,-0.10318,-0.338593,0.000241,-0.022327,-0.041106000000000004,-30.559998999999998,17.68,-15.06,1b
2019-07-12_122938:220,-0.29232800000000003,-0.09201000000000001,-0.330963,0.00011899999999999999,-0.018695,-0.043822,-31.0,16.559998999999998,-17.059998999999998,1b
2019-07-12_122938:240,-0.282166,-0.074738,-0.317749,-0.000156,-0.007862000000000001,-0.049315,-31.0,16.559998999999998,-17.059998999999998,1b
2019-07-12_122938:260,-0.272003,-0.066589,-0.314178,-0.000492,-0.00426,-0.049651,-31.0,16.559998999999998,-17.059998999999998,1b
2019-07-12_122938:280,-0.271484,-0.053863999999999995,-0.323853,-0.000492,-0.003467,-0.048063999999999996,-31.68,15.5,-17.059998999999998,1b
2019-07-12_122938:300,-0.277588,-0.052338,-0.32995599999999997,-0.000675,-0.006488,-0.040952999999999996,-31.68,15.5,-17.059998999999998,1b
2019-07-12_122938:320,-0.315704,-0.047791,-0.347748,-0.001011,-0.008075,-0.039244,-32.060001,13.56,-17.5,1b
2019-07-12_122938:340,-0.337067,-0.044739,-0.358429,-0.002323,-0.0061530000000000005,-0.033415,-32.060001,13.56,-17.5,1b
2019-07-12_122938:360,-0.327911,-0.039124,-0.355377,-0.004184,-0.00185,-0.026701999999999997,-32.060001,13.56,-17.5,1b
2019-07-12_122938:380,-0.314697,-0.039642000000000004,-0.356903,-0.004978,0.000653,-0.023191999999999997,-33.18,12.18,-17.870001000000002,1b
2019-07-12_122938:400,-0.318268,-0.039642000000000004,-0.349792,-0.008732,0.0071530000000000005,-0.018004,-33.18,12.18,-17.870001000000002,1b
2019-07-12_122938:420,-0.29895,-0.036072,-0.355377,-0.010685,0.008709999999999999,-0.01602,-34.25,12.18,-16.68,1b
2019-07-12_122938:440,-0.267914,-0.037108999999999996,-0.349792,-0.016697,0.005902,-0.004393,-34.25,12.18,-16.68,1b
2019-07-12_122938:460,-0.315704,-0.040161,-0.368073,-0.021427,-0.00041500000000000006,0.0005200000000000001,-34.25,12.18,-16.68,1b
2019-07-12_122938:480,-0.312653,-0.049805,-0.382812,-0.022953,7.3e-05,-0.000151,-33.560001,11.75,-17.5,1b
2019-07-12_122938:500,-0.285217,-0.044739,-0.370636,-0.027408,0.002728,-0.012816,-33.560001,11.75,-17.5,1b
2019-07-12_122938:520,-0.360962,-0.031494,-0.40570100000000003,-0.028446,-0.000324,-0.016081,-34.560001,11.37,-16.559998999999998,1b
2019-07-12_122938:540,-0.433655,-0.01828,-0.518066,-0.030581999999999998,-0.020130000000000002,-0.00952,-34.560001,11.37,-16.559998999999998,1b
2019-07-12_122938:560,-0.427063,-0.000488,-0.477386,-0.032566000000000005,-0.025379,0.000306,-34.560001,11.37,-16.559998999999998,1b
2019-07-12_122938:580,-0.394531,0.019318000000000002,-0.49926800000000005,-0.033634,-0.023913999999999998,0.003297,-35.0,9.87,-18.559998999999998,1b
2019-07-12_122938:600,-0.319275,0.038635,-0.477386,-0.031528,-0.01369,-0.010375,-35.0,9.87,-18.559998999999998,1b
2019-07-12_122938:620,-0.293335,0.057953,-0.45654300000000003,-0.029667000000000002,-0.007801000000000001,-0.028441,-34.560001,9.18,-18.559998999999998,1b
2019-07-12_122938:640,-0.298431,0.100647,-0.45095799999999997,-0.02634,0.001782,-0.029143000000000002,-34.560001,9.18,-18.559998999999998,1b
2019-07-12_122938:660,-0.304535,0.114899,-0.417908,-0.023075,0.005719,-0.014219999999999998,-34.560001,9.18,-18.559998999999998,1b
2019-07-12_122938:680,-0.313171,0.12048299999999999,-0.427063,-0.022494999999999998,0.0055049999999999995,-0.006377000000000001,-33.5,8.06,-18.559998999999998,1b
2019-07-12_122938:700,-0.296906,0.11080899999999999,-0.399597,-0.018253,0.00755,0.0029,-33.5,8.06,-18.559998999999998,1b
2019-07-12_122938:720,-0.28674299999999997,0.11080899999999999,-0.376221,-0.017368,0.007031,0.0026260000000000003,-36.060001,6.56,-19.370001000000002,1b
2019-07-12_122938:740,-0.287231,0.112854,-0.37011700000000003,-0.011875,0.001721,0.004854,-36.060001,6.56,-19.370001000000002,1b
2019-07-12_122938:760,-0.274017,0.106232,-0.36349499999999996,-0.009006,-0.002582,0.009767,-36.060001,6.56,-19.370001000000002,1b
2019-07-12_122938:780,-0.27301,0.100647,-0.345215,-0.008091,-0.004383,0.013765000000000001,-35.25,6.56,-19.0,1b
2019-07-12_122938:800,-0.272491,0.08743300000000001,-0.318268,-0.005344,-0.005115,0.029542000000000002,-35.25,6.56,-19.0,1b
2019-07-12_122938:820,-0.278107,0.07421900000000001,-0.30249000000000004,-0.004581,-0.004383,0.033020999999999995,-35.25,6.56,-19.0,1b
2019-07-12_122938:840,-0.279114,0.063538,-0.28927600000000003,-0.00394,-0.003314,0.037324,-36.060001,6.87,-18.559998999999998,1b
2019-07-12_122938:860,-0.274017,0.061005,-0.286224,-0.004123,-0.005756,0.039369,-36.060001,6.87,-18.559998999999998,1b
2019-07-12_122938:880,-0.279114,0.05285599999999999,-0.297913,-0.004337,-0.007984,0.040223,-35.68,7.68,-18.18,1b
2019-07-12_122938:900,-0.29180900000000004,0.044739,-0.300964,-0.005771,-0.013294,0.039857,-35.68,7.68,-18.18,1b
2019-07-12_122938:920,-0.303528,0.040161,-0.31723,-0.006168,-0.014819999999999998,0.039461,-35.68,7.68,-18.18,1b
2019-07-12_122938:940,-0.309601,0.036072,-0.324371,-0.0069,-0.015643999999999998,0.035341000000000004,-35.68,9.18,-18.68,1b
2019-07-12_122938:960,-0.308594,0.034546,-0.330475,-0.007267,-0.012714,0.031221,-35.68,9.18,-18.68,1b
2019-07-12_122938:980,-0.326385,0.034546,-0.340118,-0.007358,-0.012042,0.029878,-36.060001,10.68,-18.18,1b
2019-07-12_122939:000,-0.35791,0.031006,-0.36044299999999996,-0.0060149999999999995,-0.0076170000000000005,0.025361,-36.060001,10.68,-18.18,1b
2019-07-12_122939:020,-0.371643,0.029480000000000003,-0.368591,-0.0052829999999999995,-0.00539,0.023438999999999998,-36.060001,10.68,-18.18,1b
2019-07-12_122939:040,-0.401123,0.027435,-0.368591,-0.002353,0.001599,0.020204,-34.18,11.75,-20.18,1b
2019-07-12_122939:060,-0.409271,0.029968,-0.36706500000000003,-0.0008269999999999999,0.0067870000000000005,0.023042,-34.18,11.75,-20.18,1b
2019-07-12_122939:080,-0.378754,0.03302,-0.358917,-0.000278,0.009015,0.025789,-34.560001,11.37,-20.18,1b
2019-07-12_122939:100,-0.324371,0.027435,-0.361481,0.000241,0.009045000000000001,0.029756,-34.560001,11.37,-20.18,1b
2019-07-12_122939:120,-0.308594,0.016753999999999998,-0.375214,0.000241,0.0062380000000000005,0.028169,-35.25,12.87,-19.75,1b
2019-07-12_122939:140,-0.33605999999999997,-0.009125,-0.412811,0.000515,-0.002643,0.024049,-35.25,12.87,-19.75,1b
2019-07-12_122939:160,-0.461639,-0.029480000000000003,-0.48196400000000006,0.001583,-0.030108999999999997,0.024568,-35.25,12.87,-19.75,1b
2019-07-12_122939:180,-0.429596,-0.065063,-0.49517799999999995,0.0032310000000000004,-0.029833999999999996,0.026704000000000002,-35.68,13.18,-18.559998999999998,1b
2019-07-12_122939:200,-0.449432,-0.085388,-0.47280900000000003,0.008084000000000001,-0.019031,0.01523,-35.68,13.18,-18.559998999999998,1b
2019-07-12_122939:220,-0.470276,-0.090485,-0.5109560000000001,0.008816,-0.013294,0.011567000000000001,-35.68,13.18,-18.559998999999998,1b
2019-07-12_122939:240,-0.369598,-0.084381,-0.46060200000000007,0.014706,0.007184,0.012086,-34.18,14.37,-21.0,1b
2019-07-12_122939:260,-0.181488,-0.08843999999999999,-0.385376,0.016323,0.023297,0.012025,-34.18,14.37,-21.0,1b
2019-07-12_122939:280,-0.152527,-0.084381,-0.358429,0.015988,0.028943,0.005922,-34.18,15.06,-20.559998999999998,1b
2019-07-12_122939:300,-0.25317399999999995,-0.0849,-0.389435,0.015774,0.017712000000000002,-0.004149,-34.18,15.06,-20.559998999999998,1b
2019-07-12_122939:320,-0.253693,-0.083862,-0.39502,0.016171,0.015668,-0.008237999999999999,-34.18,15.06,-20.559998999999998,1b
2019-07-12_122939:340,-0.20843499999999998,-0.073212,-0.356903,0.01434,0.0062380000000000005,-0.022917,-35.68,14.68,-19.75,1b
2019-07-12_122939:360,-0.259796,-0.063019,-0.371643,0.013516,0.001385,-0.024382,-35.68,14.68,-19.75,1b
2019-07-12_122939:380,-0.341125,-0.056915,-0.40774499999999997,0.012265,-0.004657,-0.022185,-36.060001,14.68,-17.75,1b
2019-07-12_122939:400,-0.342163,-0.051849,-0.406738,0.010525,-0.006397,-0.021117,-36.060001,14.68,-17.75,1b
2019-07-12_122939:420,-0.35180700000000004,-0.036591000000000005,-0.374176,0.00787,-0.0032530000000000002,-0.024779,-36.060001,14.68,-17.75,1b
2019-07-12_122939:440,-0.37316900000000003,-0.029968,-0.35943600000000003,0.004971,0.004651,-0.029296,-36.5,14.37,-18.559998999999998,1b
2019-07-12_122939:460,-0.37011700000000003,-0.024384,-0.338074,0.000973,0.022106999999999998,-0.032987999999999996,-36.5,14.37,-18.559998999999998,1b
2019-07-12_122939:480,-0.339111,-0.021851,-0.323334,-0.000156,0.026349,-0.033354,-36.060001,14.0,-17.75,1b
2019-07-12_122939:500,-0.285706,-0.009644,-0.290283,-0.001957,0.030345999999999998,-0.029418,-36.060001,14.0,-17.75,1b
2019-07-12_122939:520,-0.290283,0.025908999999999998,-0.282166,-0.0022010000000000003,0.026806,-0.02603,-36.060001,14.0,-17.75,1b
2019-07-12_122939:540,-0.315704,0.026427999999999997,-0.270477,-0.013584,0.01878,-0.028685000000000002,-38.25,12.87,-16.18,1b
2019-07-12_122939:560,-0.3396,0.016266,-0.268433,-0.016056,0.017468,-0.028562999999999998,-38.25,12.87,-16.18,1b
2019-07-12_122939:580,-0.388916,-0.022369,-0.296906,-0.018558,0.016980000000000002,-0.022399000000000002,-39.060001,11.37,-15.0,1b
2019-07-12_122939:600,-0.374695,-0.040161,-0.29284699999999997,-0.017032,0.023083000000000003,-0.019011,-39.060001,11.37,-15.0,1b
2019-07-12_122939:620,-0.36044299999999996,-0.048279,-0.28674299999999997,-0.013522999999999999,0.028393,-0.020659,-39.060001,11.37,-15.0,1b
2019-07-12_122939:640,-0.353333,-0.040161,-0.284698,-0.007755,0.032605,-0.02365,-39.75,11.06,-15.5,1b
2019-07-12_122939:660,-0.360962,-0.023895,-0.278595,-0.002018,0.034588,-0.027831,-39.75,11.06,-15.5,1b
2019-07-12_122939:680,-0.38385,-0.010651,-0.278107,-0.000736,0.033977999999999994,-0.028013999999999997,-39.75,9.18,-13.5,1b
2019-07-12_122939:700,-0.449432,0.008118,-0.28927600000000003,0.000637,0.028943,-0.024108,-39.75,9.18,-13.5,1b
2019-07-12_122939:720,-0.452484,0.011169,-0.28875700000000004,0.00079,0.028485000000000003,-0.023894,-39.75,9.18,-13.5,1b
2019-07-12_122939:740,-0.460114,0.022858,-0.270966,0.000393,0.029338999999999997,-0.027495,-41.25,7.25,-11.87,1b
2019-07-12_122939:760,-0.43670699999999996,0.035583,-0.283173,-0.0008269999999999999,0.029613999999999998,-0.030882,-41.25,7.25,-11.87,1b
2019-07-12_122939:780,-0.395538,0.061005,-0.28674299999999997,-0.001011,0.028088,-0.031218,-41.25,6.87,-11.06,1b
2019-07-12_122939:800,-0.545532,0.082855,-0.286224,-0.002811,0.019696,-0.031737,-41.25,6.87,-11.06,1b
2019-07-12_122939:820,-0.557739,0.121002,-0.378265,-0.007633,0.0037049999999999995,-0.026641,-41.25,6.87,-11.06,1b
2019-07-12_122939:840,-0.52417,0.128113,-0.279633,-0.009556,0.010235,-0.009032,-42.0,5.06,-9.87,1b
2019-07-12_122939:860,-0.425537,0.143372,-0.324371,-0.016575,0.005047,0.000459,-42.0,5.06,-9.87,1b
2019-07-12_122939:880,-0.363007,0.151001,-0.32843,-0.020968999999999998,0.003796,0.001192,-42.75,4.37,-9.87,1b
2019-07-12_122939:900,-0.325378,0.155548,-0.282166,-0.023684999999999998,0.00404,-0.0015550000000000002,-42.75,4.37,-9.87,1b
2019-07-12_122939:920,-0.41586300000000004,0.1698,-0.277588,-0.024326,0.004986,-0.006652,-42.75,4.37,-9.87,1b
2019-07-12_122939:940,-0.40570100000000003,0.186066,-0.31369,-0.027408,0.007245000000000001,-0.0063159999999999996,-42.75,4.37,-10.25,1b
2019-07-12_122939:960,-0.33300799999999997,0.187592,-0.271484,-0.028537,0.012341,0.009584,-42.75,4.37,-10.25,1b
2019-07-12_122939:980,-0.347748,0.17538499999999999,-0.259277,-0.030399000000000002,0.011212,0.025911,-43.369999,3.18,-9.5,1b
2019-07-12_122940:000,-0.394012,0.171844,-0.259796,-0.034183,0.012402,0.031343,-43.369999,3.18,-9.5,1b
2019-07-12_122940:020,-0.40316799999999997,0.159637,-0.24658200000000002,-0.037295999999999996,0.014477,0.039033,-43.369999,3.18,-9.5,1b
2019-07-12_122940:040,-0.417389,0.139282,-0.23486300000000002,-0.039066000000000004,0.011273,0.052522000000000006,-43.0,4.0,-9.06,1b
2019-07-12_122940:060,-0.41384899999999997,0.105743,-0.23233,-0.041324,0.004895,0.06299,-43.0,4.0,-9.06,1b
2019-07-12_122940:080,-0.375702,0.087952,-0.21810900000000003,-0.042392,0.001202,0.068117,-43.0,5.06,-9.5,1b
2019-07-12_122940:100,-0.344696,0.057953,-0.198273,-0.042118,-0.002643,0.07208400000000001,-43.0,5.06,-9.5,1b
2019-07-12_122940:120,-0.35436999999999996,0.042175,-0.20285,-0.040683,-0.007862000000000001,0.073549,-43.0,5.06,-9.5,1b
2019-07-12_122940:140,-0.361969,0.023375999999999997,-0.194214,-0.038607999999999996,-0.011188,0.073366,-43.369999,6.56,-9.0,1b
2019-07-12_122940:160,-0.37316900000000003,0.011687999999999999,-0.187592,-0.035343,-0.013904,0.073152,-43.369999,6.56,-9.0,1b
2019-07-12_122940:180,-0.373688,-0.000488,-0.184021,-0.032169,-0.014453,0.072175,-42.869999,9.25,-9.5,1b
2019-07-12_122940:200,-0.358917,-0.006072999999999999,-0.180481,-0.029117,-0.013628999999999999,0.069124,-42.869999,9.25,-9.5,1b
2019-07-12_122940:220,-0.35943600000000003,-0.011687999999999999,-0.18096900000000002,-0.026279000000000004,-0.013233000000000002,0.064851,-42.869999,9.25,-9.5,1b
2019-07-12_122940:240,-0.35739099999999996,-0.012695,-0.183014,-0.023288,-0.011371,0.06067,-41.75,11.5,-9.06,1b
2019-07-12_122940:260,-0.38739,-0.021332,-0.180481,-0.020694,-0.008136,0.056916999999999995,-41.75,11.5,-9.06,1b
2019-07-12_122940:280,-0.41485600000000006,-0.024384,-0.213531,-0.019169,-0.008716,0.052125,-41.369999,13.25,-10.25,1b
2019-07-12_122940:300,-0.431122,-0.035583,-0.216583,-0.015659,-0.009204,0.046541,-41.369999,13.25,-10.25,1b
2019-07-12_122940:320,-0.471283,-0.034058,-0.241486,-0.013125999999999999,-0.013172,0.037904,-41.369999,13.25,-10.25,1b
2019-07-12_122940:340,-0.517059,-0.032013,-0.257233,-0.011722,-0.014575,0.033020999999999995,-41.060001,14.68,-10.25,1b
2019-07-12_122940:360,-0.494171,-0.040161,-0.252686,-0.010013,-0.009723,0.033479,-41.060001,14.68,-10.25,1b
2019-07-12_122940:380,-0.46569799999999995,-0.06253099999999999,-0.277588,-0.008213,-0.007801000000000001,0.029633999999999997,-40.68,15.87,-11.87,1b
2019-07-12_122940:400,-0.463654,-0.081329,-0.294373,-0.004703,-0.009052,0.018463999999999998,-40.68,15.87,-11.87,1b
2019-07-12_122940:420,-0.733643,-0.089478,-0.397064,0.000698,-0.018756000000000002,0.006929,-40.68,15.87,-11.87,1b
2019-07-12_122940:440,-0.5404359999999999,-0.10775799999999999,-0.415375,0.005642,-0.023853,0.009431,-41.0,16.18,-12.25,1b
2019-07-12_122940:460,-0.562286,-0.103699,-0.293854,0.015194,-0.009052,0.004945000000000001,-41.0,16.18,-12.25,1b
2019-07-12_122940:480,-0.575012,-0.105225,-0.34674099999999997,0.013974,-0.007923000000000001,-0.002135,-40.560001,16.18,-12.68,1b
2019-07-12_122940:500,-0.320282,-0.095581,-0.28112800000000004,0.019101,0.011090000000000001,0.0038159999999999995,-40.560001,16.18,-12.68,1b
2019-07-12_122940:520,-0.24963400000000002,-0.10928299999999999,-0.21911599999999998,0.018887,0.018536,0.008394,-40.560001,16.18,-12.68,1b
2019-07-12_122940:540,-0.36044299999999996,-0.108795,-0.274017,0.016781,0.007640999999999999,0.008394,-40.560001,17.0,-10.68,1b
2019-07-12_122940:560,-0.389435,-0.129639,-0.28979499999999997,0.016232,-0.0020629999999999997,0.01291,-40.560001,17.0,-10.68,1b
2019-07-12_122940:580,-0.32995599999999997,-0.139801,-0.244019,0.017361,-0.003467,0.00992,-40.560001,17.68,-11.06,1b
2019-07-12_122940:600,-0.377228,-0.131165,-0.268951,0.015316,-0.012836000000000002,-0.004454,-40.560001,17.68,-11.06,1b
2019-07-12_122940:620,-0.41842700000000005,-0.122528,-0.28674299999999997,0.01434,-0.019824,-0.013701,-40.560001,17.68,-11.06,1b
2019-07-12_122940:640,-0.378265,-0.11386099999999999,-0.264862,0.014462000000000001,-0.020801,-0.018004,-40.869999,17.0,-11.5,1b
2019-07-12_122940:660,-0.381317,-0.09454299999999999,-0.25317399999999995,0.013455000000000002,-0.020465,-0.028745999999999997,-40.869999,17.0,-11.5,1b
2019-07-12_122940:680,-0.394012,-0.068634,-0.24658200000000002,0.011349,-0.018421,-0.040648000000000004,-41.18,17.370001000000002,-10.68,1b
2019-07-12_122940:700,-0.385376,-0.058441,-0.233856,0.009945,-0.0125,-0.043822,-41.18,17.370001000000002,-10.68,1b
2019-07-12_122940:720,-0.391479,-0.046265,-0.21759,0.008694,-0.007739,-0.04251,-41.18,17.370001000000002,-10.68,1b
2019-07-12_122940:740,-0.397064,-0.039124,-0.212006,0.006344,-0.004444,-0.042113,-40.869999,15.5,-11.5,1b
2019-07-12_122940:760,-0.377228,-0.030487,-0.20385699999999998,0.004025,-0.0008730000000000001,-0.037535,-40.869999,15.5,-11.5,1b
2019-07-12_122940:780,-0.36554000000000003,-0.027435,-0.20486500000000002,0.002499,-0.002735,-0.034545,-42.0,13.18,-11.0,1b
2019-07-12_122940:800,-0.367584,-0.019806,-0.20742800000000003,0.000698,-0.0070680000000000005,-0.032469,-42.0,13.18,-11.0,1b
2019-07-12_122940:820,-0.371643,-0.016753999999999998,-0.21249400000000002,-0.001407,-0.011524,-0.028411000000000002,-42.0,13.18,-11.0,1b
2019-07-12_122940:840,-0.374176,-0.015228,-0.210968,-0.003452,-0.014972,-0.022917,-42.68,11.75,-11.0,1b
2019-07-12_122940:860,-0.376221,-0.015747,-0.213013,-0.005497,-0.015827,-0.020384,-42.68,11.75,-11.0,1b
2019-07-12_122940:880,-0.414337,-0.010651,-0.204376,-0.0076939999999999995,-0.013172,-0.019927,-43.060001,10.25,-11.0,1b
2019-07-12_122940:900,-0.42807,-0.007599,-0.21911599999999998,-0.011051,-0.01012,-0.017089,-43.060001,10.25,-11.0,1b
2019-07-12_122940:920,-0.423492,-0.0055850000000000006,-0.223694,-0.014255,-0.007220999999999999,-0.0101,-43.060001,10.25,-11.0,1b
2019-07-12_122940:940,-0.461121,-0.0030210000000000002,-0.240479,-0.019565,-0.008533,-0.002684,-44.18,9.18,-11.75,1b
2019-07-12_122940:960,-0.489594,-0.009125,-0.277588,-0.023929,-0.009509,0.0019850000000000002,-44.18,9.18,-11.75,1b
2019-07-12_122940:980,-0.473846,-0.015747,-0.256226,-0.026279000000000004,-0.006397,-0.001067,-43.5,8.37,-11.37,1b
2019-07-12_122941:000,-0.42858900000000005,0.000488,-0.268951,-0.028446,-0.004961999999999999,-0.007262,-43.5,8.37,-11.37,1b
2019-07-12_122941:020,-0.46569799999999995,0.011169,-0.278107,-0.029575,-0.008594,-0.0038740000000000003,-43.5,8.37,-11.37,1b
2019-07-12_122941:040,-0.597382,0.034546,-0.42248500000000005,-0.031376,-0.026447000000000002,0.007112,-44.0,7.68,-11.75,1b
2019-07-12_122941:060,-0.588745,0.031494,-0.331482,-0.031833,-0.017902,0.020326,-44.0,7.68,-11.75,1b
2019-07-12_122941:080,-0.5505979999999999,0.053863999999999995,-0.355377,-0.03754,-0.017016999999999997,0.026185000000000003,-43.560001,6.56,-12.56,1b
2019-07-12_122941:100,-0.452484,0.056915,-0.326904,-0.038363999999999995,-0.002857,0.029756,-43.560001,6.56,-12.56,1b
2019-07-12_122941:120,-0.31012,0.056915,-0.286224,-0.038607999999999996,0.0027890000000000002,0.021852,-43.560001,6.56,-12.56,1b
2019-07-12_122941:140,-0.354858,0.05285599999999999,-0.26181,-0.036075,0.004497999999999999,0.006379,-43.560001,7.25,-12.56,1b
2019-07-12_122941:160,-0.45043900000000003,0.0737,-0.28927600000000003,-0.033573,0.007824,-0.000609,-43.560001,7.25,-12.56,1b
2019-07-12_122941:180,-0.37265,0.078796,-0.275055,-0.028843,0.012341,0.005922,-44.68,8.06,-13.06,1b
2019-07-12_122941:200,-0.322845,0.07421900000000001,-0.23486300000000002,-0.024814,0.007763,0.010957,-44.68,8.06,-13.06,1b
2019-07-12_122941:220,-0.36654699999999996,0.072693,-0.259796,-0.02161,-0.000995,0.010255,-44.68,8.06,-13.06,1b
2019-07-12_122941:240,-0.41586300000000004,0.068634,-0.268951,-0.016788,-0.007465,0.014894,-44.0,7.25,-13.06,1b
2019-07-12_122941:260,-0.42401099999999997,0.06149299999999999,-0.270477,-0.01218,-0.016284,0.021333,-44.0,7.25,-13.06,1b
2019-07-12_122941:280,-0.426544,0.041168,-0.257751,-0.008029999999999999,-0.021594,0.022522999999999998,-44.25,6.56,-11.87,1b
2019-07-12_122941:300,-0.412811,0.034058,-0.254211,-0.004642,-0.022785,0.023897,-44.25,6.56,-11.87,1b
2019-07-12_122941:320,-0.393005,0.01828,-0.242493,-0.000675,-0.02193,0.030670999999999997,-44.25,6.56,-11.87,1b
2019-07-12_122941:340,-0.387909,0.004059,-0.240479,0.002255,-0.021075999999999998,0.035585000000000006,-44.0,7.68,-12.68,1b
2019-07-12_122941:360,-0.373688,-0.008118,-0.23233,0.004025,-0.018817,0.035188,-44.0,7.68,-12.68,1b
2019-07-12_122941:380,-0.380798,-0.015747,-0.22879000000000002,0.005886,-0.017688,0.031495,-43.18,7.68,-14.25,1b
2019-07-12_122941:400,-0.387909,-0.023895,-0.22979699999999997,0.007016,-0.016437,0.025789,-43.18,7.68,-14.25,1b
2019-07-12_122941:420,-0.374176,-0.026427999999999997,-0.223694,0.0072900000000000005,-0.014759,0.020997,-43.18,7.68,-14.25,1b
2019-07-12_122941:440,-0.375214,-0.034546,-0.22979699999999997,0.007351000000000001,-0.014575,0.018463999999999998,-44.0,8.75,-14.68,1b
2019-07-12_122941:460,-0.37316900000000003,-0.039642000000000004,-0.23284899999999997,0.007504,-0.014422999999999998,0.014955000000000001,-44.0,8.75,-14.68,1b
2019-07-12_122941:480,-0.380798,-0.044739,-0.233856,0.008541,-0.014240000000000001,0.008790000000000001,-43.18,9.87,-13.87,1b
2019-07-12_122941:500,-0.40011599999999997,-0.040161,-0.23284899999999997,0.009335,-0.012775,0.002443,-43.18,9.87,-13.87,1b
2019-07-12_122941:520,-0.431122,-0.028442000000000002,-0.233337,0.010464,-0.00893,-0.000487,-43.18,9.87,-13.87,1b
2019-07-12_122941:540,-0.437225,-0.020325,-0.237427,0.011196,-0.004657,-0.00128,-43.560001,10.25,-13.87,1b
2019-07-12_122941:560,-0.451477,-0.010651,-0.24658200000000002,0.011257,-0.003375,-0.001402,-43.560001,10.25,-13.87,1b
2019-07-12_122941:580,-0.467743,-0.009644,-0.237427,0.011134999999999999,-0.0025210000000000002,0.0007030000000000001,-43.18,10.25,-14.25,1b
2019-07-12_122941:600,-0.449432,-0.0025329999999999997,-0.25827,0.010128,-0.004169,0.005647,-43.18,10.25,-14.25,1b
2019-07-12_122941:620,-0.461121,-0.011169,-0.256226,0.010281,-0.005451,0.0058,-43.18,10.25,-14.25,1b
2019-07-12_122941:640,-0.453491,-0.025908999999999998,-0.275543,0.009823,-0.006092,-0.001158,-44.18,9.87,-13.87,1b
2019-07-12_122941:660,-0.576019,-0.040649,-0.275055,0.011746,-0.011371,-0.0075060000000000005,-44.18,9.87,-13.87,1b
2019-07-12_122941:680,-0.56485,-0.038116000000000004,-0.44433599999999995,0.0126,-0.02367,-0.003325,-45.0,10.25,-15.5,1b
2019-07-12_122941:700,-0.519073,-0.065063,-0.291321,0.019375,-0.014575,-0.0036,-45.0,10.25,-15.5,1b
2019-07-12_122941:720,-0.373688,-0.05438200000000001,-0.377747,0.01791,-0.019489,-0.009764,-45.0,10.25,-15.5,1b
2019-07-12_122941:740,-0.29538000000000003,-0.055908000000000006,-0.337067,0.023068,-0.011188,-0.0061329999999999996,-44.18,9.87,-14.25,1b
2019-07-12_122941:760,-0.28112800000000004,-0.058441,-0.315704,0.022213,-0.011371,0.004609,-44.18,9.87,-14.25,1b
2019-07-12_122941:780,-0.42248500000000005,-0.058960000000000005,-0.35131799999999996,0.019955,-0.016101,0.014284,-44.18,9.87,-14.56,1b
2019-07-12_122941:800,-0.398071,-0.073212,-0.378265,0.018124,-0.014513999999999999,0.01819,-44.18,9.87,-14.56,1b
2019-07-12_122941:820,-0.338593,-0.074738,-0.327423,0.016568,-0.014575,0.005861,-44.18,9.87,-14.56,1b
2019-07-12_122941:840,-0.375214,-0.061005,-0.353851,0.011593000000000001,-0.018146000000000002,-0.010375,-44.18,9.87,-15.37,1b
2019-07-12_122941:860,-0.389435,-0.054901,-0.355377,0.008145,-0.016834000000000002,-0.014159,-44.18,9.87,-15.37,1b
2019-07-12_122941:880,-0.390442,-0.053863999999999995,-0.34674099999999997,0.005215,-0.018085,-0.013212999999999999,-43.5,9.87,-15.37,1b
2019-07-12_122941:900,-0.409271,-0.049805,-0.330963,0.0017670000000000001,-0.015827,-0.020444999999999998,-43.5,9.87,-15.37,1b
2019-07-12_122941:920,-0.401642,-0.029968,-0.28875700000000004,-0.00095,-0.006275,-0.028166000000000004,-43.5,9.87,-15.37,1b
2019-07-12_122941:940,-0.384857,-0.023375999999999997,-0.2659,-0.002872,0.004193,-0.029539999999999997,-44.560001,9.56,-16.18,1b
2019-07-12_122941:960,-0.37112399999999995,-0.012695,-0.244019,-0.004459,0.012218999999999999,-0.028807,-44.560001,9.56,-16.18,1b
2019-07-12_122941:980,-0.353333,-0.004059,-0.233337,-0.005375,0.016919,-0.027219999999999998,-45.369999,6.87,-15.0,1b
2019-07-12_122942:000,-0.33605999999999997,0.005065999999999999,-0.22216799999999998,-0.006229,0.015729,-0.023711000000000003,-45.369999,6.87,-15.0,1b
2019-07-12_122942:020,-0.339111,0.010651,-0.220123,-0.00748,0.010754000000000001,-0.018218,-45.369999,6.87,-15.0,1b
2019-07-12_122942:040,-0.338593,0.015228,-0.21402,-0.008823000000000001,0.004651,-0.01248,-46.060001,6.56,-13.75,1b
2019-07-12_122942:060,-0.32486,0.022369,-0.21759,-0.010868000000000001,-0.001666,-0.0075060000000000005,-46.060001,6.56,-13.75,1b
2019-07-12_122942:080,-0.318756,0.024384,-0.22216799999999998,-0.013309,-0.008990999999999999,-0.003722,-46.060001,5.75,-14.18,1b
2019-07-12_122942:100,-0.330963,0.012695,-0.22879000000000002,-0.016452,-0.015766,0.000184,-46.060001,5.75,-14.18,1b
2019-07-12_122942:120,-0.355896,0.008636,-0.233337,-0.019169,-0.018482,0.004915,-46.060001,5.75,-14.18,1b
2019-07-12_122942:140,-0.37265,0.002014,-0.256744,-0.02222,-0.018482,0.011049,-46.060001,5.06,-13.0,1b
2019-07-12_122942:160,-0.432159,-0.004059,-0.270477,-0.025486,-0.017627,0.019075,-46.060001,5.06,-13.0,1b
2019-07-12_122942:180,-0.5134890000000001,-0.024384,-0.33605999999999997,-0.029238999999999998,-0.019214,0.026491000000000004,-45.369999,4.68,-15.37,1b
2019-07-12_122942:200,-0.492645,-0.039124,-0.315216,-0.030032999999999997,-0.011859,0.026918,-45.369999,4.68,-15.37,1b
2019-07-12_122942:220,-0.41995200000000005,-0.038635,-0.285217,-0.030399000000000002,-0.0014529999999999999,0.017091,-45.369999,4.68,-15.37,1b
2019-07-12_122942:240,-0.477905,-0.033539,-0.28674299999999997,-0.02866,0.004376,0.006135,-46.060001,4.68,-15.0,1b
2019-07-12_122942:260,-0.540955,-0.006592,-0.42858900000000005,-0.028537,-0.010272,0.005189,-46.060001,4.68,-15.0,1b
2019-07-12_122942:280,-0.512482,0.0,-0.31723,-0.02454,-0.006885,0.018525,-46.060001,4.37,-16.18,1b
2019-07-12_122942:300,-0.49316400000000005,0.012177,-0.336548,-0.025272,-0.015186000000000002,0.025026,-46.060001,4.37,-16.18,1b
2019-07-12_122942:320,-0.467224,0.031494,-0.348267,-0.024021,-0.014057,0.022462,-46.060001,4.37,-16.18,1b
2019-07-12_122942:340,-0.35180700000000004,0.042694,-0.318268,-0.022007,-0.012653,0.015931,-46.060001,4.06,-15.75,1b
2019-07-12_122942:360,-0.32995599999999997,0.058960000000000005,-0.322845,-0.019291,-0.016345,0.007783,-46.060001,4.06,-15.75,1b
2019-07-12_122942:380,-0.35739099999999996,0.0737,-0.297913,-0.016727000000000002,-0.014025999999999999,0.005922,-47.18,4.75,-16.559998999999998,1b
2019-07-12_122942:400,-0.391968,0.083374,-0.310638,-0.014255,-0.011371,0.012483,-47.18,4.75,-16.559998999999998,1b
2019-07-12_122942:420,-0.386383,0.083374,-0.323853,-0.01218,-0.00954,0.019075,-47.18,4.75,-16.559998999999998,1b
2019-07-12_122942:440,-0.367584,0.083374,-0.306061,-0.010593,-0.009113,0.01822,-47.18,4.75,-17.0,1b
2019-07-12_122942:460,-0.389435,0.079803,-0.317749,-0.010074,-0.01305,0.015535,-47.18,4.75,-17.0,1b
2019-07-12_122942:480,-0.384857,0.072174,-0.323853,-0.008487,-0.01662,0.018587,-46.060001,5.18,-17.370001000000002,1b
2019-07-12_122942:500,-0.358917,0.052338,-0.315704,-0.0067480000000000005,-0.021594,0.023042,-46.060001,5.18,-17.370001000000002,1b
2019-07-12_122942:520,-0.358429,0.041687,-0.311127,-0.005375,-0.024188,0.025636000000000003,-46.060001,5.18,-17.370001000000002,1b
2019-07-12_122942:540,-0.374176,0.030487,-0.30300900000000003,-0.0037270000000000003,-0.023059,0.029633999999999997,-47.560001,6.25,-18.18,1b
2019-07-12_122942:560,-0.37316900000000003,0.021851,-0.290283,-0.001407,-0.017749,0.03354,-47.560001,6.25,-18.18,1b
2019-07-12_122942:580,-0.356903,0.010162000000000001,-0.275543,-0.000156,-0.011371,0.033815,-46.75,6.25,-18.18,1b
2019-07-12_122942:600,-0.355896,0.006592,-0.276062,0.000637,-0.007526000000000001,0.032411,-46.75,6.25,-18.18,1b
2019-07-12_122942:620,-0.34674099999999997,-0.001495,-0.272491,0.001583,-0.005939,0.031282,-46.75,6.25,-18.18,1b
2019-07-12_122942:640,-0.341644,-0.006072999999999999,-0.270477,0.00198,-0.006458,0.029085000000000003,-46.060001,8.5,-19.0,1b
2019-07-12_122942:660,-0.36044299999999996,-0.009644,-0.275055,0.0017670000000000001,-0.008808,0.026826,-46.060001,8.5,-19.0,1b
2019-07-12_122942:680,-0.364532,-0.017273,-0.276062,0.0015220000000000001,-0.009387000000000001,0.024659999999999998,-45.68,10.0,-18.559998999999998,1b
2019-07-12_122942:700,-0.360962,-0.024902,-0.269958,0.002163,-0.00719,0.02054,-45.68,10.0,-18.559998999999998,1b
2019-07-12_122942:720,-0.386383,-0.023895,-0.28674299999999997,0.002255,-0.004901,0.012971000000000002,-45.68,10.0,-18.559998999999998,1b
2019-07-12_122942:740,-0.389435,-0.022369,-0.278595,0.004116,-0.003925,0.007051000000000001,-46.060001,10.68,-18.559998999999998,1b
2019-07-12_122942:760,-0.40570100000000003,-0.021332,-0.280121,0.007504,-0.00365,0.003023,-46.060001,10.68,-18.559998999999998,1b
2019-07-12_122942:780,-0.41943400000000003,-0.008636,-0.285217,0.009487,-0.000598,-0.00186,-46.060001,11.06,-18.559998999999998,1b
2019-07-12_122942:800,-0.425018,0.014740000000000001,-0.311646,0.009396,0.00047000000000000004,-0.002867,-46.060001,11.06,-18.559998999999998,1b
2019-07-12_122942:820,-0.42758199999999996,0.006072999999999999,-0.28979499999999997,0.004757,0.000714,0.003358,-46.060001,11.06,-18.559998999999998,1b
2019-07-12_122942:840,-0.42605600000000005,-0.004059,-0.28674299999999997,0.0068319999999999995,0.000866,0.013643,-46.75,10.68,-18.559998999999998,1b
2019-07-12_122942:860,-0.384857,-0.006072999999999999,-0.29180900000000004,0.008206,0.005658,0.020326,-46.75,10.68,-18.559998999999998,1b
2019-07-12_122942:880,-0.36706500000000003,-0.022858,-0.273529,0.004971,0.007245000000000001,0.014497,-47.560001,10.68,-19.370001000000002,1b
2019-07-12_122942:900,-0.44281000000000004,-0.020844,-0.336548,0.001126,-0.008197,0.007997,-47.560001,10.68,-19.370001000000002,1b
2019-07-12_122942:920,-0.444855,-0.063019,-0.354858,0.003353,-0.014178999999999999,0.016541999999999998,-47.560001,10.68,-19.370001000000002,1b
2019-07-12_122942:940,-0.47995,-0.071167,-0.361969,0.006619,-0.011066,0.019594,-45.68,11.06,-17.68,1b
2019-07-12_122942:960,-0.477386,-0.081329,-0.381317,0.001065,-0.009052,0.017274,-45.68,11.06,-17.68,1b
2019-07-12_122942:980,-0.448425,-0.09201000000000001,-0.387909,0.003048,-0.004444,0.019258,-47.18,11.75,-16.870001000000002,1b
2019-07-12_122943:000,-0.399109,-0.095062,-0.36654699999999996,0.004177,-0.004321,0.020723,-47.18,11.75,-16.870001000000002,1b
2019-07-12_122943:020,-0.36654699999999996,-0.09963999999999999,-0.361481,0.00372,-0.005695,0.013826,-47.18,11.75,-16.870001000000002,1b
2019-07-12_122943:040,-0.355377,-0.09353600000000001,-0.35638400000000003,0.002896,-0.000781,0.004609,-47.560001,12.56,-17.68,1b
2019-07-12_122943:060,-0.350281,-0.077271,-0.323334,-0.0004,0.005383,3.2e-05,-47.560001,12.56,-17.68,1b
2019-07-12_122943:080,-0.386902,-0.06405599999999999,-0.318756,-0.004886,0.007886,0.0005809999999999999,-46.25,12.87,-16.5,1b
2019-07-12_122943:100,-0.361969,-0.08081100000000001,-0.308075,-0.010348999999999999,0.008556999999999999,-0.002288,-46.25,12.87,-16.5,1b
2019-07-12_122943:120,-0.380798,-0.067108,-0.310638,-0.013522999999999999,0.008556999999999999,-0.008634999999999999,-46.25,12.87,-16.5,1b
2019-07-12_122943:140,-0.37674,-0.068634,-0.300476,-0.013919999999999998,0.01048,-0.010709999999999999,-47.060001,13.18,-16.870001000000002,1b
2019-07-12_122943:160,-0.374176,-0.069122,-0.29895,-0.012943000000000001,0.008221,-0.008452,-47.060001,13.18,-16.870001000000002,1b
2019-07-12_122943:180,-0.360962,-0.046265,-0.29995700000000003,-0.011814,0.004315,-0.000762,-46.369999,12.5,-16.059998999999998,1b
2019-07-12_122943:200,-0.36554000000000003,-0.020844,-0.305542,-0.012394,0.002118,0.006929,-46.369999,12.5,-16.059998999999998,1b
2019-07-12_122943:220,-0.33197,-0.035583,-0.28369099999999997,-0.016391,0.0009279999999999999,0.01349,-46.369999,12.5,-16.059998999999998,1b
2019-07-12_122943:240,-0.34368899999999997,-0.039124,-0.261322,-0.026279000000000004,-0.0021850000000000003,0.005342,-47.060001,11.37,-14.87,1b
2019-07-12_122943:260,-0.374695,-0.055908000000000006,-0.25317399999999995,-0.031101,-0.0038640000000000002,0.001527,-47.060001,11.37,-14.87,1b
2019-07-12_122943:280,-0.394531,-0.048279,-0.257233,-0.027805,-0.0012699999999999999,0.012575,-47.060001,12.18,-15.68,1b
2019-07-12_122943:300,-0.382324,-0.049316000000000006,-0.251648,-0.022616999999999998,0.004529,0.021791,-47.060001,12.18,-15.68,1b
2019-07-12_122943:320,-0.373688,-0.046265,-0.256226,-0.022616999999999998,0.006116,0.019075,-47.060001,12.18,-15.68,1b
2019-07-12_122943:340,-0.37011700000000003,-0.048279,-0.264862,-0.026188,0.004712,0.009645,-47.5,11.75,-14.5,1b
2019-07-12_122943:360,-0.386383,-0.034058,-0.274017,-0.028506999999999998,0.0023309999999999997,0.005647,-47.5,11.75,-14.5,1b
2019-07-12_122943:380,-0.378265,-0.036072,-0.27301,-0.030857,0.002392,0.008577,-46.68,11.75,-15.68,1b
2019-07-12_122943:400,-0.384338,-0.032532,-0.266388,-0.031986,0.003003,0.014740999999999999,-46.68,11.75,-15.68,1b
2019-07-12_122943:420,-0.390961,-0.047272,-0.252686,-0.032444,0.00285,0.020112,-46.68,11.75,-15.68,1b
2019-07-12_122943:440,-0.397064,-0.047791,-0.262329,-0.033908999999999995,0.002606,0.021242,-47.75,12.18,-15.68,1b
2019-07-12_122943:460,-0.426544,-0.051849,-0.259277,-0.034641000000000005,0.0045899999999999995,0.02231,-47.75,12.18,-15.68,1b
2019-07-12_122943:480,-0.426544,-0.050842,-0.263855,-0.035038,0.0053219999999999995,0.027223,-47.5,12.5,-14.5,1b
2019-07-12_122943:500,-0.396545,-0.063019,-0.285217,-0.034244,0.003399,0.034791,-47.5,12.5,-14.5,1b
2019-07-12_122943:520,-0.396545,-0.052338,-0.279114,-0.033756,0.003247,0.028962,-47.5,12.5,-14.5,1b
2019-07-12_122943:540,-0.41232299999999994,-0.043701,-0.29232800000000003,-0.038547000000000005,-0.0014529999999999999,0.018068,-47.5,13.18,-14.5,1b
2019-07-12_122943:560,-0.41485600000000006,-0.046752999999999996,-0.300964,-0.03873,-0.000995,0.017152,-47.5,13.18,-14.5,1b
2019-07-12_122943:580,-0.432159,-0.044219999999999995,-0.302002,-0.037754,0.002179,0.017457,-47.5,13.56,-14.87,1b
2019-07-12_122943:600,-0.5185850000000001,-0.017273,-0.33197,-0.039675999999999996,-0.001209,0.015565,-47.5,13.56,-14.87,1b
2019-07-12_122943:620,-0.518066,-0.031006,-0.341125,-0.040531,-0.0055119999999999995,0.024721,-47.5,13.56,-14.87,1b
2019-07-12_122943:640,-0.49517799999999995,-0.031006,-0.325378,-0.034641000000000005,-0.0023989999999999997,0.043427999999999994,-46.25,13.56,-15.25,1b
2019-07-12_122943:660,-0.47332799999999997,-0.005065999999999999,-0.338593,-0.034183,-0.003711,0.049318,-46.25,13.56,-15.25,1b
2019-07-12_122943:680,-0.426544,0.007111,-0.322845,-0.036808,1.2e-05,0.050263999999999996,-46.68,13.56,-14.87,1b
2019-07-12_122943:700,-0.41384899999999997,0.014740000000000001,-0.318756,-0.040348,0.006177,0.049989,-46.68,13.56,-14.87,1b
2019-07-12_122943:720,-0.34674099999999997,0.019318000000000002,-0.310638,-0.045902,0.017315,0.040895,-46.68,13.56,-14.87,1b
2019-07-12_122943:740,-0.377747,0.040649,-0.286224,-0.05380599999999999,0.022778,0.03415,-45.560001,15.87,-14.06,1b
2019-07-12_122943:760,-0.406738,0.05438200000000001,-0.282166,-0.06085599999999999,0.020641999999999997,0.043825,-45.560001,15.87,-14.06,1b
2019-07-12_122943:780,-0.391968,0.024384,-0.278107,-0.063511,0.019574,0.062196,-45.369999,17.0,-14.5,1b
2019-07-12_122943:800,-0.391968,-0.0030210000000000002,-0.276062,-0.06454800000000001,0.016919,0.06891,-45.369999,17.0,-14.5,1b
2019-07-12_122943:820,-0.396057,-0.009644,-0.281647,-0.067691,0.010570999999999999,0.070314,-45.369999,17.0,-14.5,1b
2019-07-12_122943:840,-0.415375,-0.0055850000000000006,-0.305054,-0.068332,0.0060539999999999995,0.075807,-45.0,18.059998999999998,-13.68,1b
2019-07-12_122943:860,-0.404694,-0.021851,-0.315704,-0.07053,0.008556999999999999,0.079927,-45.0,18.059998999999998,-13.68,1b
2019-07-12_122943:880,-0.382324,-0.044739,-0.305542,-0.073581,0.01402,0.07715,-43.869999,19.75,-15.25,1b
2019-07-12_122943:900,-0.37674,-0.044219999999999995,-0.290802,-0.076389,0.017193,0.06460700000000001,-43.869999,19.75,-15.25,1b
2019-07-12_122943:920,-0.336548,-0.029480000000000003,-0.266907,-0.080112,0.019847999999999998,0.047944,-43.869999,19.75,-15.25,1b
2019-07-12_122943:940,-0.402161,-0.024384,-0.264374,-0.079624,0.019909,0.038118,-42.0,22.18,-15.68,1b
2019-07-12_122943:960,-0.41995200000000005,-0.041168,-0.259796,-0.078556,0.022046,0.045747,-42.0,22.18,-15.68,1b
2019-07-12_122943:980,-0.329437,-0.036072,-0.213531,-0.074039,0.025433,0.049408999999999995,-42.0,22.870001000000002,-15.68,1b
2019-07-12_122944:000,-0.397583,-0.035583,-0.237427,-0.068363,0.019909,0.050722,-42.0,22.870001000000002,-15.68,1b
2019-07-12_122944:020,-0.392487,-0.047272,-0.23590100000000003,-0.062565,0.019847999999999998,0.052461,-42.0,22.870001000000002,-15.68,1b
2019-07-12_122944:040,-0.389435,-0.036591000000000005,-0.234375,-0.056858000000000006,0.02229,0.049745,-41.18,24.370001000000002,-14.87,1b
2019-07-12_122944:060,-0.395538,-0.045226999999999996,-0.227264,-0.056186,0.022626,0.04004,-41.18,24.370001000000002,-14.87,1b
2019-07-12_122944:080,-0.41943400000000003,-0.040649,-0.242493,-0.053530999999999995,0.01878,0.029817000000000003,-40.060001,25.059998999999998,-15.68,1b
2019-07-12_122944:100,-0.41384899999999997,-0.027954000000000003,-0.22979699999999997,-0.049777999999999996,0.020245,0.022249,-40.060001,25.059998999999998,-15.68,1b
2019-07-12_122944:120,-0.44995100000000005,-0.013702,-0.223694,-0.044376,0.021649,0.020997,-40.060001,25.059998999999998,-15.68,1b
2019-07-12_122944:140,-0.46316499999999994,-0.008636,-0.236389,-0.042453,0.024212,0.023378,-39.68,24.68,-15.56,1b
2019-07-12_122944:160,-0.465179,-0.010162000000000001,-0.21402,-0.041416,0.027814,0.023591,-39.68,24.68,-15.56,1b
2019-07-12_122944:180,-0.46417200000000003,0.0025329999999999997,-0.208954,-0.039889999999999995,0.028943,0.020051,-39.75,25.75,-15.56,1b
2019-07-12_122944:200,-0.446899,0.001495,-0.205902,-0.040348,0.029156,0.019929,-39.75,25.75,-15.56,1b
2019-07-12_122944:220,-0.433655,-0.006592,-0.19927999999999998,-0.040012,0.030316000000000003,0.020447999999999997,-39.75,25.75,-15.56,1b
2019-07-12_122944:240,-0.42605600000000005,-0.025421,-0.208954,-0.039798,0.028088,0.017884999999999998,-40.18,25.75,-14.75,1b
2019-07-12_122944:260,-0.463654,-0.040161,-0.201324,-0.037754,0.021832,0.010621,-40.18,25.75,-14.75,1b
2019-07-12_122944:280,-0.552124,-0.047791,-0.23690799999999998,-0.036686,0.012218999999999999,0.009492,-40.560001,25.75,-14.37,1b
2019-07-12_122944:300,-0.460114,-0.066589,-0.25317399999999995,-0.034092000000000004,0.007245000000000001,0.011506,-40.560001,25.75,-14.37,1b
2019-07-12_122944:320,-0.514496,-0.058960000000000005,-0.234375,-0.031711,-0.001575,0.012086,-40.560001,25.75,-14.37,1b
2019-07-12_122944:340,-0.433167,-0.070648,-0.255707,-0.033024,-0.00426,0.014436000000000001,-41.0,25.059998999999998,-14.37,1b
2019-07-12_122944:360,-0.445374,-0.06149299999999999,-0.24453699999999998,-0.031314999999999996,-0.005634,0.013550999999999999,-41.0,25.059998999999998,-14.37,1b
2019-07-12_122944:380,-0.40570100000000003,-0.055908000000000006,-0.24758899999999998,-0.034946,-0.003192,0.008851000000000001,-39.75,25.0,-15.18,1b
2019-07-12_122944:400,-0.377228,-0.039124,-0.21048000000000003,-0.037479000000000005,0.003918,0.002565,-39.75,25.0,-15.18,1b
2019-07-12_122944:420,-0.42248500000000005,-0.025421,-0.193695,-0.043644,0.0062380000000000005,0.0005809999999999999,-39.75,25.0,-15.18,1b
2019-07-12_122944:440,-0.385376,-0.021332,-0.257233,-0.049381,-0.001666,0.006257,-39.5,24.68,-16.370001000000002,1b
2019-07-12_122944:460,-0.386383,-0.024384,-0.259796,-0.052951,-0.009998,0.01288,-39.5,24.68,-16.370001000000002,1b
2019-07-12_122944:480,-0.41842700000000005,-0.012177,-0.233856,-0.062778,-0.015552000000000002,0.016298,-39.18,24.68,-16.75,1b
2019-07-12_122944:500,-0.43927,0.002014,-0.245056,-0.073917,-0.017566,0.0253,-39.18,24.68,-16.75,1b
2019-07-12_122944:520,-0.429108,0.014221000000000001,-0.2659,-0.083957,-0.01781,0.036256000000000004,-39.18,24.68,-16.75,1b
2019-07-12_122944:540,-0.42453,0.016266,-0.262329,-0.095493,-0.016101,0.037263,-39.18,24.25,-18.370001000000002,1b
2019-07-12_122944:560,-0.423492,0.024902,-0.265381,-0.107242,-0.012714,0.032289,-39.18,24.25,-18.370001000000002,1b
2019-07-12_122944:580,-0.42401099999999997,0.031006,-0.266907,-0.116123,-0.008472,0.03293,-37.25,24.25,-19.870001000000002,1b
2019-07-12_122944:600,-0.426544,0.030487,-0.264862,-0.123172,-0.005115,0.038637,-37.25,24.25,-19.870001000000002,1b
2019-07-12_122944:620,-0.426544,0.027435,-0.268951,-0.129276,-0.002582,0.044739999999999995,-37.25,24.25,-19.870001000000002,1b
2019-07-12_122944:640,-0.439758,0.029968,-0.266388,-0.134006,0.000317,0.050203,-36.869999,22.75,-22.68,1b
2019-07-12_122944:660,-0.43823199999999995,0.029968,-0.2659,-0.137851,0.0023309999999999997,0.055848,-36.869999,22.75,-22.68,1b
2019-07-12_122944:680,-0.421967,0.031006,-0.261322,-0.141178,0.0024530000000000003,0.060274,-36.18,22.059998999999998,-24.25,1b
2019-07-12_122944:700,-0.41232299999999994,0.028961,-0.258759,-0.144413,0.000653,0.062471000000000006,-36.18,22.059998999999998,-24.25,1b
2019-07-12_122944:720,-0.43011499999999997,0.01828,-0.25317399999999995,-0.146122,-0.001911,0.061464,-36.18,22.059998999999998,-24.25,1b
2019-07-12_122944:740,-0.449432,0.013213999999999998,-0.24758899999999998,-0.146549,-0.0030399999999999997,0.058228999999999996,-35.369999,19.75,-25.870001000000002,1b
2019-07-12_122944:760,-0.458588,0.001495,-0.22421300000000002,-0.14532799999999998,-4.9e-05,0.054567,-35.369999,19.75,-25.870001000000002,1b
2019-07-12_122944:780,-0.45553599999999994,-0.006072999999999999,-0.20843499999999998,-0.142154,0.0045899999999999995,0.050325,-33.5,18.25,-29.370001000000002,1b
2019-07-12_122944:800,-0.449432,-0.01828,-0.206909,-0.13779,0.006573000000000001,0.047792,-33.5,18.25,-29.370001000000002,1b
2019-07-12_122944:820,-0.43621800000000005,-0.021332,-0.203369,-0.13159500000000002,0.007092,0.047731,-33.5,18.25,-29.370001000000002,1b
2019-07-12_122944:840,-0.43823199999999995,-0.028961,-0.190643,-0.12378299999999999,0.006634,0.043947,-33.18,15.68,-31.5,1b
2019-07-12_122944:860,-0.421967,-0.026917,-0.19927999999999998,-0.11774000000000001,0.003857,0.035676,-33.18,15.68,-31.5,1b
2019-07-12_122944:880,-0.408752,-0.019806,-0.190125,-0.11084300000000001,0.001324,0.032289,-33.18,13.06,-31.75,1b
2019-07-12_122944:900,-0.41586300000000004,-0.015747,-0.197266,-0.10477,-0.003314,0.034395,-33.18,13.06,-31.75,1b
2019-07-12_122944:920,-0.431641,-0.015228,-0.220642,-0.099949,-0.008258,0.036256000000000004,-33.18,13.06,-31.75,1b
2019-07-12_122944:940,-0.429596,-0.004547,-0.22116100000000002,-0.09640900000000001,-0.011768,0.035676,-32.369999,11.18,-33.869999,1b
2019-07-12_122944:960,-0.447388,0.018799,-0.22216799999999998,-0.09503500000000001,-0.014118,0.035646,-32.369999,11.18,-33.869999,1b
2019-07-12_122944:980,-0.770233,0.041168,-0.251648,-0.09576799999999999,-0.01662,0.039307999999999996,-31.68,9.06,-34.869999,1b
2019-07-12_122945:000,-0.490601,0.063019,-0.346222,-0.100223,-0.022144,0.049531,-31.68,9.06,-34.869999,1b
2019-07-12_122945:020,-0.517548,0.05285599999999999,-0.201324,-0.095493,-0.007678,0.055513,-31.68,9.06,-34.869999,1b
2019-07-12_122945:040,-0.40368699999999996,0.07421900000000001,-0.264374,-0.10001,-0.006548999999999999,0.048555,-31.25,7.18,-34.869999,1b
2019-07-12_122945:060,-0.341644,0.09454299999999999,-0.257233,-0.09564600000000001,0.000348,0.035858999999999995,-31.25,7.18,-34.869999,1b
2019-07-12_122945:080,-0.40774499999999997,0.12200899999999999,-0.239441,-0.09231900000000001,-0.001056,0.026246,-31.68,4.25,-35.68,1b
2019-07-12_122945:100,-0.48553500000000005,0.127594,-0.310638,-0.09177,-0.011371,0.021852,-31.68,4.25,-35.68,1b
2019-07-12_122945:120,-0.45401,0.130127,-0.274017,-0.08566599999999999,-0.01485,0.024263,-31.68,4.25,-35.68,1b
2019-07-12_122945:140,-0.41333000000000003,0.12149000000000001,-0.270477,-0.079502,-0.021594,0.024507,-31.0,3.06,-35.68,1b
2019-07-12_122945:160,-0.432159,0.12454200000000001,-0.272491,-0.072391,-0.024463,0.022798,-31.0,3.06,-35.68,1b
2019-07-12_122945:180,-0.43011499999999997,0.134216,-0.281647,-0.06583,-0.026720999999999998,0.030885000000000003,-30.559998999999998,0.06,-35.68,1b
2019-07-12_122945:200,-0.426544,0.11795,-0.257751,-0.05878,-0.025256999999999998,0.046998000000000005,-30.559998999999998,0.06,-35.68,1b
2019-07-12_122945:220,-0.392487,0.087952,-0.23791500000000002,-0.053562,-0.020496,0.057222,-30.559998999999998,0.06,-35.68,1b
2019-07-12_122945:240,-0.385376,0.07928500000000001,-0.22879000000000002,-0.049686,-0.014057,0.057557000000000004,-29.75,-1.06,-36.18,1b
2019-07-12_122945:260,-0.35180700000000004,0.056427,-0.20944200000000002,-0.044650999999999996,-0.009998,0.053101999999999996,-29.75,-1.06,-36.18,1b
2019-07-12_122945:280,-0.344696,0.049805,-0.206909,-0.041201999999999996,-0.00954,0.047151,-29.75,-1.75,-38.18,1b
2019-07-12_122945:300,-0.34063699999999997,0.055389,-0.209961,-0.038607999999999996,-0.011859,0.042634,-29.75,-1.75,-38.18,1b
2019-07-12_122945:320,-0.363007,0.06149299999999999,-0.21148699999999998,-0.036808,-0.013721,0.041352999999999994,-29.75,-1.75,-38.18,1b
2019-07-12_122945:340,-0.399109,0.056915,-0.217072,-0.035709,-0.013507,0.041505,-29.5,-1.68,-38.560001,1b
2019-07-12_122945:360,-0.409271,0.050842,-0.21505700000000003,-0.034488,-0.010578,0.039705000000000004,-29.5,-1.68,-38.560001,1b
2019-07-12_122945:380,-0.405212,0.044739,-0.21554600000000002,-0.032901,-0.005634,0.036134,-28.68,-1.68,-37.0,1b
2019-07-12_122945:400,-0.397583,0.039124,-0.21453899999999998,-0.030063,0.000195,0.033143,-28.68,-1.68,-37.0,1b
2019-07-12_122945:420,-0.43621800000000005,0.034058,-0.21453899999999998,-0.026066000000000002,0.0060539999999999995,0.030670999999999997,-28.68,-1.68,-37.0,1b
2019-07-12_122945:440,-0.402649,0.033539,-0.22521999999999998,-0.022037,0.009839,0.028169,-29.059998999999998,-2.06,-37.369999,1b
2019-07-12_122945:460,-0.425537,0.032013,-0.20538299999999998,-0.015567,0.012463,0.023530000000000002,-29.059998999999998,-2.06,-37.369999,1b
2019-07-12_122945:480,-0.46823100000000006,0.03302,-0.230804,-0.010593,0.009411,0.01642,-29.5,-2.06,-37.0,1b
2019-07-12_122945:500,-0.537384,0.044739,-0.23690799999999998,-0.0051,0.007824,0.013276,-29.5,-2.06,-37.0,1b
2019-07-12_122945:520,-0.528748,0.050842,-0.220642,-0.001072,0.013591999999999998,0.018068,-29.5,-2.06,-37.0,1b
2019-07-12_122945:540,-0.48349,0.032013,-0.201843,0.0014609999999999998,0.020825,0.023195,-29.5,-1.37,-37.369999,1b
2019-07-12_122945:560,-0.6161800000000001,0.010651,-0.216583,0.004299,0.018933000000000002,0.021455000000000002,-29.5,-1.37,-37.369999,1b
2019-07-12_122945:580,-0.558746,-0.011169,-0.318268,0.006893000000000001,0.005566,0.019655000000000002,-31.0,-1.68,-36.18,1b
2019-07-12_122945:600,-0.601959,-0.026917,-0.220123,0.014859,0.006756,0.022706,-31.0,-1.68,-36.18,1b
2019-07-12_122945:620,-0.575012,-0.039642000000000004,-0.265381,0.015774,0.00108,0.022645,-31.0,-1.68,-36.18,1b
2019-07-12_122945:640,-0.508423,-0.049316000000000006,-0.24963400000000002,0.016232,0.009015,0.024263,-32.060001,-1.0,-35.369999,1b
2019-07-12_122945:660,-0.381317,-0.056915,-0.20944200000000002,0.013913,0.018658,0.031282,-32.060001,-1.0,-35.369999,1b
2019-07-12_122945:680,-0.327423,-0.077271,-0.20080599999999998,0.007626000000000001,0.023968,0.038728,-33.18,0.06,-35.0,1b
2019-07-12_122945:700,-0.402649,-0.100159,-0.193695,0.0033840000000000003,0.022563999999999997,0.037111,-33.18,0.06,-35.0,1b
2019-07-12_122945:720,-0.431122,-0.11080899999999999,-0.223175,-0.00046100000000000004,0.014599,0.021119,-33.18,0.06,-35.0,1b
2019-07-12_122945:740,-0.396545,-0.10775799999999999,-0.191162,-0.00214,0.007886,-0.0017989999999999998,-32.369999,2.0,-34.560001,1b
2019-07-12_122945:760,-0.416382,-0.089478,-0.166748,-0.003116,0.002179,-0.018798,-32.369999,2.0,-34.560001,1b
2019-07-12_122945:780,-0.44638100000000003,-0.07421900000000001,-0.183533,-0.005619,-0.002307,-0.020934,-33.869999,2.75,-34.18,1b
2019-07-12_122945:800,-0.434692,-0.075745,-0.18096900000000002,-0.0061070000000000004,-0.004596,-0.013762,-33.869999,2.75,-34.18,1b
2019-07-12_122945:820,-0.411285,-0.08081100000000001,-0.172852,-0.006412,-0.008411,-0.009856,-33.869999,2.75,-34.18,1b
2019-07-12_122945:840,-0.411285,-0.077271,-0.175903,-0.00629,-0.011706999999999999,-0.013822999999999998,-32.75,1.56,-33.869999,1b
2019-07-12_122945:860,-0.411804,-0.06405599999999999,-0.177429,-0.005344,-0.013324,-0.02014,-32.75,1.56,-33.869999,1b
2019-07-12_122945:880,-0.414337,-0.058441,-0.17538499999999999,-0.003208,-0.012988,-0.025297999999999998,-33.869999,1.25,-33.369999,1b
2019-07-12_122945:900,-0.43011499999999997,-0.034058,-0.161163,-0.0022010000000000003,-0.011249,-0.028745999999999997,-33.869999,1.25,-33.369999,1b
2019-07-12_122945:920,-0.437225,-0.022369,-0.158112,-0.000736,-0.007984,-0.029814,-33.869999,1.25,-33.369999,1b
2019-07-12_122945:940,-0.43774399999999997,-0.009125,-0.153015,0.000302,-0.004321,-0.028838,-33.5,1.25,-34.18,1b
2019-07-12_122945:960,-0.431122,0.006072999999999999,-0.149963,-6.500000000000001e-05,-0.002246,-0.025907999999999997,-33.5,1.25,-34.18,1b
2019-07-12_122945:980,-0.42758199999999996,0.012695,-0.153534,-0.001194,-0.001941,-0.019347,-33.5,-0.18,-33.369999,1b
2019-07-12_122946:000,-0.41943400000000003,0.014740000000000001,-0.15506,-0.0016820000000000001,-0.002124,-0.011168,-33.5,-0.18,-33.369999,1b
2019-07-12_122946:020,-0.415375,0.010651,-0.151489,-0.0033909999999999995,-0.001117,-0.006712999999999999,-33.5,-0.18,-33.369999,1b
2019-07-12_122946:040,-0.423004,0.010162000000000001,-0.153015,-0.005619,-0.000537,-0.006712999999999999,-33.18,-0.56,-33.0,1b
2019-07-12_122946:060,-0.458588,0.010651,-0.154022,-0.008029999999999999,-0.0009339999999999999,-0.006652,-33.18,-0.56,-33.0,1b
2019-07-12_122946:080,-0.47280900000000003,0.009644,-0.163177,-0.010471,-0.002124,-0.005522,-33.869999,-0.18,-34.18,1b
2019-07-12_122946:100,-0.507904,0.015747,-0.146912,-0.014041999999999999,-0.002124,-0.004393,-33.869999,-0.18,-34.18,1b
2019-07-12_122946:120,-0.515533,0.018799,-0.1586,-0.017643,-0.002002,-0.0038740000000000003,-33.869999,-0.18,-34.18,1b
2019-07-12_122946:140,-0.48858599999999996,0.022369,-0.160645,-0.020755000000000003,-0.001178,-0.005004,-33.5,-2.06,-34.18,1b
2019-07-12_122946:160,-0.498749,0.026427999999999997,-0.165222,-0.023624000000000003,-0.002002,-0.00659,-33.5,-2.06,-34.18,1b
2019-07-12_122946:180,-0.516541,0.027435,-0.175903,-0.026218,-0.002979,-0.00421,-33.5,-2.06,-33.369999,1b
2019-07-12_122946:200,-0.626373,0.030487,-0.185547,-0.027195,-0.00719,0.000795,-33.5,-2.06,-33.369999,1b
2019-07-12_122946:220,-0.634003,0.034058,-0.22521999999999998,-0.028263,-0.015308,0.003358,-33.5,-2.06,-33.369999,1b
2019-07-12_122946:240,-0.6426390000000001,0.030487,-0.201324,-0.026981,-0.012714,0.005739,-33.5,-2.75,-33.0,1b
2019-07-12_122946:260,-0.484497,0.028442000000000002,-0.20080599999999998,-0.028843,-0.008716,0.007112,-33.5,-2.75,-33.0,1b
2019-07-12_122946:280,-0.425537,0.026427999999999997,-0.21554600000000002,-0.027530000000000002,-0.009113,0.005067,-33.5,-4.25,-33.0,1b
2019-07-12_122946:300,-0.29742399999999997,0.026427999999999997,-0.224701,-0.02454,-0.014697,0.000917,-33.5,-4.25,-33.0,1b
2019-07-12_122946:320,-0.319794,0.029480000000000003,-0.227264,-0.018894,-0.021411000000000003,-0.0068650000000000004,-33.5,-4.25,-33.0,1b
2019-07-12_122946:340,-0.500793,0.055389,-0.233856,-0.015995,-0.023273,-0.01248,-34.25,-5.0,-32.560001,1b
2019-07-12_122946:360,-0.48706099999999997,0.072174,-0.25827,-0.014438,-0.02254,-0.005339,-34.25,-5.0,-32.560001,1b
2019-07-12_122946:380,-0.433655,0.078796,-0.217072,-0.010196,-0.020679,0.007844,-32.75,-5.37,-34.18,1b
2019-07-12_122946:400,-0.461121,0.067108,-0.22879000000000002,-0.008732,-0.018938999999999998,0.008912,-32.75,-5.37,-34.18,1b
2019-07-12_122946:420,-0.434174,0.071167,-0.23791500000000002,-0.0076939999999999995,-0.014819999999999998,0.002565,-32.75,-5.37,-34.18,1b
2019-07-12_122946:440,-0.420441,0.076263,-0.23690799999999998,-0.0069,-0.016101,0.007112,-32.369999,-6.18,-34.18,1b
2019-07-12_122946:460,-0.425018,0.055908000000000006,-0.223694,-0.005771,-0.016895,0.016939,-32.369999,-6.18,-34.18,1b
2019-07-12_122946:480,-0.432159,0.050323,-0.21759,-0.006412,-0.013628999999999999,0.016359000000000002,-32.060001,-6.87,-33.869999,1b
2019-07-12_122946:500,-0.40063499999999996,0.046752999999999996,-0.19165,-0.008884,-0.008319,0.012147,-32.060001,-6.87,-33.869999,1b
2019-07-12_122946:520,-0.40063499999999996,0.045745999999999995,-0.183014,-0.009464,-0.00307,0.014284,-32.060001,-6.87,-33.869999,1b
2019-07-12_122946:540,-0.40976,0.038116000000000004,-0.17944300000000002,-0.010593,0.000714,0.016939,-31.25,-5.37,-33.869999,1b
2019-07-12_122946:560,-0.41232299999999994,0.034546,-0.17843599999999998,-0.011326000000000001,0.002606,0.012575,-31.25,-5.37,-33.869999,1b
2019-07-12_122946:580,-0.41943400000000003,0.039642000000000004,-0.170319,-0.0116,0.002911,0.00757,-32.75,-6.5,-33.369999,1b
2019-07-12_122946:600,-0.433655,0.043213,-0.166748,-0.010196,0.003186,0.006532,-32.75,-6.5,-33.369999,1b
2019-07-12_122946:620,-0.416901,0.041168,-0.167755,-0.008395999999999999,0.003247,0.005861,-32.75,-6.5,-33.369999,1b
2019-07-12_122946:640,-0.401642,0.041168,-0.165222,-0.005832,0.00227,0.003908,-31.68,-5.75,-35.0,1b
2019-07-12_122946:660,-0.384857,0.048279,-0.166229,-0.002994,0.001263,0.003633,-31.68,-5.75,-35.0,1b
2019-07-12_122946:680,-0.423004,0.057434000000000006,-0.160126,-0.001529,0.001263,0.004213000000000001,-32.75,-6.18,-34.560001,1b
2019-07-12_122946:700,-0.42147799999999996,0.067108,-0.186584,0.0018579999999999998,-0.000659,0.005006,-32.75,-6.18,-34.560001,1b
2019-07-12_122946:720,-0.486023,0.07016,-0.170319,0.004574,-0.005298,0.005525,-32.75,-6.18,-34.560001,1b
2019-07-12_122946:740,-0.510437,0.082855,-0.220123,0.0042380000000000004,-0.008136,0.006868000000000001,-32.369999,-5.75,-34.560001,1b
2019-07-12_122946:760,-0.5109560000000001,0.086914,-0.187073,0.004849,-0.0038640000000000002,0.020723,-32.369999,-5.75,-34.560001,1b
2019-07-12_122946:780,-0.48349,0.07421900000000001,-0.196747,0.0032920000000000002,-0.002124,0.025636000000000003,-32.369999,-5.75,-33.369999,1b
2019-07-12_122946:800,-0.5211180000000001,0.055908000000000006,-0.204376,-0.00159,0.000256,0.029542000000000002,-32.369999,-5.75,-33.369999,1b
2019-07-12_122946:820,-0.6238100000000001,0.029968,-0.272003,-0.003544,-0.009845,0.027894,-32.369999,-5.75,-33.369999,1b
2019-07-12_122946:840,-0.584167,0.021332,-0.262848,-0.0037270000000000003,-0.011188,0.027039999999999998,-33.18,-5.0,-34.68,1b
2019-07-12_122946:860,-0.588745,0.001495,-0.233337,-0.003147,-0.00893,0.021333,-33.18,-5.0,-34.68,1b
2019-07-12_122946:880,-0.566864,-0.028442000000000002,-0.242004,-0.005222,-0.005878,0.021455000000000002,-32.369999,-4.68,-34.18,1b
2019-07-12_122946:900,-0.423492,-0.063019,-0.21048000000000003,-0.005222,0.009503,0.033815,-32.369999,-4.68,-34.18,1b
2019-07-12_122946:920,-0.364532,-0.096069,-0.187592,-0.005954,0.014416,0.041901999999999995,-32.369999,-4.68,-34.18,1b
2019-07-12_122946:940,-0.441284,-0.13623,-0.193695,-0.004184,0.013988999999999998,0.040651,-34.25,-4.25,-33.369999,1b
2019-07-12_122946:960,-0.47689799999999993,-0.146423,-0.233337,0.004361,0.005902,0.010255,-34.25,-4.25,-33.369999,1b
2019-07-12_122946:980,-0.43823199999999995,-0.130127,-0.193695,0.007687,0.004437,-0.003478,-33.869999,-2.75,-32.560001,1b
2019-07-12_122947:000,-0.44638100000000003,-0.097107,-0.168793,0.016568,0.00108,-0.026824,-33.869999,-2.75,-32.560001,1b
2019-07-12_122947:020,-0.46316499999999994,-0.066071,-0.186584,0.018917,7.3e-05,-0.025359,-33.869999,-2.75,-32.560001,1b
2019-07-12_122947:040,-0.449432,-0.055908000000000006,-0.191162,0.020291,-0.0014529999999999999,-0.022368,-33.869999,-2.75,-31.370001000000002,1b
2019-07-12_122947:060,-0.415375,-0.037598,-0.186066,0.021084000000000002,-0.010669,-0.015685,-33.869999,-2.75,-31.370001000000002,1b
2019-07-12_122947:080,-0.41384899999999997,-0.026427999999999997,-0.17996199999999998,0.020413,-0.012531,-0.015165999999999999,-34.68,-3.18,-32.18,1b
2019-07-12_122947:100,-0.415375,-0.018799,-0.168793,0.016628999999999998,-0.009204,-0.015013,-34.68,-3.18,-32.18,1b
2019-07-12_122947:120,-0.42453,-0.017273,-0.164215,0.013913,-0.003467,-0.015349000000000002,-34.68,-3.18,-32.18,1b
2019-07-12_122947:140,-0.42807,-0.017273,-0.161163,0.012813999999999999,-8e-05,-0.015746,-34.68,-2.37,-32.18,1b
2019-07-12_122947:160,-0.42453,-0.013213999999999998,-0.158112,0.009732,0.007367,-0.016478,-34.68,-2.37,-32.18,1b
2019-07-12_122947:180,-0.404175,-0.007111,-0.152008,0.008816,0.009015,-0.015806999999999998,-34.68,-3.18,-32.18,1b
2019-07-12_122947:200,-0.396545,-0.0030210000000000002,-0.146423,0.005612,0.008159999999999999,-0.012297,-34.68,-3.18,-32.18,1b
2019-07-12_122947:220,-0.397064,0.001495,-0.146423,0.0032310000000000004,0.004437,-0.009978,-34.68,-3.18,-32.18,1b
2019-07-12_122947:240,-0.392487,0.007111,-0.146423,0.001583,0.0020570000000000002,-0.008849,-35.369999,-3.5,-32.68,1b
2019-07-12_122947:260,-0.396545,0.016266,-0.13269,-0.004184,-0.003314,-0.0058579999999999995,-35.369999,-3.5,-32.68,1b
2019-07-12_122947:280,-0.44891400000000004,0.021851,-0.137268,-0.0064730000000000005,-0.003711,-0.0058579999999999995,-35.369999,-3.5,-32.68,1b
2019-07-12_122947:300,-0.43823199999999995,0.026917,-0.142853,-0.017307,-0.003589,-0.004332,-34.68,-3.87,-32.18,1b
2019-07-12_122947:320,-0.492645,0.026917,-0.12912,-0.024143,-0.004901,0.002382,-34.68,-3.87,-32.18,1b
2019-07-12_122947:340,-0.519073,0.016266,-0.166748,-0.027652,-0.006945999999999999,0.005525,-35.0,-5.0,-32.68,1b
2019-07-12_122947:360,-0.49111899999999997,0.005065999999999999,-0.151001,-0.034031,-0.007923000000000001,0.0029,-35.0,-5.0,-32.68,1b
2019-07-12_122947:380,-0.472321,0.011169,-0.157593,-0.035220999999999995,-0.007984,-0.0014939999999999999,-35.369999,-5.75,-33.369999,1b
2019-07-12_122947:400,-0.47280900000000003,0.028442000000000002,-0.163177,-0.039219,-0.00539,-0.008116,-35.369999,-5.75,-33.369999,1b
2019-07-12_122947:420,-0.655853,0.045226999999999996,-0.148956,-0.039951,-0.008014,-0.004943,-35.369999,-5.75,-33.369999,1b
2019-07-12_122947:440,-0.572479,0.048798,-0.28979499999999997,-0.041385000000000005,-0.017230000000000002,-0.003386,-35.75,-6.5,-31.870001000000002,1b
2019-07-12_122947:460,-0.651794,0.039124,-0.17337,-0.039066000000000004,-0.020465,0.008302,-35.75,-6.5,-31.870001000000002,1b
2019-07-12_122947:480,-0.56076,0.050323,-0.20233199999999998,-0.03928,-0.021655,0.0123,-35.369999,-8.0,-32.18,1b
2019-07-12_122947:500,-0.492645,0.053863999999999995,-0.216583,-0.039219,-0.011524,0.015474000000000002,-35.369999,-8.0,-32.18,1b
2019-07-12_122947:520,-0.37674,0.07775900000000001,-0.22164899999999998,-0.040256,-0.011066,0.016939,-35.369999,-8.0,-32.18,1b
2019-07-12_122947:540,-0.358917,0.083862,-0.22521999999999998,-0.040256,-0.012653,0.018678,-33.869999,-8.75,-33.369999,1b
2019-07-12_122947:560,-0.444855,0.091003,-0.213013,-0.040409,-0.013904,0.022127,-33.869999,-8.75,-33.369999,1b
2019-07-12_122947:580,-0.496216,0.092529,-0.223175,-0.040867,-0.012927000000000001,0.021119,-35.0,-9.87,-31.870001000000002,1b
2019-07-12_122947:600,-0.459595,0.09454299999999999,-0.223694,-0.040287,-0.011524,0.016267,-35.0,-9.87,-31.870001000000002,1b
2019-07-12_122947:620,-0.462128,0.094055,-0.20639000000000002,-0.037021,-0.010578,0.01169,-35.0,-9.87,-31.870001000000002,1b
2019-07-12_122947:640,-0.492645,0.09301799999999999,-0.206909,-0.035434,-0.009998,0.009096,-35.0,-10.56,-32.75,1b
2019-07-12_122947:660,-0.475861,0.09201000000000001,-0.203369,-0.029238999999999998,-0.007923000000000001,0.008058,-35.0,-10.56,-32.75,1b
2019-07-12_122947:680,-0.410797,0.090485,-0.187073,-0.027347000000000003,-0.0076170000000000005,0.01111,-35.0,-10.56,-32.75,1b
2019-07-12_122947:700,-0.394012,0.08590700000000001,-0.17843599999999998,-0.021366,-0.009143,0.021913,-35.0,-11.0,-32.68,1b
2019-07-12_122947:720,-0.385376,0.083862,-0.174896,-0.019015999999999998,-0.008869,0.025361,-35.0,-11.0,-32.68,1b
2019-07-12_122947:740,-0.394012,0.0849,-0.162689,-0.017093,-0.008014,0.027681,-35.0,-11.37,-32.0,1b
2019-07-12_122947:760,-0.393005,0.082336,-0.156586,-0.015903,-0.005451,0.031404,-35.0,-11.37,-32.0,1b
2019-07-12_122947:780,-0.394012,0.075745,-0.146423,-0.015444999999999999,-0.004779,0.031800999999999996,-35.0,-11.37,-32.0,1b
2019-07-12_122947:800,-0.411804,0.064545,-0.14743,-0.014377000000000001,-0.006092,0.031679,-35.0,-12.06,-31.5,1b
2019-07-12_122947:820,-0.41995200000000005,0.057434000000000006,-0.153015,-0.013462,-0.006885,0.031892000000000004,-35.0,-12.06,-31.5,1b
2019-07-12_122947:840,-0.425537,0.049316000000000006,-0.145905,-0.011417,-0.007678,0.031679,-35.369999,-11.68,-31.5,1b
2019-07-12_122947:860,-0.425018,0.043213,-0.145905,-0.008029999999999999,-0.006793,0.028291000000000004,-35.369999,-11.68,-31.5,1b
2019-07-12_122947:880,-0.41384899999999997,0.035065,-0.146423,-0.006626000000000001,-0.0060609999999999995,0.026826,-35.369999,-11.68,-31.5,1b
2019-07-12_122947:900,-0.384338,0.034058,-0.160645,-0.002079,-0.005359,0.023195,-35.0,-11.0,-32.75,1b
2019-07-12_122947:920,-0.467743,0.029480000000000003,-0.160645,0.000637,-0.005115,0.021455000000000002,-35.0,-11.0,-32.75,1b
2019-07-12_122947:940,-0.485016,0.029480000000000003,-0.172852,0.002774,-0.003711,0.01999,-35.369999,-9.87,-31.5,1b
2019-07-12_122947:960,-0.551117,0.025908999999999998,-0.189636,0.0075650000000000005,-0.001117,0.013826,-35.369999,-9.87,-31.5,1b
2019-07-12_122947:980,-0.539429,0.030487,-0.183014,0.008419,0.004193,0.014436000000000001,-35.369999,-9.87,-31.5,1b
2019-07-12_122948:000,-0.5185850000000001,0.03302,-0.164215,0.006619,0.017193,0.024843,-35.369999,-9.87,-32.25,1b
2019-07-12_122948:020,-0.472321,0.012695,-0.176422,0.006954999999999999,0.023572,0.024232,-35.369999,-9.87,-32.25,1b
2019-07-12_122948:040,-0.477905,-0.018799,-0.18096900000000002,0.0072900000000000005,0.023816,0.019655000000000002,-36.5,-9.18,-32.0,1b
2019-07-12_122948:060,-0.712799,-0.032532,-0.168274,0.008084000000000001,0.01878,0.008851000000000001,-36.5,-9.18,-32.0,1b
2019-07-12_122948:080,-0.532806,-0.039124,-0.270477,0.011073999999999999,0.003399,0.004793,-37.68,-8.75,-30.75,1b
2019-07-12_122948:100,-0.5709529999999999,-0.057953,-0.16217,0.017697,0.003399,-0.0068650000000000004,-37.68,-8.75,-30.75,1b
2019-07-12_122948:120,-0.5922850000000001,-0.046265,-0.19927999999999998,0.015316,0.006634,-0.001464,-37.68,-8.75,-30.75,1b
2019-07-12_122948:140,-0.5983890000000001,-0.051849,-0.20385699999999998,0.017514,0.009411,0.004091,-36.75,-8.0,-30.25,1b
2019-07-12_122948:160,-0.45654300000000003,-0.071686,-0.195221,0.017117,0.011761,0.004091,-36.75,-8.0,-30.25,1b
2019-07-12_122948:180,-0.408752,-0.074738,-0.165222,0.016964,0.013806,-0.002471,-36.75,-8.0,-30.25,1b
2019-07-12_122948:200,-0.43011499999999997,-0.05996699999999999,-0.14032,0.012813999999999999,0.015851,-0.010039,-37.869999,-8.0,-29.5,1b
2019-07-12_122948:220,-0.48300200000000004,-0.060486,-0.157074,0.013058000000000002,0.014263999999999999,-0.007262,-37.869999,-8.0,-29.5,1b
2019-07-12_122948:240,-0.45196499999999995,-0.07016,-0.147949,0.012997,0.011487,-0.005004,-37.560001,-7.68,-29.5,1b
2019-07-12_122948:260,-0.445374,-0.065063,-0.12558,0.011593000000000001,0.004193,-0.016295,-37.560001,-7.68,-29.5,1b
2019-07-12_122948:280,-0.46875,-0.044739,-0.132172,0.010739,0.002728,-0.017333,-37.560001,-7.68,-29.5,1b
2019-07-12_122948:300,-0.44891400000000004,-0.036072,-0.133698,0.010617,-0.00072,-0.013243000000000001,-39.060001,-7.25,-29.5,1b
2019-07-12_122948:320,-0.406219,-0.034058,-0.12912,0.009274,-0.005115,-0.010497,-39.060001,-7.25,-29.5,1b
2019-07-12_122948:340,-0.39859,-0.031006,-0.131653,0.006619,-0.010059,-0.012754999999999999,-38.25,-8.37,-28.0,1b
2019-07-12_122948:360,-0.395538,-0.025421,-0.138275,0.004818,-0.014057,-0.012877000000000001,-38.25,-8.37,-28.0,1b
2019-07-12_122948:380,-0.393494,-0.026917,-0.134216,0.0042380000000000004,-0.015705,-0.012754999999999999,-38.25,-8.37,-28.0,1b
2019-07-12_122948:400,-0.410278,-0.022858,-0.128601,0.0032310000000000004,-0.015766,-0.016478,-37.869999,-8.0,-28.75,1b
2019-07-12_122948:420,-0.429108,-0.015228,-0.127106,0.002438,-0.014057,-0.019591,-37.869999,-8.0,-28.75,1b
2019-07-12_122948:440,-0.446899,-0.007599,-0.12506099999999998,0.002255,-0.012103000000000001,-0.019530000000000002,-37.560001,-8.37,-29.059998999999998,1b
2019-07-12_122948:460,-0.45043900000000003,-0.0035399999999999997,-0.119476,0.0018579999999999998,-0.00954,-0.019865999999999998,-37.560001,-8.37,-29.059998999999998,1b
2019-07-12_122948:480,-0.453003,0.000488,-0.11538699999999999,0.000637,-0.007343000000000001,-0.020322999999999997,-37.560001,-8.37,-29.059998999999998,1b
2019-07-12_122948:500,-0.441284,0.0030210000000000002,-0.11538699999999999,-0.000156,-0.005695,-0.018340000000000002,-37.18,-9.87,-28.75,1b
2019-07-12_122948:520,-0.42147799999999996,0.0,-0.108795,-0.000553,-0.004444,-0.015135,-37.18,-9.87,-28.75,1b
2019-07-12_122948:540,-0.416901,-0.001007,-0.104218,-0.00095,-0.0030399999999999997,-0.013152,-36.75,-10.18,-29.5,1b
2019-07-12_122948:560,-0.45043900000000003,-0.0035399999999999997,-0.108795,-0.001011,-0.003467,-0.012877000000000001,-36.75,-10.18,-29.5,1b
2019-07-12_122948:580,-0.460114,-0.005065999999999999,-0.111847,-0.00095,-0.003986,-0.012297,-36.75,-10.18,-29.5,1b
2019-07-12_122948:600,-0.48196400000000006,0.001495,-0.112854,-0.001194,-0.006670999999999999,-0.009917,-36.75,-10.56,-28.0,1b
2019-07-12_122948:620,-0.528748,0.004547,-0.113373,-0.001529,-0.009845,-0.006804000000000001,-36.75,-10.56,-28.0,1b
2019-07-12_122948:640,-0.505371,0.006072999999999999,-0.127594,-0.002262,-0.011309999999999999,-0.005675,-36.060001,-10.87,-28.75,1b
2019-07-12_122948:660,-0.502319,0.008636,-0.115906,-0.002933,-0.009448,-0.0068650000000000004,-36.060001,-10.87,-28.75,1b
2019-07-12_122948:680,-0.492645,0.019318000000000002,-0.128113,-0.005222,-0.0055119999999999995,-0.0060409999999999995,-36.060001,-10.87,-28.75,1b
2019-07-12_122948:700,-0.653809,0.038116000000000004,-0.137268,-0.006687,-0.005878,-0.001616,-34.560001,-11.0,-28.75,1b
2019-07-12_122948:720,-0.60553,0.040649,-0.24706999999999998,-0.010256999999999999,-0.020008,0.0017100000000000001,-34.560001,-11.0,-28.75,1b
2019-07-12_122948:740,-0.6660159999999999,0.042175,-0.19775399999999999,-0.012119,-0.024340999999999998,0.0069900000000000006,-35.369999,-11.37,-28.25,1b
2019-07-12_122948:760,-0.6212770000000001,0.047791,-0.196747,-0.015049000000000002,-0.02547,0.010042,-35.369999,-11.37,-28.25,1b
2019-07-12_122948:780,-0.5480649999999999,0.039642000000000004,-0.19927999999999998,-0.017917,-0.015491,0.009309,-35.369999,-11.37,-28.25,1b
2019-07-12_122948:800,-0.46060200000000007,0.038116000000000004,-0.186584,-0.020755000000000003,-0.004321,0.008577,-35.0,-11.0,-28.25,1b
2019-07-12_122948:820,-0.353333,0.037598,-0.161652,-0.019687,0.004925,0.004609,-35.0,-11.0,-28.25,1b
2019-07-12_122948:840,-0.361481,0.050323,-0.137268,-0.018833000000000003,0.011029,-0.005278,-34.560001,-11.68,-28.25,1b
2019-07-12_122948:860,-0.44638100000000003,0.07016,-0.154022,-0.019747999999999998,0.011151000000000001,-0.013701,-34.560001,-11.68,-28.25,1b
2019-07-12_122948:880,-0.395538,0.07775900000000001,-0.155548,-0.020481,0.007886,-0.009856,-34.560001,-11.68,-28.25,1b
2019-07-12_122948:900,-0.395538,0.07421900000000001,-0.10928299999999999,-0.017521000000000002,0.003003,-0.000151,-33.75,-12.87,-27.059998999999998,1b
2019-07-12_122948:920,-0.452484,0.068634,-0.128601,-0.015964,-0.004108,0.0007030000000000001,-33.75,-12.87,-27.059998999999998,1b
2019-07-12_122948:940,-0.507904,0.0737,-0.134705,-0.01218,-0.00719,-0.004668,-33.75,-13.18,-26.25,1b
2019-07-12_122948:960,-0.494171,0.08081100000000001,-0.13269,-0.007541,-0.012531,-0.004058,-33.75,-13.18,-26.25,1b
2019-07-12_122948:980,-0.47433500000000006,0.0737,-0.134216,-0.002597,-0.018238,0.003694,-33.75,-13.18,-26.25,1b
2019-07-12_122949:000,-0.43927,0.068115,-0.133698,0.0009119999999999999,-0.022602,0.010896,-35.0,-14.0,-27.059998999999998,1b
2019-07-12_122949:020,-0.40570100000000003,0.069122,-0.139282,0.003353,-0.027393,0.014344999999999998,-35.0,-14.0,-27.059998999999998,1b
2019-07-12_122949:040,-0.41485600000000006,0.080322,-0.153534,0.004116,-0.033679,0.017061,-33.5,-14.0,-27.5,1b
2019-07-12_122949:060,-0.431122,0.08743300000000001,-0.16217,0.002499,-0.037127999999999994,0.023897,-33.5,-14.0,-27.5,1b
2019-07-12_122949:080,-0.43518100000000004,0.084381,-0.163177,0.000576,-0.036792,0.035524,-33.5,-14.0,-27.5,1b
2019-07-12_122949:100,-0.43670699999999996,0.064545,-0.160126,-0.001407,-0.0331,0.044954,-33.5,-11.68,-28.0,1b
2019-07-12_122949:120,-0.435699,0.051330999999999995,-0.152527,-0.00275,-0.027239999999999997,0.047029,-33.5,-11.68,-28.0,1b
2019-07-12_122949:140,-0.425018,0.036591000000000005,-0.149963,-0.003879,-0.021289,0.046144,-32.060001,-11.68,-28.25,1b
2019-07-12_122949:160,-0.414337,0.029480000000000003,-0.145386,-0.003788,-0.016284,0.045137000000000004,-32.060001,-11.68,-28.25,1b
2019-07-12_122949:180,-0.41842700000000005,0.014221000000000001,-0.146423,-0.004581,-0.013233000000000002,0.041352999999999994,-32.060001,-11.68,-28.25,1b
2019-07-12_122949:200,-0.416382,0.011169,-0.152527,-0.004947,-0.012165,0.035127,-31.68,-11.37,-28.75,1b
2019-07-12_122949:220,-0.43670699999999996,0.010162000000000001,-0.153015,-0.004642,-0.012256,0.029146,-31.68,-11.37,-28.75,1b
2019-07-12_122949:240,-0.457581,0.007599,-0.165222,-0.0037270000000000003,-0.012988,0.023897,-32.0,-9.5,-29.5,1b
2019-07-12_122949:260,-0.502808,0.007111,-0.165741,-0.002597,-0.012439,0.019472,-32.0,-9.5,-29.5,1b
2019-07-12_122949:280,-0.507904,0.019806,-0.183014,-0.001621,-0.011798000000000001,0.019319,-32.0,-9.5,-29.5,1b
2019-07-12_122949:300,-0.52417,0.029480000000000003,-0.181488,-0.001957,-0.010059,0.025789,-31.18,-9.5,-28.25,1b
2019-07-12_122949:320,-0.498749,0.025908999999999998,-0.194702,-0.004062,-0.006945999999999999,0.033754,-31.18,-9.5,-28.25,1b
2019-07-12_122949:340,-0.434174,0.0,-0.210968,-0.00687,-0.006275,0.038452999999999994,-31.18,-8.75,-30.0,1b
2019-07-12_122949:360,-0.6670229999999999,-0.023895,-0.194214,-0.007418999999999999,-0.011309999999999999,0.039827,-31.18,-8.75,-30.0,1b
2019-07-12_122949:380,-0.5246890000000001,-0.066071,-0.34368899999999997,-0.007601999999999999,-0.027301,0.040254000000000005,-31.18,-8.75,-30.0,1b
2019-07-12_122949:400,-0.6324770000000001,-0.111328,-0.20639000000000002,-0.000156,-0.017688,0.030549,-31.18,-8.0,-28.0,1b
2019-07-12_122949:420,-0.582123,-0.12301600000000001,-0.295898,0.00018,-0.020130000000000002,0.019197,-31.18,-8.0,-28.0,1b
2019-07-12_122949:440,-0.500793,-0.143372,-0.278107,0.005429,-0.006275,0.01941,-30.870001000000002,-7.18,-28.25,1b
2019-07-12_122949:460,-0.336548,-0.161652,-0.23995999999999998,0.009732,0.003857,0.023836000000000003,-30.870001000000002,-7.18,-28.25,1b
2019-07-12_122949:480,-0.402161,-0.176422,-0.209961,0.011929,0.010357,0.021181000000000002,-30.870001000000002,-7.18,-28.25,1b
2019-07-12_122949:500,-0.47280900000000003,-0.170807,-0.263336,0.015255000000000001,0.007428,0.012178,-29.68,-6.06,-29.5,1b
2019-07-12_122949:520,-0.44891400000000004,-0.162689,-0.227264,0.019619,0.006116,-0.002135,-29.68,-6.06,-29.5,1b
2019-07-12_122949:540,-0.42605600000000005,-0.122528,-0.183533,0.023159,0.00404,-0.019530000000000002,-30.059998999999998,-5.25,-28.75,1b
2019-07-12_122949:560,-0.42758199999999996,-0.089478,-0.189636,0.023495,0.003857,-0.028960000000000003,-30.059998999999998,-5.25,-28.75,1b
2019-07-12_122949:580,-0.420959,-0.064545,-0.18454,0.023068,0.004376,-0.025633,-30.059998999999998,-5.25,-28.75,1b
2019-07-12_122949:600,-0.388428,-0.058441,-0.18811,0.021176,0.000348,-0.018401,-30.059998999999998,-4.87,-29.5,1b
2019-07-12_122949:620,-0.386902,-0.044739,-0.174377,0.017758000000000003,-0.0030399999999999997,-0.016478,-30.059998999999998,-4.87,-29.5,1b
2019-07-12_122949:640,-0.389954,-0.040161,-0.169281,0.013058000000000002,-0.004901,-0.016538999999999998,-30.059998999999998,-5.25,-29.059998999999998,1b
2019-07-12_122949:660,-0.399597,-0.036591000000000005,-0.155548,0.010525,-0.00426,-0.016416999999999998,-30.059998999999998,-5.25,-29.059998999999998,1b
2019-07-12_122949:680,-0.40570100000000003,-0.039642000000000004,-0.152008,0.0075650000000000005,-0.002735,-0.018187000000000002,-30.059998999999998,-5.25,-29.059998999999998,1b
2019-07-12_122949:700,-0.402649,-0.036072,-0.14386,0.005154,-0.001178,-0.020659,-30.059998999999998,-5.25,-28.25,1b
2019-07-12_122949:720,-0.406738,-0.036072,-0.139282,0.004086,-0.000598,-0.020659,-30.059998999999998,-5.25,-28.25,1b
2019-07-12_122949:740,-0.423492,-0.039124,-0.139282,0.003781,-0.001575,-0.019011,-29.68,-4.87,-28.75,1b
2019-07-12_122949:760,-0.44027700000000003,-0.039642000000000004,-0.14032,0.003781,-0.002979,-0.018218,-29.68,-4.87,-28.75,1b
2019-07-12_122949:780,-0.43518100000000004,-0.037108999999999996,-0.143372,0.004116,-0.0055119999999999995,-0.017821,-29.68,-4.87,-28.75,1b
2019-07-12_122949:800,-0.433655,-0.03302,-0.141846,0.005215,-0.006854000000000001,-0.016875,-29.0,-6.06,-28.25,1b
2019-07-12_122949:820,-0.426544,-0.024384,-0.13623,0.005246,-0.005573,-0.015227000000000001,-29.0,-6.06,-28.25,1b
2019-07-12_122949:840,-0.435699,-0.020325,-0.136749,0.004299,-0.002735,-0.011382,-28.18,-5.68,-29.059998999999998,1b
2019-07-12_122949:860,-0.40976,-0.019806,-0.156067,0.002102,-0.003314,-0.0060409999999999995,-28.18,-5.68,-29.059998999999998,1b
2019-07-12_122949:880,-0.452484,-0.020325,-0.144897,-0.0004,-0.006275,-0.002684,-28.18,-5.68,-29.059998999999998,1b
2019-07-12_122949:900,-0.48300200000000004,-0.025421,-0.187073,-0.004581,-0.012439,0.0005200000000000001,-27.870001000000002,-5.68,-29.5,1b
2019-07-12_122949:920,-0.494171,-0.040649,-0.168274,-0.005497,-0.013172,0.001192,-27.870001000000002,-5.68,-29.5,1b
2019-07-12_122949:940,-0.454529,-0.040649,-0.177429,-0.004978,-0.011859,-0.006377000000000001,-28.559998999999998,-6.06,-28.0,1b
2019-07-12_122949:960,-0.44638100000000003,-0.029480000000000003,-0.19165,-0.004703,-0.010639000000000001,-0.014952000000000002,-28.559998999999998,-6.06,-28.0,1b
2019-07-12_122949:980,-0.515015,-0.000488,-0.21453899999999998,-0.00394,-0.012317,-0.012297,-28.559998999999998,-6.06,-28.0,1b
2019-07-12_122950:000,-0.733124,0.0055850000000000006,-0.24453699999999998,-0.005436,-0.01662,0.000245,-27.5,-6.75,-28.0,1b
2019-07-12_122950:020,-0.704163,0.006592,-0.270477,-0.010196,-0.023059,0.01642,-27.5,-6.75,-28.0,1b
2019-07-12_122950:040,-0.657379,-0.0030210000000000002,-0.20944200000000002,-0.011264,-0.010578,0.02231,-26.68,-6.75,-28.0,1b
2019-07-12_122950:060,-0.541443,-0.004059,-0.21606399999999998,-0.015781,-0.0008119999999999999,0.017061,-26.68,-6.75,-28.0,1b
2019-07-12_122950:080,-0.418915,0.001495,-0.20080599999999998,-0.017032,0.014813,0.012819,-26.68,-6.75,-28.0,1b
2019-07-12_122950:100,-0.338593,0.001007,-0.166229,-0.016117,0.021832,0.009706000000000001,-25.559998999999998,-6.06,-28.25,1b
2019-07-12_122950:120,-0.431641,0.006072999999999999,-0.17996199999999998,-0.016056,0.016980000000000002,0.0007639999999999999,-25.559998999999998,-6.06,-28.25,1b
2019-07-12_122950:140,-0.45605500000000004,0.027954000000000003,-0.21249400000000002,-0.018436,0.008709999999999999,-0.004332,-25.559998999999998,-6.37,-29.18,1b
2019-07-12_122950:160,-0.42758199999999996,0.032532,-0.166748,-0.016849,0.003186,0.000123,-25.559998999999998,-6.37,-29.18,1b
2019-07-12_122950:180,-0.44027700000000003,0.029968,-0.174896,-0.016575,-0.002643,0.0011,-25.559998999999998,-6.37,-29.18,1b
2019-07-12_122950:200,-0.46060200000000007,0.031494,-0.185547,-0.017124,-0.005298,-0.00067,-26.68,-7.56,-28.0,1b
2019-07-12_122950:220,-0.423004,0.031494,-0.191162,-0.015506,-0.009509,0.005464,-26.68,-7.56,-28.0,1b
2019-07-12_122950:240,-0.42248500000000005,0.022369,-0.187592,-0.013797,-0.015368999999999999,0.014558000000000001,-26.0,-7.87,-28.25,1b
2019-07-12_122950:260,-0.420441,0.011687999999999999,-0.182007,-0.013522999999999999,-0.018207,0.018739,-26.0,-7.87,-28.25,1b
2019-07-12_122950:280,-0.42401099999999997,0.004547,-0.174377,-0.013065,-0.017108,0.020447999999999997,-26.0,-7.87,-28.25,1b
2019-07-12_122950:300,-0.429596,-0.000488,-0.174896,-0.012272,-0.016101,0.020875,-26.68,-7.56,-28.0,1b
2019-07-12_122950:320,-0.438751,-0.006592,-0.165741,-0.011387000000000001,-0.013628999999999999,0.018525,-26.68,-7.56,-28.0,1b
2019-07-12_122950:340,-0.426544,-0.008118,-0.161163,-0.009951999999999999,-0.010669,0.014833,-25.559998999999998,-7.56,-28.0,1b
2019-07-12_122950:360,-0.415375,-0.013213999999999998,-0.156067,-0.008152,-0.007526000000000001,0.012514,-25.559998999999998,-7.56,-28.0,1b
2019-07-12_122950:380,-0.404175,-0.017273,-0.1586,-0.0060149999999999995,-0.0061530000000000005,0.009981,-25.559998999999998,-7.56,-28.0,1b
2019-07-12_122950:400,-0.370636,-0.023375999999999997,-0.157593,-0.003147,-0.005756,0.006470999999999999,-25.559998999999998,-7.87,-29.5,1b
2019-07-12_122950:420,-0.381317,-0.029968,-0.145905,0.001034,-0.005573,0.002443,-25.559998999999998,-7.87,-29.5,1b
2019-07-12_122950:440,-0.429596,-0.036591000000000005,-0.165741,0.006497,-0.0070680000000000005,-0.002684,-24.870001000000002,-6.75,-28.25,1b
2019-07-12_122950:460,-0.44232200000000005,-0.034058,-0.16217,0.013607,-0.0076170000000000005,-0.010161,-24.870001000000002,-6.75,-28.25,1b
2019-07-12_122950:480,-0.46875,-0.014740000000000001,-0.161163,0.021419999999999998,-0.007129000000000001,-0.018340000000000002,-24.870001000000002,-6.75,-28.25,1b
2019-07-12_122950:500,-0.496216,0.0,-0.168793,0.028133999999999996,-0.007526000000000001,-0.023772,-24.18,-6.75,-28.0,1b
2019-07-12_122950:520,-0.529266,0.028961,-0.175903,0.033779,-0.005939,-0.023313999999999998,-24.18,-6.75,-28.0,1b
2019-07-12_122950:540,-0.522125,0.037598,-0.175903,0.035153,-0.004047,-0.015135,-24.870001000000002,-7.18,-30.0,1b
2019-07-12_122950:560,-0.49517799999999995,0.037598,-0.176422,0.035244,-0.00047599999999999997,-0.003539,-24.870001000000002,-7.18,-30.0,1b
2019-07-12_122950:580,-0.45706199999999997,0.029968,-0.18454,0.032498,0.002179,0.0017100000000000001,-24.870001000000002,-7.18,-30.0,1b
2019-07-12_122950:600,-0.590759,0.018799,-0.182007,0.029904000000000003,0.001263,0.0008560000000000001,-23.370001000000002,-6.75,-29.059998999999998,1b
2019-07-12_122950:620,-0.600433,0.006592,-0.28369099999999997,0.027339999999999996,-0.008411,0.000184,-23.370001000000002,-6.75,-29.059998999999998,1b
2019-07-12_122950:640,-0.576019,-0.009644,-0.196747,0.025478999999999998,-0.017016999999999997,0.001924,-22.68,-5.25,-29.5,1b
2019-07-12_122950:660,-0.614166,-0.0025329999999999997,-0.20639000000000002,0.026059,-0.010578,-0.000273,-22.68,-5.25,-29.5,1b
2019-07-12_122950:680,-0.626373,-0.024384,-0.260284,0.019162000000000002,-0.007678,-0.00067,-22.68,-5.25,-29.5,1b
2019-07-12_122950:700,-0.514008,-0.026427999999999997,-0.207916,0.019955,0.004895,0.004274,-23.370001000000002,-4.18,-29.059998999999998,1b
2019-07-12_122950:720,-0.38739,-0.045745999999999995,-0.175903,0.01672,0.015057,0.006929,-23.370001000000002,-4.18,-29.059998999999998,1b
2019-07-12_122950:740,-0.374176,-0.049805,-0.154541,0.01434,0.024426,0.004152,-22.68,-4.18,-30.25,1b
2019-07-12_122950:760,-0.441284,-0.060486,-0.17944300000000002,0.012783,0.025281,0.002382,-22.68,-4.18,-30.25,1b
2019-07-12_122950:780,-0.433167,-0.071167,-0.188599,0.01379,0.017651,0.000398,-22.68,-4.18,-30.25,1b
2019-07-12_122950:800,-0.41384899999999997,-0.062012,-0.139282,0.016323,0.010083,-0.006437999999999999,-23.18,-3.37,-29.059998999999998,1b
2019-07-12_122950:820,-0.447388,-0.051330999999999995,-0.141846,0.016903,0.001996,-0.012236,-23.18,-3.37,-29.059998999999998,1b
2019-07-12_122950:840,-0.43621800000000005,-0.044739,-0.142853,0.017971,-0.002643,-0.009184000000000001,-24.68,-3.06,-30.0,1b
2019-07-12_122950:860,-0.40976,-0.043701,-0.141327,0.019375,-0.0061530000000000005,-0.002867,-24.68,-3.06,-30.0,1b
2019-07-12_122950:880,-0.374695,-0.037598,-0.14843800000000001,0.018368000000000002,-0.012531,-0.001402,-24.68,-3.06,-30.0,1b
2019-07-12_122950:900,-0.375702,-0.031494,-0.146423,0.01672,-0.017841,-0.0036,-24.559998999999998,-2.06,-30.0,1b
2019-07-12_122950:920,-0.40976,-0.021851,-0.141846,0.014523,-0.021075999999999998,-0.005644,-24.559998999999998,-2.06,-30.0,1b
2019-07-12_122950:940,-0.449432,-0.015228,-0.135742,0.011746,-0.021075999999999998,-0.008237999999999999,-22.68,-2.06,-29.5,1b
2019-07-12_122950:960,-0.491638,-0.004059,-0.137268,0.0074730000000000005,-0.019214,-0.011290000000000001,-22.68,-2.06,-29.5,1b
2019-07-12_122950:980,-0.49975600000000003,0.001007,-0.141327,0.002896,-0.017078,-0.012236,-22.68,-2.06,-29.5,1b
2019-07-12_122951:000,-0.466217,0.005065999999999999,-0.131165,-0.0016820000000000001,-0.016162,-0.011443,-22.68,-2.06,-30.25,1b
2019-07-12_122951:020,-0.449432,0.008636,-0.128113,-0.006687,-0.014819999999999998,-0.009459,-22.68,-2.06,-30.25,1b
2019-07-12_122951:040,-0.421967,0.006072999999999999,-0.135223,-0.013187,-0.015094,-0.00479,-23.059998999999998,-2.06,-30.25,1b
2019-07-12_122951:060,-0.40316799999999997,0.001007,-0.139801,-0.018436,-0.016681,0.002687,-23.059998999999998,-2.06,-30.25,1b
2019-07-12_122951:080,-0.381805,-0.009644,-0.144897,-0.022739,-0.020557,0.006441,-23.059998999999998,-2.06,-30.25,1b
2019-07-12_122951:100,-0.385864,-0.010651,-0.149475,-0.026004000000000003,-0.02367,0.003114,-21.559998999999998,-1.68,-31.5,1b
2019-07-12_122951:120,-0.42147799999999996,-0.0055850000000000006,-0.150482,-0.028324000000000002,-0.024340999999999998,-0.001464,-21.559998999999998,-1.68,-31.5,1b
2019-07-12_122951:140,-0.45095799999999997,-0.0025329999999999997,-0.164215,-0.030307,-0.023517,-0.002471,-20.75,-2.75,-30.68,1b
2019-07-12_122951:160,-0.482483,-0.001007,-0.165222,-0.031833,-0.021197999999999998,-9e-05,-20.75,-2.75,-30.68,1b
2019-07-12_122951:180,-0.5048520000000001,-0.001007,-0.177948,-0.033451,-0.017963,0.003053,-20.75,-2.75,-30.68,1b
2019-07-12_122951:200,-0.503326,-0.009644,-0.18811,-0.034763,-0.014636000000000001,0.005342,-20.059998999999998,-3.5,-30.25,1b
2019-07-12_122951:220,-0.5058590000000001,-0.012177,-0.19622799999999999,-0.034488,-0.012378,0.0058,-20.059998999999998,-3.5,-30.25,1b
2019-07-12_122951:240,-0.462128,-0.010162000000000001,-0.213013,-0.033908999999999995,-0.012195000000000001,0.005128,-19.68,-5.0,-31.5,1b
2019-07-12_122951:260,-0.453491,-0.004547,-0.21505700000000003,-0.032901,-0.010669,0.007448000000000001,-19.68,-5.0,-31.5,1b
2019-07-12_122951:280,-0.626862,0.016266,-0.24758899999999998,-0.032322000000000004,-0.01305,0.010652,-19.68,-5.0,-31.5,1b
2019-07-12_122951:300,-0.641113,0.032532,-0.31012,-0.034488,-0.021747,0.013550999999999999,-18.870001000000002,-5.75,-31.059998999999998,1b
2019-07-12_122951:320,-0.670074,0.040161,-0.256744,-0.038212,-0.017627,0.018739,-18.870001000000002,-5.75,-31.059998999999998,1b
2019-07-12_122951:340,-0.568909,0.042694,-0.262329,-0.043674,-0.010974,0.020265000000000002,-19.0,-5.37,-32.060001,1b
2019-07-12_122951:360,-0.394531,0.05285599999999999,-0.242004,-0.04517,-0.006488,0.020265000000000002,-19.0,-5.37,-32.060001,1b
2019-07-12_122951:380,-0.326904,0.054901,-0.23028600000000002,-0.048435,0.000714,0.017,-19.0,-5.37,-32.060001,1b
2019-07-12_122951:400,-0.425537,0.057434000000000006,-0.219635,-0.049442,0.000317,0.007997,-18.25,-6.18,-30.370001000000002,1b
2019-07-12_122951:420,-0.42807,0.070648,-0.256744,-0.050876,-0.002338,0.002687,-18.25,-6.18,-30.370001000000002,1b
2019-07-12_122951:440,-0.40063499999999996,0.080322,-0.207916,-0.047977,-0.0031309999999999997,0.0027170000000000002,-19.370001000000002,-8.37,-31.059998999999998,1b
2019-07-12_122951:460,-0.432648,0.080322,-0.209961,-0.046329,-0.004596,0.001527,-19.370001000000002,-8.37,-31.059998999999998,1b
2019-07-12_122951:480,-0.49517799999999995,0.085388,-0.21505700000000003,-0.043338,-0.000781,0.004182,-19.370001000000002,-8.37,-31.059998999999998,1b
2019-07-12_122951:500,-0.488068,0.087952,-0.20843499999999998,-0.039737,0.000653,0.017091,-19.0,-9.87,-30.370001000000002,1b
2019-07-12_122951:520,-0.477905,0.068634,-0.196747,-0.034702,-0.00072,0.029878,-19.0,-9.87,-30.370001000000002,1b
2019-07-12_122951:540,-0.45553599999999994,0.056915,-0.195221,-0.030307,-0.002704,0.031221,-18.68,-10.56,-30.75,1b
2019-07-12_122951:560,-0.401642,0.05996699999999999,-0.18096900000000002,-0.026614999999999996,-0.005756,0.028107999999999998,-18.68,-10.56,-30.75,1b
2019-07-12_122951:580,-0.390442,0.062012,-0.17385899999999999,-0.023472,-0.010181,0.029542000000000002,-18.68,-10.56,-30.75,1b
2019-07-12_122951:600,-0.395538,0.057953,-0.172852,-0.021213,-0.012714,0.031404,-18.25,-9.87,-31.18,1b
2019-07-12_122951:620,-0.40316799999999997,0.05438200000000001,-0.166748,-0.020816,-0.013781999999999999,0.030488,-18.25,-9.87,-31.18,1b
2019-07-12_122951:640,-0.414337,0.048279,-0.170319,-0.019778999999999998,-0.014301,0.030275,-18.68,-11.0,-30.370001000000002,1b
2019-07-12_122951:660,-0.41485600000000006,0.041168,-0.16217,-0.017887,-0.012195000000000001,0.030945999999999998,-18.68,-11.0,-30.370001000000002,1b
2019-07-12_122951:680,-0.40063499999999996,0.036072,-0.159119,-0.016239,-0.009326000000000001,0.030488,-18.68,-11.0,-30.370001000000002,1b
2019-07-12_122951:700,-0.393494,0.034546,-0.162689,-0.014194,-0.007343000000000001,0.029878,-18.25,-10.18,-31.18,1b
2019-07-12_122951:720,-0.38028,0.032532,-0.164703,-0.01218,-0.006458,0.030031,-18.25,-10.18,-31.18,1b
2019-07-12_122951:740,-0.416901,0.023895,-0.16217,-0.009951999999999999,-0.004229999999999999,0.029207,-18.68,-11.0,-31.559998999999998,1b
2019-07-12_122951:760,-0.399597,0.020844,-0.166229,-0.007145,-0.0015140000000000002,0.026032999999999997,-18.68,-11.0,-31.559998999999998,1b
2019-07-12_122951:780,-0.445862,0.015747,-0.17843599999999998,-0.0032689999999999998,-0.002246,0.016939,-18.68,-11.0,-31.559998999999998,1b
2019-07-12_122951:800,-0.48654200000000003,0.016753999999999998,-0.213531,0.000241,-0.008014,0.007265000000000001,-19.370001000000002,-10.06,-30.059998999999998,1b
2019-07-12_122951:820,-0.533844,0.024384,-0.210968,0.0060079999999999995,-0.008319,0.002443,-19.370001000000002,-10.06,-30.059998999999998,1b
2019-07-12_122951:840,-0.498749,0.026427999999999997,-0.21554600000000002,0.007901,-0.001178,0.001588,-19.370001000000002,-10.06,-32.0,1b
2019-07-12_122951:860,-0.636017,0.017273,-0.209961,0.008816,0.0053219999999999995,0.001436,-19.370001000000002,-10.06,-32.0,1b
2019-07-12_122951:880,-0.598907,0.008118,-0.331482,0.007809,-0.005573,0.0026260000000000003,-19.370001000000002,-10.06,-32.0,1b
2019-07-12_122951:900,-0.597382,-0.013213999999999998,-0.23028600000000002,0.013271999999999999,0.001324,-0.000273,-19.370001000000002,-10.06,-30.870001000000002,1b
2019-07-12_122951:920,-0.539429,-0.0035399999999999997,-0.275543,0.011746,-0.004383,-0.007445,-19.370001000000002,-10.06,-30.870001000000002,1b
2019-07-12_122951:940,-0.497742,-0.005065999999999999,-0.282166,0.011531999999999999,-0.0008730000000000001,-0.002135,-19.370001000000002,-9.75,-32.060001,1b
2019-07-12_122951:960,-0.445862,-0.010651,-0.25116,0.009396,0.003796,0.011964,-19.370001000000002,-9.75,-32.060001,1b
2019-07-12_122951:980,-0.382812,-0.029968,-0.263855,0.003689,0.005169,0.019319,-19.370001000000002,-9.75,-32.060001,1b
2019-07-12_122952:000,-0.395538,-0.038635,-0.231323,-0.00046100000000000004,0.011212,0.016817,-19.0,-9.75,-32.369999,1b
2019-07-12_122952:020,-0.46469099999999997,-0.045226999999999996,-0.23590100000000003,-0.004337,0.012555,0.007844,-19.0,-9.75,-32.369999,1b
2019-07-12_122952:040,-0.437225,-0.042694,-0.246063,-0.007145,0.008709999999999999,0.001039,-19.370001000000002,-8.68,-31.18,1b
2019-07-12_122952:060,-0.41586300000000004,-0.034546,-0.198273,-0.008213,0.0062380000000000005,-0.000151,-19.370001000000002,-8.68,-31.18,1b
