timestamp,AccX,AccY,AccZ,GyroX,GyroY,GyroZ,MagX,MagY,MagZ,Activity
2019-07-12_115518:820,-0.337067,-0.050323,-0.37316900000000003,0.006619,-0.006731999999999999,0.00403,-38.5,15.56,-21.18,3b
2019-07-12_115518:840,-0.335022,-0.052338,-0.37265,0.006161,-0.006275,0.002321,-38.5,15.56,-21.18,3b
2019-07-12_115518:860,-0.327423,-0.051330999999999995,-0.364014,0.005429,-0.004901,0.001314,-38.5,15.18,-22.370001000000002,3b
2019-07-12_115518:880,-0.318756,-0.054901,-0.360962,0.004635,-0.004047,0.001527,-38.5,15.18,-22.370001000000002,3b
2019-07-12_115518:900,-0.311127,-0.060486,-0.364014,0.004116,-0.004657,-0.000609,-40.0,16.0,-21.870001000000002,3b
2019-07-12_115518:920,-0.310638,-0.05996699999999999,-0.361969,0.004086,-0.0060609999999999995,-0.005461,-40.0,16.0,-21.870001000000002,3b
2019-07-12_115518:940,-0.314178,-0.057434000000000006,-0.360962,0.004177,-0.007465,-0.009184000000000001,-40.0,16.0,-21.870001000000002,3b
2019-07-12_115518:960,-0.320282,-0.056427,-0.364532,0.005032,-0.007923000000000001,-0.008695999999999999,-39.68,16.0,-21.870001000000002,3b
2019-07-12_115518:980,-0.323853,-0.051849,-0.369598,0.005642,-0.007404000000000001,-0.006712999999999999,-39.68,16.0,-21.870001000000002,3b
2019-07-12_115519:000,-0.320801,-0.050323,-0.37316900000000003,0.00549,-0.006458,-0.005582999999999999,-39.68,16.0,-23.059998999999998,3b
2019-07-12_115519:020,-0.32486,-0.044739,-0.376221,0.004635,-0.00539,-0.003203,-39.68,16.0,-23.059998999999998,3b
2019-07-12_115519:040,-0.32486,-0.044739,-0.378265,0.0032920000000000002,-0.004108,-0.000365,-39.68,16.0,-23.059998999999998,3b
2019-07-12_115519:060,-0.325378,-0.050842,-0.375702,0.002102,-0.0032530000000000002,0.000184,-40.369999,15.18,-21.870001000000002,3b
2019-07-12_115519:080,-0.334534,-0.051849,-0.375214,0.000729,-0.0021850000000000003,0.000459,-40.369999,15.18,-21.870001000000002,3b
2019-07-12_115519:100,-0.33197,-0.057434000000000006,-0.37265,0.000302,1.2e-05,0.002382,-40.0,15.18,-20.68,3b
2019-07-12_115519:120,-0.334015,-0.060486,-0.371643,-0.000278,0.001477,0.0039689999999999994,-40.0,15.18,-20.68,3b
2019-07-12_115519:140,-0.33605999999999997,-0.065063,-0.37011700000000003,-0.000675,0.001599,0.00345,-40.0,15.18,-20.68,3b
2019-07-12_115519:160,-0.34265100000000004,-0.067108,-0.36654699999999996,-0.000797,0.001782,0.0027170000000000002,-40.369999,15.18,-21.5,3b
2019-07-12_115519:180,-0.346222,-0.07016,-0.364014,-0.000339,0.00285,0.003175,-40.369999,15.18,-21.5,3b
2019-07-12_115519:200,-0.34570300000000004,-0.072693,-0.363007,-0.00046100000000000004,0.004254,0.003053,-40.0,16.0,-19.18,3b
2019-07-12_115519:220,-0.331482,-0.075226,-0.35638400000000003,-0.000675,0.004986,0.002443,-40.0,16.0,-19.18,3b
2019-07-12_115519:240,-0.32486,-0.076263,-0.354858,-0.000156,0.004497999999999999,0.000917,-40.0,16.0,-19.18,3b
2019-07-12_115519:260,-0.330475,-0.0737,-0.34674099999999997,0.000302,0.003186,-0.0017989999999999998,-40.5,16.0,-20.0,3b
2019-07-12_115519:280,-0.335022,-0.070648,-0.34317,0.000851,0.001996,-0.004454,-40.5,16.0,-20.0,3b
2019-07-12_115519:300,-0.3396,-0.065582,-0.341644,0.001583,0.001141,-0.006437999999999999,-40.5,14.75,-20.0,3b
2019-07-12_115519:320,-0.335541,-0.063538,-0.3396,0.002163,0.000348,-0.007659,-40.5,14.75,-20.0,3b
2019-07-12_115519:340,-0.328949,-0.057953,-0.341644,0.002957,-0.00047599999999999997,-0.008574,-40.5,14.75,-20.0,3b
2019-07-12_115519:360,-0.335022,-0.052338,-0.34368899999999997,0.0033840000000000003,-0.002246,-0.008787999999999999,-41.25,15.18,-20.0,3b
2019-07-12_115519:380,-0.34570300000000004,-0.048279,-0.342163,0.0039030000000000002,-0.003589,-0.007903,-41.25,15.18,-20.0,3b
2019-07-12_115519:400,-0.347229,-0.046265,-0.340118,0.003628,-0.0037719999999999997,-0.0058579999999999995,-41.5,15.56,-20.0,3b
2019-07-12_115519:420,-0.34063699999999997,-0.046265,-0.341644,0.003353,-0.003925,-0.0034170000000000003,-41.5,15.56,-20.0,3b
2019-07-12_115519:440,-0.342163,-0.048279,-0.342163,0.002316,-0.004718,-0.000762,-41.5,15.56,-20.0,3b
2019-07-12_115519:460,-0.35791,-0.051330999999999995,-0.34317,0.001248,-0.0052369999999999995,0.001253,-41.869999,14.06,-19.5,3b
2019-07-12_115519:480,-0.36654699999999996,-0.050842,-0.339111,-0.0004,-0.004657,0.0019850000000000002,-41.869999,14.06,-19.5,3b
2019-07-12_115519:500,-0.35791,-0.05285599999999999,-0.335541,-0.002475,-0.002796,0.00345,-40.75,14.5,-19.18,3b
2019-07-12_115519:520,-0.349792,-0.055389,-0.33605999999999997,-0.004978,-0.001605,0.005189,-40.75,14.5,-19.18,3b
2019-07-12_115519:540,-0.333496,-0.065063,-0.342163,-0.007297,-0.002307,0.0067150000000000005,-40.75,14.5,-19.18,3b
2019-07-12_115519:560,-0.337067,-0.069122,-0.345215,-0.008762,-0.004566,0.005861,-41.18,14.5,-18.370001000000002,3b
2019-07-12_115519:580,-0.35436999999999996,-0.07016,-0.34317,-0.009006,-0.006092,0.001527,-41.18,14.5,-18.370001000000002,3b
2019-07-12_115519:600,-0.35638400000000003,-0.066071,-0.34317,-0.009006,-0.006336,-0.002532,-41.18,14.5,-19.18,3b
2019-07-12_115519:620,-0.353333,-0.063538,-0.34265100000000004,-0.007877,-0.005817,-0.002593,-41.18,14.5,-19.18,3b
2019-07-12_115519:640,-0.349274,-0.063538,-0.34317,-0.0065650000000000005,-0.004993,-0.001219,-41.18,14.5,-19.18,3b
2019-07-12_115519:660,-0.347229,-0.063019,-0.344177,-0.0051,-0.004961999999999999,-0.001738,-41.869999,14.75,-19.5,3b
2019-07-12_115519:680,-0.354858,-0.058441,-0.344696,-0.0032689999999999998,-0.0055119999999999995,-0.002989,-41.869999,14.75,-19.5,3b
2019-07-12_115519:700,-0.36349499999999996,-0.052338,-0.341644,-0.001529,-0.005451,-0.003722,-41.5,14.06,-18.75,3b
2019-07-12_115519:720,-0.361481,-0.048279,-0.338593,-0.000553,-0.004779,-0.0036,-41.5,14.06,-18.75,3b
2019-07-12_115519:740,-0.355377,-0.042694,-0.340118,-0.000675,-0.004108,-0.002135,-41.5,14.06,-18.75,3b
2019-07-12_115519:760,-0.35131799999999996,-0.044739,-0.339111,-0.001011,-0.003711,0.0008560000000000001,-41.18,14.5,-18.75,3b
2019-07-12_115519:780,-0.350281,-0.046265,-0.338593,-0.001743,-0.004108,0.001192,-41.18,14.5,-18.75,3b
2019-07-12_115519:800,-0.352844,-0.046752999999999996,-0.339111,-0.002933,-0.005176,-0.000426,-41.869999,13.37,-18.75,3b
2019-07-12_115519:820,-0.36044299999999996,-0.047272,-0.335022,-0.0036049999999999997,-0.00539,-0.000426,-41.869999,13.37,-18.75,3b
2019-07-12_115519:840,-0.36248800000000003,-0.048279,-0.334015,-0.00394,-0.004901,0.000123,-41.869999,13.37,-18.75,3b
2019-07-12_115519:860,-0.3508,-0.048798,-0.335541,-0.004612,-0.004444,-0.0009449999999999999,-43.0,13.37,-19.18,3b
2019-07-12_115519:880,-0.35131799999999996,-0.047272,-0.335541,-0.005039,-0.004718,-0.000609,-43.0,13.37,-19.18,3b
2019-07-12_115519:900,-0.35180700000000004,-0.049805,-0.338074,-0.005161,-0.005817,0.000398,-42.25,14.06,-18.370001000000002,3b
2019-07-12_115519:920,-0.35638400000000003,-0.048798,-0.331482,-0.005436,-0.006275,-0.000334,-42.25,14.06,-18.370001000000002,3b
2019-07-12_115519:940,-0.35131799999999996,-0.048279,-0.335022,-0.005436,-0.006275,-0.001341,-42.25,14.06,-18.370001000000002,3b
2019-07-12_115519:960,-0.338074,-0.047791,-0.33605999999999997,-0.005039,-0.006458,-0.0015550000000000002,-41.869999,13.75,-19.18,3b
2019-07-12_115519:980,-0.35180700000000004,-0.043701,-0.342163,-0.004612,-0.007801000000000001,-0.001402,-41.869999,13.75,-19.18,3b
2019-07-12_115520:000,-0.353851,-0.039642000000000004,-0.3396,-0.004520000000000001,-0.008990999999999999,-0.001891,-43.0,13.0,-19.18,3b
2019-07-12_115520:020,-0.366058,-0.032013,-0.337067,-0.004978,-0.008990999999999999,-0.002532,-43.0,13.0,-19.18,3b
2019-07-12_115520:040,-0.364014,-0.027435,-0.33605999999999997,-0.005893,-0.008014,-0.001891,-43.0,13.0,-19.18,3b
2019-07-12_115520:060,-0.35436999999999996,-0.028442000000000002,-0.33605999999999997,-0.007267,-0.006854000000000001,0.000459,-41.869999,12.25,-18.75,3b
2019-07-12_115520:080,-0.342163,-0.031494,-0.33758499999999997,-0.008487,-0.006336,0.002778,-41.869999,12.25,-18.75,3b
2019-07-12_115520:100,-0.34063699999999997,-0.034058,-0.34368899999999997,-0.009739,-0.007678,0.003572,-43.369999,13.37,-18.0,3b
2019-07-12_115520:120,-0.353851,-0.035065,-0.34317,-0.010196,-0.009876000000000001,0.0029620000000000002,-43.369999,13.37,-18.0,3b
2019-07-12_115520:140,-0.359955,-0.03302,-0.34265100000000004,-0.010471,-0.010394,0.002778,-43.369999,13.37,-18.0,3b
2019-07-12_115520:160,-0.35739099999999996,-0.035583,-0.344696,-0.010593,-0.009937,0.003572,-41.869999,12.25,-20.370001000000002,3b
2019-07-12_115520:180,-0.338074,-0.038116000000000004,-0.34674099999999997,-0.010868000000000001,-0.00838,0.004335,-41.869999,12.25,-20.370001000000002,3b
2019-07-12_115520:200,-0.349274,-0.038635,-0.356903,-0.010654,-0.008869,0.004213000000000001,-41.869999,13.0,-19.5,3b
2019-07-12_115520:220,-0.35436999999999996,-0.038116000000000004,-0.355896,-0.010288,-0.009937,0.003297,-41.869999,13.0,-19.5,3b
2019-07-12_115520:240,-0.363007,-0.033539,-0.352325,-0.009678,-0.00954,0.002565,-41.869999,13.0,-19.5,3b
2019-07-12_115520:260,-0.364532,-0.031006,-0.35131799999999996,-0.009281000000000001,-0.008075,0.002565,-42.68,12.25,-18.68,3b
2019-07-12_115520:280,-0.350281,-0.027954000000000003,-0.34570300000000004,-0.009006,-0.005725,0.003633,-42.68,12.25,-18.68,3b
2019-07-12_115520:300,-0.34265100000000004,-0.027954000000000003,-0.348267,-0.009159,-0.00484,0.00525,-41.869999,11.87,-18.68,3b
2019-07-12_115520:320,-0.33605999999999997,-0.028961,-0.346222,-0.009342,-0.005298,0.005586,-41.869999,11.87,-18.68,3b
2019-07-12_115520:340,-0.338593,-0.030487,-0.347229,-0.009556,-0.006670999999999999,0.005678,-41.869999,11.87,-18.68,3b
2019-07-12_115520:360,-0.340118,-0.031494,-0.345215,-0.009281000000000001,-0.008197,0.00525,-41.18,11.87,-19.18,3b
2019-07-12_115520:380,-0.347229,-0.031494,-0.347748,-0.008548,-0.008869,0.004671,-41.18,11.87,-19.18,3b
2019-07-12_115520:400,-0.346222,-0.03302,-0.35180700000000004,-0.007999,-0.008747,0.004152,-41.869999,12.56,-20.68,3b
2019-07-12_115520:420,-0.349792,-0.031494,-0.352844,-0.007755,-0.008411,0.002778,-41.869999,12.56,-20.68,3b
2019-07-12_115520:440,-0.3508,-0.027435,-0.354858,-0.007206000000000001,-0.0076170000000000005,0.0029620000000000002,-41.869999,12.56,-20.68,3b
2019-07-12_115520:460,-0.352844,-0.025421,-0.35638400000000003,-0.006626000000000001,-0.006731999999999999,0.0039689999999999994,-41.18,12.25,-20.0,3b
2019-07-12_115520:480,-0.3508,-0.022858,-0.356903,-0.0069,-0.005634,0.004152,-41.18,12.25,-20.0,3b
2019-07-12_115520:500,-0.34875500000000004,-0.021851,-0.35739099999999996,-0.007418999999999999,-0.005054,0.0037549999999999997,-41.869999,12.25,-20.0,3b
2019-07-12_115520:520,-0.34875500000000004,-0.019318000000000002,-0.35739099999999996,-0.007755,-0.0045049999999999995,0.004274,-41.869999,12.25,-20.0,3b
2019-07-12_115520:540,-0.3508,-0.020325,-0.356903,-0.007999,-0.00426,0.005067,-41.869999,12.25,-20.0,3b
2019-07-12_115520:560,-0.34570300000000004,-0.023375999999999997,-0.35180700000000004,-0.008152,-0.0037719999999999997,0.005647,-42.25,11.5,-20.68,3b
2019-07-12_115520:580,-0.346222,-0.025421,-0.352325,-0.007601999999999999,-0.003375,0.005647,-42.25,11.5,-20.68,3b
2019-07-12_115520:600,-0.346222,-0.026917,-0.352844,-0.006809,-0.003467,0.005189,-41.5,12.56,-19.5,3b
2019-07-12_115520:620,-0.34674099999999997,-0.026917,-0.349792,-0.005832,-0.003589,0.005128,-41.5,12.56,-19.5,3b
2019-07-12_115520:640,-0.349274,-0.029480000000000003,-0.350281,-0.004947,-0.003436,0.005647,-41.5,12.56,-19.5,3b
2019-07-12_115520:660,-0.349274,-0.029480000000000003,-0.349274,-0.003788,-0.0030399999999999997,0.005464,-41.5,11.87,-19.18,3b
2019-07-12_115520:680,-0.34875500000000004,-0.027954000000000003,-0.349274,-0.003055,-0.002857,0.004915,-41.5,11.87,-19.18,3b
2019-07-12_115520:700,-0.349274,-0.025908999999999998,-0.346222,-0.002536,-0.002918,0.004548,-41.5,11.87,-20.370001000000002,3b
2019-07-12_115520:720,-0.346222,-0.025421,-0.345215,-0.002353,-0.003711,0.004274,-41.5,11.87,-20.370001000000002,3b
2019-07-12_115520:740,-0.349274,-0.024902,-0.34570300000000004,-0.002414,-0.004229999999999999,0.004335,-41.5,11.87,-20.370001000000002,3b
2019-07-12_115520:760,-0.355377,-0.025421,-0.344696,-0.0027199999999999998,-0.004229999999999999,0.005586,-42.68,12.25,-18.75,3b
2019-07-12_115520:780,-0.355377,-0.027435,-0.34063699999999997,-0.00275,-0.003467,0.007326000000000001,-42.68,12.25,-18.75,3b
2019-07-12_115520:800,-0.36044299999999996,-0.028961,-0.34317,-0.0033299999999999996,-0.0032530000000000002,0.007265000000000001,-42.68,11.87,-18.75,3b
2019-07-12_115520:820,-0.35131799999999996,-0.030487,-0.34063699999999997,-0.0032689999999999998,-0.003589,0.005739,-42.68,11.87,-18.75,3b
2019-07-12_115520:840,-0.34570300000000004,-0.028961,-0.344177,-0.0036659999999999996,-0.005359,0.005678,-42.68,11.87,-18.75,3b
2019-07-12_115520:860,-0.344177,-0.028961,-0.34368899999999997,-0.003452,-0.006092,0.007965999999999999,-41.869999,11.87,-20.0,3b
2019-07-12_115520:880,-0.344696,-0.03302,-0.339111,-0.0032689999999999998,-0.007129000000000001,0.009126,-41.869999,11.87,-20.0,3b
2019-07-12_115520:900,-0.347748,-0.036591000000000005,-0.34317,-0.0033909999999999995,-0.007281999999999999,0.00818,-41.869999,11.5,-20.0,3b
2019-07-12_115520:920,-0.34674099999999997,-0.037108999999999996,-0.341644,-0.003483,-0.007587000000000001,0.007509,-41.869999,11.5,-20.0,3b
2019-07-12_115520:940,-0.34674099999999997,-0.038635,-0.342163,-0.003452,-0.008197,0.007265000000000001,-41.869999,11.5,-20.0,3b
2019-07-12_115520:960,-0.34570300000000004,-0.039642000000000004,-0.344177,-0.0037270000000000003,-0.008747,0.006593000000000001,-41.869999,12.56,-19.18,3b
2019-07-12_115520:980,-0.345215,-0.041168,-0.34265100000000004,-0.004123,-0.009448,0.006135,-41.869999,12.56,-19.18,3b
2019-07-12_115521:000,-0.34570300000000004,-0.041687,-0.347748,-0.004184,-0.010059,0.005861,-41.18,12.25,-19.5,3b
2019-07-12_115521:020,-0.349792,-0.043701,-0.347229,-0.004520000000000001,-0.009845,0.005922,-41.18,12.25,-19.5,3b
2019-07-12_115521:040,-0.34674099999999997,-0.046265,-0.347748,-0.004275999999999999,-0.009845,0.004609,-41.18,12.25,-19.5,3b
2019-07-12_115521:060,-0.344696,-0.046265,-0.35131799999999996,-0.0042450000000000005,-0.009845,0.003297,-41.869999,12.25,-20.0,3b
2019-07-12_115521:080,-0.344177,-0.044739,-0.35180700000000004,-0.003788,-0.010059,0.003694,-41.869999,12.25,-20.0,3b
2019-07-12_115521:100,-0.344177,-0.043701,-0.352844,-0.003483,-0.009876000000000001,0.004182,-41.869999,12.25,-20.0,3b
2019-07-12_115521:120,-0.348267,-0.041687,-0.35436999999999996,-0.004062,-0.009143,0.003633,-41.869999,12.25,-20.0,3b
2019-07-12_115521:140,-0.346222,-0.038635,-0.352844,-0.004612,-0.008319,0.0029620000000000002,-41.869999,12.25,-20.0,3b
2019-07-12_115521:160,-0.341644,-0.038635,-0.35739099999999996,-0.005222,-0.008716,0.002107,-41.5,12.56,-20.370001000000002,3b
2019-07-12_115521:180,-0.341644,-0.038635,-0.35638400000000003,-0.005436,-0.008533,0.001253,-41.5,12.56,-20.370001000000002,3b
2019-07-12_115521:200,-0.342163,-0.040161,-0.355896,-0.0052829999999999995,-0.00838,0.0005809999999999999,-41.18,12.25,-19.870001000000002,3b
2019-07-12_115521:220,-0.34265100000000004,-0.037598,-0.35436999999999996,-0.004642,-0.007984,0.0007639999999999999,-41.18,12.25,-19.870001000000002,3b
2019-07-12_115521:240,-0.341644,-0.037598,-0.356903,-0.004398,-0.008136,0.001192,-41.18,12.25,-19.870001000000002,3b
2019-07-12_115521:260,-0.342163,-0.037598,-0.355377,-0.004062,-0.007984,0.001375,-42.25,12.56,-20.370001000000002,3b
2019-07-12_115521:280,-0.34063699999999997,-0.035065,-0.355377,-0.003879,-0.0076170000000000005,0.001161,-42.25,12.56,-20.370001000000002,3b
2019-07-12_115521:300,-0.3396,-0.034058,-0.355377,-0.004062,-0.007801000000000001,0.000978,-41.5,12.56,-20.370001000000002,3b
2019-07-12_115521:320,-0.338593,-0.035583,-0.355896,-0.004062,-0.007465,0.0011,-41.5,12.56,-20.370001000000002,3b
2019-07-12_115521:340,-0.338593,-0.035065,-0.355377,-0.00394,-0.007678,0.001039,-41.5,12.56,-20.370001000000002,3b
2019-07-12_115521:360,-0.341644,-0.035065,-0.35739099999999996,-0.0036659999999999996,-0.007801000000000001,0.0007030000000000001,-41.5,13.0,-20.0,3b
2019-07-12_115521:380,-0.338074,-0.03302,-0.355377,-0.0033909999999999995,-0.008075,0.000123,-41.5,13.0,-20.0,3b
2019-07-12_115521:400,-0.336548,-0.028961,-0.35943600000000003,-0.003147,-0.008075,0.0007639999999999999,-41.869999,11.87,-19.5,3b
2019-07-12_115521:420,-0.34265100000000004,-0.028961,-0.359955,-0.003544,-0.00838,0.001253,-41.869999,11.87,-19.5,3b
2019-07-12_115521:440,-0.341644,-0.027954000000000003,-0.358429,-0.003879,-0.007587000000000001,0.001161,-41.869999,11.87,-19.5,3b
2019-07-12_115521:460,-0.34063699999999997,-0.026427999999999997,-0.361481,-0.004337,-0.007281999999999999,0.001527,-41.5,11.87,-21.18,3b
2019-07-12_115521:480,-0.339111,-0.026917,-0.361969,-0.004398,-0.007220999999999999,0.00229,-41.5,11.87,-21.18,3b
2019-07-12_115521:500,-0.337067,-0.026427999999999997,-0.36248800000000003,-0.004459,-0.0070680000000000005,0.0027170000000000002,-41.5,11.87,-20.0,3b
2019-07-12_115521:520,-0.340118,-0.026917,-0.36044299999999996,-0.004459,-0.006548999999999999,0.003175,-41.5,11.87,-20.0,3b
2019-07-12_115521:540,-0.33758499999999997,-0.025908999999999998,-0.359955,-0.004520000000000001,-0.005939,0.003572,-41.5,11.87,-20.0,3b
2019-07-12_115521:560,-0.334015,-0.027435,-0.361481,-0.004764,-0.005939,0.00403,-41.5,11.87,-20.68,3b
2019-07-12_115521:580,-0.33197,-0.028961,-0.36044299999999996,-0.004947,-0.006336,0.003908,-41.5,11.87,-20.68,3b
2019-07-12_115521:600,-0.33300799999999997,-0.031494,-0.361969,-0.004825,-0.006854000000000001,0.003694,-40.75,11.87,-21.18,3b
2019-07-12_115521:620,-0.335541,-0.031006,-0.36248800000000003,-0.004398,-0.006885,0.0038469999999999997,-40.75,11.87,-21.18,3b
2019-07-12_115521:640,-0.342163,-0.031494,-0.36248800000000003,-0.004001,-0.005878,0.004396,-40.75,11.87,-21.18,3b
2019-07-12_115521:660,-0.34063699999999997,-0.032532,-0.360962,-0.003788,-0.005298,0.003297,-41.18,12.25,-20.370001000000002,3b
2019-07-12_115521:680,-0.336548,-0.028442000000000002,-0.361969,-0.004337,-0.005054,0.001771,-41.18,12.25,-20.370001000000002,3b
2019-07-12_115521:700,-0.333496,-0.027954000000000003,-0.36248800000000003,-0.004398,-0.00539,0.00229,-41.5,11.5,-21.870001000000002,3b
2019-07-12_115521:720,-0.330475,-0.027954000000000003,-0.36044299999999996,-0.004703,-0.005725,0.002839,-41.5,11.5,-21.870001000000002,3b
2019-07-12_115521:740,-0.333496,-0.027435,-0.358917,-0.004947,-0.006,0.002565,-41.5,11.5,-21.870001000000002,3b
2019-07-12_115521:760,-0.337067,-0.025421,-0.35943600000000003,-0.0051,-0.006,0.0027170000000000002,-42.25,12.25,-20.370001000000002,3b
2019-07-12_115521:780,-0.337067,-0.025908999999999998,-0.358917,-0.005222,-0.005878,0.00345,-42.25,12.25,-20.370001000000002,3b
2019-07-12_115521:800,-0.337067,-0.024902,-0.36248800000000003,-0.005679999999999999,-0.005573,0.003053,-40.75,11.5,-20.370001000000002,3b
2019-07-12_115521:820,-0.33605999999999997,-0.022858,-0.361969,-0.006076,-0.005725,0.003114,-40.75,11.5,-20.370001000000002,3b
2019-07-12_115521:840,-0.33605999999999997,-0.023375999999999997,-0.361969,-0.0064730000000000005,-0.005756,0.0038469999999999997,-40.75,11.5,-20.370001000000002,3b
2019-07-12_115521:860,-0.33758499999999997,-0.024902,-0.36349499999999996,-0.006626000000000001,-0.005573,0.004182,-41.869999,11.5,-20.68,3b
2019-07-12_115521:880,-0.337067,-0.026917,-0.361969,-0.0067480000000000005,-0.005298,0.004182,-41.869999,11.5,-20.68,3b
2019-07-12_115521:900,-0.33758499999999997,-0.027435,-0.364014,-0.006626000000000001,-0.005176,0.004396,-41.869999,11.5,-20.68,3b
2019-07-12_115521:920,-0.33758499999999997,-0.029968,-0.361481,-0.005771,-0.0045049999999999995,0.004793,-41.5,11.87,-20.68,3b
2019-07-12_115521:940,-0.336548,-0.031494,-0.36248800000000003,-0.004978,-0.004566,0.004457,-41.5,11.87,-20.68,3b
2019-07-12_115521:960,-0.33605999999999997,-0.032532,-0.361481,-0.004337,-0.0045049999999999995,0.003908,-41.869999,11.87,-20.370001000000002,3b
2019-07-12_115521:980,-0.33758499999999997,-0.029968,-0.36044299999999996,-0.003788,-0.004566,0.0038469999999999997,-41.869999,11.87,-20.370001000000002,3b
2019-07-12_115522:000,-0.34063699999999997,-0.029480000000000003,-0.35943600000000003,-0.0032689999999999998,-0.004566,0.003694,-41.869999,11.06,-20.68,3b
2019-07-12_115522:020,-0.34265100000000004,-0.026917,-0.358429,-0.003452,-0.0037719999999999997,0.004396,-41.869999,11.06,-20.68,3b
2019-07-12_115522:040,-0.339111,-0.026427999999999997,-0.355896,-0.003544,-0.003833,0.004854,-41.869999,11.06,-20.68,3b
2019-07-12_115522:060,-0.341644,-0.027954000000000003,-0.358917,-0.004062,-0.0038640000000000002,0.004548,-41.5,11.5,-21.18,3b
2019-07-12_115522:080,-0.33758499999999997,-0.026917,-0.355377,-0.004581,-0.004321,0.002321,-41.5,11.5,-21.18,3b
2019-07-12_115522:100,-0.335541,-0.025908999999999998,-0.35791,-0.004581,-0.004596,0.0019850000000000002,-41.5,11.5,-21.18,3b
2019-07-12_115522:120,-0.335541,-0.024902,-0.356903,-0.004703,-0.00539,0.003297,-41.18,11.87,-19.5,3b
2019-07-12_115522:140,-0.334015,-0.026917,-0.35638400000000003,-0.004398,-0.0055119999999999995,0.004274,-41.18,11.87,-19.5,3b
2019-07-12_115522:160,-0.338593,-0.028442000000000002,-0.358917,-0.004184,-0.005634,0.0039689999999999994,-41.869999,11.5,-20.68,3b
2019-07-12_115522:180,-0.33758499999999997,-0.027435,-0.35739099999999996,-0.004275999999999999,-0.005817,0.003114,-41.869999,11.5,-20.68,3b
2019-07-12_115522:200,-0.33758499999999997,-0.025421,-0.35943600000000003,-0.004337,-0.006,0.003694,-41.18,12.25,-21.5,3b
2019-07-12_115522:220,-0.339111,-0.027435,-0.35943600000000003,-0.004184,-0.005817,0.004335,-41.18,12.25,-21.5,3b
2019-07-12_115522:240,-0.339111,-0.029480000000000003,-0.358429,-0.004184,-0.005817,0.004152,-41.18,12.25,-21.5,3b
2019-07-12_115522:260,-0.3396,-0.026917,-0.36044299999999996,-0.004123,-0.005878,0.002839,-41.869999,11.06,-20.68,3b
2019-07-12_115522:280,-0.33758499999999997,-0.024384,-0.36044299999999996,-0.004001,-0.005878,0.003358,-41.869999,11.06,-20.68,3b
2019-07-12_115522:300,-0.340118,-0.025421,-0.359955,-0.004123,-0.005878,0.003694,-41.5,10.75,-19.870001000000002,3b
2019-07-12_115522:320,-0.338593,-0.023375999999999997,-0.35943600000000003,-0.004520000000000001,-0.005573,0.003297,-41.5,10.75,-19.870001000000002,3b
2019-07-12_115522:340,-0.339111,-0.024384,-0.358917,-0.004581,-0.005634,0.004335,-41.5,10.75,-19.870001000000002,3b
2019-07-12_115522:360,-0.3396,-0.025421,-0.359955,-0.004398,-0.005359,0.004732,-41.5,11.5,-21.18,3b
2019-07-12_115522:380,-0.337067,-0.025908999999999998,-0.35739099999999996,-0.004642,-0.0055119999999999995,0.004091,-41.5,11.5,-21.18,3b
2019-07-12_115522:400,-0.33605999999999997,-0.025421,-0.35739099999999996,-0.004642,-0.005573,0.004091,-41.18,11.06,-21.5,3b
2019-07-12_115522:420,-0.337067,-0.026917,-0.35739099999999996,-0.004947,-0.005725,0.004732,-41.18,11.06,-21.5,3b
2019-07-12_115522:440,-0.338593,-0.029480000000000003,-0.358429,-0.004947,-0.005695,0.004671,-41.18,11.06,-21.5,3b
2019-07-12_115522:460,-0.339111,-0.029480000000000003,-0.35791,-0.004520000000000001,-0.005817,0.0038159999999999995,-41.869999,11.06,-20.68,3b
2019-07-12_115522:480,-0.3396,-0.029480000000000003,-0.35638400000000003,-0.004184,-0.005725,0.003694,-41.869999,11.06,-20.68,3b
2019-07-12_115522:500,-0.33605999999999997,-0.027435,-0.358917,-0.003483,-0.006214,0.003175,-41.869999,10.75,-20.370001000000002,3b
2019-07-12_115522:520,-0.334534,-0.023895,-0.358917,-0.0033299999999999996,-0.006214,0.003358,-41.869999,10.75,-20.370001000000002,3b
2019-07-12_115522:540,-0.33758499999999997,-0.023375999999999997,-0.359955,-0.00394,-0.006793,0.004274,-41.869999,10.75,-20.370001000000002,3b
2019-07-12_115522:560,-0.337067,-0.023375999999999997,-0.359955,-0.004184,-0.006793,0.004518,-41.869999,11.5,-20.370001000000002,3b
2019-07-12_115522:580,-0.342163,-0.025908999999999998,-0.36044299999999996,-0.005222,-0.006275,0.005006,-41.869999,11.5,-20.370001000000002,3b
2019-07-12_115522:600,-0.341644,-0.028442000000000002,-0.360962,-0.005344,-0.006,0.005128,-41.869999,11.06,-21.870001000000002,3b
2019-07-12_115522:620,-0.33758499999999997,-0.031494,-0.36044299999999996,-0.005161,-0.005634,0.004335,-41.869999,11.06,-21.870001000000002,3b
2019-07-12_115522:640,-0.33758499999999997,-0.032532,-0.36044299999999996,-0.004886,-0.005695,0.004091,-41.869999,11.06,-21.870001000000002,3b
2019-07-12_115522:660,-0.334534,-0.032013,-0.36044299999999996,-0.0042450000000000005,-0.0055119999999999995,0.0039689999999999994,-41.869999,10.75,-20.370001000000002,3b
2019-07-12_115522:680,-0.334534,-0.033539,-0.359955,-0.004001,-0.005695,0.004152,-41.869999,10.75,-20.370001000000002,3b
2019-07-12_115522:700,-0.3396,-0.029968,-0.36044299999999996,-0.003147,-0.005817,0.003694,-41.869999,10.75,-20.370001000000002,3b
2019-07-12_115522:720,-0.335541,-0.028442000000000002,-0.35943600000000003,-0.0033909999999999995,-0.005634,0.003114,-41.869999,10.75,-20.0,3b
2019-07-12_115522:740,-0.34317,-0.026917,-0.360962,-0.003452,-0.005573,0.0038159999999999995,-41.869999,10.75,-20.0,3b
2019-07-12_115522:760,-0.340118,-0.027954000000000003,-0.35943600000000003,-0.0037270000000000003,-0.0052369999999999995,0.0039689999999999994,-41.5,11.06,-21.18,3b
2019-07-12_115522:780,-0.335022,-0.027435,-0.35943600000000003,-0.004062,-0.004901,0.0029620000000000002,-41.5,11.06,-21.18,3b
2019-07-12_115522:800,-0.334015,-0.026917,-0.361969,-0.004062,-0.005298,0.002839,-41.5,10.37,-21.18,3b
2019-07-12_115522:820,-0.335541,-0.027954000000000003,-0.35943600000000003,-0.003849,-0.005176,0.00403,-41.5,10.37,-21.18,3b
2019-07-12_115522:840,-0.338593,-0.027954000000000003,-0.359955,-0.0037270000000000003,-0.0055119999999999995,0.004915,-41.5,10.37,-21.18,3b
2019-07-12_115522:860,-0.338074,-0.026917,-0.36044299999999996,-0.003788,-0.005115,0.004793,-41.869999,11.5,-19.5,3b
2019-07-12_115522:880,-0.33758499999999997,-0.027435,-0.359955,-0.004123,-0.004383,0.004671,-41.869999,11.5,-19.5,3b
2019-07-12_115522:900,-0.337067,-0.028961,-0.361481,-0.004398,-0.004321,0.004732,-41.869999,11.5,-19.5,3b
2019-07-12_115522:920,-0.3396,-0.032532,-0.36044299999999996,-0.004612,-0.0045049999999999995,0.004609,-41.869999,11.87,-21.18,3b
2019-07-12_115522:940,-0.33758499999999997,-0.034546,-0.35943600000000003,-0.004520000000000001,-0.004229999999999999,0.004182,-41.869999,11.87,-21.18,3b
2019-07-12_115522:960,-0.344696,-0.034546,-0.36044299999999996,-0.003879,-0.004321,0.004213000000000001,-41.5,11.87,-20.68,3b
2019-07-12_115522:980,-0.341125,-0.034058,-0.355377,-0.0033909999999999995,-0.0035280000000000003,0.004548,-41.5,11.87,-20.68,3b
2019-07-12_115523:000,-0.3396,-0.033539,-0.35791,-0.003055,-0.0035280000000000003,0.0034189999999999997,-41.5,11.87,-20.68,3b
2019-07-12_115523:020,-0.33758499999999997,-0.029968,-0.355896,-0.003116,-0.0035280000000000003,0.002687,-41.869999,12.25,-20.370001000000002,3b
2019-07-12_115523:040,-0.33758499999999997,-0.028961,-0.355377,-0.002811,-0.0038640000000000002,0.0038159999999999995,-41.869999,12.25,-20.370001000000002,3b
2019-07-12_115523:060,-0.33605999999999997,-0.027954000000000003,-0.356903,-0.003147,-0.004169,0.004182,-41.18,11.06,-21.18,3b
2019-07-12_115523:080,-0.339111,-0.027435,-0.353851,-0.004062,-0.004566,0.004182,-41.18,11.06,-21.18,3b
2019-07-12_115523:100,-0.341125,-0.031006,-0.354858,-0.004398,-0.004961999999999999,0.004793,-41.18,11.06,-21.18,3b
2019-07-12_115523:120,-0.34265100000000004,-0.032013,-0.35638400000000003,-0.004703,-0.005115,0.004945000000000001,-41.869999,11.06,-20.68,3b
2019-07-12_115523:140,-0.34317,-0.034546,-0.355377,-0.004764,-0.004779,0.004457,-41.869999,11.06,-20.68,3b
2019-07-12_115523:160,-0.34368899999999997,-0.034546,-0.355377,-0.004612,-0.004901,0.004457,-41.5,11.5,-20.68,3b
2019-07-12_115523:180,-0.34368899999999997,-0.034546,-0.353333,-0.004062,-0.004566,0.004732,-41.5,11.5,-20.68,3b
2019-07-12_115523:200,-0.34368899999999997,-0.03302,-0.353851,-0.003879,-0.004169,0.004335,-41.5,11.5,-20.68,3b
2019-07-12_115523:220,-0.341644,-0.032532,-0.35131799999999996,-0.003849,-0.004047,0.004274,-41.869999,11.06,-19.5,3b
2019-07-12_115523:240,-0.341125,-0.03302,-0.3508,-0.003879,-0.00426,0.004213000000000001,-41.869999,11.06,-19.5,3b
2019-07-12_115523:260,-0.338593,-0.031494,-0.35131799999999996,-0.004123,-0.004718,0.004091,-42.25,11.87,-19.870001000000002,3b
2019-07-12_115523:280,-0.339111,-0.03302,-0.350281,-0.004275999999999999,-0.005359,0.0037549999999999997,-42.25,11.87,-19.870001000000002,3b
2019-07-12_115523:300,-0.341125,-0.03302,-0.352844,-0.004764,-0.005756,0.0038469999999999997,-42.25,11.87,-19.870001000000002,3b
2019-07-12_115523:320,-0.342163,-0.035065,-0.352325,-0.004886,-0.0060609999999999995,0.003908,-41.5,12.25,-19.5,3b
2019-07-12_115523:340,-0.3396,-0.037108999999999996,-0.35180700000000004,-0.004978,-0.006275,0.003572,-41.5,12.25,-19.5,3b
2019-07-12_115523:360,-0.338593,-0.035583,-0.352844,-0.004581,-0.006397,0.0027170000000000002,-42.25,11.06,-20.0,3b
2019-07-12_115523:380,-0.334534,-0.034058,-0.354858,-0.004062,-0.007006999999999999,0.002382,-42.25,11.06,-20.0,3b
2019-07-12_115523:400,-0.341125,-0.032013,-0.355377,-0.003849,-0.007801000000000001,0.002168,-42.25,11.06,-20.0,3b
2019-07-12_115523:420,-0.341644,-0.028961,-0.35739099999999996,-0.004062,-0.007862000000000001,0.002382,-42.68,11.87,-19.870001000000002,3b
2019-07-12_115523:440,-0.342163,-0.030487,-0.356903,-0.004337,-0.007343000000000001,0.003053,-42.68,11.87,-19.870001000000002,3b
2019-07-12_115523:460,-0.341644,-0.03302,-0.358429,-0.004703,-0.00719,0.002382,-42.25,11.5,-21.059998999999998,3b
2019-07-12_115523:480,-0.34063699999999997,-0.03302,-0.35791,-0.004703,-0.006548999999999999,0.001375,-42.25,11.5,-21.059998999999998,3b
2019-07-12_115523:500,-0.34063699999999997,-0.032013,-0.361969,-0.004612,-0.006548999999999999,0.0007639999999999999,-42.25,11.5,-21.059998999999998,3b
2019-07-12_115523:520,-0.3396,-0.032013,-0.36044299999999996,-0.004001,-0.006670999999999999,0.001253,-41.18,11.5,-18.68,3b
2019-07-12_115523:540,-0.340118,-0.032013,-0.358429,-0.003116,-0.0060609999999999995,0.001832,-41.18,11.5,-18.68,3b
2019-07-12_115523:560,-0.339111,-0.028442000000000002,-0.358429,-0.002475,-0.0055119999999999995,0.001192,-41.869999,11.5,-20.68,3b
2019-07-12_115523:580,-0.337067,-0.026427999999999997,-0.356903,-0.002475,-0.0055119999999999995,0.0007639999999999999,-41.869999,11.5,-20.68,3b
2019-07-12_115523:600,-0.335022,-0.024902,-0.359955,-0.002536,-0.005725,0.001497,-41.869999,11.5,-20.68,3b
2019-07-12_115523:620,-0.337067,-0.025421,-0.359955,-0.002994,-0.006092,0.001893,-41.5,10.37,-21.059998999999998,3b
2019-07-12_115523:640,-0.338593,-0.024902,-0.36044299999999996,-0.003483,-0.0060609999999999995,0.0016489999999999999,-41.5,10.37,-21.059998999999998,3b
2019-07-12_115523:660,-0.344696,-0.026427999999999997,-0.35943600000000003,-0.004001,-0.005756,0.003114,-41.18,11.5,-20.370001000000002,3b
2019-07-12_115523:680,-0.341644,-0.028961,-0.35791,-0.003849,-0.005298,0.003511,-41.18,11.5,-20.370001000000002,3b
2019-07-12_115523:700,-0.341125,-0.030487,-0.358429,-0.0036659999999999996,-0.00484,0.003358,-41.18,11.5,-20.370001000000002,3b
2019-07-12_115523:720,-0.3396,-0.029480000000000003,-0.358429,-0.003544,-0.004901,0.002107,-41.869999,11.06,-20.370001000000002,3b
2019-07-12_115523:740,-0.338593,-0.029480000000000003,-0.35791,-0.0027199999999999998,-0.005054,0.0032359999999999997,-41.869999,11.06,-20.370001000000002,3b
2019-07-12_115523:760,-0.3396,-0.028961,-0.35943600000000003,-0.002536,-0.004993,0.0038159999999999995,-41.5,11.87,-20.68,3b
2019-07-12_115523:780,-0.3396,-0.027435,-0.35638400000000003,-0.002475,-0.004961999999999999,0.00345,-41.5,11.87,-20.68,3b
2019-07-12_115523:800,-0.3396,-0.026427999999999997,-0.35638400000000003,-0.002994,-0.005115,0.00345,-41.5,11.87,-20.68,3b
2019-07-12_115523:820,-0.341125,-0.026917,-0.35943600000000003,-0.003483,-0.005115,0.004091,-40.75,11.87,-19.18,3b
2019-07-12_115523:840,-0.34063699999999997,-0.029480000000000003,-0.356903,-0.003788,-0.004657,0.004335,-40.75,11.87,-19.18,3b
2019-07-12_115523:860,-0.341644,-0.031006,-0.358429,-0.003879,-0.004779,0.0038159999999999995,-41.869999,10.75,-20.68,3b
2019-07-12_115523:880,-0.339111,-0.032013,-0.355377,-0.0036049999999999997,-0.00484,0.00345,-41.869999,10.75,-20.68,3b
2019-07-12_115523:900,-0.338593,-0.032532,-0.35739099999999996,-0.003452,-0.005054,0.003694,-41.869999,10.75,-20.68,3b
2019-07-12_115523:920,-0.341125,-0.031494,-0.354858,-0.003208,-0.004961999999999999,0.004182,-42.25,11.5,-19.5,3b
2019-07-12_115523:940,-0.34063699999999997,-0.030487,-0.355896,-0.0033299999999999996,-0.004993,0.0038159999999999995,-42.25,11.5,-19.5,3b
2019-07-12_115523:960,-0.339111,-0.029968,-0.354858,-0.0036659999999999996,-0.0052369999999999995,0.003358,-42.25,11.5,-20.370001000000002,3b
2019-07-12_115523:980,-0.337067,-0.028961,-0.354858,-0.00394,-0.005573,0.003511,-42.25,11.5,-20.370001000000002,3b
2019-07-12_115524:000,-0.3396,-0.028961,-0.356903,-0.004184,-0.005634,0.0037549999999999997,-42.25,11.5,-20.370001000000002,3b
2019-07-12_115524:020,-0.339111,-0.029968,-0.35638400000000003,-0.0042450000000000005,-0.005725,0.004091,-42.68,11.06,-20.68,3b
2019-07-12_115524:040,-0.340118,-0.032532,-0.35638400000000003,-0.004581,-0.005756,0.004152,-42.68,11.06,-20.68,3b
2019-07-12_115524:060,-0.340118,-0.031006,-0.35638400000000003,-0.004398,-0.005817,0.003633,-41.5,10.75,-21.5,3b
2019-07-12_115524:080,-0.3396,-0.032013,-0.355896,-0.004459,-0.006,0.0037549999999999997,-41.5,10.75,-21.5,3b
2019-07-12_115524:100,-0.340118,-0.03302,-0.35739099999999996,-0.004184,-0.006,0.003694,-41.5,10.75,-21.5,3b
2019-07-12_115524:120,-0.341644,-0.031006,-0.355896,-0.003788,-0.006488,0.003114,-41.5,11.06,-19.5,3b
2019-07-12_115524:140,-0.344177,-0.029480000000000003,-0.35638400000000003,-0.00394,-0.005939,0.003633,-41.5,11.06,-19.5,3b
2019-07-12_115524:160,-0.342163,-0.028442000000000002,-0.355377,-0.004062,-0.005634,0.005189,-41.5,11.06,-20.0,3b
2019-07-12_115524:180,-0.34674099999999997,-0.032013,-0.358917,-0.004703,-0.005298,0.005525,-41.5,11.06,-20.0,3b
2019-07-12_115524:200,-0.34265100000000004,-0.031006,-0.355377,-0.005344,-0.004993,0.004457,-41.5,11.06,-20.0,3b
2019-07-12_115524:220,-0.340118,-0.031006,-0.35791,-0.005679999999999999,-0.004961999999999999,0.0038159999999999995,-41.18,11.87,-20.370001000000002,3b
2019-07-12_115524:240,-0.340118,-0.034058,-0.35638400000000003,-0.005436,-0.0055119999999999995,0.0039689999999999994,-41.18,11.87,-20.370001000000002,3b
2019-07-12_115524:260,-0.34063699999999997,-0.034546,-0.353851,-0.004947,-0.0055119999999999995,0.004457,-41.869999,11.06,-19.5,3b
2019-07-12_115524:280,-0.341125,-0.036591000000000005,-0.352325,-0.004459,-0.005054,0.004335,-41.869999,11.06,-19.5,3b
2019-07-12_115524:300,-0.339111,-0.035583,-0.35131799999999996,-0.003879,-0.005054,0.003694,-41.869999,11.06,-19.5,3b
2019-07-12_115524:320,-0.334015,-0.03302,-0.352325,-0.0036659999999999996,-0.005695,0.003053,-41.5,11.5,-19.870001000000002,3b
2019-07-12_115524:340,-0.332489,-0.031494,-0.352325,-0.003116,-0.006885,0.002687,-41.5,11.5,-19.870001000000002,3b
2019-07-12_115524:360,-0.336548,-0.028442000000000002,-0.35638400000000003,-0.0033299999999999996,-0.007923000000000001,0.002321,-41.869999,10.75,-21.5,3b
2019-07-12_115524:380,-0.33758499999999997,-0.027435,-0.355377,-0.0036049999999999997,-0.008014,0.002687,-41.869999,10.75,-21.5,3b
2019-07-12_115524:400,-0.346222,-0.028442000000000002,-0.358917,-0.004184,-0.007739,0.004091,-41.869999,10.75,-21.5,3b
2019-07-12_115524:420,-0.34317,-0.032532,-0.356903,-0.004337,-0.007129000000000001,0.0038159999999999995,-42.25,11.87,-20.370001000000002,3b
2019-07-12_115524:440,-0.341644,-0.030487,-0.358917,-0.004825,-0.006488,0.0025039999999999997,-42.25,11.87,-20.370001000000002,3b
2019-07-12_115524:460,-0.341125,-0.030487,-0.358917,-0.004703,-0.006214,0.003023,-42.25,10.75,-20.68,3b
2019-07-12_115524:480,-0.340118,-0.032532,-0.35791,-0.004459,-0.006092,0.004213000000000001,-42.25,10.75,-20.68,3b
2019-07-12_115524:500,-0.338593,-0.033539,-0.35791,-0.004459,-0.006092,0.00403,-42.25,10.75,-20.68,3b
2019-07-12_115524:520,-0.34063699999999997,-0.032532,-0.35638400000000003,-0.004642,-0.005939,0.0032359999999999997,-40.75,10.75,-19.870001000000002,3b
2019-07-12_115524:540,-0.337067,-0.031006,-0.355377,-0.004520000000000001,-0.005878,0.0034189999999999997,-40.75,10.75,-19.870001000000002,3b
2019-07-12_115524:560,-0.33605999999999997,-0.030487,-0.35638400000000003,-0.004764,-0.006092,0.003175,-42.25,11.06,-21.18,3b
2019-07-12_115524:580,-0.33605999999999997,-0.028961,-0.355377,-0.004947,-0.0060609999999999995,0.003358,-42.25,11.06,-21.18,3b
2019-07-12_115524:600,-0.34063699999999997,-0.031006,-0.356903,-0.004825,-0.006214,0.0038469999999999997,-42.25,11.06,-21.18,3b
2019-07-12_115524:620,-0.342163,-0.031006,-0.35943600000000003,-0.0051,-0.005817,0.003572,-42.25,11.5,-20.370001000000002,3b
2019-07-12_115524:640,-0.341644,-0.031494,-0.358917,-0.005497,-0.005695,0.0032359999999999997,-42.25,11.5,-20.370001000000002,3b
2019-07-12_115524:660,-0.341644,-0.029968,-0.358917,-0.005771,-0.005298,0.0037549999999999997,-41.18,10.37,-20.370001000000002,3b
2019-07-12_115524:680,-0.344177,-0.032013,-0.359955,-0.005893,-0.00484,0.004457,-41.18,10.37,-20.370001000000002,3b
2019-07-12_115524:700,-0.34317,-0.032532,-0.35791,-0.0061070000000000004,-0.0045049999999999995,0.004182,-41.18,10.37,-20.370001000000002,3b
2019-07-12_115524:720,-0.340118,-0.032532,-0.35638400000000003,-0.006229,-0.004321,0.004396,-41.869999,11.06,-19.18,3b
2019-07-12_115524:740,-0.3396,-0.034058,-0.354858,-0.0061070000000000004,-0.004321,0.004335,-41.869999,11.06,-19.18,3b
2019-07-12_115524:760,-0.338074,-0.03302,-0.354858,-0.006168,-0.0045049999999999995,0.003633,-41.869999,11.06,-20.0,3b
2019-07-12_115524:780,-0.336548,-0.031494,-0.35436999999999996,-0.005893,-0.005115,0.003511,-41.869999,11.06,-20.0,3b
2019-07-12_115524:800,-0.33300799999999997,-0.030487,-0.355896,-0.005893,-0.005451,0.004091,-41.869999,11.06,-20.0,3b
2019-07-12_115524:820,-0.338593,-0.030487,-0.35791,-0.006076,-0.006275,0.003572,-41.18,11.5,-20.370001000000002,3b
2019-07-12_115524:840,-0.341125,-0.027954000000000003,-0.35638400000000003,-0.0065650000000000005,-0.006336,0.0029,-41.18,11.5,-20.370001000000002,3b
2019-07-12_115524:860,-0.34265100000000004,-0.027435,-0.356903,-0.006504,-0.0060609999999999995,0.003511,-41.5,10.75,-22.370001000000002,3b
2019-07-12_115524:880,-0.34570300000000004,-0.023895,-0.358917,-0.0069,-0.005573,0.003511,-41.5,10.75,-22.370001000000002,3b
2019-07-12_115524:900,-0.34265100000000004,-0.022858,-0.35791,-0.007358,-0.005359,0.0019850000000000002,-41.5,10.75,-22.370001000000002,3b
2019-07-12_115524:920,-0.34317,-0.01828,-0.36044299999999996,-0.00748,-0.005176,0.001436,-42.25,10.75,-20.370001000000002,3b
2019-07-12_115524:940,-0.34570300000000004,-0.016266,-0.359955,-0.007601999999999999,-0.004993,0.002565,-42.25,10.75,-20.370001000000002,3b
2019-07-12_115524:960,-0.34570300000000004,-0.015228,-0.35791,-0.007937999999999999,-0.004566,0.003908,-41.869999,11.06,-20.68,3b
2019-07-12_115524:980,-0.34875500000000004,-0.013213999999999998,-0.35638400000000003,-0.008609,-0.0038640000000000002,0.004518,-41.869999,11.06,-20.68,3b
2019-07-12_115525:000,-0.340118,-0.011687999999999999,-0.354858,-0.00922,-0.0030399999999999997,0.004793,-41.869999,11.06,-20.68,3b
2019-07-12_115525:020,-0.337067,-0.009125,-0.352844,-0.010013,-0.0032530000000000002,0.004793,-41.869999,10.37,-19.5,3b
2019-07-12_115525:040,-0.337067,-0.007599,-0.35436999999999996,-0.011142,-0.00365,0.005586,-41.869999,10.37,-19.5,3b
2019-07-12_115525:060,-0.334015,-0.010162000000000001,-0.352325,-0.011997,-0.0045049999999999995,0.006776000000000001,-42.68,10.0,-20.370001000000002,3b
2019-07-12_115525:080,-0.3396,-0.010651,-0.35436999999999996,-0.012454999999999999,-0.0052369999999999995,0.00757,-42.68,10.0,-20.370001000000002,3b
2019-07-12_115525:100,-0.342163,-0.014740000000000001,-0.353851,-0.013065,-0.005176,0.008638,-42.68,10.0,-20.370001000000002,3b
2019-07-12_115525:120,-0.346222,-0.01828,-0.355896,-0.012729,-0.005176,0.008699,-41.18,9.56,-20.68,3b
2019-07-12_115525:140,-0.341644,-0.019318000000000002,-0.358917,-0.012394,-0.004961999999999999,0.007905,-41.18,9.56,-20.68,3b
2019-07-12_115525:160,-0.338593,-0.020844,-0.35739099999999996,-0.0116,-0.004901,0.008333,-41.869999,10.37,-20.370001000000002,3b
2019-07-12_115525:180,-0.34265100000000004,-0.023375999999999997,-0.36044299999999996,-0.010593,-0.004993,0.009309,-41.869999,10.37,-20.370001000000002,3b
2019-07-12_115525:200,-0.345215,-0.023375999999999997,-0.359955,-0.0098,-0.004566,0.008851000000000001,-41.869999,10.37,-20.370001000000002,3b
2019-07-12_115525:220,-0.347229,-0.021332,-0.358429,-0.009403,-0.00426,0.007387,-41.5,10.0,-20.68,3b
2019-07-12_115525:240,-0.347748,-0.019806,-0.35638400000000003,-0.008823000000000001,-0.0031309999999999997,0.007448000000000001,-41.5,10.0,-20.68,3b
2019-07-12_115525:260,-0.34674099999999997,-0.017273,-0.354858,-0.008487,-0.002643,0.008302,-42.25,10.0,-20.370001000000002,3b
2019-07-12_115525:280,-0.34063699999999997,-0.016266,-0.353851,-0.008762,-0.002643,0.008058,-42.25,10.0,-20.370001000000002,3b
2019-07-12_115525:300,-0.338074,-0.015747,-0.352844,-0.00922,-0.0030399999999999997,0.008058,-42.25,10.0,-20.370001000000002,3b
2019-07-12_115525:320,-0.341644,-0.015228,-0.352844,-0.009617,-0.00365,0.008638,-41.5,10.37,-21.5,3b
2019-07-12_115525:340,-0.347229,-0.018799,-0.35180700000000004,-0.009951999999999999,-0.003925,0.008333,-41.5,10.37,-21.5,3b
2019-07-12_115525:360,-0.347229,-0.01828,-0.350281,-0.009922,-0.0038640000000000002,0.007661,-41.18,10.75,-20.68,3b
2019-07-12_115525:380,-0.34265100000000004,-0.017273,-0.35180700000000004,-0.009678,-0.003589,0.008058,-41.18,10.75,-20.68,3b
2019-07-12_115525:400,-0.341644,-0.021332,-0.354858,-0.00922,-0.004108,0.009096,-41.18,10.75,-20.68,3b
2019-07-12_115525:420,-0.345215,-0.019318000000000002,-0.353333,-0.008762,-0.004383,0.008302,-41.18,11.06,-20.0,3b
2019-07-12_115525:440,-0.35436999999999996,-0.017792,-0.353333,-0.008334999999999999,-0.004566,0.0069900000000000006,-41.18,11.06,-20.0,3b
2019-07-12_115525:460,-0.3508,-0.014221000000000001,-0.349792,-0.007937999999999999,-0.0037719999999999997,0.006868000000000001,-41.5,10.37,-20.0,3b
2019-07-12_115525:480,-0.346222,-0.015747,-0.349274,-0.007755,-0.0032530000000000002,0.007997,-41.5,10.37,-20.0,3b
2019-07-12_115525:500,-0.35131799999999996,-0.015747,-0.349274,-0.00748,-0.003833,0.009126,-41.5,10.37,-20.0,3b
2019-07-12_115525:520,-0.352325,-0.016753999999999998,-0.345215,-0.0069,-0.003711,0.009309,-41.5,10.75,-20.0,3b
2019-07-12_115525:540,-0.355896,-0.017792,-0.344696,-0.006229,-0.003833,0.008058,-41.5,10.75,-20.0,3b
2019-07-12_115525:560,-0.349792,-0.016753999999999998,-0.34317,-0.005679999999999999,-0.003314,0.006837,-42.25,11.87,-20.68,3b
2019-07-12_115525:580,-0.344177,-0.014740000000000001,-0.341644,-0.005344,-0.003833,0.0067150000000000005,-42.25,11.87,-20.68,3b
2019-07-12_115525:600,-0.338593,-0.014740000000000001,-0.34265100000000004,-0.005039,-0.004901,0.008302,-42.25,11.87,-20.68,3b
2019-07-12_115525:620,-0.335541,-0.019806,-0.342163,-0.004581,-0.006854000000000001,0.009858,-42.25,11.5,-20.370001000000002,3b
2019-07-12_115525:640,-0.339111,-0.023375999999999997,-0.344177,-0.003849,-0.008990999999999999,0.009645,-42.25,11.5,-20.370001000000002,3b
2019-07-12_115525:660,-0.34570300000000004,-0.025421,-0.344177,-0.002536,-0.010333,0.008333,-42.25,11.5,-21.059998999999998,3b
2019-07-12_115525:680,-0.34063699999999997,-0.025421,-0.34265100000000004,-0.001407,-0.010669,0.00757,-42.25,11.5,-21.059998999999998,3b
2019-07-12_115525:700,-0.339111,-0.026427999999999997,-0.3508,-0.000217,-0.010974,0.008119,-42.25,11.5,-21.059998999999998,3b
2019-07-12_115525:720,-0.330963,-0.021851,-0.35131799999999996,0.000302,-0.01073,0.009309,-41.5,11.06,-20.68,3b
2019-07-12_115525:740,-0.327911,-0.023375999999999997,-0.35943600000000003,-0.000339,-0.011066,0.010835,-41.5,11.06,-20.68,3b
2019-07-12_115525:760,-0.330963,-0.024902,-0.363007,-0.0013460000000000002,-0.011585,0.012147,-41.18,11.87,-20.0,3b
2019-07-12_115525:780,-0.33605999999999997,-0.031494,-0.36654699999999996,-0.0027199999999999998,-0.011646,0.013032,-41.18,11.87,-20.0,3b
2019-07-12_115525:800,-0.339111,-0.035065,-0.368073,-0.0037270000000000003,-0.011188,0.013307,-41.18,11.87,-20.0,3b
2019-07-12_115525:820,-0.341125,-0.038635,-0.37011700000000003,-0.004459,-0.01012,0.012178,-41.5,12.56,-20.68,3b
2019-07-12_115525:840,-0.34265100000000004,-0.042694,-0.369598,-0.004764,-0.008533,0.01111,-41.5,12.56,-20.68,3b
2019-07-12_115525:860,-0.34265100000000004,-0.046265,-0.36911,-0.004123,-0.007129000000000001,0.010316,-40.369999,13.0,-21.18,3b
2019-07-12_115525:880,-0.34317,-0.047791,-0.36554000000000003,-0.003116,-0.005939,0.008699,-40.369999,13.0,-21.18,3b
2019-07-12_115525:900,-0.33758499999999997,-0.048798,-0.361969,-0.0018039999999999998,-0.005176,0.0076,-40.369999,13.0,-21.18,3b
2019-07-12_115525:920,-0.334015,-0.048798,-0.360962,0.000302,-0.004961999999999999,0.007722,-41.5,13.37,-21.18,3b
2019-07-12_115525:940,-0.334534,-0.047272,-0.35943600000000003,0.0018280000000000002,-0.006275,0.008333,-41.5,13.37,-21.18,3b
2019-07-12_115525:960,-0.33197,-0.046752999999999996,-0.36044299999999996,0.002987,-0.007801000000000001,0.007997,-41.18,12.56,-20.370001000000002,3b
2019-07-12_115525:980,-0.331482,-0.046752999999999996,-0.356903,0.0033840000000000003,-0.008990999999999999,0.007265000000000001,-41.18,12.56,-20.370001000000002,3b
2019-07-12_115526:000,-0.328949,-0.046752999999999996,-0.358917,0.003353,-0.009509,0.006776000000000001,-41.18,12.56,-20.370001000000002,3b
2019-07-12_115526:020,-0.326385,-0.049805,-0.358917,0.003109,-0.009998,0.006441,-40.369999,12.56,-20.68,3b
2019-07-12_115526:040,-0.323853,-0.050323,-0.358429,0.0023769999999999998,-0.010639000000000001,0.005647,-40.369999,12.56,-20.68,3b
2019-07-12_115526:060,-0.316742,-0.051330999999999995,-0.361969,0.00198,-0.010791,0.00403,-41.869999,13.37,-21.18,3b
2019-07-12_115526:080,-0.311646,-0.050323,-0.36554000000000003,0.001309,-0.011524,0.001893,-41.869999,13.37,-21.18,3b
2019-07-12_115526:100,-0.327911,-0.046752999999999996,-0.374695,0.000515,-0.012653,0.000184,-41.869999,13.37,-21.18,3b
2019-07-12_115526:120,-0.330475,-0.044739,-0.377228,-0.000217,-0.011859,-0.000334,-40.75,13.37,-21.18,3b
2019-07-12_115526:140,-0.34317,-0.042175,-0.378265,-0.001011,-0.01073,-9e-05,-40.75,13.37,-21.18,3b
2019-07-12_115526:160,-0.345215,-0.038635,-0.379272,-0.001865,-0.007923000000000001,0.0008560000000000001,-40.0,13.75,-21.5,3b
2019-07-12_115526:180,-0.344696,-0.035583,-0.377228,-0.002933,-0.005573,0.002565,-40.0,13.75,-21.5,3b
2019-07-12_115526:200,-0.344177,-0.034546,-0.375702,-0.004337,-0.003436,0.005189,-40.0,13.75,-21.5,3b
2019-07-12_115526:220,-0.326904,-0.036591000000000005,-0.36654699999999996,-0.005954,-0.0009339999999999999,0.007051000000000001,-40.0,13.37,-22.370001000000002,3b
2019-07-12_115526:240,-0.322845,-0.036591000000000005,-0.364014,-0.007999,-0.000263,0.008454999999999999,-40.0,13.37,-22.370001000000002,3b
2019-07-12_115526:260,-0.318756,-0.041687,-0.36044299999999996,-0.009861,-4.9e-05,0.010957,-41.18,13.75,-20.68,3b
2019-07-12_115526:280,-0.318756,-0.047272,-0.35739099999999996,-0.011539,-0.00038500000000000003,0.01291,-41.18,13.75,-20.68,3b
2019-07-12_115526:300,-0.322327,-0.052338,-0.358429,-0.013125999999999999,-0.001178,0.013368000000000001,-41.18,13.75,-20.68,3b
2019-07-12_115526:320,-0.324371,-0.056915,-0.360962,-0.014438,-0.002857,0.01349,-40.369999,13.75,-21.18,3b
2019-07-12_115526:340,-0.323853,-0.06253099999999999,-0.36248800000000003,-0.014774,-0.004961999999999999,0.013368000000000001,-40.369999,13.75,-21.18,3b
2019-07-12_115526:360,-0.322845,-0.067596,-0.364532,-0.014469,-0.007526000000000001,0.01169,-40.75,13.37,-20.68,3b
2019-07-12_115526:380,-0.325897,-0.069122,-0.366058,-0.013706,-0.008716,0.008638,-40.75,13.37,-20.68,3b
2019-07-12_115526:400,-0.321808,-0.069122,-0.36706500000000003,-0.012272,-0.009143,0.005678,-40.75,13.37,-20.68,3b
2019-07-12_115526:420,-0.320801,-0.066589,-0.37112399999999995,-0.010288,-0.008594,0.0037549999999999997,-40.369999,13.75,-21.870001000000002,3b
2019-07-12_115526:440,-0.322327,-0.05996699999999999,-0.37316900000000003,-0.008029999999999999,-0.007862000000000001,0.001192,-40.369999,13.75,-21.870001000000002,3b
2019-07-12_115526:460,-0.323334,-0.049805,-0.373688,-0.00629,-0.007343000000000001,-0.00186,-40.75,13.75,-22.370001000000002,3b
2019-07-12_115526:480,-0.330475,-0.040649,-0.375702,-0.0052829999999999995,-0.006793,-0.002928,-40.75,13.75,-22.370001000000002,3b
2019-07-12_115526:500,-0.332489,-0.033539,-0.376221,-0.004398,-0.005756,-0.002471,-40.75,13.75,-22.370001000000002,3b
2019-07-12_115526:520,-0.338593,-0.023895,-0.37674,-0.004520000000000001,-0.0045049999999999995,-0.00186,-40.75,14.06,-20.370001000000002,3b
2019-07-12_115526:540,-0.342163,-0.01828,-0.375214,-0.005222,-0.0031309999999999997,-2.8999999999999997e-05,-40.75,14.06,-20.370001000000002,3b
2019-07-12_115526:560,-0.347748,-0.013702,-0.37112399999999995,-0.0064730000000000005,-0.000995,0.0038159999999999995,-40.0,13.37,-21.5,3b
2019-07-12_115526:580,-0.347229,-0.013702,-0.366058,-0.008091,0.001263,0.008394,-40.0,13.37,-21.5,3b
2019-07-12_115526:600,-0.344177,-0.015747,-0.36044299999999996,-0.010409999999999999,0.002972,0.011903,-40.0,13.37,-21.5,3b
2019-07-12_115526:620,-0.340118,-0.01828,-0.355896,-0.012577,0.003796,0.014740999999999999,-40.75,13.75,-21.059998999999998,3b
2019-07-12_115526:640,-0.33197,-0.025908999999999998,-0.35180700000000004,-0.014774,0.003979,0.017213,-40.75,13.75,-21.059998999999998,3b
2019-07-12_115526:660,-0.33300799999999997,-0.032013,-0.348267,-0.0163,0.003125,0.018953,-40.369999,13.75,-21.870001000000002,3b
2019-07-12_115526:680,-0.33758499999999997,-0.041168,-0.35131799999999996,-0.017307,0.001996,0.020265000000000002,-40.369999,13.75,-21.870001000000002,3b
2019-07-12_115526:700,-0.338593,-0.046265,-0.35131799999999996,-0.017703999999999998,0.00047000000000000004,0.021119,-40.369999,13.75,-21.870001000000002,3b
2019-07-12_115526:720,-0.334534,-0.05285599999999999,-0.349274,-0.017490000000000002,-0.0009339999999999999,0.020662,-40.0,13.75,-21.5,3b
2019-07-12_115526:740,-0.335541,-0.053863999999999995,-0.35131799999999996,-0.016636,-0.002857,0.019594,-40.0,13.75,-21.5,3b
2019-07-12_115526:760,-0.342163,-0.058960000000000005,-0.353333,-0.015444999999999999,-0.004596,0.018739,-40.75,14.75,-21.5,3b
2019-07-12_115526:780,-0.344696,-0.05996699999999999,-0.353333,-0.013919999999999998,-0.0055119999999999995,0.017671,-40.75,14.75,-21.5,3b
2019-07-12_115526:800,-0.345215,-0.058441,-0.35180700000000004,-0.012333,-0.005054,0.015747999999999998,-40.75,14.75,-21.5,3b
2019-07-12_115526:820,-0.34570300000000004,-0.055389,-0.353333,-0.011081,-0.004321,0.012971000000000002,-40.369999,14.75,-20.370001000000002,3b
2019-07-12_115526:840,-0.334015,-0.052338,-0.347748,-0.010013,-0.0035280000000000003,0.010376999999999999,-40.369999,14.75,-20.370001000000002,3b
2019-07-12_115526:860,-0.323334,-0.048798,-0.34875500000000004,-0.009556,-0.00307,0.007722,-40.369999,15.18,-20.370001000000002,3b
2019-07-12_115526:880,-0.314697,-0.046265,-0.348267,-0.009159,-0.00426,0.006257,-40.369999,15.18,-20.370001000000002,3b
2019-07-12_115526:900,-0.314178,-0.046752999999999996,-0.350281,-0.008334999999999999,-0.006488,0.005586,-40.369999,15.18,-20.370001000000002,3b
2019-07-12_115526:920,-0.325897,-0.045226999999999996,-0.35436999999999996,-0.007541,-0.008533,0.004152,-40.0,15.56,-21.870001000000002,3b
2019-07-12_115526:940,-0.330963,-0.040649,-0.35638400000000003,-0.006687,-0.01012,0.002565,-40.0,15.56,-21.870001000000002,3b
2019-07-12_115526:960,-0.336548,-0.035583,-0.356903,-0.005771,-0.009998,0.001924,-41.18,14.5,-20.68,3b
2019-07-12_115526:980,-0.33605999999999997,-0.032532,-0.356903,-0.0052829999999999995,-0.009265,0.002229,-41.18,14.5,-20.68,3b
2019-07-12_115527:000,-0.335022,-0.028442000000000002,-0.365021,-0.005344,-0.008808,0.003358,-41.18,14.5,-20.68,3b
2019-07-12_115527:020,-0.3396,-0.025908999999999998,-0.367584,-0.005497,-0.009326000000000001,0.004793,-40.0,14.5,-21.059998999999998,3b
2019-07-12_115527:040,-0.347748,-0.025421,-0.36911,-0.0065650000000000005,-0.009845,0.006837,-40.0,14.5,-21.059998999999998,3b
2019-07-12_115527:060,-0.35131799999999996,-0.027954000000000003,-0.367584,-0.008274,-0.008716,0.008973,-39.68,15.18,-20.68,3b
2019-07-12_115527:080,-0.34570300000000004,-0.027954000000000003,-0.364014,-0.009006,-0.008014,0.009584,-39.68,15.18,-20.68,3b
2019-07-12_115527:100,-0.337067,-0.032013,-0.367584,-0.011478,-0.006945999999999999,0.012758,-39.68,15.18,-20.68,3b
2019-07-12_115527:120,-0.335541,-0.040161,-0.364014,-0.012516,-0.0066099999999999996,0.013826,-39.25,14.75,-22.370001000000002,3b
2019-07-12_115527:140,-0.336548,-0.045226999999999996,-0.361481,-0.013004,-0.006275,0.01349,-39.25,14.75,-22.370001000000002,3b
2019-07-12_115527:160,-0.330475,-0.050842,-0.35791,-0.012729,-0.005451,0.013276,-39.68,14.75,-21.870001000000002,3b
2019-07-12_115527:180,-0.325897,-0.05438200000000001,-0.35436999999999996,-0.011722,-0.0060609999999999995,0.012483,-39.68,14.75,-21.870001000000002,3b
2019-07-12_115527:200,-0.320282,-0.057434000000000006,-0.35791,-0.010806999999999999,-0.007526000000000001,0.010164,-39.68,14.75,-21.870001000000002,3b
2019-07-12_115527:220,-0.318268,-0.056427,-0.360962,-0.009556,-0.009662,0.007112,-40.0,15.18,-21.5,3b
2019-07-12_115527:240,-0.317749,-0.057434000000000006,-0.361969,-0.008274,-0.011188,0.004091,-40.0,15.18,-21.5,3b
2019-07-12_115527:260,-0.316742,-0.05438200000000001,-0.36349499999999996,-0.00687,-0.012165,0.001771,-40.0,15.56,-21.5,3b
2019-07-12_115527:280,-0.31723,-0.05285599999999999,-0.36706500000000003,-0.005039,-0.012317,-0.000273,-40.0,15.56,-21.5,3b
2019-07-12_115527:300,-0.319275,-0.051330999999999995,-0.37011700000000003,-0.0033299999999999996,-0.012592,-0.003325,-40.0,15.56,-21.5,3b
2019-07-12_115527:320,-0.32486,-0.045226999999999996,-0.37265,-0.0013460000000000002,-0.011859,-0.005736,-38.5,15.18,-22.370001000000002,3b
2019-07-12_115527:340,-0.327423,-0.040161,-0.371643,0.00079,-0.011035,-0.006652,-38.5,15.18,-22.370001000000002,3b
2019-07-12_115527:360,-0.328949,-0.031006,-0.374176,0.002163,-0.009448,-0.006529000000000001,-39.68,15.18,-21.5,3b
2019-07-12_115527:380,-0.331482,-0.025421,-0.37265,0.0028350000000000003,-0.00838,-0.005582999999999999,-39.68,15.18,-21.5,3b
2019-07-12_115527:400,-0.335022,-0.017792,-0.377228,0.002499,-0.008258,-0.002989,-39.68,15.18,-21.5,3b
2019-07-12_115527:420,-0.342163,-0.014740000000000001,-0.377228,0.0017050000000000001,-0.008136,6.2e-05,-39.25,14.75,-22.68,3b
2019-07-12_115527:440,-0.341125,-0.013213999999999998,-0.377747,-0.000553,-0.007984,0.001771,-39.25,14.75,-22.68,3b
2019-07-12_115527:460,-0.338074,-0.012177,-0.374176,-0.002933,-0.007587000000000001,0.0025039999999999997,-39.68,14.06,-22.370001000000002,3b
2019-07-12_115527:480,-0.332489,-0.014740000000000001,-0.371643,-0.005375,-0.007220999999999999,0.004548,-39.68,14.06,-22.370001000000002,3b
2019-07-12_115527:500,-0.32995599999999997,-0.020325,-0.370636,-0.007633,-0.007220999999999999,0.007905,-39.68,14.06,-22.370001000000002,3b
2019-07-12_115527:520,-0.327911,-0.033539,-0.364014,-0.008945,-0.006488,0.010164,-38.869999,14.5,-23.059998999999998,3b
2019-07-12_115527:540,-0.322845,-0.040649,-0.35739099999999996,-0.009128,-0.0060609999999999995,0.010042,-38.869999,14.5,-23.059998999999998,3b
2019-07-12_115527:560,-0.313171,-0.042175,-0.354858,-0.008762,-0.00539,0.009431,-39.68,14.5,-22.370001000000002,3b
2019-07-12_115527:580,-0.310638,-0.044219999999999995,-0.350281,-0.008152,-0.004993,0.009858,-39.68,14.5,-22.370001000000002,3b
2019-07-12_115527:600,-0.301483,-0.043213,-0.355377,-0.00748,-0.0060609999999999995,0.011049,-39.68,14.5,-22.370001000000002,3b
2019-07-12_115527:620,-0.29995700000000003,-0.045226999999999996,-0.36044299999999996,-0.00748,-0.009265,0.010225,-38.869999,14.5,-22.68,3b
2019-07-12_115527:640,-0.305542,-0.046265,-0.374176,-0.0076939999999999995,-0.013628999999999999,0.008302,-38.869999,14.5,-22.68,3b
2019-07-12_115527:660,-0.310638,-0.046265,-0.382324,-0.007418999999999999,-0.017108,0.005311,-38.869999,14.75,-22.68,3b
2019-07-12_115527:680,-0.32995599999999997,-0.046265,-0.392487,-0.007023000000000001,-0.018482,0.000917,-38.869999,14.75,-22.68,3b
2019-07-12_115527:700,-0.34063699999999997,-0.041168,-0.39859,-0.0069,-0.016040000000000002,-0.002593,-38.869999,14.75,-22.68,3b
2019-07-12_115527:720,-0.34674099999999997,-0.037108999999999996,-0.40063499999999996,-0.006962,-0.011524,-0.0014939999999999999,-38.5,14.75,-23.5,3b
2019-07-12_115527:740,-0.347748,-0.034546,-0.40011599999999997,-0.0067480000000000005,-0.006336,-0.000151,-38.5,14.75,-23.5,3b
2019-07-12_115527:760,-0.341125,-0.032532,-0.389954,-0.007206000000000001,-0.001666,-0.001067,-38.5,14.06,-23.059998999999998,3b
2019-07-12_115527:780,-0.33300799999999997,-0.026917,-0.384338,-0.007541,0.001446,-0.000731,-38.5,14.06,-23.059998999999998,3b
2019-07-12_115527:800,-0.31369,-0.025908999999999998,-0.37265,-0.007755,0.002911,0.001497,-38.5,14.06,-23.059998999999998,3b
2019-07-12_115527:820,-0.30249000000000004,-0.022858,-0.367584,-0.008395999999999999,0.0023309999999999997,0.002229,-38.5,14.5,-22.68,3b
2019-07-12_115527:840,-0.29995700000000003,-0.017792,-0.366058,-0.009403,1.2e-05,0.0029620000000000002,-38.5,14.5,-22.68,3b
2019-07-12_115527:860,-0.309113,-0.014221000000000001,-0.36706500000000003,-0.010471,-0.002002,0.004793,-38.869999,15.18,-23.870001000000002,3b
2019-07-12_115527:880,-0.316742,-0.015747,-0.364532,-0.011875,-0.0035280000000000003,0.006318,-38.869999,15.18,-23.870001000000002,3b
2019-07-12_115527:900,-0.326385,-0.013213999999999998,-0.368073,-0.013309,-0.004047,0.007203,-38.869999,15.18,-23.870001000000002,3b
2019-07-12_115527:920,-0.329437,-0.009644,-0.369598,-0.014713,-0.003833,0.008973,-38.869999,13.0,-22.68,3b
2019-07-12_115527:940,-0.328949,-0.005065999999999999,-0.371643,-0.016971,-0.00307,0.010835,-38.869999,13.0,-22.68,3b
2019-07-12_115527:960,-0.327911,-0.004547,-0.37316900000000003,-0.020084,-0.001941,0.012758,-39.68,14.5,-23.5,3b
2019-07-12_115527:980,-0.32843,-0.006592,-0.372162,-0.023288,-0.001178,0.013947999999999999,-39.68,14.5,-23.5,3b
2019-07-12_115528:000,-0.329437,-0.006592,-0.37316900000000003,-0.026126999999999997,-0.000324,0.013765000000000001,-39.68,14.5,-23.5,3b
2019-07-12_115528:020,-0.327423,-0.000488,-0.37316900000000003,-0.029269999999999997,0.000134,0.014009,-39.25,14.06,-23.870001000000002,3b
2019-07-12_115528:040,-0.334534,0.005065999999999999,-0.375214,-0.032901,0.000348,0.016023,-39.25,14.06,-23.870001000000002,3b
2019-07-12_115528:060,-0.334015,0.0,-0.37316900000000003,-0.037021,0.001599,0.017549000000000002,-39.25,14.5,-23.870001000000002,3b
2019-07-12_115528:080,-0.329437,-0.001007,-0.371643,-0.040012,0.002575,0.015474000000000002,-39.25,14.5,-23.870001000000002,3b
2019-07-12_115528:100,-0.33197,-0.002014,-0.37011700000000003,-0.041782,0.002728,0.013307,-39.25,14.5,-23.870001000000002,3b
2019-07-12_115528:120,-0.32995599999999997,-0.002014,-0.36911,-0.041721,0.002606,0.0141,-39.68,14.06,-23.870001000000002,3b
2019-07-12_115528:140,-0.334534,-0.004059,-0.365021,-0.040683,0.002575,0.016206,-39.68,14.06,-23.870001000000002,3b
2019-07-12_115528:160,-0.331482,-0.004059,-0.360962,-0.038883,0.002575,0.016817,-39.25,13.37,-23.5,3b
2019-07-12_115528:180,-0.330963,-0.006072999999999999,-0.35791,-0.036564,0.0016600000000000002,0.017457,-39.25,13.37,-23.5,3b
2019-07-12_115528:200,-0.327911,-0.0030210000000000002,-0.358429,-0.033054,0.00047000000000000004,0.018403,-39.25,13.37,-23.5,3b
2019-07-12_115528:220,-0.331482,-0.0035399999999999997,-0.354858,-0.029789,-0.001575,0.019075,-38.869999,14.06,-23.5,3b
2019-07-12_115528:240,-0.327423,-0.0030210000000000002,-0.353333,-0.026798000000000002,-0.002704,0.019533000000000002,-38.869999,14.06,-23.5,3b
2019-07-12_115528:260,-0.330963,-0.000488,-0.352844,-0.023868,-0.0045049999999999995,0.021181000000000002,-38.869999,12.56,-24.25,3b
2019-07-12_115528:280,-0.325378,-0.0025329999999999997,-0.35180700000000004,-0.02103,-0.005878,0.02231,-38.869999,12.56,-24.25,3b
2019-07-12_115528:300,-0.323853,0.004059,-0.358917,-0.01923,-0.007862000000000001,0.021394,-38.869999,12.56,-24.25,3b
2019-07-12_115528:320,-0.327423,0.0055850000000000006,-0.360962,-0.018313999999999997,-0.009845,0.021516,-38.5,14.06,-23.870001000000002,3b
2019-07-12_115528:340,-0.33197,0.0,-0.364014,-0.016909999999999998,-0.010912999999999999,0.02231,-38.5,14.06,-23.870001000000002,3b
2019-07-12_115528:360,-0.335022,-0.0025329999999999997,-0.36654699999999996,-0.015903,-0.011249,0.021974,-38.5,13.37,-24.559998999999998,3b
2019-07-12_115528:380,-0.341644,0.0,-0.36654699999999996,-0.014774,-0.010851999999999999,0.020997,-38.5,13.37,-24.559998999999998,3b
2019-07-12_115528:400,-0.341125,-0.000488,-0.364532,-0.014072,-0.009662,0.021455000000000002,-38.5,13.37,-24.559998999999998,3b
2019-07-12_115528:420,-0.338074,-0.0035399999999999997,-0.36706500000000003,-0.013584,-0.008747,0.021669,-38.869999,13.37,-24.25,3b
2019-07-12_115528:440,-0.334015,-0.006072999999999999,-0.36554000000000003,-0.013004,-0.007801000000000001,0.021119,-38.869999,13.37,-24.25,3b
2019-07-12_115528:460,-0.330963,-0.013213999999999998,-0.360962,-0.012272,-0.007862000000000001,0.021119,-38.869999,13.68,-25.870001000000002,3b
2019-07-12_115528:480,-0.331482,-0.015228,-0.363007,-0.010471,-0.008594,0.021669,-38.869999,13.68,-25.870001000000002,3b
2019-07-12_115528:500,-0.330963,-0.014221000000000001,-0.36349499999999996,-0.009006,-0.009052,0.021119,-38.869999,13.68,-25.870001000000002,3b
2019-07-12_115528:520,-0.330963,-0.011687999999999999,-0.364014,-0.008274,-0.009509,0.020479,-37.75,14.5,-25.059998999999998,3b
2019-07-12_115528:540,-0.330475,-0.006592,-0.364532,-0.008732,-0.009662,0.021058,-37.75,14.5,-25.059998999999998,3b
2019-07-12_115528:560,-0.328949,-0.007111,-0.364532,-0.009739,-0.009509,0.020662,-37.75,15.18,-25.059998999999998,3b
2019-07-12_115528:580,-0.324371,-0.007599,-0.366058,-0.011081,-0.009784000000000001,0.019136,-37.75,15.18,-25.059998999999998,3b
2019-07-12_115528:600,-0.329437,-0.012177,-0.36911,-0.011661,-0.010272,0.017091,-37.75,15.18,-25.059998999999998,3b
2019-07-12_115528:620,-0.330475,-0.015228,-0.370636,-0.012211,-0.01012,0.016206,-37.75,15.87,-26.25,3b
2019-07-12_115528:640,-0.33605999999999997,-0.015228,-0.370636,-0.011814,-0.009784000000000001,0.015625999999999998,-37.75,15.87,-26.25,3b
2019-07-12_115528:660,-0.332489,-0.016753999999999998,-0.371643,-0.011539,-0.008319,0.014039,-36.68,15.87,-25.5,3b
2019-07-12_115528:680,-0.325378,-0.017273,-0.372162,-0.010806999999999999,-0.007281999999999999,0.010773999999999999,-36.68,15.87,-25.5,3b
2019-07-12_115528:700,-0.327911,-0.017273,-0.377747,-0.010013,-0.007862000000000001,0.008394,-36.68,15.87,-25.5,3b
2019-07-12_115528:720,-0.327911,-0.016753999999999998,-0.37674,-0.008029999999999999,-0.008014,0.007112,-36.68,15.5,-26.68,3b
2019-07-12_115528:740,-0.330475,-0.016753999999999998,-0.370636,-0.005832,-0.007678,0.005525,-36.68,15.5,-26.68,3b
2019-07-12_115528:760,-0.330475,-0.012177,-0.37112399999999995,-0.0042450000000000005,-0.006885,0.004274,-36.68,16.0,-26.25,3b
2019-07-12_115528:780,-0.323334,-0.007111,-0.368591,-0.0027199999999999998,-0.006670999999999999,0.0037549999999999997,-36.68,16.0,-26.25,3b
2019-07-12_115528:800,-0.318756,-0.002014,-0.36911,-0.001743,-0.007281999999999999,0.00345,-36.68,16.0,-26.25,3b
2019-07-12_115528:820,-0.320282,0.0,-0.37011700000000003,-0.0013460000000000002,-0.008136,0.0029,-36.68,16.25,-26.25,3b
2019-07-12_115528:840,-0.320801,0.004547,-0.36911,-0.001224,-0.009113,0.003297,-36.68,16.25,-26.25,3b
2019-07-12_115528:860,-0.325897,0.0055850000000000006,-0.37265,-0.001285,-0.009387000000000001,0.005342,-36.369999,16.559998999999998,-26.68,3b
2019-07-12_115528:880,-0.330475,0.0035399999999999997,-0.37316900000000003,-0.001865,-0.008869,0.006868000000000001,-36.369999,16.559998999999998,-26.68,3b
2019-07-12_115528:900,-0.329437,0.0035399999999999997,-0.374176,-0.002994,-0.008136,0.006837,-36.369999,16.559998999999998,-26.68,3b
2019-07-12_115528:920,-0.324371,0.0030210000000000002,-0.377228,-0.00394,-0.007739,0.007661,-36.68,17.059998999999998,-27.059998999999998,3b
2019-07-12_115528:940,-0.320282,0.002014,-0.374176,-0.004520000000000001,-0.007678,0.00937,-36.68,17.059998999999998,-27.059998999999998,3b
2019-07-12_115528:960,-0.321808,-0.004059,-0.374695,-0.0051,-0.00719,0.010773999999999999,-36.68,15.5,-28.68,3b
2019-07-12_115528:980,-0.322845,-0.006072999999999999,-0.374695,-0.005679999999999999,-0.006945999999999999,0.011049,-36.68,15.5,-28.68,3b
2019-07-12_115529:000,-0.32132,-0.009125,-0.374695,-0.006351,-0.006214,0.010835,-36.68,15.5,-28.68,3b
2019-07-12_115529:020,-0.316742,-0.010651,-0.374176,-0.007267,-0.005878,0.010652,-36.369999,17.75,-27.5,3b
2019-07-12_115529:040,-0.311127,-0.014740000000000001,-0.374695,-0.007418999999999999,-0.0061530000000000005,0.010376999999999999,-36.369999,17.75,-27.5,3b
2019-07-12_115529:060,-0.308075,-0.016753999999999998,-0.375702,-0.007541,-0.006793,0.009523,-36.0,17.059998999999998,-25.870001000000002,3b
2019-07-12_115529:080,-0.313171,-0.021851,-0.378265,-0.007084,-0.007678,0.008729,-36.0,17.059998999999998,-25.870001000000002,3b
2019-07-12_115529:100,-0.315704,-0.023375999999999997,-0.379272,-0.006168,-0.008136,0.007509,-36.0,17.059998999999998,-25.870001000000002,3b
2019-07-12_115529:120,-0.318268,-0.020325,-0.381317,-0.005375,-0.008197,0.006379,-36.0,16.68,-27.5,3b
2019-07-12_115529:140,-0.316742,-0.017792,-0.381317,-0.004947,-0.007678,0.006044,-36.0,16.68,-27.5,3b
2019-07-12_115529:160,-0.315216,-0.01828,-0.385376,-0.004703,-0.007923000000000001,0.005067,-36.0,17.059998999999998,-27.870001000000002,3b
2019-07-12_115529:180,-0.316223,-0.017273,-0.384338,-0.0042450000000000005,-0.008197,0.003297,-36.0,17.059998999999998,-27.870001000000002,3b
2019-07-12_115529:200,-0.316223,-0.015747,-0.38385,-0.003849,-0.008258,0.002382,-36.0,17.059998999999998,-27.870001000000002,3b
2019-07-12_115529:220,-0.314697,-0.014221000000000001,-0.384338,-0.0032689999999999998,-0.007587000000000001,0.0029,-36.0,17.5,-27.5,3b
2019-07-12_115529:240,-0.316742,-0.014221000000000001,-0.380798,-0.002475,-0.007006999999999999,0.0038159999999999995,-36.0,17.5,-27.5,3b
2019-07-12_115529:260,-0.318268,-0.014740000000000001,-0.383331,-0.001957,-0.006,0.0026260000000000003,-36.0,16.25,-27.870001000000002,3b
2019-07-12_115529:280,-0.316742,-0.013213999999999998,-0.379272,-0.001468,-0.005634,0.000917,-36.0,16.25,-27.870001000000002,3b
2019-07-12_115529:300,-0.309113,-0.010162000000000001,-0.380798,-0.001072,-0.00539,0.001436,-36.0,16.25,-27.870001000000002,3b
2019-07-12_115529:320,-0.309601,-0.010651,-0.381317,-0.0008269999999999999,-0.005817,0.001893,-36.0,17.75,-27.5,3b
2019-07-12_115529:340,-0.305054,-0.014221000000000001,-0.382324,-0.000156,-0.007129000000000001,0.003175,-36.0,17.75,-27.5,3b
2019-07-12_115529:360,-0.312164,-0.017273,-0.382324,0.000241,-0.007343000000000001,0.002565,-35.560001,17.059998999999998,-27.870001000000002,3b
2019-07-12_115529:380,-0.315704,-0.017273,-0.382324,0.000851,-0.00719,0.002382,-35.560001,17.059998999999998,-27.870001000000002,3b
2019-07-12_115529:400,-0.316742,-0.017273,-0.381805,0.00137,-0.006793,0.002778,-35.560001,17.059998999999998,-27.870001000000002,3b
2019-07-12_115529:420,-0.314697,-0.019318000000000002,-0.382324,0.0017670000000000001,-0.006885,0.00229,-36.0,17.5,-27.870001000000002,3b
2019-07-12_115529:440,-0.315704,-0.019806,-0.381805,0.00198,-0.006885,0.002321,-36.0,17.5,-27.870001000000002,3b
2019-07-12_115529:460,-0.313171,-0.01828,-0.38385,0.00198,-0.007006999999999999,0.0038469999999999997,-36.68,17.059998999999998,-28.68,3b
2019-07-12_115529:480,-0.31723,-0.019318000000000002,-0.385376,0.0017670000000000001,-0.006336,0.004854,-36.68,17.059998999999998,-28.68,3b
2019-07-12_115529:500,-0.31723,-0.019806,-0.382324,0.000576,-0.005939,0.004335,-36.68,17.059998999999998,-28.68,3b
2019-07-12_115529:520,-0.316223,-0.018799,-0.384857,-0.001224,-0.005359,0.0038159999999999995,-36.0,17.5,-27.870001000000002,3b
2019-07-12_115529:540,-0.31012,-0.022369,-0.381805,-0.002659,-0.005054,0.004335,-36.0,17.5,-27.870001000000002,3b
2019-07-12_115529:560,-0.309601,-0.024902,-0.381805,-0.0037270000000000003,-0.004901,0.004548,-36.68,17.5,-27.059998999999998,3b
2019-07-12_115529:580,-0.311127,-0.026917,-0.383331,-0.004825,-0.00484,0.003358,-36.68,17.5,-27.059998999999998,3b
2019-07-12_115529:600,-0.312653,-0.027435,-0.383331,-0.005771,-0.004779,0.0016489999999999999,-36.68,17.5,-27.059998999999998,3b
2019-07-12_115529:620,-0.314178,-0.027954000000000003,-0.384338,-0.0064730000000000005,-0.004718,0.0007639999999999999,-36.0,17.5,-27.870001000000002,3b
2019-07-12_115529:640,-0.313171,-0.028442000000000002,-0.380798,-0.0065650000000000005,-0.004169,-0.000151,-36.0,17.5,-27.870001000000002,3b
2019-07-12_115529:660,-0.311127,-0.025421,-0.38028,-0.006626000000000001,-0.004047,-0.000731,-36.0,17.75,-28.68,3b
2019-07-12_115529:680,-0.311127,-0.023895,-0.380798,-0.006504,-0.00426,-0.000151,-36.0,17.75,-28.68,3b
2019-07-12_115529:700,-0.313171,-0.019806,-0.382324,-0.006504,-0.004596,0.000123,-36.0,17.75,-28.68,3b
2019-07-12_115529:720,-0.314697,-0.019806,-0.382324,-0.0069,-0.004444,0.000184,-36.369999,17.0,-27.5,3b
2019-07-12_115529:740,-0.312653,-0.016753999999999998,-0.377747,-0.007206000000000001,-0.004047,-2.8999999999999997e-05,-36.369999,17.0,-27.5,3b
2019-07-12_115529:760,-0.312164,-0.016266,-0.378265,-0.0076939999999999995,-0.004108,-9e-05,-36.369999,17.0,-26.68,3b
2019-07-12_115529:780,-0.311127,-0.014221000000000001,-0.38028,-0.008395999999999999,-0.004108,6.2e-05,-36.369999,17.0,-26.68,3b
2019-07-12_115529:800,-0.316742,-0.014740000000000001,-0.381317,-0.008732,-0.003711,0.001314,-36.369999,17.0,-26.68,3b
2019-07-12_115529:820,-0.314178,-0.017792,-0.381317,-0.008945,-0.003436,0.001893,-35.18,17.5,-27.870001000000002,3b
2019-07-12_115529:840,-0.311127,-0.020325,-0.379272,-0.008274,-0.0031309999999999997,0.00229,-35.18,17.5,-27.870001000000002,3b
2019-07-12_115529:860,-0.315704,-0.024384,-0.382324,-0.007877,-0.00307,0.001832,-36.369999,17.0,-28.68,3b
2019-07-12_115529:880,-0.316223,-0.022369,-0.38028,-0.006504,-0.0025210000000000002,-0.000365,-36.369999,17.0,-28.68,3b
2019-07-12_115529:900,-0.314697,-0.016266,-0.381805,-0.005741,-0.002246,0.000245,-36.369999,17.0,-28.68,3b
2019-07-12_115529:920,-0.316223,-0.01828,-0.381805,-0.0052829999999999995,-0.002002,0.0005809999999999999,-36.0,15.87,-27.75,3b
2019-07-12_115529:940,-0.317749,-0.017273,-0.379791,-0.00394,-0.0025210000000000002,-0.001616,-36.0,15.87,-27.75,3b
2019-07-12_115529:960,-0.322327,-0.012177,-0.378265,-0.003544,-0.00246,-0.002349,-37.5,17.0,-28.18,3b
2019-07-12_115529:980,-0.325378,-0.013213999999999998,-0.379791,-0.0019260000000000002,-0.001666,-0.0016769999999999999,-37.5,17.0,-28.18,3b
2019-07-12_115530:000,-0.323853,-0.011687999999999999,-0.374695,-0.00046100000000000004,-0.001209,-0.001738,-37.5,17.0,-28.18,3b
2019-07-12_115530:020,-0.322327,-0.010651,-0.375214,5.7999999999999994e-05,-0.001117,-0.002196,-37.060001,16.18,-26.559998999999998,3b
2019-07-12_115530:040,-0.319275,-0.007111,-0.37112399999999995,0.0018280000000000002,-0.0008730000000000001,-0.000731,-37.060001,16.18,-26.559998999999998,3b
2019-07-12_115530:060,-0.322845,-0.006592,-0.37316900000000003,0.002102,-0.001392,0.000245,-36.0,15.87,-27.059998999999998,3b
2019-07-12_115530:080,-0.32843,-0.0055850000000000006,-0.370636,0.0019190000000000001,-0.0020629999999999997,0.001192,-36.0,15.87,-27.059998999999998,3b
2019-07-12_115530:100,-0.334015,-0.004547,-0.367584,0.001065,-0.001209,0.000795,-36.0,15.87,-27.059998999999998,3b
2019-07-12_115530:120,-0.326904,-0.004059,-0.367584,0.000729,-0.0008730000000000001,0.0008560000000000001,-36.68,16.18,-27.370001000000002,3b
2019-07-12_115530:140,-0.322327,-0.006072999999999999,-0.367584,-0.000278,-0.000781,0.0017100000000000001,-36.68,16.18,-27.370001000000002,3b
2019-07-12_115530:160,-0.320282,-0.010651,-0.368073,-0.000553,-0.0014529999999999999,0.0017100000000000001,-37.060001,15.87,-28.18,3b
2019-07-12_115530:180,-0.322327,-0.011169,-0.368591,-0.000614,-0.002735,0.001924,-37.060001,15.87,-28.18,3b
2019-07-12_115530:200,-0.32486,-0.014740000000000001,-0.367584,-0.0004,-0.003314,0.001924,-37.060001,15.87,-28.18,3b
2019-07-12_115530:220,-0.32486,-0.014740000000000001,-0.36911,5.7999999999999994e-05,-0.00365,0.001588,-37.75,16.18,-25.370001000000002,3b
2019-07-12_115530:240,-0.326904,-0.012695,-0.36911,0.001431,-0.004779,6.2e-05,-37.75,16.18,-25.370001000000002,3b
2019-07-12_115530:260,-0.32843,-0.010162000000000001,-0.37011700000000003,0.001583,-0.004961999999999999,-9e-05,-38.5,17.0,-26.18,3b
2019-07-12_115530:280,-0.33197,-0.007111,-0.37011700000000003,0.0023769999999999998,-0.004901,0.001039,-38.5,17.0,-26.18,3b
2019-07-12_115530:300,-0.33197,-0.006072999999999999,-0.369598,0.002255,-0.004566,0.001375,-38.5,17.0,-26.18,3b
2019-07-12_115530:320,-0.32843,-0.0055850000000000006,-0.367584,0.002102,-0.004383,0.001314,-37.5,16.18,-25.870001000000002,3b
2019-07-12_115530:340,-0.325378,-0.006072999999999999,-0.36654699999999996,0.00198,-0.004047,0.001436,-37.5,16.18,-25.870001000000002,3b
2019-07-12_115530:360,-0.325378,-0.007599,-0.368073,0.0019190000000000001,-0.00426,0.0016489999999999999,-37.5,16.18,-25.870001000000002,3b
2019-07-12_115530:380,-0.326904,-0.008636,-0.36706500000000003,0.0019190000000000001,-0.004901,0.0016489999999999999,-37.75,16.18,-26.25,3b
2019-07-12_115530:400,-0.326385,-0.0055850000000000006,-0.369598,0.0019190000000000001,-0.005115,0.001893,-37.75,16.18,-26.25,3b
2019-07-12_115530:420,-0.329437,-0.0030210000000000002,-0.369598,0.0017670000000000001,-0.0055119999999999995,0.003114,-37.5,16.18,-24.68,3b
2019-07-12_115530:440,-0.331482,-0.0025329999999999997,-0.368073,0.001126,-0.00539,0.0038159999999999995,-37.5,16.18,-24.68,3b
2019-07-12_115530:460,-0.330963,-0.006072999999999999,-0.367584,-0.000736,-0.004961999999999999,0.006257,-37.18,16.25,-25.059998999999998,3b
2019-07-12_115530:480,-0.33605999999999997,-0.013702,-0.37112399999999995,-0.001285,-0.004779,0.0067150000000000005,-37.18,16.25,-25.059998999999998,3b
2019-07-12_115530:500,-0.334015,-0.016266,-0.370636,-0.003116,-0.0035280000000000003,0.004915,-37.18,16.25,-25.059998999999998,3b
2019-07-12_115530:520,-0.330475,-0.017273,-0.368591,-0.003116,-0.003436,0.005006,-37.869999,16.68,-25.059998999999998,3b
2019-07-12_115530:540,-0.328949,-0.020325,-0.36911,-0.002872,-0.002735,0.005464,-37.869999,16.68,-25.059998999999998,3b
2019-07-12_115530:560,-0.328949,-0.022858,-0.367584,-0.00275,-0.002857,0.005464,-37.869999,16.68,-25.059998999999998,3b
2019-07-12_115530:580,-0.32995599999999997,-0.023895,-0.36706500000000003,-0.0022010000000000003,-0.002918,0.005067,-39.0,16.68,-24.68,3b
2019-07-12_115530:600,-0.32843,-0.025421,-0.36349499999999996,-0.001957,-0.002796,0.004671,-39.0,16.68,-24.68,3b
2019-07-12_115530:620,-0.330475,-0.025421,-0.36654699999999996,-0.001407,-0.00307,0.00345,-37.560001,16.68,-24.68,3b
2019-07-12_115530:640,-0.32843,-0.021851,-0.365021,-0.00095,-0.003314,0.0027170000000000002,-37.560001,16.68,-24.68,3b
2019-07-12_115530:660,-0.32843,-0.019806,-0.36349499999999996,-0.000736,-0.0035280000000000003,0.003053,-37.869999,16.68,-25.5,3b
2019-07-12_115530:680,-0.333496,-0.019318000000000002,-0.36349499999999996,-0.000889,-0.003986,0.003908,-37.869999,16.68,-25.5,3b
2019-07-12_115530:700,-0.334015,-0.017792,-0.36248800000000003,-0.002353,-0.004108,0.003297,-37.869999,16.68,-25.5,3b
2019-07-12_115530:720,-0.33197,-0.016266,-0.360962,-0.002994,-0.004169,0.0029,-37.560001,16.68,-24.25,3b
2019-07-12_115530:740,-0.333496,-0.017792,-0.360962,-0.004001,-0.004321,0.003053,-37.560001,16.68,-24.25,3b
2019-07-12_115530:760,-0.33300799999999997,-0.020325,-0.361969,-0.004642,-0.004596,0.004182,-37.560001,16.68,-24.25,3b
2019-07-12_115530:780,-0.334015,-0.020844,-0.36248800000000003,-0.004978,-0.004596,0.004732,-38.560001,17.5,-25.5,3b
2019-07-12_115530:800,-0.336548,-0.021332,-0.361481,-0.0052829999999999995,-0.0045049999999999995,0.00525,-38.560001,17.5,-25.5,3b
2019-07-12_115530:820,-0.335022,-0.021851,-0.36044299999999996,-0.005832,-0.004444,0.005647,-37.869999,17.059998999999998,-25.5,3b
2019-07-12_115530:840,-0.333496,-0.022369,-0.360962,-0.006351,-0.004718,0.006318,-37.869999,17.059998999999998,-25.5,3b
2019-07-12_115530:860,-0.335022,-0.023895,-0.363007,-0.00687,-0.0055119999999999995,0.006470999999999999,-37.869999,17.059998999999998,-25.5,3b
2019-07-12_115530:880,-0.33758499999999997,-0.026917,-0.364014,-0.007206000000000001,-0.00539,0.006379,-38.25,16.25,-24.68,3b
2019-07-12_115530:900,-0.337067,-0.028961,-0.363007,-0.006962,-0.00484,0.006135,-38.25,16.25,-24.68,3b
2019-07-12_115530:920,-0.33605999999999997,-0.028442000000000002,-0.36349499999999996,-0.0065650000000000005,-0.004657,0.005739,-38.560001,17.059998999999998,-25.059998999999998,3b
2019-07-12_115530:940,-0.333496,-0.028961,-0.361969,-0.0064730000000000005,-0.004566,0.005128,-38.560001,17.059998999999998,-25.059998999999998,3b
2019-07-12_115530:960,-0.33605999999999997,-0.028442000000000002,-0.364014,-0.00629,-0.004901,0.004793,-38.560001,17.059998999999998,-25.059998999999998,3b
2019-07-12_115530:980,-0.335541,-0.027954000000000003,-0.363007,-0.005832,-0.004566,0.004274,-38.560001,16.68,-23.870001000000002,3b
2019-07-12_115531:000,-0.335022,-0.027435,-0.360962,-0.005375,-0.004383,0.0038159999999999995,-38.560001,16.68,-23.870001000000002,3b
2019-07-12_115531:020,-0.334015,-0.026917,-0.359955,-0.004978,-0.004566,0.003572,-37.869999,16.68,-25.870001000000002,3b
2019-07-12_115531:040,-0.32995599999999997,-0.024902,-0.358917,-0.004886,-0.005115,0.003114,-37.869999,16.68,-25.870001000000002,3b
2019-07-12_115531:060,-0.334534,-0.023375999999999997,-0.358917,-0.004642,-0.005756,0.0026260000000000003,-37.869999,16.68,-25.870001000000002,3b
2019-07-12_115531:080,-0.33300799999999997,-0.023375999999999997,-0.358917,-0.004642,-0.006092,0.003633,-37.869999,17.059998999999998,-24.370001000000002,3b
2019-07-12_115531:100,-0.33758499999999997,-0.022369,-0.36044299999999996,-0.004337,-0.006458,0.004213000000000001,-37.869999,17.059998999999998,-24.370001000000002,3b
2019-07-12_115531:120,-0.337067,-0.023895,-0.36044299999999996,-0.004703,-0.006,0.003297,-37.560001,16.25,-25.870001000000002,3b
2019-07-12_115531:140,-0.33197,-0.023895,-0.36044299999999996,-0.004764,-0.006092,0.00229,-37.560001,16.25,-25.870001000000002,3b
2019-07-12_115531:160,-0.331482,-0.023375999999999997,-0.365021,-0.004764,-0.006670999999999999,0.002382,-37.560001,16.25,-25.870001000000002,3b
2019-07-12_115531:180,-0.332489,-0.023895,-0.365021,-0.004275999999999999,-0.007006999999999999,0.002778,-38.25,16.25,-24.370001000000002,3b
2019-07-12_115531:200,-0.336548,-0.022369,-0.364014,-0.00394,-0.006793,0.003023,-38.25,16.25,-24.370001000000002,3b
2019-07-12_115531:220,-0.334534,-0.022369,-0.364014,-0.0036049999999999997,-0.006092,0.0026260000000000003,-39.0,16.0,-23.870001000000002,3b
2019-07-12_115531:240,-0.332489,-0.022369,-0.364014,-0.0033909999999999995,-0.006275,0.002443,-39.0,16.0,-23.870001000000002,3b
2019-07-12_115531:260,-0.334015,-0.020325,-0.36554000000000003,-0.0032689999999999998,-0.005878,0.002443,-39.0,16.0,-23.870001000000002,3b
2019-07-12_115531:280,-0.335022,-0.019806,-0.365021,-0.003147,-0.005939,0.002687,-37.869999,17.059998999999998,-25.5,3b
2019-07-12_115531:300,-0.334534,-0.018799,-0.365021,-0.0033909999999999995,-0.005573,0.003053,-37.869999,17.059998999999998,-25.5,3b
2019-07-12_115531:320,-0.33758499999999997,-0.017273,-0.365021,-0.003147,-0.005115,0.003633,-38.560001,16.68,-24.25,3b
2019-07-12_115531:340,-0.33300799999999997,-0.021332,-0.36248800000000003,-0.0036049999999999997,-0.004718,0.003175,-38.560001,16.68,-24.25,3b
2019-07-12_115531:360,-0.330963,-0.019318000000000002,-0.36349499999999996,-0.004184,-0.00484,0.00229,-38.560001,16.68,-24.25,3b
2019-07-12_115531:380,-0.32843,-0.019318000000000002,-0.36349499999999996,-0.003849,-0.005176,0.003023,-38.25,17.059998999999998,-24.68,3b
2019-07-12_115531:400,-0.32995599999999997,-0.021851,-0.364014,-0.0036049999999999997,-0.005634,0.004152,-38.25,17.059998999999998,-24.68,3b
2019-07-12_115531:420,-0.332489,-0.021332,-0.36349499999999996,-0.0033909999999999995,-0.005817,0.004091,-38.25,17.059998999999998,-24.68,3b
2019-07-12_115531:440,-0.334015,-0.020325,-0.36248800000000003,-0.003147,-0.005695,0.004213000000000001,-38.25,17.059998999999998,-24.68,3b
2019-07-12_115531:460,-0.332489,-0.020844,-0.364014,-0.002994,-0.005359,0.004671,-38.25,17.059998999999998,-24.68,3b
2019-07-12_115531:480,-0.33197,-0.020844,-0.365021,-0.003208,-0.005756,0.004548,-38.560001,17.059998999999998,-24.68,3b
2019-07-12_115531:500,-0.334015,-0.020844,-0.36554000000000003,-0.003452,-0.005298,0.004793,-38.560001,17.059998999999998,-24.68,3b
2019-07-12_115531:520,-0.334534,-0.022369,-0.36654699999999996,-0.0033909999999999995,-0.0052369999999999995,0.005006,-38.25,16.68,-24.370001000000002,3b
2019-07-12_115531:540,-0.338074,-0.024902,-0.365021,-0.0036659999999999996,-0.004718,0.004854,-38.25,16.68,-24.370001000000002,3b
2019-07-12_115531:560,-0.335541,-0.022858,-0.36349499999999996,-0.003544,-0.004321,0.004793,-38.25,16.68,-24.370001000000002,3b
2019-07-12_115531:580,-0.335541,-0.023375999999999997,-0.364014,-0.0033909999999999995,-0.003833,0.005189,-38.560001,16.0,-24.68,3b
2019-07-12_115531:600,-0.334015,-0.023375999999999997,-0.361481,-0.003788,-0.003925,0.005647,-38.560001,16.0,-24.68,3b
2019-07-12_115531:620,-0.329437,-0.022369,-0.35791,-0.004123,-0.003589,0.005525,-37.869999,16.68,-24.68,3b
2019-07-12_115531:640,-0.32843,-0.023895,-0.355896,-0.004642,-0.004444,0.005128,-37.869999,16.68,-24.68,3b
2019-07-12_115531:660,-0.334015,-0.020844,-0.355377,-0.0051,-0.004657,0.004945000000000001,-39.0,17.059998999999998,-23.870001000000002,3b
2019-07-12_115531:680,-0.327423,-0.027954000000000003,-0.36248800000000003,-0.005558,-0.004993,0.004732,-39.0,17.059998999999998,-23.870001000000002,3b
2019-07-12_115531:700,-0.323853,-0.028961,-0.363007,-0.005619,-0.006336,0.004396,-39.0,17.059998999999998,-23.870001000000002,3b
2019-07-12_115531:720,-0.330475,-0.029968,-0.36554000000000003,-0.004886,-0.007129000000000001,0.005403,-38.560001,17.059998999999998,-25.059998999999998,3b
2019-07-12_115531:740,-0.3396,-0.030487,-0.366058,-0.004612,-0.006793,0.005403,-38.560001,17.059998999999998,-25.059998999999998,3b
2019-07-12_115531:760,-0.330475,-0.029480000000000003,-0.366058,-0.004275999999999999,-0.006458,0.0034189999999999997,-38.560001,17.059998999999998,-25.059998999999998,3b
2019-07-12_115531:780,-0.329437,-0.027954000000000003,-0.37011700000000003,-0.004062,-0.006854000000000001,0.002107,-37.869999,17.059998999999998,-23.870001000000002,3b
2019-07-12_115531:800,-0.356903,-0.024384,-0.370636,-0.0042450000000000005,-0.005176,0.0025039999999999997,-37.869999,17.059998999999998,-23.870001000000002,3b
2019-07-12_115531:820,-0.33758499999999997,-0.033539,-0.361969,-0.004520000000000001,-0.0055119999999999995,0.003297,-37.869999,17.059998999999998,-24.68,3b
2019-07-12_115531:840,-0.3396,-0.028961,-0.367584,-0.003544,-0.004961999999999999,0.00345,-37.869999,17.059998999999998,-24.68,3b
2019-07-12_115531:860,-0.335022,-0.028961,-0.36044299999999996,-0.003208,-0.004169,0.0025039999999999997,-37.869999,17.059998999999998,-24.68,3b
2019-07-12_115531:880,-0.334015,-0.024384,-0.365021,-0.003208,-0.004169,0.0016489999999999999,-37.560001,17.5,-24.25,3b
2019-07-12_115531:900,-0.330963,-0.023375999999999997,-0.363007,-0.0033909999999999995,-0.0038640000000000002,0.0025039999999999997,-37.560001,17.5,-24.25,3b
2019-07-12_115531:920,-0.334534,-0.024902,-0.360962,-0.0036049999999999997,-0.004383,0.0025039999999999997,-38.25,17.059998999999998,-23.870001000000002,3b
2019-07-12_115531:940,-0.334534,-0.024384,-0.35943600000000003,-0.0042450000000000005,-0.004566,0.002107,-38.25,17.059998999999998,-23.870001000000002,3b
2019-07-12_115531:960,-0.335022,-0.023375999999999997,-0.359955,-0.004275999999999999,-0.004596,0.002382,-38.25,17.059998999999998,-23.870001000000002,3b
2019-07-12_115531:980,-0.333496,-0.022858,-0.358429,-0.004459,-0.004657,0.002382,-37.560001,16.68,-24.25,3b
2019-07-12_115532:000,-0.332489,-0.024902,-0.359955,-0.004886,-0.005176,0.0019850000000000002,-37.560001,16.68,-24.25,3b
2019-07-12_115532:020,-0.332489,-0.024902,-0.361969,-0.004703,-0.005634,0.0029,-38.25,17.5,-25.059998999999998,3b
2019-07-12_115532:040,-0.33300799999999997,-0.023375999999999997,-0.36044299999999996,-0.004581,-0.005878,0.00345,-38.25,17.5,-25.059998999999998,3b
2019-07-12_115532:060,-0.333496,-0.022858,-0.36044299999999996,-0.0051,-0.006336,0.002565,-38.25,17.5,-25.059998999999998,3b
2019-07-12_115532:080,-0.334534,-0.021851,-0.36248800000000003,-0.005344,-0.006488,0.0027170000000000002,-38.560001,17.059998999999998,-23.5,3b
2019-07-12_115532:100,-0.33758499999999997,-0.022858,-0.36248800000000003,-0.005344,-0.006397,0.00345,-38.560001,17.059998999999998,-23.5,3b
2019-07-12_115532:120,-0.336548,-0.023375999999999997,-0.363007,-0.005558,-0.006092,0.003175,-38.25,16.68,-24.68,3b
2019-07-12_115532:140,-0.337067,-0.023375999999999997,-0.361969,-0.005619,-0.0060609999999999995,0.003053,-38.25,16.68,-24.68,3b
2019-07-12_115532:160,-0.3396,-0.024384,-0.36248800000000003,-0.005558,-0.005756,0.0038159999999999995,-38.25,16.68,-24.68,3b
2019-07-12_115532:180,-0.338593,-0.023375999999999997,-0.360962,-0.005375,-0.0055119999999999995,0.0038469999999999997,-38.25,16.25,-24.68,3b
2019-07-12_115532:200,-0.33605999999999997,-0.024384,-0.359955,-0.005679999999999999,-0.005298,0.003358,-38.25,16.25,-24.68,3b
2019-07-12_115532:220,-0.335541,-0.021332,-0.36044299999999996,-0.005832,-0.00539,0.003633,-38.560001,17.75,-24.68,3b
2019-07-12_115532:240,-0.335022,-0.021851,-0.358917,-0.0061070000000000004,-0.005573,0.004091,-38.560001,17.75,-24.68,3b
2019-07-12_115532:260,-0.335022,-0.023375999999999997,-0.35638400000000003,-0.006351,-0.005878,0.003908,-38.560001,17.75,-24.68,3b
2019-07-12_115532:280,-0.335022,-0.024384,-0.35739099999999996,-0.006412,-0.006214,0.0034189999999999997,-39.369999,16.25,-25.5,3b
2019-07-12_115532:300,-0.33197,-0.024902,-0.35791,-0.006229,-0.006731999999999999,0.00345,-39.369999,16.25,-25.5,3b
2019-07-12_115532:320,-0.33300799999999997,-0.023895,-0.358429,-0.005832,-0.007343000000000001,0.003053,-38.25,16.68,-24.25,3b
2019-07-12_115532:340,-0.330475,-0.019318000000000002,-0.35638400000000003,-0.005954,-0.0076170000000000005,0.003358,-38.25,16.68,-24.25,3b
2019-07-12_115532:360,-0.334534,-0.020844,-0.359955,-0.005954,-0.008075,0.004518,-38.25,16.68,-24.25,3b
2019-07-12_115532:380,-0.338074,-0.021851,-0.36044299999999996,-0.006351,-0.00838,0.0038159999999999995,-37.560001,16.25,-25.059998999999998,3b
2019-07-12_115532:400,-0.330963,-0.020325,-0.361969,-0.0065650000000000005,-0.008075,0.0019850000000000002,-37.560001,16.25,-25.059998999999998,3b
2019-07-12_115532:420,-0.329437,-0.019806,-0.36554000000000003,-0.00687,-0.008808,0.001924,-38.560001,16.25,-25.059998999999998,3b
2019-07-12_115532:440,-0.331482,-0.022369,-0.365021,-0.006168,-0.009204,0.003694,-38.560001,16.25,-25.059998999999998,3b
2019-07-12_115532:460,-0.337067,-0.022858,-0.36554000000000003,-0.005741,-0.008808,0.003297,-38.560001,16.25,-25.059998999999998,3b
2019-07-12_115532:480,-0.33605999999999997,-0.020325,-0.36554000000000003,-0.005375,-0.008319,0.001771,-38.25,16.25,-25.5,3b
2019-07-12_115532:500,-0.338593,-0.015747,-0.361969,-0.005161,-0.007343000000000001,0.0016489999999999999,-38.25,16.25,-25.5,3b
2019-07-12_115532:520,-0.32995599999999997,-0.017273,-0.36706500000000003,-0.0060149999999999995,-0.007404000000000001,0.002229,-37.869999,16.0,-26.18,3b
2019-07-12_115532:540,-0.336548,-0.020844,-0.366058,-0.005436,-0.007404000000000001,0.002443,-37.869999,16.0,-26.18,3b
2019-07-12_115532:560,-0.332489,-0.021851,-0.368073,-0.004612,-0.006793,0.002107,-37.869999,16.0,-26.18,3b
2019-07-12_115532:580,-0.341125,-0.019318000000000002,-0.36911,-0.004398,-0.006793,0.001436,-38.25,16.68,-23.75,3b
2019-07-12_115532:600,-0.3396,-0.015747,-0.364532,-0.004062,-0.005359,0.002107,-38.25,16.68,-23.75,3b
2019-07-12_115532:620,-0.330475,-0.016753999999999998,-0.366058,-0.004520000000000001,-0.004566,0.001893,-37.869999,16.68,-25.059998999999998,3b
2019-07-12_115532:640,-0.328949,-0.010651,-0.366058,-0.005497,-0.004993,0.001161,-37.869999,16.68,-25.059998999999998,3b
2019-07-12_115532:660,-0.329437,-0.012695,-0.364014,-0.006168,-0.00539,0.002229,-37.869999,16.68,-25.059998999999998,3b
2019-07-12_115532:680,-0.33197,-0.016266,-0.360962,-0.0065650000000000005,-0.005817,0.0026260000000000003,-37.869999,16.25,-26.68,3b
2019-07-12_115532:700,-0.327911,-0.015228,-0.36349499999999996,-0.006809,-0.005939,0.002107,-37.869999,16.25,-26.68,3b
2019-07-12_115532:720,-0.327423,-0.017273,-0.364014,-0.0065650000000000005,-0.006488,0.002565,-39.0,16.0,-25.370001000000002,3b
2019-07-12_115532:740,-0.32995599999999997,-0.015228,-0.364014,-0.006504,-0.00719,0.002839,-39.0,16.0,-25.370001000000002,3b
2019-07-12_115532:760,-0.329437,-0.015747,-0.364014,-0.0061070000000000004,-0.007739,0.002687,-39.0,16.0,-25.370001000000002,3b
2019-07-12_115532:780,-0.333496,-0.014740000000000001,-0.366058,-0.005619,-0.008075,0.002443,-39.0,16.68,-24.18,3b
2019-07-12_115532:800,-0.331482,-0.014221000000000001,-0.366058,-0.005344,-0.007739,0.002382,-39.0,16.68,-24.18,3b
2019-07-12_115532:820,-0.32843,-0.013213999999999998,-0.367584,-0.004825,-0.0076170000000000005,0.002382,-37.5,16.0,-25.0,3b
2019-07-12_115532:840,-0.331482,-0.012177,-0.366058,-0.005039,-0.007678,0.002321,-37.5,16.0,-25.0,3b
2019-07-12_115532:860,-0.326385,-0.010162000000000001,-0.366058,-0.005436,-0.007587000000000001,0.002321,-37.5,16.0,-25.0,3b
2019-07-12_115532:880,-0.325897,-0.012695,-0.36706500000000003,-0.005771,-0.007801000000000001,0.002229,-38.560001,15.56,-26.559998999999998,3b
2019-07-12_115532:900,-0.320801,-0.006592,-0.36554000000000003,-0.006412,-0.008258,0.0019850000000000002,-38.560001,15.56,-26.559998999999998,3b
2019-07-12_115532:920,-0.32995599999999997,-0.007599,-0.37011700000000003,-0.006809,-0.008655,0.0019850000000000002,-37.560001,15.56,-25.370001000000002,3b
2019-07-12_115532:940,-0.327423,-0.006592,-0.36911,-0.007267,-0.008258,0.001771,-37.560001,15.56,-25.370001000000002,3b
2019-07-12_115532:960,-0.32995599999999997,-0.011687999999999999,-0.370636,-0.0076939999999999995,-0.00838,0.001527,-37.560001,15.56,-25.370001000000002,3b
2019-07-12_115532:980,-0.32486,-0.012177,-0.370636,-0.00748,-0.007587000000000001,0.0029,-36.75,15.56,-25.75,3b
2019-07-12_115533:000,-0.335541,-0.014221000000000001,-0.378754,-0.006626000000000001,-0.007739,0.0037549999999999997,-36.75,15.56,-25.75,3b
2019-07-12_115533:020,-0.3396,-0.006592,-0.368591,-0.0061070000000000004,-0.006275,0.003175,-38.560001,15.06,-25.5,3b
2019-07-12_115533:040,-0.326385,-0.006592,-0.375214,-0.0061070000000000004,-0.005451,0.001588,-38.560001,15.06,-25.5,3b
2019-07-12_115533:060,-0.325897,-0.006592,-0.378265,-0.005741,-0.00539,0.002778,-38.560001,15.06,-25.5,3b
2019-07-12_115533:080,-0.323853,-0.008636,-0.372162,-0.004612,-0.005298,0.005006,-38.560001,15.56,-25.870001000000002,3b
2019-07-12_115533:100,-0.326904,-0.006072999999999999,-0.375214,-0.004978,-0.005725,0.0038469999999999997,-38.560001,15.56,-25.870001000000002,3b
2019-07-12_115533:120,-0.322845,-0.0025329999999999997,-0.371643,-0.005375,-0.005451,0.002778,-37.869999,15.56,-25.5,3b
2019-07-12_115533:140,-0.322845,-0.004547,-0.37011700000000003,-0.005436,-0.005176,0.004274,-37.869999,15.56,-25.5,3b
2019-07-12_115533:160,-0.322327,-0.0055850000000000006,-0.37265,-0.0060149999999999995,-0.005054,0.004274,-37.869999,15.56,-25.5,3b
2019-07-12_115533:180,-0.32132,-0.0035399999999999997,-0.371643,-0.0067480000000000005,-0.005695,0.003114,-39.0,15.06,-25.5,3b
2019-07-12_115533:200,-0.323853,-0.005065999999999999,-0.374176,-0.00687,-0.005634,0.003572,-39.0,15.06,-25.5,3b
2019-07-12_115533:220,-0.327911,-0.007599,-0.375702,-0.006809,-0.005756,0.005006,-38.25,15.56,-25.5,3b
2019-07-12_115533:240,-0.32843,-0.007599,-0.372162,-0.0064730000000000005,-0.005359,0.004732,-38.25,15.56,-25.5,3b
2019-07-12_115533:260,-0.326904,-0.006072999999999999,-0.375214,-0.0060149999999999995,-0.004961999999999999,0.00403,-38.25,15.56,-25.5,3b
2019-07-12_115533:280,-0.325897,-0.004547,-0.37316900000000003,-0.005741,-0.004566,0.004915,-38.18,15.5,-25.5,3b
2019-07-12_115533:300,-0.327911,-0.008118,-0.37316900000000003,-0.005222,-0.00426,0.006044,-38.18,15.5,-25.5,3b
2019-07-12_115533:320,-0.328949,-0.007599,-0.37112399999999995,-0.005039,-0.004108,0.005739,-37.5,15.87,-26.559998999999998,3b
2019-07-12_115533:340,-0.326385,-0.007599,-0.368591,-0.004886,-0.00365,0.005647,-37.5,15.87,-26.559998999999998,3b
2019-07-12_115533:360,-0.32486,-0.008636,-0.369598,-0.004612,-0.003833,0.005922,-37.5,15.87,-26.559998999999998,3b
2019-07-12_115533:380,-0.323853,-0.007599,-0.37011700000000003,-0.004764,-0.004169,0.005922,-38.18,15.5,-25.75,3b
2019-07-12_115533:400,-0.32486,-0.010651,-0.36911,-0.005161,-0.004718,0.00525,-38.18,15.5,-25.75,3b
2019-07-12_115533:420,-0.324371,-0.010162000000000001,-0.36911,-0.0051,-0.00539,0.004945000000000001,-38.869999,14.75,-25.0,3b
2019-07-12_115533:440,-0.323334,-0.012177,-0.36654699999999996,-0.004978,-0.005756,0.004854,-38.869999,14.75,-25.0,3b
2019-07-12_115533:460,-0.322327,-0.011687999999999999,-0.369598,-0.004703,-0.006458,0.003908,-38.869999,14.75,-25.0,3b
2019-07-12_115533:480,-0.320801,-0.010651,-0.37011700000000003,-0.004275999999999999,-0.006670999999999999,0.0034189999999999997,-38.18,15.06,-26.18,3b
2019-07-12_115533:500,-0.322327,-0.009125,-0.371643,-0.004001,-0.007220999999999999,0.0034189999999999997,-38.18,15.06,-26.18,3b
2019-07-12_115533:520,-0.322845,-0.008118,-0.373688,-0.004062,-0.0076170000000000005,0.0032359999999999997,-38.18,15.5,-26.559998999999998,3b
2019-07-12_115533:540,-0.322845,-0.007111,-0.371643,-0.004275999999999999,-0.0076170000000000005,0.0027170000000000002,-38.18,15.5,-26.559998999999998,3b
2019-07-12_115533:560,-0.322845,-0.007111,-0.373688,-0.004062,-0.007220999999999999,0.0032359999999999997,-38.18,15.5,-26.559998999999998,3b
2019-07-12_115533:580,-0.322845,-0.008636,-0.375702,-0.003849,-0.007526000000000001,0.003358,-37.75,15.5,-26.18,3b
2019-07-12_115533:600,-0.321808,-0.005065999999999999,-0.372162,-0.0036659999999999996,-0.0070680000000000005,0.003297,-37.75,15.5,-26.18,3b
2019-07-12_115533:620,-0.322845,-0.006072999999999999,-0.374695,-0.003788,-0.006945999999999999,0.005128,-37.75,15.5,-25.370001000000002,3b
2019-07-12_115533:640,-0.325378,-0.008636,-0.374176,-0.0036659999999999996,-0.006670999999999999,0.006257,-37.75,15.5,-25.370001000000002,3b
2019-07-12_115533:660,-0.325378,-0.009644,-0.372162,-0.004184,-0.006214,0.004609,-37.75,15.5,-25.370001000000002,3b
2019-07-12_115533:680,-0.320282,-0.008636,-0.37674,-0.004520000000000001,-0.006275,0.0029,-38.869999,15.5,-25.370001000000002,3b
2019-07-12_115533:700,-0.321808,-0.010651,-0.375214,-0.004459,-0.0070680000000000005,0.003511,-38.869999,15.5,-25.370001000000002,3b
2019-07-12_115533:720,-0.322327,-0.013213999999999998,-0.37674,-0.0036659999999999996,-0.0070680000000000005,0.004182,-37.5,15.5,-25.75,3b
2019-07-12_115533:740,-0.324371,-0.013702,-0.37316900000000003,-0.003147,-0.006885,0.003511,-37.5,15.5,-25.75,3b
2019-07-12_115533:760,-0.322845,-0.014221000000000001,-0.374176,-0.0027199999999999998,-0.006670999999999999,0.003175,-37.5,15.5,-25.75,3b
2019-07-12_115533:780,-0.325378,-0.013702,-0.375214,-0.00214,-0.006488,0.003023,-38.18,14.68,-26.559998999999998,3b
2019-07-12_115533:800,-0.325378,-0.013702,-0.376221,-0.0019260000000000002,-0.006731999999999999,0.001832,-38.18,14.68,-26.559998999999998,3b
2019-07-12_115533:820,-0.326904,-0.015228,-0.374695,-0.001285,-0.005939,0.000245,-37.75,15.18,-25.75,3b
2019-07-12_115533:840,-0.327911,-0.014221000000000001,-0.376221,-0.000889,-0.005176,-2.8999999999999997e-05,-37.75,15.18,-25.75,3b
2019-07-12_115533:860,-0.327911,-0.013702,-0.37674,-0.00046100000000000004,-0.004047,-0.001219,-37.75,15.18,-25.75,3b
2019-07-12_115533:880,-0.328949,-0.012695,-0.378265,-6.500000000000001e-05,-0.003314,-0.003203,-38.18,15.18,-26.559998999999998,3b
2019-07-12_115533:900,-0.325897,-0.009644,-0.375214,0.000332,-0.002735,-0.003996,-38.18,15.18,-26.559998999999998,3b
2019-07-12_115533:920,-0.327423,-0.006072999999999999,-0.376221,0.001065,-0.001941,-0.0031420000000000003,-38.18,15.18,-25.75,3b
2019-07-12_115533:940,-0.329437,-0.006072999999999999,-0.374176,0.001248,-0.0009339999999999999,-0.003325,-38.18,15.18,-25.75,3b
2019-07-12_115533:960,-0.333496,-0.001007,-0.37316900000000003,0.00137,0.000134,-0.003386,-38.18,15.18,-25.75,3b
2019-07-12_115533:980,-0.332489,0.0,-0.37265,0.00137,0.000989,-0.0017989999999999998,-38.18,15.18,-25.75,3b
2019-07-12_115534:000,-0.334015,0.0,-0.370636,0.0009119999999999999,0.001477,-0.0008230000000000001,-38.18,15.18,-25.75,3b
2019-07-12_115534:020,-0.33197,0.0,-0.36911,5.7999999999999994e-05,0.001935,-0.00067,-38.869999,15.18,-25.0,3b
2019-07-12_115534:040,-0.333496,0.0,-0.364532,-0.000675,0.001538,-0.000273,-38.869999,15.18,-25.0,3b
2019-07-12_115534:060,-0.334534,-0.002014,-0.36248800000000003,-0.0016820000000000001,0.000805,-0.000151,-38.869999,15.18,-25.0,3b
2019-07-12_115534:080,-0.33197,-0.004547,-0.359955,-0.00275,-0.000263,-0.000426,-38.869999,14.06,-25.75,3b
2019-07-12_115534:100,-0.32486,-0.009644,-0.349274,-0.0032689999999999998,-0.0012699999999999999,-0.000487,-38.869999,14.06,-25.75,3b
2019-07-12_115534:120,-0.315704,-0.009644,-0.34265100000000004,-0.003483,-0.0031309999999999997,-0.001341,-39.0,14.75,-23.75,3b
2019-07-12_115534:140,-0.322845,-0.006072999999999999,-0.348267,-0.00394,-0.00539,-0.002257,-39.0,14.75,-23.75,3b
2019-07-12_115534:160,-0.314178,-0.0035399999999999997,-0.341125,-0.0042450000000000005,-0.007526000000000001,-0.001738,-39.0,14.75,-23.75,3b
2019-07-12_115534:180,-0.317749,0.0,-0.346222,-0.004520000000000001,-0.010517,-0.000884,-39.0,15.18,-24.559998999999998,3b
2019-07-12_115534:200,-0.319275,0.0030210000000000002,-0.347229,-0.005436,-0.012653,-0.000426,-39.0,15.18,-24.559998999999998,3b
2019-07-12_115534:220,-0.325378,0.005065999999999999,-0.35943600000000003,-0.0065650000000000005,-0.015033000000000001,0.0005200000000000001,-38.560001,14.5,-24.559998999999998,3b
2019-07-12_115534:240,-0.32843,0.004059,-0.364532,-0.007541,-0.015979,0.0016489999999999999,-38.560001,14.5,-24.559998999999998,3b
2019-07-12_115534:260,-0.3396,0.001007,-0.374695,-0.008334999999999999,-0.016437,0.002565,-38.560001,14.5,-24.559998999999998,3b
2019-07-12_115534:280,-0.35131799999999996,0.0,-0.381317,-0.008762,-0.015186000000000002,0.002687,-39.369999,14.06,-23.75,3b
2019-07-12_115534:300,-0.347748,-0.0030210000000000002,-0.381317,-0.008274,-0.012195000000000001,0.002046,-39.369999,14.06,-23.75,3b
2019-07-12_115534:320,-0.342163,-0.004059,-0.382324,-0.007601999999999999,-0.009326000000000001,0.001497,-38.560001,14.5,-24.559998999999998,3b
2019-07-12_115534:340,-0.335541,-0.0035399999999999997,-0.381805,-0.006229,-0.007343000000000001,0.001832,-38.560001,14.5,-24.559998999999998,3b
2019-07-12_115534:360,-0.329437,-0.004059,-0.377747,-0.004978,-0.006214,0.0019850000000000002,-38.560001,14.5,-24.559998999999998,3b
2019-07-12_115534:380,-0.326904,-0.004547,-0.374176,-0.0036659999999999996,-0.00539,0.001832,-38.25,14.06,-24.559998999999998,3b
2019-07-12_115534:400,-0.323853,-0.005065999999999999,-0.37112399999999995,-0.0019260000000000002,-0.0055119999999999995,0.001314,-38.25,14.06,-24.559998999999998,3b
2019-07-12_115534:420,-0.319794,-0.007599,-0.368073,-0.000675,-0.006854000000000001,0.000398,-38.5,14.5,-25.370001000000002,3b
2019-07-12_115534:440,-0.319794,-0.008636,-0.366058,0.001034,-0.008533,-0.0005480000000000001,-38.5,14.5,-25.370001000000002,3b
2019-07-12_115534:460,-0.316742,-0.004059,-0.36044299999999996,0.0028350000000000003,-0.009937,-0.000884,-38.5,14.5,-25.370001000000002,3b
2019-07-12_115534:480,-0.316742,-0.001007,-0.35943600000000003,0.0035060000000000004,-0.011768,-0.0005480000000000001,-37.75,14.37,-25.370001000000002,3b
2019-07-12_115534:500,-0.314178,0.004547,-0.359955,0.003353,-0.013233000000000002,0.000245,-37.75,14.37,-25.370001000000002,3b
2019-07-12_115534:520,-0.312653,0.006592,-0.359955,0.002316,-0.014697,0.000917,-37.75,14.37,-25.370001000000002,3b
2019-07-12_115534:540,-0.308075,0.007111,-0.365021,0.000515,-0.016040000000000002,0.002107,-37.75,14.37,-25.370001000000002,3b
2019-07-12_115534:560,-0.311646,0.006072999999999999,-0.370636,-0.001621,-0.017108,0.003694,-37.75,14.37,-25.370001000000002,3b
2019-07-12_115534:580,-0.316223,0.005065999999999999,-0.375214,-0.003452,-0.017353,0.004609,-37.75,13.25,-25.5,3b
2019-07-12_115534:600,-0.319794,0.005065999999999999,-0.381805,-0.005344,-0.016834000000000002,0.005128,-37.75,13.25,-25.5,3b
2019-07-12_115534:620,-0.315216,0.001495,-0.387909,-0.007297,-0.015766,0.005189,-37.869999,14.0,-26.25,3b
2019-07-12_115534:640,-0.315704,-0.002014,-0.390442,-0.008548,-0.014697,0.005067,-37.869999,14.0,-26.25,3b
2019-07-12_115534:660,-0.318268,-0.008118,-0.396057,-0.008884,-0.013507,0.004518,-37.869999,14.0,-26.25,3b
2019-07-12_115534:680,-0.318756,-0.010651,-0.397583,-0.008945,-0.011371,0.0029620000000000002,-37.869999,14.68,-26.68,3b
2019-07-12_115534:700,-0.320282,-0.011169,-0.396057,-0.008029999999999999,-0.009723,0.001253,-37.869999,14.68,-26.68,3b
2019-07-12_115534:720,-0.31369,-0.011169,-0.393494,-0.0067480000000000005,-0.007984,0.000123,-37.560001,13.68,-26.559998999999998,3b
2019-07-12_115534:740,-0.307068,-0.007111,-0.391968,-0.005436,-0.00719,-0.0009449999999999999,-37.560001,13.68,-26.559998999999998,3b
2019-07-12_115534:760,-0.306061,-0.0055850000000000006,-0.389435,-0.004001,-0.007006999999999999,-0.001891,-37.560001,13.68,-26.559998999999998,3b
2019-07-12_115534:780,-0.305542,-0.001495,-0.387909,-0.002994,-0.006854000000000001,-0.002257,-36.75,13.68,-27.75,3b
2019-07-12_115534:800,-0.305054,0.000488,-0.385376,-0.0016820000000000001,-0.006793,-0.00186,-36.75,13.68,-27.75,3b
2019-07-12_115534:820,-0.303528,0.0025329999999999997,-0.386383,-0.001011,-0.006731999999999999,-0.001738,-37.18,14.0,-27.059998999999998,3b
2019-07-12_115534:840,-0.302002,0.005065999999999999,-0.385376,-0.000553,-0.006945999999999999,-0.0017989999999999998,-37.18,14.0,-27.059998999999998,3b
2019-07-12_115534:860,-0.304535,0.006592,-0.391479,-0.000492,-0.0076170000000000005,-0.001341,-37.18,14.0,-27.059998999999998,3b
2019-07-12_115534:880,-0.308075,0.006072999999999999,-0.391968,-0.000797,-0.008197,-0.001341,-37.560001,14.0,-25.5,3b
2019-07-12_115534:900,-0.31369,0.006592,-0.396057,-0.001072,-0.008136,-0.0005480000000000001,-37.560001,14.0,-25.5,3b
2019-07-12_115534:920,-0.317749,0.008118,-0.397583,-0.001468,-0.007801000000000001,-0.000487,-37.5,14.0,-25.870001000000002,3b
2019-07-12_115534:940,-0.308075,0.009644,-0.392487,-0.0022010000000000003,-0.0070680000000000005,-0.001891,-37.5,14.0,-25.870001000000002,3b
2019-07-12_115534:960,-0.302002,0.013213999999999998,-0.390961,-0.002659,-0.006458,-0.002532,-37.5,14.0,-25.870001000000002,3b
2019-07-12_115534:980,-0.294373,0.015228,-0.388916,-0.002872,-0.006548999999999999,-0.000762,-37.869999,12.87,-26.25,3b
2019-07-12_115535:000,-0.28979499999999997,0.013213999999999998,-0.386383,-0.0032689999999999998,-0.006548999999999999,0.000795,-37.869999,12.87,-26.25,3b
2019-07-12_115535:020,-0.291321,0.014740000000000001,-0.38739,-0.003483,-0.007281999999999999,0.001771,-37.869999,13.25,-26.68,3b
2019-07-12_115535:040,-0.29284699999999997,0.014740000000000001,-0.38739,-0.003879,-0.007465,0.002382,-37.869999,13.25,-26.68,3b
2019-07-12_115535:060,-0.29538000000000003,0.012695,-0.392487,-0.004001,-0.007526000000000001,0.003023,-37.869999,13.25,-26.68,3b
2019-07-12_115535:080,-0.301483,0.013213999999999998,-0.39502,-0.004123,-0.007739,0.00345,-37.5,12.87,-27.059998999999998,3b
2019-07-12_115535:100,-0.305054,0.011169,-0.399109,-0.004275999999999999,-0.007281999999999999,0.003175,-37.5,12.87,-27.059998999999998,3b
2019-07-12_115535:120,-0.309113,0.009644,-0.401642,-0.0042450000000000005,-0.006275,0.0032359999999999997,-37.75,12.87,-26.25,3b
2019-07-12_115535:140,-0.311127,0.007111,-0.40063499999999996,-0.003544,-0.0045049999999999995,0.003358,-37.75,12.87,-26.25,3b
2019-07-12_115535:160,-0.311127,0.007111,-0.401123,-0.003147,-0.0030399999999999997,0.002229,-37.75,12.87,-26.25,3b
2019-07-12_115535:180,-0.308075,0.008636,-0.397583,-0.002475,-0.002124,0.001771,-37.5,12.18,-26.68,3b
2019-07-12_115535:200,-0.307587,0.008118,-0.396545,-0.001621,-0.0013310000000000002,0.0025039999999999997,-37.5,12.18,-26.68,3b
2019-07-12_115535:220,-0.309113,0.009125,-0.393005,-0.00095,-0.000995,0.0026260000000000003,-38.18,13.25,-27.5,3b
2019-07-12_115535:240,-0.31012,0.011169,-0.388428,-0.000736,-0.000995,0.002443,-38.18,13.25,-27.5,3b
2019-07-12_115535:260,-0.305054,0.014221000000000001,-0.385376,-0.00095,-0.00072,0.0034189999999999997,-38.18,13.25,-27.5,3b
2019-07-12_115535:280,-0.304535,0.014221000000000001,-0.382812,-0.001407,-0.0009339999999999999,0.0039689999999999994,-38.18,13.25,-27.75,3b
2019-07-12_115535:300,-0.30249000000000004,0.014221000000000001,-0.379272,-0.0022010000000000003,-0.0015140000000000002,0.004213000000000001,-38.18,13.25,-27.75,3b
2019-07-12_115535:320,-0.30249000000000004,0.012177,-0.377228,-0.002933,-0.002338,0.00525,-37.5,13.25,-25.0,3b
2019-07-12_115535:340,-0.300476,0.010651,-0.377747,-0.003788,-0.00307,0.005983,-37.5,13.25,-25.0,3b
2019-07-12_115535:360,-0.302002,0.009644,-0.38028,-0.004764,-0.004383,0.006318,-37.5,13.25,-25.0,3b
2019-07-12_115535:380,-0.305054,0.007111,-0.381317,-0.0052829999999999995,-0.005451,0.006837,-37.5,13.25,-25.870001000000002,3b
2019-07-12_115535:400,-0.307068,0.004059,-0.382324,-0.005741,-0.005725,0.007112,-37.5,13.25,-25.870001000000002,3b
2019-07-12_115535:420,-0.312653,0.001007,-0.385864,-0.005497,-0.005878,0.007387,-38.5,12.87,-26.25,3b
2019-07-12_115535:440,-0.315216,0.0,-0.386383,-0.005222,-0.005725,0.007509,-38.5,12.87,-26.25,3b
2019-07-12_115535:460,-0.315216,0.001007,-0.388916,-0.004642,-0.004961999999999999,0.0076,-38.5,12.87,-26.25,3b
2019-07-12_115535:480,-0.315704,0.002014,-0.389954,-0.004520000000000001,-0.0045049999999999995,0.007387,-37.060001,13.25,-26.68,3b
2019-07-12_115535:500,-0.318268,0.0030210000000000002,-0.388916,-0.004581,-0.003986,0.007722,-37.060001,13.25,-26.68,3b
2019-07-12_115535:520,-0.316223,0.0,-0.38739,-0.004825,-0.003192,0.009584,-38.18,12.87,-25.75,3b
2019-07-12_115535:540,-0.318756,-0.0030210000000000002,-0.386902,-0.005039,-0.002735,0.010499,-38.18,12.87,-25.75,3b
2019-07-12_115535:560,-0.314697,-0.0055850000000000006,-0.383331,-0.005679999999999999,-0.0025210000000000002,0.009492,-38.18,12.87,-25.75,3b
2019-07-12_115535:580,-0.308075,-0.007111,-0.381805,-0.005679999999999999,-0.00246,0.008912,-37.75,13.68,-25.75,3b
2019-07-12_115535:600,-0.307068,-0.008636,-0.378265,-0.005375,-0.0030399999999999997,0.008973,-37.75,13.68,-25.75,3b
2019-07-12_115535:620,-0.303528,-0.008118,-0.377747,-0.0052829999999999995,-0.003925,0.008973,-38.18,13.68,-27.0,3b
2019-07-12_115535:640,-0.307587,-0.006592,-0.376221,-0.005222,-0.004993,0.008577,-38.18,13.68,-27.0,3b
2019-07-12_115535:660,-0.309601,-0.007111,-0.378265,-0.005436,-0.00539,0.008058,-38.18,13.68,-27.0,3b
2019-07-12_115535:680,-0.31012,-0.009125,-0.379272,-0.005679999999999999,-0.005634,0.00757,-37.75,14.37,-25.75,3b
2019-07-12_115535:700,-0.310638,-0.010162000000000001,-0.382324,-0.005893,-0.005878,0.006654,-37.75,14.37,-25.75,3b
2019-07-12_115535:720,-0.312653,-0.010651,-0.38739,-0.005893,-0.005939,0.005525,-37.75,14.0,-25.370001000000002,3b
2019-07-12_115535:740,-0.318268,-0.011687999999999999,-0.385376,-0.005375,-0.006,0.005342,-37.75,14.0,-25.370001000000002,3b
2019-07-12_115535:760,-0.321808,-0.012695,-0.386902,-0.004581,-0.004993,0.005586,-37.75,14.0,-25.370001000000002,3b
2019-07-12_115535:780,-0.322327,-0.012177,-0.386902,-0.003879,-0.004169,0.004732,-37.75,14.0,-26.18,3b
2019-07-12_115535:800,-0.320282,-0.008636,-0.38385,-0.003483,-0.003192,0.0038159999999999995,-37.75,14.0,-26.18,3b
2019-07-12_115535:820,-0.31723,-0.006592,-0.379791,-0.002811,-0.002704,0.004274,-37.060001,13.68,-25.370001000000002,3b
2019-07-12_115535:840,-0.31369,-0.0035399999999999997,-0.377747,-0.002872,-0.0023989999999999997,0.004609,-37.060001,13.68,-25.370001000000002,3b
2019-07-12_115535:860,-0.308594,-0.004547,-0.374695,-0.0033909999999999995,-0.002735,0.004548,-37.060001,13.68,-25.370001000000002,3b
2019-07-12_115535:880,-0.306061,-0.0030210000000000002,-0.37265,-0.003879,-0.003711,0.00525,-37.75,13.68,-25.75,3b
2019-07-12_115535:900,-0.30654899999999996,-0.004059,-0.373688,-0.004398,-0.005115,0.0058,-37.75,13.68,-25.75,3b
2019-07-12_115535:920,-0.310638,-0.006592,-0.374695,-0.005039,-0.006275,0.005983,-38.18,14.37,-26.559998999999998,3b
2019-07-12_115535:940,-0.312164,-0.009644,-0.375214,-0.005161,-0.007006999999999999,0.006074,-38.18,14.37,-26.559998999999998,3b
2019-07-12_115535:960,-0.315216,-0.010651,-0.379272,-0.0052829999999999995,-0.007739,0.005922,-38.18,14.37,-26.559998999999998,3b
2019-07-12_115535:980,-0.314178,-0.010651,-0.381317,-0.005375,-0.007801000000000001,0.005861,-37.060001,14.0,-26.559998999999998,3b
2019-07-12_115536:000,-0.31369,-0.011687999999999999,-0.382324,-0.005375,-0.008075,0.005189,-37.060001,14.0,-26.559998999999998,3b
2019-07-12_115536:020,-0.313171,-0.010162000000000001,-0.382324,-0.005222,-0.00838,0.004609,-38.18,14.0,-26.559998999999998,3b
2019-07-12_115536:040,-0.312653,-0.009644,-0.382812,-0.005222,-0.007923000000000001,0.004335,-38.18,14.0,-26.559998999999998,3b
2019-07-12_115536:060,-0.314697,-0.009644,-0.382812,-0.005039,-0.007801000000000001,0.004213000000000001,-38.18,14.0,-26.559998999999998,3b
2019-07-12_115536:080,-0.312653,-0.007111,-0.381317,-0.0052829999999999995,-0.007281999999999999,0.004457,-37.5,14.37,-27.370001000000002,3b
2019-07-12_115536:100,-0.310638,-0.006072999999999999,-0.382324,-0.005375,-0.00719,0.004182,-37.5,14.37,-27.370001000000002,3b
2019-07-12_115536:120,-0.308075,-0.005065999999999999,-0.382324,-0.005954,-0.006885,0.004152,-37.060001,14.37,-25.75,3b
2019-07-12_115536:140,-0.305542,-0.006072999999999999,-0.380798,-0.00629,-0.006945999999999999,0.005006,-37.060001,14.37,-25.75,3b
2019-07-12_115536:160,-0.310638,-0.008118,-0.384338,-0.0064730000000000005,-0.007465,0.004457,-37.060001,14.37,-25.75,3b
2019-07-12_115536:180,-0.310638,-0.008636,-0.386902,-0.006412,-0.007404000000000001,0.0029,-37.060001,14.0,-26.18,3b
2019-07-12_115536:200,-0.309113,-0.008118,-0.38739,-0.005893,-0.007220999999999999,0.002168,-37.060001,14.0,-26.18,3b
2019-07-12_115536:220,-0.310638,-0.010162000000000001,-0.390442,-0.004886,-0.007404000000000001,0.002443,-37.060001,14.0,-25.370001000000002,3b
2019-07-12_115536:240,-0.31723,-0.008118,-0.388428,-0.004062,-0.006945999999999999,0.002382,-37.060001,14.0,-25.370001000000002,3b
2019-07-12_115536:260,-0.318268,-0.004547,-0.389435,-0.003055,-0.0060609999999999995,0.002107,-37.060001,14.0,-25.370001000000002,3b
2019-07-12_115536:280,-0.317749,0.000488,-0.387909,-0.002536,-0.0052369999999999995,0.001893,-37.060001,14.37,-26.559998999999998,3b
2019-07-12_115536:300,-0.312653,0.0030210000000000002,-0.384857,-0.0027199999999999998,-0.004169,0.002321,-37.060001,14.37,-26.559998999999998,3b
2019-07-12_115536:320,-0.310638,0.0035399999999999997,-0.38385,-0.0033299999999999996,-0.0037719999999999997,0.003175,-38.18,14.0,-25.370001000000002,3b
2019-07-12_115536:340,-0.307587,0.0035399999999999997,-0.38385,-0.004337,-0.0038640000000000002,0.004182,-38.18,14.0,-25.370001000000002,3b
2019-07-12_115536:360,-0.315704,-0.000488,-0.382812,-0.0052829999999999995,-0.004444,0.005311,-38.18,14.0,-25.370001000000002,3b
2019-07-12_115536:380,-0.314178,-0.0035399999999999997,-0.380798,-0.005497,-0.0038640000000000002,0.0058,-36.68,14.0,-26.18,3b
2019-07-12_115536:400,-0.308075,-0.004547,-0.380798,-0.005679999999999999,-0.00365,0.005586,-36.68,14.0,-26.18,3b
2019-07-12_115536:420,-0.306061,-0.005065999999999999,-0.381317,-0.005679999999999999,-0.003925,0.005861,-37.75,14.0,-25.0,3b
2019-07-12_115536:440,-0.305542,-0.009125,-0.379272,-0.005344,-0.004566,0.006044,-37.75,14.0,-25.0,3b
2019-07-12_115536:460,-0.309113,-0.007111,-0.381805,-0.005161,-0.0052369999999999995,0.005403,-37.75,14.0,-25.0,3b
2019-07-12_115536:480,-0.311127,-0.006592,-0.382324,-0.004764,-0.005298,0.004915,-38.18,13.68,-25.0,3b
2019-07-12_115536:500,-0.310638,-0.008118,-0.383331,-0.004642,-0.005451,0.004793,-38.18,13.68,-25.0,3b
2019-07-12_115536:520,-0.311646,-0.008118,-0.384857,-0.004520000000000001,-0.005451,0.004396,-38.18,14.0,-26.18,3b
2019-07-12_115536:540,-0.313171,-0.008118,-0.384338,-0.004337,-0.005451,0.003908,-38.18,14.0,-26.18,3b
2019-07-12_115536:560,-0.317749,-0.007599,-0.385376,-0.004001,-0.005054,0.0039689999999999994,-38.18,14.0,-26.18,3b
2019-07-12_115536:580,-0.315704,-0.008636,-0.384338,-0.0037270000000000003,-0.004321,0.004335,-37.75,14.0,-25.75,3b
2019-07-12_115536:600,-0.316742,-0.008118,-0.384338,-0.003452,-0.003833,0.004274,-37.75,14.0,-25.75,3b
2019-07-12_115536:620,-0.313171,-0.006072999999999999,-0.383331,-0.0032689999999999998,-0.003436,0.004152,-37.5,14.0,-26.18,3b
2019-07-12_115536:640,-0.311127,-0.005065999999999999,-0.381805,-0.003452,-0.0032530000000000002,0.004548,-37.5,14.0,-26.18,3b
2019-07-12_115536:660,-0.312653,-0.006072999999999999,-0.381317,-0.0037270000000000003,-0.003467,0.004945000000000001,-37.5,14.0,-26.18,3b
2019-07-12_115536:680,-0.312653,-0.006592,-0.379272,-0.004184,-0.003467,0.005189,-37.060001,14.68,-26.559998999999998,3b
2019-07-12_115536:700,-0.315704,-0.007599,-0.381317,-0.004275999999999999,-0.003833,0.005403,-37.060001,14.68,-26.559998999999998,3b
2019-07-12_115536:720,-0.311646,-0.008118,-0.378265,-0.004581,-0.0038640000000000002,0.005525,-37.75,14.0,-25.0,3b
2019-07-12_115536:740,-0.312164,-0.008636,-0.378265,-0.004825,-0.00426,0.006654,-37.75,14.0,-25.0,3b
2019-07-12_115536:760,-0.316742,-0.012695,-0.378754,-0.004886,-0.004718,0.006837,-37.75,14.0,-25.0,3b
2019-07-12_115536:780,-0.316742,-0.013702,-0.379791,-0.005161,-0.0045049999999999995,0.005678,-37.5,14.68,-25.75,3b
2019-07-12_115536:800,-0.312164,-0.014740000000000001,-0.378754,-0.0052829999999999995,-0.004444,0.005006,-37.5,14.68,-25.75,3b
2019-07-12_115536:820,-0.31369,-0.015228,-0.379272,-0.004612,-0.00484,0.005403,-38.18,14.0,-25.370001000000002,3b
2019-07-12_115536:840,-0.314178,-0.015228,-0.377228,-0.004275999999999999,-0.004993,0.005311,-38.18,14.0,-25.370001000000002,3b
2019-07-12_115536:860,-0.314697,-0.015747,-0.377747,-0.003849,-0.005176,0.004854,-38.18,14.0,-25.370001000000002,3b
2019-07-12_115536:880,-0.315216,-0.012177,-0.377747,-0.0033909999999999995,-0.005176,0.004518,-37.75,14.37,-26.18,3b
2019-07-12_115536:900,-0.314178,-0.011687999999999999,-0.377228,-0.0036659999999999996,-0.005115,0.004457,-37.75,14.37,-26.18,3b
2019-07-12_115536:920,-0.314178,-0.010651,-0.379272,-0.004062,-0.00539,0.004518,-38.18,14.68,-27.0,3b
2019-07-12_115536:940,-0.315216,-0.011169,-0.379791,-0.004459,-0.00539,0.004609,-38.18,14.68,-27.0,3b
2019-07-12_115536:960,-0.320282,-0.012177,-0.381317,-0.004886,-0.005756,0.004945000000000001,-38.18,14.68,-27.0,3b
2019-07-12_115536:980,-0.319275,-0.013213999999999998,-0.379791,-0.004825,-0.005176,0.00525,-37.75,14.0,-25.75,3b
2019-07-12_115537:000,-0.315704,-0.013213999999999998,-0.379791,-0.004764,-0.005054,0.004609,-37.75,14.0,-25.75,3b
2019-07-12_115537:020,-0.314178,-0.012695,-0.379791,-0.004947,-0.005359,0.004915,-38.18,14.37,-25.75,3b
2019-07-12_115537:040,-0.312653,-0.012177,-0.37674,-0.004886,-0.005054,0.005311,-38.18,14.37,-25.75,3b
2019-07-12_115537:060,-0.314178,-0.012695,-0.377228,-0.005039,-0.005634,0.005525,-38.18,14.37,-25.75,3b
2019-07-12_115537:080,-0.312653,-0.012177,-0.378754,-0.005436,-0.006,0.005189,-37.75,14.68,-25.75,3b
2019-07-12_115537:100,-0.312164,-0.011687999999999999,-0.37674,-0.005679999999999999,-0.006275,0.005525,-37.75,14.68,-25.75,3b
2019-07-12_115537:120,-0.31369,-0.015228,-0.381317,-0.005741,-0.0066099999999999996,0.00525,-37.060001,14.68,-26.18,3b
2019-07-12_115537:140,-0.313171,-0.014740000000000001,-0.379791,-0.005771,-0.006670999999999999,0.005128,-37.060001,14.68,-26.18,3b
2019-07-12_115537:160,-0.31369,-0.014740000000000001,-0.380798,-0.005436,-0.006548999999999999,0.00525,-37.060001,14.68,-26.18,3b
2019-07-12_115537:180,-0.315704,-0.013702,-0.383331,-0.005161,-0.006397,0.00525,-38.18,14.68,-25.370001000000002,3b
2019-07-12_115537:200,-0.315704,-0.013213999999999998,-0.381317,-0.005222,-0.006,0.004732,-38.18,14.68,-25.370001000000002,3b
2019-07-12_115537:220,-0.316742,-0.013213999999999998,-0.382812,-0.005344,-0.005756,0.004518,-38.18,13.68,-25.370001000000002,3b
2019-07-12_115537:240,-0.315704,-0.013213999999999998,-0.381317,-0.005436,-0.0055119999999999995,0.004335,-38.18,13.68,-25.370001000000002,3b
2019-07-12_115537:260,-0.315704,-0.011687999999999999,-0.380798,-0.005436,-0.005359,0.004091,-38.18,13.68,-25.370001000000002,3b
2019-07-12_115537:280,-0.313171,-0.011687999999999999,-0.380798,-0.005558,-0.005725,0.0037549999999999997,-37.060001,14.37,-26.18,3b
2019-07-12_115537:300,-0.315704,-0.011687999999999999,-0.380798,-0.005436,-0.0061530000000000005,0.00345,-37.060001,14.37,-26.18,3b
2019-07-12_115537:320,-0.317749,-0.010651,-0.379272,-0.005222,-0.005725,0.004609,-38.18,14.37,-25.0,3b
2019-07-12_115537:340,-0.314178,-0.009125,-0.38028,-0.0052829999999999995,-0.005725,0.005311,-38.18,14.37,-25.0,3b
2019-07-12_115537:360,-0.31723,-0.008118,-0.380798,-0.005741,-0.0060609999999999995,0.004274,-38.18,14.37,-25.0,3b
2019-07-12_115537:380,-0.312653,-0.008118,-0.379272,-0.006412,-0.006092,0.0032359999999999997,-38.18,14.0,-25.75,3b
2019-07-12_115537:400,-0.308594,-0.006072999999999999,-0.379791,-0.006351,-0.006458,0.004152,-38.18,14.0,-25.75,3b
2019-07-12_115537:420,-0.310638,-0.008636,-0.382812,-0.006351,-0.006488,0.004732,-37.75,14.68,-25.370001000000002,3b
2019-07-12_115537:440,-0.310638,-0.010651,-0.381317,-0.006351,-0.006670999999999999,0.004548,-37.75,14.68,-25.370001000000002,3b
2019-07-12_115537:460,-0.313171,-0.008118,-0.384857,-0.005954,-0.006275,0.004457,-37.75,14.68,-25.370001000000002,3b
2019-07-12_115537:480,-0.311127,-0.008636,-0.381805,-0.005832,-0.0061530000000000005,0.004518,-36.68,14.0,-25.370001000000002,3b
2019-07-12_115537:500,-0.310638,-0.009125,-0.383331,-0.006076,-0.006458,0.004091,-36.68,14.0,-25.370001000000002,3b
2019-07-12_115537:520,-0.312164,-0.010651,-0.384338,-0.005679999999999999,-0.006458,0.0034189999999999997,-38.18,14.37,-26.18,3b
2019-07-12_115537:540,-0.313171,-0.010651,-0.384338,-0.005497,-0.006458,0.003297,-38.18,14.37,-26.18,3b
2019-07-12_115537:560,-0.318756,-0.010651,-0.384857,-0.004764,-0.005939,0.003908,-38.18,14.37,-26.18,3b
2019-07-12_115537:580,-0.315216,-0.010162000000000001,-0.38385,-0.004275999999999999,-0.005451,0.003297,-37.5,14.0,-25.75,3b
2019-07-12_115537:600,-0.31369,-0.008118,-0.382812,-0.004612,-0.0052369999999999995,0.00229,-37.5,14.0,-25.75,3b
2019-07-12_115537:620,-0.310638,-0.005065999999999999,-0.38385,-0.004703,-0.0052369999999999995,0.003297,-37.5,14.0,-26.18,3b
2019-07-12_115537:640,-0.310638,-0.005065999999999999,-0.38385,-0.004612,-0.005298,0.0039689999999999994,-37.5,14.0,-26.18,3b
2019-07-12_115537:660,-0.310638,-0.006072999999999999,-0.380798,-0.0051,-0.005573,0.003297,-37.5,14.0,-26.18,3b
2019-07-12_115537:680,-0.311127,-0.0035399999999999997,-0.381317,-0.005436,-0.005878,0.002839,-38.18,14.37,-26.559998999999998,3b
2019-07-12_115537:700,-0.310638,-0.0030210000000000002,-0.38028,-0.005741,-0.006092,0.003358,-38.18,14.37,-26.559998999999998,3b
2019-07-12_115537:720,-0.309113,-0.006592,-0.382812,-0.005893,-0.006275,0.003297,-37.75,14.37,-26.18,3b
2019-07-12_115537:740,-0.309601,-0.005065999999999999,-0.382812,-0.005954,-0.006488,0.002839,-37.75,14.37,-26.18,3b
2019-07-12_115537:760,-0.312164,-0.004547,-0.382812,-0.005679999999999999,-0.006488,0.003694,-37.75,14.37,-26.18,3b
