timestamp,AccX,AccY,AccZ,GyroX,GyroY,GyroZ,MagX,MagY,MagZ,Activity
2019-07-12_104914:100,-0.307068,-0.027954000000000003,-0.387909,-0.004612,-0.005573,0.003633,-39.869999,-16.5,-42.869999,2b
2019-07-12_104914:120,-0.307068,-0.028961,-0.390442,-0.004459,-0.005878,0.00403,-39.5,-17.18,-42.0,2b
2019-07-12_104914:140,-0.30654899999999996,-0.029480000000000003,-0.389954,-0.004520000000000001,-0.006092,0.004091,-39.5,-17.18,-42.0,2b
2019-07-12_104914:160,-0.307587,-0.028442000000000002,-0.391968,-0.004703,-0.006275,0.004335,-39.5,-17.18,-42.0,2b
2019-07-12_104914:180,-0.309113,-0.030487,-0.393005,-0.004978,-0.006397,0.004457,-39.869999,-17.559998999999998,-42.0,2b
2019-07-12_104914:200,-0.308075,-0.030487,-0.392487,-0.005375,-0.006214,0.004518,-39.869999,-17.559998999999998,-42.0,2b
2019-07-12_104914:220,-0.309113,-0.029480000000000003,-0.390961,-0.005679999999999999,-0.005878,0.004213000000000001,-40.18,-17.18,-41.68,2b
2019-07-12_104914:240,-0.308594,-0.029480000000000003,-0.391968,-0.005741,-0.005756,0.004091,-40.18,-17.18,-41.68,2b
2019-07-12_104914:260,-0.305054,-0.030487,-0.392487,-0.005741,-0.005817,0.004335,-40.18,-17.18,-41.68,2b
2019-07-12_104914:280,-0.306061,-0.029480000000000003,-0.392487,-0.005497,-0.005725,0.004182,-39.5,-17.18,-42.369999,2b
2019-07-12_104914:300,-0.307068,-0.029968,-0.393005,-0.005344,-0.005695,0.0039689999999999994,-39.5,-17.18,-42.369999,2b
2019-07-12_104914:320,-0.309113,-0.027954000000000003,-0.393005,-0.004978,-0.005695,0.004091,-40.18,-16.5,-42.869999,2b
2019-07-12_104914:340,-0.31012,-0.027435,-0.393005,-0.004703,-0.005573,0.004396,-40.18,-16.5,-42.869999,2b
2019-07-12_104914:360,-0.304535,-0.026917,-0.390961,-0.004581,-0.0052369999999999995,0.00403,-40.18,-16.5,-42.869999,2b
2019-07-12_104914:380,-0.311127,-0.024902,-0.390961,-0.004581,-0.005115,0.003511,-39.869999,-17.18,-42.0,2b
2019-07-12_104914:400,-0.304535,-0.026427999999999997,-0.390961,-0.004612,-0.0052369999999999995,0.004182,-39.869999,-17.18,-42.0,2b
2019-07-12_104914:420,-0.303528,-0.025908999999999998,-0.391479,-0.004398,-0.005725,0.004548,-39.869999,-17.18,-42.0,2b
2019-07-12_104914:440,-0.30249000000000004,-0.023895,-0.389954,-0.004764,-0.0066099999999999996,0.0039689999999999994,-39.869999,-17.18,-42.0,2b
2019-07-12_104914:460,-0.307587,-0.023375999999999997,-0.389954,-0.005161,-0.0076170000000000005,0.004335,-39.869999,-17.18,-42.0,2b
2019-07-12_104914:480,-0.310638,-0.026427999999999997,-0.392487,-0.005497,-0.007343000000000001,0.005342,-39.869999,-16.870001000000002,-42.75,2b
2019-07-12_104914:500,-0.308594,-0.027435,-0.390442,-0.005893,-0.006731999999999999,0.00525,-39.869999,-16.870001000000002,-42.75,2b
2019-07-12_104914:520,-0.309113,-0.027954000000000003,-0.391479,-0.005893,-0.0066099999999999996,0.004518,-39.5,-17.559998999999998,-42.0,2b
2019-07-12_104914:540,-0.307068,-0.028442000000000002,-0.392487,-0.005832,-0.006488,0.004152,-39.5,-17.559998999999998,-42.0,2b
2019-07-12_104914:560,-0.31012,-0.026917,-0.394531,-0.005497,-0.006548999999999999,0.004457,-39.5,-17.559998999999998,-42.0,2b
2019-07-12_104914:580,-0.309601,-0.028442000000000002,-0.39502,-0.005619,-0.0060609999999999995,0.004609,-39.5,-16.870001000000002,-42.0,2b
2019-07-12_104914:600,-0.308075,-0.026917,-0.394531,-0.005558,-0.005634,0.004609,-39.5,-16.870001000000002,-42.0,2b
2019-07-12_104914:620,-0.308594,-0.027435,-0.394531,-0.005497,-0.00539,0.004548,-39.5,-16.870001000000002,-41.560001,2b
2019-07-12_104914:640,-0.307068,-0.028442000000000002,-0.393005,-0.005558,-0.005298,0.004274,-39.5,-16.870001000000002,-41.560001,2b
2019-07-12_104914:660,-0.305542,-0.028961,-0.393494,-0.005558,-0.004779,0.004548,-39.5,-16.870001000000002,-41.560001,2b
2019-07-12_104914:680,-0.304016,-0.028442000000000002,-0.390442,-0.005222,-0.005054,0.004548,-39.5,-16.870001000000002,-43.560001,2b
2019-07-12_104914:700,-0.307068,-0.026427999999999997,-0.392487,-0.004825,-0.005451,0.0034189999999999997,-39.5,-16.870001000000002,-43.560001,2b
2019-07-12_104914:720,-0.306061,-0.023375999999999997,-0.391968,-0.004703,-0.005573,0.0032359999999999997,-39.060001,-16.5,-43.18,2b
2019-07-12_104914:740,-0.307587,-0.024902,-0.391968,-0.004612,-0.005573,0.004671,-39.060001,-16.5,-43.18,2b
2019-07-12_104914:760,-0.307068,-0.025908999999999998,-0.391479,-0.004612,-0.005573,0.005128,-39.060001,-16.5,-43.18,2b
2019-07-12_104914:780,-0.305054,-0.025908999999999998,-0.390442,-0.004612,-0.005695,0.004609,-39.869999,-16.870001000000002,-42.0,2b
2019-07-12_104914:800,-0.307587,-0.026917,-0.393005,-0.004581,-0.005695,0.004548,-39.869999,-16.870001000000002,-42.0,2b
2019-07-12_104914:820,-0.305542,-0.024902,-0.390961,-0.004459,-0.005817,0.004671,-39.869999,-17.18,-42.0,2b
2019-07-12_104914:840,-0.305542,-0.025421,-0.393005,-0.004642,-0.005817,0.004854,-39.869999,-17.18,-42.0,2b
2019-07-12_104914:860,-0.304535,-0.026917,-0.393005,-0.004642,-0.005817,0.005006,-39.869999,-17.18,-42.0,2b
2019-07-12_104914:880,-0.305054,-0.026427999999999997,-0.394012,-0.0042450000000000005,-0.005878,0.004915,-39.869999,-17.559998999999998,-42.869999,2b
2019-07-12_104914:900,-0.306061,-0.025908999999999998,-0.393005,-0.004062,-0.0060609999999999995,0.004518,-39.869999,-17.559998999999998,-42.869999,2b
2019-07-12_104914:920,-0.307068,-0.023895,-0.391479,-0.004275999999999999,-0.005756,0.005006,-39.5,-17.559998999999998,-42.869999,2b
2019-07-12_104914:940,-0.30654899999999996,-0.024384,-0.391968,-0.004581,-0.005634,0.005464,-39.5,-17.559998999999998,-42.869999,2b
2019-07-12_104914:960,-0.30654899999999996,-0.025421,-0.391479,-0.005039,-0.005725,0.005525,-39.5,-17.559998999999998,-42.869999,2b
2019-07-12_104914:980,-0.307587,-0.026427999999999997,-0.393494,-0.005497,-0.005939,0.005311,-39.5,-16.5,-42.0,2b
2019-07-12_104915:000,-0.308594,-0.026917,-0.393005,-0.005619,-0.005878,0.005006,-39.5,-16.5,-42.0,2b
2019-07-12_104915:020,-0.309113,-0.028961,-0.391968,-0.005558,-0.00539,0.005006,-39.869999,-17.18,-41.68,2b
2019-07-12_104915:040,-0.309113,-0.027954000000000003,-0.390961,-0.0052829999999999995,-0.0052369999999999995,0.00525,-39.869999,-17.18,-41.68,2b
2019-07-12_104915:060,-0.30654899999999996,-0.028442000000000002,-0.393005,-0.005222,-0.005054,0.005525,-39.869999,-17.18,-41.68,2b
2019-07-12_104915:080,-0.307587,-0.029480000000000003,-0.390961,-0.005039,-0.004993,0.005342,-40.18,-16.5,-41.18,2b
2019-07-12_104915:100,-0.307587,-0.027435,-0.392487,-0.004947,-0.005176,0.005342,-40.18,-16.5,-41.18,2b
2019-07-12_104915:120,-0.308594,-0.027954000000000003,-0.391968,-0.004978,-0.0052369999999999995,0.005342,-39.5,-17.559998999999998,-42.869999,2b
2019-07-12_104915:140,-0.308075,-0.025908999999999998,-0.388916,-0.005039,-0.005176,0.005311,-39.5,-17.559998999999998,-42.869999,2b
2019-07-12_104915:160,-0.308075,-0.026427999999999997,-0.388428,-0.005436,-0.005054,0.005464,-39.5,-17.559998999999998,-42.869999,2b
2019-07-12_104915:180,-0.30654899999999996,-0.029480000000000003,-0.388916,-0.005619,-0.004993,0.005739,-39.869999,-17.18,-41.18,2b
2019-07-12_104915:200,-0.301483,-0.028442000000000002,-0.386902,-0.005832,-0.0052369999999999995,0.005403,-39.869999,-17.18,-41.18,2b
2019-07-12_104915:220,-0.308075,-0.029480000000000003,-0.389954,-0.005954,-0.005817,0.005067,-39.060001,-16.870001000000002,-42.369999,2b
2019-07-12_104915:240,-0.304535,-0.029480000000000003,-0.389954,-0.005954,-0.0061530000000000005,0.005342,-39.060001,-16.870001000000002,-42.369999,2b
2019-07-12_104915:260,-0.306061,-0.031494,-0.392487,-0.005375,-0.006793,0.005403,-39.060001,-16.870001000000002,-42.369999,2b
2019-07-12_104915:280,-0.309113,-0.028442000000000002,-0.39502,-0.005619,-0.006945999999999999,0.004793,-40.18,-17.18,-41.560001,2b
2019-07-12_104915:300,-0.306061,-0.028961,-0.394531,-0.005497,-0.006885,0.005464,-40.18,-17.18,-41.560001,2b
2019-07-12_104915:320,-0.307587,-0.032013,-0.396545,-0.005741,-0.006731999999999999,0.006379,-40.560001,-16.870001000000002,-41.68,2b
2019-07-12_104915:340,-0.31012,-0.031494,-0.396057,-0.005619,-0.006214,0.005586,-40.560001,-16.870001000000002,-41.68,2b
2019-07-12_104915:360,-0.309113,-0.032013,-0.395538,-0.005619,-0.005573,0.004609,-40.560001,-16.870001000000002,-41.68,2b
2019-07-12_104915:380,-0.307068,-0.031006,-0.394531,-0.005344,-0.004993,0.004548,-39.5,-16.870001000000002,-40.869999,2b
2019-07-12_104915:400,-0.308075,-0.032013,-0.393494,-0.0051,-0.004779,0.004915,-39.5,-16.870001000000002,-40.869999,2b
2019-07-12_104915:420,-0.306061,-0.030487,-0.391968,-0.004764,-0.004566,0.004609,-40.18,-17.18,-43.18,2b
2019-07-12_104915:440,-0.30654899999999996,-0.028961,-0.391479,-0.004612,-0.0045049999999999995,0.004609,-40.18,-17.18,-43.18,2b
2019-07-12_104915:460,-0.308075,-0.026427999999999997,-0.392487,-0.004581,-0.00484,0.004609,-40.18,-17.18,-43.18,2b
2019-07-12_104915:480,-0.307587,-0.026427999999999997,-0.390961,-0.004825,-0.005054,0.004609,-39.060001,-17.559998999999998,-42.0,2b
2019-07-12_104915:500,-0.308075,-0.027435,-0.391968,-0.005436,-0.004718,0.005006,-39.060001,-17.559998999999998,-42.0,2b
2019-07-12_104915:520,-0.305054,-0.028961,-0.389435,-0.005619,-0.004718,0.005403,-40.560001,-17.18,-41.18,2b
2019-07-12_104915:540,-0.310638,-0.029968,-0.389954,-0.005558,-0.004779,0.004396,-40.560001,-17.18,-41.18,2b
2019-07-12_104915:560,-0.31012,-0.028961,-0.388916,-0.005344,-0.004901,0.004182,-40.560001,-17.18,-41.18,2b
2019-07-12_104915:580,-0.311127,-0.029968,-0.390442,-0.004947,-0.004961999999999999,0.005128,-40.18,-16.870001000000002,-42.0,2b
2019-07-12_104915:600,-0.307587,-0.029968,-0.38739,-0.004825,-0.004596,0.005586,-40.18,-16.870001000000002,-42.0,2b
2019-07-12_104915:620,-0.308075,-0.029968,-0.389435,-0.004642,-0.00484,0.00525,-40.18,-16.870001000000002,-41.18,2b
2019-07-12_104915:640,-0.307587,-0.029968,-0.387909,-0.004764,-0.004779,0.004945000000000001,-40.18,-16.870001000000002,-41.18,2b
2019-07-12_104915:660,-0.307587,-0.029480000000000003,-0.389435,-0.004978,-0.0052369999999999995,0.004335,-40.18,-16.870001000000002,-41.18,2b
2019-07-12_104915:680,-0.309601,-0.028442000000000002,-0.389435,-0.004764,-0.005695,0.003694,-39.5,-17.18,-42.0,2b
2019-07-12_104915:700,-0.31012,-0.028442000000000002,-0.389435,-0.004520000000000001,-0.005878,0.003175,-39.5,-17.18,-42.0,2b
2019-07-12_104915:720,-0.308075,-0.028442000000000002,-0.388916,-0.004337,-0.005725,0.003053,-40.18,-17.18,-41.560001,2b
2019-07-12_104915:740,-0.307068,-0.026427999999999997,-0.388916,-0.004123,-0.005573,0.003053,-40.18,-17.18,-41.560001,2b
2019-07-12_104915:760,-0.308075,-0.025421,-0.390442,-0.003879,-0.005756,0.003694,-40.18,-17.18,-41.560001,2b
2019-07-12_104915:780,-0.309601,-0.022858,-0.391479,-0.004184,-0.005878,0.004152,-40.18,-16.870001000000002,-43.18,2b
2019-07-12_104915:800,-0.31012,-0.024384,-0.391479,-0.004275999999999999,-0.005725,0.004274,-40.18,-16.870001000000002,-43.18,2b
2019-07-12_104915:820,-0.309113,-0.023895,-0.393005,-0.004703,-0.005634,0.004274,-40.18,-17.18,-42.0,2b
2019-07-12_104915:840,-0.309113,-0.023375999999999997,-0.391479,-0.004825,-0.0055119999999999995,0.004609,-40.18,-17.18,-42.0,2b
2019-07-12_104915:860,-0.310638,-0.024384,-0.392487,-0.004978,-0.005359,0.005128,-40.18,-17.18,-42.0,2b
2019-07-12_104915:880,-0.309601,-0.025421,-0.391968,-0.0051,-0.005176,0.005464,-41.369999,-16.870001000000002,-42.369999,2b
2019-07-12_104915:900,-0.309113,-0.024902,-0.391968,-0.005039,-0.005054,0.005678,-41.369999,-16.870001000000002,-42.369999,2b
2019-07-12_104915:920,-0.310638,-0.023375999999999997,-0.393005,-0.005375,-0.005115,0.005739,-39.869999,-16.5,-41.18,2b
2019-07-12_104915:940,-0.310638,-0.022858,-0.390961,-0.005558,-0.004779,0.006196,-39.869999,-16.5,-41.18,2b
2019-07-12_104915:960,-0.309601,-0.023375999999999997,-0.391479,-0.00629,-0.004901,0.006532,-39.869999,-16.5,-41.18,2b
2019-07-12_104915:980,-0.309601,-0.025421,-0.391479,-0.00687,-0.004901,0.007265000000000001,-41.369999,-16.5,-41.68,2b
2019-07-12_104916:000,-0.31012,-0.025908999999999998,-0.390961,-0.007267,-0.004657,0.007661,-41.369999,-16.5,-41.68,2b
2019-07-12_104916:020,-0.309601,-0.026427999999999997,-0.391968,-0.007541,-0.004596,0.008058,-40.560001,-16.870001000000002,-41.18,2b
2019-07-12_104916:040,-0.309601,-0.026427999999999997,-0.391479,-0.0076939999999999995,-0.004444,0.008699,-40.560001,-16.870001000000002,-41.18,2b
2019-07-12_104916:060,-0.315704,-0.028442000000000002,-0.391479,-0.008091,-0.004383,0.009035,-40.560001,-16.870001000000002,-41.18,2b
2019-07-12_104916:080,-0.308594,-0.028442000000000002,-0.389435,-0.008334999999999999,-0.003833,0.009035,-39.869999,-16.5,-42.0,2b
2019-07-12_104916:100,-0.308075,-0.027954000000000003,-0.385376,-0.008487,-0.0032530000000000002,0.008790000000000001,-39.869999,-16.5,-42.0,2b
2019-07-12_104916:120,-0.308075,-0.030487,-0.386383,-0.008609,-0.0031309999999999997,0.008973,-41.0,-16.870001000000002,-41.18,2b
2019-07-12_104916:140,-0.304535,-0.032013,-0.384338,-0.008548,-0.0032530000000000002,0.009187,-41.0,-16.870001000000002,-41.18,2b
2019-07-12_104916:160,-0.31369,-0.032013,-0.390961,-0.008334999999999999,-0.00426,0.009096,-41.0,-16.870001000000002,-41.18,2b
2019-07-12_104916:180,-0.314697,-0.030487,-0.390961,-0.008029999999999999,-0.004596,0.008638,-40.18,-16.5,-40.369999,2b
2019-07-12_104916:200,-0.315704,-0.024902,-0.388428,-0.008029999999999999,-0.004566,0.008851000000000001,-40.18,-16.5,-40.369999,2b
2019-07-12_104916:220,-0.315216,-0.028442000000000002,-0.388916,-0.008945,-0.004108,0.009309,-41.0,-16.870001000000002,-39.68,2b
2019-07-12_104916:240,-0.312653,-0.028442000000000002,-0.385864,-0.008274,-0.0035280000000000003,0.009706000000000001,-41.0,-16.870001000000002,-39.68,2b
2019-07-12_104916:260,-0.311127,-0.028961,-0.385376,-0.008609,-0.003467,0.007448000000000001,-41.0,-16.870001000000002,-39.68,2b
2019-07-12_104916:280,-0.311646,-0.027954000000000003,-0.384857,-0.008274,-0.0035280000000000003,0.006044,-40.18,-16.059998999999998,-40.369999,2b
2019-07-12_104916:300,-0.312653,-0.026917,-0.384338,-0.007877,-0.003833,0.0069900000000000006,-40.18,-16.059998999999998,-40.369999,2b
2019-07-12_104916:320,-0.31012,-0.029480000000000003,-0.38385,-0.0076939999999999995,-0.004169,0.0071730000000000006,-41.68,-16.5,-40.0,2b
2019-07-12_104916:340,-0.31012,-0.028442000000000002,-0.381317,-0.007358,-0.004444,0.0067150000000000005,-41.68,-16.5,-40.0,2b
2019-07-12_104916:360,-0.311127,-0.029968,-0.382812,-0.006626000000000001,-0.004993,0.0069900000000000006,-41.68,-16.5,-40.0,2b
2019-07-12_104916:380,-0.316742,-0.031006,-0.382812,-0.0061070000000000004,-0.005573,0.006868000000000001,-42.060001,-16.870001000000002,-41.18,2b
2019-07-12_104916:400,-0.307587,-0.031006,-0.38385,-0.005741,-0.005756,0.0067150000000000005,-42.060001,-16.870001000000002,-41.18,2b
2019-07-12_104916:420,-0.314697,-0.032013,-0.382812,-0.0051,-0.005756,0.006868000000000001,-41.369999,-16.870001000000002,-40.0,2b
2019-07-12_104916:440,-0.31369,-0.029968,-0.384857,-0.004825,-0.006,0.006196,-41.369999,-16.870001000000002,-40.0,2b
2019-07-12_104916:460,-0.314697,-0.028442000000000002,-0.384857,-0.004612,-0.006275,0.005525,-41.369999,-16.870001000000002,-40.0,2b
2019-07-12_104916:480,-0.315216,-0.029480000000000003,-0.385376,-0.004703,-0.006336,0.005861,-41.369999,-16.059998999999998,-40.5,2b
2019-07-12_104916:500,-0.315704,-0.029968,-0.386383,-0.004764,-0.006275,0.006074,-41.369999,-16.059998999999998,-40.5,2b
2019-07-12_104916:520,-0.312164,-0.028961,-0.385376,-0.005497,-0.005878,0.005983,-41.68,-15.68,-41.560001,2b
2019-07-12_104916:540,-0.308594,-0.029480000000000003,-0.381317,-0.005619,-0.006,0.005922,-41.68,-15.68,-41.560001,2b
2019-07-12_104916:560,-0.309601,-0.030487,-0.38385,-0.005619,-0.006793,0.005586,-41.68,-15.68,-41.560001,2b
2019-07-12_104916:580,-0.312653,-0.031006,-0.38385,-0.005679999999999999,-0.007404000000000001,0.005189,-41.369999,-16.5,-40.0,2b
2019-07-12_104916:600,-0.311127,-0.030487,-0.385376,-0.005375,-0.007587000000000001,0.004945000000000001,-41.369999,-16.5,-40.0,2b
2019-07-12_104916:620,-0.312653,-0.031494,-0.388428,-0.005344,-0.008136,0.005189,-41.68,-16.870001000000002,-40.0,2b
2019-07-12_104916:640,-0.314178,-0.031494,-0.389435,-0.004642,-0.008014,0.005128,-41.68,-16.870001000000002,-40.0,2b
2019-07-12_104916:660,-0.316742,-0.029480000000000003,-0.391968,-0.004337,-0.007923000000000001,0.004854,-41.68,-16.870001000000002,-40.0,2b
2019-07-12_104916:680,-0.316223,-0.029480000000000003,-0.390961,-0.004459,-0.007343000000000001,0.005189,-41.369999,-16.5,-40.0,2b
2019-07-12_104916:700,-0.313171,-0.028961,-0.391479,-0.004581,-0.006548999999999999,0.005586,-41.369999,-16.5,-40.0,2b
2019-07-12_104916:720,-0.310638,-0.029968,-0.391968,-0.004886,-0.006,0.00525,-41.369999,-16.5,-40.369999,2b
2019-07-12_104916:740,-0.310638,-0.028961,-0.391479,-0.004947,-0.0061530000000000005,0.005189,-41.369999,-16.5,-40.369999,2b
2019-07-12_104916:760,-0.311646,-0.031006,-0.389954,-0.005375,-0.005817,0.005311,-41.369999,-16.5,-40.369999,2b
2019-07-12_104916:780,-0.311127,-0.032013,-0.389954,-0.005497,-0.005695,0.004945000000000001,-41.369999,-16.059998999999998,-40.869999,2b
2019-07-12_104916:800,-0.309113,-0.032532,-0.390442,-0.005436,-0.006,0.004854,-41.369999,-16.059998999999998,-40.869999,2b
2019-07-12_104916:820,-0.309113,-0.034058,-0.390961,-0.004947,-0.006214,0.004732,-41.68,-15.68,-41.68,2b
2019-07-12_104916:840,-0.311127,-0.032013,-0.389954,-0.004520000000000001,-0.006458,0.0039689999999999994,-41.68,-15.68,-41.68,2b
2019-07-12_104916:860,-0.312653,-0.028442000000000002,-0.390442,-0.004184,-0.006,0.0039689999999999994,-41.68,-15.68,-41.68,2b
2019-07-12_104916:880,-0.307587,-0.028442000000000002,-0.388428,-0.004337,-0.0055119999999999995,0.004793,-41.68,-16.870001000000002,-40.869999,2b
2019-07-12_104916:900,-0.31369,-0.026917,-0.388428,-0.004703,-0.005939,0.005128,-41.68,-16.870001000000002,-40.869999,2b
2019-07-12_104916:920,-0.309601,-0.027954000000000003,-0.388916,-0.0051,-0.005451,0.005006,-41.369999,-16.5,-40.369999,2b
2019-07-12_104916:940,-0.305542,-0.026917,-0.38385,-0.005375,-0.0055119999999999995,0.004945000000000001,-41.369999,-16.5,-40.369999,2b
2019-07-12_104916:960,-0.315704,-0.029968,-0.386902,-0.005832,-0.005451,0.005067,-41.369999,-16.5,-40.369999,2b
2019-07-12_104916:980,-0.303528,-0.032013,-0.384338,-0.005619,-0.005573,0.005342,-41.369999,-16.059998999999998,-41.68,2b
2019-07-12_104917:000,-0.311646,-0.03302,-0.386902,-0.005436,-0.006670999999999999,0.004457,-41.369999,-16.059998999999998,-41.68,2b
2019-07-12_104917:020,-0.313171,-0.031494,-0.388428,-0.005161,-0.007129000000000001,0.00403,-41.68,-16.059998999999998,-40.0,2b
2019-07-12_104917:040,-0.318268,-0.031494,-0.391479,-0.005039,-0.007526000000000001,0.004793,-41.68,-16.059998999999998,-40.0,2b
2019-07-12_104917:060,-0.319275,-0.033539,-0.393494,-0.005344,-0.006731999999999999,0.004671,-41.68,-16.059998999999998,-40.0,2b
2019-07-12_104917:080,-0.311646,-0.031006,-0.391479,-0.005558,-0.005756,0.003114,-42.060001,-16.5,-41.18,2b
2019-07-12_104917:100,-0.312164,-0.029968,-0.391479,-0.005679999999999999,-0.005634,0.002382,-42.060001,-16.5,-41.18,2b
2019-07-12_104917:120,-0.311127,-0.028961,-0.391968,-0.005771,-0.0055119999999999995,0.0016489999999999999,-41.68,-16.870001000000002,-40.869999,2b
2019-07-12_104917:140,-0.31369,-0.028961,-0.388916,-0.005832,-0.005298,0.001436,-41.68,-16.870001000000002,-40.869999,2b
2019-07-12_104917:160,-0.31012,-0.026427999999999997,-0.38739,-0.005741,-0.005176,0.0016489999999999999,-41.68,-16.870001000000002,-40.869999,2b
2019-07-12_104917:180,-0.31012,-0.026427999999999997,-0.388428,-0.0051,-0.005298,0.002168,-42.060001,-16.870001000000002,-41.68,2b
2019-07-12_104917:200,-0.308594,-0.024384,-0.386902,-0.004581,-0.0055119999999999995,0.002778,-42.060001,-16.870001000000002,-41.68,2b
2019-07-12_104917:220,-0.309601,-0.023375999999999997,-0.385864,-0.00394,-0.005756,0.003511,-41.68,-16.870001000000002,-41.18,2b
2019-07-12_104917:240,-0.31369,-0.025421,-0.386902,-0.00394,-0.0055119999999999995,0.004548,-41.68,-16.870001000000002,-41.18,2b
2019-07-12_104917:260,-0.305054,-0.024902,-0.385376,-0.003788,-0.005817,0.004671,-41.68,-16.870001000000002,-41.18,2b
2019-07-12_104917:280,-0.308594,-0.022858,-0.390961,-0.004062,-0.006397,0.003908,-41.369999,-16.5,-40.5,2b
2019-07-12_104917:300,-0.309601,-0.021332,-0.388428,-0.004520000000000001,-0.006731999999999999,0.004152,-41.369999,-16.5,-40.5,2b
2019-07-12_104917:320,-0.310638,-0.020844,-0.389954,-0.004825,-0.006854000000000001,0.005311,-41.68,-16.5,-40.0,2b
2019-07-12_104917:340,-0.310638,-0.022369,-0.389435,-0.005375,-0.006488,0.005464,-41.68,-16.5,-40.0,2b
2019-07-12_104917:360,-0.308075,-0.024384,-0.389954,-0.005558,-0.006488,0.0058,-41.68,-16.5,-40.0,2b
2019-07-12_104917:380,-0.308075,-0.025908999999999998,-0.390961,-0.005497,-0.006670999999999999,0.006318,-41.0,-16.059998999999998,-40.5,2b
2019-07-12_104917:400,-0.311646,-0.028961,-0.389954,-0.005436,-0.006336,0.006470999999999999,-41.0,-16.059998999999998,-40.5,2b
2019-07-12_104917:420,-0.311646,-0.030487,-0.391479,-0.005375,-0.005939,0.0067150000000000005,-40.560001,-17.18,-41.18,2b
2019-07-12_104917:440,-0.31012,-0.030487,-0.389954,-0.005222,-0.005359,0.006532,-40.560001,-17.18,-41.18,2b
2019-07-12_104917:460,-0.31012,-0.032532,-0.390961,-0.005161,-0.005695,0.006135,-40.560001,-17.18,-41.18,2b
2019-07-12_104917:480,-0.308075,-0.032013,-0.390442,-0.0051,-0.005939,0.005586,-42.060001,-16.059998999999998,-40.5,2b
2019-07-12_104917:500,-0.310638,-0.032532,-0.389435,-0.004978,-0.0061530000000000005,0.005464,-42.060001,-16.059998999999998,-40.5,2b
2019-07-12_104917:520,-0.31012,-0.031494,-0.389435,-0.004703,-0.0060609999999999995,0.005525,-42.060001,-16.5,-40.5,2b
2019-07-12_104917:540,-0.310638,-0.032532,-0.389954,-0.004703,-0.005634,0.005128,-42.060001,-16.5,-40.5,2b
2019-07-12_104917:560,-0.309113,-0.031006,-0.388428,-0.004642,-0.005817,0.004335,-42.060001,-16.5,-40.5,2b
2019-07-12_104917:580,-0.307068,-0.031494,-0.390442,-0.004612,-0.005817,0.004213000000000001,-41.68,-16.5,-40.0,2b
2019-07-12_104917:600,-0.307587,-0.030487,-0.387909,-0.004642,-0.006214,0.004182,-41.68,-16.5,-40.0,2b
2019-07-12_104917:620,-0.31012,-0.030487,-0.387909,-0.004581,-0.006336,0.00403,-42.060001,-16.870001000000002,-40.869999,2b
2019-07-12_104917:640,-0.308075,-0.031494,-0.387909,-0.0042450000000000005,-0.006397,0.00403,-42.060001,-16.870001000000002,-40.869999,2b
2019-07-12_104917:660,-0.308594,-0.029968,-0.388916,-0.004184,-0.006548999999999999,0.00403,-42.060001,-16.870001000000002,-40.869999,2b
2019-07-12_104917:680,-0.309601,-0.028961,-0.388428,-0.004001,-0.006488,0.004152,-41.369999,-15.68,-40.5,2b
2019-07-12_104917:700,-0.309601,-0.028442000000000002,-0.389435,-0.004184,-0.006397,0.004274,-41.369999,-15.68,-40.5,2b
2019-07-12_104917:720,-0.309113,-0.028442000000000002,-0.390442,-0.004459,-0.006458,0.004396,-42.060001,-16.870001000000002,-41.68,2b
2019-07-12_104917:740,-0.31012,-0.027435,-0.390961,-0.004520000000000001,-0.006458,0.004274,-42.060001,-16.870001000000002,-41.68,2b
2019-07-12_104917:760,-0.31012,-0.026427999999999997,-0.391968,-0.004703,-0.0061530000000000005,0.004457,-42.060001,-16.870001000000002,-41.68,2b
2019-07-12_104917:780,-0.308075,-0.027954000000000003,-0.391479,-0.0051,-0.005939,0.004793,-41.369999,-16.5,-40.869999,2b
2019-07-12_104917:800,-0.312653,-0.028961,-0.390961,-0.0052829999999999995,-0.005725,0.004671,-41.369999,-16.5,-40.869999,2b
2019-07-12_104917:820,-0.306061,-0.029480000000000003,-0.391968,-0.005558,-0.006,0.00403,-41.68,-16.870001000000002,-41.18,2b
2019-07-12_104917:840,-0.312164,-0.029968,-0.390961,-0.005771,-0.0060609999999999995,0.0038159999999999995,-41.68,-16.870001000000002,-41.18,2b
2019-07-12_104917:860,-0.309113,-0.029480000000000003,-0.391968,-0.005375,-0.006,0.004335,-41.68,-16.870001000000002,-41.18,2b
2019-07-12_104917:880,-0.305542,-0.032013,-0.392487,-0.004886,-0.006548999999999999,0.0039689999999999994,-42.060001,-16.870001000000002,-40.869999,2b
2019-07-12_104917:900,-0.309601,-0.032013,-0.395538,-0.005161,-0.006793,0.003297,-42.060001,-16.870001000000002,-40.869999,2b
2019-07-12_104917:920,-0.309113,-0.028442000000000002,-0.396545,-0.005039,-0.006731999999999999,0.003908,-42.060001,-16.870001000000002,-41.560001,2b
2019-07-12_104917:940,-0.312653,-0.029480000000000003,-0.398071,-0.004886,-0.006,0.004335,-42.060001,-16.870001000000002,-41.560001,2b
2019-07-12_104917:960,-0.31369,-0.030487,-0.39502,-0.004886,-0.004779,0.003358,-42.060001,-16.870001000000002,-41.560001,2b
2019-07-12_104917:980,-0.311646,-0.028442000000000002,-0.394012,-0.0051,-0.004383,0.003053,-41.68,-16.059998999999998,-40.0,2b
2019-07-12_104918:000,-0.307587,-0.025908999999999998,-0.390961,-0.005679999999999999,-0.003711,0.003175,-41.68,-16.059998999999998,-40.0,2b
2019-07-12_104918:020,-0.306061,-0.026917,-0.389435,-0.005893,-0.003833,0.0032359999999999997,-41.0,-16.870001000000002,-41.68,2b
2019-07-12_104918:040,-0.305542,-0.026917,-0.388428,-0.005893,-0.004169,0.003053,-41.0,-16.870001000000002,-41.68,2b
2019-07-12_104918:060,-0.309113,-0.026917,-0.389954,-0.005832,-0.004566,0.003572,-41.0,-16.870001000000002,-41.68,2b
2019-07-12_104918:080,-0.307068,-0.026917,-0.389954,-0.005832,-0.004901,0.003572,-42.5,-16.870001000000002,-41.68,2b
2019-07-12_104918:100,-0.307068,-0.026917,-0.38739,-0.005893,-0.00539,0.003694,-42.5,-16.870001000000002,-41.68,2b
2019-07-12_104918:120,-0.314697,-0.027435,-0.388428,-0.006076,-0.005176,0.0039689999999999994,-41.68,-16.5,-41.18,2b
2019-07-12_104918:140,-0.307587,-0.027435,-0.389435,-0.0060149999999999995,-0.005115,0.0039689999999999994,-41.68,-16.5,-41.18,2b
2019-07-12_104918:160,-0.312164,-0.030487,-0.389954,-0.005679999999999999,-0.005451,0.003023,-41.68,-16.5,-41.18,2b
2019-07-12_104918:180,-0.312653,-0.028442000000000002,-0.391479,-0.005741,-0.005451,0.0026260000000000003,-42.060001,-16.870001000000002,-40.0,2b
2019-07-12_104918:200,-0.312164,-0.028442000000000002,-0.390961,-0.004642,-0.005176,0.003694,-42.060001,-16.870001000000002,-40.0,2b
2019-07-12_104918:220,-0.315216,-0.029968,-0.390442,-0.004275999999999999,-0.004901,0.0039689999999999994,-41.369999,-16.870001000000002,-41.560001,2b
2019-07-12_104918:240,-0.313171,-0.029480000000000003,-0.391479,-0.003788,-0.004444,0.003023,-41.369999,-16.870001000000002,-41.560001,2b
2019-07-12_104918:260,-0.312164,-0.026427999999999997,-0.38739,-0.0032689999999999998,-0.004229999999999999,0.00229,-41.369999,-16.870001000000002,-41.560001,2b
2019-07-12_104918:280,-0.309113,-0.024384,-0.386902,-0.003116,-0.004383,0.002107,-41.369999,-16.5,-39.18,2b
2019-07-12_104918:300,-0.311127,-0.022369,-0.384857,-0.003208,-0.004383,0.001771,-41.369999,-16.5,-39.18,2b
2019-07-12_104918:320,-0.310638,-0.018799,-0.383331,-0.0036659999999999996,-0.004657,0.001771,-41.369999,-17.18,-39.560001,2b
2019-07-12_104918:340,-0.312164,-0.019806,-0.384857,-0.004520000000000001,-0.005054,0.0025039999999999997,-41.369999,-17.18,-39.560001,2b
2019-07-12_104918:360,-0.310638,-0.021332,-0.384338,-0.004642,-0.00539,0.0027170000000000002,-41.369999,-17.18,-39.560001,2b
2019-07-12_104918:380,-0.31012,-0.021332,-0.385376,-0.004825,-0.005634,0.002778,-41.369999,-17.18,-40.369999,2b
2019-07-12_104918:400,-0.314178,-0.022858,-0.382324,-0.0042450000000000005,-0.0060609999999999995,0.0034189999999999997,-41.369999,-17.18,-40.369999,2b
2019-07-12_104918:420,-0.313171,-0.023375999999999997,-0.38385,-0.003849,-0.005725,0.0032359999999999997,-41.68,-17.18,-40.869999,2b
2019-07-12_104918:440,-0.308594,-0.021332,-0.385864,-0.003544,-0.006092,0.003358,-41.68,-17.18,-40.869999,2b
2019-07-12_104918:460,-0.309113,-0.020844,-0.385864,-0.003544,-0.0066099999999999996,0.004091,-41.68,-17.18,-40.869999,2b
2019-07-12_104918:480,-0.311646,-0.021332,-0.390442,-0.0036659999999999996,-0.0070680000000000005,0.00403,-41.369999,-17.18,-40.5,2b
2019-07-12_104918:500,-0.316223,-0.020325,-0.390442,-0.004001,-0.007281999999999999,0.0038469999999999997,-41.369999,-17.18,-40.5,2b
2019-07-12_104918:520,-0.318756,-0.020844,-0.390961,-0.004123,-0.006397,0.0038469999999999997,-41.369999,-17.559998999999998,-41.18,2b
2019-07-12_104918:540,-0.314178,-0.020325,-0.387909,-0.004275999999999999,-0.0055119999999999995,0.003908,-41.369999,-17.559998999999998,-41.18,2b
2019-07-12_104918:560,-0.307587,-0.019806,-0.387909,-0.004764,-0.005573,0.004274,-41.369999,-17.559998999999998,-41.18,2b
2019-07-12_104918:580,-0.309113,-0.021332,-0.389954,-0.004947,-0.005878,0.004793,-41.68,-17.559998999999998,-40.869999,2b
2019-07-12_104918:600,-0.310638,-0.021332,-0.388428,-0.005039,-0.0060609999999999995,0.004793,-41.68,-17.559998999999998,-40.869999,2b
2019-07-12_104918:620,-0.309601,-0.023895,-0.389435,-0.004978,-0.006,0.004518,-42.060001,-17.559998999999998,-40.869999,2b
2019-07-12_104918:640,-0.31012,-0.023895,-0.389954,-0.004825,-0.006458,0.004457,-42.060001,-17.559998999999998,-40.869999,2b
2019-07-12_104918:660,-0.311127,-0.023895,-0.390442,-0.004612,-0.006275,0.004335,-42.060001,-17.559998999999998,-40.869999,2b
2019-07-12_104918:680,-0.311127,-0.022858,-0.390961,-0.004581,-0.006458,0.004793,-41.68,-17.18,-41.18,2b
2019-07-12_104918:700,-0.315216,-0.023375999999999997,-0.391968,-0.004642,-0.0061530000000000005,0.005403,-41.68,-17.18,-41.18,2b
2019-07-12_104918:720,-0.314178,-0.022858,-0.390961,-0.004764,-0.005573,0.00525,-40.18,-17.18,-42.0,2b
2019-07-12_104918:740,-0.309601,-0.023375999999999997,-0.387909,-0.004947,-0.00539,0.004915,-40.18,-17.18,-42.0,2b
2019-07-12_104918:760,-0.314697,-0.024902,-0.389435,-0.004978,-0.005054,0.005067,-40.18,-17.18,-42.0,2b
2019-07-12_104918:780,-0.305542,-0.024902,-0.38739,-0.004703,-0.004779,0.005403,-40.560001,-17.559998999999998,-40.869999,2b
2019-07-12_104918:800,-0.310638,-0.026427999999999997,-0.388428,-0.004612,-0.005817,0.004457,-40.560001,-17.559998999999998,-40.869999,2b
2019-07-12_104918:820,-0.313171,-0.023375999999999997,-0.389435,-0.004764,-0.005817,0.004396,-41.369999,-16.870001000000002,-40.869999,2b
2019-07-12_104918:840,-0.312164,-0.025421,-0.388428,-0.004642,-0.005756,0.0058,-41.369999,-16.870001000000002,-40.869999,2b
2019-07-12_104918:860,-0.312653,-0.026917,-0.38739,-0.004581,-0.005695,0.005983,-41.369999,-16.870001000000002,-40.869999,2b
2019-07-12_104918:880,-0.31012,-0.025908999999999998,-0.38739,-0.004612,-0.005817,0.004945000000000001,-41.0,-16.059998999999998,-38.869999,2b
2019-07-12_104918:900,-0.309113,-0.024902,-0.38739,-0.004612,-0.005878,0.004854,-41.0,-16.059998999999998,-38.869999,2b
2019-07-12_104918:920,-0.312164,-0.024902,-0.390442,-0.005161,-0.006488,0.005067,-42.5,-17.18,-39.18,2b
2019-07-12_104918:940,-0.312653,-0.025908999999999998,-0.387909,-0.005222,-0.006336,0.005128,-42.5,-17.18,-39.18,2b
2019-07-12_104918:960,-0.31012,-0.027954000000000003,-0.38739,-0.005436,-0.0061530000000000005,0.00525,-42.5,-17.18,-39.18,2b
2019-07-12_104918:980,-0.308075,-0.028961,-0.388916,-0.005375,-0.005939,0.005128,-41.68,-16.059998999999998,-40.0,2b
2019-07-12_104919:000,-0.307068,-0.027435,-0.387909,-0.0051,-0.0066099999999999996,0.004457,-41.68,-16.059998999999998,-40.0,2b
2019-07-12_104919:020,-0.314178,-0.026427999999999997,-0.390961,-0.005039,-0.006548999999999999,0.004457,-41.68,-16.059998999999998,-40.0,2b
2019-07-12_104919:040,-0.314178,-0.026427999999999997,-0.390961,-0.005344,-0.006092,0.005311,-41.369999,-16.059998999999998,-40.0,2b
2019-07-12_104919:060,-0.310638,-0.027954000000000003,-0.387909,-0.005375,-0.006275,0.00525,-41.369999,-16.059998999999998,-40.0,2b
2019-07-12_104919:080,-0.310638,-0.027435,-0.392487,-0.005619,-0.0061530000000000005,0.0038469999999999997,-41.68,-16.5,-41.68,2b
2019-07-12_104919:100,-0.305542,-0.024384,-0.388916,-0.005619,-0.006397,0.003511,-41.68,-16.5,-41.68,2b
2019-07-12_104919:120,-0.309113,-0.025908999999999998,-0.391968,-0.005619,-0.006548999999999999,0.004518,-41.68,-16.5,-41.68,2b
2019-07-12_104919:140,-0.313171,-0.027435,-0.394012,-0.0061070000000000004,-0.006731999999999999,0.005067,-41.369999,-16.5,-41.18,2b
2019-07-12_104919:160,-0.314697,-0.029968,-0.393494,-0.006687,-0.005695,0.004335,-41.369999,-16.5,-41.18,2b
2019-07-12_104919:180,-0.313171,-0.031494,-0.393005,-0.0064730000000000005,-0.005298,0.004396,-41.369999,-17.18,-40.869999,2b
2019-07-12_104919:200,-0.310638,-0.032013,-0.388428,-0.005893,-0.004566,0.004182,-41.369999,-17.18,-40.869999,2b
2019-07-12_104919:220,-0.30654899999999996,-0.032013,-0.387909,-0.005558,-0.004383,0.00403,-41.369999,-17.18,-40.869999,2b
2019-07-12_104919:240,-0.307587,-0.032013,-0.38739,-0.004642,-0.004657,0.0038469999999999997,-41.369999,-16.870001000000002,-41.18,2b
2019-07-12_104919:260,-0.30654899999999996,-0.027954000000000003,-0.388428,-0.004001,-0.005359,0.003511,-41.369999,-16.870001000000002,-41.18,2b
2019-07-12_104919:280,-0.310638,-0.026427999999999997,-0.388916,-0.003879,-0.005725,0.003023,-41.0,-17.559998999999998,-40.869999,2b
2019-07-12_104919:300,-0.309601,-0.022858,-0.38739,-0.004123,-0.005756,0.002778,-41.0,-17.559998999999998,-40.869999,2b
2019-07-12_104919:320,-0.309113,-0.023375999999999997,-0.38739,-0.004612,-0.006,0.003023,-41.369999,-16.5,-40.5,2b
2019-07-12_104919:340,-0.311646,-0.026427999999999997,-0.388428,-0.005161,-0.006092,0.003023,-41.369999,-16.5,-40.5,2b
2019-07-12_104919:360,-0.31012,-0.025908999999999998,-0.389435,-0.005436,-0.0060609999999999995,0.002687,-41.369999,-16.5,-40.5,2b
2019-07-12_104919:380,-0.312653,-0.027435,-0.389435,-0.005344,-0.006,0.0025039999999999997,-41.0,-17.18,-42.0,2b
2019-07-12_104919:400,-0.314697,-0.028442000000000002,-0.388916,-0.004703,-0.006,0.0029,-41.0,-17.18,-42.0,2b
2019-07-12_104919:420,-0.31012,-0.027954000000000003,-0.386902,-0.00394,-0.005756,0.003023,-41.0,-17.18,-42.0,2b
2019-07-12_104919:440,-0.309601,-0.024384,-0.385376,-0.002872,-0.005573,0.0029620000000000002,-41.68,-17.18,-39.68,2b
2019-07-12_104919:460,-0.309113,-0.020325,-0.384338,-0.00275,-0.005634,0.00229,-41.68,-17.18,-39.68,2b
2019-07-12_104919:480,-0.305542,-0.016266,-0.38385,-0.002933,-0.005725,0.002046,-40.560001,-17.559998999999998,-41.560001,2b
2019-07-12_104919:500,-0.305542,-0.015228,-0.386383,-0.0036659999999999996,-0.006854000000000001,0.002321,-40.560001,-17.559998999999998,-41.560001,2b
2019-07-12_104919:520,-0.308594,-0.016266,-0.388428,-0.004337,-0.007678,0.002778,-40.560001,-17.559998999999998,-41.560001,2b
2019-07-12_104919:540,-0.31369,-0.01828,-0.390961,-0.004978,-0.008014,0.003175,-40.560001,-17.559998999999998,-40.5,2b
2019-07-12_104919:560,-0.313171,-0.018799,-0.392487,-0.004947,-0.007739,0.00345,-40.560001,-17.559998999999998,-40.5,2b
2019-07-12_104919:580,-0.312653,-0.020844,-0.393494,-0.004703,-0.007129000000000001,0.0038159999999999995,-41.68,-17.559998999999998,-40.0,2b
2019-07-12_104919:600,-0.312164,-0.020325,-0.392487,-0.004398,-0.006548999999999999,0.003908,-41.68,-17.559998999999998,-40.0,2b
2019-07-12_104919:620,-0.311646,-0.020844,-0.391479,-0.004275999999999999,-0.006397,0.004396,-41.68,-17.18,-41.560001,2b
2019-07-12_104919:640,-0.314178,-0.021332,-0.391968,-0.00394,-0.0061530000000000005,0.004732,-41.68,-17.18,-41.560001,2b
2019-07-12_104919:660,-0.305542,-0.020844,-0.389954,-0.003788,-0.0055119999999999995,0.004671,-41.68,-17.18,-41.560001,2b
2019-07-12_104919:680,-0.308075,-0.020844,-0.387909,-0.003849,-0.005634,0.004396,-41.0,-17.18,-42.0,2b
2019-07-12_104919:700,-0.307068,-0.021851,-0.389435,-0.004001,-0.005695,0.004518,-41.0,-17.18,-42.0,2b
2019-07-12_104919:720,-0.305542,-0.022369,-0.388916,-0.004001,-0.006,0.004457,-41.68,-16.5,-40.869999,2b
2019-07-12_104919:740,-0.311127,-0.021332,-0.392487,-0.0042450000000000005,-0.006488,0.003358,-41.68,-16.5,-40.869999,2b
2019-07-12_104919:760,-0.31012,-0.019318000000000002,-0.390442,-0.004337,-0.007006999999999999,0.003358,-41.68,-16.5,-40.869999,2b
2019-07-12_104919:780,-0.31369,-0.019318000000000002,-0.394531,-0.004459,-0.006670999999999999,0.004518,-40.560001,-17.18,-40.869999,2b
2019-07-12_104919:800,-0.313171,-0.021851,-0.391479,-0.004275999999999999,-0.006275,0.004671,-40.560001,-17.18,-40.869999,2b
2019-07-12_104919:820,-0.311127,-0.019806,-0.393005,-0.004398,-0.005756,0.004152,-40.560001,-17.18,-40.869999,2b
2019-07-12_104919:840,-0.308594,-0.020844,-0.390961,-0.004398,-0.005695,0.004335,-41.0,-16.870001000000002,-41.68,2b
2019-07-12_104919:860,-0.308075,-0.021851,-0.390442,-0.004459,-0.0055119999999999995,0.004793,-41.0,-16.870001000000002,-41.68,2b
2019-07-12_104919:880,-0.307587,-0.021851,-0.388916,-0.004398,-0.005725,0.004854,-41.68,-17.559998999999998,-41.18,2b
2019-07-12_104919:900,-0.308075,-0.021851,-0.389435,-0.004642,-0.005756,0.004945000000000001,-41.68,-17.559998999999998,-41.18,2b
2019-07-12_104919:920,-0.30654899999999996,-0.021332,-0.391479,-0.004459,-0.005878,0.005067,-40.560001,-16.870001000000002,-41.18,2b
2019-07-12_104919:940,-0.308075,-0.022369,-0.391479,-0.004703,-0.006275,0.005311,-40.560001,-16.870001000000002,-41.18,2b
2019-07-12_104919:960,-0.312653,-0.020844,-0.389435,-0.004947,-0.006275,0.005342,-40.560001,-16.870001000000002,-41.18,2b
2019-07-12_104919:980,-0.305054,-0.024902,-0.390442,-0.005039,-0.006,0.005861,-41.0,-16.5,-40.369999,2b
2019-07-12_104920:000,-0.309113,-0.026917,-0.388428,-0.004886,-0.006,0.006044,-41.0,-16.5,-40.369999,2b
2019-07-12_104920:020,-0.307587,-0.024902,-0.391479,-0.004947,-0.0061530000000000005,0.004732,-41.0,-16.5,-40.369999,2b
2019-07-12_104920:040,-0.307587,-0.023895,-0.391968,-0.004978,-0.0061530000000000005,0.004793,-41.0,-17.559998999999998,-41.18,2b
2019-07-12_104920:060,-0.309601,-0.026427999999999997,-0.390961,-0.004581,-0.006214,0.005983,-41.0,-17.559998999999998,-41.18,2b
2019-07-12_104920:080,-0.307587,-0.026917,-0.393494,-0.004612,-0.006275,0.005678,-40.560001,-16.870001000000002,-41.18,2b
2019-07-12_104920:100,-0.308594,-0.026427999999999997,-0.390442,-0.004642,-0.006275,0.005067,-40.560001,-16.870001000000002,-41.18,2b
2019-07-12_104920:120,-0.307587,-0.026917,-0.390442,-0.004764,-0.006,0.004915,-41.0,-16.870001000000002,-40.0,2b
2019-07-12_104920:140,-0.307587,-0.026917,-0.391968,-0.004764,-0.006275,0.004732,-41.0,-16.870001000000002,-40.0,2b
2019-07-12_104920:160,-0.308075,-0.026427999999999997,-0.391968,-0.004825,-0.0061530000000000005,0.004274,-41.0,-16.870001000000002,-40.0,2b
2019-07-12_104920:180,-0.307068,-0.026917,-0.391968,-0.004703,-0.0061530000000000005,0.004518,-41.369999,-17.18,-41.18,2b
2019-07-12_104920:200,-0.307068,-0.027435,-0.390961,-0.004612,-0.006214,0.004518,-41.369999,-17.18,-41.18,2b
2019-07-12_104920:220,-0.307068,-0.026917,-0.393005,-0.004581,-0.006275,0.004274,-41.369999,-17.18,-41.18,2b
2019-07-12_104920:240,-0.307068,-0.025908999999999998,-0.391479,-0.004520000000000001,-0.0061530000000000005,0.004396,-40.560001,-16.5,-40.869999,2b
2019-07-12_104920:260,-0.30654899999999996,-0.027954000000000003,-0.390961,-0.004337,-0.0061530000000000005,0.005006,-40.560001,-16.5,-40.869999,2b
2019-07-12_104920:280,-0.305054,-0.027435,-0.394012,-0.004398,-0.006336,0.004518,-41.68,-16.870001000000002,-41.18,2b
2019-07-12_104920:300,-0.308075,-0.026917,-0.392487,-0.004612,-0.006336,0.00403,-41.68,-16.870001000000002,-41.18,2b
2019-07-12_104920:320,-0.307068,-0.025908999999999998,-0.394531,-0.004520000000000001,-0.006488,0.0038159999999999995,-41.68,-16.870001000000002,-41.18,2b
2019-07-12_104920:340,-0.308594,-0.024902,-0.392487,-0.004337,-0.006397,0.0038469999999999997,-41.369999,-17.18,-41.18,2b
2019-07-12_104920:360,-0.308075,-0.025421,-0.390961,-0.004337,-0.005878,0.0038159999999999995,-41.369999,-17.18,-41.18,2b
2019-07-12_104920:380,-0.30654899999999996,-0.023375999999999997,-0.393005,-0.004337,-0.005695,0.004152,-41.0,-17.18,-41.18,2b
2019-07-12_104920:400,-0.30654899999999996,-0.024902,-0.392487,-0.004581,-0.005695,0.004274,-41.0,-17.18,-41.18,2b
2019-07-12_104920:420,-0.30654899999999996,-0.024384,-0.390961,-0.004612,-0.005695,0.004457,-41.0,-17.18,-41.18,2b
2019-07-12_104920:440,-0.307587,-0.025908999999999998,-0.390442,-0.005039,-0.005695,0.004518,-41.369999,-17.18,-40.869999,2b
2019-07-12_104920:460,-0.305054,-0.026427999999999997,-0.390961,-0.004978,-0.005725,0.004335,-41.369999,-17.18,-40.869999,2b
2019-07-12_104920:480,-0.305542,-0.026427999999999997,-0.392487,-0.0051,-0.0061530000000000005,0.004091,-40.560001,-16.870001000000002,-41.68,2b
2019-07-12_104920:500,-0.30654899999999996,-0.027435,-0.390961,-0.005039,-0.006488,0.0038469999999999997,-40.560001,-16.870001000000002,-41.68,2b
2019-07-12_104920:520,-0.307587,-0.027435,-0.393494,-0.004581,-0.006275,0.003908,-40.560001,-16.870001000000002,-41.68,2b
2019-07-12_104920:540,-0.30654899999999996,-0.026427999999999997,-0.393494,-0.004459,-0.006214,0.004213000000000001,-41.369999,-17.18,-41.560001,2b
2019-07-12_104920:560,-0.311127,-0.026427999999999997,-0.394012,-0.004062,-0.0061530000000000005,0.004335,-41.369999,-17.18,-41.560001,2b
2019-07-12_104920:580,-0.306061,-0.026917,-0.391968,-0.004062,-0.0055119999999999995,0.004182,-41.369999,-16.870001000000002,-41.18,2b
2019-07-12_104920:600,-0.308075,-0.025421,-0.389435,-0.004184,-0.0055119999999999995,0.003358,-41.369999,-16.870001000000002,-41.18,2b
2019-07-12_104920:620,-0.307587,-0.024902,-0.391968,-0.004581,-0.0055119999999999995,0.00345,-41.369999,-16.870001000000002,-41.18,2b
2019-07-12_104920:640,-0.29995700000000003,-0.025421,-0.388916,-0.004398,-0.005756,0.0037549999999999997,-41.0,-16.870001000000002,-40.869999,2b
2019-07-12_104920:660,-0.308594,-0.024902,-0.393005,-0.004581,-0.006458,0.003023,-41.0,-16.870001000000002,-40.869999,2b
2019-07-12_104920:680,-0.30654899999999996,-0.022858,-0.394012,-0.004764,-0.006548999999999999,0.003114,-41.369999,-16.5,-41.18,2b
2019-07-12_104920:700,-0.308075,-0.025421,-0.393005,-0.004398,-0.006731999999999999,0.004182,-41.369999,-16.5,-41.18,2b
2019-07-12_104920:720,-0.309113,-0.026427999999999997,-0.394012,-0.004184,-0.006397,0.0039689999999999994,-41.369999,-16.5,-41.18,2b
2019-07-12_104920:740,-0.309601,-0.026427999999999997,-0.395538,-0.0042450000000000005,-0.005939,0.003114,-40.560001,-17.18,-41.68,2b
2019-07-12_104920:760,-0.30654899999999996,-0.025908999999999998,-0.395538,-0.004184,-0.00539,0.003053,-40.560001,-17.18,-41.68,2b
2019-07-12_104920:780,-0.306061,-0.024902,-0.391479,-0.004062,-0.004961999999999999,0.003053,-41.0,-17.18,-41.18,2b
2019-07-12_104920:800,-0.31012,-0.025908999999999998,-0.397064,-0.004123,-0.005054,0.002229,-41.0,-17.18,-41.18,2b
2019-07-12_104920:820,-0.307587,-0.024384,-0.395538,-0.004001,-0.004596,0.001893,-41.0,-17.18,-41.18,2b
2019-07-12_104920:840,-0.303528,-0.021851,-0.393005,-0.004275999999999999,-0.00484,0.001832,-41.0,-16.870001000000002,-41.68,2b
2019-07-12_104920:860,-0.308075,-0.021851,-0.394012,-0.004581,-0.004901,0.001771,-41.0,-16.870001000000002,-41.68,2b
2019-07-12_104920:880,-0.308075,-0.019318000000000002,-0.389954,-0.005039,-0.004961999999999999,0.001497,-41.68,-17.18,-40.869999,2b
2019-07-12_104920:900,-0.30654899999999996,-0.020844,-0.391479,-0.005497,-0.004901,0.0025039999999999997,-41.68,-17.18,-40.869999,2b
2019-07-12_104920:920,-0.305054,-0.023895,-0.387909,-0.005039,-0.005298,0.003358,-41.68,-17.18,-40.869999,2b
2019-07-12_104920:940,-0.30654899999999996,-0.021851,-0.391479,-0.004825,-0.005878,0.0027170000000000002,-40.18,-17.18,-41.68,2b
2019-07-12_104920:960,-0.307587,-0.021332,-0.388916,-0.004459,-0.0061530000000000005,0.0032359999999999997,-40.18,-17.18,-41.68,2b
2019-07-12_104920:980,-0.307068,-0.021851,-0.389954,-0.004062,-0.006275,0.004732,-41.0,-18.370001000000002,-41.68,2b
2019-07-12_104921:000,-0.307068,-0.020325,-0.390961,-0.004001,-0.006397,0.005128,-41.0,-18.370001000000002,-41.68,2b
2019-07-12_104921:020,-0.307587,-0.020325,-0.391968,-0.004275999999999999,-0.006275,0.004945000000000001,-41.0,-18.370001000000002,-41.68,2b
2019-07-12_104921:040,-0.308075,-0.021332,-0.391968,-0.004703,-0.006397,0.004945000000000001,-40.560001,-17.559998999999998,-41.68,2b
2019-07-12_104921:060,-0.309113,-0.022369,-0.392487,-0.005039,-0.006214,0.004671,-40.560001,-17.559998999999998,-41.68,2b
2019-07-12_104921:080,-0.308075,-0.022369,-0.393494,-0.005039,-0.006336,0.004335,-41.0,-17.559998999999998,-41.560001,2b
2019-07-12_104921:100,-0.307587,-0.022858,-0.391479,-0.0051,-0.005817,0.004732,-41.0,-17.559998999999998,-41.560001,2b
2019-07-12_104921:120,-0.307587,-0.024384,-0.392487,-0.004978,-0.005878,0.005067,-41.0,-17.559998999999998,-41.560001,2b
2019-07-12_104921:140,-0.305542,-0.023895,-0.393005,-0.004825,-0.006092,0.004854,-40.560001,-17.18,-41.18,2b
2019-07-12_104921:160,-0.307068,-0.023895,-0.392487,-0.004581,-0.0061530000000000005,0.004915,-40.560001,-17.18,-41.18,2b
2019-07-12_104921:180,-0.30654899999999996,-0.022369,-0.394012,-0.004398,-0.006214,0.005128,-40.18,-16.5,-42.0,2b
2019-07-12_104921:200,-0.305542,-0.022369,-0.391479,-0.004520000000000001,-0.006092,0.005128,-40.18,-16.5,-42.0,2b
2019-07-12_104921:220,-0.307068,-0.023375999999999997,-0.393005,-0.004703,-0.0060609999999999995,0.004945000000000001,-40.18,-16.5,-42.0,2b
2019-07-12_104921:240,-0.304535,-0.022858,-0.392487,-0.004886,-0.006214,0.004915,-40.18,-17.18,-42.0,2b
2019-07-12_104921:260,-0.304016,-0.023895,-0.391968,-0.005039,-0.006336,0.004915,-40.18,-17.18,-42.0,2b
2019-07-12_104921:280,-0.307587,-0.025421,-0.393494,-0.004947,-0.006397,0.004915,-41.0,-17.559998999999998,-40.869999,2b
2019-07-12_104921:300,-0.308594,-0.024902,-0.392487,-0.004825,-0.006275,0.004793,-41.0,-17.559998999999998,-40.869999,2b
2019-07-12_104921:320,-0.306061,-0.025421,-0.393005,-0.004581,-0.005939,0.00525,-41.0,-17.559998999999998,-40.869999,2b
2019-07-12_104921:340,-0.305542,-0.025421,-0.392487,-0.004581,-0.0061530000000000005,0.005311,-40.560001,-16.5,-42.0,2b
2019-07-12_104921:360,-0.30654899999999996,-0.025908999999999998,-0.394012,-0.004520000000000001,-0.0060609999999999995,0.005189,-40.560001,-16.5,-42.0,2b
2019-07-12_104921:380,-0.307068,-0.026427999999999997,-0.394012,-0.004581,-0.005939,0.005128,-40.18,-18.0,-42.0,2b
2019-07-12_104921:400,-0.307587,-0.025421,-0.392487,-0.004642,-0.005817,0.005128,-40.18,-18.0,-42.0,2b
2019-07-12_104921:420,-0.307587,-0.025908999999999998,-0.393005,-0.004947,-0.005695,0.004548,-40.18,-18.0,-42.0,2b
2019-07-12_104921:440,-0.305054,-0.026917,-0.394012,-0.004886,-0.005573,0.004518,-41.369999,-17.18,-42.0,2b
2019-07-12_104921:460,-0.304535,-0.027435,-0.393005,-0.004886,-0.005817,0.004396,-41.369999,-17.18,-42.0,2b
2019-07-12_104921:480,-0.305542,-0.027435,-0.393494,-0.004886,-0.005817,0.004396,-40.18,-16.870001000000002,-40.869999,2b
2019-07-12_104921:500,-0.307587,-0.026917,-0.393494,-0.004612,-0.0060609999999999995,0.004213000000000001,-40.18,-16.870001000000002,-40.869999,2b
2019-07-12_104921:520,-0.311127,-0.026427999999999997,-0.393494,-0.004459,-0.0055119999999999995,0.00403,-40.18,-16.870001000000002,-40.869999,2b
2019-07-12_104921:540,-0.300964,-0.025421,-0.392487,-0.004459,-0.005115,0.0038469999999999997,-40.560001,-16.5,-41.18,2b
2019-07-12_104921:560,-0.308075,-0.025421,-0.391968,-0.004642,-0.005298,0.0038469999999999997,-40.560001,-16.5,-41.18,2b
2019-07-12_104921:580,-0.300476,-0.025908999999999998,-0.391968,-0.004703,-0.005298,0.004152,-41.0,-16.870001000000002,-42.0,2b
2019-07-12_104921:600,-0.304535,-0.026427999999999997,-0.391968,-0.004275999999999999,-0.006092,0.0037549999999999997,-41.0,-16.870001000000002,-42.0,2b
2019-07-12_104921:620,-0.307068,-0.024902,-0.396057,-0.004520000000000001,-0.006458,0.003023,-41.0,-16.870001000000002,-42.0,2b
2019-07-12_104921:640,-0.308075,-0.023375999999999997,-0.392487,-0.004337,-0.006488,0.003694,-41.369999,-17.18,-40.869999,2b
2019-07-12_104921:660,-0.312164,-0.024384,-0.39502,-0.004275999999999999,-0.0060609999999999995,0.004335,-41.369999,-17.18,-40.869999,2b
2019-07-12_104921:680,-0.307068,-0.023895,-0.394012,-0.004275999999999999,-0.005573,0.0038469999999999997,-41.0,-17.559998999999998,-41.68,2b
2019-07-12_104921:700,-0.305054,-0.022858,-0.392487,-0.004337,-0.005725,0.003511,-41.0,-17.559998999999998,-41.68,2b
2019-07-12_104921:720,-0.305542,-0.024902,-0.394012,-0.004337,-0.00539,0.0038469999999999997,-41.0,-17.559998999999998,-41.68,2b
2019-07-12_104921:740,-0.307068,-0.023375999999999997,-0.391479,-0.004001,-0.005451,0.0037549999999999997,-39.5,-16.5,-42.369999,2b
2019-07-12_104921:760,-0.307068,-0.020844,-0.390442,-0.004275999999999999,-0.005115,0.0038159999999999995,-39.5,-16.5,-42.369999,2b
2019-07-12_104921:780,-0.303528,-0.020325,-0.391479,-0.004398,-0.00539,0.004182,-41.0,-17.559998999999998,-40.5,2b
2019-07-12_104921:800,-0.304016,-0.022858,-0.390961,-0.004764,-0.005451,0.004609,-41.0,-17.559998999999998,-40.5,2b
2019-07-12_104921:820,-0.305054,-0.023895,-0.391968,-0.005161,-0.005878,0.004274,-41.0,-17.559998999999998,-40.5,2b
2019-07-12_104921:840,-0.311127,-0.025421,-0.393494,-0.005222,-0.006092,0.004457,-40.560001,-16.870001000000002,-42.0,2b
2019-07-12_104921:860,-0.302002,-0.024384,-0.389954,-0.004764,-0.0060609999999999995,0.004854,-40.560001,-16.870001000000002,-42.0,2b
2019-07-12_104921:880,-0.308075,-0.025421,-0.394012,-0.004612,-0.0060609999999999995,0.0038159999999999995,-41.0,-17.18,-41.18,2b
2019-07-12_104921:900,-0.307587,-0.023895,-0.394012,-0.004520000000000001,-0.006092,0.003023,-41.0,-17.18,-41.18,2b
2019-07-12_104921:920,-0.307587,-0.023375999999999997,-0.395538,-0.004520000000000001,-0.0060609999999999995,0.004548,-41.0,-17.18,-41.18,2b
2019-07-12_104921:940,-0.31012,-0.025421,-0.394531,-0.004459,-0.005695,0.005342,-40.560001,-16.5,-42.369999,2b
2019-07-12_104921:960,-0.307068,-0.025421,-0.394012,-0.004642,-0.0052369999999999995,0.004457,-40.560001,-16.5,-42.369999,2b
2019-07-12_104921:980,-0.305542,-0.025421,-0.394012,-0.004764,-0.005298,0.004213000000000001,-41.0,-17.18,-41.18,2b
2019-07-12_104922:000,-0.305054,-0.027435,-0.390961,-0.004764,-0.005451,0.004396,-41.0,-17.18,-41.18,2b
2019-07-12_104922:020,-0.305054,-0.025421,-0.391479,-0.004886,-0.005573,0.0038469999999999997,-41.0,-17.18,-41.18,2b
2019-07-12_104922:040,-0.305054,-0.025908999999999998,-0.391968,-0.004764,-0.005725,0.003511,-40.560001,-16.870001000000002,-40.5,2b
2019-07-12_104922:060,-0.305542,-0.026427999999999997,-0.390961,-0.004398,-0.005817,0.0037549999999999997,-40.560001,-16.870001000000002,-40.5,2b
2019-07-12_104922:080,-0.303528,-0.023895,-0.393005,-0.004123,-0.005939,0.003511,-40.18,-17.18,-42.369999,2b
2019-07-12_104922:100,-0.303528,-0.022858,-0.391968,-0.004001,-0.006275,0.003572,-40.18,-17.18,-42.369999,2b
2019-07-12_104922:120,-0.306061,-0.022858,-0.393005,-0.00394,-0.006275,0.004396,-40.18,-17.18,-42.369999,2b
2019-07-12_104922:140,-0.306061,-0.022858,-0.39502,-0.004123,-0.006458,0.004609,-41.369999,-16.870001000000002,-42.869999,2b
2019-07-12_104922:160,-0.307587,-0.023895,-0.393005,-0.004581,-0.006397,0.004274,-41.369999,-16.870001000000002,-42.869999,2b
2019-07-12_104922:180,-0.307068,-0.024902,-0.395538,-0.004978,-0.006275,0.004182,-41.68,-16.5,-41.68,2b
2019-07-12_104922:200,-0.308075,-0.025908999999999998,-0.391968,-0.004947,-0.005939,0.004396,-41.68,-16.5,-41.68,2b
2019-07-12_104922:220,-0.305542,-0.026917,-0.394531,-0.004978,-0.005817,0.004396,-41.68,-16.5,-41.68,2b
2019-07-12_104922:240,-0.30654899999999996,-0.026427999999999997,-0.39502,-0.004703,-0.006,0.004335,-40.18,-17.18,-40.5,2b
2019-07-12_104922:260,-0.308075,-0.025421,-0.394531,-0.004459,-0.005725,0.004548,-40.18,-17.18,-40.5,2b
2019-07-12_104922:280,-0.307587,-0.025908999999999998,-0.395538,-0.004337,-0.005451,0.004274,-40.560001,-17.18,-41.68,2b
2019-07-12_104922:300,-0.307068,-0.023895,-0.390961,-0.004184,-0.005298,0.004182,-40.560001,-17.18,-41.68,2b
2019-07-12_104922:320,-0.305054,-0.023375999999999997,-0.391479,-0.004520000000000001,-0.005054,0.004335,-40.560001,-17.18,-41.68,2b
2019-07-12_104922:340,-0.304016,-0.023895,-0.389954,-0.004825,-0.004993,0.004396,-40.18,-16.870001000000002,-41.68,2b
2019-07-12_104922:360,-0.30249000000000004,-0.025421,-0.389954,-0.0051,-0.005298,0.004518,-40.18,-16.870001000000002,-41.68,2b
2019-07-12_104922:380,-0.304016,-0.025908999999999998,-0.390961,-0.004886,-0.005634,0.004274,-41.68,-16.870001000000002,-41.18,2b
2019-07-12_104922:400,-0.305054,-0.025908999999999998,-0.390961,-0.004764,-0.005817,0.004152,-41.68,-16.870001000000002,-41.18,2b
2019-07-12_104922:420,-0.307068,-0.026427999999999997,-0.391968,-0.004612,-0.0060609999999999995,0.003633,-41.68,-16.870001000000002,-41.18,2b
2019-07-12_104922:440,-0.305054,-0.023375999999999997,-0.393005,-0.004398,-0.006336,0.004182,-40.18,-17.18,-40.869999,2b
2019-07-12_104922:460,-0.309113,-0.023895,-0.394531,-0.0042450000000000005,-0.006488,0.004671,-40.18,-17.18,-40.869999,2b
2019-07-12_104922:480,-0.307068,-0.024384,-0.394012,-0.004398,-0.006275,0.004671,-41.369999,-16.870001000000002,-41.18,2b
2019-07-12_104922:500,-0.306061,-0.023895,-0.391479,-0.004520000000000001,-0.005878,0.004335,-41.369999,-16.870001000000002,-41.18,2b
2019-07-12_104922:520,-0.311127,-0.025421,-0.39502,-0.004825,-0.0060609999999999995,0.004396,-41.369999,-16.870001000000002,-41.18,2b
2019-07-12_104922:540,-0.303528,-0.025421,-0.391479,-0.004886,-0.005634,0.004671,-40.18,-16.870001000000002,-41.25,2b
2019-07-12_104922:560,-0.308594,-0.026427999999999997,-0.394531,-0.004642,-0.006214,0.00403,-40.18,-16.870001000000002,-41.25,2b
2019-07-12_104922:580,-0.307068,-0.024384,-0.394012,-0.004764,-0.006,0.003908,-41.369999,-17.18,-41.560001,2b
2019-07-12_104922:600,-0.308594,-0.025908999999999998,-0.394531,-0.004764,-0.005878,0.005067,-41.369999,-17.18,-41.560001,2b
2019-07-12_104922:620,-0.307068,-0.027954000000000003,-0.39502,-0.004612,-0.005573,0.005342,-41.369999,-17.18,-41.560001,2b
2019-07-12_104922:640,-0.306061,-0.026427999999999997,-0.391479,-0.004703,-0.005176,0.004213000000000001,-41.369999,-17.559998999999998,-41.560001,2b
2019-07-12_104922:660,-0.303528,-0.025908999999999998,-0.391479,-0.004642,-0.005115,0.004091,-41.369999,-17.559998999999998,-41.560001,2b
2019-07-12_104922:680,-0.301483,-0.026427999999999997,-0.391968,-0.004703,-0.0055119999999999995,0.004182,-41.0,-16.870001000000002,-42.0,2b
2019-07-12_104922:700,-0.304535,-0.026427999999999997,-0.388916,-0.004337,-0.005573,0.004091,-41.0,-16.870001000000002,-42.0,2b
2019-07-12_104922:720,-0.30300900000000003,-0.025908999999999998,-0.392487,-0.004275999999999999,-0.005817,0.004091,-41.0,-16.870001000000002,-42.0,2b
2019-07-12_104922:740,-0.304535,-0.025421,-0.392487,-0.004398,-0.0061530000000000005,0.004182,-40.18,-17.18,-42.0,2b
2019-07-12_104922:760,-0.304016,-0.025421,-0.392487,-0.004459,-0.006214,0.004182,-40.18,-17.18,-42.0,2b
2019-07-12_104922:780,-0.310638,-0.024384,-0.394531,-0.004581,-0.006397,0.0037549999999999997,-41.68,-16.870001000000002,-42.0,2b
2019-07-12_104922:800,-0.309113,-0.024902,-0.394531,-0.004642,-0.0061530000000000005,0.0039689999999999994,-41.68,-16.870001000000002,-42.0,2b
2019-07-12_104922:820,-0.307068,-0.026917,-0.391968,-0.004642,-0.005725,0.004518,-41.68,-16.870001000000002,-42.0,2b
2019-07-12_104922:840,-0.307587,-0.025908999999999998,-0.39502,-0.004703,-0.005725,0.003633,-41.0,-17.559998999999998,-41.68,2b
2019-07-12_104922:860,-0.306061,-0.022858,-0.393005,-0.004764,-0.005725,0.00345,-41.0,-17.559998999999998,-41.68,2b
2019-07-12_104922:880,-0.309113,-0.024384,-0.395538,-0.004581,-0.005878,0.004945000000000001,-40.18,-17.18,-40.5,2b
2019-07-12_104922:900,-0.30654899999999996,-0.026427999999999997,-0.391479,-0.004459,-0.005634,0.005067,-40.18,-17.18,-40.5,2b
2019-07-12_104922:920,-0.307587,-0.025421,-0.391968,-0.004612,-0.0055119999999999995,0.004213000000000001,-40.18,-17.18,-40.5,2b
2019-07-12_104922:940,-0.305054,-0.026917,-0.390961,-0.004703,-0.0052369999999999995,0.004335,-40.18,-16.870001000000002,-41.68,2b
2019-07-12_104922:960,-0.304535,-0.026427999999999997,-0.390961,-0.004703,-0.0052369999999999995,0.004335,-40.18,-16.870001000000002,-41.68,2b
2019-07-12_104922:980,-0.304535,-0.026427999999999997,-0.392487,-0.004764,-0.005725,0.003633,-41.369999,-16.870001000000002,-42.369999,2b
2019-07-12_104923:000,-0.304535,-0.026427999999999997,-0.390961,-0.004581,-0.005817,0.003694,-41.369999,-16.870001000000002,-42.369999,2b
2019-07-12_104923:020,-0.303528,-0.025908999999999998,-0.390961,-0.004520000000000001,-0.005939,0.003908,-41.369999,-16.870001000000002,-42.369999,2b
2019-07-12_104923:040,-0.304535,-0.024902,-0.391479,-0.004275999999999999,-0.0061530000000000005,0.003633,-41.0,-17.18,-40.869999,2b
2019-07-12_104923:060,-0.304535,-0.025421,-0.393005,-0.004398,-0.0066099999999999996,0.0037549999999999997,-41.0,-17.18,-40.869999,2b
2019-07-12_104923:080,-0.307068,-0.023895,-0.394531,-0.004398,-0.006670999999999999,0.0039689999999999994,-40.18,-17.18,-40.869999,2b
2019-07-12_104923:100,-0.305542,-0.023895,-0.39502,-0.004337,-0.006397,0.0038469999999999997,-40.18,-17.18,-40.869999,2b
2019-07-12_104923:120,-0.307587,-0.021851,-0.39502,-0.004459,-0.0061530000000000005,0.0038469999999999997,-40.18,-17.18,-40.869999,2b
2019-07-12_104923:140,-0.305054,-0.021851,-0.394012,-0.004642,-0.006092,0.0037549999999999997,-41.0,-16.5,-41.68,2b
2019-07-12_104923:160,-0.307587,-0.023895,-0.39502,-0.004825,-0.006,0.004152,-41.0,-16.5,-41.68,2b
2019-07-12_104923:180,-0.305542,-0.025421,-0.395538,-0.004978,-0.005756,0.004274,-41.0,-17.559998999999998,-42.0,2b
2019-07-12_104923:200,-0.307587,-0.025421,-0.394531,-0.004642,-0.005725,0.004335,-41.0,-17.559998999999998,-42.0,2b
2019-07-12_104923:220,-0.308075,-0.023895,-0.394012,-0.004459,-0.005634,0.004457,-41.0,-17.559998999999998,-42.0,2b
2019-07-12_104923:240,-0.307587,-0.023375999999999997,-0.394531,-0.004398,-0.005359,0.004457,-40.560001,-16.870001000000002,-41.18,2b
2019-07-12_104923:260,-0.304535,-0.023895,-0.391968,-0.004520000000000001,-0.005054,0.004518,-40.560001,-16.870001000000002,-41.18,2b
2019-07-12_104923:280,-0.303528,-0.024902,-0.393005,-0.004825,-0.005298,0.004457,-40.560001,-17.18,-41.18,2b
2019-07-12_104923:300,-0.304535,-0.024902,-0.390961,-0.004886,-0.005451,0.004213000000000001,-40.560001,-17.18,-41.18,2b
2019-07-12_104923:320,-0.303528,-0.025421,-0.391479,-0.0051,-0.0055119999999999995,0.004152,-40.560001,-17.18,-41.18,2b
2019-07-12_104923:340,-0.305542,-0.026427999999999997,-0.393005,-0.005039,-0.005725,0.004182,-41.0,-17.18,-42.369999,2b
2019-07-12_104923:360,-0.304016,-0.024384,-0.391479,-0.004703,-0.005817,0.004335,-41.0,-17.18,-42.369999,2b
2019-07-12_104923:380,-0.309601,-0.025421,-0.393005,-0.004642,-0.006092,0.004518,-41.369999,-17.18,-41.68,2b
2019-07-12_104923:400,-0.307587,-0.024902,-0.392487,-0.004459,-0.005756,0.004457,-41.369999,-17.18,-41.68,2b
2019-07-12_104923:420,-0.304016,-0.025908999999999998,-0.391968,-0.004581,-0.005756,0.004274,-41.369999,-17.18,-41.68,2b
2019-07-12_104923:440,-0.309113,-0.025908999999999998,-0.394012,-0.004581,-0.005878,0.004152,-40.560001,-17.18,-40.869999,2b
2019-07-12_104923:460,-0.30300900000000003,-0.026427999999999997,-0.391968,-0.004275999999999999,-0.005695,0.004396,-40.560001,-17.18,-40.869999,2b
2019-07-12_104923:480,-0.307587,-0.025421,-0.394531,-0.004275999999999999,-0.006,0.003908,-41.369999,-16.870001000000002,-40.869999,2b
2019-07-12_104923:500,-0.307587,-0.022369,-0.394012,-0.004612,-0.005939,0.0034189999999999997,-41.369999,-16.870001000000002,-40.869999,2b
2019-07-12_104923:520,-0.308594,-0.022858,-0.394531,-0.004764,-0.006,0.004671,-41.369999,-16.870001000000002,-40.869999,2b
2019-07-12_104923:540,-0.309113,-0.026427999999999997,-0.394012,-0.004947,-0.0055119999999999995,0.005189,-41.0,-16.5,-40.369999,2b
2019-07-12_104923:560,-0.306061,-0.025421,-0.393005,-0.004886,-0.005176,0.004274,-41.0,-16.5,-40.369999,2b
2019-07-12_104923:580,-0.303528,-0.025908999999999998,-0.393005,-0.004764,-0.005451,0.004396,-41.68,-16.5,-42.369999,2b
2019-07-12_104923:600,-0.30249000000000004,-0.026917,-0.389954,-0.004703,-0.005451,0.004518,-41.68,-16.5,-42.369999,2b
2019-07-12_104923:620,-0.306061,-0.025908999999999998,-0.391968,-0.004642,-0.005878,0.004152,-41.68,-16.5,-42.369999,2b
2019-07-12_104923:640,-0.304016,-0.025908999999999998,-0.389954,-0.004337,-0.005725,0.004274,-41.0,-16.870001000000002,-40.5,2b
2019-07-12_104923:660,-0.304016,-0.025908999999999998,-0.391479,-0.004337,-0.005695,0.004274,-41.0,-16.870001000000002,-40.5,2b
2019-07-12_104923:680,-0.305054,-0.023895,-0.393005,-0.004459,-0.006275,0.003908,-41.0,-16.870001000000002,-40.869999,2b
2019-07-12_104923:700,-0.308594,-0.023895,-0.391968,-0.004703,-0.006092,0.0039689999999999994,-41.0,-16.870001000000002,-40.869999,2b
2019-07-12_104923:720,-0.304016,-0.024902,-0.394531,-0.004978,-0.005756,0.004518,-41.0,-16.870001000000002,-40.869999,2b
2019-07-12_104923:740,-0.307587,-0.026917,-0.393005,-0.004825,-0.005817,0.004091,-40.560001,-17.559998999999998,-41.68,2b
2019-07-12_104923:760,-0.307587,-0.024384,-0.393494,-0.004825,-0.005878,0.003023,-40.560001,-17.559998999999998,-41.68,2b
2019-07-12_104923:780,-0.307587,-0.024902,-0.39502,-0.004520000000000001,-0.006,0.003694,-41.369999,-16.870001000000002,-41.560001,2b
2019-07-12_104923:800,-0.30654899999999996,-0.026427999999999997,-0.396057,-0.004275999999999999,-0.005756,0.004854,-41.369999,-16.870001000000002,-41.560001,2b
2019-07-12_104923:820,-0.307068,-0.025908999999999998,-0.394531,-0.0042450000000000005,-0.00539,0.004396,-41.369999,-16.870001000000002,-41.560001,2b
2019-07-12_104923:840,-0.306061,-0.023375999999999997,-0.392487,-0.004275999999999999,-0.00539,0.0039689999999999994,-41.369999,-17.18,-41.68,2b
2019-07-12_104923:860,-0.306061,-0.023895,-0.393005,-0.004459,-0.005359,0.004213000000000001,-41.369999,-17.18,-41.68,2b
2019-07-12_104923:880,-0.304535,-0.025908999999999998,-0.392487,-0.004825,-0.005298,0.00403,-41.369999,-17.18,-41.68,2b
2019-07-12_104923:900,-0.304535,-0.025908999999999998,-0.390961,-0.004764,-0.005451,0.003511,-41.369999,-17.18,-41.68,2b
2019-07-12_104923:920,-0.30300900000000003,-0.025421,-0.393494,-0.004581,-0.005939,0.003694,-41.369999,-17.18,-41.68,2b
2019-07-12_104923:940,-0.305054,-0.024902,-0.391479,-0.004520000000000001,-0.006092,0.0038159999999999995,-41.369999,-16.5,-41.68,2b
2019-07-12_104923:960,-0.306061,-0.022369,-0.394531,-0.004398,-0.006275,0.00403,-41.369999,-16.5,-41.68,2b
2019-07-12_104923:980,-0.30654899999999996,-0.022858,-0.396057,-0.004520000000000001,-0.005939,0.004457,-40.18,-16.5,-40.869999,2b
2019-07-12_104924:000,-0.30654899999999996,-0.023375999999999997,-0.394531,-0.004612,-0.005725,0.004732,-40.18,-16.5,-40.869999,2b
2019-07-12_104924:020,-0.305542,-0.023375999999999997,-0.395538,-0.004886,-0.005634,0.004548,-40.18,-16.5,-40.869999,2b
2019-07-12_104924:040,-0.309113,-0.025421,-0.396057,-0.004978,-0.00539,0.004548,-41.369999,-17.18,-40.869999,2b
2019-07-12_104924:060,-0.305054,-0.025908999999999998,-0.393494,-0.005222,-0.0052369999999999995,0.004335,-41.369999,-17.18,-40.869999,2b
2019-07-12_104924:080,-0.307587,-0.025421,-0.394012,-0.005161,-0.004961999999999999,0.004274,-41.68,-17.18,-41.18,2b
2019-07-12_104924:100,-0.30654899999999996,-0.025908999999999998,-0.393494,-0.005039,-0.00484,0.004335,-41.68,-17.18,-41.18,2b
2019-07-12_104924:120,-0.305542,-0.024384,-0.393005,-0.004825,-0.004901,0.004182,-41.68,-17.18,-41.18,2b
2019-07-12_104924:140,-0.307587,-0.023895,-0.393005,-0.004642,-0.004961999999999999,0.004182,-41.0,-17.18,-40.869999,2b
2019-07-12_104924:160,-0.309113,-0.022858,-0.393005,-0.004703,-0.00484,0.004609,-41.0,-17.18,-40.869999,2b
2019-07-12_104924:180,-0.307587,-0.023895,-0.391968,-0.004825,-0.004779,0.004671,-41.369999,-16.5,-40.5,2b
2019-07-12_104924:200,-0.305054,-0.024384,-0.390442,-0.0051,-0.004566,0.004671,-41.369999,-16.5,-40.5,2b
2019-07-12_104924:220,-0.304016,-0.025908999999999998,-0.389954,-0.005039,-0.004718,0.004548,-41.369999,-16.5,-40.5,2b
2019-07-12_104924:240,-0.306061,-0.026427999999999997,-0.389435,-0.005039,-0.005115,0.004182,-41.369999,-16.5,-41.18,2b
2019-07-12_104924:260,-0.30654899999999996,-0.025421,-0.391479,-0.004978,-0.0055119999999999995,0.003908,-41.369999,-16.5,-41.18,2b
2019-07-12_104924:280,-0.305542,-0.024902,-0.390961,-0.004886,-0.005451,0.004182,-41.369999,-17.18,-42.369999,2b
2019-07-12_104924:300,-0.308075,-0.025421,-0.390961,-0.004825,-0.005725,0.004518,-41.369999,-17.18,-42.369999,2b
2019-07-12_104924:320,-0.309113,-0.025421,-0.392487,-0.004459,-0.005695,0.004274,-41.369999,-17.18,-42.369999,2b
2019-07-12_104924:340,-0.305054,-0.024384,-0.392487,-0.004612,-0.005695,0.00403,-41.0,-17.18,-40.5,2b
2019-07-12_104924:360,-0.309601,-0.024384,-0.390961,-0.004520000000000001,-0.005573,0.004182,-41.0,-17.18,-40.5,2b
2019-07-12_104924:380,-0.30249000000000004,-0.026427999999999997,-0.391968,-0.004581,-0.005634,0.004548,-41.369999,-17.18,-41.68,2b
2019-07-12_104924:400,-0.309113,-0.027435,-0.394531,-0.004337,-0.0061530000000000005,0.004152,-41.369999,-17.18,-41.68,2b
2019-07-12_104924:420,-0.31012,-0.023375999999999997,-0.39502,-0.004459,-0.005939,0.003572,-41.369999,-17.18,-41.68,2b
2019-07-12_104924:440,-0.308075,-0.022858,-0.393005,-0.004123,-0.005725,0.004335,-42.060001,-17.18,-40.869999,2b
2019-07-12_104924:460,-0.308075,-0.024902,-0.39502,-0.0042450000000000005,-0.0055119999999999995,0.004945000000000001,-42.060001,-17.18,-40.869999,2b
2019-07-12_104924:480,-0.307068,-0.023375999999999997,-0.394012,-0.004520000000000001,-0.005176,0.004335,-41.369999,-16.870001000000002,-40.869999,2b
2019-07-12_104924:500,-0.305542,-0.022858,-0.390961,-0.004764,-0.005176,0.004213000000000001,-41.369999,-16.870001000000002,-40.869999,2b
2019-07-12_104924:520,-0.306061,-0.023895,-0.391968,-0.0051,-0.005298,0.004152,-41.369999,-16.870001000000002,-40.869999,2b
2019-07-12_104924:540,-0.307587,-0.024384,-0.390442,-0.005344,-0.005359,0.004091,-41.0,-16.870001000000002,-40.5,2b
2019-07-12_104924:560,-0.306061,-0.023375999999999997,-0.390961,-0.005161,-0.00539,0.004335,-41.0,-16.870001000000002,-40.5,2b
2019-07-12_104924:580,-0.307587,-0.023375999999999997,-0.388916,-0.005039,-0.005359,0.004518,-40.560001,-17.18,-40.869999,2b
2019-07-12_104924:600,-0.30654899999999996,-0.022858,-0.389954,-0.004886,-0.005634,0.004548,-40.560001,-17.18,-40.869999,2b
2019-07-12_104924:620,-0.307587,-0.022858,-0.393494,-0.005039,-0.005939,0.004457,-40.560001,-17.18,-40.869999,2b
2019-07-12_104924:640,-0.311127,-0.023895,-0.392487,-0.005161,-0.005725,0.004548,-41.0,-16.870001000000002,-41.68,2b
2019-07-12_104924:660,-0.30654899999999996,-0.024902,-0.390442,-0.004978,-0.005573,0.005067,-41.0,-16.870001000000002,-41.68,2b
2019-07-12_104924:680,-0.311646,-0.022858,-0.392487,-0.004825,-0.005451,0.004274,-40.560001,-17.18,-42.5,2b
2019-07-12_104924:700,-0.311127,-0.021332,-0.388916,-0.004947,-0.005054,0.0039689999999999994,-40.560001,-17.18,-42.5,2b
2019-07-12_104924:720,-0.311127,-0.022369,-0.390961,-0.004978,-0.0052369999999999995,0.005067,-40.560001,-17.18,-42.5,2b
2019-07-12_104924:740,-0.308075,-0.024384,-0.390961,-0.0051,-0.004901,0.005678,-41.0,-17.559998999999998,-40.5,2b
2019-07-12_104924:760,-0.308594,-0.024902,-0.390442,-0.005222,-0.004779,0.005311,-41.0,-17.559998999999998,-40.5,2b
2019-07-12_104924:780,-0.308594,-0.026427999999999997,-0.390961,-0.004764,-0.004993,0.005189,-41.0,-17.18,-41.18,2b
2019-07-12_104924:800,-0.308075,-0.026917,-0.388916,-0.004642,-0.005054,0.005189,-41.0,-17.18,-41.18,2b
2019-07-12_104924:820,-0.307587,-0.025908999999999998,-0.387909,-0.004764,-0.005176,0.004793,-41.0,-17.18,-41.18,2b
2019-07-12_104924:840,-0.308075,-0.025421,-0.391968,-0.004581,-0.0055119999999999995,0.004671,-41.369999,-17.559998999999998,-40.869999,2b
2019-07-12_104924:860,-0.307068,-0.025908999999999998,-0.389435,-0.004520000000000001,-0.005634,0.005006,-41.369999,-17.559998999999998,-40.869999,2b
2019-07-12_104924:880,-0.30654899999999996,-0.024902,-0.388916,-0.004337,-0.006,0.004732,-41.0,-17.559998999999998,-41.18,2b
2019-07-12_104924:900,-0.308594,-0.023895,-0.389435,-0.004612,-0.006214,0.004518,-41.0,-17.559998999999998,-41.18,2b
2019-07-12_104924:920,-0.308075,-0.023375999999999997,-0.388916,-0.004612,-0.006397,0.004915,-41.0,-17.559998999999998,-41.18,2b
2019-07-12_104924:940,-0.306061,-0.023375999999999997,-0.390961,-0.004703,-0.006397,0.00525,-41.369999,-16.5,-40.869999,2b
2019-07-12_104924:960,-0.309113,-0.025908999999999998,-0.390961,-0.005039,-0.006548999999999999,0.005067,-41.369999,-16.5,-40.869999,2b
2019-07-12_104924:980,-0.31012,-0.025421,-0.392487,-0.005039,-0.006488,0.004945000000000001,-41.369999,-16.5,-42.369999,2b
2019-07-12_104925:000,-0.307587,-0.025908999999999998,-0.391479,-0.005161,-0.006214,0.005128,-41.369999,-16.5,-42.369999,2b
2019-07-12_104925:020,-0.309601,-0.024902,-0.392487,-0.004947,-0.0061530000000000005,0.005067,-41.369999,-16.5,-42.369999,2b
2019-07-12_104925:040,-0.307587,-0.025421,-0.391968,-0.004947,-0.006092,0.005006,-41.0,-17.18,-41.18,2b
2019-07-12_104925:060,-0.308594,-0.026427999999999997,-0.391968,-0.0051,-0.006275,0.005464,-41.0,-17.18,-41.18,2b
2019-07-12_104925:080,-0.310638,-0.027435,-0.393494,-0.005039,-0.006275,0.005739,-41.0,-17.559998999999998,-39.68,2b
2019-07-12_104925:100,-0.309601,-0.028442000000000002,-0.393005,-0.004947,-0.0061530000000000005,0.005403,-41.0,-17.559998999999998,-39.68,2b
2019-07-12_104925:120,-0.308594,-0.028442000000000002,-0.393494,-0.004520000000000001,-0.005573,0.005189,-41.0,-17.559998999999998,-39.68,2b
2019-07-12_104925:140,-0.307587,-0.026917,-0.394012,-0.004275999999999999,-0.005725,0.004793,-42.060001,-17.18,-41.18,2b
2019-07-12_104925:160,-0.307587,-0.026427999999999997,-0.391968,-0.004520000000000001,-0.005359,0.004518,-42.060001,-17.18,-41.18,2b
2019-07-12_104925:180,-0.30654899999999996,-0.025908999999999998,-0.390961,-0.004581,-0.005359,0.004854,-41.68,-16.870001000000002,-41.68,2b
2019-07-12_104925:200,-0.311646,-0.027954000000000003,-0.391968,-0.004612,-0.005634,0.005006,-41.68,-16.870001000000002,-41.68,2b
2019-07-12_104925:220,-0.307068,-0.027954000000000003,-0.390961,-0.004764,-0.005451,0.004732,-41.68,-16.870001000000002,-41.68,2b
2019-07-12_104925:240,-0.30654899999999996,-0.027435,-0.388428,-0.004947,-0.0055119999999999995,0.004335,-41.369999,-16.870001000000002,-40.5,2b
2019-07-12_104925:260,-0.308075,-0.026917,-0.390442,-0.004825,-0.005634,0.004732,-41.369999,-16.870001000000002,-40.5,2b
2019-07-12_104925:280,-0.305054,-0.028961,-0.387909,-0.004581,-0.006,0.004274,-41.0,-16.870001000000002,-40.5,2b
2019-07-12_104925:300,-0.307587,-0.025421,-0.391479,-0.0042450000000000005,-0.006336,0.00345,-41.0,-16.870001000000002,-40.5,2b
2019-07-12_104925:320,-0.309113,-0.023895,-0.391968,-0.004398,-0.006458,0.0038469999999999997,-41.0,-16.870001000000002,-40.5,2b
2019-07-12_104925:340,-0.309113,-0.025908999999999998,-0.393005,-0.004459,-0.006336,0.004915,-41.369999,-16.059998999999998,-39.18,2b
2019-07-12_104925:360,-0.308594,-0.026427999999999997,-0.391479,-0.004703,-0.006214,0.005067,-41.369999,-16.059998999999998,-39.18,2b
2019-07-12_104925:380,-0.305542,-0.026917,-0.392487,-0.004947,-0.006,0.004396,-40.560001,-16.5,-40.5,2b
2019-07-12_104925:400,-0.307587,-0.027435,-0.390442,-0.004886,-0.0061530000000000005,0.004274,-40.560001,-16.5,-40.5,2b
2019-07-12_104925:420,-0.307587,-0.027954000000000003,-0.393005,-0.004978,-0.006092,0.004213000000000001,-40.560001,-16.5,-40.5,2b
2019-07-12_104925:440,-0.309113,-0.025908999999999998,-0.394012,-0.004825,-0.006,0.004182,-41.68,-16.5,-39.68,2b
2019-07-12_104925:460,-0.307587,-0.026427999999999997,-0.393005,-0.004642,-0.005756,0.004396,-41.68,-16.5,-39.68,2b
2019-07-12_104925:480,-0.306061,-0.025421,-0.393494,-0.004764,-0.0055119999999999995,0.004396,-41.0,-17.18,-40.869999,2b
2019-07-12_104925:500,-0.30654899999999996,-0.025421,-0.391479,-0.004703,-0.005756,0.004335,-41.0,-17.18,-40.869999,2b
2019-07-12_104925:520,-0.309601,-0.026427999999999997,-0.390961,-0.004764,-0.005725,0.004213000000000001,-41.0,-17.18,-40.869999,2b
2019-07-12_104925:540,-0.302002,-0.025908999999999998,-0.390961,-0.004764,-0.00539,0.004732,-42.060001,-16.870001000000002,-40.869999,2b
2019-07-12_104925:560,-0.307068,-0.028442000000000002,-0.389954,-0.004886,-0.005634,0.004854,-42.060001,-16.870001000000002,-40.869999,2b
2019-07-12_104925:580,-0.307587,-0.025421,-0.392487,-0.004886,-0.005878,0.0038469999999999997,-41.0,-17.18,-41.18,2b
2019-07-12_104925:600,-0.309113,-0.023895,-0.390442,-0.004947,-0.005817,0.004091,-41.0,-17.18,-41.18,2b
2019-07-12_104925:620,-0.307587,-0.025908999999999998,-0.393005,-0.005039,-0.005634,0.005067,-41.0,-17.18,-41.18,2b
2019-07-12_104925:640,-0.306061,-0.025421,-0.390442,-0.0051,-0.005817,0.004945000000000001,-41.68,-16.5,-40.369999,2b
2019-07-12_104925:660,-0.304535,-0.026427999999999997,-0.391479,-0.005222,-0.005939,0.004274,-41.68,-16.5,-40.369999,2b
2019-07-12_104925:680,-0.306061,-0.026427999999999997,-0.391968,-0.005161,-0.005878,0.004274,-42.060001,-16.870001000000002,-40.869999,2b
2019-07-12_104925:700,-0.306061,-0.025908999999999998,-0.389435,-0.005161,-0.006214,0.004152,-42.060001,-16.870001000000002,-40.869999,2b
2019-07-12_104925:720,-0.305542,-0.024902,-0.390442,-0.005161,-0.006275,0.003908,-42.060001,-16.870001000000002,-40.869999,2b
2019-07-12_104925:740,-0.305542,-0.026427999999999997,-0.391968,-0.005161,-0.0061530000000000005,0.0039689999999999994,-41.369999,-15.68,-40.369999,2b
2019-07-12_104925:760,-0.304535,-0.023895,-0.390442,-0.004825,-0.006488,0.004335,-41.369999,-15.68,-40.369999,2b
2019-07-12_104925:780,-0.305054,-0.024902,-0.391479,-0.004886,-0.006731999999999999,0.004335,-41.369999,-16.870001000000002,-41.560001,2b
2019-07-12_104925:800,-0.302002,-0.024384,-0.391479,-0.004947,-0.006945999999999999,0.004609,-41.369999,-16.870001000000002,-41.560001,2b
2019-07-12_104925:820,-0.304016,-0.024384,-0.389954,-0.005039,-0.007220999999999999,0.004609,-41.369999,-16.870001000000002,-41.560001,2b
2019-07-12_104925:840,-0.305054,-0.025421,-0.393494,-0.004947,-0.007281999999999999,0.004548,-41.0,-16.5,-42.0,2b
2019-07-12_104925:860,-0.305542,-0.025421,-0.392487,-0.005161,-0.007739,0.004854,-41.0,-16.5,-42.0,2b
2019-07-12_104925:880,-0.308594,-0.025421,-0.394531,-0.0051,-0.007465,0.005128,-41.0,-15.68,-40.369999,2b
2019-07-12_104925:900,-0.308594,-0.025421,-0.395538,-0.0051,-0.00719,0.005067,-41.0,-15.68,-40.369999,2b
2019-07-12_104925:920,-0.309601,-0.025908999999999998,-0.395538,-0.005161,-0.006793,0.004671,-41.0,-15.68,-40.369999,2b
2019-07-12_104925:940,-0.308075,-0.025908999999999998,-0.395538,-0.004978,-0.0066099999999999996,0.004609,-41.369999,-17.18,-40.869999,2b
2019-07-12_104925:960,-0.307587,-0.025908999999999998,-0.393494,-0.004825,-0.006548999999999999,0.004854,-41.369999,-17.18,-40.869999,2b
2019-07-12_104925:980,-0.308594,-0.026427999999999997,-0.394012,-0.004703,-0.006275,0.005067,-41.0,-16.5,-40.869999,2b
2019-07-12_104926:000,-0.306061,-0.025908999999999998,-0.394531,-0.004612,-0.006,0.005128,-41.0,-16.5,-40.869999,2b
2019-07-12_104926:020,-0.305542,-0.026427999999999997,-0.394012,-0.004581,-0.005939,0.005128,-41.0,-16.5,-40.869999,2b
2019-07-12_104926:040,-0.304016,-0.026427999999999997,-0.394531,-0.004703,-0.005939,0.005006,-41.0,-16.870001000000002,-40.369999,2b
2019-07-12_104926:060,-0.304016,-0.025908999999999998,-0.393494,-0.004978,-0.0060609999999999995,0.004915,-41.0,-16.870001000000002,-40.369999,2b
2019-07-12_104926:080,-0.304016,-0.026427999999999997,-0.394012,-0.0051,-0.006092,0.004854,-40.560001,-16.870001000000002,-40.5,2b
2019-07-12_104926:100,-0.304535,-0.026917,-0.394012,-0.0051,-0.006214,0.005006,-40.560001,-16.870001000000002,-40.5,2b
2019-07-12_104926:120,-0.30654899999999996,-0.026427999999999997,-0.39502,-0.005039,-0.005939,0.004732,-40.560001,-16.870001000000002,-40.5,2b
2019-07-12_104926:140,-0.301483,-0.026427999999999997,-0.393494,-0.0051,-0.0055119999999999995,0.004518,-41.68,-16.5,-40.869999,2b
2019-07-12_104926:160,-0.304535,-0.027435,-0.393005,-0.005039,-0.005878,0.004609,-41.68,-16.5,-40.869999,2b
2019-07-12_104926:180,-0.303528,-0.026917,-0.394012,-0.005222,-0.006092,0.004854,-41.0,-17.18,-41.18,2b
2019-07-12_104926:200,-0.304535,-0.027954000000000003,-0.394012,-0.004978,-0.006458,0.004609,-41.0,-17.18,-41.18,2b
2019-07-12_104926:220,-0.30654899999999996,-0.028442000000000002,-0.396057,-0.005222,-0.006793,0.00403,-41.0,-17.18,-41.18,2b
2019-07-12_104926:240,-0.307068,-0.027435,-0.397064,-0.004978,-0.006488,0.004518,-41.0,-16.870001000000002,-42.0,2b
2019-07-12_104926:260,-0.308594,-0.029968,-0.397064,-0.004978,-0.006275,0.004945000000000001,-41.0,-16.870001000000002,-42.0,2b
2019-07-12_104926:280,-0.307587,-0.028442000000000002,-0.396545,-0.004612,-0.005725,0.004396,-42.060001,-16.5,-41.18,2b
2019-07-12_104926:300,-0.303528,-0.027435,-0.394012,-0.0042450000000000005,-0.005298,0.004274,-42.060001,-16.5,-41.18,2b
2019-07-12_104926:320,-0.301483,-0.027435,-0.393494,-0.004337,-0.005573,0.004182,-42.060001,-16.5,-41.18,2b
2019-07-12_104926:340,-0.303528,-0.025421,-0.393005,-0.004459,-0.005634,0.004274,-41.0,-16.059998999999998,-40.5,2b
2019-07-12_104926:360,-0.30249000000000004,-0.025421,-0.393005,-0.004612,-0.005634,0.004182,-41.0,-16.059998999999998,-40.5,2b
2019-07-12_104926:380,-0.303528,-0.026427999999999997,-0.393494,-0.004764,-0.005756,0.004213000000000001,-41.0,-16.870001000000002,-41.560001,2b
2019-07-12_104926:400,-0.30300900000000003,-0.025908999999999998,-0.394012,-0.004886,-0.005725,0.0039689999999999994,-41.0,-16.870001000000002,-41.560001,2b
2019-07-12_104926:420,-0.302002,-0.025421,-0.391968,-0.004703,-0.006092,0.004213000000000001,-41.0,-16.870001000000002,-41.560001,2b
2019-07-12_104926:440,-0.307068,-0.026427999999999997,-0.391968,-0.005161,-0.0061530000000000005,0.004945000000000001,-41.0,-16.059998999999998,-41.68,2b
2019-07-12_104926:460,-0.29943800000000004,-0.026427999999999997,-0.391968,-0.004947,-0.006214,0.005067,-41.0,-16.059998999999998,-41.68,2b
2019-07-12_104926:480,-0.30654899999999996,-0.027435,-0.39502,-0.004886,-0.006548999999999999,0.003633,-40.560001,-16.059998999999998,-41.560001,2b
2019-07-12_104926:500,-0.30654899999999996,-0.023375999999999997,-0.393005,-0.004825,-0.006397,0.003114,-40.560001,-16.059998999999998,-41.560001,2b
2019-07-12_104926:520,-0.30654899999999996,-0.024384,-0.395538,-0.004612,-0.006397,0.004548,-40.560001,-16.059998999999998,-41.560001,2b
2019-07-12_104926:540,-0.305054,-0.025908999999999998,-0.395538,-0.004581,-0.005939,0.004945000000000001,-40.560001,-16.5,-40.869999,2b
2019-07-12_104926:560,-0.305054,-0.025908999999999998,-0.393494,-0.004581,-0.005695,0.004548,-40.560001,-16.5,-40.869999,2b
2019-07-12_104926:580,-0.305054,-0.024902,-0.396545,-0.004459,-0.0055119999999999995,0.004915,-40.560001,-17.18,-41.18,2b
2019-07-12_104926:600,-0.305054,-0.026917,-0.395538,-0.004459,-0.005695,0.004945000000000001,-40.560001,-17.18,-41.18,2b
2019-07-12_104926:620,-0.306061,-0.025421,-0.394012,-0.004581,-0.005634,0.004457,-40.560001,-17.18,-41.18,2b
2019-07-12_104926:640,-0.305542,-0.022858,-0.393494,-0.004703,-0.00539,0.004518,-40.560001,-16.870001000000002,-42.0,2b
2019-07-12_104926:660,-0.30249000000000004,-0.026427999999999997,-0.393005,-0.004978,-0.005451,0.004671,-40.560001,-16.870001000000002,-42.0,2b
2019-07-12_104926:680,-0.302002,-0.025421,-0.394531,-0.004947,-0.005634,0.004396,-41.369999,-16.059998999999998,-42.0,2b
2019-07-12_104926:700,-0.304016,-0.025908999999999998,-0.394012,-0.004825,-0.005817,0.004335,-41.369999,-16.059998999999998,-42.0,2b
2019-07-12_104926:720,-0.305054,-0.025908999999999998,-0.393005,-0.004764,-0.005878,0.004609,-41.369999,-16.059998999999998,-42.0,2b
2019-07-12_104926:740,-0.305542,-0.026427999999999997,-0.394012,-0.004612,-0.005756,0.004793,-41.0,-16.5,-40.869999,2b
2019-07-12_104926:760,-0.304535,-0.024902,-0.391968,-0.004612,-0.0055119999999999995,0.004518,-41.0,-16.5,-40.869999,2b
2019-07-12_104926:780,-0.302002,-0.022858,-0.393494,-0.004825,-0.00539,0.004854,-41.0,-16.5,-41.560001,2b
2019-07-12_104926:800,-0.30249000000000004,-0.022858,-0.393494,-0.005222,-0.005725,0.005189,-41.0,-16.5,-41.560001,2b
2019-07-12_104926:820,-0.30300900000000003,-0.024384,-0.393005,-0.005497,-0.006,0.00525,-41.0,-16.5,-41.560001,2b
2019-07-12_104926:840,-0.304016,-0.025908999999999998,-0.39502,-0.005741,-0.0061530000000000005,0.005189,-41.369999,-16.5,-40.75,2b
2019-07-12_104926:860,-0.305054,-0.026917,-0.392487,-0.005619,-0.006092,0.005128,-41.369999,-16.5,-40.75,2b
2019-07-12_104926:880,-0.303528,-0.028442000000000002,-0.396545,-0.005619,-0.006,0.005067,-41.68,-16.059998999999998,-40.369999,2b
2019-07-12_104926:900,-0.304535,-0.027435,-0.394531,-0.005161,-0.005939,0.004915,-41.68,-16.059998999999998,-40.369999,2b
2019-07-12_104926:920,-0.304535,-0.027954000000000003,-0.394531,-0.004947,-0.0060609999999999995,0.005128,-41.68,-16.059998999999998,-40.369999,2b
2019-07-12_104926:940,-0.304535,-0.026917,-0.395538,-0.004642,-0.005725,0.005342,-41.0,-16.5,-40.869999,2b
2019-07-12_104926:960,-0.308594,-0.025908999999999998,-0.395538,-0.004642,-0.005359,0.005189,-41.0,-16.5,-40.869999,2b
2019-07-12_104926:980,-0.29895,-0.025908999999999998,-0.392487,-0.005039,-0.005298,0.005067,-41.0,-17.18,-40.369999,2b
2019-07-12_104927:000,-0.300964,-0.027435,-0.392487,-0.005039,-0.005451,0.005128,-41.0,-17.18,-40.369999,2b
2019-07-12_104927:020,-0.305054,-0.028961,-0.391479,-0.005161,-0.0055119999999999995,0.005342,-41.0,-17.18,-40.369999,2b
2019-07-12_104927:040,-0.296906,-0.028961,-0.392487,-0.005039,-0.006336,0.004915,-41.68,-16.059998999999998,-40.369999,2b
2019-07-12_104927:060,-0.304535,-0.028442000000000002,-0.394012,-0.005161,-0.0066099999999999996,0.004671,-41.68,-16.059998999999998,-40.369999,2b
2019-07-12_104927:080,-0.305542,-0.027954000000000003,-0.396057,-0.005161,-0.006793,0.005189,-41.0,-15.68,-41.18,2b
2019-07-12_104927:100,-0.307068,-0.029480000000000003,-0.39502,-0.005039,-0.0060609999999999995,0.005189,-41.0,-15.68,-41.18,2b
2019-07-12_104927:120,-0.305542,-0.030487,-0.395538,-0.004947,-0.005725,0.004274,-41.0,-15.68,-41.18,2b
2019-07-12_104927:140,-0.300964,-0.027954000000000003,-0.394531,-0.004978,-0.005695,0.004518,-41.369999,-16.5,-41.68,2b
2019-07-12_104927:160,-0.301483,-0.028442000000000002,-0.392487,-0.004825,-0.005878,0.004732,-41.369999,-16.5,-41.68,2b
2019-07-12_104927:180,-0.30300900000000003,-0.029968,-0.394531,-0.004703,-0.005878,0.004518,-41.369999,-16.5,-40.869999,2b
2019-07-12_104927:200,-0.304016,-0.028961,-0.394531,-0.004612,-0.005939,0.004274,-41.369999,-16.5,-40.869999,2b
2019-07-12_104927:220,-0.30300900000000003,-0.028961,-0.394531,-0.004612,-0.0060609999999999995,0.004518,-41.369999,-16.5,-40.869999,2b
2019-07-12_104927:240,-0.303528,-0.027435,-0.396057,-0.004612,-0.006,0.004518,-41.0,-16.5,-40.869999,2b
2019-07-12_104927:260,-0.304016,-0.027435,-0.394531,-0.004703,-0.005939,0.004457,-41.0,-16.5,-40.869999,2b
2019-07-12_104927:280,-0.30654899999999996,-0.025908999999999998,-0.394012,-0.004825,-0.005939,0.004793,-41.68,-16.5,-41.18,2b
2019-07-12_104927:300,-0.29895,-0.026427999999999997,-0.393005,-0.004886,-0.006,0.005128,-41.68,-16.5,-41.18,2b
2019-07-12_104927:320,-0.305542,-0.029968,-0.393005,-0.004825,-0.0060609999999999995,0.004732,-41.68,-16.5,-41.18,2b
2019-07-12_104927:340,-0.304535,-0.026427999999999997,-0.395538,-0.004612,-0.005817,0.004457,-41.0,-16.870001000000002,-40.869999,2b
2019-07-12_104927:360,-0.304535,-0.027435,-0.396545,-0.004612,-0.005939,0.00525,-41.0,-16.870001000000002,-40.869999,2b
2019-07-12_104927:380,-0.304535,-0.026917,-0.395538,-0.004459,-0.005817,0.005464,-41.369999,-16.5,-41.18,2b
2019-07-12_104927:400,-0.302002,-0.026427999999999997,-0.396545,-0.004581,-0.005695,0.00525,-41.369999,-16.5,-41.18,2b
2019-07-12_104927:420,-0.30300900000000003,-0.026917,-0.394531,-0.004764,-0.0055119999999999995,0.005647,-41.369999,-16.5,-41.18,2b
2019-07-12_104927:440,-0.304016,-0.028442000000000002,-0.394012,-0.004825,-0.005634,0.005342,-41.68,-17.559998999999998,-40.0,2b
2019-07-12_104927:460,-0.30300900000000003,-0.027435,-0.393494,-0.004978,-0.005451,0.004915,-41.68,-17.559998999999998,-40.0,2b
2019-07-12_104927:480,-0.302002,-0.027435,-0.394012,-0.004978,-0.0055119999999999995,0.005006,-42.060001,-16.870001000000002,-40.5,2b
2019-07-12_104927:500,-0.302002,-0.027954000000000003,-0.393494,-0.004947,-0.005695,0.004518,-42.060001,-16.870001000000002,-40.5,2b
2019-07-12_104927:520,-0.301483,-0.028442000000000002,-0.391968,-0.004825,-0.005756,0.004091,-42.060001,-16.870001000000002,-40.5,2b
2019-07-12_104927:540,-0.301483,-0.026917,-0.394531,-0.004642,-0.006,0.004274,-41.369999,-16.5,-41.18,2b
2019-07-12_104927:560,-0.301483,-0.026917,-0.394012,-0.004581,-0.006275,0.004548,-41.369999,-16.5,-41.18,2b
2019-07-12_104927:580,-0.302002,-0.026427999999999997,-0.395538,-0.004612,-0.006548999999999999,0.004793,-41.369999,-16.870001000000002,-42.0,2b
2019-07-12_104927:600,-0.302002,-0.026427999999999997,-0.396545,-0.004825,-0.006336,0.004732,-41.369999,-16.870001000000002,-42.0,2b
2019-07-12_104927:620,-0.304016,-0.026427999999999997,-0.396545,-0.0051,-0.006336,0.004854,-41.369999,-16.870001000000002,-42.0,2b
2019-07-12_104927:640,-0.304016,-0.028442000000000002,-0.397064,-0.005344,-0.006214,0.004854,-41.369999,-16.870001000000002,-41.25,2b
2019-07-12_104927:660,-0.301483,-0.028442000000000002,-0.393494,-0.005161,-0.006336,0.004457,-41.369999,-16.870001000000002,-41.25,2b
2019-07-12_104927:680,-0.304016,-0.028961,-0.395538,-0.005222,-0.006397,0.004396,-41.369999,-16.059998999999998,-40.869999,2b
2019-07-12_104927:700,-0.30249000000000004,-0.027435,-0.396545,-0.004764,-0.006336,0.004548,-41.369999,-16.059998999999998,-40.869999,2b
2019-07-12_104927:720,-0.30249000000000004,-0.027954000000000003,-0.395538,-0.004764,-0.006214,0.004518,-41.369999,-16.059998999999998,-40.869999,2b
2019-07-12_104927:740,-0.303528,-0.026427999999999997,-0.397583,-0.004764,-0.006275,0.004457,-41.68,-16.5,-40.0,2b
2019-07-12_104927:760,-0.302002,-0.027954000000000003,-0.396057,-0.004947,-0.005878,0.004793,-41.68,-16.5,-40.0,2b
2019-07-12_104927:780,-0.305542,-0.027435,-0.396545,-0.004947,-0.006,0.004945000000000001,-41.0,-15.68,-40.869999,2b
2019-07-12_104927:800,-0.300964,-0.027435,-0.396545,-0.004978,-0.005573,0.004854,-41.0,-15.68,-40.869999,2b
2019-07-12_104927:820,-0.29943800000000004,-0.029968,-0.391479,-0.005039,-0.005725,0.004793,-41.0,-15.68,-40.869999,2b
2019-07-12_104927:840,-0.303528,-0.029480000000000003,-0.395538,-0.005222,-0.005939,0.005067,-41.0,-15.0,-41.68,2b
2019-07-12_104927:860,-0.296906,-0.030487,-0.391968,-0.004886,-0.005878,0.005311,-41.0,-15.0,-41.68,2b
2019-07-12_104927:880,-0.303528,-0.029968,-0.398071,-0.004978,-0.006670999999999999,0.004335,-41.68,-16.5,-41.560001,2b
2019-07-12_104927:900,-0.30300900000000003,-0.027954000000000003,-0.397583,-0.0051,-0.006548999999999999,0.003908,-41.68,-16.5,-41.560001,2b
2019-07-12_104927:920,-0.304535,-0.028961,-0.396545,-0.004764,-0.006397,0.004732,-41.68,-16.5,-41.560001,2b
2019-07-12_104927:940,-0.304016,-0.028961,-0.396545,-0.004825,-0.006336,0.004793,-41.369999,-16.059998999999998,-42.0,2b
2019-07-12_104927:960,-0.301483,-0.029968,-0.39502,-0.005039,-0.005939,0.004518,-41.369999,-16.059998999999998,-42.0,2b
2019-07-12_104927:980,-0.301483,-0.028961,-0.396057,-0.004825,-0.005756,0.004335,-41.369999,-16.059998999999998,-42.0,2b
2019-07-12_104928:000,-0.29995700000000003,-0.028961,-0.396057,-0.004886,-0.005756,0.004396,-41.68,-16.5,-41.18,2b
2019-07-12_104928:020,-0.29995700000000003,-0.028961,-0.395538,-0.004978,-0.005939,0.004091,-41.68,-16.5,-41.18,2b
2019-07-12_104928:040,-0.301483,-0.028442000000000002,-0.396545,-0.004612,-0.0061530000000000005,0.004274,-42.060001,-16.5,-41.18,2b
2019-07-12_104928:060,-0.300964,-0.027954000000000003,-0.396057,-0.004612,-0.006336,0.004152,-42.060001,-16.5,-41.18,2b
2019-07-12_104928:080,-0.29995700000000003,-0.026917,-0.397583,-0.004642,-0.006458,0.0039689999999999994,-41.369999,-15.68,-40.869999,2b
2019-07-12_104928:100,-0.305542,-0.026917,-0.396545,-0.004703,-0.006336,0.0039689999999999994,-41.369999,-15.68,-40.869999,2b
2019-07-12_104928:120,-0.296387,-0.027435,-0.397064,-0.004642,-0.005725,0.004518,-41.369999,-15.68,-40.869999,2b
2019-07-12_104928:140,-0.301483,-0.031006,-0.397064,-0.004764,-0.005817,0.004548,-41.369999,-17.18,-40.869999,2b
2019-07-12_104928:160,-0.300964,-0.027435,-0.397583,-0.004886,-0.006336,0.0034189999999999997,-41.369999,-17.18,-40.869999,2b
2019-07-12_104928:180,-0.301483,-0.025908999999999998,-0.397583,-0.004947,-0.0061530000000000005,0.003572,-41.0,-16.059998999999998,-42.75,2b
2019-07-12_104928:200,-0.303528,-0.028961,-0.40063499999999996,-0.005039,-0.006214,0.004457,-41.0,-16.059998999999998,-42.75,2b
2019-07-12_104928:220,-0.305054,-0.030487,-0.402161,-0.0051,-0.006,0.004518,-41.0,-16.059998999999998,-42.75,2b
2019-07-12_104928:240,-0.308594,-0.029480000000000003,-0.404175,-0.005222,-0.005451,0.003908,-40.560001,-17.559998999999998,-41.560001,2b
2019-07-12_104928:260,-0.307068,-0.028961,-0.401642,-0.005375,-0.004383,0.003358,-40.560001,-17.559998999999998,-41.560001,2b
2019-07-12_104928:280,-0.307068,-0.029480000000000003,-0.40011599999999997,-0.005497,-0.003467,0.002839,-40.560001,-17.559998999999998,-41.560001,2b
2019-07-12_104928:300,-0.302002,-0.028442000000000002,-0.397583,-0.005558,-0.0031309999999999997,0.0016489999999999999,-41.0,-16.5,-41.68,2b
2019-07-12_104928:320,-0.300476,-0.026427999999999997,-0.393005,-0.005375,-0.0032530000000000002,0.001832,-41.0,-16.5,-41.68,2b
2019-07-12_104928:340,-0.300964,-0.026427999999999997,-0.390961,-0.004886,-0.003436,0.0025039999999999997,-41.369999,-15.68,-41.68,2b
2019-07-12_104928:360,-0.296906,-0.024902,-0.386902,-0.004337,-0.0037719999999999997,0.0025039999999999997,-41.369999,-15.68,-41.68,2b
2019-07-12_104928:380,-0.29742399999999997,-0.023895,-0.385864,-0.00394,-0.0045049999999999995,0.003053,-41.369999,-15.68,-41.68,2b
2019-07-12_104928:400,-0.296906,-0.022369,-0.38739,-0.0033909999999999995,-0.005359,0.0038469999999999997,-41.369999,-16.059998999999998,-41.560001,2b
2019-07-12_104928:420,-0.29742399999999997,-0.021332,-0.386902,-0.003452,-0.006336,0.004274,-41.369999,-16.059998999999998,-41.560001,2b
2019-07-12_104928:440,-0.29895,-0.020325,-0.390961,-0.003544,-0.007006999999999999,0.004854,-42.060001,-16.870001000000002,-42.0,2b
2019-07-12_104928:460,-0.302002,-0.019318000000000002,-0.390961,-0.004398,-0.007678,0.005006,-42.060001,-16.870001000000002,-42.0,2b
2019-07-12_104928:480,-0.304016,-0.020844,-0.39502,-0.005039,-0.007923000000000001,0.004945000000000001,-42.060001,-16.870001000000002,-42.0,2b
2019-07-12_104928:500,-0.30654899999999996,-0.022858,-0.396545,-0.005771,-0.008075,0.005067,-41.369999,-16.5,-41.18,2b
2019-07-12_104928:520,-0.307068,-0.026917,-0.399597,-0.005954,-0.007526000000000001,0.005342,-41.369999,-16.5,-41.18,2b
2019-07-12_104928:540,-0.308075,-0.029968,-0.401123,-0.005954,-0.00719,0.005311,-41.68,-16.5,-41.68,2b
2019-07-12_104928:560,-0.305542,-0.029968,-0.398071,-0.005741,-0.006458,0.005128,-41.68,-16.5,-41.68,2b
2019-07-12_104928:580,-0.30654899999999996,-0.032013,-0.401123,-0.0052829999999999995,-0.006,0.004854,-41.68,-16.5,-41.68,2b
2019-07-12_104928:600,-0.301483,-0.029480000000000003,-0.398071,-0.004764,-0.005695,0.004396,-41.0,-17.18,-40.869999,2b
2019-07-12_104928:620,-0.30300900000000003,-0.028961,-0.398071,-0.004337,-0.005725,0.0038159999999999995,-41.0,-17.18,-40.869999,2b
2019-07-12_104928:640,-0.30300900000000003,-0.027435,-0.399109,-0.0042450000000000005,-0.005451,0.00345,-41.0,-16.870001000000002,-41.68,2b
2019-07-12_104928:660,-0.29943800000000004,-0.027435,-0.397583,-0.003879,-0.005176,0.0034189999999999997,-41.0,-16.870001000000002,-41.68,2b
2019-07-12_104928:680,-0.305054,-0.025908999999999998,-0.399109,-0.003544,-0.005634,0.003511,-41.0,-16.870001000000002,-41.68,2b
2019-07-12_104928:700,-0.29943800000000004,-0.023375999999999997,-0.395538,-0.0032689999999999998,-0.004993,0.0032359999999999997,-42.5,-16.870001000000002,-41.18,2b
2019-07-12_104928:720,-0.303528,-0.019806,-0.391479,-0.003544,-0.004596,0.0029,-42.5,-16.870001000000002,-41.18,2b
2019-07-12_104928:740,-0.300476,-0.018799,-0.393005,-0.004337,-0.004229999999999999,0.003358,-41.0,-16.870001000000002,-40.5,2b
2019-07-12_104928:760,-0.29486100000000004,-0.020844,-0.391968,-0.005039,-0.004901,0.004182,-41.0,-16.870001000000002,-40.5,2b
2019-07-12_104928:780,-0.300964,-0.023375999999999997,-0.393494,-0.005619,-0.005695,0.0037549999999999997,-41.0,-16.870001000000002,-40.5,2b
2019-07-12_104928:800,-0.303528,-0.023375999999999997,-0.396545,-0.005893,-0.006214,0.003908,-40.18,-17.18,-41.560001,2b
2019-07-12_104928:820,-0.307068,-0.024902,-0.396545,-0.005619,-0.006458,0.005403,-40.18,-17.18,-41.560001,2b
2019-07-12_104928:840,-0.305054,-0.027435,-0.39502,-0.005436,-0.005634,0.006196,-41.369999,-16.870001000000002,-41.18,2b
2019-07-12_104928:860,-0.303528,-0.026427999999999997,-0.396057,-0.005222,-0.005359,0.005586,-41.369999,-16.870001000000002,-41.18,2b
2019-07-12_104928:880,-0.303528,-0.027954000000000003,-0.397064,-0.005222,-0.005451,0.005403,-41.369999,-16.870001000000002,-41.18,2b
2019-07-12_104928:900,-0.304016,-0.030487,-0.396545,-0.005161,-0.005359,0.005464,-41.68,-15.37,-40.869999,2b
2019-07-12_104928:920,-0.306061,-0.031006,-0.395538,-0.004947,-0.0055119999999999995,0.004915,-41.68,-15.37,-40.869999,2b
2019-07-12_104928:940,-0.304016,-0.031494,-0.396545,-0.004337,-0.005115,0.004335,-40.560001,-16.870001000000002,-42.0,2b
2019-07-12_104928:960,-0.305542,-0.028961,-0.394012,-0.003879,-0.00484,0.0039689999999999994,-40.560001,-16.870001000000002,-42.0,2b
2019-07-12_104928:980,-0.30249000000000004,-0.027435,-0.39502,-0.0036659999999999996,-0.004444,0.00403,-40.560001,-16.870001000000002,-42.0,2b
2019-07-12_104929:000,-0.303528,-0.027435,-0.392487,-0.003879,-0.004321,0.0037549999999999997,-41.68,-16.870001000000002,-40.869999,2b
2019-07-12_104929:020,-0.29895,-0.028442000000000002,-0.391968,-0.004275999999999999,-0.004718,0.0039689999999999994,-41.68,-16.870001000000002,-40.869999,2b
2019-07-12_104929:040,-0.298431,-0.029968,-0.390961,-0.004184,-0.005298,0.003908,-41.369999,-16.870001000000002,-41.68,2b
2019-07-12_104929:060,-0.30300900000000003,-0.026427999999999997,-0.393494,-0.004123,-0.006336,0.002107,-41.369999,-16.870001000000002,-41.68,2b
2019-07-12_104929:080,-0.302002,-0.023375999999999997,-0.393005,-0.004001,-0.006397,0.0016489999999999999,-41.369999,-16.870001000000002,-41.68,2b
2019-07-12_104929:100,-0.304016,-0.023375999999999997,-0.393005,-0.003879,-0.006336,0.003297,-40.560001,-17.18,-42.75,2b
2019-07-12_104929:120,-0.302002,-0.022369,-0.395538,-0.004184,-0.006214,0.0039689999999999994,-40.560001,-17.18,-42.75,2b
2019-07-12_104929:140,-0.300476,-0.024384,-0.39502,-0.004764,-0.006458,0.004274,-41.68,-16.870001000000002,-41.18,2b
2019-07-12_104929:160,-0.305054,-0.025908999999999998,-0.396057,-0.004764,-0.006854000000000001,0.004518,-41.68,-16.870001000000002,-41.18,2b
2019-07-12_104929:180,-0.307068,-0.026427999999999997,-0.396057,-0.004764,-0.006488,0.0038159999999999995,-41.68,-16.870001000000002,-41.18,2b
2019-07-12_104929:200,-0.305054,-0.026427999999999997,-0.39859,-0.004947,-0.006092,0.00345,-41.369999,-16.5,-40.869999,2b
2019-07-12_104929:220,-0.304535,-0.026427999999999997,-0.399597,-0.004947,-0.005878,0.004182,-41.369999,-16.5,-40.869999,2b
2019-07-12_104929:240,-0.305054,-0.029480000000000003,-0.39859,-0.004612,-0.005451,0.004518,-41.0,-16.059998999999998,-40.869999,2b
2019-07-12_104929:260,-0.303528,-0.026917,-0.397583,-0.004398,-0.005176,0.003908,-41.0,-16.059998999999998,-40.869999,2b
2019-07-12_104929:280,-0.303528,-0.026427999999999997,-0.397064,-0.004123,-0.004961999999999999,0.003908,-41.0,-16.059998999999998,-40.869999,2b
2019-07-12_104929:300,-0.301483,-0.026427999999999997,-0.395538,-0.00394,-0.00484,0.004457,-42.060001,-16.5,-40.369999,2b
2019-07-12_104929:320,-0.30249000000000004,-0.026427999999999997,-0.394531,-0.004184,-0.004901,0.004274,-42.060001,-16.5,-40.369999,2b
2019-07-12_104929:340,-0.30300900000000003,-0.024384,-0.393494,-0.004459,-0.004566,0.004152,-41.0,-16.5,-40.0,2b
2019-07-12_104929:360,-0.30249000000000004,-0.023895,-0.390442,-0.005161,-0.004566,0.0038469999999999997,-41.0,-16.5,-40.0,2b
2019-07-12_104929:380,-0.30249000000000004,-0.026917,-0.392487,-0.005619,-0.004993,0.0038159999999999995,-41.0,-16.5,-40.0,2b
2019-07-12_104929:400,-0.304016,-0.027435,-0.393494,-0.005222,-0.0055119999999999995,0.003633,-39.869999,-16.059998999999998,-41.18,2b
2019-07-12_104929:420,-0.303528,-0.028961,-0.392487,-0.004520000000000001,-0.005756,0.0034189999999999997,-39.869999,-16.059998999999998,-41.18,2b
2019-07-12_104929:440,-0.304016,-0.025421,-0.393494,-0.004123,-0.0055119999999999995,0.003358,-41.0,-16.870001000000002,-39.68,2b
2019-07-12_104929:460,-0.304535,-0.024384,-0.391479,-0.004184,-0.005634,0.003511,-41.0,-16.870001000000002,-39.68,2b
2019-07-12_104929:480,-0.304016,-0.021851,-0.393494,-0.004184,-0.005725,0.003358,-41.0,-16.870001000000002,-39.68,2b
2019-07-12_104929:500,-0.304535,-0.020844,-0.392487,-0.004642,-0.005725,0.0034189999999999997,-41.0,-16.059998999999998,-41.18,2b
2019-07-12_104929:520,-0.304016,-0.022369,-0.392487,-0.004978,-0.005573,0.0039689999999999994,-41.0,-16.059998999999998,-41.18,2b
2019-07-12_104929:540,-0.304016,-0.023375999999999997,-0.393005,-0.005344,-0.0055119999999999995,0.004518,-41.369999,-16.5,-40.869999,2b
2019-07-12_104929:560,-0.30300900000000003,-0.026917,-0.394012,-0.005558,-0.005725,0.004854,-41.369999,-16.5,-40.869999,2b
2019-07-12_104929:580,-0.305542,-0.027435,-0.396057,-0.005222,-0.006214,0.004274,-41.369999,-16.5,-40.869999,2b
2019-07-12_104929:600,-0.305542,-0.024902,-0.39502,-0.005222,-0.0060609999999999995,0.003633,-41.68,-17.18,-42.0,2b
2019-07-12_104929:620,-0.304016,-0.021851,-0.394531,-0.004886,-0.005878,0.0032359999999999997,-41.68,-17.18,-42.0,2b
2019-07-12_104929:640,-0.304016,-0.022858,-0.396057,-0.004703,-0.005817,0.003511,-41.68,-17.559998999999998,-42.369999,2b
2019-07-12_104929:660,-0.305054,-0.024384,-0.394531,-0.004459,-0.005878,0.004335,-41.68,-17.559998999999998,-42.369999,2b
2019-07-12_104929:680,-0.306061,-0.025908999999999998,-0.397583,-0.004337,-0.005939,0.005067,-41.68,-17.559998999999998,-42.369999,2b
2019-07-12_104929:700,-0.302002,-0.024902,-0.396545,-0.004001,-0.005573,0.00525,-42.060001,-17.559998999999998,-41.560001,2b
2019-07-12_104929:720,-0.308594,-0.026427999999999997,-0.395538,-0.004001,-0.0052369999999999995,0.004854,-42.060001,-17.559998999999998,-41.560001,2b
2019-07-12_104929:740,-0.29943800000000004,-0.024902,-0.394012,-0.004123,-0.004444,0.004457,-41.369999,-17.18,-41.68,2b
2019-07-12_104929:760,-0.300964,-0.024902,-0.392487,-0.004275999999999999,-0.004657,0.004335,-41.369999,-17.18,-41.68,2b
2019-07-12_104929:780,-0.303528,-0.022858,-0.394012,-0.004459,-0.0052369999999999995,0.0032359999999999997,-41.369999,-17.18,-41.68,2b
2019-07-12_104929:800,-0.304535,-0.021332,-0.393494,-0.004703,-0.0055119999999999995,0.0032359999999999997,-41.369999,-16.870001000000002,-40.0,2b
2019-07-12_104929:820,-0.307587,-0.024384,-0.396057,-0.004642,-0.005817,0.004609,-41.369999,-16.870001000000002,-40.0,2b
2019-07-12_104929:840,-0.308075,-0.023895,-0.39502,-0.004642,-0.005695,0.004732,-41.68,-16.5,-40.869999,2b
2019-07-12_104929:860,-0.304016,-0.022369,-0.392487,-0.004978,-0.00539,0.004213000000000001,-41.68,-16.5,-40.869999,2b
2019-07-12_104929:880,-0.305054,-0.023375999999999997,-0.391479,-0.0052829999999999995,-0.005176,0.004518,-41.68,-16.5,-40.869999,2b
2019-07-12_104929:900,-0.304016,-0.023375999999999997,-0.391968,-0.005436,-0.004961999999999999,0.004609,-41.68,-16.870001000000002,-41.18,2b
2019-07-12_104929:920,-0.304016,-0.025421,-0.390442,-0.005497,-0.0052369999999999995,0.004671,-41.68,-16.870001000000002,-41.18,2b
2019-07-12_104929:940,-0.304016,-0.027954000000000003,-0.393005,-0.005344,-0.005298,0.005342,-41.0,-16.059998999999998,-40.869999,2b
2019-07-12_104929:960,-0.30300900000000003,-0.029968,-0.389954,-0.004947,-0.0055119999999999995,0.005983,-41.0,-16.059998999999998,-40.869999,2b
2019-07-12_104929:980,-0.304016,-0.031006,-0.394531,-0.004764,-0.006,0.005525,-41.0,-16.059998999999998,-40.869999,2b
2019-07-12_104930:000,-0.308075,-0.028442000000000002,-0.393005,-0.004184,-0.006092,0.004854,-42.060001,-16.870001000000002,-39.18,2b
2019-07-12_104930:020,-0.304016,-0.025908999999999998,-0.392487,-0.004123,-0.0060609999999999995,0.004548,-42.060001,-16.870001000000002,-39.18,2b
2019-07-12_104930:040,-0.304016,-0.026427999999999997,-0.390961,-0.003788,-0.005573,0.004274,-42.5,-16.870001000000002,-41.18,2b
2019-07-12_104930:060,-0.30300900000000003,-0.023895,-0.391479,-0.004062,-0.005725,0.003511,-42.5,-16.870001000000002,-41.18,2b
2019-07-12_104930:080,-0.305054,-0.024384,-0.393005,-0.004459,-0.006092,0.004091,-42.5,-16.870001000000002,-41.18,2b
2019-07-12_104930:100,-0.304016,-0.026427999999999997,-0.393005,-0.004520000000000001,-0.006092,0.005067,-41.68,-16.5,-42.0,2b
2019-07-12_104930:120,-0.303528,-0.026917,-0.393005,-0.004764,-0.0060609999999999995,0.005128,-41.68,-16.5,-42.0,2b
2019-07-12_104930:140,-0.30300900000000003,-0.026427999999999997,-0.394012,-0.004612,-0.006,0.004609,-41.369999,-17.18,-41.68,2b
2019-07-12_104930:160,-0.303528,-0.024902,-0.393005,-0.004642,-0.006275,0.004396,-41.369999,-17.18,-41.68,2b
2019-07-12_104930:180,-0.305542,-0.023375999999999997,-0.39502,-0.005039,-0.006275,0.00403,-41.369999,-17.18,-41.68,2b
2019-07-12_104930:200,-0.304535,-0.023895,-0.394531,-0.005558,-0.006,0.004182,-41.68,-17.18,-40.5,2b
2019-07-12_104930:220,-0.301483,-0.026917,-0.396545,-0.006076,-0.006397,0.004335,-41.68,-17.18,-40.5,2b
2019-07-12_104930:240,-0.303528,-0.028961,-0.399109,-0.0060149999999999995,-0.006731999999999999,0.004457,-41.369999,-16.059998999999998,-41.68,2b
2019-07-12_104930:260,-0.307587,-0.032532,-0.39859,-0.005344,-0.0070680000000000005,0.004457,-41.369999,-16.059998999999998,-41.68,2b
2019-07-12_104930:280,-0.307587,-0.032013,-0.39502,-0.0042450000000000005,-0.006458,0.004548,-41.369999,-16.059998999999998,-41.68,2b
2019-07-12_104930:300,-0.309601,-0.029968,-0.396545,-0.003208,-0.005695,0.004396,-42.060001,-16.5,-41.18,2b
2019-07-12_104930:320,-0.301483,-0.027435,-0.394012,-0.0027199999999999998,-0.004779,0.004335,-42.060001,-16.5,-41.18,2b
2019-07-12_104930:340,-0.302002,-0.025908999999999998,-0.394012,-0.002597,-0.00484,0.00403,-41.68,-17.18,-40.869999,2b
2019-07-12_104930:360,-0.302002,-0.025421,-0.392487,-0.0033299999999999996,-0.0052369999999999995,0.003511,-41.68,-17.18,-40.869999,2b
2019-07-12_104930:380,-0.304016,-0.024902,-0.393005,-0.003849,-0.005573,0.003297,-41.68,-17.18,-40.869999,2b
2019-07-12_104930:400,-0.30249000000000004,-0.026427999999999997,-0.394012,-0.004337,-0.005695,0.0034189999999999997,-42.060001,-17.559998999999998,-40.5,2b
2019-07-12_104930:420,-0.303528,-0.026917,-0.392487,-0.004520000000000001,-0.005695,0.0038469999999999997,-42.060001,-17.559998999999998,-40.5,2b
2019-07-12_104930:440,-0.30249000000000004,-0.025908999999999998,-0.393494,-0.004612,-0.006,0.0038159999999999995,-41.68,-17.18,-40.5,2b
2019-07-12_104930:460,-0.304016,-0.026917,-0.394531,-0.004459,-0.005939,0.0038159999999999995,-41.68,-17.18,-40.5,2b
2019-07-12_104930:480,-0.304535,-0.026427999999999997,-0.394531,-0.004459,-0.006214,0.0037549999999999997,-41.68,-17.18,-40.5,2b
2019-07-12_104930:500,-0.305542,-0.026917,-0.395538,-0.004459,-0.006092,0.003908,-41.68,-15.37,-40.5,2b
2019-07-12_104930:520,-0.30654899999999996,-0.025421,-0.395538,-0.004062,-0.005756,0.0038469999999999997,-41.68,-15.37,-40.5,2b
2019-07-12_104930:540,-0.304535,-0.025421,-0.396545,-0.004337,-0.0055119999999999995,0.0037549999999999997,-41.68,-16.5,-41.68,2b
2019-07-12_104930:560,-0.305542,-0.024384,-0.393005,-0.004275999999999999,-0.005573,0.0037549999999999997,-41.68,-16.5,-41.68,2b
2019-07-12_104930:580,-0.305542,-0.025421,-0.394531,-0.004520000000000001,-0.005451,0.004152,-41.68,-16.5,-41.68,2b
2019-07-12_104930:600,-0.304016,-0.024384,-0.393005,-0.004459,-0.005573,0.004274,-41.68,-17.18,-41.25,2b
2019-07-12_104930:620,-0.304016,-0.027954000000000003,-0.394531,-0.004459,-0.005725,0.004213000000000001,-41.68,-17.18,-41.25,2b
2019-07-12_104930:640,-0.304535,-0.028442000000000002,-0.394531,-0.004123,-0.005695,0.0038469999999999997,-42.060001,-16.870001000000002,-41.18,2b
2019-07-12_104930:660,-0.304016,-0.025908999999999998,-0.393005,-0.0037270000000000003,-0.005725,0.0038159999999999995,-42.060001,-16.870001000000002,-41.18,2b
2019-07-12_104930:680,-0.304535,-0.025908999999999998,-0.394012,-0.0033299999999999996,-0.005725,0.004152,-42.060001,-16.870001000000002,-41.18,2b
2019-07-12_104930:700,-0.307587,-0.023895,-0.395538,-0.003544,-0.005634,0.004518,-41.369999,-16.5,-41.18,2b
2019-07-12_104930:720,-0.30249000000000004,-0.022858,-0.393005,-0.003879,-0.005176,0.004457,-41.369999,-16.5,-41.18,2b
2019-07-12_104930:740,-0.304535,-0.025908999999999998,-0.391968,-0.004337,-0.005573,0.004274,-41.68,-16.870001000000002,-42.369999,2b
2019-07-12_104930:760,-0.30249000000000004,-0.024902,-0.391479,-0.004825,-0.005451,0.004213000000000001,-41.68,-16.870001000000002,-42.369999,2b
2019-07-12_104930:780,-0.29995700000000003,-0.025421,-0.391968,-0.004703,-0.005878,0.004091,-41.68,-16.870001000000002,-42.369999,2b
2019-07-12_104930:800,-0.304535,-0.025421,-0.394531,-0.004703,-0.006548999999999999,0.003633,-41.369999,-16.870001000000002,-40.869999,2b
2019-07-12_104930:820,-0.307068,-0.024384,-0.394012,-0.004581,-0.006945999999999999,0.004457,-41.369999,-16.870001000000002,-40.869999,2b
2019-07-12_104930:840,-0.307068,-0.026427999999999997,-0.397064,-0.004184,-0.006458,0.0058,-41.369999,-16.870001000000002,-40.5,2b
2019-07-12_104930:860,-0.30654899999999996,-0.025421,-0.395538,-0.004062,-0.006214,0.005525,-41.369999,-16.870001000000002,-40.5,2b
2019-07-12_104930:880,-0.304535,-0.024384,-0.395538,-0.004337,-0.005756,0.004793,-41.369999,-16.870001000000002,-40.5,2b
2019-07-12_104930:900,-0.30300900000000003,-0.024384,-0.394531,-0.004764,-0.005878,0.004915,-42.060001,-16.5,-40.869999,2b
2019-07-12_104930:920,-0.305054,-0.025908999999999998,-0.396545,-0.005161,-0.005817,0.005311,-42.060001,-16.5,-40.869999,2b
2019-07-12_104930:940,-0.304016,-0.025908999999999998,-0.395538,-0.005222,-0.005451,0.004671,-42.060001,-16.5,-41.68,2b
2019-07-12_104930:960,-0.304016,-0.026427999999999997,-0.394012,-0.0051,-0.00539,0.004671,-42.060001,-16.5,-41.68,2b
2019-07-12_104930:980,-0.303528,-0.028442000000000002,-0.394012,-0.004703,-0.005054,0.005342,-42.060001,-16.5,-41.68,2b
2019-07-12_104931:000,-0.303528,-0.027435,-0.394531,-0.004764,-0.005298,0.005464,-41.68,-16.5,-41.18,2b
2019-07-12_104931:020,-0.304535,-0.025421,-0.393005,-0.004886,-0.0052369999999999995,0.005342,-41.68,-16.5,-41.18,2b
2019-07-12_104931:040,-0.303528,-0.027435,-0.394531,-0.005222,-0.005298,0.005861,-41.0,-16.5,-40.869999,2b
2019-07-12_104931:060,-0.303528,-0.029480000000000003,-0.391479,-0.0052829999999999995,-0.005634,0.005189,-41.0,-16.5,-40.869999,2b
2019-07-12_104931:080,-0.304535,-0.030487,-0.396057,-0.005161,-0.006,0.004152,-41.0,-16.5,-40.869999,2b
2019-07-12_104931:100,-0.306061,-0.027435,-0.393494,-0.004947,-0.005756,0.004671,-40.560001,-16.870001000000002,-40.369999,2b
2019-07-12_104931:120,-0.306061,-0.027954000000000003,-0.393494,-0.004642,-0.005573,0.005922,-40.560001,-16.870001000000002,-40.369999,2b
2019-07-12_104931:140,-0.304535,-0.029968,-0.39502,-0.0051,-0.005573,0.005464,-41.0,-16.870001000000002,-41.18,2b
2019-07-12_104931:160,-0.30249000000000004,-0.029968,-0.394012,-0.004978,-0.005756,0.004793,-41.0,-16.870001000000002,-41.18,2b
2019-07-12_104931:180,-0.306061,-0.032013,-0.394531,-0.004825,-0.006214,0.004793,-41.0,-16.870001000000002,-41.18,2b
2019-07-12_104931:200,-0.305054,-0.032013,-0.392487,-0.004703,-0.006,0.004335,-41.68,-16.059998999999998,-40.869999,2b
2019-07-12_104931:220,-0.304016,-0.028442000000000002,-0.392487,-0.004581,-0.005939,0.004091,-41.68,-16.059998999999998,-40.869999,2b
2019-07-12_104931:240,-0.30300900000000003,-0.028961,-0.393005,-0.004398,-0.005817,0.004548,-40.560001,-16.059998999999998,-40.869999,2b
2019-07-12_104931:260,-0.302002,-0.028442000000000002,-0.393005,-0.004337,-0.006,0.004548,-40.560001,-16.059998999999998,-40.869999,2b
2019-07-12_104931:280,-0.30300900000000003,-0.027435,-0.394012,-0.004612,-0.006214,0.004335,-40.560001,-16.059998999999998,-40.869999,2b
2019-07-12_104931:300,-0.30249000000000004,-0.027954000000000003,-0.394012,-0.005039,-0.006275,0.004548,-41.0,-15.68,-40.5,2b
2019-07-12_104931:320,-0.30300900000000003,-0.030487,-0.39502,-0.0051,-0.006275,0.004915,-41.0,-15.68,-40.5,2b
2019-07-12_104931:340,-0.303528,-0.032013,-0.394531,-0.005039,-0.006214,0.004518,-41.68,-16.059998999999998,-40.369999,2b
2019-07-12_104931:360,-0.304016,-0.031494,-0.395538,-0.004947,-0.0061530000000000005,0.004213000000000001,-41.68,-16.059998999999998,-40.369999,2b
2019-07-12_104931:380,-0.304016,-0.031494,-0.397064,-0.004581,-0.0060609999999999995,0.004274,-41.68,-16.059998999999998,-40.369999,2b
2019-07-12_104931:400,-0.304016,-0.029480000000000003,-0.395538,-0.004459,-0.005939,0.004182,-41.369999,-16.870001000000002,-41.18,2b
2019-07-12_104931:420,-0.304535,-0.027435,-0.394531,-0.004398,-0.005756,0.004152,-41.369999,-16.870001000000002,-41.18,2b
2019-07-12_104931:440,-0.304016,-0.027954000000000003,-0.39502,-0.004612,-0.005695,0.004182,-41.68,-16.870001000000002,-41.68,2b
2019-07-12_104931:460,-0.303528,-0.028961,-0.393494,-0.004703,-0.005817,0.004274,-41.68,-16.870001000000002,-41.68,2b
2019-07-12_104931:480,-0.305054,-0.027954000000000003,-0.394531,-0.004947,-0.005817,0.004152,-41.68,-16.870001000000002,-41.68,2b
2019-07-12_104931:500,-0.304016,-0.029480000000000003,-0.394531,-0.004978,-0.005695,0.004152,-40.560001,-17.18,-41.18,2b
2019-07-12_104931:520,-0.302002,-0.028961,-0.394012,-0.004886,-0.005573,0.004091,-40.560001,-17.18,-41.18,2b
2019-07-12_104931:540,-0.302002,-0.029480000000000003,-0.394012,-0.005161,-0.005878,0.0038469999999999997,-41.369999,-16.059998999999998,-42.869999,2b
2019-07-12_104931:560,-0.30300900000000003,-0.029480000000000003,-0.392487,-0.004978,-0.005817,0.0038159999999999995,-41.369999,-16.059998999999998,-42.869999,2b
2019-07-12_104931:580,-0.30249000000000004,-0.029480000000000003,-0.393494,-0.005039,-0.005878,0.003694,-41.369999,-16.059998999999998,-42.869999,2b
2019-07-12_104931:600,-0.29943800000000004,-0.030487,-0.393005,-0.004886,-0.0061530000000000005,0.00403,-41.68,-16.059998999999998,-41.68,2b
2019-07-12_104931:620,-0.29742399999999997,-0.029968,-0.392487,-0.004581,-0.006945999999999999,0.004152,-41.68,-16.059998999999998,-41.68,2b
2019-07-12_104931:640,-0.29995700000000003,-0.031494,-0.397064,-0.004184,-0.007801000000000001,0.004091,-41.369999,-16.870001000000002,-41.18,2b
2019-07-12_104931:660,-0.304535,-0.031006,-0.396545,-0.0033299999999999996,-0.007984,0.003908,-41.369999,-16.870001000000002,-41.18,2b
2019-07-12_104931:680,-0.308075,-0.026917,-0.397583,-0.002475,-0.007404000000000001,0.003908,-41.369999,-16.870001000000002,-41.18,2b
2019-07-12_104931:700,-0.311646,-0.023895,-0.399109,-0.0027199999999999998,-0.0066099999999999996,0.0038469999999999997,-41.369999,-16.5,-41.68,2b
2019-07-12_104931:720,-0.303528,-0.021332,-0.39502,-0.0036049999999999997,-0.005176,0.003908,-41.369999,-16.5,-41.68,2b
2019-07-12_104931:740,-0.302002,-0.022858,-0.39502,-0.004764,-0.004901,0.004091,-41.369999,-16.5,-40.0,2b
2019-07-12_104931:760,-0.302002,-0.027954000000000003,-0.395538,-0.005619,-0.004901,0.004396,-41.369999,-16.5,-40.0,2b
2019-07-12_104931:780,-0.29742399999999997,-0.03302,-0.395538,-0.005679999999999999,-0.005451,0.004457,-41.369999,-16.5,-40.0,2b
2019-07-12_104931:800,-0.30654899999999996,-0.034546,-0.40011599999999997,-0.005344,-0.005878,0.003633,-40.560001,-16.059998999999998,-41.68,2b
2019-07-12_104931:820,-0.307587,-0.033539,-0.398071,-0.0042450000000000005,-0.005725,0.00345,-40.560001,-16.059998999999998,-41.68,2b
2019-07-12_104931:840,-0.309113,-0.031006,-0.40063499999999996,-0.003208,-0.005451,0.004274,-41.68,-16.059998999999998,-40.869999,2b
2019-07-12_104931:860,-0.30654899999999996,-0.028961,-0.398071,-0.002872,-0.00484,0.004274,-41.68,-16.059998999999998,-40.869999,2b
2019-07-12_104931:880,-0.29742399999999997,-0.025421,-0.393005,-0.003055,-0.0045049999999999995,0.00345,-41.68,-16.059998999999998,-40.869999,2b
2019-07-12_104931:900,-0.29943800000000004,-0.024902,-0.394012,-0.003788,-0.004901,0.0037549999999999997,-41.0,-16.5,-40.0,2b
2019-07-12_104931:920,-0.302002,-0.027435,-0.391479,-0.0042450000000000005,-0.005359,0.0038469999999999997,-41.0,-16.5,-40.0,2b
2019-07-12_104931:940,-0.302002,-0.026917,-0.391968,-0.004398,-0.005115,0.003358,-41.68,-16.870001000000002,-42.0,2b
2019-07-12_104931:960,-0.30249000000000004,-0.024902,-0.388916,-0.004825,-0.005298,0.003053,-41.68,-16.870001000000002,-42.0,2b
2019-07-12_104931:980,-0.29995700000000003,-0.025908999999999998,-0.390442,-0.0051,-0.0052369999999999995,0.003358,-41.68,-16.870001000000002,-42.0,2b
2019-07-12_104932:000,-0.29895,-0.027954000000000003,-0.394012,-0.005436,-0.0060609999999999995,0.00345,-41.68,-16.5,-41.68,2b
2019-07-12_104932:020,-0.301483,-0.031006,-0.394531,-0.005497,-0.0070680000000000005,0.00345,-41.68,-16.5,-41.68,2b
2019-07-12_104932:040,-0.306061,-0.034546,-0.396057,-0.004825,-0.007220999999999999,0.0038159999999999995,-41.369999,-16.5,-42.0,2b
2019-07-12_104932:060,-0.302002,-0.035583,-0.393494,-0.003544,-0.007129000000000001,0.0039689999999999994,-41.369999,-16.5,-42.0,2b
2019-07-12_104932:080,-0.305054,-0.034058,-0.397583,-0.002323,-0.006854000000000001,0.0027170000000000002,-41.369999,-16.5,-42.0,2b
2019-07-12_104932:100,-0.307068,-0.029480000000000003,-0.396545,-0.0016820000000000001,-0.006731999999999999,0.0025039999999999997,-41.68,-16.059998999999998,-41.18,2b
2019-07-12_104932:120,-0.307068,-0.028442000000000002,-0.39859,-0.001529,-0.006092,0.003633,-41.68,-16.059998999999998,-41.18,2b
2019-07-12_104932:140,-0.305054,-0.028961,-0.399597,-0.0018039999999999998,-0.005573,0.0038159999999999995,-41.369999,-16.870001000000002,-40.5,2b
2019-07-12_104932:160,-0.30249000000000004,-0.026917,-0.397583,-0.002475,-0.005359,0.003114,-41.369999,-16.870001000000002,-40.5,2b
2019-07-12_104932:180,-0.30300900000000003,-0.027954000000000003,-0.39859,-0.003452,-0.004718,0.0029620000000000002,-41.369999,-16.870001000000002,-40.5,2b
2019-07-12_104932:200,-0.304016,-0.028442000000000002,-0.394531,-0.004275999999999999,-0.004657,0.003114,-41.369999,-16.5,-40.869999,2b
2019-07-12_104932:220,-0.303528,-0.031494,-0.39502,-0.005161,-0.00426,0.0029,-41.369999,-16.5,-40.869999,2b
2019-07-12_104932:240,-0.303528,-0.033539,-0.395538,-0.0052829999999999995,-0.004108,0.0027170000000000002,-41.68,-16.5,-41.68,2b
2019-07-12_104932:260,-0.29895,-0.034058,-0.390961,-0.004642,-0.004108,0.002778,-41.68,-16.5,-41.68,2b
2019-07-12_104932:280,-0.302002,-0.03302,-0.394012,-0.003849,-0.005054,0.00229,-41.68,-16.5,-41.68,2b
2019-07-12_104932:300,-0.301483,-0.029480000000000003,-0.391479,-0.003208,-0.005298,0.0019850000000000002,-41.369999,-16.5,-40.369999,2b
2019-07-12_104932:320,-0.301483,-0.026427999999999997,-0.391479,-0.002933,-0.005725,0.0025039999999999997,-41.369999,-16.5,-40.369999,2b
2019-07-12_104932:340,-0.303528,-0.028442000000000002,-0.391968,-0.002994,-0.005939,0.003572,-41.369999,-16.5,-41.18,2b
2019-07-12_104932:360,-0.304535,-0.031006,-0.390961,-0.002872,-0.0060609999999999995,0.00403,-41.369999,-16.5,-41.18,2b
2019-07-12_104932:380,-0.305542,-0.031006,-0.393005,-0.002475,-0.005756,0.003694,-41.369999,-16.5,-41.18,2b
2019-07-12_104932:400,-0.304016,-0.029968,-0.39502,-0.001865,-0.005695,0.0034189999999999997,-40.560001,-16.870001000000002,-41.18,2b
2019-07-12_104932:420,-0.306061,-0.026917,-0.393494,-0.001865,-0.005634,0.0029,-40.560001,-16.870001000000002,-41.18,2b
2019-07-12_104932:440,-0.308075,-0.023375999999999997,-0.390961,-0.002597,-0.005115,0.002839,-41.369999,-16.059998999999998,-40.869999,2b
2019-07-12_104932:460,-0.305542,-0.024902,-0.389954,-0.004459,-0.0045049999999999995,0.0029620000000000002,-41.369999,-16.059998999999998,-40.869999,2b
2019-07-12_104932:480,-0.29943800000000004,-0.026427999999999997,-0.389435,-0.005893,-0.004657,0.003358,-41.369999,-16.059998999999998,-40.869999,2b
2019-07-12_104932:500,-0.29995700000000003,-0.031494,-0.391479,-0.006504,-0.005725,0.003023,-40.560001,-15.0,-40.869999,2b
2019-07-12_104932:520,-0.302002,-0.03302,-0.393005,-0.006168,-0.006854000000000001,0.002382,-40.560001,-15.0,-40.869999,2b
2019-07-12_104932:540,-0.301483,-0.031494,-0.393494,-0.005039,-0.007678,0.002107,-41.68,-16.5,-42.0,2b
2019-07-12_104932:560,-0.303528,-0.028961,-0.394012,-0.004062,-0.007678,0.00229,-41.68,-16.5,-42.0,2b
2019-07-12_104932:580,-0.305054,-0.025908999999999998,-0.395538,-0.003544,-0.007404000000000001,0.0029,-41.68,-16.5,-42.0,2b
2019-07-12_104932:600,-0.305054,-0.022858,-0.396057,-0.0037270000000000003,-0.006670999999999999,0.003511,-41.369999,-16.870001000000002,-41.18,2b
2019-07-12_104932:620,-0.30300900000000003,-0.022858,-0.393005,-0.004398,-0.006275,0.003908,-41.369999,-16.870001000000002,-41.18,2b
2019-07-12_104932:640,-0.30654899999999996,-0.023895,-0.396057,-0.004978,-0.006092,0.004335,-41.369999,-17.18,-41.18,2b
2019-07-12_104932:660,-0.304016,-0.025908999999999998,-0.39502,-0.005344,-0.0061530000000000005,0.004609,-41.369999,-17.18,-41.18,2b
2019-07-12_104932:680,-0.304535,-0.029480000000000003,-0.39502,-0.005222,-0.006397,0.004548,-41.369999,-17.18,-41.18,2b
2019-07-12_104932:700,-0.307068,-0.027954000000000003,-0.396057,-0.005039,-0.006397,0.004854,-42.060001,-16.5,-41.18,2b
2019-07-12_104932:720,-0.29995700000000003,-0.029480000000000003,-0.395538,-0.004886,-0.006275,0.005128,-42.060001,-16.5,-41.18,2b
2019-07-12_104932:740,-0.304016,-0.031006,-0.396545,-0.005039,-0.006670999999999999,0.004182,-41.0,-16.870001000000002,-41.68,2b
2019-07-12_104932:760,-0.301483,-0.028961,-0.396057,-0.005222,-0.006548999999999999,0.0038159999999999995,-41.0,-16.870001000000002,-41.68,2b
2019-07-12_104932:780,-0.303528,-0.03302,-0.398071,-0.004947,-0.006548999999999999,0.004457,-41.0,-16.870001000000002,-41.68,2b
2019-07-12_104932:800,-0.30654899999999996,-0.034058,-0.399109,-0.004581,-0.005817,0.003908,-42.060001,-16.870001000000002,-42.369999,2b
2019-07-12_104932:820,-0.30249000000000004,-0.031006,-0.396545,-0.004123,-0.005573,0.002839,-42.060001,-16.870001000000002,-42.369999,2b
2019-07-12_104932:840,-0.30249000000000004,-0.026917,-0.39502,-0.0036659999999999996,-0.004993,0.002565,-41.369999,-16.5,-41.18,2b
2019-07-12_104932:860,-0.300964,-0.023375999999999997,-0.395538,-0.003544,-0.005115,0.002443,-41.369999,-16.5,-41.18,2b
2019-07-12_104932:880,-0.302002,-0.022369,-0.395538,-0.0042450000000000005,-0.005298,0.0027170000000000002,-41.369999,-16.5,-41.18,2b
2019-07-12_104932:900,-0.29943800000000004,-0.023895,-0.39502,-0.005039,-0.0055119999999999995,0.003572,-41.369999,-16.5,-41.18,2b
2019-07-12_104932:920,-0.301483,-0.028442000000000002,-0.395538,-0.005436,-0.005939,0.003908,-41.369999,-16.5,-41.18,2b
2019-07-12_104932:940,-0.307068,-0.028442000000000002,-0.398071,-0.0051,-0.006488,0.003511,-41.68,-16.5,-40.0,2b
2019-07-12_104932:960,-0.31369,-0.025908999999999998,-0.393494,-0.004337,-0.005939,0.003511,-41.68,-16.5,-40.0,2b
2019-07-12_104932:980,-0.302002,-0.023375999999999997,-0.393005,-0.0036659999999999996,-0.004596,0.004548,-41.68,-16.5,-40.0,2b
2019-07-12_104933:000,-0.30249000000000004,-0.024384,-0.389954,-0.003788,-0.003986,0.005189,-40.560001,-16.5,-40.5,2b
2019-07-12_104933:020,-0.300964,-0.023895,-0.392487,-0.004337,-0.00426,0.004396,-40.560001,-16.5,-40.5,2b
2019-07-12_104933:040,-0.30300900000000003,-0.023895,-0.391479,-0.005039,-0.00484,0.004335,-40.560001,-16.870001000000002,-40.869999,2b
2019-07-12_104933:060,-0.30300900000000003,-0.028442000000000002,-0.393005,-0.005893,-0.00539,0.005342,-40.560001,-16.870001000000002,-40.869999,2b
2019-07-12_104933:080,-0.304535,-0.030487,-0.39502,-0.0061070000000000004,-0.005817,0.005525,-40.560001,-16.870001000000002,-40.869999,2b
2019-07-12_104933:100,-0.306061,-0.031494,-0.393494,-0.005679999999999999,-0.005939,0.004915,-41.0,-16.5,-42.0,2b
2019-07-12_104933:120,-0.304535,-0.032532,-0.39502,-0.004978,-0.006,0.004335,-41.0,-16.5,-42.0,2b
2019-07-12_104933:140,-0.304535,-0.028961,-0.39502,-0.004612,-0.005573,0.0039689999999999994,-40.18,-16.5,-42.0,2b
2019-07-12_104933:160,-0.304016,-0.025421,-0.394012,-0.004337,-0.005298,0.00403,-40.18,-16.5,-42.0,2b
