timestamp,AccX,AccY,AccZ,GyroX,GyroY,GyroZ,MagX,MagY,MagZ,Activity
2019-07-12_112521:440,-0.296387,-0.021332,-0.391479,-0.006076,-0.002307,0.0067150000000000005,-37.560001,10.87,-22.5,3b
2019-07-12_112521:460,-0.293854,-0.021332,-0.393494,-0.0064730000000000005,-0.002582,0.007722,-38.25,10.87,-23.25,3b
2019-07-12_112521:480,-0.29284699999999997,-0.023375999999999997,-0.391968,-0.0067480000000000005,-0.003436,0.0076,-38.25,10.87,-23.25,3b
2019-07-12_112521:500,-0.295898,-0.024384,-0.393005,-0.007206000000000001,-0.003833,0.007051000000000001,-38.25,10.87,-23.25,3b
2019-07-12_112521:520,-0.300964,-0.026427999999999997,-0.393494,-0.007206000000000001,-0.003833,0.007051000000000001,-38.25,11.18,-22.5,3b
2019-07-12_112521:540,-0.304016,-0.028442000000000002,-0.392487,-0.00687,-0.003467,0.006654,-38.25,11.18,-22.5,3b
2019-07-12_112521:560,-0.309113,-0.028961,-0.394012,-0.006229,-0.0032530000000000002,0.005922,-38.560001,11.18,-22.059998999999998,3b
2019-07-12_112521:580,-0.308594,-0.028442000000000002,-0.393005,-0.0060149999999999995,-0.002735,0.005311,-38.560001,11.18,-22.059998999999998,3b
2019-07-12_112521:600,-0.306061,-0.026917,-0.391968,-0.005436,-0.0023989999999999997,0.00525,-38.560001,11.18,-22.059998999999998,3b
2019-07-12_112521:620,-0.309601,-0.026427999999999997,-0.393005,-0.004886,-0.002582,0.004793,-37.560001,11.18,-23.18,3b
2019-07-12_112521:640,-0.310638,-0.023375999999999997,-0.390961,-0.004703,-0.002338,0.00403,-37.560001,11.18,-23.18,3b
2019-07-12_112521:660,-0.312164,-0.021332,-0.391479,-0.004642,-0.0020629999999999997,0.0038159999999999995,-37.560001,11.87,-22.0,3b
2019-07-12_112521:680,-0.314178,-0.020844,-0.388916,-0.004612,-0.002124,0.004152,-37.560001,11.87,-22.0,3b
2019-07-12_112521:700,-0.316223,-0.021332,-0.386902,-0.004886,-0.0017280000000000002,0.004182,-37.560001,11.87,-22.0,3b
2019-07-12_112521:720,-0.315704,-0.019318000000000002,-0.385376,-0.004978,-0.0014529999999999999,0.0038159999999999995,-38.0,11.87,-22.5,3b
2019-07-12_112521:740,-0.31369,-0.020325,-0.382812,-0.005222,-0.0015140000000000002,0.004671,-38.0,11.87,-22.5,3b
2019-07-12_112521:760,-0.315216,-0.020325,-0.382324,-0.005497,-0.001392,0.005128,-38.0,11.87,-22.0,3b
2019-07-12_112521:780,-0.309113,-0.022858,-0.379791,-0.005436,-0.001392,0.004091,-38.0,11.87,-22.0,3b
2019-07-12_112521:800,-0.309113,-0.021332,-0.379791,-0.0052829999999999995,-0.002246,0.0039689999999999994,-38.0,11.87,-22.0,3b
2019-07-12_112521:820,-0.308075,-0.025421,-0.381805,-0.004612,-0.003375,0.005311,-38.0,10.87,-22.0,3b
2019-07-12_112521:840,-0.308594,-0.023895,-0.378754,-0.00394,-0.004229999999999999,0.005678,-38.0,10.87,-22.0,3b
2019-07-12_112521:860,-0.309601,-0.020844,-0.379791,-0.003788,-0.0052369999999999995,0.005067,-39.0,11.18,-21.25,3b
2019-07-12_112521:880,-0.307068,-0.020844,-0.379791,-0.00394,-0.005817,0.004671,-39.0,11.18,-21.25,3b
2019-07-12_112521:900,-0.31012,-0.019806,-0.382812,-0.004459,-0.007006999999999999,0.004152,-39.0,11.18,-21.25,3b
2019-07-12_112521:920,-0.310638,-0.018799,-0.380798,-0.004825,-0.007526000000000001,0.003175,-38.0,12.25,-22.0,3b
2019-07-12_112521:940,-0.308594,-0.019318000000000002,-0.382324,-0.005344,-0.007862000000000001,0.0032359999999999997,-38.0,12.25,-22.0,3b
2019-07-12_112521:960,-0.312653,-0.019318000000000002,-0.385376,-0.005375,-0.008075,0.004152,-38.560001,11.87,-22.059998999999998,3b
2019-07-12_112521:980,-0.31723,-0.019318000000000002,-0.38385,-0.005497,-0.007984,0.004671,-38.560001,11.87,-22.059998999999998,3b
2019-07-12_112522:000,-0.317749,-0.017792,-0.386383,-0.005619,-0.007281999999999999,0.004671,-38.560001,11.87,-22.059998999999998,3b
2019-07-12_112522:020,-0.31012,-0.015747,-0.38385,-0.0060149999999999995,-0.006670999999999999,0.004152,-38.25,11.56,-20.870001000000002,3b
2019-07-12_112522:040,-0.308075,-0.016753999999999998,-0.385376,-0.006626000000000001,-0.0070680000000000005,0.003511,-38.25,11.56,-20.870001000000002,3b
2019-07-12_112522:060,-0.305054,-0.017792,-0.385376,-0.007541,-0.007465,0.003633,-38.25,11.18,-22.0,3b
2019-07-12_112522:080,-0.304535,-0.016753999999999998,-0.384857,-0.008152,-0.008319,0.004915,-38.25,11.18,-22.0,3b
2019-07-12_112522:100,-0.309601,-0.021851,-0.387909,-0.008395999999999999,-0.008716,0.005006,-38.25,11.18,-22.0,3b
2019-07-12_112522:120,-0.311646,-0.020844,-0.388428,-0.00867,-0.008869,0.004091,-38.0,11.18,-22.0,3b
2019-07-12_112522:140,-0.307587,-0.020844,-0.389954,-0.008029999999999999,-0.008594,0.005128,-38.0,11.18,-22.0,3b
2019-07-12_112522:160,-0.304535,-0.021332,-0.390442,-0.007541,-0.008808,0.006135,-38.0,11.18,-22.0,3b
2019-07-12_112522:180,-0.30300900000000003,-0.019318000000000002,-0.391479,-0.007084,-0.009113,0.006379,-38.0,11.18,-22.0,3b
2019-07-12_112522:200,-0.30654899999999996,-0.017792,-0.392487,-0.006504,-0.009143,0.007265000000000001,-38.0,11.18,-22.0,3b
2019-07-12_112522:220,-0.309113,-0.019806,-0.393494,-0.006076,-0.009143,0.00818,-37.560001,11.87,-22.870001000000002,3b
2019-07-12_112522:240,-0.30654899999999996,-0.019806,-0.391968,-0.00629,-0.008869,0.008119,-37.560001,11.87,-22.870001000000002,3b
2019-07-12_112522:260,-0.304535,-0.01828,-0.394012,-0.006504,-0.008594,0.007965999999999999,-38.560001,11.56,-22.870001000000002,3b
2019-07-12_112522:280,-0.301483,-0.019318000000000002,-0.393005,-0.006809,-0.008197,0.007905,-38.560001,11.56,-22.870001000000002,3b
2019-07-12_112522:300,-0.300476,-0.018799,-0.397064,-0.007358,-0.008258,0.007844,-38.560001,11.56,-22.870001000000002,3b
2019-07-12_112522:320,-0.300964,-0.021332,-0.397583,-0.00748,-0.008411,0.007722,-38.0,11.87,-23.68,3b
2019-07-12_112522:340,-0.305054,-0.022858,-0.397064,-0.007206000000000001,-0.008014,0.007661,-38.0,11.87,-23.68,3b
2019-07-12_112522:360,-0.305054,-0.022369,-0.397583,-0.0069,-0.007220999999999999,0.007722,-37.560001,12.25,-22.870001000000002,3b
2019-07-12_112522:380,-0.305054,-0.023375999999999997,-0.398071,-0.0064730000000000005,-0.006336,0.007722,-37.560001,12.25,-22.870001000000002,3b
2019-07-12_112522:400,-0.304016,-0.023375999999999997,-0.399109,-0.005954,-0.0055119999999999995,0.007722,-37.560001,12.25,-22.870001000000002,3b
2019-07-12_112522:420,-0.303528,-0.021851,-0.39859,-0.005679999999999999,-0.004779,0.007722,-37.560001,12.25,-23.18,3b
2019-07-12_112522:440,-0.30249000000000004,-0.022858,-0.397583,-0.005619,-0.004229999999999999,0.007844,-37.560001,12.25,-23.18,3b
2019-07-12_112522:460,-0.30249000000000004,-0.023375999999999997,-0.396545,-0.005619,-0.0038640000000000002,0.007783,-37.560001,11.56,-23.25,3b
2019-07-12_112522:480,-0.29943800000000004,-0.023375999999999997,-0.394531,-0.005771,-0.003467,0.007661,-37.560001,11.56,-23.25,3b
2019-07-12_112522:500,-0.296906,-0.023895,-0.395538,-0.005771,-0.00365,0.007387,-37.560001,11.56,-23.25,3b
2019-07-12_112522:520,-0.29742399999999997,-0.024902,-0.394012,-0.005679999999999999,-0.004047,0.00757,-37.18,12.25,-22.870001000000002,3b
2019-07-12_112522:540,-0.29742399999999997,-0.025421,-0.393494,-0.005771,-0.004383,0.007661,-37.18,12.25,-22.870001000000002,3b
2019-07-12_112522:560,-0.30300900000000003,-0.026917,-0.394012,-0.005497,-0.004901,0.007722,-37.18,12.68,-22.0,3b
2019-07-12_112522:580,-0.304535,-0.026917,-0.392487,-0.005497,-0.004596,0.008241,-37.18,12.68,-22.0,3b
2019-07-12_112522:600,-0.30300900000000003,-0.026917,-0.393494,-0.005344,-0.004321,0.008119,-37.18,12.68,-22.0,3b
2019-07-12_112522:620,-0.29995700000000003,-0.026427999999999997,-0.394012,-0.005558,-0.004047,0.007203,-38.0,12.25,-23.18,3b
2019-07-12_112522:640,-0.298431,-0.027435,-0.395538,-0.005679999999999999,-0.004383,0.005983,-38.0,12.25,-23.18,3b
2019-07-12_112522:660,-0.300964,-0.026427999999999997,-0.39502,-0.005436,-0.004961999999999999,0.006044,-36.75,11.56,-22.870001000000002,3b
2019-07-12_112522:680,-0.29895,-0.027954000000000003,-0.393005,-0.005222,-0.004961999999999999,0.006441,-36.75,11.56,-22.870001000000002,3b
2019-07-12_112522:700,-0.300476,-0.024902,-0.394012,-0.004642,-0.004779,0.006654,-36.75,11.56,-22.870001000000002,3b
2019-07-12_112522:720,-0.29943800000000004,-0.024902,-0.394531,-0.004825,-0.004993,0.0067150000000000005,-37.560001,12.25,-23.25,3b
2019-07-12_112522:740,-0.29895,-0.025908999999999998,-0.391479,-0.004703,-0.004961999999999999,0.0067150000000000005,-37.560001,12.25,-23.25,3b
2019-07-12_112522:760,-0.29943800000000004,-0.027954000000000003,-0.393494,-0.004764,-0.005176,0.006654,-37.560001,11.87,-23.25,3b
2019-07-12_112522:780,-0.29995700000000003,-0.027954000000000003,-0.393005,-0.004520000000000001,-0.004961999999999999,0.0067150000000000005,-37.560001,11.87,-23.25,3b
2019-07-12_112522:800,-0.300476,-0.027435,-0.394012,-0.004520000000000001,-0.004961999999999999,0.006776000000000001,-37.560001,11.87,-23.25,3b
2019-07-12_112522:820,-0.30249000000000004,-0.027954000000000003,-0.39502,-0.004581,-0.004901,0.006929,-37.560001,13.06,-22.870001000000002,3b
2019-07-12_112522:840,-0.30300900000000003,-0.026917,-0.394012,-0.004612,-0.004961999999999999,0.0071730000000000006,-37.560001,13.06,-22.870001000000002,3b
2019-07-12_112522:860,-0.300964,-0.024902,-0.39502,-0.004978,-0.004718,0.0076,-38.0,12.25,-22.5,3b
2019-07-12_112522:880,-0.30249000000000004,-0.027435,-0.396057,-0.0051,-0.004566,0.007661,-38.0,12.25,-22.5,3b
2019-07-12_112522:900,-0.304535,-0.027435,-0.39502,-0.005558,-0.004169,0.007722,-38.0,12.25,-22.5,3b
2019-07-12_112522:920,-0.304016,-0.029480000000000003,-0.396545,-0.005558,-0.003589,0.008241,-37.18,12.25,-22.5,3b
2019-07-12_112522:940,-0.303528,-0.028442000000000002,-0.39502,-0.005497,-0.003314,0.008577,-37.18,12.25,-22.5,3b
2019-07-12_112522:960,-0.30300900000000003,-0.028961,-0.394531,-0.005619,-0.002796,0.00818,-37.18,12.25,-22.5,3b
2019-07-12_112522:980,-0.305054,-0.029480000000000003,-0.393494,-0.005497,-0.002582,0.007997,-37.18,12.25,-22.5,3b
2019-07-12_112523:000,-0.309601,-0.031006,-0.393005,-0.005375,-0.001941,0.007965999999999999,-37.18,12.25,-22.5,3b
2019-07-12_112523:020,-0.309601,-0.032013,-0.393005,-0.005344,-0.001575,0.007722,-37.560001,13.37,-22.870001000000002,3b
2019-07-12_112523:040,-0.308075,-0.032013,-0.388916,-0.004947,-0.001575,0.007661,-37.560001,13.37,-22.870001000000002,3b
2019-07-12_112523:060,-0.307068,-0.032532,-0.386902,-0.004398,-0.0017280000000000002,0.007509,-38.0,12.68,-22.0,3b
2019-07-12_112523:080,-0.305054,-0.031494,-0.385864,-0.004123,-0.0021850000000000003,0.007203,-38.0,12.68,-22.0,3b
2019-07-12_112523:100,-0.304016,-0.029968,-0.384857,-0.004184,-0.0030399999999999997,0.007051000000000001,-38.0,12.68,-22.0,3b
2019-07-12_112523:120,-0.305542,-0.031494,-0.385376,-0.004062,-0.0035280000000000003,0.006837,-36.5,13.75,-20.870001000000002,3b
2019-07-12_112523:140,-0.306061,-0.031494,-0.382324,-0.004123,-0.0037719999999999997,0.005922,-36.5,13.75,-20.870001000000002,3b
2019-07-12_112523:160,-0.305054,-0.031494,-0.382812,-0.00394,-0.004047,0.005525,-38.0,12.68,-22.870001000000002,3b
2019-07-12_112523:180,-0.303528,-0.032013,-0.38385,-0.004001,-0.004596,0.0058,-38.0,12.68,-22.870001000000002,3b
2019-07-12_112523:200,-0.304016,-0.034058,-0.384338,-0.0037270000000000003,-0.005115,0.005739,-38.0,12.68,-22.870001000000002,3b
2019-07-12_112523:220,-0.307587,-0.035583,-0.384857,-0.003208,-0.005634,0.00525,-37.18,13.06,-22.0,3b
2019-07-12_112523:240,-0.311646,-0.036591000000000005,-0.385376,-0.00275,-0.005359,0.004854,-37.18,13.06,-22.0,3b
2019-07-12_112523:260,-0.318268,-0.035583,-0.386383,-0.002079,-0.004961999999999999,0.004671,-36.75,12.68,-22.0,3b
2019-07-12_112523:280,-0.31723,-0.036072,-0.385864,-0.001865,-0.003986,0.004854,-36.75,12.68,-22.0,3b
2019-07-12_112523:300,-0.314697,-0.034546,-0.385376,-0.0016820000000000001,-0.0037719999999999997,0.005311,-36.75,12.68,-22.0,3b
2019-07-12_112523:320,-0.315704,-0.035065,-0.386383,-0.0018039999999999998,-0.0038640000000000002,0.005739,-36.75,13.75,-22.870001000000002,3b
2019-07-12_112523:340,-0.315704,-0.035065,-0.384857,-0.001957,-0.0038640000000000002,0.004854,-36.75,13.75,-22.870001000000002,3b
2019-07-12_112523:360,-0.314178,-0.034546,-0.38385,-0.001957,-0.0035280000000000003,0.004396,-38.25,13.75,-22.0,3b
2019-07-12_112523:380,-0.311127,-0.033539,-0.384338,-0.002872,-0.00426,0.004335,-38.25,13.75,-22.0,3b
2019-07-12_112523:400,-0.30654899999999996,-0.034058,-0.38385,-0.003452,-0.004657,0.005128,-38.25,13.75,-22.0,3b
2019-07-12_112523:420,-0.315216,-0.038116000000000004,-0.382324,-0.003849,-0.005878,0.004793,-37.18,13.37,-20.870001000000002,3b
2019-07-12_112523:440,-0.314178,-0.037598,-0.38028,-0.00394,-0.005756,0.004274,-37.18,13.37,-20.870001000000002,3b
2019-07-12_112523:460,-0.314178,-0.040649,-0.378754,-0.004001,-0.005298,0.00403,-38.0,13.75,-22.5,3b
2019-07-12_112523:480,-0.308075,-0.041687,-0.379272,-0.003788,-0.005725,0.003297,-38.0,13.75,-22.5,3b
2019-07-12_112523:500,-0.301483,-0.040649,-0.380798,-0.003452,-0.00719,0.0019850000000000002,-38.0,13.75,-22.5,3b
2019-07-12_112523:520,-0.307068,-0.038635,-0.383331,-0.003147,-0.007923000000000001,0.0017100000000000001,-38.0,13.37,-22.0,3b
2019-07-12_112523:540,-0.317749,-0.039124,-0.382324,-0.002323,-0.008197,0.002687,-38.0,13.37,-22.0,3b
2019-07-12_112523:560,-0.323334,-0.036591000000000005,-0.383331,-0.002018,-0.007984,0.0029,-37.18,13.06,-21.25,3b
2019-07-12_112523:580,-0.315704,-0.032013,-0.381317,-0.002353,-0.006275,0.003114,-37.18,13.06,-21.25,3b
2019-07-12_112523:600,-0.307587,-0.030487,-0.381317,-0.003116,-0.006336,0.004457,-37.18,13.06,-21.25,3b
2019-07-12_112523:620,-0.302002,-0.033539,-0.385376,-0.00394,-0.00719,0.005464,-37.560001,13.75,-22.5,3b
2019-07-12_112523:640,-0.302002,-0.034546,-0.386902,-0.004703,-0.007984,0.005311,-37.560001,13.75,-22.5,3b
2019-07-12_112523:660,-0.308075,-0.038116000000000004,-0.386383,-0.005344,-0.008594,0.005861,-37.560001,13.37,-22.870001000000002,3b
2019-07-12_112523:680,-0.310638,-0.039642000000000004,-0.389954,-0.0052829999999999995,-0.008411,0.006470999999999999,-37.560001,13.37,-22.870001000000002,3b
2019-07-12_112523:700,-0.312164,-0.043701,-0.387909,-0.004947,-0.007739,0.006074,-37.560001,13.37,-22.870001000000002,3b
2019-07-12_112523:720,-0.312164,-0.045745999999999995,-0.388428,-0.004825,-0.007465,0.005464,-37.18,13.37,-21.25,3b
2019-07-12_112523:740,-0.307068,-0.043213,-0.388916,-0.004275999999999999,-0.00719,0.004213000000000001,-37.18,13.37,-21.25,3b
2019-07-12_112523:760,-0.309113,-0.044219999999999995,-0.389435,-0.00394,-0.006945999999999999,0.004396,-37.18,13.75,-22.0,3b
2019-07-12_112523:780,-0.307068,-0.043701,-0.388916,-0.003055,-0.006548999999999999,0.004548,-37.18,13.75,-22.0,3b
2019-07-12_112523:800,-0.312653,-0.043213,-0.388428,-0.003147,-0.006548999999999999,0.0037549999999999997,-37.18,13.75,-22.0,3b
2019-07-12_112523:820,-0.312653,-0.042694,-0.387909,-0.003147,-0.006548999999999999,0.003633,-36.75,14.18,-22.5,3b
2019-07-12_112523:840,-0.311127,-0.043701,-0.385376,-0.0033909999999999995,-0.005878,0.002778,-36.75,14.18,-22.5,3b
2019-07-12_112523:860,-0.30300900000000003,-0.043701,-0.385376,-0.0033299999999999996,-0.006092,0.002687,-37.560001,13.75,-22.0,3b
2019-07-12_112523:880,-0.29995700000000003,-0.044739,-0.385864,-0.002933,-0.00719,0.002443,-37.560001,13.75,-22.0,3b
2019-07-12_112523:900,-0.30300900000000003,-0.045226999999999996,-0.386902,-0.0027199999999999998,-0.008136,0.001924,-37.560001,13.75,-22.0,3b
2019-07-12_112523:920,-0.305542,-0.043213,-0.38739,-0.002475,-0.008319,0.001588,-37.560001,14.18,-22.0,3b
2019-07-12_112523:940,-0.309113,-0.039642000000000004,-0.387909,-0.002353,-0.008014,0.001771,-37.560001,14.18,-22.0,3b
2019-07-12_112523:960,-0.307587,-0.039642000000000004,-0.388916,-0.002414,-0.007801000000000001,0.001924,-37.18,14.56,-22.0,3b
2019-07-12_112523:980,-0.304535,-0.039124,-0.388916,-0.002872,-0.007678,0.0016489999999999999,-37.18,14.56,-22.0,3b
2019-07-12_112524:000,-0.305542,-0.037598,-0.389435,-0.003147,-0.007862000000000001,0.001588,-37.18,14.56,-22.0,3b
2019-07-12_112524:020,-0.305054,-0.039124,-0.390961,-0.0032689999999999998,-0.007739,0.0016489999999999999,-37.560001,13.75,-22.0,3b
2019-07-12_112524:040,-0.303528,-0.036591000000000005,-0.389954,-0.003788,-0.007678,0.002687,-37.560001,13.75,-22.0,3b
2019-07-12_112524:060,-0.29995700000000003,-0.040649,-0.391479,-0.004123,-0.0076170000000000005,0.003297,-37.18,14.56,-21.68,3b
2019-07-12_112524:080,-0.29895,-0.043701,-0.391968,-0.004001,-0.008411,0.0037549999999999997,-37.18,14.56,-21.68,3b
2019-07-12_112524:100,-0.301483,-0.044739,-0.393494,-0.0037270000000000003,-0.008716,0.003175,-37.18,14.56,-21.68,3b
2019-07-12_112524:120,-0.306061,-0.043701,-0.396057,-0.003055,-0.008411,0.003358,-37.18,13.37,-22.870001000000002,3b
2019-07-12_112524:140,-0.30654899999999996,-0.044739,-0.393494,-0.002659,-0.007862000000000001,0.003633,-37.18,13.37,-22.870001000000002,3b
2019-07-12_112524:160,-0.30300900000000003,-0.045226999999999996,-0.394012,-0.002536,-0.007526000000000001,0.0038469999999999997,-37.18,13.75,-21.25,3b
2019-07-12_112524:180,-0.29943800000000004,-0.046265,-0.394012,-0.002597,-0.006731999999999999,0.003023,-37.18,13.75,-21.25,3b
2019-07-12_112524:200,-0.296906,-0.045226999999999996,-0.394012,-0.002475,-0.006854000000000001,0.0029,-37.18,13.75,-21.25,3b
2019-07-12_112524:220,-0.29742399999999997,-0.046752999999999996,-0.393494,-0.00214,-0.007404000000000001,0.002443,-37.18,13.75,-22.5,3b
2019-07-12_112524:240,-0.305054,-0.043701,-0.391479,-0.0022010000000000003,-0.007006999999999999,0.001314,-37.18,13.75,-22.5,3b
2019-07-12_112524:260,-0.29943800000000004,-0.042175,-0.391479,-0.0019260000000000002,-0.006731999999999999,0.001832,-36.5,13.37,-22.5,3b
2019-07-12_112524:280,-0.297913,-0.043213,-0.393494,-0.002536,-0.007129000000000001,0.002168,-36.5,13.37,-22.5,3b
2019-07-12_112524:300,-0.293854,-0.043213,-0.391968,-0.003055,-0.007862000000000001,0.001375,-36.5,13.37,-22.5,3b
2019-07-12_112524:320,-0.297913,-0.043701,-0.394531,-0.003055,-0.00838,0.001253,-36.75,13.75,-23.25,3b
2019-07-12_112524:340,-0.301483,-0.045745999999999995,-0.393494,-0.002323,-0.008014,0.0027170000000000002,-36.75,13.75,-23.25,3b
2019-07-12_112524:360,-0.301483,-0.046265,-0.39502,-0.002323,-0.007739,0.003053,-36.75,13.75,-23.25,3b
2019-07-12_112524:380,-0.30249000000000004,-0.045226999999999996,-0.396545,-0.002018,-0.0070680000000000005,0.003511,-37.18,13.75,-22.5,3b
2019-07-12_112524:400,-0.29486100000000004,-0.043701,-0.394531,-0.002262,-0.0066099999999999996,0.0034189999999999997,-37.18,13.75,-22.5,3b
2019-07-12_112524:420,-0.294373,-0.044739,-0.397064,-0.002414,-0.0066099999999999996,0.0032359999999999997,-36.5,14.18,-23.68,3b
2019-07-12_112524:440,-0.29742399999999997,-0.044739,-0.397064,-0.0033299999999999996,-0.006214,0.003572,-36.5,14.18,-23.68,3b
2019-07-12_112524:460,-0.29538000000000003,-0.046265,-0.397583,-0.003788,-0.0060609999999999995,0.0037549999999999997,-37.18,13.75,-22.059998999999998,3b
2019-07-12_112524:480,-0.296906,-0.048798,-0.399109,-0.003879,-0.005695,0.003633,-37.18,13.75,-22.059998999999998,3b
2019-07-12_112524:500,-0.295898,-0.047791,-0.396545,-0.003788,-0.005573,0.004182,-37.18,13.75,-22.059998999999998,3b
2019-07-12_112524:520,-0.29895,-0.049316000000000006,-0.396545,-0.003452,-0.005054,0.004457,-36.5,14.18,-22.5,3b
2019-07-12_112524:540,-0.297913,-0.049316000000000006,-0.396545,-0.0036659999999999996,-0.00484,0.0027170000000000002,-36.5,14.18,-22.5,3b
2019-07-12_112524:560,-0.29995700000000003,-0.047272,-0.397583,-0.0037270000000000003,-0.004657,0.002687,-36.5,14.18,-22.5,3b
2019-07-12_112524:580,-0.298431,-0.046265,-0.39502,-0.003849,-0.004321,0.0038159999999999995,-37.18,13.37,-22.870001000000002,3b
2019-07-12_112524:600,-0.300964,-0.046265,-0.394531,-0.004001,-0.004169,0.003908,-37.18,13.37,-22.870001000000002,3b
2019-07-12_112524:620,-0.301483,-0.046752999999999996,-0.393494,-0.004459,-0.0037719999999999997,0.00345,-36.75,13.75,-22.5,3b
2019-07-12_112524:640,-0.29995700000000003,-0.046752999999999996,-0.388916,-0.004581,-0.00365,0.003572,-36.75,13.75,-22.5,3b
2019-07-12_112524:660,-0.298431,-0.047791,-0.390442,-0.004764,-0.003925,0.00345,-37.560001,13.06,-22.5,3b
2019-07-12_112524:680,-0.29538000000000003,-0.046265,-0.389954,-0.004764,-0.00426,0.003175,-37.560001,13.06,-22.5,3b
2019-07-12_112524:700,-0.296387,-0.045745999999999995,-0.389435,-0.004886,-0.005176,0.0037549999999999997,-37.560001,13.06,-22.5,3b
2019-07-12_112524:720,-0.29538000000000003,-0.046752999999999996,-0.390961,-0.004825,-0.005573,0.0038159999999999995,-37.18,13.37,-22.870001000000002,3b
2019-07-12_112524:740,-0.296906,-0.046265,-0.390961,-0.005039,-0.006275,0.00345,-37.18,13.37,-22.870001000000002,3b
2019-07-12_112524:760,-0.29943800000000004,-0.046265,-0.392487,-0.005039,-0.006670999999999999,0.003297,-37.18,13.37,-22.870001000000002,3b
2019-07-12_112524:780,-0.301483,-0.046752999999999996,-0.393494,-0.005222,-0.006793,0.0034189999999999997,-37.18,13.37,-22.870001000000002,3b
2019-07-12_112524:800,-0.301483,-0.044739,-0.391968,-0.005222,-0.006548999999999999,0.003297,-37.18,13.37,-22.870001000000002,3b
2019-07-12_112524:820,-0.300964,-0.045226999999999996,-0.394531,-0.0052829999999999995,-0.006397,0.0034189999999999997,-36.75,13.75,-23.18,3b
2019-07-12_112524:840,-0.298431,-0.046265,-0.393494,-0.0052829999999999995,-0.0061530000000000005,0.003511,-36.75,13.75,-23.18,3b
2019-07-12_112524:860,-0.300964,-0.045226999999999996,-0.394012,-0.004978,-0.005939,0.003633,-37.560001,13.37,-23.25,3b
2019-07-12_112524:880,-0.304016,-0.045226999999999996,-0.394531,-0.004825,-0.005725,0.0039689999999999994,-37.560001,13.37,-23.25,3b
2019-07-12_112524:900,-0.30300900000000003,-0.046265,-0.393494,-0.004642,-0.0055119999999999995,0.004213000000000001,-37.560001,13.37,-23.25,3b
2019-07-12_112524:920,-0.300476,-0.043213,-0.394012,-0.004703,-0.005359,0.004213000000000001,-37.560001,13.37,-22.0,3b
2019-07-12_112524:940,-0.29742399999999997,-0.044739,-0.390961,-0.004947,-0.0052369999999999995,0.004274,-37.560001,13.37,-22.0,3b
2019-07-12_112524:960,-0.298431,-0.046265,-0.392487,-0.004825,-0.005634,0.004152,-37.560001,13.75,-23.25,3b
2019-07-12_112524:980,-0.29943800000000004,-0.044739,-0.391968,-0.004612,-0.005634,0.003908,-37.560001,13.75,-23.25,3b
2019-07-12_112525:000,-0.29995700000000003,-0.044739,-0.390442,-0.004398,-0.005939,0.00403,-37.560001,13.75,-23.25,3b
2019-07-12_112525:020,-0.301483,-0.045226999999999996,-0.391479,-0.004337,-0.005939,0.004396,-37.18,12.68,-22.870001000000002,3b
2019-07-12_112525:040,-0.298431,-0.044219999999999995,-0.388428,-0.004123,-0.006214,0.004732,-37.18,12.68,-22.870001000000002,3b
2019-07-12_112525:060,-0.29995700000000003,-0.043213,-0.391479,-0.0042450000000000005,-0.006,0.004548,-37.18,13.37,-23.25,3b
2019-07-12_112525:080,-0.293854,-0.043213,-0.391479,-0.004703,-0.006548999999999999,0.0038159999999999995,-37.18,13.37,-23.25,3b
2019-07-12_112525:100,-0.29538000000000003,-0.043213,-0.394012,-0.004886,-0.007281999999999999,0.003633,-37.18,13.37,-23.25,3b
2019-07-12_112525:120,-0.29995700000000003,-0.046265,-0.395538,-0.004978,-0.007678,0.004548,-37.18,13.37,-22.5,3b
2019-07-12_112525:140,-0.300476,-0.047791,-0.39502,-0.004612,-0.007678,0.005403,-37.18,13.37,-22.5,3b
2019-07-12_112525:160,-0.302002,-0.046265,-0.397064,-0.004275999999999999,-0.007404000000000001,0.004945000000000001,-37.18,13.37,-22.5,3b
2019-07-12_112525:180,-0.29943800000000004,-0.043213,-0.397064,-0.004337,-0.006458,0.004548,-37.18,13.37,-24.5,3b
2019-07-12_112525:200,-0.29943800000000004,-0.042175,-0.39502,-0.004947,-0.006458,0.005067,-37.18,13.37,-24.5,3b
2019-07-12_112525:220,-0.298431,-0.041687,-0.396545,-0.005558,-0.005878,0.005525,-36.75,13.75,-22.5,3b
2019-07-12_112525:240,-0.295898,-0.043213,-0.394531,-0.00629,-0.006,0.005525,-36.75,13.75,-22.5,3b
2019-07-12_112525:260,-0.298431,-0.045226999999999996,-0.396545,-0.006626000000000001,-0.005756,0.005678,-36.75,13.75,-22.5,3b
2019-07-12_112525:280,-0.29995700000000003,-0.047272,-0.396057,-0.0064730000000000005,-0.005695,0.006196,-36.75,13.06,-22.0,3b
2019-07-12_112525:300,-0.298431,-0.046752999999999996,-0.394531,-0.0061070000000000004,-0.005451,0.006441,-36.75,13.06,-22.0,3b
2019-07-12_112525:320,-0.29742399999999997,-0.047791,-0.39502,-0.0060149999999999995,-0.005359,0.005678,-36.5,14.18,-24.0,3b
2019-07-12_112525:340,-0.295898,-0.046265,-0.394012,-0.005741,-0.005451,0.005311,-36.5,14.18,-24.0,3b
2019-07-12_112525:360,-0.29486100000000004,-0.046752999999999996,-0.397064,-0.005741,-0.005725,0.005342,-36.5,14.18,-24.0,3b
2019-07-12_112525:380,-0.295898,-0.046752999999999996,-0.39502,-0.005619,-0.005695,0.005342,-37.18,13.37,-23.25,3b
2019-07-12_112525:400,-0.29538000000000003,-0.046752999999999996,-0.394531,-0.005497,-0.006,0.004945000000000001,-37.18,13.37,-23.25,3b
2019-07-12_112525:420,-0.297913,-0.045226999999999996,-0.397064,-0.005558,-0.005939,0.004945000000000001,-36.75,13.75,-22.870001000000002,3b
2019-07-12_112525:440,-0.298431,-0.045226999999999996,-0.393494,-0.005497,-0.005878,0.004915,-36.75,13.75,-22.870001000000002,3b
2019-07-12_112525:460,-0.296387,-0.046265,-0.39502,-0.005619,-0.005725,0.004915,-37.18,13.37,-22.0,3b
2019-07-12_112525:480,-0.29742399999999997,-0.044739,-0.39502,-0.005497,-0.005817,0.005067,-37.18,13.37,-22.0,3b
2019-07-12_112525:500,-0.295898,-0.044739,-0.393494,-0.005558,-0.005817,0.005128,-37.18,13.37,-22.0,3b
2019-07-12_112525:520,-0.29486100000000004,-0.046752999999999996,-0.396057,-0.005741,-0.006,0.005128,-36.5,13.06,-23.18,3b
2019-07-12_112525:540,-0.295898,-0.046752999999999996,-0.394531,-0.005497,-0.005878,0.005189,-36.5,13.06,-23.18,3b
2019-07-12_112525:560,-0.296906,-0.046752999999999996,-0.394012,-0.0052829999999999995,-0.006275,0.005128,-36.5,13.06,-23.18,3b
2019-07-12_112525:580,-0.29742399999999997,-0.045745999999999995,-0.396545,-0.0052829999999999995,-0.006092,0.005128,-37.18,14.18,-22.870001000000002,3b
2019-07-12_112525:600,-0.29943800000000004,-0.045745999999999995,-0.39502,-0.005344,-0.006,0.004945000000000001,-37.18,14.18,-22.870001000000002,3b
2019-07-12_112525:620,-0.296906,-0.046752999999999996,-0.394531,-0.0052829999999999995,-0.005939,0.004793,-36.5,13.06,-22.5,3b
2019-07-12_112525:640,-0.29742399999999997,-0.046752999999999996,-0.393494,-0.005619,-0.005756,0.004732,-36.5,13.06,-22.5,3b
2019-07-12_112525:660,-0.296387,-0.046265,-0.395538,-0.005679999999999999,-0.0060609999999999995,0.004518,-37.560001,14.18,-22.870001000000002,3b
2019-07-12_112525:680,-0.296387,-0.047272,-0.396545,-0.005558,-0.0060609999999999995,0.004213000000000001,-37.560001,14.18,-22.870001000000002,3b
2019-07-12_112525:700,-0.298431,-0.045226999999999996,-0.395538,-0.005436,-0.0061530000000000005,0.004182,-37.560001,14.18,-22.870001000000002,3b
2019-07-12_112525:720,-0.296387,-0.044219999999999995,-0.39502,-0.005436,-0.006275,0.004152,-37.18,13.37,-23.25,3b
2019-07-12_112525:740,-0.297913,-0.045745999999999995,-0.394531,-0.005619,-0.006214,0.00403,-37.18,13.37,-23.25,3b
2019-07-12_112525:760,-0.298431,-0.043213,-0.397583,-0.005436,-0.006092,0.003908,-37.18,13.37,-23.25,3b
2019-07-12_112525:780,-0.296387,-0.041687,-0.398071,-0.005375,-0.005939,0.0039689999999999994,-36.5,13.37,-22.870001000000002,3b
2019-07-12_112525:800,-0.29538000000000003,-0.042694,-0.396545,-0.005497,-0.005725,0.004182,-36.5,13.37,-22.870001000000002,3b
2019-07-12_112525:820,-0.300964,-0.041687,-0.399109,-0.005619,-0.005573,0.004793,-36.060001,13.75,-23.25,3b
2019-07-12_112525:840,-0.296906,-0.042175,-0.396057,-0.0061070000000000004,-0.004993,0.00525,-36.060001,13.75,-23.25,3b
2019-07-12_112525:860,-0.296906,-0.042175,-0.39859,-0.0064730000000000005,-0.005115,0.005067,-36.060001,13.75,-23.25,3b
2019-07-12_112525:880,-0.294373,-0.041687,-0.397064,-0.007145,-0.004566,0.004182,-36.75,14.18,-23.18,3b
2019-07-12_112525:900,-0.293335,-0.041687,-0.397064,-0.007267,-0.005115,0.0039689999999999994,-36.75,14.18,-23.18,3b
2019-07-12_112525:920,-0.29232800000000003,-0.041687,-0.396545,-0.006962,-0.005176,0.004793,-36.75,13.75,-22.870001000000002,3b
2019-07-12_112525:940,-0.295898,-0.042175,-0.398071,-0.006809,-0.005359,0.005403,-36.75,13.75,-22.870001000000002,3b
2019-07-12_112525:960,-0.29486100000000004,-0.040649,-0.398071,-0.00629,-0.00484,0.005647,-36.75,13.75,-22.870001000000002,3b
2019-07-12_112525:980,-0.295898,-0.037598,-0.398071,-0.006168,-0.004718,0.005311,-37.18,13.37,-22.5,3b
2019-07-12_112526:000,-0.29180900000000004,-0.035583,-0.397064,-0.006687,-0.004383,0.005342,-37.18,13.37,-22.5,3b
2019-07-12_112526:020,-0.290283,-0.034058,-0.396057,-0.006962,-0.00484,0.005647,-36.5,13.37,-23.68,3b
2019-07-12_112526:040,-0.29284699999999997,-0.03302,-0.39859,-0.007601999999999999,-0.0052369999999999995,0.0058,-36.5,13.37,-23.68,3b
2019-07-12_112526:060,-0.293854,-0.035583,-0.397583,-0.007816,-0.005176,0.006135,-36.5,13.37,-23.68,3b
2019-07-12_112526:080,-0.29742399999999997,-0.036591000000000005,-0.397583,-0.008091,-0.005359,0.006837,-36.5,13.06,-22.870001000000002,3b
2019-07-12_112526:100,-0.29742399999999997,-0.038635,-0.398071,-0.008091,-0.004993,0.0071730000000000006,-36.5,13.06,-22.870001000000002,3b
2019-07-12_112526:120,-0.297913,-0.039642000000000004,-0.397064,-0.007999,-0.004596,0.006868000000000001,-36.5,12.68,-24.5,3b
2019-07-12_112526:140,-0.29742399999999997,-0.041168,-0.394531,-0.007816,-0.004566,0.006532,-36.5,12.68,-24.5,3b
2019-07-12_112526:160,-0.293854,-0.041687,-0.396057,-0.007267,-0.004444,0.006532,-36.5,12.68,-24.5,3b
2019-07-12_112526:180,-0.29284699999999997,-0.041687,-0.391968,-0.0067480000000000005,-0.0045049999999999995,0.0067150000000000005,-36.060001,13.75,-23.25,3b
2019-07-12_112526:200,-0.29284699999999997,-0.040161,-0.392487,-0.006351,-0.005176,0.005861,-36.060001,13.75,-23.25,3b
2019-07-12_112526:220,-0.29284699999999997,-0.036591000000000005,-0.394012,-0.0061070000000000004,-0.005725,0.00525,-36.5,13.75,-25.18,3b
2019-07-12_112526:240,-0.29538000000000003,-0.038116000000000004,-0.391968,-0.006412,-0.006275,0.004915,-36.5,13.75,-25.18,3b
2019-07-12_112526:260,-0.297913,-0.035583,-0.39502,-0.006504,-0.0066099999999999996,0.004396,-36.5,13.75,-25.18,3b
2019-07-12_112526:280,-0.29943800000000004,-0.035065,-0.396057,-0.0067480000000000005,-0.006488,0.004335,-37.18,13.37,-22.870001000000002,3b
2019-07-12_112526:300,-0.298431,-0.033539,-0.397064,-0.007267,-0.006488,0.004732,-37.18,13.37,-22.870001000000002,3b
2019-07-12_112526:320,-0.298431,-0.034058,-0.395538,-0.00748,-0.006670999999999999,0.005128,-36.060001,13.75,-22.5,3b
2019-07-12_112526:340,-0.295898,-0.034546,-0.396057,-0.007418999999999999,-0.006458,0.0058,-36.060001,13.75,-22.5,3b
2019-07-12_112526:360,-0.29538000000000003,-0.033539,-0.397064,-0.007297,-0.006458,0.005983,-36.060001,13.75,-22.5,3b
2019-07-12_112526:380,-0.293854,-0.035583,-0.39502,-0.007633,-0.006793,0.006135,-36.5,13.37,-23.25,3b
2019-07-12_112526:400,-0.29486100000000004,-0.035583,-0.395538,-0.007541,-0.0070680000000000005,0.006257,-36.5,13.37,-23.25,3b
2019-07-12_112526:420,-0.29486100000000004,-0.035065,-0.397583,-0.007267,-0.0070680000000000005,0.006044,-36.5,13.75,-23.68,3b
2019-07-12_112526:440,-0.29538000000000003,-0.036591000000000005,-0.394012,-0.007023000000000001,-0.006885,0.0058,-36.5,13.75,-23.68,3b
2019-07-12_112526:460,-0.293854,-0.036072,-0.397064,-0.006504,-0.006731999999999999,0.005922,-36.5,13.75,-23.68,3b
2019-07-12_112526:480,-0.29232800000000003,-0.037108999999999996,-0.398071,-0.006076,-0.006885,0.006044,-36.5,13.37,-23.68,3b
2019-07-12_112526:500,-0.29486100000000004,-0.036072,-0.399109,-0.005893,-0.007129000000000001,0.005983,-36.5,13.37,-23.68,3b
2019-07-12_112526:520,-0.293335,-0.037108999999999996,-0.399109,-0.005436,-0.007343000000000001,0.006044,-36.060001,13.75,-23.68,3b
2019-07-12_112526:540,-0.29538000000000003,-0.037598,-0.39859,-0.005436,-0.007526000000000001,0.005983,-36.060001,13.75,-23.68,3b
2019-07-12_112526:560,-0.294373,-0.037108999999999996,-0.40063499999999996,-0.0052829999999999995,-0.007526000000000001,0.005922,-36.060001,13.75,-23.68,3b
2019-07-12_112526:580,-0.294373,-0.039124,-0.402161,-0.0051,-0.007465,0.006044,-36.5,14.18,-23.25,3b
2019-07-12_112526:600,-0.293854,-0.037598,-0.40063499999999996,-0.004947,-0.007281999999999999,0.006318,-36.5,14.18,-23.25,3b
2019-07-12_112526:620,-0.293854,-0.039124,-0.40063499999999996,-0.004947,-0.006885,0.006837,-36.75,14.18,-24.870001000000002,3b
2019-07-12_112526:640,-0.296387,-0.038116000000000004,-0.399109,-0.005039,-0.006945999999999999,0.007112,-36.75,14.18,-24.870001000000002,3b
2019-07-12_112526:660,-0.29180900000000004,-0.038635,-0.39859,-0.005375,-0.006731999999999999,0.0076,-36.75,14.18,-24.870001000000002,3b
2019-07-12_112526:680,-0.293854,-0.037598,-0.401123,-0.005679999999999999,-0.006793,0.007387,-36.060001,13.75,-22.870001000000002,3b
2019-07-12_112526:700,-0.287231,-0.040161,-0.399597,-0.006351,-0.006548999999999999,0.006929,-36.060001,13.75,-22.870001000000002,3b
2019-07-12_112526:720,-0.287231,-0.041168,-0.401123,-0.0065650000000000005,-0.0070680000000000005,0.006470999999999999,-36.060001,14.18,-23.25,3b
2019-07-12_112526:740,-0.28979499999999997,-0.040649,-0.401642,-0.0065650000000000005,-0.007465,0.006837,-36.060001,14.18,-23.25,3b
2019-07-12_112526:760,-0.28875700000000004,-0.041168,-0.401123,-0.006351,-0.007404000000000001,0.007509,-36.060001,14.18,-23.25,3b
2019-07-12_112526:780,-0.29284699999999997,-0.042175,-0.40316799999999997,-0.006229,-0.007465,0.007965999999999999,-36.5,13.75,-23.68,3b
2019-07-12_112526:800,-0.28875700000000004,-0.042175,-0.40011599999999997,-0.006229,-0.006854000000000001,0.007265000000000001,-36.5,13.75,-23.68,3b
2019-07-12_112526:820,-0.28875700000000004,-0.042175,-0.401123,-0.006351,-0.006731999999999999,0.006837,-37.18,14.56,-24.870001000000002,3b
2019-07-12_112526:840,-0.28875700000000004,-0.042175,-0.40063499999999996,-0.00629,-0.006731999999999999,0.006654,-37.18,14.56,-24.870001000000002,3b
2019-07-12_112526:860,-0.28674299999999997,-0.042694,-0.402649,-0.006412,-0.006793,0.006593000000000001,-37.18,14.56,-24.870001000000002,3b
2019-07-12_112526:880,-0.28674299999999997,-0.042694,-0.40316799999999997,-0.00629,-0.006793,0.006837,-36.060001,14.18,-22.870001000000002,3b
2019-07-12_112526:900,-0.28979499999999997,-0.041687,-0.404175,-0.006229,-0.00719,0.007265000000000001,-36.060001,14.18,-22.870001000000002,3b
2019-07-12_112526:920,-0.28927600000000003,-0.041168,-0.40570100000000003,-0.006412,-0.007220999999999999,0.007387,-35.68,14.56,-24.0,3b
2019-07-12_112526:940,-0.28979499999999997,-0.042694,-0.405212,-0.006626000000000001,-0.006670999999999999,0.0067150000000000005,-35.68,14.56,-24.0,3b
2019-07-12_112526:960,-0.28875700000000004,-0.042694,-0.40774499999999997,-0.00687,-0.0066099999999999996,0.006318,-35.68,14.56,-24.0,3b
2019-07-12_112526:980,-0.288269,-0.044219999999999995,-0.408752,-0.006809,-0.006275,0.006776000000000001,-36.75,13.75,-24.5,3b
2019-07-12_112527:000,-0.28875700000000004,-0.044739,-0.405212,-0.0067480000000000005,-0.005756,0.006929,-36.75,13.75,-24.5,3b
2019-07-12_112527:020,-0.28927600000000003,-0.042175,-0.40368699999999996,-0.006504,-0.005451,0.005983,-36.5,13.75,-24.5,3b
2019-07-12_112527:040,-0.285706,-0.040649,-0.401642,-0.006687,-0.005176,0.005342,-36.5,13.75,-24.5,3b
2019-07-12_112527:060,-0.283173,-0.041687,-0.402161,-0.0065650000000000005,-0.00539,0.005586,-36.5,13.75,-24.5,3b
2019-07-12_112527:080,-0.282654,-0.041168,-0.40063499999999996,-0.006809,-0.005725,0.005311,-35.25,14.18,-24.0,3b
2019-07-12_112527:100,-0.282654,-0.042175,-0.401642,-0.00687,-0.006092,0.004945000000000001,-35.25,14.18,-24.0,3b
2019-07-12_112527:120,-0.285706,-0.043213,-0.401642,-0.006809,-0.0066099999999999996,0.005006,-37.18,14.18,-23.68,3b
2019-07-12_112527:140,-0.28775,-0.043701,-0.40063499999999996,-0.0064730000000000005,-0.006793,0.004457,-37.18,14.18,-23.68,3b
2019-07-12_112527:160,-0.288269,-0.043213,-0.40368699999999996,-0.006412,-0.007129000000000001,0.003633,-37.18,14.18,-23.68,3b
2019-07-12_112527:180,-0.285706,-0.043213,-0.40316799999999997,-0.006076,-0.007281999999999999,0.003175,-35.0,14.87,-25.18,3b
2019-07-12_112527:200,-0.28674299999999997,-0.045226999999999996,-0.404175,-0.005741,-0.007739,0.0026260000000000003,-35.0,14.87,-25.18,3b
2019-07-12_112527:220,-0.286224,-0.044219999999999995,-0.40316799999999997,-0.0051,-0.008014,0.001527,-35.25,14.56,-23.68,3b
2019-07-12_112527:240,-0.286224,-0.042694,-0.40316799999999997,-0.004612,-0.008258,0.000795,-35.25,14.56,-23.68,3b
2019-07-12_112527:260,-0.284698,-0.041168,-0.402161,-0.004062,-0.008319,0.000368,-35.25,14.56,-23.68,3b
2019-07-12_112527:280,-0.28064,-0.042694,-0.401642,-0.003483,-0.00838,-0.000609,-36.060001,14.18,-24.5,3b
2019-07-12_112527:300,-0.282166,-0.042694,-0.40368699999999996,-0.003147,-0.009204,-0.001402,-36.060001,14.18,-24.5,3b
2019-07-12_112527:320,-0.282166,-0.043213,-0.404694,-0.002597,-0.009723,-0.002349,-35.25,13.37,-24.5,3b
2019-07-12_112527:340,-0.28418000000000004,-0.044219999999999995,-0.404175,-0.001865,-0.010394,-0.0031420000000000003,-35.25,13.37,-24.5,3b
2019-07-12_112527:360,-0.280121,-0.041687,-0.404694,-0.0008269999999999999,-0.010639000000000001,-0.004118999999999999,-35.25,13.37,-24.5,3b
2019-07-12_112527:380,-0.278107,-0.041168,-0.407227,5.7999999999999994e-05,-0.011066,-0.005004,-35.68,13.06,-24.870001000000002,3b
2019-07-12_112527:400,-0.279114,-0.039124,-0.40774499999999997,0.001034,-0.011585,-0.005582999999999999,-35.68,13.06,-24.870001000000002,3b
2019-07-12_112527:420,-0.277069,-0.039124,-0.407227,0.0018280000000000002,-0.011768,-0.0060409999999999995,-36.060001,14.18,-25.18,3b
2019-07-12_112527:440,-0.283173,-0.036591000000000005,-0.406738,0.00259,-0.012195000000000001,-0.0063159999999999996,-36.060001,14.18,-25.18,3b
2019-07-12_112527:460,-0.279633,-0.034546,-0.408752,0.0028350000000000003,-0.012195000000000001,-0.006437999999999999,-36.060001,14.18,-25.18,3b
2019-07-12_112527:480,-0.275055,-0.032532,-0.40774499999999997,0.0032310000000000004,-0.012317,-0.0061329999999999996,-35.25,13.75,-24.0,3b
2019-07-12_112527:500,-0.272491,-0.035065,-0.410797,0.0023769999999999998,-0.012897,-0.006987,-35.25,13.75,-24.0,3b
2019-07-12_112527:520,-0.272491,-0.035065,-0.417389,0.0017050000000000001,-0.014513999999999999,-0.007903,-35.25,14.18,-25.68,3b
2019-07-12_112527:540,-0.278107,-0.037598,-0.420441,0.001583,-0.014972,-0.007903,-35.25,14.18,-25.68,3b
2019-07-12_112527:560,-0.276581,-0.039642000000000004,-0.41995200000000005,0.0017670000000000001,-0.015033000000000001,-0.007903,-35.25,14.18,-25.68,3b
2019-07-12_112527:580,-0.272491,-0.040649,-0.420959,0.002499,-0.014301,-0.008055,-36.060001,13.37,-25.68,3b
2019-07-12_112527:600,-0.2659,-0.040161,-0.42147799999999996,0.0028350000000000003,-0.013172,-0.008849,-36.060001,13.37,-25.68,3b
2019-07-12_112527:620,-0.255707,-0.037598,-0.41842700000000005,0.00256,-0.011798000000000001,-0.008971,-35.68,12.68,-24.5,3b
2019-07-12_112527:640,-0.248108,-0.039642000000000004,-0.41842700000000005,0.0018280000000000002,-0.010974,-0.008237999999999999,-35.68,12.68,-24.5,3b
2019-07-12_112527:660,-0.24758899999999998,-0.039642000000000004,-0.42453,0.000851,-0.01073,-0.006774,-35.68,12.68,-24.5,3b
2019-07-12_112527:680,-0.250641,-0.044219999999999995,-0.427063,0.000393,-0.010578,-0.005278,-35.25,13.06,-24.870001000000002,3b
2019-07-12_112527:700,-0.257233,-0.047272,-0.430634,-9.499999999999999e-05,-0.009784000000000001,-0.0038740000000000003,-35.25,13.06,-24.870001000000002,3b
2019-07-12_112527:720,-0.267426,-0.05438200000000001,-0.433655,-0.000553,-0.008014,-0.003539,-36.060001,12.25,-26.0,3b
2019-07-12_112527:740,-0.266388,-0.059479,-0.433167,-0.0013460000000000002,-0.005878,-0.004850999999999999,-36.060001,12.25,-26.0,3b
2019-07-12_112527:760,-0.268951,-0.06149299999999999,-0.435699,-0.001011,-0.0045049999999999995,-0.006072,-36.060001,12.25,-26.0,3b
2019-07-12_112527:780,-0.270477,-0.063538,-0.43518100000000004,-0.00046100000000000004,-0.003589,-0.008634999999999999,-35.25,11.56,-26.5,3b
2019-07-12_112527:800,-0.268433,-0.061005,-0.429108,0.00011899999999999999,-0.002704,-0.011504,-35.25,11.56,-26.5,3b
2019-07-12_112527:820,-0.2659,-0.059479,-0.42453,0.000973,-0.001911,-0.012969,-35.25,11.56,-26.370001000000002,3b
2019-07-12_112527:840,-0.262329,-0.051849,-0.41943400000000003,0.001583,-0.002124,-0.014891,-35.25,11.56,-26.370001000000002,3b
2019-07-12_112527:860,-0.259277,-0.044739,-0.41842700000000005,0.00137,-0.0023989999999999997,-0.017211,-35.25,11.56,-26.370001000000002,3b
2019-07-12_112527:880,-0.264862,-0.033539,-0.415375,0.000698,-0.0032530000000000002,-0.018218,-36.18,11.56,-24.870001000000002,3b
2019-07-12_112527:900,-0.26944,-0.029480000000000003,-0.414337,-0.000156,-0.0032530000000000002,-0.017882,-36.18,11.56,-24.870001000000002,3b
2019-07-12_112527:920,-0.269958,-0.025421,-0.411285,-0.001529,-0.002643,-0.01715,-35.68,10.87,-25.18,3b
2019-07-12_112527:940,-0.262848,-0.022369,-0.40976,-0.0027199999999999998,-0.002643,-0.01602,-35.68,10.87,-25.18,3b
2019-07-12_112527:960,-0.25827,-0.017792,-0.409271,-0.00394,-0.002918,-0.014341999999999999,-35.68,10.87,-25.18,3b
2019-07-12_112527:980,-0.259277,-0.017792,-0.410797,-0.005344,-0.003925,-0.012877000000000001,-38.060001,9.37,-24.5,3b
2019-07-12_112528:000,-0.262329,-0.017792,-0.41232299999999994,-0.0065650000000000005,-0.004718,-0.011565,-38.060001,9.37,-24.5,3b
2019-07-12_112528:020,-0.2659,-0.019318000000000002,-0.412811,-0.007084,-0.004901,-0.010039,-36.869999,9.75,-25.68,3b
2019-07-12_112528:040,-0.270477,-0.020844,-0.415375,-0.007297,-0.004779,-0.009032,-36.869999,9.75,-25.68,3b
2019-07-12_112528:060,-0.266907,-0.020844,-0.42248500000000005,-0.007267,-0.005756,-0.007932999999999999,-36.869999,9.75,-25.68,3b
2019-07-12_112528:080,-0.269958,-0.017792,-0.42248500000000005,-0.006962,-0.006397,-0.007445,-37.25,9.37,-25.68,3b
2019-07-12_112528:100,-0.277588,-0.015747,-0.42858900000000005,-0.007145,-0.00719,-0.007445,-37.25,9.37,-25.68,3b
2019-07-12_112528:120,-0.28112800000000004,-0.013213999999999998,-0.434692,-0.007206000000000001,-0.007739,-0.007201000000000001,-36.75,8.25,-24.870001000000002,3b
2019-07-12_112528:140,-0.283173,-0.012177,-0.429108,-0.007145,-0.007923000000000001,-0.00772,-36.75,8.25,-24.870001000000002,3b
2019-07-12_112528:160,-0.286224,-0.008118,-0.42605600000000005,-0.007541,-0.007006999999999999,-0.008055,-36.75,8.25,-24.870001000000002,3b
2019-07-12_112528:180,-0.277588,-0.0025329999999999997,-0.420441,-0.007601999999999999,-0.005817,-0.007932999999999999,-36.869999,8.25,-25.18,3b
2019-07-12_112528:200,-0.259277,0.002014,-0.41842700000000005,-0.008091,-0.007404000000000001,-0.008298999999999999,-36.869999,8.25,-25.18,3b
2019-07-12_112528:220,-0.257751,0.008118,-0.41485600000000006,-0.008334999999999999,-0.009509,-0.0101,-37.560001,7.5,-25.68,3b
2019-07-12_112528:240,-0.25521900000000003,0.01828,-0.412811,-0.009403,-0.011127,-0.0101,-37.560001,7.5,-25.68,3b
2019-07-12_112528:260,-0.255707,0.022369,-0.41384899999999997,-0.009922,-0.012042,-0.009184000000000001,-37.560001,7.5,-25.68,3b
2019-07-12_112528:280,-0.25216700000000003,0.025421,-0.410797,-0.011142,-0.011798000000000001,-0.0101,-36.75,6.75,-25.68,3b
2019-07-12_112528:300,-0.245056,0.031006,-0.414337,-0.011539,-0.012531,-0.011168,-36.75,6.75,-25.68,3b
2019-07-12_112528:320,-0.25012199999999996,0.033539,-0.420959,-0.011814,-0.013843000000000001,-0.010893,-37.25,6.75,-24.5,3b
2019-07-12_112528:340,-0.24706999999999998,0.034546,-0.421967,-0.011722,-0.014240000000000001,-0.009093,-37.25,6.75,-24.5,3b
2019-07-12_112528:360,-0.257751,0.037108999999999996,-0.42605600000000005,-0.011417,-0.013904,-0.005919,-37.25,6.75,-24.5,3b
2019-07-12_112528:380,-0.260284,0.038116000000000004,-0.42605600000000005,-0.010654,-0.012103000000000001,-0.003203,-36.75,5.25,-26.870001000000002,3b
2019-07-12_112528:400,-0.260803,0.039642000000000004,-0.42453,-0.010256999999999999,-0.010578,-0.002593,-36.75,5.25,-26.870001000000002,3b
2019-07-12_112528:420,-0.269958,0.040161,-0.423492,-0.009464,-0.008808,-0.0014939999999999999,-36.560001,5.25,-25.68,3b
2019-07-12_112528:440,-0.266388,0.043701,-0.41384899999999997,-0.008548,-0.006214,0.000917,-36.560001,5.25,-25.68,3b
2019-07-12_112528:460,-0.251648,0.047272,-0.40823400000000004,-0.008395999999999999,-0.004229999999999999,0.0038469999999999997,-36.560001,5.25,-25.68,3b
2019-07-12_112528:480,-0.23995999999999998,0.046265,-0.401642,-0.008609,-0.00426,0.006044,-36.18,4.87,-25.68,3b
2019-07-12_112528:500,-0.23895300000000003,0.043701,-0.39859,-0.009159,-0.00539,0.006593000000000001,-36.18,4.87,-25.68,3b
2019-07-12_112528:520,-0.236389,0.041168,-0.40011599999999997,-0.0098,-0.006945999999999999,0.005861,-36.5,4.06,-26.0,3b
2019-07-12_112528:540,-0.24096700000000001,0.041168,-0.402649,-0.009617,-0.008990999999999999,0.005525,-36.5,4.06,-26.0,3b
2019-07-12_112528:560,-0.24758899999999998,0.038635,-0.410278,-0.008823000000000001,-0.010059,0.007203,-36.5,4.06,-26.0,3b
2019-07-12_112528:580,-0.251648,0.037108999999999996,-0.416901,-0.008029999999999999,-0.010517,0.009096,-36.560001,4.06,-26.0,3b
2019-07-12_112528:600,-0.270477,0.037108999999999996,-0.426544,-0.007145,-0.010272,0.010225,-36.560001,4.06,-26.0,3b
2019-07-12_112528:620,-0.279114,0.036591000000000005,-0.431641,-0.006809,-0.007984,0.010225,-36.18,4.87,-26.0,3b
2019-07-12_112528:640,-0.300964,0.034546,-0.433655,-0.007084,-0.004596,0.010042,-36.18,4.87,-26.0,3b
2019-07-12_112528:660,-0.304535,0.033539,-0.43670699999999996,-0.007023000000000001,-0.0008119999999999999,0.010225,-36.18,4.87,-26.0,3b
2019-07-12_112528:680,-0.305054,0.029480000000000003,-0.44027700000000003,-0.0067480000000000005,0.001385,0.009126,-36.560001,4.87,-26.870001000000002,3b
2019-07-12_112528:700,-0.29742399999999997,0.027954000000000003,-0.434692,-0.0061070000000000004,0.002606,0.006074,-36.560001,4.87,-26.870001000000002,3b
2019-07-12_112528:720,-0.28064,0.028961,-0.42758199999999996,-0.004520000000000001,0.0033079999999999997,0.001497,-36.869999,4.87,-26.5,3b
2019-07-12_112528:740,-0.270966,0.031006,-0.41995200000000005,-0.0027199999999999998,0.0033079999999999997,-0.002349,-36.869999,4.87,-26.5,3b
2019-07-12_112528:760,-0.270966,0.035583,-0.40976,-0.0004,0.0036439999999999997,-0.003386,-36.869999,4.87,-26.5,3b
2019-07-12_112528:780,-0.269958,0.037108999999999996,-0.40368699999999996,0.0015220000000000001,0.004712,-0.001952,-36.560001,4.87,-25.68,3b
2019-07-12_112528:800,-0.27301,0.045226999999999996,-0.411804,0.002652,0.0036439999999999997,0.000306,-36.560001,4.87,-25.68,3b
2019-07-12_112528:820,-0.266388,0.049805,-0.427063,0.00259,1.2e-05,0.003633,-36.560001,4.5,-25.18,3b
2019-07-12_112528:840,-0.280121,0.050842,-0.42453,0.0019190000000000001,-0.0031309999999999997,0.006044,-36.560001,4.5,-25.18,3b
2019-07-12_112528:860,-0.30300900000000003,0.047272,-0.417908,-9.499999999999999e-05,-0.002124,0.008851000000000001,-36.560001,4.5,-25.18,3b
2019-07-12_112528:880,-0.298431,0.042694,-0.411804,-0.002018,0.002667,0.013153999999999999,-36.869999,4.06,-25.68,3b
2019-07-12_112528:900,-0.273529,0.032013,-0.406219,-0.004275999999999999,0.005658,0.015687,-36.869999,4.06,-25.68,3b
2019-07-12_112528:920,-0.261322,0.028961,-0.398071,-0.006229,0.0062380000000000005,0.014833,-38.68,4.5,-24.870001000000002,3b
2019-07-12_112528:940,-0.259277,0.024384,-0.390442,-0.007145,0.004834000000000001,0.013887,-38.68,4.5,-24.870001000000002,3b
2019-07-12_112528:960,-0.264374,0.019318000000000002,-0.390961,-0.00748,0.002179,0.013093,-38.68,4.5,-24.870001000000002,3b
2019-07-12_112528:980,-0.265381,0.014740000000000001,-0.391968,-0.007541,-0.000781,0.012971000000000002,-38.060001,4.87,-25.25,3b
2019-07-12_112529:000,-0.26944,0.010651,-0.396057,-0.0069,-0.00365,0.013704,-38.060001,4.87,-25.25,3b
2019-07-12_112529:020,-0.28418000000000004,0.005065999999999999,-0.404694,-0.006168,-0.005939,0.013550999999999999,-38.060001,5.25,-24.0,3b
2019-07-12_112529:040,-0.28775,0.001007,-0.410797,-0.005344,-0.006670999999999999,0.012575,-38.060001,5.25,-24.0,3b
2019-07-12_112529:060,-0.29943800000000004,0.0,-0.414337,-0.004581,-0.006,0.011842,-38.060001,5.25,-24.0,3b
2019-07-12_112529:080,-0.29284699999999997,-0.0035399999999999997,-0.415375,-0.0036659999999999996,-0.004444,0.010652,-36.869999,4.87,-24.870001000000002,3b
2019-07-12_112529:100,-0.279633,-0.001495,-0.411804,-0.0027199999999999998,-0.003375,0.00818,-36.869999,4.87,-24.870001000000002,3b
2019-07-12_112529:120,-0.276062,-0.0035399999999999997,-0.412811,-0.002353,-0.002918,0.006318,-36.869999,6.0,-23.68,3b
2019-07-12_112529:140,-0.277588,-0.0030210000000000002,-0.410278,-0.0019260000000000002,-0.003314,0.004854,-36.869999,6.0,-23.68,3b
2019-07-12_112529:160,-0.283173,-0.0055850000000000006,-0.410797,-0.001224,-0.00365,0.0032359999999999997,-36.869999,6.0,-23.68,3b
2019-07-12_112529:180,-0.278107,-0.006072999999999999,-0.407227,-0.000553,-0.003589,0.001314,-37.68,5.56,-23.68,3b
2019-07-12_112529:200,-0.275055,-0.006072999999999999,-0.406738,0.000393,-0.0038640000000000002,0.000368,-37.68,5.56,-23.68,3b
2019-07-12_112529:220,-0.278595,-0.006072999999999999,-0.40823400000000004,0.0018280000000000002,-0.004901,-0.000884,-36.869999,6.0,-24.5,3b
2019-07-12_112529:240,-0.28418000000000004,-0.004547,-0.40823400000000004,0.002896,-0.005573,-0.001952,-36.869999,6.0,-24.5,3b
2019-07-12_112529:260,-0.29895,-0.001007,-0.410278,0.004086,-0.00539,-0.002257,-36.869999,6.0,-24.5,3b
2019-07-12_112529:280,-0.29943800000000004,0.001495,-0.410797,0.004574,-0.004047,-0.0015550000000000002,-38.060001,6.37,-23.68,3b
2019-07-12_112529:300,-0.29180900000000004,0.005065999999999999,-0.407227,0.004635,-0.0031309999999999997,-0.001006,-38.060001,6.37,-23.68,3b
2019-07-12_112529:320,-0.28775,0.006072999999999999,-0.404694,0.003445,-0.0031309999999999997,-0.0011279999999999999,-37.25,6.75,-23.68,3b
2019-07-12_112529:340,-0.28369099999999997,0.006592,-0.40011599999999997,0.002041,-0.003711,-0.0015550000000000002,-37.25,6.75,-23.68,3b
2019-07-12_112529:360,-0.283173,0.004059,-0.40011599999999997,0.0009119999999999999,-0.00484,-0.000762,-37.25,6.75,-23.68,3b
2019-07-12_112529:380,-0.282654,0.000488,-0.399109,0.000393,-0.005695,-2.8999999999999997e-05,-38.060001,6.0,-24.870001000000002,3b
2019-07-12_112529:400,-0.28064,0.001495,-0.398071,0.00011899999999999999,-0.006488,-0.000334,-38.060001,6.0,-24.870001000000002,3b
2019-07-12_112529:420,-0.279633,0.0030210000000000002,-0.398071,-9.499999999999999e-05,-0.006945999999999999,-2.8999999999999997e-05,-37.68,5.56,-24.5,3b
2019-07-12_112529:440,-0.278595,0.0035399999999999997,-0.397064,-0.00046100000000000004,-0.007587000000000001,0.000795,-37.68,5.56,-24.5,3b
2019-07-12_112529:460,-0.285706,0.004059,-0.401642,-0.001011,-0.007984,0.001436,-37.68,5.56,-24.5,3b
2019-07-12_112529:480,-0.282654,0.004547,-0.404175,-0.001865,-0.007739,0.001314,-38.060001,6.37,-24.870001000000002,3b
2019-07-12_112529:500,-0.288269,0.0035399999999999997,-0.412811,-0.002811,-0.008716,0.0016489999999999999,-38.060001,6.37,-24.870001000000002,3b
2019-07-12_112529:520,-0.29538000000000003,0.0025329999999999997,-0.41485600000000006,-0.003849,-0.009265,0.0017100000000000001,-37.25,6.0,-24.0,3b
2019-07-12_112529:540,-0.297913,0.001495,-0.41333000000000003,-0.004520000000000001,-0.008533,0.001436,-37.25,6.0,-24.0,3b
2019-07-12_112529:560,-0.29486100000000004,0.0,-0.412811,-0.004459,-0.006731999999999999,0.0019850000000000002,-37.25,6.0,-24.0,3b
2019-07-12_112529:580,-0.28112800000000004,0.0,-0.410278,-0.004612,-0.004993,0.0029620000000000002,-37.25,6.37,-24.5,3b
2019-07-12_112529:600,-0.268951,0.000488,-0.412811,-0.004764,-0.004961999999999999,0.003633,-37.25,6.37,-24.5,3b
2019-07-12_112529:620,-0.274017,0.001007,-0.415375,-0.005344,-0.006092,0.004152,-37.68,6.75,-24.0,3b
2019-07-12_112529:640,-0.28112800000000004,0.0,-0.416382,-0.006076,-0.006670999999999999,0.004274,-37.68,6.75,-24.0,3b
2019-07-12_112529:660,-0.285217,0.000488,-0.415375,-0.006962,-0.005695,0.003297,-37.68,6.75,-24.0,3b
2019-07-12_112529:680,-0.287231,0.0,-0.416382,-0.007877,-0.004383,0.002565,-38.369999,5.56,-24.870001000000002,3b
2019-07-12_112529:700,-0.28875700000000004,-0.0025329999999999997,-0.41485600000000006,-0.008426000000000001,-0.002796,0.002229,-38.369999,5.56,-24.870001000000002,3b
2019-07-12_112529:720,-0.29232800000000003,-0.001495,-0.41232299999999994,-0.008426000000000001,-0.0012699999999999999,0.002229,-38.369999,5.56,-24.0,3b
2019-07-12_112529:740,-0.287231,0.0,-0.404694,-0.008426000000000001,-0.00047599999999999997,0.002046,-38.369999,5.56,-24.0,3b
2019-07-12_112529:760,-0.28418000000000004,0.004059,-0.40368699999999996,-0.008395999999999999,0.000256,0.001161,-38.369999,5.56,-24.0,3b
2019-07-12_112529:780,-0.280121,0.007599,-0.398071,-0.008426000000000001,-4.9e-05,3.2e-05,-37.68,4.87,-25.68,3b
2019-07-12_112529:800,-0.282654,0.007111,-0.399109,-0.008213,-0.001178,0.000795,-37.68,4.87,-25.68,3b
2019-07-12_112529:820,-0.28927600000000003,0.009644,-0.399597,-0.008152,-0.002857,0.0016489999999999999,-38.369999,5.25,-24.0,3b
2019-07-12_112529:840,-0.293854,0.010651,-0.399109,-0.008091,-0.003711,0.002443,-38.369999,5.25,-24.0,3b
2019-07-12_112529:860,-0.300964,0.010162000000000001,-0.402161,-0.008091,-0.003467,0.002565,-38.369999,5.25,-24.0,3b
2019-07-12_112529:880,-0.294373,0.011169,-0.40063499999999996,-0.007816,-0.002857,0.002687,-38.369999,4.87,-22.870001000000002,3b
2019-07-12_112529:900,-0.28674299999999997,0.013213999999999998,-0.402161,-0.007877,-0.003314,0.002687,-38.369999,4.87,-22.870001000000002,3b
2019-07-12_112529:920,-0.29180900000000004,0.014221000000000001,-0.40316799999999997,-0.007937999999999999,-0.004657,0.003023,-37.68,5.25,-24.5,3b
2019-07-12_112529:940,-0.29180900000000004,0.012695,-0.401123,-0.007877,-0.0052369999999999995,0.003694,-37.68,5.25,-24.5,3b
2019-07-12_112529:960,-0.295898,0.014221000000000001,-0.401123,-0.007816,-0.005756,0.0038469999999999997,-37.68,5.25,-24.5,3b
2019-07-12_112529:980,-0.29538000000000003,0.013702,-0.399109,-0.007816,-0.005573,0.0027170000000000002,-38.060001,4.87,-24.5,3b
2019-07-12_112530:000,-0.29232800000000003,0.014221000000000001,-0.396545,-0.007816,-0.004993,0.002382,-38.060001,4.87,-24.5,3b
2019-07-12_112530:020,-0.28875700000000004,0.011169,-0.396545,-0.007297,-0.005054,0.002443,-38.060001,4.5,-24.5,3b
2019-07-12_112530:040,-0.286224,0.012177,-0.394012,-0.007084,-0.0055119999999999995,0.001497,-38.060001,4.5,-24.5,3b
2019-07-12_112530:060,-0.285217,0.016266,-0.391968,-0.006168,-0.005756,0.001161,-38.060001,4.5,-24.5,3b
2019-07-12_112530:080,-0.286224,0.017273,-0.391968,-0.005558,-0.0060609999999999995,0.0016489999999999999,-38.060001,5.25,-23.68,3b
2019-07-12_112530:100,-0.280121,0.023375999999999997,-0.397064,-0.005161,-0.007006999999999999,0.001924,-38.060001,5.25,-23.68,3b
2019-07-12_112530:120,-0.279114,0.024384,-0.396057,-0.0051,-0.008655,0.001192,-37.25,4.5,-24.0,3b
2019-07-12_112530:140,-0.279114,0.028961,-0.401123,-0.0051,-0.010181,0.0011,-37.25,4.5,-24.0,3b
2019-07-12_112530:160,-0.282654,0.029480000000000003,-0.40823400000000004,-0.0051,-0.011188,0.002321,-37.25,4.5,-24.0,3b
2019-07-12_112530:180,-0.286224,0.029480000000000003,-0.410278,-0.0051,-0.011309999999999999,0.00403,-39.060001,4.06,-24.870001000000002,3b
2019-07-12_112530:200,-0.29486100000000004,0.029480000000000003,-0.41586300000000004,-0.004978,-0.011309999999999999,0.005525,-39.060001,4.06,-24.870001000000002,3b
2019-07-12_112530:220,-0.29995700000000003,0.028961,-0.416382,-0.0052829999999999995,-0.009876000000000001,0.007448000000000001,-37.25,4.06,-23.68,3b
2019-07-12_112530:240,-0.296387,0.026917,-0.41384899999999997,-0.005375,-0.008258,0.009309,-37.25,4.06,-23.68,3b
2019-07-12_112530:260,-0.28979499999999997,0.026427999999999997,-0.41485600000000006,-0.005741,-0.006854000000000001,0.009767,-37.25,4.06,-23.68,3b
2019-07-12_112530:280,-0.282166,0.025421,-0.41232299999999994,-0.005954,-0.006,0.009828,-37.68,4.06,-23.68,3b
2019-07-12_112530:300,-0.280121,0.022369,-0.410278,-0.0061070000000000004,-0.006336,0.00992,-37.68,4.06,-23.68,3b
2019-07-12_112530:320,-0.278595,0.021851,-0.410797,-0.006076,-0.006458,0.010499,-37.25,5.56,-24.870001000000002,3b
2019-07-12_112530:340,-0.279114,0.018799,-0.408752,-0.005954,-0.007220999999999999,0.010713,-37.25,5.56,-24.870001000000002,3b
2019-07-12_112530:360,-0.28064,0.017792,-0.40976,-0.005771,-0.007220999999999999,0.010255,-37.25,5.56,-24.870001000000002,3b
2019-07-12_112530:380,-0.282166,0.01828,-0.410278,-0.005619,-0.007220999999999999,0.009431,-36.869999,4.5,-22.870001000000002,3b
2019-07-12_112530:400,-0.278107,0.01828,-0.410797,-0.005375,-0.007220999999999999,0.008577,-36.869999,4.5,-22.870001000000002,3b
2019-07-12_112530:420,-0.276581,0.019318000000000002,-0.411804,-0.0052829999999999995,-0.007404000000000001,0.007783,-37.68,5.56,-23.68,3b
2019-07-12_112530:440,-0.275543,0.020325,-0.41384899999999997,-0.005344,-0.008075,0.007112,-37.68,5.56,-23.68,3b
2019-07-12_112530:460,-0.283173,0.01828,-0.415375,-0.005375,-0.008319,0.0069900000000000006,-37.68,5.56,-23.68,3b
2019-07-12_112530:480,-0.283173,0.018799,-0.415375,-0.005375,-0.00838,0.006379,-36.869999,5.5,-24.870001000000002,3b
2019-07-12_112530:500,-0.28064,0.01828,-0.412811,-0.004947,-0.007129000000000001,0.005861,-36.869999,5.5,-24.870001000000002,3b
2019-07-12_112530:520,-0.278107,0.018799,-0.41333000000000003,-0.004459,-0.0066099999999999996,0.005861,-37.68,5.56,-24.5,3b
2019-07-12_112530:540,-0.274017,0.020325,-0.412811,-0.00394,-0.006548999999999999,0.006196,-37.68,5.56,-24.5,3b
2019-07-12_112530:560,-0.278107,0.019318000000000002,-0.416382,-0.00394,-0.006854000000000001,0.006837,-37.68,5.56,-24.5,3b
2019-07-12_112530:580,-0.284698,0.019318000000000002,-0.417908,-0.004184,-0.006885,0.007326000000000001,-38.060001,5.18,-24.870001000000002,3b
2019-07-12_112530:600,-0.282654,0.017792,-0.41384899999999997,-0.004764,-0.006397,0.007112,-38.060001,5.18,-24.870001000000002,3b
2019-07-12_112530:620,-0.28112800000000004,0.015747,-0.415375,-0.005222,-0.005451,0.0069900000000000006,-36.560001,4.37,-24.870001000000002,3b
2019-07-12_112530:640,-0.274017,0.013213999999999998,-0.41485600000000006,-0.005771,-0.005451,0.006593000000000001,-36.560001,4.37,-24.870001000000002,3b
2019-07-12_112530:660,-0.272003,0.010162000000000001,-0.41586300000000004,-0.005558,-0.00539,0.005861,-36.560001,4.37,-24.870001000000002,3b
2019-07-12_112530:680,-0.282654,0.008118,-0.41943400000000003,-0.0052829999999999995,-0.006397,0.0058,-36.18,6.37,-25.18,3b
2019-07-12_112530:700,-0.282654,0.006072999999999999,-0.416382,-0.004612,-0.006397,0.006470999999999999,-36.18,6.37,-25.18,3b
2019-07-12_112530:720,-0.282654,0.006592,-0.41232299999999994,-0.003849,-0.005634,0.006532,-36.869999,5.56,-25.18,3b
2019-07-12_112530:740,-0.274536,0.008118,-0.407227,-0.0036659999999999996,-0.0045049999999999995,0.005861,-36.869999,5.56,-25.18,3b
2019-07-12_112530:760,-0.265381,0.007599,-0.404694,-0.0036659999999999996,-0.0037719999999999997,0.006441,-36.869999,5.56,-25.18,3b
2019-07-12_112530:780,-0.270966,0.009644,-0.405212,-0.004001,-0.004961999999999999,0.0071730000000000006,-36.869999,6.0,-24.870001000000002,3b
2019-07-12_112530:800,-0.275055,0.008636,-0.40368699999999996,-0.004459,-0.005878,0.008241,-36.869999,6.0,-24.870001000000002,3b
2019-07-12_112530:820,-0.278107,0.007599,-0.40570100000000003,-0.0052829999999999995,-0.006548999999999999,0.008699,-37.25,6.0,-26.0,3b
2019-07-12_112530:840,-0.274536,0.008636,-0.406219,-0.006351,-0.006092,0.008516,-37.25,6.0,-26.0,3b
2019-07-12_112530:860,-0.275055,0.007111,-0.406219,-0.007418999999999999,-0.0061530000000000005,0.007997,-37.25,6.0,-26.0,3b
2019-07-12_112530:880,-0.275055,0.007111,-0.40976,-0.008395999999999999,-0.006670999999999999,0.0071730000000000006,-37.68,5.56,-24.870001000000002,3b
2019-07-12_112530:900,-0.277069,0.004059,-0.411804,-0.009006,-0.007281999999999999,0.005861,-37.68,5.56,-24.870001000000002,3b
2019-07-12_112530:920,-0.285706,0.001007,-0.416901,-0.008732,-0.007404000000000001,0.005006,-37.25,6.0,-24.0,3b
2019-07-12_112530:940,-0.288269,0.0,-0.417908,-0.008091,-0.006945999999999999,0.005128,-37.25,6.0,-24.0,3b
2019-07-12_112530:960,-0.28418000000000004,0.002014,-0.415375,-0.006229,-0.005725,0.003633,-37.25,6.0,-24.0,3b
2019-07-12_112530:980,-0.280121,0.002014,-0.415375,-0.004764,-0.005725,0.001924,-36.560001,6.37,-25.18,3b
2019-07-12_112531:000,-0.279114,0.006072999999999999,-0.414337,-0.003849,-0.0060609999999999995,0.0011,-36.560001,6.37,-25.18,3b
2019-07-12_112531:020,-0.279633,0.008636,-0.41333000000000003,-0.002872,-0.006397,0.001039,-37.25,5.25,-24.0,3b
2019-07-12_112531:040,-0.28112800000000004,0.016266,-0.410278,-0.002323,-0.006336,0.001253,-37.25,5.25,-24.0,3b
2019-07-12_112531:060,-0.28064,0.01828,-0.408752,-0.002597,-0.006,0.001588,-37.25,5.25,-24.0,3b
2019-07-12_112531:080,-0.273529,0.024384,-0.408752,-0.0033909999999999995,-0.0066099999999999996,0.001893,-37.25,5.25,-24.870001000000002,3b
2019-07-12_112531:100,-0.27301,0.023895,-0.408752,-0.004703,-0.0070680000000000005,0.002382,-37.25,5.25,-24.870001000000002,3b
2019-07-12_112531:120,-0.274536,0.023375999999999997,-0.410278,-0.005558,-0.007343000000000001,0.003633,-38.060001,6.0,-24.5,3b
2019-07-12_112531:140,-0.275055,0.023895,-0.409271,-0.00629,-0.007006999999999999,0.004854,-38.060001,6.0,-24.5,3b
2019-07-12_112531:160,-0.270966,0.019806,-0.41333000000000003,-0.007145,-0.006731999999999999,0.005067,-38.060001,6.0,-24.5,3b
2019-07-12_112531:180,-0.269958,0.019318000000000002,-0.41384899999999997,-0.007601999999999999,-0.006885,0.005525,-36.869999,6.75,-24.870001000000002,3b
2019-07-12_112531:200,-0.270966,0.015228,-0.41485600000000006,-0.007816,-0.007343000000000001,0.006257,-36.869999,6.75,-24.870001000000002,3b
2019-07-12_112531:220,-0.272003,0.015228,-0.415375,-0.008029999999999999,-0.00719,0.006135,-36.869999,5.5,-25.68,3b
2019-07-12_112531:240,-0.277069,0.012695,-0.41995200000000005,-0.007999,-0.006488,0.005678,-36.869999,5.5,-25.68,3b
2019-07-12_112531:260,-0.275055,0.010651,-0.416901,-0.007418999999999999,-0.0055119999999999995,0.004915,-36.869999,5.5,-25.68,3b
2019-07-12_112531:280,-0.275543,0.009125,-0.418915,-0.007358,-0.00539,0.004457,-37.68,5.87,-24.5,3b
2019-07-12_112531:300,-0.276581,0.008118,-0.41943400000000003,-0.005954,-0.004596,0.003572,-37.68,5.87,-24.5,3b
2019-07-12_112531:320,-0.278595,0.008636,-0.416901,-0.005039,-0.004444,0.003053,-37.25,5.87,-24.0,3b
2019-07-12_112531:340,-0.284698,0.009644,-0.417908,-0.004612,-0.0037719999999999997,0.0029620000000000002,-37.25,5.87,-24.0,3b
2019-07-12_112531:360,-0.282654,0.015228,-0.41384899999999997,-0.004275999999999999,-0.0032530000000000002,0.003297,-37.25,5.87,-24.0,3b
2019-07-12_112531:380,-0.279114,0.017273,-0.414337,-0.004886,-0.003467,0.002229,-37.25,5.5,-24.0,3b
2019-07-12_112531:400,-0.272003,0.018799,-0.412811,-0.005741,-0.004169,0.0016489999999999999,-37.25,5.5,-24.0,3b
2019-07-12_112531:420,-0.274536,0.019318000000000002,-0.41586300000000004,-0.006351,-0.005115,0.003175,-36.869999,4.37,-25.18,3b
2019-07-12_112531:440,-0.279114,0.016266,-0.41384899999999997,-0.00629,-0.004901,0.005189,-36.869999,4.37,-25.18,3b
2019-07-12_112531:460,-0.279114,0.015747,-0.411285,-0.006504,-0.004779,0.006074,-36.869999,4.37,-25.18,3b
2019-07-12_112531:480,-0.277588,0.017273,-0.41232299999999994,-0.0069,-0.004566,0.006196,-37.25,5.87,-24.5,3b
2019-07-12_112531:500,-0.27301,0.016753999999999998,-0.40976,-0.0076939999999999995,-0.004566,0.006441,-37.25,5.87,-24.5,3b
2019-07-12_112531:520,-0.272491,0.016266,-0.411285,-0.008548,-0.004566,0.007112,-36.869999,5.18,-24.870001000000002,3b
2019-07-12_112531:540,-0.274017,0.014740000000000001,-0.41232299999999994,-0.009128,-0.004657,0.0069900000000000006,-36.869999,5.18,-24.870001000000002,3b
2019-07-12_112531:560,-0.27301,0.012695,-0.41232299999999994,-0.009556,-0.004657,0.006196,-36.869999,5.18,-24.870001000000002,3b
2019-07-12_112531:580,-0.278595,0.011687999999999999,-0.41232299999999994,-0.009617,-0.004229999999999999,0.005739,-37.25,5.18,-24.5,3b
2019-07-12_112531:600,-0.280121,0.011169,-0.411804,-0.009342,-0.003833,0.005739,-37.25,5.18,-24.5,3b
2019-07-12_112531:620,-0.282654,0.011169,-0.41384899999999997,-0.008548,-0.003314,0.00525,-37.25,4.75,-24.0,3b
2019-07-12_112531:640,-0.283173,0.011169,-0.412811,-0.008091,-0.002704,0.0038159999999999995,-37.25,4.75,-24.0,3b
2019-07-12_112531:660,-0.281647,0.014221000000000001,-0.41333000000000003,-0.007633,-0.0021850000000000003,0.0032359999999999997,-37.25,4.75,-24.0,3b
2019-07-12_112531:680,-0.28064,0.016753999999999998,-0.411285,-0.006962,-0.0021850000000000003,0.0038469999999999997,-38.060001,5.5,-24.5,3b
2019-07-12_112531:700,-0.282166,0.01828,-0.410797,-0.006626000000000001,-0.002246,0.003908,-38.060001,5.5,-24.5,3b
2019-07-12_112531:720,-0.284698,0.022858,-0.40976,-0.00687,-0.0021850000000000003,0.003297,-36.560001,5.5,-25.18,3b
2019-07-12_112531:740,-0.28674299999999997,0.025908999999999998,-0.408752,-0.0069,-0.002246,0.003572,-36.560001,5.5,-25.18,3b
2019-07-12_112531:760,-0.28875700000000004,0.026427999999999997,-0.408752,-0.007206000000000001,-0.001911,0.004152,-36.560001,5.5,-25.18,3b
2019-07-12_112531:780,-0.288269,0.027954000000000003,-0.407227,-0.007267,-0.0020629999999999997,0.004152,-38.060001,4.37,-24.870001000000002,3b
2019-07-12_112531:800,-0.285217,0.026917,-0.404694,-0.007541,-0.00246,0.00403,-38.060001,4.37,-24.870001000000002,3b
2019-07-12_112531:820,-0.28418000000000004,0.027435,-0.40570100000000003,-0.007541,-0.002796,0.004091,-36.869999,5.25,-24.5,3b
2019-07-12_112531:840,-0.286224,0.026427999999999997,-0.404694,-0.007145,-0.003314,0.004671,-36.869999,5.25,-24.5,3b
2019-07-12_112531:860,-0.28674299999999997,0.026917,-0.402161,-0.0067480000000000005,-0.003467,0.004915,-36.869999,5.25,-24.5,3b
2019-07-12_112531:880,-0.285706,0.026427999999999997,-0.402649,-0.006412,-0.0035280000000000003,0.004793,-38.060001,5.25,-26.370001000000002,3b
2019-07-12_112531:900,-0.28369099999999997,0.027954000000000003,-0.40011599999999997,-0.006168,-0.004108,0.004457,-38.060001,5.25,-26.370001000000002,3b
2019-07-12_112531:920,-0.28112800000000004,0.029480000000000003,-0.401642,-0.0060149999999999995,-0.004657,0.004396,-37.560001,5.56,-24.5,3b
2019-07-12_112531:940,-0.281647,0.029480000000000003,-0.40316799999999997,-0.005832,-0.005298,0.004213000000000001,-37.560001,5.56,-24.5,3b
2019-07-12_112531:960,-0.283173,0.027954000000000003,-0.402649,-0.005832,-0.005695,0.004213000000000001,-37.560001,5.56,-24.5,3b
2019-07-12_112531:980,-0.28418000000000004,0.026917,-0.402649,-0.0052829999999999995,-0.005817,0.003908,-38.0,5.25,-23.68,3b
2019-07-12_112532:000,-0.282166,0.027954000000000003,-0.404694,-0.004886,-0.0060609999999999995,0.003175,-38.0,5.25,-23.68,3b
2019-07-12_112532:020,-0.282654,0.027435,-0.404175,-0.004612,-0.006214,0.0032359999999999997,-36.75,5.25,-24.370001000000002,3b
2019-07-12_112532:040,-0.28369099999999997,0.027435,-0.406738,-0.004001,-0.006670999999999999,0.003694,-36.75,5.25,-24.370001000000002,3b
2019-07-12_112532:060,-0.282166,0.025421,-0.40774499999999997,-0.003055,-0.006731999999999999,0.003633,-36.75,5.25,-24.370001000000002,3b
2019-07-12_112532:080,-0.28979499999999997,0.025421,-0.411804,-0.002597,-0.006670999999999999,0.003572,-37.560001,4.87,-23.68,3b
2019-07-12_112532:100,-0.28927600000000003,0.027954000000000003,-0.409271,-0.001957,-0.005725,0.0038159999999999995,-37.560001,4.87,-23.68,3b
2019-07-12_112532:120,-0.29180900000000004,0.027435,-0.410797,-0.002018,-0.005115,0.003358,-37.68,4.87,-24.5,3b
2019-07-12_112532:140,-0.28979499999999997,0.025908999999999998,-0.409271,-0.002079,-0.004596,0.002107,-37.68,4.87,-24.5,3b
2019-07-12_112532:160,-0.283173,0.027954000000000003,-0.408752,-0.00214,-0.0045049999999999995,0.002168,-37.68,4.87,-24.5,3b
2019-07-12_112532:180,-0.282654,0.027954000000000003,-0.409271,-0.0022010000000000003,-0.004718,0.0026260000000000003,-37.68,5.25,-24.5,3b
2019-07-12_112532:200,-0.280121,0.024902,-0.406738,-0.0018039999999999998,-0.00539,0.003694,-37.68,5.25,-24.5,3b
2019-07-12_112532:220,-0.284698,0.025421,-0.40774499999999997,-0.00159,-0.005451,0.0034189999999999997,-37.560001,5.25,-24.0,3b
2019-07-12_112532:240,-0.285706,0.025421,-0.404694,-0.0019260000000000002,-0.00484,0.003175,-37.560001,5.25,-24.0,3b
2019-07-12_112532:260,-0.282166,0.025421,-0.40316799999999997,-0.002414,-0.004961999999999999,0.003175,-37.560001,5.25,-24.0,3b
2019-07-12_112532:280,-0.279114,0.022858,-0.40316799999999997,-0.002475,-0.005115,0.003114,-38.68,4.87,-24.0,3b
2019-07-12_112532:300,-0.279114,0.021851,-0.402649,-0.002872,-0.005878,0.0027170000000000002,-38.68,4.87,-24.0,3b
2019-07-12_112532:320,-0.28064,0.018799,-0.40368699999999996,-0.002811,-0.006214,0.002321,-38.68,4.87,-24.0,3b
2019-07-12_112532:340,-0.28064,0.01828,-0.40368699999999996,-0.0022010000000000003,-0.006731999999999999,0.001832,-38.0,5.56,-23.18,3b
2019-07-12_112532:360,-0.279633,0.01828,-0.40570100000000003,-0.001743,-0.007220999999999999,0.0017100000000000001,-38.0,5.56,-23.18,3b
2019-07-12_112532:380,-0.28112800000000004,0.020325,-0.406738,-0.0016820000000000001,-0.007526000000000001,0.001497,-36.869999,4.87,-24.0,3b
2019-07-12_112532:400,-0.28112800000000004,0.022369,-0.407227,-0.001621,-0.0076170000000000005,0.000306,-36.869999,4.87,-24.0,3b
2019-07-12_112532:420,-0.28369099999999997,0.022858,-0.410797,-0.0019260000000000002,-0.007801000000000001,0.000184,-36.18,4.5,-25.18,3b
2019-07-12_112532:440,-0.28369099999999997,0.025421,-0.411285,-0.002018,-0.007587000000000001,0.001497,-36.18,4.5,-25.18,3b
2019-07-12_112532:460,-0.284698,0.027435,-0.41384899999999997,-0.002872,-0.0070680000000000005,0.001253,-36.18,4.5,-25.18,3b
2019-07-12_112532:480,-0.28369099999999997,0.026917,-0.412811,-0.0033299999999999996,-0.006670999999999999,0.001314,-38.060001,4.87,-24.5,3b
2019-07-12_112532:500,-0.28418000000000004,0.024902,-0.41232299999999994,-0.004184,-0.006275,0.002229,-38.060001,4.87,-24.5,3b
2019-07-12_112532:520,-0.28112800000000004,0.023375999999999997,-0.412811,-0.0042450000000000005,-0.005939,0.002229,-38.060001,4.87,-24.5,3b
2019-07-12_112532:540,-0.279633,0.022369,-0.41333000000000003,-0.004459,-0.005817,0.002046,-37.68,4.87,-22.870001000000002,3b
2019-07-12_112532:560,-0.28112800000000004,0.022858,-0.410797,-0.004184,-0.005634,0.002565,-37.68,4.87,-22.870001000000002,3b
2019-07-12_112532:580,-0.28112800000000004,0.022858,-0.411285,-0.004001,-0.005359,0.0025039999999999997,-38.060001,5.56,-25.18,3b
2019-07-12_112532:600,-0.28064,0.025421,-0.40976,-0.004062,-0.005054,0.002168,-38.060001,5.56,-25.18,3b
2019-07-12_112532:620,-0.280121,0.027435,-0.410278,-0.004184,-0.004779,0.002321,-37.68,5.25,-24.870001000000002,3b
2019-07-12_112532:640,-0.282166,0.027435,-0.411285,-0.004978,-0.004383,0.003023,-37.68,5.25,-24.870001000000002,3b
2019-07-12_112532:660,-0.282166,0.026917,-0.408752,-0.005436,-0.003925,0.0029620000000000002,-37.68,5.25,-24.870001000000002,3b
2019-07-12_112532:680,-0.284698,0.025421,-0.411804,-0.005679999999999999,-0.003925,0.003114,-37.68,4.87,-24.870001000000002,3b
2019-07-12_112532:700,-0.284698,0.025421,-0.40976,-0.005741,-0.0038640000000000002,0.003358,-37.68,4.87,-24.870001000000002,3b
2019-07-12_112532:720,-0.285217,0.025421,-0.408752,-0.005558,-0.0037719999999999997,0.003511,-37.68,4.87,-24.870001000000002,3b
2019-07-12_112532:740,-0.285706,0.026917,-0.40823400000000004,-0.005679999999999999,-0.00365,0.0039689999999999994,-37.25,4.06,-24.0,3b
2019-07-12_112532:760,-0.28369099999999997,0.027435,-0.40774499999999997,-0.005741,-0.003986,0.0039689999999999994,-37.25,4.06,-24.0,3b
2019-07-12_112532:780,-0.286224,0.026427999999999997,-0.406219,-0.005954,-0.004229999999999999,0.004213000000000001,-37.68,4.87,-25.18,3b
2019-07-12_112532:800,-0.285706,0.026427999999999997,-0.40368699999999996,-0.006229,-0.004321,0.004793,-37.68,4.87,-25.18,3b
2019-07-12_112532:820,-0.28875700000000004,0.025421,-0.404694,-0.006076,-0.004444,0.005067,-37.68,4.87,-25.18,3b
2019-07-12_112532:840,-0.287231,0.026427999999999997,-0.402649,-0.006168,-0.004566,0.005006,-37.25,4.87,-24.370001000000002,3b
2019-07-12_112532:860,-0.284698,0.026917,-0.401123,-0.006076,-0.004596,0.005739,-37.25,4.87,-24.370001000000002,3b
2019-07-12_112532:880,-0.28674299999999997,0.027435,-0.402649,-0.0064730000000000005,-0.005054,0.0058,-37.25,4.37,-24.5,3b
2019-07-12_112532:900,-0.28112800000000004,0.025421,-0.402161,-0.006962,-0.005115,0.005067,-37.25,4.37,-24.5,3b
2019-07-12_112532:920,-0.281647,0.023375999999999997,-0.40316799999999997,-0.007145,-0.005939,0.004732,-37.25,4.37,-24.5,3b
2019-07-12_112532:940,-0.282654,0.022369,-0.40368699999999996,-0.0069,-0.006548999999999999,0.00525,-38.369999,4.0,-23.18,3b
2019-07-12_112532:960,-0.28418000000000004,0.020844,-0.405212,-0.006229,-0.0070680000000000005,0.005586,-38.369999,4.0,-23.18,3b
2019-07-12_112532:980,-0.28927600000000003,0.022858,-0.408752,-0.005375,-0.007281999999999999,0.005067,-38.060001,5.18,-24.870001000000002,3b
2019-07-12_112533:000,-0.28674299999999997,0.026427999999999997,-0.405212,-0.004947,-0.006670999999999999,0.004548,-38.060001,5.18,-24.870001000000002,3b
2019-07-12_112533:020,-0.28674299999999997,0.028442000000000002,-0.406738,-0.0051,-0.006397,0.004915,-38.060001,4.75,-23.18,3b
2019-07-12_112533:040,-0.285217,0.027954000000000003,-0.407227,-0.005375,-0.006275,0.005006,-38.060001,4.75,-23.18,3b
2019-07-12_112533:060,-0.283173,0.027435,-0.405212,-0.005771,-0.006,0.004609,-38.060001,4.75,-23.18,3b
2019-07-12_112533:080,-0.28674299999999997,0.026917,-0.40774499999999997,-0.0060149999999999995,-0.006548999999999999,0.004457,-37.68,4.37,-24.370001000000002,3b
2019-07-12_112533:100,-0.28674299999999997,0.024384,-0.405212,-0.005954,-0.006275,0.004854,-37.68,4.37,-24.370001000000002,3b
2019-07-12_112533:120,-0.285706,0.024902,-0.407227,-0.005497,-0.006336,0.004793,-37.25,4.75,-24.0,3b
2019-07-12_112533:140,-0.285217,0.025421,-0.40570100000000003,-0.005039,-0.006458,0.0039689999999999994,-37.25,4.75,-24.0,3b
2019-07-12_112533:160,-0.284698,0.027954000000000003,-0.406738,-0.004825,-0.006397,0.003358,-37.25,4.75,-24.0,3b
2019-07-12_112533:180,-0.284698,0.027954000000000003,-0.406219,-0.004184,-0.006458,0.004213000000000001,-38.060001,4.37,-24.0,3b
2019-07-12_112533:200,-0.286224,0.028442000000000002,-0.406738,-0.0037270000000000003,-0.006885,0.004793,-38.060001,4.37,-24.0,3b
2019-07-12_112533:220,-0.285706,0.029968,-0.408752,-0.003544,-0.006854000000000001,0.004548,-38.060001,4.37,-24.0,3b
2019-07-12_112533:240,-0.285706,0.030487,-0.40570100000000003,-0.0037270000000000003,-0.0070680000000000005,0.004518,-37.68,4.37,-25.68,3b
2019-07-12_112533:260,-0.284698,0.028442000000000002,-0.40774499999999997,-0.004062,-0.00719,0.004945000000000001,-37.68,4.37,-25.68,3b
2019-07-12_112533:280,-0.283173,0.028442000000000002,-0.40774499999999997,-0.004337,-0.006945999999999999,0.004915,-38.060001,5.25,-25.18,3b
2019-07-12_112533:300,-0.28369099999999997,0.027435,-0.405212,-0.004398,-0.007129000000000001,0.005128,-38.060001,5.25,-25.18,3b
2019-07-12_112533:320,-0.283173,0.024384,-0.406219,-0.003879,-0.007281999999999999,0.005128,-38.060001,5.25,-25.18,3b
2019-07-12_112533:340,-0.28418000000000004,0.026917,-0.406219,-0.003544,-0.007281999999999999,0.005067,-36.869999,4.5,-23.68,3b
2019-07-12_112533:360,-0.28369099999999997,0.027954000000000003,-0.406219,-0.003208,-0.007281999999999999,0.005311,-36.869999,4.5,-23.68,3b
2019-07-12_112533:380,-0.28064,0.027954000000000003,-0.406738,-0.0033299999999999996,-0.007678,0.0058,-38.060001,5.25,-24.5,3b
2019-07-12_112533:400,-0.278107,0.028442000000000002,-0.406738,-0.0037270000000000003,-0.008014,0.005983,-38.060001,5.25,-24.5,3b
2019-07-12_112533:420,-0.283173,0.026917,-0.409271,-0.004123,-0.00893,0.006379,-38.060001,5.25,-24.5,3b
2019-07-12_112533:440,-0.281647,0.026427999999999997,-0.408752,-0.004520000000000001,-0.008594,0.006776000000000001,-36.869999,4.0,-24.5,3b
2019-07-12_112533:460,-0.280121,0.024384,-0.408752,-0.004825,-0.008594,0.006593000000000001,-36.869999,4.0,-24.5,3b
2019-07-12_112533:480,-0.275543,0.023375999999999997,-0.410278,-0.005039,-0.008716,0.006929,-37.25,4.87,-25.18,3b
2019-07-12_112533:500,-0.274536,0.022369,-0.410278,-0.004612,-0.008990999999999999,0.007387,-37.25,4.87,-25.18,3b
2019-07-12_112533:520,-0.278595,0.021851,-0.411804,-0.004398,-0.009448,0.007722,-37.25,4.87,-25.18,3b
2019-07-12_112533:540,-0.276062,0.022858,-0.411804,-0.004184,-0.009326000000000001,0.007997,-37.25,5.25,-24.5,3b
2019-07-12_112533:560,-0.27301,0.022858,-0.41333000000000003,-0.004275999999999999,-0.008533,0.008241,-37.25,5.25,-24.5,3b
2019-07-12_112533:580,-0.276581,0.021332,-0.416382,-0.004275999999999999,-0.008747,0.008516,-37.25,4.87,-25.68,3b
2019-07-12_112533:600,-0.276581,0.021332,-0.41586300000000004,-0.004612,-0.008716,0.008577,-37.25,4.87,-25.68,3b
2019-07-12_112533:620,-0.28112800000000004,0.019318000000000002,-0.417908,-0.004764,-0.007984,0.008638,-37.25,4.87,-25.68,3b
2019-07-12_112533:640,-0.277588,0.019318000000000002,-0.417389,-0.005436,-0.006945999999999999,0.00818,-36.869999,5.56,-24.870001000000002,3b
2019-07-12_112533:660,-0.26944,0.017273,-0.41842700000000005,-0.005741,-0.006397,0.007509,-36.869999,5.56,-24.870001000000002,3b
2019-07-12_112533:680,-0.270966,0.015747,-0.420441,-0.006076,-0.006945999999999999,0.006379,-37.25,4.87,-24.5,3b
2019-07-12_112533:700,-0.276062,0.012695,-0.42147799999999996,-0.005558,-0.007129000000000001,0.006044,-37.25,4.87,-24.5,3b
2019-07-12_112533:720,-0.277588,0.013702,-0.41995200000000005,-0.004825,-0.006275,0.005983,-37.25,4.87,-24.5,3b
2019-07-12_112533:740,-0.276581,0.016753999999999998,-0.41995200000000005,-0.004001,-0.005756,0.005311,-37.18,5.25,-25.18,3b
2019-07-12_112533:760,-0.271484,0.020325,-0.417908,-0.003544,-0.00484,0.004915,-37.18,5.25,-25.18,3b
2019-07-12_112533:780,-0.26944,0.020844,-0.416901,-0.0036659999999999996,-0.004596,0.005006,-37.18,5.56,-26.0,3b
2019-07-12_112533:800,-0.272003,0.021332,-0.412811,-0.004123,-0.004779,0.005128,-37.18,5.56,-26.0,3b
2019-07-12_112533:820,-0.272491,0.01828,-0.414337,-0.004275999999999999,-0.004596,0.005342,-37.18,5.56,-26.0,3b
2019-07-12_112533:840,-0.276581,0.016753999999999998,-0.41333000000000003,-0.004459,-0.004444,0.005586,-36.5,5.56,-26.0,3b
2019-07-12_112533:860,-0.267914,0.01828,-0.409271,-0.004520000000000001,-0.004229999999999999,0.005678,-36.5,5.56,-26.0,3b
2019-07-12_112533:880,-0.271484,0.018799,-0.41232299999999994,-0.004825,-0.004657,0.006135,-37.25,6.75,-25.68,3b
2019-07-12_112533:900,-0.26944,0.017273,-0.40976,-0.0051,-0.0052369999999999995,0.005739,-37.25,6.75,-25.68,3b
2019-07-12_112533:920,-0.270966,0.015228,-0.411285,-0.005375,-0.005725,0.005067,-37.25,6.75,-25.68,3b
2019-07-12_112533:940,-0.271484,0.013213999999999998,-0.411804,-0.005222,-0.005939,0.005525,-36.869999,5.87,-24.870001000000002,3b
2019-07-12_112533:960,-0.271484,0.013213999999999998,-0.41232299999999994,-0.004947,-0.006336,0.005403,-36.869999,5.87,-24.870001000000002,3b
2019-07-12_112533:980,-0.276062,0.017273,-0.414337,-0.004886,-0.006854000000000001,0.004609,-36.560001,5.87,-25.68,3b
2019-07-12_112534:000,-0.276581,0.016753999999999998,-0.415375,-0.004825,-0.006854000000000001,0.004793,-36.560001,5.87,-25.68,3b
2019-07-12_112534:020,-0.277069,0.014740000000000001,-0.41485600000000006,-0.004764,-0.006336,0.004915,-36.560001,5.87,-25.68,3b
2019-07-12_112534:040,-0.279114,0.015747,-0.41842700000000005,-0.004886,-0.006397,0.004671,-36.18,6.25,-25.68,3b
2019-07-12_112534:060,-0.274017,0.015747,-0.41384899999999997,-0.004612,-0.005573,0.005067,-36.18,6.25,-25.68,3b
2019-07-12_112534:080,-0.274536,0.015747,-0.41485600000000006,-0.004520000000000001,-0.005756,0.005189,-37.25,5.5,-26.370001000000002,3b
2019-07-12_112534:100,-0.276062,0.016266,-0.412811,-0.004275999999999999,-0.005695,0.004854,-37.25,5.5,-26.370001000000002,3b
2019-07-12_112534:120,-0.275543,0.01828,-0.41485600000000006,-0.004337,-0.005451,0.005464,-37.25,5.5,-26.370001000000002,3b
2019-07-12_112534:140,-0.276581,0.016266,-0.414337,-0.004642,-0.005756,0.005739,-37.68,5.87,-25.68,3b
2019-07-12_112534:160,-0.276581,0.016753999999999998,-0.41333000000000003,-0.004947,-0.005725,0.005647,-37.68,5.87,-25.68,3b
2019-07-12_112534:180,-0.274536,0.016753999999999998,-0.41586300000000004,-0.005436,-0.005725,0.005861,-36.869999,5.5,-26.370001000000002,3b
2019-07-12_112534:200,-0.276581,0.014221000000000001,-0.414337,-0.005558,-0.005756,0.005678,-36.869999,5.5,-26.370001000000002,3b
2019-07-12_112534:220,-0.278107,0.013702,-0.41586300000000004,-0.005741,-0.005573,0.005403,-36.869999,5.5,-26.370001000000002,3b
2019-07-12_112534:240,-0.281647,0.013213999999999998,-0.416382,-0.005679999999999999,-0.0052369999999999995,0.005647,-36.869999,5.87,-24.870001000000002,3b
2019-07-12_112534:260,-0.278107,0.013213999999999998,-0.41333000000000003,-0.005344,-0.004444,0.005739,-36.869999,5.87,-24.870001000000002,3b
2019-07-12_112534:280,-0.277069,0.014221000000000001,-0.412811,-0.005344,-0.00426,0.004915,-36.869999,5.87,-25.18,3b
2019-07-12_112534:300,-0.274536,0.014740000000000001,-0.410278,-0.005497,-0.00426,0.00525,-36.869999,5.87,-25.18,3b
2019-07-12_112534:320,-0.27301,0.013702,-0.411804,-0.005436,-0.004596,0.005464,-36.869999,5.87,-25.18,3b
2019-07-12_112534:340,-0.276581,0.013213999999999998,-0.40976,-0.0052829999999999995,-0.004901,0.004854,-36.869999,7.0,-25.18,3b
2019-07-12_112534:360,-0.274536,0.014221000000000001,-0.408752,-0.005497,-0.005054,0.005189,-36.869999,7.0,-25.18,3b
2019-07-12_112534:380,-0.277069,0.011169,-0.409271,-0.005161,-0.0055119999999999995,0.005403,-36.560001,6.25,-26.0,3b
2019-07-12_112534:400,-0.274017,0.014740000000000001,-0.408752,-0.005344,-0.005695,0.004091,-36.560001,6.25,-26.0,3b
2019-07-12_112534:420,-0.272003,0.015228,-0.411285,-0.005161,-0.006397,0.0038469999999999997,-36.560001,6.25,-26.0,3b
2019-07-12_112534:440,-0.279633,0.015228,-0.416382,-0.004825,-0.006885,0.005128,-37.25,6.0,-25.68,3b
2019-07-12_112534:460,-0.276062,0.014740000000000001,-0.41586300000000004,-0.004703,-0.006854000000000001,0.005739,-37.25,6.0,-25.68,3b
2019-07-12_112534:480,-0.279114,0.014740000000000001,-0.416382,-0.004459,-0.006793,0.005861,-37.25,6.37,-24.870001000000002,3b
2019-07-12_112534:500,-0.279114,0.015747,-0.41485600000000006,-0.004581,-0.006275,0.005586,-37.25,6.37,-24.870001000000002,3b
2019-07-12_112534:520,-0.274536,0.014740000000000001,-0.414337,-0.004886,-0.005878,0.005861,-37.25,6.37,-24.870001000000002,3b
2019-07-12_112534:540,-0.275543,0.014221000000000001,-0.41586300000000004,-0.0051,-0.005817,0.006470999999999999,-36.18,5.5,-23.68,3b
2019-07-12_112534:560,-0.272003,0.013213999999999998,-0.414337,-0.005375,-0.0055119999999999995,0.006318,-36.18,5.5,-23.68,3b
2019-07-12_112534:580,-0.27301,0.012177,-0.414337,-0.005741,-0.005573,0.005983,-36.18,6.37,-25.18,3b
2019-07-12_112534:600,-0.271484,0.012177,-0.41384899999999997,-0.0060149999999999995,-0.005359,0.005861,-36.18,6.37,-25.18,3b
2019-07-12_112534:620,-0.275055,0.009644,-0.41485600000000006,-0.006168,-0.0055119999999999995,0.0058,-36.18,6.37,-25.18,3b
2019-07-12_112534:640,-0.276062,0.007111,-0.414337,-0.0060149999999999995,-0.005298,0.005067,-36.18,6.37,-25.68,3b
2019-07-12_112534:660,-0.276062,0.008636,-0.415375,-0.005832,-0.00484,0.0037549999999999997,-36.18,6.37,-25.68,3b
2019-07-12_112534:680,-0.275055,0.009644,-0.415375,-0.005222,-0.004718,0.004091,-37.25,6.0,-26.0,3b
2019-07-12_112534:700,-0.275543,0.008636,-0.41384899999999997,-0.004764,-0.004596,0.004396,-37.25,6.0,-26.0,3b
2019-07-12_112534:720,-0.273529,0.009644,-0.414337,-0.004642,-0.004657,0.0037549999999999997,-37.25,6.0,-26.0,3b
2019-07-12_112534:740,-0.27301,0.011687999999999999,-0.41232299999999994,-0.004825,-0.004779,0.0032359999999999997,-36.18,6.75,-25.68,3b
2019-07-12_112534:760,-0.270966,0.011169,-0.411804,-0.004642,-0.0052369999999999995,0.003023,-36.18,6.75,-25.68,3b
2019-07-12_112534:780,-0.274536,0.013213999999999998,-0.412811,-0.004764,-0.005756,0.002687,-35.75,6.75,-25.68,3b
2019-07-12_112534:800,-0.274017,0.014740000000000001,-0.411804,-0.004886,-0.006092,0.0027170000000000002,-35.75,6.75,-25.68,3b
2019-07-12_112534:820,-0.275543,0.015228,-0.414337,-0.004947,-0.006092,0.003114,-35.75,6.75,-25.68,3b
2019-07-12_112534:840,-0.274536,0.015228,-0.41485600000000006,-0.004886,-0.006336,0.003053,-36.869999,6.37,-26.0,3b
2019-07-12_112534:860,-0.276062,0.015228,-0.414337,-0.005161,-0.006458,0.003114,-36.869999,6.37,-26.0,3b
2019-07-12_112534:880,-0.278107,0.013702,-0.417389,-0.0051,-0.006214,0.0038159999999999995,-36.560001,5.56,-25.68,3b
2019-07-12_112534:900,-0.276581,0.012695,-0.414337,-0.004947,-0.005634,0.004091,-36.560001,5.56,-25.68,3b
2019-07-12_112534:920,-0.273529,0.012695,-0.414337,-0.005222,-0.005634,0.00403,-36.560001,5.56,-25.68,3b
2019-07-12_112534:940,-0.274017,0.013702,-0.41384899999999997,-0.0052829999999999995,-0.005573,0.004182,-37.25,6.0,-25.68,3b
2019-07-12_112534:960,-0.271484,0.012695,-0.412811,-0.005161,-0.0055119999999999995,0.00403,-37.25,6.0,-25.68,3b
2019-07-12_112534:980,-0.272491,0.011687999999999999,-0.412811,-0.005222,-0.005878,0.003572,-36.560001,6.0,-26.0,3b
2019-07-12_112535:000,-0.273529,0.011687999999999999,-0.411804,-0.0052829999999999995,-0.005817,0.00345,-36.560001,6.0,-26.0,3b
2019-07-12_112535:020,-0.270966,0.011687999999999999,-0.41333000000000003,-0.005222,-0.005817,0.003053,-36.560001,6.0,-26.0,3b
2019-07-12_112535:040,-0.271484,0.012695,-0.41232299999999994,-0.005436,-0.005817,0.002778,-36.18,6.0,-26.0,3b
2019-07-12_112535:060,-0.26944,0.011687999999999999,-0.41333000000000003,-0.005344,-0.006397,0.0027170000000000002,-36.18,6.0,-26.0,3b
2019-07-12_112535:080,-0.277069,0.013702,-0.41485600000000006,-0.0051,-0.006793,0.002382,-36.869999,5.56,-26.370001000000002,3b
2019-07-12_112535:100,-0.276581,0.015747,-0.412811,-0.004886,-0.006548999999999999,0.002687,-36.869999,5.56,-26.370001000000002,3b
2019-07-12_112535:120,-0.278595,0.018799,-0.41485600000000006,-0.004825,-0.006397,0.0029620000000000002,-36.869999,5.56,-26.370001000000002,3b
2019-07-12_112535:140,-0.276062,0.018799,-0.41485600000000006,-0.005497,-0.0060609999999999995,0.002229,-36.560001,6.37,-25.68,3b
2019-07-12_112535:160,-0.270966,0.021332,-0.41586300000000004,-0.005832,-0.006,0.001375,-36.560001,6.37,-25.68,3b
2019-07-12_112535:180,-0.274017,0.021332,-0.416901,-0.006351,-0.006670999999999999,0.0017100000000000001,-36.869999,6.37,-25.18,3b
2019-07-12_112535:200,-0.270966,0.01828,-0.41485600000000006,-0.005954,-0.006397,0.0027170000000000002,-36.869999,6.37,-25.18,3b
2019-07-12_112535:220,-0.270966,0.016753999999999998,-0.416382,-0.005222,-0.0066099999999999996,0.003175,-36.869999,6.37,-25.18,3b
2019-07-12_112535:240,-0.272491,0.019318000000000002,-0.417908,-0.004581,-0.006885,0.003023,-36.869999,5.56,-24.5,3b
2019-07-12_112535:260,-0.272003,0.020844,-0.414337,-0.003879,-0.006670999999999999,0.003023,-36.869999,5.56,-24.5,3b
2019-07-12_112535:280,-0.274017,0.024902,-0.417908,-0.003788,-0.006336,0.0038159999999999995,-36.560001,6.37,-25.68,3b
2019-07-12_112535:300,-0.274017,0.024902,-0.417389,-0.004337,-0.0060609999999999995,0.004274,-36.560001,6.37,-25.68,3b
2019-07-12_112535:320,-0.276581,0.023895,-0.417389,-0.005039,-0.005725,0.004091,-36.560001,6.37,-25.68,3b
2019-07-12_112535:340,-0.272491,0.022369,-0.41586300000000004,-0.005558,-0.00484,0.003908,-36.869999,6.37,-25.68,3b
2019-07-12_112535:360,-0.271484,0.021851,-0.416901,-0.005893,-0.00484,0.004396,-36.869999,6.37,-25.68,3b
2019-07-12_112535:380,-0.26944,0.01828,-0.414337,-0.005771,-0.004718,0.004671,-36.869999,6.37,-26.370001000000002,3b
2019-07-12_112535:400,-0.27301,0.017273,-0.41586300000000004,-0.005558,-0.005115,0.0039689999999999994,-36.869999,6.37,-26.370001000000002,3b
2019-07-12_112535:420,-0.275055,0.017273,-0.416901,-0.004947,-0.005054,0.0039689999999999994,-36.869999,6.37,-26.370001000000002,3b
2019-07-12_112535:440,-0.276581,0.018799,-0.417908,-0.003879,-0.005054,0.004518,-36.869999,5.56,-25.18,3b
2019-07-12_112535:460,-0.274536,0.020844,-0.416382,-0.0036659999999999996,-0.004901,0.004182,-36.869999,5.56,-25.18,3b
2019-07-12_112535:480,-0.273529,0.021851,-0.417908,-0.0037270000000000003,-0.00484,0.003633,-36.869999,5.56,-26.0,3b
2019-07-12_112535:500,-0.275055,0.023895,-0.416382,-0.004123,-0.00484,0.003633,-36.869999,5.56,-26.0,3b
2019-07-12_112535:520,-0.273529,0.022369,-0.416901,-0.004398,-0.004444,0.0038469999999999997,-36.869999,5.56,-26.0,3b
2019-07-12_112535:540,-0.27301,0.022369,-0.41842700000000005,-0.004612,-0.004169,0.00403,-36.18,5.56,-26.370001000000002,3b
2019-07-12_112535:560,-0.275543,0.022858,-0.414337,-0.004612,-0.003467,0.004274,-36.18,5.56,-26.370001000000002,3b
2019-07-12_112535:580,-0.274536,0.023895,-0.415375,-0.004764,-0.003314,0.004854,-37.68,5.56,-26.0,3b
2019-07-12_112535:600,-0.275055,0.023375999999999997,-0.41232299999999994,-0.004978,-0.002796,0.005189,-37.68,5.56,-26.0,3b
2019-07-12_112535:620,-0.273529,0.022369,-0.41232299999999994,-0.004978,-0.002857,0.0058,-37.68,5.56,-26.0,3b
2019-07-12_112535:640,-0.272003,0.01828,-0.41333000000000003,-0.004947,-0.002735,0.006470999999999999,-37.25,5.56,-24.870001000000002,3b
2019-07-12_112535:660,-0.270966,0.016266,-0.411804,-0.004947,-0.0031309999999999997,0.006074,-37.25,5.56,-24.870001000000002,3b
2019-07-12_112535:680,-0.273529,0.014221000000000001,-0.412811,-0.004642,-0.0037719999999999997,0.005586,-37.68,5.56,-25.18,3b
2019-07-12_112535:700,-0.278595,0.013702,-0.410797,-0.004062,-0.003986,0.004945000000000001,-37.68,5.56,-25.18,3b
2019-07-12_112535:720,-0.28112800000000004,0.016753999999999998,-0.411285,-0.0036049999999999997,-0.003833,0.004152,-37.68,5.56,-25.18,3b
2019-07-12_112535:740,-0.282654,0.019806,-0.41232299999999994,-0.0033299999999999996,-0.0035280000000000003,0.003694,-38.060001,5.25,-25.68,3b
2019-07-12_112535:760,-0.276581,0.022369,-0.41232299999999994,-0.0033909999999999995,-0.00307,0.0039689999999999994,-38.060001,5.25,-25.68,3b
2019-07-12_112535:780,-0.276062,0.023895,-0.411285,-0.003879,-0.003467,0.004457,-36.869999,6.75,-25.18,3b
2019-07-12_112535:800,-0.275543,0.020325,-0.40976,-0.004062,-0.0035280000000000003,0.004671,-36.869999,6.75,-25.18,3b
2019-07-12_112535:820,-0.276581,0.017273,-0.41232299999999994,-0.004123,-0.0037719999999999997,0.004854,-36.869999,6.75,-25.18,3b
2019-07-12_112535:840,-0.28418000000000004,0.016266,-0.411804,-0.0036659999999999996,-0.003986,0.005067,-36.869999,5.25,-25.18,3b
2019-07-12_112535:860,-0.279633,0.016753999999999998,-0.411285,-0.0032689999999999998,-0.003589,0.0058,-36.869999,5.25,-25.18,3b
2019-07-12_112535:880,-0.28418000000000004,0.016753999999999998,-0.411804,-0.003116,-0.003436,0.005647,-36.869999,6.0,-23.68,3b
2019-07-12_112535:900,-0.282654,0.017792,-0.409271,-0.0036049999999999997,-0.0032530000000000002,0.005006,-36.869999,6.0,-23.68,3b
2019-07-12_112535:920,-0.278595,0.015747,-0.409271,-0.004123,-0.0031309999999999997,0.004335,-36.869999,6.0,-23.68,3b
2019-07-12_112535:940,-0.280121,0.012695,-0.410278,-0.004398,-0.003711,0.004274,-37.25,6.37,-24.870001000000002,3b
2019-07-12_112535:960,-0.279633,0.011169,-0.40823400000000004,-0.0042450000000000005,-0.003925,0.004518,-37.25,6.37,-24.870001000000002,3b
2019-07-12_112535:980,-0.282166,0.011169,-0.407227,-0.003788,-0.004229999999999999,0.004609,-37.25,5.56,-24.5,3b
2019-07-12_112536:000,-0.28112800000000004,0.011169,-0.40570100000000003,-0.003147,-0.004047,0.004213000000000001,-37.25,5.56,-24.5,3b
2019-07-12_112536:020,-0.280121,0.014740000000000001,-0.406219,-0.002933,-0.004383,0.004274,-37.25,5.56,-24.5,3b
2019-07-12_112536:040,-0.279114,0.016266,-0.407227,-0.00275,-0.004229999999999999,0.004793,-36.869999,5.56,-24.5,3b
2019-07-12_112536:060,-0.277588,0.016266,-0.40570100000000003,-0.003452,-0.004444,0.004915,-36.869999,5.56,-24.5,3b
2019-07-12_112536:080,-0.282166,0.016266,-0.40823400000000004,-0.004062,-0.00484,0.004732,-36.869999,6.0,-24.5,3b
2019-07-12_112536:100,-0.28064,0.013702,-0.406738,-0.004581,-0.004993,0.004609,-36.869999,6.0,-24.5,3b
2019-07-12_112536:120,-0.284698,0.012695,-0.407227,-0.004886,-0.005695,0.004732,-36.869999,6.0,-24.5,3b
2019-07-12_112536:140,-0.284698,0.010651,-0.406738,-0.004947,-0.005725,0.004457,-37.68,6.37,-26.870001000000002,3b
2019-07-12_112536:160,-0.283173,0.014221000000000001,-0.406219,-0.004825,-0.005634,0.0038469999999999997,-37.68,6.37,-26.870001000000002,3b
2019-07-12_112536:180,-0.280121,0.014221000000000001,-0.407227,-0.0051,-0.005756,0.004182,-37.68,6.0,-24.870001000000002,3b
2019-07-12_112536:200,-0.279114,0.015228,-0.405212,-0.004947,-0.006336,0.004671,-37.68,6.0,-24.870001000000002,3b
2019-07-12_112536:220,-0.286224,0.014740000000000001,-0.409271,-0.005375,-0.007006999999999999,0.004396,-37.68,6.0,-24.870001000000002,3b
2019-07-12_112536:240,-0.286224,0.016753999999999998,-0.406738,-0.005832,-0.006793,0.004213000000000001,-37.68,6.37,-24.870001000000002,3b
2019-07-12_112536:260,-0.279633,0.013213999999999998,-0.40976,-0.0061070000000000004,-0.006548999999999999,0.005067,-37.68,6.37,-24.870001000000002,3b
2019-07-12_112536:280,-0.279633,0.011169,-0.409271,-0.0064730000000000005,-0.006854000000000001,0.005647,-37.68,6.75,-24.0,3b
2019-07-12_112536:300,-0.279114,0.008636,-0.40823400000000004,-0.006504,-0.006793,0.004945000000000001,-37.68,6.75,-24.0,3b
2019-07-12_112536:320,-0.280121,0.007111,-0.40774499999999997,-0.005741,-0.007220999999999999,0.004732,-37.68,6.75,-24.0,3b
2019-07-12_112536:340,-0.280121,0.007111,-0.411285,-0.004703,-0.00719,0.004518,-36.869999,6.75,-24.5,3b
2019-07-12_112536:360,-0.278595,0.008118,-0.410797,-0.004062,-0.007587000000000001,0.0038469999999999997,-36.869999,6.75,-24.5,3b
2019-07-12_112536:380,-0.278595,0.011687999999999999,-0.411804,-0.0036659999999999996,-0.007404000000000001,0.0029620000000000002,-37.25,6.75,-25.18,3b
2019-07-12_112536:400,-0.277588,0.016266,-0.411804,-0.0036659999999999996,-0.007404000000000001,0.0025039999999999997,-37.25,6.75,-25.18,3b
2019-07-12_112536:420,-0.278595,0.016266,-0.414337,-0.003879,-0.007281999999999999,0.002229,-37.25,6.75,-25.18,3b
2019-07-12_112536:440,-0.28112800000000004,0.017792,-0.41485600000000006,-0.0042450000000000005,-0.007465,0.002046,-36.869999,6.37,-24.870001000000002,3b
2019-07-12_112536:460,-0.282166,0.017273,-0.41586300000000004,-0.004337,-0.006945999999999999,0.0019850000000000002,-36.869999,6.37,-24.870001000000002,3b
2019-07-12_112536:480,-0.28064,0.017792,-0.41586300000000004,-0.004398,-0.006548999999999999,0.002443,-37.25,6.37,-24.870001000000002,3b
2019-07-12_112536:500,-0.278107,0.016266,-0.415375,-0.004337,-0.005725,0.0029620000000000002,-37.25,6.37,-24.870001000000002,3b
2019-07-12_112536:520,-0.278595,0.014740000000000001,-0.415375,-0.003879,-0.005634,0.003358,-37.25,6.37,-24.870001000000002,3b
2019-07-12_112536:540,-0.278107,0.014221000000000001,-0.41384899999999997,-0.003483,-0.005054,0.00345,-36.869999,6.75,-26.370001000000002,3b
2019-07-12_112536:560,-0.278595,0.013213999999999998,-0.41333000000000003,-0.003116,-0.004718,0.0038469999999999997,-36.869999,6.75,-26.370001000000002,3b
2019-07-12_112536:580,-0.282654,0.014221000000000001,-0.411285,-0.002414,-0.004596,0.003908,-36.869999,6.0,-25.18,3b
2019-07-12_112536:600,-0.282166,0.013702,-0.40976,-0.0022010000000000003,-0.004229999999999999,0.0032359999999999997,-36.869999,6.0,-25.18,3b
2019-07-12_112536:620,-0.28064,0.017792,-0.408752,-0.00214,-0.003925,0.003023,-36.869999,6.0,-25.18,3b
2019-07-12_112536:640,-0.275543,0.016266,-0.407227,-0.002659,-0.004229999999999999,0.0037549999999999997,-37.25,6.37,-24.0,3b
2019-07-12_112536:660,-0.280121,0.013213999999999998,-0.406219,-0.0033299999999999996,-0.004657,0.003694,-37.25,6.37,-24.0,3b
2019-07-12_112536:680,-0.278595,0.010162000000000001,-0.406738,-0.0036049999999999997,-0.0052369999999999995,0.002687,-36.560001,6.0,-25.18,3b
2019-07-12_112536:700,-0.278107,0.010162000000000001,-0.406219,-0.0033909999999999995,-0.005939,0.002229,-36.560001,6.0,-25.18,3b
2019-07-12_112536:720,-0.284698,0.010651,-0.409271,-0.002659,-0.0066099999999999996,0.002107,-36.560001,6.0,-25.18,3b
2019-07-12_112536:740,-0.28775,0.012177,-0.409271,-0.0019260000000000002,-0.006731999999999999,0.002168,-36.560001,6.37,-24.5,3b
2019-07-12_112536:760,-0.285706,0.016266,-0.40976,-0.001621,-0.006214,0.002778,-36.560001,6.37,-24.5,3b
2019-07-12_112536:780,-0.275543,0.018799,-0.408752,-0.0019260000000000002,-0.005756,0.0037549999999999997,-37.25,5.56,-25.18,3b
2019-07-12_112536:800,-0.270477,0.016266,-0.408752,-0.002811,-0.006336,0.004213000000000001,-37.25,5.56,-25.18,3b
2019-07-12_112536:820,-0.274017,0.014740000000000001,-0.409271,-0.0033909999999999995,-0.007129000000000001,0.004091,-37.25,5.56,-25.18,3b
2019-07-12_112536:840,-0.279633,0.010651,-0.411285,-0.003544,-0.007739,0.004274,-37.68,6.37,-25.18,3b
2019-07-12_112536:860,-0.28418000000000004,0.008118,-0.412811,-0.003544,-0.007281999999999999,0.005189,-37.68,6.37,-25.18,3b
2019-07-12_112536:880,-0.282654,0.008636,-0.412811,-0.002994,-0.006548999999999999,0.005403,-36.560001,6.75,-25.68,3b
2019-07-12_112536:900,-0.283173,0.012695,-0.410797,-0.002811,-0.0060609999999999995,0.004548,-36.560001,6.75,-25.68,3b
2019-07-12_112536:920,-0.278595,0.016753999999999998,-0.41232299999999994,-0.003208,-0.0055119999999999995,0.0039689999999999994,-36.560001,6.75,-25.68,3b
2019-07-12_112536:940,-0.27301,0.016753999999999998,-0.411804,-0.004520000000000001,-0.005573,0.004274,-36.560001,6.37,-25.68,3b
2019-07-12_112536:960,-0.273529,0.012695,-0.410797,-0.005344,-0.0060609999999999995,0.005739,-36.560001,6.37,-25.68,3b
2019-07-12_112536:980,-0.28112800000000004,0.007599,-0.41333000000000003,-0.005497,-0.006793,0.006257,-36.869999,6.37,-25.68,3b
2019-07-12_112537:000,-0.278595,0.007599,-0.41232299999999994,-0.0051,-0.006854000000000001,0.005464,-36.869999,6.37,-25.68,3b
2019-07-12_112537:020,-0.282654,0.009125,-0.414337,-0.004612,-0.006945999999999999,0.005861,-36.869999,6.37,-25.68,3b
2019-07-12_112537:040,-0.28112800000000004,0.006592,-0.415375,-0.004123,-0.0066099999999999996,0.0067150000000000005,-36.869999,6.37,-25.18,3b
2019-07-12_112537:060,-0.283173,0.007111,-0.415375,-0.004398,-0.006731999999999999,0.006654,-36.869999,6.37,-25.18,3b
2019-07-12_112537:080,-0.282654,0.006592,-0.415375,-0.004398,-0.005756,0.005861,-37.25,7.06,-24.870001000000002,3b
2019-07-12_112537:100,-0.278107,0.010651,-0.41232299999999994,-0.004581,-0.005359,0.005311,-37.25,7.06,-24.870001000000002,3b
2019-07-12_112537:120,-0.275543,0.009644,-0.41333000000000003,-0.005375,-0.004961999999999999,0.005922,-37.25,7.06,-24.870001000000002,3b
2019-07-12_112537:140,-0.272491,0.006592,-0.411285,-0.005771,-0.0052369999999999995,0.006257,-36.560001,7.06,-24.870001000000002,3b
2019-07-12_112537:160,-0.272003,0.005065999999999999,-0.411804,-0.00629,-0.00539,0.005586,-36.560001,7.06,-24.870001000000002,3b
2019-07-12_112537:180,-0.272491,0.004547,-0.412811,-0.006229,-0.0055119999999999995,0.005464,-36.869999,6.37,-25.18,3b
2019-07-12_112537:200,-0.276062,0.0030210000000000002,-0.41333000000000003,-0.005679999999999999,-0.005451,0.006074,-36.869999,6.37,-25.18,3b
2019-07-12_112537:220,-0.276581,0.005065999999999999,-0.414337,-0.0052829999999999995,-0.005298,0.005678,-36.869999,6.37,-25.18,3b
2019-07-12_112537:240,-0.276581,0.004059,-0.41384899999999997,-0.005039,-0.005054,0.005922,-36.560001,7.06,-24.0,3b
2019-07-12_112537:260,-0.277588,0.004059,-0.414337,-0.004764,-0.004596,0.006044,-36.560001,7.06,-24.0,3b
2019-07-12_112537:280,-0.28064,0.004059,-0.416382,-0.004825,-0.004566,0.004945000000000001,-37.68,6.75,-25.68,3b
2019-07-12_112537:300,-0.285706,0.0035399999999999997,-0.41384899999999997,-0.0051,-0.004321,0.004671,-37.68,6.75,-25.68,3b
2019-07-12_112537:320,-0.287231,0.001007,-0.41333000000000003,-0.004825,-0.003589,0.005067,-37.68,6.75,-25.68,3b
2019-07-12_112537:340,-0.285217,0.0,-0.412811,-0.004520000000000001,-0.0030399999999999997,0.0038159999999999995,-36.869999,7.06,-25.18,3b
2019-07-12_112537:360,-0.279633,0.0035399999999999997,-0.40823400000000004,-0.004123,-0.002857,0.002778,-36.869999,7.06,-25.18,3b
2019-07-12_112537:380,-0.279633,0.005065999999999999,-0.40774499999999997,-0.0033909999999999995,-0.003192,0.002839,-36.869999,7.5,-25.68,3b
2019-07-12_112537:400,-0.278595,0.008118,-0.405212,-0.0036049999999999997,-0.0035280000000000003,0.0027170000000000002,-36.869999,7.5,-25.68,3b
2019-07-12_112537:420,-0.275543,0.008118,-0.406219,-0.003788,-0.00426,0.003053,-36.869999,7.5,-25.68,3b
2019-07-12_112537:440,-0.277069,0.007111,-0.409271,-0.004123,-0.005115,0.002778,-36.869999,7.06,-24.0,3b
2019-07-12_112537:460,-0.277588,0.006072999999999999,-0.408752,-0.004520000000000001,-0.005756,0.002046,-36.869999,7.06,-24.0,3b
2019-07-12_112537:480,-0.28775,0.007599,-0.411804,-0.004764,-0.006488,0.001893,-36.18,6.37,-25.18,3b
2019-07-12_112537:500,-0.28418000000000004,0.006072999999999999,-0.408752,-0.004581,-0.0061530000000000005,0.002565,-36.18,6.37,-25.18,3b
2019-07-12_112537:520,-0.279633,0.0055850000000000006,-0.40823400000000004,-0.004398,-0.005725,0.0034189999999999997,-36.18,6.37,-25.18,3b
2019-07-12_112537:540,-0.274017,0.0055850000000000006,-0.409271,-0.004398,-0.00539,0.0034189999999999997,-36.869999,6.75,-24.870001000000002,3b
2019-07-12_112537:560,-0.269958,0.005065999999999999,-0.40774499999999997,-0.004703,-0.006214,0.002687,-36.869999,6.75,-24.870001000000002,3b
2019-07-12_112537:580,-0.274017,0.004059,-0.410278,-0.004764,-0.006885,0.0026260000000000003,-37.25,6.75,-26.0,3b
2019-07-12_112537:600,-0.276062,0.0025329999999999997,-0.40976,-0.004642,-0.007220999999999999,0.002046,-37.25,6.75,-26.0,3b
2019-07-12_112537:620,-0.277069,0.0035399999999999997,-0.411804,-0.004459,-0.007404000000000001,0.001375,-37.25,6.75,-26.0,3b
2019-07-12_112537:640,-0.277588,0.006072999999999999,-0.41333000000000003,-0.00394,-0.007862000000000001,0.001192,-36.18,6.37,-25.18,3b
2019-07-12_112537:660,-0.279633,0.006592,-0.414337,-0.003544,-0.007801000000000001,0.001893,-36.18,6.37,-25.18,3b
2019-07-12_112537:680,-0.280121,0.007111,-0.41586300000000004,-0.003483,-0.007343000000000001,0.0017100000000000001,-36.869999,6.37,-26.0,3b
2019-07-12_112537:700,-0.278107,0.009125,-0.41485600000000006,-0.004001,-0.007129000000000001,0.001192,-36.869999,6.37,-26.0,3b
2019-07-12_112537:720,-0.276062,0.009125,-0.417389,-0.004062,-0.006854000000000001,0.00229,-36.869999,6.37,-26.0,3b
2019-07-12_112537:740,-0.276062,0.005065999999999999,-0.416901,-0.0037270000000000003,-0.006854000000000001,0.003023,-36.869999,6.75,-23.68,3b
2019-07-12_112537:760,-0.275543,0.0055850000000000006,-0.41586300000000004,-0.003452,-0.006458,0.002168,-36.869999,6.75,-23.68,3b
2019-07-12_112537:780,-0.275543,0.006592,-0.417389,-0.002872,-0.006,0.002382,-36.18,6.75,-25.68,3b
2019-07-12_112537:800,-0.27301,0.007599,-0.414337,-0.002597,-0.0055119999999999995,0.003114,-36.18,6.75,-25.68,3b
2019-07-12_112537:820,-0.272491,0.007111,-0.414337,-0.0027199999999999998,-0.005115,0.003114,-36.18,6.75,-25.68,3b
2019-07-12_112537:840,-0.272003,0.008118,-0.411804,-0.003147,-0.005054,0.003023,-37.25,6.75,-25.18,3b
2019-07-12_112537:860,-0.27301,0.007599,-0.411285,-0.0033299999999999996,-0.004961999999999999,0.003175,-37.25,6.75,-25.18,3b
2019-07-12_112537:880,-0.272491,0.007111,-0.41333000000000003,-0.0036049999999999997,-0.004961999999999999,0.002778,-37.68,7.5,-24.5,3b
2019-07-12_112537:900,-0.274536,0.007599,-0.41232299999999994,-0.003788,-0.004993,0.002687,-37.68,7.5,-24.5,3b
2019-07-12_112537:920,-0.275543,0.008636,-0.414337,-0.003788,-0.005176,0.003053,-37.68,7.5,-24.5,3b
2019-07-12_112537:940,-0.277069,0.009125,-0.41586300000000004,-0.004001,-0.005359,0.003572,-35.75,6.0,-26.0,3b
2019-07-12_112537:960,-0.274017,0.010651,-0.412811,-0.004398,-0.0052369999999999995,0.0039689999999999994,-35.75,6.0,-26.0,3b
2019-07-12_112537:980,-0.276581,0.009125,-0.41586300000000004,-0.004642,-0.005451,0.00403,-36.869999,6.37,-24.870001000000002,3b
2019-07-12_112538:000,-0.279114,0.010651,-0.417389,-0.004947,-0.005573,0.004609,-36.869999,6.37,-24.870001000000002,3b
2019-07-12_112538:020,-0.279114,0.009644,-0.417908,-0.0052829999999999995,-0.005359,0.005128,-36.869999,6.37,-24.870001000000002,3b
2019-07-12_112538:040,-0.280121,0.008118,-0.418915,-0.005222,-0.004901,0.005128,-36.869999,6.75,-24.870001000000002,3b
2019-07-12_112538:060,-0.278595,0.008636,-0.418915,-0.005222,-0.004321,0.004945000000000001,-36.869999,6.75,-24.870001000000002,3b
2019-07-12_112538:080,-0.281647,0.009125,-0.416382,-0.005161,-0.0035280000000000003,0.0058,-36.869999,6.37,-24.870001000000002,3b
2019-07-12_112538:100,-0.28369099999999997,0.009644,-0.415375,-0.005344,-0.002704,0.007203,-36.869999,6.37,-24.870001000000002,3b
2019-07-12_112538:120,-0.282654,0.004059,-0.41232299999999994,-0.005436,-0.002002,0.007448000000000001,-36.869999,6.37,-24.870001000000002,3b
2019-07-12_112538:140,-0.28064,0.004059,-0.410797,-0.005679999999999999,-0.001911,0.006470999999999999,-38.060001,7.06,-25.18,3b
2019-07-12_112538:160,-0.275543,0.0035399999999999997,-0.406738,-0.005497,-0.002124,0.006074,-38.060001,7.06,-25.18,3b
2019-07-12_112538:180,-0.276581,0.0030210000000000002,-0.407227,-0.005679999999999999,-0.002735,0.005311,-37.25,6.37,-24.5,3b
2019-07-12_112538:200,-0.272491,0.0035399999999999997,-0.404694,-0.005771,-0.003436,0.004091,-37.25,6.37,-24.5,3b
2019-07-12_112538:220,-0.269958,0.0035399999999999997,-0.407227,-0.005497,-0.004596,0.003511,-37.25,6.37,-24.5,3b
2019-07-12_112538:240,-0.272491,0.0030210000000000002,-0.40774499999999997,-0.005161,-0.0055119999999999995,0.00345,-36.869999,6.75,-24.870001000000002,3b
2019-07-12_112538:260,-0.275055,0.0030210000000000002,-0.408752,-0.004520000000000001,-0.006275,0.0032359999999999997,-36.869999,6.75,-24.870001000000002,3b
2019-07-12_112538:280,-0.283173,0.005065999999999999,-0.41232299999999994,-0.003879,-0.006336,0.003053,-37.25,6.37,-24.870001000000002,3b
2019-07-12_112538:300,-0.285706,0.008636,-0.40976,-0.003788,-0.005756,0.002839,-37.25,6.37,-24.870001000000002,3b
2019-07-12_112538:320,-0.28112800000000004,0.011169,-0.411285,-0.004062,-0.004444,0.003297,-37.25,6.37,-24.870001000000002,3b
2019-07-12_112538:340,-0.281647,0.013213999999999998,-0.411285,-0.004825,-0.003986,0.003297,-37.25,6.37,-24.870001000000002,3b
2019-07-12_112538:360,-0.278595,0.010651,-0.410797,-0.005497,-0.003925,0.003175,-37.25,6.37,-24.870001000000002,3b
2019-07-12_112538:380,-0.278107,0.009125,-0.411285,-0.005954,-0.004229999999999999,0.003023,-37.25,6.37,-24.0,3b
2019-07-12_112538:400,-0.280121,0.009125,-0.40976,-0.005954,-0.00484,0.003297,-37.25,6.37,-24.0,3b
2019-07-12_112538:420,-0.28369099999999997,0.009125,-0.41384899999999997,-0.005619,-0.004961999999999999,0.003175,-37.25,6.37,-24.0,3b
2019-07-12_112538:440,-0.28775,0.010162000000000001,-0.40976,-0.0052829999999999995,-0.0045049999999999995,0.002778,-37.68,6.37,-24.870001000000002,3b
2019-07-12_112538:460,-0.287231,0.014221000000000001,-0.410797,-0.005344,-0.0038640000000000002,0.003297,-37.68,6.37,-24.870001000000002,3b
2019-07-12_112538:480,-0.282654,0.013213999999999998,-0.411285,-0.005679999999999999,-0.0035280000000000003,0.004945000000000001,-37.68,6.0,-25.18,3b
2019-07-12_112538:500,-0.282166,0.013213999999999998,-0.411285,-0.005954,-0.00365,0.005189,-37.68,6.0,-25.18,3b
2019-07-12_112538:520,-0.287231,0.014221000000000001,-0.41232299999999994,-0.0065650000000000005,-0.003925,0.004518,-37.68,6.0,-25.18,3b
2019-07-12_112538:540,-0.28979499999999997,0.015228,-0.411804,-0.007023000000000001,-0.003711,0.005067,-37.68,6.37,-23.68,3b
2019-07-12_112538:560,-0.28875700000000004,0.013702,-0.409271,-0.007206000000000001,-0.0032530000000000002,0.005983,-37.68,6.37,-23.68,3b
2019-07-12_112538:580,-0.28927600000000003,0.012177,-0.410278,-0.007877,-0.002796,0.006441,-36.869999,6.0,-24.870001000000002,3b
2019-07-12_112538:600,-0.287231,0.009125,-0.406219,-0.007999,-0.002735,0.0069900000000000006,-36.869999,6.0,-24.870001000000002,3b
2019-07-12_112538:620,-0.28418000000000004,0.007599,-0.404694,-0.008152,-0.00307,0.006532,-36.869999,6.0,-24.870001000000002,3b
2019-07-12_112538:640,-0.282166,0.004547,-0.404175,-0.007755,-0.003192,0.005647,-37.68,5.56,-23.68,3b
2019-07-12_112538:660,-0.279633,0.004547,-0.402161,-0.006962,-0.003711,0.005342,-37.68,5.56,-23.68,3b
2019-07-12_112538:680,-0.280121,0.004547,-0.402649,-0.0060149999999999995,-0.004566,0.004915,-38.060001,6.37,-24.0,3b
2019-07-12_112538:700,-0.28112800000000004,0.006072999999999999,-0.402649,-0.005436,-0.004993,0.0037549999999999997,-38.060001,6.37,-24.0,3b
2019-07-12_112538:720,-0.281647,0.010162000000000001,-0.405212,-0.0052829999999999995,-0.005725,0.003023,-38.060001,6.37,-24.0,3b
2019-07-12_112538:740,-0.281647,0.011169,-0.406738,-0.005375,-0.005878,0.0026260000000000003,-38.369999,5.56,-25.18,3b
2019-07-12_112538:760,-0.285706,0.014221000000000001,-0.407227,-0.005741,-0.006,0.002107,-38.369999,5.56,-25.18,3b
2019-07-12_112538:780,-0.285706,0.013702,-0.408752,-0.005893,-0.0060609999999999995,0.0017100000000000001,-37.25,6.0,-24.870001000000002,3b
2019-07-12_112538:800,-0.283173,0.013702,-0.407227,-0.005558,-0.005756,0.001436,-37.25,6.0,-24.870001000000002,3b
2019-07-12_112538:820,-0.282654,0.013702,-0.407227,-0.005222,-0.0055119999999999995,0.0017100000000000001,-37.25,6.0,-24.870001000000002,3b
2019-07-12_112538:840,-0.281647,0.017273,-0.406738,-0.005161,-0.005451,0.002443,-38.060001,5.56,-24.0,3b
2019-07-12_112538:860,-0.279633,0.018799,-0.40570100000000003,-0.0052829999999999995,-0.005695,0.0029,-38.060001,5.56,-24.0,3b
2019-07-12_112538:880,-0.283173,0.01828,-0.40774499999999997,-0.005375,-0.005878,0.0029,-38.060001,6.0,-22.870001000000002,3b
2019-07-12_112538:900,-0.28875700000000004,0.019318000000000002,-0.408752,-0.006076,-0.005359,0.003175,-38.060001,6.0,-22.870001000000002,3b
2019-07-12_112538:920,-0.28775,0.01828,-0.408752,-0.0061070000000000004,-0.005054,0.003633,-38.060001,6.0,-22.870001000000002,3b
2019-07-12_112538:940,-0.288269,0.018799,-0.407227,-0.0067480000000000005,-0.004383,0.0029620000000000002,-37.68,6.0,-24.0,3b
2019-07-12_112538:960,-0.282654,0.016266,-0.406738,-0.0067480000000000005,-0.004566,0.00229,-37.68,6.0,-24.0,3b
2019-07-12_112538:980,-0.28112800000000004,0.014740000000000001,-0.407227,-0.0064730000000000005,-0.004779,0.002168,-38.060001,4.87,-23.68,3b
2019-07-12_112539:000,-0.283173,0.015747,-0.40823400000000004,-0.005619,-0.005298,0.0026260000000000003,-38.060001,4.87,-23.68,3b
2019-07-12_112539:020,-0.282654,0.016753999999999998,-0.405212,-0.004886,-0.005298,0.0027170000000000002,-38.060001,4.87,-23.68,3b
2019-07-12_112539:040,-0.288269,0.021332,-0.408752,-0.004642,-0.005298,0.002778,-37.68,5.56,-23.68,3b
2019-07-12_112539:060,-0.288269,0.021851,-0.406219,-0.004886,-0.00484,0.003175,-37.68,5.56,-23.68,3b
2019-07-12_112539:080,-0.286224,0.022858,-0.40774499999999997,-0.0052829999999999995,-0.004961999999999999,0.003572,-38.369999,6.0,-24.0,3b
2019-07-12_112539:100,-0.286224,0.022369,-0.407227,-0.005954,-0.004596,0.003694,-38.369999,6.0,-24.0,3b
2019-07-12_112539:120,-0.285217,0.021332,-0.40570100000000003,-0.0060149999999999995,-0.004718,0.00345,-38.369999,6.0,-24.0,3b
2019-07-12_112539:140,-0.28674299999999997,0.022858,-0.406738,-0.005771,-0.004566,0.003572,-36.869999,6.0,-24.870001000000002,3b
2019-07-12_112539:160,-0.288269,0.020844,-0.405212,-0.005741,-0.004596,0.00403,-36.869999,6.0,-24.870001000000002,3b
2019-07-12_112539:180,-0.286224,0.022369,-0.407227,-0.005497,-0.004596,0.00403,-38.060001,5.56,-23.68,3b
2019-07-12_112539:200,-0.288269,0.022858,-0.40823400000000004,-0.0051,-0.004657,0.003175,-38.060001,5.56,-23.68,3b
2019-07-12_112539:220,-0.290283,0.022858,-0.406738,-0.0051,-0.004779,0.003633,-38.060001,5.56,-23.68,3b
2019-07-12_112539:240,-0.291321,0.023895,-0.40774499999999997,-0.004947,-0.004229999999999999,0.004396,-38.060001,5.56,-24.5,3b
2019-07-12_112539:260,-0.28979499999999997,0.022369,-0.404694,-0.004459,-0.00365,0.004854,-38.060001,5.56,-24.5,3b
2019-07-12_112539:280,-0.288269,0.023895,-0.406219,-0.004459,-0.003711,0.004732,-38.060001,5.25,-24.0,3b
2019-07-12_112539:300,-0.286224,0.022858,-0.404175,-0.004275999999999999,-0.003833,0.005647,-38.060001,5.25,-24.0,3b
2019-07-12_112539:320,-0.286224,0.020844,-0.402161,-0.004062,-0.004444,0.005403,-38.060001,5.25,-24.0,3b
2019-07-12_112539:340,-0.288269,0.018799,-0.402649,-0.003849,-0.0045049999999999995,0.005067,-38.060001,6.0,-23.68,3b
2019-07-12_112539:360,-0.288269,0.019318000000000002,-0.399597,-0.003544,-0.004901,0.005464,-38.060001,6.0,-23.68,3b
2019-07-12_112539:380,-0.287231,0.018799,-0.401642,-0.0033299999999999996,-0.005115,0.005586,-38.060001,6.0,-24.0,3b
2019-07-12_112539:400,-0.285706,0.020844,-0.402649,-0.0036049999999999997,-0.005451,0.005128,-38.060001,6.0,-24.0,3b
2019-07-12_112539:420,-0.285706,0.021851,-0.40316799999999997,-0.003849,-0.005725,0.00525,-38.060001,6.0,-24.0,3b
2019-07-12_112539:440,-0.28927600000000003,0.020844,-0.40368699999999996,-0.004062,-0.005756,0.005464,-37.68,6.37,-25.18,3b
2019-07-12_112539:460,-0.291321,0.017792,-0.40368699999999996,-0.004459,-0.005725,0.006257,-37.68,6.37,-25.18,3b
2019-07-12_112539:480,-0.290283,0.009644,-0.404694,-0.004520000000000001,-0.0055119999999999995,0.006257,-38.68,4.87,-25.68,3b
2019-07-12_112539:500,-0.28979499999999997,0.011169,-0.404175,-0.003452,-0.00539,0.006196,-38.68,4.87,-25.68,3b
2019-07-12_112539:520,-0.29538000000000003,0.012177,-0.40316799999999997,-0.003147,-0.00539,0.005861,-38.68,4.87,-25.68,3b
2019-07-12_112539:540,-0.29486100000000004,0.014221000000000001,-0.404694,-0.003116,-0.004596,0.005464,-38.060001,6.37,-24.370001000000002,3b
2019-07-12_112539:560,-0.29232800000000003,0.016266,-0.402161,-0.0032689999999999998,-0.004444,0.005342,-38.060001,6.37,-24.370001000000002,3b
2019-07-12_112539:580,-0.288269,0.017273,-0.401123,-0.0037270000000000003,-0.004779,0.005525,-37.25,6.0,-22.870001000000002,3b
2019-07-12_112539:600,-0.283173,0.017273,-0.401123,-0.004337,-0.0055119999999999995,0.005983,-37.25,6.0,-22.870001000000002,3b
2019-07-12_112539:620,-0.285217,0.014740000000000001,-0.401642,-0.004520000000000001,-0.006548999999999999,0.005983,-37.25,6.0,-22.870001000000002,3b
2019-07-12_112539:640,-0.29284699999999997,0.011687999999999999,-0.404694,-0.004703,-0.006854000000000001,0.006135,-37.68,6.37,-24.0,3b
2019-07-12_112539:660,-0.29284699999999997,0.011169,-0.402649,-0.004581,-0.006670999999999999,0.006196,-37.68,6.37,-24.0,3b
2019-07-12_112539:680,-0.29742399999999997,0.010651,-0.406738,-0.004764,-0.0061530000000000005,0.005983,-37.68,6.0,-24.870001000000002,3b
2019-07-12_112539:700,-0.29284699999999997,0.011169,-0.405212,-0.004947,-0.005695,0.005006,-37.68,6.0,-24.870001000000002,3b
2019-07-12_112539:720,-0.288269,0.010651,-0.406738,-0.0052829999999999995,-0.005634,0.005006,-37.68,6.0,-24.870001000000002,3b
2019-07-12_112539:740,-0.291321,0.010162000000000001,-0.406738,-0.005375,-0.005573,0.004945000000000001,-37.68,6.0,-23.18,3b
2019-07-12_112539:760,-0.28979499999999997,0.009644,-0.402649,-0.0052829999999999995,-0.005298,0.004793,-37.68,6.0,-23.18,3b
2019-07-12_112539:780,-0.29232800000000003,0.010162000000000001,-0.404694,-0.005375,-0.005054,0.004548,-37.68,6.37,-24.870001000000002,3b
2019-07-12_112539:800,-0.28979499999999997,0.010162000000000001,-0.402649,-0.005679999999999999,-0.004718,0.004335,-37.68,6.37,-24.870001000000002,3b
2019-07-12_112539:820,-0.288269,0.010162000000000001,-0.401642,-0.005954,-0.004961999999999999,0.004274,-37.68,6.37,-24.870001000000002,3b
2019-07-12_112539:840,-0.28418000000000004,0.009644,-0.402649,-0.005954,-0.0052369999999999995,0.004213000000000001,-37.68,6.37,-24.5,3b
2019-07-12_112539:860,-0.282654,0.009125,-0.401642,-0.005771,-0.006458,0.003175,-37.68,6.37,-24.5,3b
2019-07-12_112539:880,-0.282654,0.008118,-0.40316799999999997,-0.005741,-0.006731999999999999,0.003023,-37.25,6.0,-24.370001000000002,3b
2019-07-12_112539:900,-0.290283,0.009125,-0.402649,-0.004947,-0.007404000000000001,0.003358,-37.25,6.0,-24.370001000000002,3b
2019-07-12_112539:920,-0.285706,0.010651,-0.405212,-0.004520000000000001,-0.007220999999999999,0.0027170000000000002,-37.25,6.0,-24.370001000000002,3b
2019-07-12_112539:940,-0.28875700000000004,0.011687999999999999,-0.406219,-0.004703,-0.00719,0.00229,-38.060001,6.0,-22.870001000000002,3b
2019-07-12_112539:960,-0.28875700000000004,0.014221000000000001,-0.406738,-0.004886,-0.006731999999999999,0.0016489999999999999,-38.060001,6.0,-22.870001000000002,3b
2019-07-12_112539:980,-0.288269,0.015747,-0.408752,-0.004825,-0.006336,0.002382,-37.68,6.0,-24.0,3b
2019-07-12_112540:000,-0.284698,0.014221000000000001,-0.407227,-0.004978,-0.005878,0.002687,-37.68,6.0,-24.0,3b
2019-07-12_112540:020,-0.28674299999999997,0.016266,-0.40823400000000004,-0.005039,-0.006214,0.001893,-37.68,6.0,-24.0,3b
2019-07-12_112540:040,-0.28674299999999997,0.016266,-0.40823400000000004,-0.004978,-0.005939,0.002107,-38.060001,5.25,-24.870001000000002,3b
2019-07-12_112540:060,-0.28927600000000003,0.015747,-0.408752,-0.004703,-0.005756,0.00229,-38.060001,5.25,-24.870001000000002,3b
2019-07-12_112540:080,-0.28979499999999997,0.015228,-0.40976,-0.004612,-0.005359,0.001893,-37.25,6.37,-25.18,3b
2019-07-12_112540:100,-0.290283,0.017273,-0.40823400000000004,-0.004275999999999999,-0.004961999999999999,0.002107,-37.25,6.37,-25.18,3b
2019-07-12_112540:120,-0.290283,0.017792,-0.40823400000000004,-0.003879,-0.004444,0.002229,-37.25,6.37,-25.18,3b
2019-07-12_112540:140,-0.29232800000000003,0.019806,-0.406219,-0.004001,-0.00426,0.002229,-37.68,6.75,-24.870001000000002,3b
2019-07-12_112540:160,-0.28927600000000003,0.019318000000000002,-0.404175,-0.004062,-0.0037719999999999997,0.002839,-37.68,6.75,-24.870001000000002,3b
2019-07-12_112540:180,-0.288269,0.017792,-0.40316799999999997,-0.00394,-0.0038640000000000002,0.003297,-37.68,6.75,-24.870001000000002,3b
2019-07-12_112540:200,-0.285706,0.016753999999999998,-0.402161,-0.003849,-0.0045049999999999995,0.0029,-38.369999,6.0,-24.0,3b
2019-07-12_112540:220,-0.285217,0.016753999999999998,-0.401123,-0.0033909999999999995,-0.004961999999999999,0.0027170000000000002,-38.369999,6.0,-24.0,3b
2019-07-12_112540:240,-0.285706,0.01828,-0.402161,-0.0032689999999999998,-0.005176,0.003053,-37.68,6.37,-23.68,3b
2019-07-12_112540:260,-0.288269,0.017792,-0.40316799999999997,-0.003208,-0.005817,0.003511,-37.68,6.37,-23.68,3b
2019-07-12_112540:280,-0.290283,0.017792,-0.40316799999999997,-0.0033299999999999996,-0.0060609999999999995,0.0034189999999999997,-36.869999,6.37,-24.0,3b
2019-07-12_112540:300,-0.28927600000000003,0.018799,-0.402649,-0.0037270000000000003,-0.006092,0.003114,-36.869999,6.37,-24.0,3b
2019-07-12_112540:320,-0.290802,0.019806,-0.40368699999999996,-0.003879,-0.006,0.003511,-36.869999,6.37,-24.0,3b
2019-07-12_112540:340,-0.287231,0.018799,-0.40316799999999997,-0.004062,-0.005756,0.004274,-37.25,4.87,-24.5,3b
2019-07-12_112540:360,-0.286224,0.015747,-0.402649,-0.004123,-0.005878,0.004396,-37.25,4.87,-24.5,3b
2019-07-12_112540:380,-0.290283,0.016266,-0.404694,-0.004001,-0.005939,0.004457,-38.060001,4.87,-23.18,3b
2019-07-12_112540:400,-0.28927600000000003,0.014740000000000001,-0.404694,-0.003879,-0.006,0.005067,-38.060001,4.87,-23.18,3b
2019-07-12_112540:420,-0.29232800000000003,0.016753999999999998,-0.405212,-0.004275999999999999,-0.005725,0.005189,-38.060001,4.87,-23.18,3b
2019-07-12_112540:440,-0.290283,0.015747,-0.406219,-0.004612,-0.005634,0.004671,-38.060001,6.37,-24.0,3b
2019-07-12_112540:460,-0.288269,0.015228,-0.404694,-0.004978,-0.005878,0.004396,-38.060001,6.37,-24.0,3b
2019-07-12_112540:480,-0.290283,0.015747,-0.406219,-0.0051,-0.006,0.004793,-37.68,5.56,-24.370001000000002,3b
2019-07-12_112540:500,-0.28674299999999997,0.014740000000000001,-0.404175,-0.004764,-0.006,0.005983,-37.68,5.56,-24.370001000000002,3b
2019-07-12_112540:520,-0.288269,0.013213999999999998,-0.407227,-0.004825,-0.0060609999999999995,0.005922,-37.68,5.56,-24.370001000000002,3b
2019-07-12_112540:540,-0.288269,0.013702,-0.405212,-0.004947,-0.0055119999999999995,0.0058,-36.869999,6.0,-24.870001000000002,3b
2019-07-12_112540:560,-0.28875700000000004,0.012695,-0.401642,-0.004947,-0.005115,0.006135,-36.869999,6.0,-24.870001000000002,3b
2019-07-12_112540:580,-0.287231,0.013213999999999998,-0.404175,-0.005161,-0.004961999999999999,0.006441,-36.869999,6.0,-24.870001000000002,3b
2019-07-12_112540:600,-0.28369099999999997,0.012695,-0.40368699999999996,-0.005497,-0.004901,0.005861,-37.68,5.56,-23.18,3b
2019-07-12_112540:620,-0.284698,0.012177,-0.404694,-0.005619,-0.00539,0.005861,-37.68,5.56,-23.18,3b
2019-07-12_112540:640,-0.28674299999999997,0.013702,-0.405212,-0.005771,-0.005573,0.006074,-38.369999,6.0,-24.0,3b
