timestamp,AccX,AccY,AccZ,GyroX,GyroY,GyroZ,MagX,MagY,MagZ,Activity
2019-07-12_112403:000,-0.500275,0.012177,-0.053863999999999995,-0.004825,-0.005451,0.004274,-54.060001,-21.059998999999998,-6.37,2a
2019-07-12_112403:020,-0.500275,0.012695,-0.053863999999999995,-0.004703,-0.005176,0.004396,-53.75,-20.68,-6.37,2a
2019-07-12_112403:040,-0.497742,0.012695,-0.05285599999999999,-0.004947,-0.004993,0.004457,-53.75,-20.68,-6.37,2a
2019-07-12_112403:060,-0.501801,0.010651,-0.05438200000000001,-0.004978,-0.005298,0.004548,-54.060001,-21.059998999999998,-7.56,2a
2019-07-12_112403:080,-0.497742,0.010162000000000001,-0.051849,-0.005222,-0.004961999999999999,0.004152,-54.060001,-21.059998999999998,-7.56,2a
2019-07-12_112403:100,-0.497742,0.009644,-0.05285599999999999,-0.005375,-0.004901,0.003694,-54.060001,-21.059998999999998,-7.56,2a
2019-07-12_112403:120,-0.49823,0.010651,-0.053863999999999995,-0.004978,-0.004993,0.003114,-54.5,-21.870001000000002,-6.37,2a
2019-07-12_112403:140,-0.496216,0.012177,-0.05285599999999999,-0.004886,-0.0052369999999999995,0.003908,-54.5,-21.870001000000002,-6.37,2a
2019-07-12_112403:160,-0.496704,0.013213999999999998,-0.05285599999999999,-0.004642,-0.005451,0.004732,-53.75,-20.68,-6.37,2a
2019-07-12_112403:180,-0.49722299999999997,0.011687999999999999,-0.053863999999999995,-0.004581,-0.0055119999999999995,0.004518,-53.75,-20.68,-6.37,2a
2019-07-12_112403:200,-0.498749,0.013213999999999998,-0.053863999999999995,-0.004764,-0.0052369999999999995,0.00403,-53.75,-20.68,-6.37,2a
2019-07-12_112403:220,-0.501282,0.012695,-0.052338,-0.004978,-0.005176,0.003908,-53.75,-20.68,-6.37,2a
2019-07-12_112403:240,-0.501801,0.010651,-0.051330999999999995,-0.004978,-0.00484,0.003908,-53.75,-20.68,-6.37,2a
2019-07-12_112403:260,-0.500275,0.011169,-0.051849,-0.005161,-0.004383,0.003694,-53.369999,-21.059998999999998,-5.56,2a
2019-07-12_112403:280,-0.498749,0.010651,-0.050842,-0.004886,-0.004229999999999999,0.0038159999999999995,-53.369999,-21.059998999999998,-5.56,2a
2019-07-12_112403:300,-0.496704,0.012177,-0.050842,-0.004642,-0.004444,0.0038159999999999995,-53.369999,-21.059998999999998,-5.56,2a
2019-07-12_112403:320,-0.495697,0.014221000000000001,-0.051330999999999995,-0.004520000000000001,-0.004718,0.003908,-53.369999,-21.5,-6.37,2a
2019-07-12_112403:340,-0.496216,0.015228,-0.049805,-0.004581,-0.005054,0.004671,-53.369999,-21.5,-6.37,2a
2019-07-12_112403:360,-0.49722299999999997,0.012177,-0.051849,-0.004703,-0.00539,0.004793,-53.75,-21.059998999999998,-6.37,2a
2019-07-12_112403:380,-0.49926800000000005,0.015228,-0.050842,-0.004978,-0.0055119999999999995,0.003511,-53.75,-21.059998999999998,-6.37,2a
2019-07-12_112403:400,-0.498749,0.015228,-0.051330999999999995,-0.005161,-0.0055119999999999995,0.003694,-53.75,-21.059998999999998,-6.37,2a
2019-07-12_112403:420,-0.49926800000000005,0.011169,-0.051330999999999995,-0.005161,-0.005451,0.004854,-53.369999,-20.68,-6.0,2a
2019-07-12_112403:440,-0.49722299999999997,0.012177,-0.051330999999999995,-0.005222,-0.005573,0.004732,-53.369999,-20.68,-6.0,2a
2019-07-12_112403:460,-0.49823,0.012177,-0.051849,-0.0051,-0.005298,0.004182,-53.369999,-21.5,-6.75,2a
2019-07-12_112403:480,-0.497742,0.012695,-0.051849,-0.005039,-0.00539,0.004152,-53.369999,-21.5,-6.75,2a
2019-07-12_112403:500,-0.49975600000000003,0.010651,-0.052338,-0.005039,-0.0055119999999999995,0.00403,-53.369999,-21.5,-6.75,2a
2019-07-12_112403:520,-0.500275,0.011169,-0.052338,-0.005222,-0.005359,0.0037549999999999997,-54.060001,-21.059998999999998,-5.56,2a
2019-07-12_112403:540,-0.500275,0.011687999999999999,-0.051849,-0.004825,-0.005298,0.0038469999999999997,-54.060001,-21.059998999999998,-5.56,2a
2019-07-12_112403:560,-0.498749,0.011687999999999999,-0.051849,-0.004764,-0.005176,0.0037549999999999997,-53.75,-20.68,-6.75,2a
2019-07-12_112403:580,-0.49823,0.013213999999999998,-0.051849,-0.004337,-0.005298,0.0037549999999999997,-53.75,-20.68,-6.75,2a
2019-07-12_112403:600,-0.49823,0.014740000000000001,-0.05285599999999999,-0.004459,-0.00539,0.004182,-53.75,-20.68,-6.75,2a
2019-07-12_112403:620,-0.49823,0.014221000000000001,-0.050842,-0.004520000000000001,-0.00539,0.004609,-54.060001,-21.059998999999998,-6.0,2a
2019-07-12_112403:640,-0.498749,0.014740000000000001,-0.050323,-0.004764,-0.0055119999999999995,0.004396,-54.060001,-21.059998999999998,-6.0,2a
2019-07-12_112403:660,-0.49975600000000003,0.012177,-0.051330999999999995,-0.004947,-0.00539,0.004274,-54.060001,-20.68,-6.37,2a
2019-07-12_112403:680,-0.500275,0.012177,-0.050323,-0.0052829999999999995,-0.005298,0.004335,-54.060001,-20.68,-6.37,2a
2019-07-12_112403:700,-0.49975600000000003,0.011687999999999999,-0.050842,-0.005558,-0.005176,0.004213000000000001,-54.060001,-20.68,-6.37,2a
2019-07-12_112403:720,-0.498749,0.010651,-0.051849,-0.005344,-0.005176,0.004213000000000001,-53.75,-20.68,-6.0,2a
2019-07-12_112403:740,-0.497742,0.011169,-0.050842,-0.004947,-0.004993,0.004091,-53.75,-20.68,-6.0,2a
2019-07-12_112403:760,-0.49722299999999997,0.011169,-0.051330999999999995,-0.004886,-0.005359,0.004091,-53.369999,-21.059998999999998,-5.18,2a
2019-07-12_112403:780,-0.49823,0.011687999999999999,-0.049316000000000006,-0.004581,-0.005359,0.0039689999999999994,-53.369999,-21.059998999999998,-5.18,2a
2019-07-12_112403:800,-0.49975600000000003,0.012177,-0.050323,-0.004581,-0.005451,0.00403,-53.369999,-21.059998999999998,-5.18,2a
2019-07-12_112403:820,-0.498749,0.012695,-0.050323,-0.004581,-0.005451,0.003908,-54.060001,-20.68,-5.56,2a
2019-07-12_112403:840,-0.49975600000000003,0.013213999999999998,-0.050323,-0.004642,-0.005298,0.00403,-54.060001,-20.68,-5.56,2a
2019-07-12_112403:860,-0.49722299999999997,0.014221000000000001,-0.049316000000000006,-0.004947,-0.005359,0.0038469999999999997,-53.75,-20.68,-5.56,2a
2019-07-12_112403:880,-0.497742,0.012695,-0.049805,-0.005039,-0.005359,0.0038469999999999997,-53.75,-20.68,-5.56,2a
2019-07-12_112403:900,-0.497742,0.013702,-0.051330999999999995,-0.0051,-0.005451,0.003908,-53.75,-20.68,-5.56,2a
2019-07-12_112403:920,-0.49975600000000003,0.011169,-0.050323,-0.005161,-0.005756,0.004274,-53.369999,-22.18,-5.56,2a
2019-07-12_112403:940,-0.501282,0.012177,-0.051330999999999995,-0.004978,-0.0055119999999999995,0.004213000000000001,-53.369999,-22.18,-5.56,2a
2019-07-12_112403:960,-0.498749,0.013213999999999998,-0.048798,-0.005161,-0.005176,0.004213000000000001,-53.369999,-21.059998999999998,-6.37,2a
2019-07-12_112403:980,-0.501282,0.012695,-0.049316000000000006,-0.004886,-0.004993,0.004396,-53.369999,-21.059998999999998,-6.37,2a
2019-07-12_112404:000,-0.49823,0.011687999999999999,-0.048279,-0.005039,-0.00484,0.004152,-53.369999,-21.059998999999998,-6.37,2a
2019-07-12_112404:020,-0.496704,0.009644,-0.051330999999999995,-0.004947,-0.005115,0.003511,-53.0,-21.5,-5.56,2a
2019-07-12_112404:040,-0.497742,0.012695,-0.052338,-0.004825,-0.005359,0.0029620000000000002,-53.0,-21.5,-5.56,2a
2019-07-12_112404:060,-0.497742,0.013702,-0.051330999999999995,-0.004642,-0.005725,0.003511,-54.060001,-21.5,-5.18,2a
2019-07-12_112404:080,-0.49975600000000003,0.012177,-0.049805,-0.004398,-0.005695,0.004793,-54.060001,-21.5,-5.18,2a
2019-07-12_112404:100,-0.497742,0.014221000000000001,-0.050842,-0.004337,-0.005634,0.004396,-54.060001,-21.5,-5.18,2a
2019-07-12_112404:120,-0.49926800000000005,0.014740000000000001,-0.051330999999999995,-0.004612,-0.005298,0.0039689999999999994,-52.560001,-21.059998999999998,-5.18,2a
2019-07-12_112404:140,-0.501282,0.012695,-0.050323,-0.004886,-0.005176,0.0039689999999999994,-52.560001,-21.059998999999998,-5.18,2a
2019-07-12_112404:160,-0.502808,0.013213999999999998,-0.049316000000000006,-0.0051,-0.004901,0.0037549999999999997,-53.369999,-21.5,-5.18,2a
2019-07-12_112404:180,-0.501282,0.012695,-0.048279,-0.005375,-0.004596,0.003694,-53.369999,-21.5,-5.18,2a
2019-07-12_112404:200,-0.49975600000000003,0.012177,-0.048798,-0.005039,-0.004566,0.0039689999999999994,-53.369999,-21.5,-5.18,2a
2019-07-12_112404:220,-0.49823,0.011169,-0.047272,-0.004642,-0.0045049999999999995,0.003908,-53.0,-21.5,-6.0,2a
2019-07-12_112404:240,-0.496704,0.014740000000000001,-0.048798,-0.004398,-0.004779,0.0039689999999999994,-53.0,-21.5,-6.0,2a
2019-07-12_112404:260,-0.495697,0.014221000000000001,-0.046265,-0.004337,-0.00539,0.004518,-54.060001,-21.059998999999998,-6.37,2a
2019-07-12_112404:280,-0.495697,0.011687999999999999,-0.047791,-0.004459,-0.005634,0.004732,-54.060001,-21.059998999999998,-6.37,2a
2019-07-12_112404:300,-0.498749,0.015228,-0.048279,-0.004642,-0.005878,0.00345,-54.060001,-21.059998999999998,-6.37,2a
2019-07-12_112404:320,-0.497742,0.016266,-0.049805,-0.004947,-0.005878,0.003572,-53.0,-21.5,-6.75,2a
2019-07-12_112404:340,-0.498749,0.011687999999999999,-0.048279,-0.004947,-0.0060609999999999995,0.004793,-53.0,-21.5,-6.75,2a
2019-07-12_112404:360,-0.498749,0.012695,-0.050842,-0.005039,-0.005695,0.004152,-54.060001,-21.5,-6.0,2a
2019-07-12_112404:380,-0.49926800000000005,0.013213999999999998,-0.048798,-0.004978,-0.005634,0.0039689999999999994,-54.060001,-21.5,-6.0,2a
2019-07-12_112404:400,-0.497742,0.013213999999999998,-0.049316000000000006,-0.004886,-0.005725,0.0039689999999999994,-54.060001,-21.5,-6.0,2a
2019-07-12_112404:420,-0.497742,0.012695,-0.049316000000000006,-0.004978,-0.005817,0.0038469999999999997,-53.75,-21.870001000000002,-5.56,2a
2019-07-12_112404:440,-0.49975600000000003,0.012695,-0.048279,-0.004978,-0.005817,0.0038159999999999995,-53.75,-21.870001000000002,-5.56,2a
2019-07-12_112404:460,-0.500793,0.012695,-0.050323,-0.004642,-0.005756,0.0038159999999999995,-52.560001,-22.18,-6.37,2a
2019-07-12_112404:480,-0.500275,0.012177,-0.048798,-0.004275999999999999,-0.0055119999999999995,0.00345,-52.560001,-22.18,-6.37,2a
2019-07-12_112404:500,-0.49926800000000005,0.015228,-0.049805,-0.0042450000000000005,-0.005573,0.0038469999999999997,-52.560001,-22.18,-6.37,2a
2019-07-12_112404:520,-0.49926800000000005,0.014740000000000001,-0.050323,-0.004184,-0.0055119999999999995,0.004609,-53.0,-21.059998999999998,-6.0,2a
2019-07-12_112404:540,-0.49823,0.016266,-0.049805,-0.004398,-0.0055119999999999995,0.004457,-53.0,-21.059998999999998,-6.0,2a
2019-07-12_112404:560,-0.49823,0.01828,-0.049805,-0.004825,-0.0055119999999999995,0.004335,-53.0,-21.870001000000002,-4.75,2a
2019-07-12_112404:580,-0.49926800000000005,0.015747,-0.048798,-0.005161,-0.00539,0.004396,-53.0,-21.870001000000002,-4.75,2a
2019-07-12_112404:600,-0.49975600000000003,0.015228,-0.049316000000000006,-0.005497,-0.005359,0.004396,-53.0,-21.870001000000002,-4.75,2a
2019-07-12_112404:620,-0.49975600000000003,0.012177,-0.049316000000000006,-0.005558,-0.005115,0.004152,-53.369999,-21.5,-6.75,2a
2019-07-12_112404:640,-0.49926800000000005,0.010651,-0.049805,-0.005344,-0.005176,0.004274,-53.369999,-21.5,-6.75,2a
2019-07-12_112404:660,-0.49926800000000005,0.010162000000000001,-0.049316000000000006,-0.004978,-0.005298,0.004213000000000001,-53.0,-21.5,-6.0,2a
2019-07-12_112404:680,-0.49823,0.013213999999999998,-0.047791,-0.004581,-0.005115,0.004152,-53.0,-21.5,-6.0,2a
2019-07-12_112404:700,-0.498749,0.012177,-0.049316000000000006,-0.0042450000000000005,-0.005451,0.004213000000000001,-53.0,-21.5,-6.0,2a
2019-07-12_112404:720,-0.49975600000000003,0.013213999999999998,-0.048279,-0.004275999999999999,-0.005359,0.004182,-54.060001,-21.5,-6.37,2a
2019-07-12_112404:740,-0.49926800000000005,0.013702,-0.046752999999999996,-0.0042450000000000005,-0.005359,0.00403,-54.060001,-21.5,-6.37,2a
2019-07-12_112404:760,-0.49926800000000005,0.014740000000000001,-0.048798,-0.004612,-0.005298,0.004182,-53.0,-21.870001000000002,-5.56,2a
2019-07-12_112404:780,-0.49975600000000003,0.014221000000000001,-0.047791,-0.004825,-0.0052369999999999995,0.00403,-53.0,-21.870001000000002,-5.56,2a
2019-07-12_112404:800,-0.498749,0.013702,-0.048279,-0.0051,-0.005451,0.003908,-53.0,-21.870001000000002,-5.56,2a
2019-07-12_112404:820,-0.49722299999999997,0.013702,-0.050323,-0.005161,-0.005634,0.00403,-54.060001,-21.5,-5.56,2a
2019-07-12_112404:840,-0.497742,0.011169,-0.049316000000000006,-0.0051,-0.005725,0.004091,-54.060001,-21.5,-5.56,2a
2019-07-12_112404:860,-0.49823,0.012695,-0.049316000000000006,-0.004703,-0.005817,0.004152,-53.369999,-21.870001000000002,-5.56,2a
2019-07-12_112404:880,-0.501282,0.013213999999999998,-0.048279,-0.004703,-0.005756,0.004396,-53.369999,-21.870001000000002,-5.56,2a
2019-07-12_112404:900,-0.501282,0.011687999999999999,-0.047791,-0.004275999999999999,-0.005573,0.004274,-53.369999,-21.870001000000002,-5.56,2a
2019-07-12_112404:920,-0.497742,0.013702,-0.047272,-0.004612,-0.0052369999999999995,0.004182,-52.560001,-21.5,-6.0,2a
2019-07-12_112404:940,-0.49823,0.013213999999999998,-0.049316000000000006,-0.004459,-0.005451,0.004396,-52.560001,-21.5,-6.0,2a
2019-07-12_112404:960,-0.49722299999999997,0.013702,-0.047272,-0.004886,-0.0052369999999999995,0.0038159999999999995,-53.369999,-21.059998999999998,-6.0,2a
2019-07-12_112404:980,-0.495697,0.012695,-0.048798,-0.004825,-0.005573,0.003053,-53.369999,-21.059998999999998,-6.0,2a
2019-07-12_112405:000,-0.49975600000000003,0.015228,-0.050323,-0.004886,-0.005817,0.0029620000000000002,-53.369999,-21.059998999999998,-6.0,2a
2019-07-12_112405:020,-0.49823,0.015228,-0.049316000000000006,-0.004764,-0.005817,0.0039689999999999994,-53.369999,-20.68,-6.75,2a
2019-07-12_112405:040,-0.498749,0.012177,-0.049805,-0.004581,-0.005817,0.004854,-53.369999,-20.68,-6.75,2a
2019-07-12_112405:060,-0.497742,0.013213999999999998,-0.049316000000000006,-0.004520000000000001,-0.005939,0.004335,-53.369999,-21.870001000000002,-5.56,2a
2019-07-12_112405:080,-0.49926800000000005,0.015228,-0.049316000000000006,-0.004642,-0.005695,0.0037549999999999997,-53.369999,-21.870001000000002,-5.56,2a
2019-07-12_112405:100,-0.49926800000000005,0.014221000000000001,-0.049805,-0.004886,-0.00539,0.0039689999999999994,-53.369999,-21.870001000000002,-5.56,2a
2019-07-12_112405:120,-0.501801,0.014221000000000001,-0.049805,-0.0051,-0.005298,0.0037549999999999997,-53.369999,-21.059998999999998,-5.56,2a
2019-07-12_112405:140,-0.503326,0.013213999999999998,-0.047272,-0.004978,-0.004657,0.003572,-53.369999,-21.059998999999998,-5.56,2a
2019-07-12_112405:160,-0.500793,0.012695,-0.047272,-0.004581,-0.004596,0.0037549999999999997,-52.25,-21.059998999999998,-4.75,2a
2019-07-12_112405:180,-0.49823,0.013213999999999998,-0.047791,-0.004275999999999999,-0.004779,0.0038159999999999995,-52.25,-21.059998999999998,-4.75,2a
2019-07-12_112405:200,-0.49722299999999997,0.013702,-0.047272,-0.004184,-0.0052369999999999995,0.0038469999999999997,-52.25,-21.059998999999998,-4.75,2a
2019-07-12_112405:220,-0.49975600000000003,0.017273,-0.048279,-0.004275999999999999,-0.005725,0.004609,-53.0,-21.5,-6.37,2a
2019-07-12_112405:240,-0.49722299999999997,0.016753999999999998,-0.046265,-0.004581,-0.005756,0.004671,-53.0,-21.5,-6.37,2a
2019-07-12_112405:260,-0.49975600000000003,0.013213999999999998,-0.050323,-0.004947,-0.005725,0.0034189999999999997,-53.0,-21.870001000000002,-6.37,2a
2019-07-12_112405:280,-0.501282,0.015747,-0.050842,-0.005222,-0.005939,0.003511,-53.0,-21.870001000000002,-6.37,2a
2019-07-12_112405:300,-0.49926800000000005,0.014221000000000001,-0.047791,-0.005039,-0.006,0.004793,-53.0,-21.870001000000002,-6.37,2a
2019-07-12_112405:320,-0.49926800000000005,0.011169,-0.048798,-0.004947,-0.005695,0.004518,-53.369999,-22.18,-6.37,2a
2019-07-12_112405:340,-0.49722299999999997,0.013213999999999998,-0.046752999999999996,-0.004886,-0.005817,0.0037549999999999997,-53.369999,-22.18,-6.37,2a
2019-07-12_112405:360,-0.497742,0.014221000000000001,-0.050842,-0.004703,-0.005817,0.004091,-53.75,-21.870001000000002,-6.0,2a
2019-07-12_112405:380,-0.498749,0.013213999999999998,-0.048279,-0.004825,-0.005878,0.00403,-53.75,-21.870001000000002,-6.0,2a
2019-07-12_112405:400,-0.49926800000000005,0.012695,-0.050842,-0.004764,-0.005817,0.0037549999999999997,-53.75,-21.870001000000002,-6.0,2a
2019-07-12_112405:420,-0.49926800000000005,0.013213999999999998,-0.048798,-0.004703,-0.005573,0.0037549999999999997,-53.369999,-21.870001000000002,-6.37,2a
2019-07-12_112405:440,-0.49975600000000003,0.013213999999999998,-0.047272,-0.004398,-0.005573,0.003511,-53.369999,-21.870001000000002,-6.37,2a
2019-07-12_112405:460,-0.49926800000000005,0.014221000000000001,-0.050842,-0.004275999999999999,-0.005573,0.003572,-53.0,-21.870001000000002,-4.37,2a
2019-07-12_112405:480,-0.497742,0.015228,-0.048798,-0.0042450000000000005,-0.005817,0.004213000000000001,-53.0,-21.870001000000002,-4.37,2a
2019-07-12_112405:500,-0.498749,0.016753999999999998,-0.048279,-0.004275999999999999,-0.005725,0.004396,-53.0,-21.870001000000002,-4.37,2a
2019-07-12_112405:520,-0.498749,0.016753999999999998,-0.050323,-0.004612,-0.005725,0.004274,-53.369999,-21.870001000000002,-6.0,2a
2019-07-12_112405:540,-0.498749,0.016266,-0.048798,-0.005161,-0.0055119999999999995,0.004335,-53.369999,-21.870001000000002,-6.0,2a
2019-07-12_112405:560,-0.49926800000000005,0.014221000000000001,-0.049316000000000006,-0.005344,-0.005573,0.004213000000000001,-53.369999,-21.870001000000002,-6.0,2a
2019-07-12_112405:580,-0.49975600000000003,0.013213999999999998,-0.049805,-0.005344,-0.005634,0.004091,-53.369999,-21.870001000000002,-6.0,2a
2019-07-12_112405:600,-0.498749,0.012695,-0.047272,-0.005161,-0.005451,0.004091,-53.369999,-21.870001000000002,-6.0,2a
2019-07-12_112405:620,-0.49823,0.010651,-0.048798,-0.004825,-0.0055119999999999995,0.0039689999999999994,-54.060001,-21.059998999999998,-6.37,2a
2019-07-12_112405:640,-0.498749,0.011687999999999999,-0.047791,-0.004398,-0.005573,0.0039689999999999994,-54.060001,-21.059998999999998,-6.37,2a
2019-07-12_112405:660,-0.49926800000000005,0.014221000000000001,-0.049805,-0.004123,-0.005756,0.0039689999999999994,-53.369999,-21.059998999999998,-5.56,2a
2019-07-12_112405:680,-0.498749,0.014740000000000001,-0.048798,-0.004184,-0.005573,0.00403,-53.369999,-21.059998999999998,-5.56,2a
2019-07-12_112405:700,-0.500275,0.017273,-0.048279,-0.004398,-0.005725,0.0038469999999999997,-53.369999,-21.059998999999998,-5.56,2a
2019-07-12_112405:720,-0.49975600000000003,0.015747,-0.049805,-0.004581,-0.0055119999999999995,0.003908,-53.369999,-21.5,-6.37,2a
2019-07-12_112405:740,-0.500275,0.016753999999999998,-0.048279,-0.004642,-0.00539,0.003908,-53.369999,-21.5,-6.37,2a
2019-07-12_112405:760,-0.498749,0.016753999999999998,-0.051330999999999995,-0.004978,-0.005359,0.0039689999999999994,-53.75,-21.059998999999998,-5.56,2a
2019-07-12_112405:780,-0.49823,0.013702,-0.048279,-0.0051,-0.00539,0.004091,-53.75,-21.059998999999998,-5.56,2a
2019-07-12_112405:800,-0.496704,0.013702,-0.048279,-0.0051,-0.005725,0.0039689999999999994,-53.75,-21.059998999999998,-5.56,2a
2019-07-12_112405:820,-0.498749,0.013702,-0.050323,-0.004886,-0.005756,0.00403,-53.75,-21.059998999999998,-6.0,2a
2019-07-12_112405:840,-0.49975600000000003,0.015228,-0.049316000000000006,-0.004703,-0.005695,0.004152,-53.75,-21.059998999999998,-6.0,2a
2019-07-12_112405:860,-0.500793,0.011687999999999999,-0.049316000000000006,-0.004337,-0.005451,0.004396,-53.0,-22.18,-6.37,2a
2019-07-12_112405:880,-0.49975600000000003,0.014221000000000001,-0.048798,-0.004398,-0.005176,0.004091,-53.0,-22.18,-6.37,2a
2019-07-12_112405:900,-0.49823,0.015747,-0.046752999999999996,-0.004459,-0.005054,0.004335,-53.0,-22.18,-6.37,2a
2019-07-12_112405:920,-0.500275,0.015228,-0.049316000000000006,-0.004764,-0.004901,0.004213000000000001,-53.369999,-21.5,-6.0,2a
2019-07-12_112405:940,-0.496704,0.013213999999999998,-0.046752999999999996,-0.004947,-0.0052369999999999995,0.0034189999999999997,-53.369999,-21.5,-6.0,2a
2019-07-12_112405:960,-0.498749,0.013702,-0.050323,-0.004764,-0.005634,0.003114,-53.75,-21.5,-6.0,2a
2019-07-12_112405:980,-0.49823,0.014740000000000001,-0.049316000000000006,-0.004764,-0.005878,0.003358,-53.75,-21.5,-6.0,2a
2019-07-12_112406:000,-0.49823,0.016266,-0.048279,-0.004612,-0.006092,0.004396,-53.75,-21.5,-6.0,2a
2019-07-12_112406:020,-0.49823,0.014221000000000001,-0.050323,-0.004398,-0.005817,0.004793,-53.0,-21.870001000000002,-5.56,2a
2019-07-12_112406:040,-0.498749,0.016266,-0.047791,-0.004642,-0.005756,0.0038159999999999995,-53.0,-21.870001000000002,-5.56,2a
2019-07-12_112406:060,-0.497742,0.017792,-0.049316000000000006,-0.004764,-0.005359,0.0038159999999999995,-53.369999,-21.870001000000002,-5.18,2a
2019-07-12_112406:080,-0.500275,0.016266,-0.048798,-0.005161,-0.005359,0.0039689999999999994,-53.369999,-21.870001000000002,-5.18,2a
2019-07-12_112406:100,-0.501282,0.014740000000000001,-0.048279,-0.005039,-0.004779,0.003572,-53.369999,-21.870001000000002,-5.18,2a
2019-07-12_112406:120,-0.500275,0.014740000000000001,-0.047272,-0.004947,-0.004718,0.003694,-52.560001,-21.870001000000002,-6.0,2a
2019-07-12_112406:140,-0.497742,0.015228,-0.047791,-0.004398,-0.004993,0.0038159999999999995,-52.560001,-21.870001000000002,-6.0,2a
2019-07-12_112406:160,-0.497742,0.015747,-0.047791,-0.004123,-0.004993,0.0038159999999999995,-53.0,-22.18,-5.56,2a
2019-07-12_112406:180,-0.495697,0.016753999999999998,-0.048279,-0.004184,-0.0055119999999999995,0.004182,-53.0,-22.18,-5.56,2a
2019-07-12_112406:200,-0.49722299999999997,0.017792,-0.045745999999999995,-0.004337,-0.005725,0.004945000000000001,-53.0,-22.18,-5.56,2a
2019-07-12_112406:220,-0.496704,0.016266,-0.047791,-0.004703,-0.006,0.0039689999999999994,-53.0,-21.059998999999998,-6.37,2a
2019-07-12_112406:240,-0.49975600000000003,0.017792,-0.047791,-0.004886,-0.006092,0.003175,-53.0,-21.059998999999998,-6.37,2a
2019-07-12_112406:260,-0.498749,0.01828,-0.048279,-0.005161,-0.005939,0.004335,-53.0,-21.5,-4.37,2a
2019-07-12_112406:280,-0.49926800000000005,0.014221000000000001,-0.048798,-0.005039,-0.005817,0.004854,-53.0,-21.5,-4.37,2a
2019-07-12_112406:300,-0.49823,0.013702,-0.047791,-0.005039,-0.005573,0.0038469999999999997,-53.0,-21.5,-4.37,2a
2019-07-12_112406:320,-0.497742,0.017273,-0.049316000000000006,-0.004703,-0.005725,0.003633,-53.369999,-21.059998999999998,-6.0,2a
2019-07-12_112406:340,-0.497742,0.015228,-0.048279,-0.004764,-0.005634,0.0039689999999999994,-53.369999,-21.059998999999998,-6.0,2a
2019-07-12_112406:360,-0.49926800000000005,0.015228,-0.049805,-0.004978,-0.005695,0.00403,-53.369999,-21.059998999999998,-6.0,2a
2019-07-12_112406:380,-0.500793,0.015228,-0.049316000000000006,-0.004764,-0.005573,0.003633,-53.369999,-21.059998999999998,-6.0,2a
2019-07-12_112406:400,-0.500793,0.014740000000000001,-0.048798,-0.004703,-0.005573,0.003694,-53.369999,-21.059998999999998,-6.0,2a
2019-07-12_112406:420,-0.500275,0.016266,-0.048798,-0.004398,-0.005298,0.003572,-53.0,-21.5,-6.37,2a
2019-07-12_112406:440,-0.49926800000000005,0.017792,-0.048279,-0.004275999999999999,-0.0052369999999999995,0.003694,-53.0,-21.5,-6.37,2a
2019-07-12_112406:460,-0.49823,0.01828,-0.047791,-0.004184,-0.005573,0.004518,-54.060001,-21.5,-6.37,2a
2019-07-12_112406:480,-0.498749,0.01828,-0.047791,-0.004337,-0.005451,0.004518,-54.060001,-21.5,-6.37,2a
2019-07-12_112406:500,-0.498749,0.019318000000000002,-0.048798,-0.004978,-0.005573,0.004335,-54.060001,-21.5,-6.37,2a
2019-07-12_112406:520,-0.49926800000000005,0.017273,-0.048279,-0.005161,-0.005451,0.004335,-54.060001,-21.870001000000002,-5.18,2a
2019-07-12_112406:540,-0.49823,0.015747,-0.046752999999999996,-0.005436,-0.005573,0.004182,-54.060001,-21.870001000000002,-5.18,2a
2019-07-12_112406:560,-0.49926800000000005,0.013702,-0.049316000000000006,-0.005436,-0.005451,0.004152,-53.369999,-21.5,-4.75,2a
2019-07-12_112406:580,-0.49823,0.013213999999999998,-0.047272,-0.005222,-0.00539,0.004091,-53.369999,-21.5,-4.75,2a
2019-07-12_112406:600,-0.497742,0.013702,-0.047791,-0.004764,-0.005298,0.00403,-53.369999,-21.5,-4.75,2a
2019-07-12_112406:620,-0.49926800000000005,0.014740000000000001,-0.048798,-0.004459,-0.0055119999999999995,0.0039689999999999994,-53.0,-21.5,-6.75,2a
2019-07-12_112406:640,-0.49926800000000005,0.015228,-0.047791,-0.004184,-0.005298,0.0039689999999999994,-53.0,-21.5,-6.75,2a
2019-07-12_112406:660,-0.49823,0.016266,-0.047272,-0.004184,-0.0055119999999999995,0.003908,-53.0,-21.5,-6.75,2a
2019-07-12_112406:680,-0.49926800000000005,0.01828,-0.048279,-0.0042450000000000005,-0.005298,0.00403,-53.0,-21.5,-6.75,2a
2019-07-12_112406:700,-0.49926800000000005,0.017273,-0.048279,-0.004581,-0.005298,0.003908,-53.0,-21.5,-6.75,2a
2019-07-12_112406:720,-0.49975600000000003,0.016753999999999998,-0.049316000000000006,-0.004825,-0.005298,0.0039689999999999994,-53.0,-21.5,-6.37,2a
2019-07-12_112406:740,-0.49975600000000003,0.016266,-0.048279,-0.005161,-0.005634,0.0038469999999999997,-53.0,-21.5,-6.37,2a
2019-07-12_112406:760,-0.49975600000000003,0.016753999999999998,-0.048798,-0.005222,-0.005451,0.003908,-53.75,-21.870001000000002,-6.37,2a
2019-07-12_112406:780,-0.498749,0.014740000000000001,-0.048798,-0.004978,-0.00539,0.0038159999999999995,-53.75,-21.870001000000002,-6.37,2a
2019-07-12_112406:800,-0.498749,0.015747,-0.047272,-0.004886,-0.005634,0.003908,-53.75,-21.870001000000002,-6.37,2a
2019-07-12_112406:820,-0.49975600000000003,0.016266,-0.048279,-0.004703,-0.005451,0.0038469999999999997,-53.369999,-21.5,-6.0,2a
2019-07-12_112406:840,-0.501801,0.014740000000000001,-0.047272,-0.004612,-0.005451,0.004213000000000001,-53.369999,-21.5,-6.0,2a
2019-07-12_112406:860,-0.500275,0.016266,-0.048279,-0.004337,-0.005298,0.00403,-53.369999,-21.5,-6.0,2a
2019-07-12_112406:880,-0.498749,0.016266,-0.047791,-0.004612,-0.004901,0.004213000000000001,-53.0,-22.18,-6.37,2a
2019-07-12_112406:900,-0.500275,0.014740000000000001,-0.047791,-0.004703,-0.0052369999999999995,0.004091,-53.0,-22.18,-6.37,2a
2019-07-12_112406:920,-0.49722299999999997,0.016753999999999998,-0.045745999999999995,-0.004978,-0.005115,0.003511,-52.560001,-22.18,-5.56,2a
2019-07-12_112406:940,-0.500275,0.016753999999999998,-0.048279,-0.004886,-0.005359,0.0029,-52.560001,-22.18,-5.56,2a
2019-07-12_112406:960,-0.49823,0.017792,-0.046752999999999996,-0.004978,-0.005725,0.002839,-53.75,-21.5,-6.37,2a
2019-07-12_112406:980,-0.498749,0.016753999999999998,-0.047791,-0.004642,-0.005695,0.00403,-53.75,-21.5,-6.37,2a
2019-07-12_112407:000,-0.498749,0.017273,-0.047791,-0.004459,-0.005695,0.004609,-53.75,-21.5,-6.37,2a
2019-07-12_112407:020,-0.497742,0.017792,-0.048798,-0.004581,-0.00539,0.004152,-52.25,-21.870001000000002,-5.56,2a
2019-07-12_112407:040,-0.49926800000000005,0.019806,-0.047791,-0.004764,-0.005298,0.003572,-52.25,-21.870001000000002,-5.56,2a
2019-07-12_112407:060,-0.500275,0.01828,-0.048279,-0.004886,-0.005176,0.0038469999999999997,-52.25,-21.870001000000002,-5.56,2a
2019-07-12_112407:080,-0.501801,0.016753999999999998,-0.048279,-0.005039,-0.005054,0.003633,-53.0,-21.870001000000002,-6.37,2a
2019-07-12_112407:100,-0.49975600000000003,0.017273,-0.046752999999999996,-0.004947,-0.004718,0.00345,-53.0,-21.870001000000002,-6.37,2a
2019-07-12_112407:120,-0.49926800000000005,0.015228,-0.046752999999999996,-0.004581,-0.004718,0.0037549999999999997,-53.369999,-21.870001000000002,-6.75,2a
2019-07-12_112407:140,-0.496216,0.017792,-0.046265,-0.004337,-0.004779,0.003633,-53.369999,-21.870001000000002,-6.75,2a
2019-07-12_112407:160,-0.49823,0.019806,-0.046265,-0.0042450000000000005,-0.005298,0.0038159999999999995,-53.369999,-21.059998999999998,-5.56,2a
2019-07-12_112407:180,-0.497742,0.019806,-0.044739,-0.004398,-0.005695,0.004457,-53.369999,-21.059998999999998,-5.56,2a
2019-07-12_112407:200,-0.49823,0.017273,-0.046752999999999996,-0.004703,-0.005634,0.004609,-53.369999,-21.059998999999998,-5.56,2a
2019-07-12_112407:220,-0.49823,0.019318000000000002,-0.046752999999999996,-0.004978,-0.005756,0.0032359999999999997,-52.560001,-22.18,-6.37,2a
2019-07-12_112407:240,-0.49926800000000005,0.019806,-0.044739,-0.005375,-0.005817,0.0037549999999999997,-52.560001,-22.18,-6.37,2a
2019-07-12_112407:260,-0.49926800000000005,0.015747,-0.046752999999999996,-0.004978,-0.005725,0.004793,-52.560001,-22.18,-6.37,2a
2019-07-12_112407:280,-0.49823,0.016753999999999998,-0.046265,-0.004947,-0.005573,0.004335,-52.560001,-21.870001000000002,-6.0,2a
2019-07-12_112407:300,-0.496704,0.01828,-0.046752999999999996,-0.004978,-0.0055119999999999995,0.0037549999999999997,-52.560001,-21.870001000000002,-6.0,2a
2019-07-12_112407:320,-0.498749,0.016753999999999998,-0.047791,-0.004825,-0.005634,0.0039689999999999994,-53.369999,-22.18,-6.0,2a
2019-07-12_112407:340,-0.49926800000000005,0.01828,-0.045226999999999996,-0.004947,-0.005695,0.0038159999999999995,-53.369999,-22.18,-6.0,2a
2019-07-12_112407:360,-0.49975600000000003,0.017792,-0.046752999999999996,-0.004825,-0.005817,0.003572,-53.369999,-22.18,-6.0,2a
2019-07-12_112407:380,-0.501282,0.017273,-0.047791,-0.004612,-0.005634,0.003633,-51.5,-21.5,-6.75,2a
2019-07-12_112407:400,-0.500275,0.017792,-0.046752999999999996,-0.004459,-0.005756,0.003633,-51.5,-21.5,-6.75,2a
2019-07-12_112407:420,-0.498749,0.019318000000000002,-0.048279,-0.004337,-0.005451,0.003633,-53.369999,-21.5,-6.37,2a
2019-07-12_112407:440,-0.497742,0.020325,-0.047272,-0.004275999999999999,-0.005634,0.004091,-53.369999,-21.5,-6.37,2a
2019-07-12_112407:460,-0.49926800000000005,0.021851,-0.048798,-0.004337,-0.005573,0.004396,-53.369999,-21.5,-6.37,2a
2019-07-12_112407:480,-0.497742,0.020325,-0.047272,-0.004764,-0.005756,0.004274,-53.0,-22.18,-6.37,2a
2019-07-12_112407:500,-0.498749,0.019318000000000002,-0.047791,-0.005039,-0.005573,0.004152,-53.0,-22.18,-6.37,2a
2019-07-12_112407:520,-0.500275,0.017792,-0.048279,-0.0052829999999999995,-0.005878,0.004182,-52.25,-21.059998999999998,-6.0,2a
2019-07-12_112407:540,-0.500793,0.016753999999999998,-0.047791,-0.0052829999999999995,-0.005573,0.004152,-52.25,-21.059998999999998,-6.0,2a
2019-07-12_112407:560,-0.49975600000000003,0.017792,-0.048798,-0.005161,-0.00539,0.004091,-52.25,-21.059998999999998,-6.0,2a
2019-07-12_112407:580,-0.498749,0.017273,-0.046265,-0.004703,-0.005359,0.004091,-52.560001,-21.870001000000002,-6.0,2a
2019-07-12_112407:600,-0.498749,0.017792,-0.046265,-0.004520000000000001,-0.0055119999999999995,0.004091,-52.560001,-21.870001000000002,-6.0,2a
2019-07-12_112407:620,-0.49975600000000003,0.018799,-0.046752999999999996,-0.004398,-0.005634,0.00403,-53.0,-21.5,-5.56,2a
2019-07-12_112407:640,-0.49926800000000005,0.018799,-0.047791,-0.004398,-0.005725,0.0039689999999999994,-53.0,-21.5,-5.56,2a
2019-07-12_112407:660,-0.49926800000000005,0.019318000000000002,-0.047272,-0.004459,-0.005634,0.003908,-53.0,-21.5,-5.56,2a
2019-07-12_112407:680,-0.49823,0.019318000000000002,-0.047272,-0.004825,-0.005451,0.003908,-52.25,-21.5,-5.18,2a
2019-07-12_112407:700,-0.49975600000000003,0.018799,-0.046265,-0.004947,-0.005634,0.004091,-52.25,-21.5,-5.18,2a
2019-07-12_112407:720,-0.49823,0.018799,-0.047272,-0.004978,-0.0055119999999999995,0.004091,-52.25,-21.5,-6.37,2a
2019-07-12_112407:740,-0.498749,0.01828,-0.046265,-0.0051,-0.005695,0.00403,-52.25,-21.5,-6.37,2a
2019-07-12_112407:760,-0.49823,0.017273,-0.049316000000000006,-0.004886,-0.005695,0.0039689999999999994,-52.25,-21.5,-6.37,2a
2019-07-12_112407:780,-0.49926800000000005,0.017792,-0.047791,-0.004886,-0.00539,0.00403,-53.0,-22.18,-6.0,2a
2019-07-12_112407:800,-0.49975600000000003,0.019806,-0.046752999999999996,-0.004581,-0.0055119999999999995,0.004091,-53.0,-22.18,-6.0,2a
2019-07-12_112407:820,-0.501801,0.019318000000000002,-0.047272,-0.004398,-0.0055119999999999995,0.004396,-53.0,-22.18,-6.75,2a
2019-07-12_112407:840,-0.49975600000000003,0.018799,-0.046752999999999996,-0.004459,-0.005298,0.004182,-53.0,-22.18,-6.75,2a
2019-07-12_112407:860,-0.498749,0.019318000000000002,-0.047272,-0.004612,-0.005176,0.004274,-53.0,-22.18,-6.75,2a
2019-07-12_112407:880,-0.501282,0.018799,-0.048279,-0.004825,-0.005115,0.004213000000000001,-53.75,-21.870001000000002,-5.18,2a
2019-07-12_112407:900,-0.496704,0.018799,-0.046265,-0.004947,-0.004993,0.003694,-53.75,-21.870001000000002,-5.18,2a
2019-07-12_112407:920,-0.49926800000000005,0.016753999999999998,-0.047272,-0.004947,-0.00539,0.003023,-52.25,-22.18,-5.56,2a
2019-07-12_112407:940,-0.496704,0.01828,-0.046752999999999996,-0.004825,-0.005756,0.003114,-52.25,-22.18,-5.56,2a
2019-07-12_112407:960,-0.496704,0.019806,-0.047791,-0.004642,-0.005878,0.004182,-52.25,-22.18,-5.56,2a
2019-07-12_112407:980,-0.49823,0.017273,-0.047791,-0.004459,-0.005725,0.004732,-53.369999,-21.870001000000002,-4.75,2a
2019-07-12_112408:000,-0.498749,0.018799,-0.046752999999999996,-0.004459,-0.005817,0.00403,-53.369999,-21.870001000000002,-4.75,2a
2019-07-12_112408:020,-0.498749,0.020325,-0.047272,-0.004764,-0.005634,0.003694,-52.560001,-21.870001000000002,-5.56,2a
2019-07-12_112408:040,-0.500275,0.020844,-0.046752999999999996,-0.004825,-0.005298,0.003908,-52.560001,-21.870001000000002,-5.56,2a
2019-07-12_112408:060,-0.501282,0.017792,-0.047272,-0.004978,-0.005115,0.0037549999999999997,-52.560001,-21.870001000000002,-5.56,2a
2019-07-12_112408:080,-0.49975600000000003,0.01828,-0.046752999999999996,-0.004764,-0.004901,0.003633,-53.0,-21.5,-6.75,2a
2019-07-12_112408:100,-0.497742,0.019806,-0.046265,-0.004398,-0.004901,0.0038469999999999997,-53.0,-21.5,-6.75,2a
2019-07-12_112408:120,-0.497742,0.018799,-0.046752999999999996,-0.0042450000000000005,-0.00539,0.003908,-53.369999,-21.5,-5.56,2a
2019-07-12_112408:140,-0.497742,0.020325,-0.045745999999999995,-0.004001,-0.005817,0.00403,-53.369999,-21.5,-5.56,2a
2019-07-12_112408:160,-0.49823,0.022858,-0.047791,-0.004337,-0.006092,0.004854,-53.369999,-21.5,-5.56,2a
2019-07-12_112408:180,-0.496704,0.019806,-0.047791,-0.004581,-0.006092,0.004518,-53.369999,-22.18,-6.37,2a
2019-07-12_112408:200,-0.500275,0.018799,-0.047272,-0.004978,-0.0061530000000000005,0.003358,-53.369999,-22.18,-6.37,2a
2019-07-12_112408:220,-0.500793,0.021851,-0.046752999999999996,-0.004947,-0.0061530000000000005,0.004182,-53.0,-21.5,-5.56,2a
2019-07-12_112408:240,-0.49975600000000003,0.017792,-0.047791,-0.004703,-0.005878,0.005189,-53.0,-21.5,-5.56,2a
2019-07-12_112408:260,-0.49722299999999997,0.01828,-0.049805,-0.004520000000000001,-0.005725,0.004609,-53.0,-21.5,-5.56,2a
2019-07-12_112408:280,-0.495697,0.016753999999999998,-0.050323,-0.004123,-0.005756,0.004518,-53.369999,-21.870001000000002,-6.37,2a
2019-07-12_112408:300,-0.497742,0.015228,-0.050323,-0.003452,-0.0060609999999999995,0.004671,-53.369999,-21.870001000000002,-6.37,2a
2019-07-12_112408:320,-0.501282,0.016266,-0.050842,-0.002994,-0.0060609999999999995,0.003694,-53.0,-21.5,-5.56,2a
2019-07-12_112408:340,-0.503845,0.018799,-0.048798,-0.002659,-0.005359,0.003023,-53.0,-21.5,-5.56,2a
2019-07-12_112408:360,-0.502319,0.020844,-0.050842,-0.002414,-0.0045049999999999995,0.003114,-53.0,-21.5,-5.56,2a
2019-07-12_112408:380,-0.500275,0.020844,-0.050842,-0.002353,-0.004229999999999999,0.00345,-52.5,-21.5,-7.18,2a
2019-07-12_112408:400,-0.49926800000000005,0.022369,-0.048798,-0.0027199999999999998,-0.004047,0.0038159999999999995,-52.5,-21.5,-7.18,2a
2019-07-12_112408:420,-0.497742,0.022369,-0.047791,-0.002994,-0.0038640000000000002,0.004396,-51.75,-21.5,-7.18,2a
2019-07-12_112408:440,-0.49823,0.022858,-0.046752999999999996,-0.0037270000000000003,-0.004047,0.004457,-51.75,-21.5,-7.18,2a
2019-07-12_112408:460,-0.49823,0.022858,-0.046752999999999996,-0.004275999999999999,-0.004108,0.004274,-51.75,-21.5,-7.18,2a
2019-07-12_112408:480,-0.49823,0.020325,-0.046265,-0.004947,-0.00426,0.004671,-53.68,-21.870001000000002,-6.0,2a
2019-07-12_112408:500,-0.49975600000000003,0.019318000000000002,-0.044219999999999995,-0.005497,-0.004444,0.004671,-53.68,-21.870001000000002,-6.0,2a
2019-07-12_112408:520,-0.502808,0.015228,-0.044739,-0.005558,-0.0045049999999999995,0.004091,-52.869999,-21.870001000000002,-5.56,2a
2019-07-12_112408:540,-0.503326,0.014740000000000001,-0.042694,-0.005222,-0.004169,0.0037549999999999997,-52.869999,-21.870001000000002,-5.56,2a
2019-07-12_112408:560,-0.49926800000000005,0.014740000000000001,-0.042175,-0.004703,-0.0037719999999999997,0.003633,-52.869999,-21.870001000000002,-5.56,2a
2019-07-12_112408:580,-0.49823,0.015747,-0.041168,-0.004001,-0.00365,0.00345,-52.5,-21.870001000000002,-5.18,2a
2019-07-12_112408:600,-0.495697,0.018799,-0.041168,-0.003849,-0.003711,0.003511,-52.5,-21.870001000000002,-5.18,2a
2019-07-12_112408:620,-0.49365200000000004,0.019318000000000002,-0.041168,-0.003788,-0.004229999999999999,0.003572,-53.25,-22.18,-6.37,2a
2019-07-12_112408:640,-0.496216,0.022858,-0.040649,-0.004337,-0.004779,0.003297,-53.25,-22.18,-6.37,2a
2019-07-12_112408:660,-0.49722299999999997,0.023895,-0.041687,-0.004947,-0.005359,0.003023,-53.25,-22.18,-6.37,2a
2019-07-12_112408:680,-0.49926800000000005,0.023895,-0.040649,-0.005832,-0.005878,0.002168,-53.25,-21.5,-4.75,2a
2019-07-12_112408:700,-0.497742,0.024902,-0.042175,-0.0064730000000000005,-0.005878,0.002107,-53.25,-21.5,-4.75,2a
2019-07-12_112408:720,-0.49365200000000004,0.023895,-0.044219999999999995,-0.006962,-0.0060609999999999995,0.002687,-54.0,-21.5,-4.75,2a
2019-07-12_112408:740,-0.492645,0.022369,-0.044739,-0.00687,-0.006458,0.003572,-54.0,-21.5,-4.75,2a
2019-07-12_112408:760,-0.49926800000000005,0.019318000000000002,-0.045745999999999995,-0.006809,-0.0070680000000000005,0.0038159999999999995,-54.0,-21.5,-4.75,2a
2019-07-12_112408:780,-0.500793,0.018799,-0.044219999999999995,-0.006168,-0.007220999999999999,0.00403,-52.18,-21.5,-5.18,2a
2019-07-12_112408:800,-0.501801,0.019806,-0.046265,-0.005375,-0.0070680000000000005,0.003511,-52.18,-21.5,-5.18,2a
2019-07-12_112408:820,-0.495697,0.023895,-0.045745999999999995,-0.005039,-0.006397,0.002443,-52.5,-21.870001000000002,-5.56,2a
2019-07-12_112408:840,-0.500793,0.022858,-0.045745999999999995,-0.005436,-0.006793,0.003023,-52.5,-21.870001000000002,-5.56,2a
2019-07-12_112408:860,-0.504333,0.019318000000000002,-0.046752999999999996,-0.005832,-0.006885,0.004609,-52.5,-21.870001000000002,-5.56,2a
2019-07-12_112408:880,-0.507904,0.010651,-0.044219999999999995,-0.005619,-0.0066099999999999996,0.004671,-52.5,-22.559998999999998,-5.56,2a
2019-07-12_112408:900,-0.5109560000000001,0.008636,-0.044219999999999995,-0.004612,-0.0061530000000000005,0.003175,-52.5,-22.559998999999998,-5.56,2a
2019-07-12_112408:920,-0.5058590000000001,0.014740000000000001,-0.042175,-0.002872,-0.005115,0.0019850000000000002,-52.5,-22.559998999999998,-6.0,2a
2019-07-12_112408:940,-0.498749,0.020325,-0.042694,-0.001407,-0.004229999999999999,0.001924,-52.5,-22.559998999999998,-6.0,2a
2019-07-12_112408:960,-0.49365200000000004,0.027954000000000003,-0.044219999999999995,-0.000736,-0.003925,0.0016489999999999999,-52.5,-22.559998999999998,-6.0,2a
2019-07-12_112408:980,-0.492126,0.032013,-0.042694,-0.001468,-0.003833,0.002321,-52.869999,-21.870001000000002,-4.75,2a
2019-07-12_112409:000,-0.492126,0.034546,-0.042694,-0.003116,-0.003833,0.0032359999999999997,-52.869999,-21.870001000000002,-4.75,2a
2019-07-12_112409:020,-0.49517799999999995,0.030487,-0.042694,-0.005497,-0.004047,0.00345,-53.25,-23.0,-5.18,2a
2019-07-12_112409:040,-0.49823,0.028442000000000002,-0.041168,-0.007267,-0.003986,0.003633,-53.25,-23.0,-5.18,2a
2019-07-12_112409:060,-0.500275,0.024902,-0.041687,-0.008609,-0.004383,0.004732,-53.25,-23.0,-5.18,2a
2019-07-12_112409:080,-0.498749,0.015228,-0.043213,-0.008945,-0.00484,0.005739,-52.18,-22.18,-5.56,2a
2019-07-12_112409:100,-0.497742,0.010651,-0.040649,-0.007755,-0.005451,0.005586,-52.18,-22.18,-5.56,2a
2019-07-12_112409:120,-0.500793,0.008118,-0.042694,-0.005619,-0.0066099999999999996,0.004671,-52.5,-21.870001000000002,-6.0,2a
2019-07-12_112409:140,-0.501282,0.009644,-0.040649,-0.0033909999999999995,-0.006885,0.0032359999999999997,-52.5,-21.870001000000002,-6.0,2a
2019-07-12_112409:160,-0.502319,0.017273,-0.041687,-0.001529,-0.006731999999999999,0.001039,-52.5,-21.870001000000002,-6.0,2a
2019-07-12_112409:180,-0.501282,0.024902,-0.042175,-0.000492,-0.006670999999999999,0.000795,-52.869999,-22.559998999999998,-6.37,2a
2019-07-12_112409:200,-0.495697,0.027435,-0.042694,-0.000889,-0.006397,0.002839,-52.869999,-22.559998999999998,-6.37,2a
2019-07-12_112409:220,-0.490601,0.028961,-0.041687,-0.002018,-0.005939,0.0037549999999999997,-52.5,-22.18,-4.75,2a
2019-07-12_112409:240,-0.488068,0.029968,-0.044739,-0.0033909999999999995,-0.006092,0.0029620000000000002,-52.5,-22.18,-4.75,2a
2019-07-12_112409:260,-0.48754899999999995,0.033539,-0.045745999999999995,-0.004825,-0.00719,0.002168,-52.5,-22.18,-4.75,2a
2019-07-12_112409:280,-0.49316400000000005,0.032532,-0.047272,-0.006504,-0.008533,0.0026260000000000003,-52.5,-21.870001000000002,-5.18,2a
2019-07-12_112409:300,-0.49926800000000005,0.030487,-0.048279,-0.0076939999999999995,-0.009662,0.003511,-52.5,-21.870001000000002,-5.18,2a
2019-07-12_112409:320,-0.5058590000000001,0.028442000000000002,-0.050323,-0.00867,-0.009937,0.004213000000000001,-52.869999,-22.559998999999998,-4.75,2a
2019-07-12_112409:340,-0.508423,0.025908999999999998,-0.048798,-0.009067,-0.009937,0.004457,-52.869999,-22.559998999999998,-4.75,2a
2019-07-12_112409:360,-0.509918,0.023375999999999997,-0.050842,-0.008945,-0.009052,0.004548,-52.869999,-22.559998999999998,-4.75,2a
2019-07-12_112409:380,-0.507904,0.022369,-0.049316000000000006,-0.008274,-0.008319,0.004274,-51.75,-23.0,-4.75,2a
2019-07-12_112409:400,-0.500793,0.022369,-0.049805,-0.007297,-0.006854000000000001,0.0039689999999999994,-51.75,-23.0,-4.75,2a
2019-07-12_112409:420,-0.495697,0.022369,-0.050842,-0.00629,-0.005817,0.003694,-53.25,-22.559998999999998,-6.37,2a
2019-07-12_112409:440,-0.49111899999999997,0.025421,-0.049316000000000006,-0.005558,-0.005634,0.003358,-53.25,-22.559998999999998,-6.37,2a
2019-07-12_112409:460,-0.49111899999999997,0.026427999999999997,-0.051330999999999995,-0.005436,-0.006,0.003297,-53.25,-22.559998999999998,-6.37,2a
2019-07-12_112409:480,-0.49517799999999995,0.026427999999999997,-0.050842,-0.005497,-0.006275,0.0034189999999999997,-52.18,-22.18,-5.18,2a
2019-07-12_112409:500,-0.49823,0.025421,-0.050323,-0.005558,-0.006854000000000001,0.003053,-52.18,-22.18,-5.18,2a
2019-07-12_112409:520,-0.510437,0.022858,-0.046752999999999996,-0.005375,-0.006488,0.003114,-51.369999,-23.0,-5.56,2a
2019-07-12_112409:540,-0.514496,0.021332,-0.044219999999999995,-0.004642,-0.00539,0.004091,-51.369999,-23.0,-5.56,2a
2019-07-12_112409:560,-0.50943,0.017792,-0.041168,-0.0036049999999999997,-0.003833,0.004854,-51.369999,-23.0,-5.56,2a
2019-07-12_112409:580,-0.501801,0.01828,-0.041168,-0.002414,-0.002643,0.005311,-52.5,-23.0,-5.18,2a
2019-07-12_112409:600,-0.49316400000000005,0.020844,-0.042694,-0.001072,-0.002857,0.005067,-52.5,-23.0,-5.18,2a
2019-07-12_112409:620,-0.492126,0.025908999999999998,-0.043701,-0.000339,-0.004108,0.0037549999999999997,-52.5,-23.0,-6.0,2a
2019-07-12_112409:640,-0.49111899999999997,0.031494,-0.042175,-0.00095,-0.004993,0.003572,-52.5,-23.0,-6.0,2a
2019-07-12_112409:660,-0.48858599999999996,0.032532,-0.042175,-0.002536,-0.0052369999999999995,0.005128,-52.5,-23.0,-6.0,2a
2019-07-12_112409:680,-0.48196400000000006,0.032013,-0.045226999999999996,-0.004825,-0.005756,0.006135,-51.369999,-23.0,-6.0,2a
2019-07-12_112409:700,-0.475861,0.031006,-0.051330999999999995,-0.006809,-0.007526000000000001,0.005739,-51.369999,-23.0,-6.0,2a
2019-07-12_112409:720,-0.482483,0.027954000000000003,-0.053375,-0.007877,-0.010456,0.004518,-52.18,-22.18,-4.75,2a
2019-07-12_112409:740,-0.490112,0.028442000000000002,-0.052338,-0.00867,-0.012927000000000001,0.003633,-52.18,-22.18,-4.75,2a
2019-07-12_112409:760,-0.5109560000000001,0.025908999999999998,-0.048798,-0.009128,-0.013111000000000001,0.005006,-52.18,-22.18,-4.75,2a
2019-07-12_112409:780,-0.514008,0.022858,-0.049316000000000006,-0.009525,-0.011371,0.006318,-52.18,-22.18,-5.18,2a
2019-07-12_112409:800,-0.5073850000000001,0.020844,-0.050842,-0.009464,-0.009113,0.005067,-52.18,-22.18,-5.18,2a
2019-07-12_112409:820,-0.506897,0.021851,-0.051330999999999995,-0.008945,-0.007923000000000001,0.003358,-52.18,-22.18,-5.56,2a
2019-07-12_112409:840,-0.51297,0.024902,-0.047791,-0.008487,-0.006945999999999999,0.0026260000000000003,-52.18,-22.18,-5.56,2a
2019-07-12_112409:860,-0.506378,0.025421,-0.042175,-0.008762,-0.0055119999999999995,0.002839,-52.18,-22.18,-5.56,2a
2019-07-12_112409:880,-0.491638,0.026917,-0.045745999999999995,-0.008823000000000001,-0.003925,0.002565,-52.18,-23.0,-7.18,2a
2019-07-12_112409:900,-0.47079499999999996,0.027954000000000003,-0.05285599999999999,-0.00867,-0.004718,0.001436,-52.18,-23.0,-7.18,2a
2019-07-12_112409:920,-0.472321,0.026917,-0.056915,-0.008274,-0.008472,0.001314,-52.18,-22.18,-6.0,2a
2019-07-12_112409:940,-0.484497,0.026427999999999997,-0.056427,-0.00748,-0.012653,0.0026260000000000003,-52.18,-22.18,-6.0,2a
2019-07-12_112409:960,-0.489594,0.025908999999999998,-0.058441,-0.00687,-0.014819999999999998,0.004518,-52.18,-22.18,-6.0,2a
2019-07-12_112409:980,-0.49468999999999996,0.022858,-0.06149299999999999,-0.0067480000000000005,-0.015094,0.005647,-52.869999,-22.559998999999998,-6.0,2a
2019-07-12_112410:000,-0.49517799999999995,0.020844,-0.067596,-0.00629,-0.015186000000000002,0.005403,-52.869999,-22.559998999999998,-6.0,2a
2019-07-12_112410:020,-0.49926800000000005,0.023895,-0.072693,-0.005679999999999999,-0.015581999999999999,0.003572,-52.5,-23.0,-6.75,2a
2019-07-12_112410:040,-0.503845,0.025421,-0.07421900000000001,-0.0052829999999999995,-0.016375999999999998,0.0026260000000000003,-52.5,-23.0,-6.75,2a
2019-07-12_112410:060,-0.508423,0.025908999999999998,-0.075226,-0.004825,-0.015705,0.00229,-52.5,-23.0,-6.75,2a
2019-07-12_112410:080,-0.51297,0.027954000000000003,-0.077271,-0.004612,-0.013721,0.001436,-52.18,-22.559998999999998,-6.75,2a
2019-07-12_112410:100,-0.5073850000000001,0.029968,-0.081848,-0.004459,-0.012103000000000001,0.001375,-52.18,-22.559998999999998,-6.75,2a
2019-07-12_112410:120,-0.496704,0.030487,-0.082855,-0.004275999999999999,-0.01073,0.0027170000000000002,-52.18,-22.559998999999998,-7.56,2a
2019-07-12_112410:140,-0.489075,0.029480000000000003,-0.08843999999999999,-0.004612,-0.011249,0.0037549999999999997,-52.18,-22.559998999999998,-7.56,2a
2019-07-12_112410:160,-0.5119630000000001,0.027435,-0.084381,-0.004581,-0.012714,0.00403,-52.18,-22.559998999999998,-7.56,2a
2019-07-12_112410:180,-0.517548,0.026427999999999997,-0.071686,-0.004123,-0.011401999999999999,0.003908,-52.5,-23.0,-8.0,2a
2019-07-12_112410:200,-0.522125,0.024902,-0.068634,-0.0036659999999999996,-0.00838,0.00403,-52.5,-23.0,-8.0,2a
2019-07-12_112410:220,-0.50943,0.024384,-0.069122,-0.002659,-0.004657,0.0037549999999999997,-52.18,-23.0,-6.75,2a
2019-07-12_112410:240,-0.489075,0.024902,-0.072174,-0.001743,-0.00246,0.0037549999999999997,-52.18,-23.0,-6.75,2a
2019-07-12_112410:260,-0.492126,0.025421,-0.075226,-0.000217,-0.0035280000000000003,0.004152,-52.18,-23.0,-6.75,2a
2019-07-12_112410:280,-0.492126,0.028442000000000002,-0.070648,0.001248,-0.004566,0.003694,-51.75,-23.370001000000002,-9.18,2a
2019-07-12_112410:300,-0.492645,0.035065,-0.068634,0.00256,-0.004596,0.004182,-51.75,-23.370001000000002,-9.18,2a
2019-07-12_112410:320,-0.48706099999999997,0.038116000000000004,-0.069641,0.00256,-0.0037719999999999997,0.005647,-53.25,-22.559998999999998,-7.56,2a
2019-07-12_112410:340,-0.47842399999999996,0.040649,-0.072174,0.001065,-0.004229999999999999,0.008058,-53.25,-22.559998999999998,-7.56,2a
2019-07-12_112410:360,-0.473846,0.037598,-0.075745,-0.000889,-0.006458,0.010835,-53.25,-22.559998999999998,-7.56,2a
2019-07-12_112410:380,-0.47995,0.029968,-0.080322,-0.003208,-0.009448,0.011751000000000001,-51.75,-23.370001000000002,-8.75,2a
2019-07-12_112410:400,-0.486023,0.026917,-0.08081100000000001,-0.004978,-0.01192,0.010255,-51.75,-23.370001000000002,-8.75,2a
2019-07-12_112410:420,-0.495697,0.023895,-0.08081100000000001,-0.005954,-0.012592,0.008851000000000001,-52.18,-22.18,-8.0,2a
2019-07-12_112410:440,-0.501282,0.022858,-0.08081100000000001,-0.006076,-0.012195000000000001,0.0071730000000000006,-52.18,-22.18,-8.0,2a
2019-07-12_112410:460,-0.506378,0.021851,-0.081329,-0.005893,-0.010639000000000001,0.00525,-52.18,-22.18,-8.0,2a
2019-07-12_112410:480,-0.508911,0.020325,-0.080322,-0.004947,-0.008594,0.004396,-52.869999,-22.18,-9.56,2a
2019-07-12_112410:500,-0.512482,0.022369,-0.077271,-0.004062,-0.005695,0.0038469999999999997,-52.869999,-22.18,-9.56,2a
2019-07-12_112410:520,-0.5109560000000001,0.024902,-0.076752,-0.003116,-0.002918,0.003511,-52.5,-21.870001000000002,-9.18,2a
2019-07-12_112410:540,-0.507904,0.026427999999999997,-0.0737,-0.002597,-0.000263,0.004396,-52.5,-21.870001000000002,-9.18,2a
2019-07-12_112410:560,-0.503845,0.026917,-0.072174,-0.00275,0.001782,0.005861,-52.5,-21.870001000000002,-9.18,2a
2019-07-12_112410:580,-0.49316400000000005,0.027954000000000003,-0.07016,-0.003452,0.002575,0.007203,-52.5,-22.18,-8.37,2a
2019-07-12_112410:600,-0.491638,0.026427999999999997,-0.07016,-0.004398,0.002392,0.008638,-52.5,-22.18,-8.37,2a
2019-07-12_112410:620,-0.488068,0.022369,-0.069641,-0.005771,0.001385,0.009431,-52.869999,-22.559998999999998,-8.37,2a
2019-07-12_112410:640,-0.484009,0.019318000000000002,-0.067596,-0.007206000000000001,-0.000537,0.009706000000000001,-52.869999,-22.559998999999998,-8.37,2a
2019-07-12_112410:660,-0.48300200000000004,0.015747,-0.071686,-0.008091,-0.002979,0.00992,-52.869999,-22.559998999999998,-8.37,2a
2019-07-12_112410:680,-0.48349,0.012695,-0.07016,-0.008426000000000001,-0.005451,0.00992,-53.25,-22.18,-8.75,2a
2019-07-12_112410:700,-0.48706099999999997,0.010162000000000001,-0.069641,-0.008426000000000001,-0.007465,0.009828,-53.25,-22.18,-8.75,2a
2019-07-12_112410:720,-0.489075,0.009644,-0.069122,-0.008152,-0.008747,0.009096,-53.25,-21.870001000000002,-7.56,2a
2019-07-12_112410:740,-0.491638,0.008636,-0.068634,-0.0076939999999999995,-0.009113,0.009035,-53.25,-21.870001000000002,-7.56,2a
2019-07-12_112410:760,-0.49468999999999996,0.010162000000000001,-0.069122,-0.007297,-0.008990999999999999,0.008851000000000001,-53.25,-21.870001000000002,-7.56,2a
2019-07-12_112410:780,-0.498749,0.011169,-0.069122,-0.007023000000000001,-0.008472,0.009248000000000001,-52.869999,-21.5,-8.37,2a
2019-07-12_112410:800,-0.501282,0.008636,-0.068115,-0.00687,-0.008197,0.009248000000000001,-52.869999,-21.5,-8.37,2a
2019-07-12_112410:820,-0.501282,0.009125,-0.067108,-0.007418999999999999,-0.0070680000000000005,0.008790000000000001,-53.68,-20.68,-8.0,2a
2019-07-12_112410:840,-0.501282,0.008118,-0.068115,-0.007541,-0.006548999999999999,0.008454999999999999,-53.68,-20.68,-8.0,2a
2019-07-12_112410:860,-0.496704,0.007111,-0.069122,-0.007816,-0.006458,0.007051000000000001,-53.68,-20.68,-8.0,2a
2019-07-12_112410:880,-0.49365200000000004,0.005065999999999999,-0.070648,-0.007937999999999999,-0.006670999999999999,0.006593000000000001,-53.25,-21.5,-8.0,2a
2019-07-12_112410:900,-0.49111899999999997,0.002014,-0.071686,-0.006962,-0.007923000000000001,0.006318,-53.25,-21.5,-8.0,2a
2019-07-12_112410:920,-0.492645,0.0025329999999999997,-0.074738,-0.006229,-0.009052,0.005189,-53.68,-20.68,-7.56,2a
2019-07-12_112410:940,-0.490601,0.007599,-0.075226,-0.005344,-0.010059,0.005678,-53.68,-20.68,-7.56,2a
2019-07-12_112410:960,-0.49111899999999997,0.0055850000000000006,-0.076752,-0.004947,-0.010578,0.006074,-53.68,-20.68,-7.56,2a
2019-07-12_112410:980,-0.49111899999999997,0.008636,-0.078796,-0.004947,-0.011127,0.005464,-52.869999,-20.370001000000002,-7.56,2a
2019-07-12_112411:000,-0.49365200000000004,0.008118,-0.07928500000000001,-0.004978,-0.011188,0.00525,-52.869999,-20.370001000000002,-7.56,2a
2019-07-12_112411:020,-0.494171,0.007111,-0.081329,-0.005039,-0.010851999999999999,0.004793,-54.369999,-20.68,-8.37,2a
2019-07-12_112411:040,-0.49517799999999995,0.007599,-0.082336,-0.005161,-0.010851999999999999,0.004274,-54.369999,-20.68,-8.37,2a
2019-07-12_112411:060,-0.496704,0.006592,-0.083862,-0.005161,-0.010242,0.004548,-54.369999,-20.68,-8.37,2a
2019-07-12_112411:080,-0.49722299999999997,0.006592,-0.085388,-0.005039,-0.009723,0.004671,-52.869999,-20.68,-8.75,2a
2019-07-12_112411:100,-0.498749,0.007599,-0.084381,-0.005039,-0.009143,0.004396,-52.869999,-20.68,-8.75,2a
2019-07-12_112411:120,-0.49722299999999997,0.009644,-0.086426,-0.004947,-0.008716,0.004671,-52.869999,-20.68,-8.37,2a
2019-07-12_112411:140,-0.496704,0.009644,-0.084381,-0.004947,-0.008136,0.005006,-52.869999,-20.68,-8.37,2a
2019-07-12_112411:160,-0.495697,0.010162000000000001,-0.08743300000000001,-0.004978,-0.007801000000000001,0.00525,-52.869999,-20.68,-8.37,2a
2019-07-12_112411:180,-0.49517799999999995,0.011169,-0.086914,-0.005344,-0.007923000000000001,0.0058,-52.5,-20.68,-7.56,2a
2019-07-12_112411:200,-0.49517799999999995,0.012695,-0.086426,-0.005771,-0.007739,0.006532,-52.5,-20.68,-7.56,2a
2019-07-12_112411:220,-0.496704,0.010162000000000001,-0.08843999999999999,-0.006076,-0.007862000000000001,0.0071730000000000006,-53.25,-21.059998999999998,-8.75,2a
2019-07-12_112411:240,-0.495697,0.008636,-0.086426,-0.0064730000000000005,-0.007343000000000001,0.007783,-53.25,-21.059998999999998,-8.75,2a
2019-07-12_112411:260,-0.491638,0.006072999999999999,-0.08743300000000001,-0.0069,-0.00719,0.007844,-53.25,-21.059998999999998,-8.75,2a
2019-07-12_112411:280,-0.49111899999999997,0.006592,-0.087952,-0.007358,-0.007343000000000001,0.007661,-52.869999,-20.0,-9.56,2a
2019-07-12_112411:300,-0.492126,0.004059,-0.087952,-0.00748,-0.007862000000000001,0.007965999999999999,-52.869999,-20.0,-9.56,2a
2019-07-12_112411:320,-0.492126,0.002014,-0.08743300000000001,-0.007755,-0.008075,0.008241,-53.68,-20.370001000000002,-8.75,2a
2019-07-12_112411:340,-0.49517799999999995,0.0,-0.08743300000000001,-0.007816,-0.008075,0.008516,-53.68,-20.370001000000002,-8.75,2a
2019-07-12_112411:360,-0.49365200000000004,0.0,-0.088959,-0.008152,-0.007862000000000001,0.008638,-53.68,-20.370001000000002,-8.75,2a
2019-07-12_112411:380,-0.49468999999999996,-0.001495,-0.090485,-0.008487,-0.007862000000000001,0.008790000000000001,-53.25,-20.370001000000002,-9.56,2a
2019-07-12_112411:400,-0.49517799999999995,-0.0035399999999999997,-0.088959,-0.009006,-0.007465,0.008516,-53.25,-20.370001000000002,-9.56,2a
2019-07-12_112411:420,-0.49365200000000004,-0.004059,-0.090485,-0.009159,-0.0070680000000000005,0.00818,-53.68,-20.0,-10.0,2a
2019-07-12_112411:440,-0.495697,-0.007599,-0.09149199999999999,-0.009159,-0.007129000000000001,0.007112,-53.68,-20.0,-10.0,2a
2019-07-12_112411:460,-0.492645,-0.007599,-0.092529,-0.008884,-0.006885,0.006135,-53.68,-20.0,-10.0,2a
2019-07-12_112411:480,-0.491638,-0.007111,-0.09353600000000001,-0.00867,-0.0070680000000000005,0.006379,-54.369999,-20.0,-8.75,2a
2019-07-12_112411:500,-0.492126,-0.009644,-0.092529,-0.008426000000000001,-0.007220999999999999,0.006654,-54.369999,-20.0,-8.75,2a
2019-07-12_112411:520,-0.49468999999999996,-0.009125,-0.09301799999999999,-0.008152,-0.006885,0.006379,-53.68,-20.370001000000002,-9.56,2a
2019-07-12_112411:540,-0.49468999999999996,-0.009125,-0.091003,-0.008152,-0.006548999999999999,0.006196,-53.68,-20.370001000000002,-9.56,2a
2019-07-12_112411:560,-0.494171,-0.009644,-0.09201000000000001,-0.008395999999999999,-0.0060609999999999995,0.006044,-53.68,-20.370001000000002,-9.56,2a
2019-07-12_112411:580,-0.49365200000000004,-0.010162000000000001,-0.09301799999999999,-0.008548,-0.005573,0.005189,-52.869999,-20.0,-8.37,2a
2019-07-12_112411:600,-0.491638,-0.009644,-0.09201000000000001,-0.008395999999999999,-0.005176,0.004152,-52.869999,-20.0,-8.37,2a
2019-07-12_112411:620,-0.491638,-0.011169,-0.092529,-0.007999,-0.005115,0.002778,-53.68,-20.370001000000002,-8.75,2a
2019-07-12_112411:640,-0.489594,-0.010162000000000001,-0.090485,-0.006962,-0.005054,0.0008560000000000001,-53.68,-20.370001000000002,-8.75,2a
2019-07-12_112411:660,-0.491638,-0.007599,-0.09201000000000001,-0.005558,-0.005054,-0.000212,-53.68,-20.370001000000002,-8.75,2a
2019-07-12_112411:680,-0.491638,-0.007111,-0.088959,-0.00394,-0.004961999999999999,-9e-05,-54.0,-20.0,-10.0,2a
2019-07-12_112411:700,-0.49365200000000004,-0.004547,-0.091003,-0.0022010000000000003,-0.005298,-0.00067,-54.0,-20.0,-10.0,2a
2019-07-12_112411:720,-0.49316400000000005,0.001495,-0.09149199999999999,-0.0011330000000000001,-0.00539,-0.000884,-52.869999,-20.0,-10.37,2a
2019-07-12_112411:740,-0.49517799999999995,0.004547,-0.08996599999999999,-9.499999999999999e-05,-0.0055119999999999995,0.000368,-52.869999,-20.0,-10.37,2a
2019-07-12_112411:760,-0.494171,0.008636,-0.09201000000000001,-9.499999999999999e-05,-0.00539,0.001253,-52.869999,-20.0,-10.37,2a
2019-07-12_112411:780,-0.49316400000000005,0.011687999999999999,-0.091003,-0.000736,-0.005054,0.001527,-53.68,-19.559998999999998,-10.0,2a
2019-07-12_112411:800,-0.492645,0.013702,-0.090485,-0.0016820000000000001,-0.004961999999999999,0.0017100000000000001,-53.68,-19.559998999999998,-10.0,2a
2019-07-12_112411:820,-0.491638,0.015747,-0.090485,-0.002994,-0.004657,0.002107,-53.25,-20.68,-9.18,2a
2019-07-12_112411:840,-0.490601,0.012695,-0.08843999999999999,-0.004123,-0.004596,0.002443,-53.25,-20.68,-9.18,2a
2019-07-12_112411:860,-0.49111899999999997,0.011169,-0.089478,-0.005344,-0.004993,0.002778,-53.25,-20.68,-9.18,2a
2019-07-12_112411:880,-0.492126,0.008118,-0.089478,-0.0060149999999999995,-0.004961999999999999,0.003053,-53.68,-20.370001000000002,-10.0,2a
2019-07-12_112411:900,-0.49365200000000004,0.006592,-0.087952,-0.006351,-0.005176,0.0034189999999999997,-53.68,-20.370001000000002,-10.0,2a
2019-07-12_112411:920,-0.492126,0.0035399999999999997,-0.088959,-0.006076,-0.0052369999999999995,0.003297,-52.5,-20.370001000000002,-9.18,2a
2019-07-12_112411:940,-0.490601,0.0025329999999999997,-0.08743300000000001,-0.005619,-0.0052369999999999995,0.003694,-52.5,-20.370001000000002,-9.18,2a
2019-07-12_112411:960,-0.490112,0.0025329999999999997,-0.089478,-0.004947,-0.005817,0.0039689999999999994,-52.5,-20.370001000000002,-9.18,2a
2019-07-12_112411:980,-0.490112,0.0035399999999999997,-0.089478,-0.004398,-0.0061530000000000005,0.004152,-54.369999,-21.059998999999998,-9.56,2a
2019-07-12_112412:000,-0.492126,0.005065999999999999,-0.088959,-0.004275999999999999,-0.006488,0.004457,-54.369999,-21.059998999999998,-9.56,2a
2019-07-12_112412:020,-0.494171,0.006592,-0.090485,-0.004642,-0.006548999999999999,0.005189,-52.869999,-20.68,-8.75,2a
2019-07-12_112412:040,-0.496704,0.006592,-0.08843999999999999,-0.005558,-0.006885,0.006135,-52.869999,-20.68,-8.75,2a
2019-07-12_112412:060,-0.496216,0.0055850000000000006,-0.090485,-0.006809,-0.006731999999999999,0.006654,-52.869999,-20.68,-8.75,2a
2019-07-12_112412:080,-0.492645,0.0025329999999999997,-0.088959,-0.008274,-0.006670999999999999,0.006441,-54.0,-20.68,-8.75,2a
2019-07-12_112412:100,-0.492126,0.000488,-0.090485,-0.009281000000000001,-0.006488,0.0058,-54.0,-20.68,-8.75,2a
2019-07-12_112412:120,-0.489594,-0.0030210000000000002,-0.090485,-0.009678,-0.006670999999999999,0.004915,-53.68,-20.68,-9.56,2a
2019-07-12_112412:140,-0.492645,-0.005065999999999999,-0.090485,-0.009281000000000001,-0.006731999999999999,0.00403,-53.68,-20.68,-9.56,2a
2019-07-12_112412:160,-0.490601,-0.006072999999999999,-0.09201000000000001,-0.008091,-0.006548999999999999,0.0029620000000000002,-53.68,-20.68,-9.56,2a
2019-07-12_112412:180,-0.491638,-0.006072999999999999,-0.09149199999999999,-0.006351,-0.006336,0.002565,-53.25,-20.0,-9.56,2a
2019-07-12_112412:200,-0.495697,-0.004547,-0.091003,-0.004337,-0.006336,0.002321,-53.25,-20.0,-9.56,2a
2019-07-12_112412:220,-0.49517799999999995,-0.004059,-0.09201000000000001,-0.0027199999999999998,-0.005939,0.001832,-54.75,-20.370001000000002,-9.56,2a
2019-07-12_112412:240,-0.49316400000000005,-0.001007,-0.090485,-0.0011330000000000001,-0.005817,0.001253,-54.75,-20.370001000000002,-9.56,2a
2019-07-12_112412:260,-0.492645,0.007111,-0.09353600000000001,-0.000278,-0.005817,0.000978,-54.75,-20.370001000000002,-9.56,2a
2019-07-12_112412:280,-0.492645,0.011169,-0.09201000000000001,-0.00046100000000000004,-0.005878,0.001832,-53.25,-20.0,-10.0,2a
2019-07-12_112412:300,-0.489075,0.016753999999999998,-0.09353600000000001,-0.001468,-0.0061530000000000005,0.002839,-53.25,-20.0,-10.0,2a
2019-07-12_112412:320,-0.488068,0.01828,-0.09301799999999999,-0.002994,-0.006336,0.003053,-53.25,-20.68,-10.0,2a
2019-07-12_112412:340,-0.48754899999999995,0.019806,-0.094055,-0.004947,-0.0066099999999999996,0.0027170000000000002,-53.25,-20.68,-10.0,2a
2019-07-12_112412:360,-0.489594,0.01828,-0.096069,-0.0067480000000000005,-0.006670999999999999,0.0027170000000000002,-53.25,-20.68,-10.0,2a
2019-07-12_112412:380,-0.492126,0.017792,-0.096069,-0.008426000000000001,-0.006793,0.003053,-53.68,-21.059998999999998,-9.18,2a
2019-07-12_112412:400,-0.49468999999999996,0.012177,-0.096069,-0.009617,-0.006336,0.003572,-53.68,-21.059998999999998,-9.18,2a
2019-07-12_112412:420,-0.495697,0.008118,-0.096588,-0.009951999999999999,-0.005725,0.004091,-53.25,-21.059998999999998,-8.75,2a
2019-07-12_112412:440,-0.49823,0.004059,-0.096588,-0.009922,-0.004993,0.004152,-53.25,-21.059998999999998,-8.75,2a
2019-07-12_112412:460,-0.501282,0.002014,-0.094055,-0.009281000000000001,-0.004657,0.004457,-53.25,-21.059998999999998,-8.75,2a
2019-07-12_112412:480,-0.49823,0.001007,-0.09454299999999999,-0.008152,-0.0038640000000000002,0.00525,-52.869999,-20.68,-9.56,2a
2019-07-12_112412:500,-0.49468999999999996,-0.001495,-0.092529,-0.0065650000000000005,-0.00307,0.004396,-52.869999,-20.68,-9.56,2a
2019-07-12_112412:520,-0.49517799999999995,-0.000488,-0.09301799999999999,-0.004947,-0.00307,0.0029620000000000002,-53.68,-20.68,-8.75,2a
2019-07-12_112412:540,-0.490601,0.005065999999999999,-0.08996599999999999,-0.0033909999999999995,-0.003314,0.003572,-53.68,-20.68,-8.75,2a
2019-07-12_112412:560,-0.490601,0.006592,-0.09201000000000001,-0.002475,-0.00365,0.004548,-53.68,-20.68,-8.75,2a
2019-07-12_112412:580,-0.492126,0.010651,-0.09201000000000001,-0.001957,-0.004169,0.004213000000000001,-52.869999,-20.68,-8.75,2a
2019-07-12_112412:600,-0.492645,0.013213999999999998,-0.08996599999999999,-0.00214,-0.003925,0.004335,-52.869999,-20.68,-8.75,2a
2019-07-12_112412:620,-0.494171,0.012177,-0.088959,-0.002811,-0.004444,0.004854,-53.25,-21.870001000000002,-9.18,2a
2019-07-12_112412:640,-0.49365200000000004,0.014740000000000001,-0.08743300000000001,-0.004275999999999999,-0.004108,0.005342,-53.25,-21.870001000000002,-9.18,2a
2019-07-12_112412:660,-0.49468999999999996,0.010651,-0.087952,-0.005558,-0.004169,0.005678,-53.25,-21.870001000000002,-9.18,2a
2019-07-12_112412:680,-0.492645,0.007599,-0.08843999999999999,-0.006504,-0.003925,0.005311,-53.25,-20.370001000000002,-8.37,2a
2019-07-12_112412:700,-0.492645,0.006072999999999999,-0.08743300000000001,-0.00687,-0.003833,0.004671,-53.25,-20.370001000000002,-8.37,2a
2019-07-12_112412:720,-0.490112,0.0035399999999999997,-0.086914,-0.00687,-0.0037719999999999997,0.004396,-54.0,-20.68,-9.18,2a
2019-07-12_112412:740,-0.490112,0.0030210000000000002,-0.08743300000000001,-0.0064730000000000005,-0.004321,0.004274,-54.0,-20.68,-9.18,2a
2019-07-12_112412:760,-0.490601,0.0025329999999999997,-0.08743300000000001,-0.005771,-0.004566,0.004335,-54.0,-20.68,-9.18,2a
2019-07-12_112412:780,-0.49111899999999997,0.0030210000000000002,-0.08743300000000001,-0.004764,-0.00484,0.003908,-52.869999,-20.68,-8.37,2a
2019-07-12_112412:800,-0.49111899999999997,0.005065999999999999,-0.086914,-0.0042450000000000005,-0.005176,0.0038469999999999997,-52.869999,-20.68,-8.37,2a
2019-07-12_112412:820,-0.492645,0.007599,-0.08590700000000001,-0.00394,-0.0055119999999999995,0.00403,-52.869999,-20.370001000000002,-10.75,2a
2019-07-12_112412:840,-0.494171,0.009644,-0.08743300000000001,-0.004001,-0.005573,0.004457,-52.869999,-20.370001000000002,-10.75,2a
2019-07-12_112412:860,-0.492645,0.009125,-0.086914,-0.004275999999999999,-0.005878,0.004732,-52.869999,-20.370001000000002,-10.75,2a
2019-07-12_112412:880,-0.492645,0.012177,-0.088959,-0.004703,-0.0060609999999999995,0.004915,-52.869999,-20.0,-8.75,2a
2019-07-12_112412:900,-0.492645,0.009644,-0.087952,-0.005161,-0.0060609999999999995,0.005342,-52.869999,-20.0,-8.75,2a
2019-07-12_112412:920,-0.49365200000000004,0.008636,-0.089478,-0.005741,-0.006,0.005983,-53.25,-21.059998999999998,-8.75,2a
2019-07-12_112412:940,-0.492126,0.006592,-0.089478,-0.005893,-0.005939,0.006379,-53.25,-21.059998999999998,-8.75,2a
2019-07-12_112412:960,-0.491638,0.0035399999999999997,-0.08996599999999999,-0.005832,-0.006092,0.006074,-53.25,-21.059998999999998,-8.75,2a
2019-07-12_112412:980,-0.490601,0.0030210000000000002,-0.090485,-0.005832,-0.0060609999999999995,0.006135,-53.25,-20.68,-9.18,2a
2019-07-12_112413:000,-0.492645,0.000488,-0.090485,-0.005619,-0.0060609999999999995,0.006044,-53.25,-20.68,-9.18,2a
2019-07-12_112413:020,-0.494171,0.000488,-0.089478,-0.005741,-0.005725,0.005861,-53.68,-20.370001000000002,-8.75,2a
2019-07-12_112413:040,-0.497742,-0.000488,-0.090485,-0.005375,-0.005451,0.00525,-53.68,-20.370001000000002,-8.75,2a
2019-07-12_112413:060,-0.49722299999999997,0.0,-0.08843999999999999,-0.0051,-0.004901,0.004671,-53.68,-20.370001000000002,-8.75,2a
2019-07-12_112413:080,-0.497742,0.000488,-0.08843999999999999,-0.004764,-0.004321,0.004457,-52.869999,-21.059998999999998,-10.37,2a
2019-07-12_112413:100,-0.496704,0.001495,-0.087952,-0.004703,-0.003711,0.004335,-52.869999,-21.059998999999998,-10.37,2a
2019-07-12_112413:120,-0.49111899999999997,0.0,-0.086914,-0.004642,-0.003589,0.004396,-52.5,-21.059998999999998,-9.56,2a
2019-07-12_112413:140,-0.492126,0.0,-0.08996599999999999,-0.0042450000000000005,-0.00426,0.0034189999999999997,-52.5,-21.059998999999998,-9.56,2a
2019-07-12_112413:160,-0.49111899999999997,0.0030210000000000002,-0.08743300000000001,-0.004001,-0.004657,0.0038469999999999997,-52.5,-21.059998999999998,-9.56,2a
2019-07-12_112413:180,-0.49111899999999997,0.004547,-0.086426,-0.00394,-0.004993,0.005006,-53.68,-20.0,-9.18,2a
2019-07-12_112413:200,-0.49517799999999995,0.001007,-0.084381,-0.0042450000000000005,-0.004596,0.004915,-53.68,-20.0,-9.18,2a
2019-07-12_112413:220,-0.49316400000000005,0.001495,-0.086426,-0.004275999999999999,-0.004444,0.004548,-54.0,-21.059998999999998,-8.75,2a
2019-07-12_112413:240,-0.492126,0.0,-0.085388,-0.0042450000000000005,-0.004383,0.004274,-54.0,-21.059998999999998,-8.75,2a
2019-07-12_112413:260,-0.490112,0.001007,-0.084381,-0.004275999999999999,-0.004596,0.003297,-54.0,-21.059998999999998,-8.75,2a
2019-07-12_112413:280,-0.48858599999999996,0.0035399999999999997,-0.085388,-0.0042450000000000005,-0.004657,0.002778,-53.68,-20.370001000000002,-8.37,2a
2019-07-12_112413:300,-0.489075,0.006072999999999999,-0.083862,-0.004520000000000001,-0.0055119999999999995,0.0026260000000000003,-53.68,-20.370001000000002,-8.37,2a
2019-07-12_112413:320,-0.491638,0.006592,-0.086914,-0.004612,-0.005817,0.002565,-54.369999,-20.370001000000002,-8.75,2a
2019-07-12_112413:340,-0.49517799999999995,0.006592,-0.086426,-0.005222,-0.006275,0.002443,-54.369999,-20.370001000000002,-8.75,2a
2019-07-12_112413:360,-0.498749,0.006592,-0.0849,-0.005619,-0.006336,0.003908,-54.369999,-20.370001000000002,-8.75,2a
2019-07-12_112413:380,-0.49823,0.002014,-0.0849,-0.005832,-0.005756,0.004274,-54.0,-20.68,-8.37,2a
2019-07-12_112413:400,-0.495697,-0.0030210000000000002,-0.082855,-0.0052829999999999995,-0.005298,0.002229,-54.0,-20.68,-8.37,2a
2019-07-12_112413:420,-0.489594,0.001007,-0.086426,-0.005161,-0.0052369999999999995,0.001893,-53.68,-20.68,-9.18,2a
2019-07-12_112413:440,-0.48858599999999996,-0.000488,-0.086426,-0.003879,-0.006092,0.003114,-53.68,-20.68,-9.18,2a
2019-07-12_112413:460,-0.48754899999999995,0.0,-0.08590700000000001,-0.003452,-0.006397,0.0026260000000000003,-53.68,-20.68,-9.18,2a
2019-07-12_112413:480,-0.486023,0.004547,-0.087952,-0.003452,-0.006854000000000001,0.002046,-53.68,-21.059998999999998,-8.37,2a
2019-07-12_112413:500,-0.490601,0.005065999999999999,-0.08743300000000001,-0.0032689999999999998,-0.007801000000000001,0.0011,-53.68,-21.059998999999998,-8.37,2a
2019-07-12_112413:520,-0.494171,0.007599,-0.089478,-0.003483,-0.007801000000000001,0.0011,-54.0,-20.370001000000002,-8.0,2a
2019-07-12_112413:540,-0.496704,0.008636,-0.090485,-0.004001,-0.007984,0.002382,-54.0,-20.370001000000002,-8.0,2a
2019-07-12_112413:560,-0.500793,0.008118,-0.08843999999999999,-0.004275999999999999,-0.007220999999999999,0.0027170000000000002,-54.0,-20.370001000000002,-8.0,2a
2019-07-12_112413:580,-0.500275,0.007111,-0.09149199999999999,-0.004581,-0.006885,0.0027170000000000002,-52.869999,-21.059998999999998,-9.18,2a
2019-07-12_112413:600,-0.495697,0.007111,-0.089478,-0.004337,-0.005359,0.0029620000000000002,-52.869999,-21.059998999999998,-9.18,2a
2019-07-12_112413:620,-0.492645,0.006072999999999999,-0.08996599999999999,-0.004184,-0.005298,0.0026260000000000003,-53.68,-20.68,-8.75,2a
2019-07-12_112413:640,-0.48706099999999997,0.009644,-0.08996599999999999,-0.004001,-0.0052369999999999995,0.001893,-53.68,-20.68,-8.75,2a
2019-07-12_112413:660,-0.48654200000000003,0.011169,-0.090485,-0.004062,-0.005573,0.001497,-53.68,-20.68,-8.75,2a
2019-07-12_112413:680,-0.49316400000000005,0.012695,-0.08996599999999999,-0.004123,-0.005725,0.0011,-53.25,-21.5,-9.18,2a
2019-07-12_112413:700,-0.495697,0.013213999999999998,-0.08996599999999999,-0.004275999999999999,-0.006,0.001161,-53.25,-21.5,-9.18,2a
2019-07-12_112413:720,-0.49722299999999997,0.014221000000000001,-0.088959,-0.004459,-0.0060609999999999995,0.001527,-53.25,-21.5,-9.18,2a
2019-07-12_112413:740,-0.49722299999999997,0.014740000000000001,-0.089478,-0.004642,-0.005573,0.00229,-52.5,-21.059998999999998,-9.18,2a
2019-07-12_112413:760,-0.49517799999999995,0.016753999999999998,-0.08996599999999999,-0.005344,-0.00539,0.0026260000000000003,-52.5,-21.059998999999998,-9.18,2a
2019-07-12_112413:780,-0.49365200000000004,0.01828,-0.08996599999999999,-0.005436,-0.005634,0.002778,-53.68,-21.059998999999998,-9.56,2a
2019-07-12_112413:800,-0.48754899999999995,0.020844,-0.089478,-0.0061070000000000004,-0.005054,0.002168,-53.68,-21.059998999999998,-9.56,2a
2019-07-12_112413:820,-0.48300200000000004,0.023375999999999997,-0.092529,-0.006504,-0.005176,0.0016489999999999999,-53.68,-21.059998999999998,-9.56,2a
2019-07-12_112413:840,-0.484009,0.023895,-0.09454299999999999,-0.00748,-0.006458,0.0019850000000000002,-53.25,-20.370001000000002,-9.18,2a
2019-07-12_112413:860,-0.491638,0.023895,-0.09301799999999999,-0.008548,-0.00719,0.0034189999999999997,-53.25,-20.370001000000002,-9.18,2a
2019-07-12_112413:880,-0.501801,0.017273,-0.092529,-0.008823000000000001,-0.006945999999999999,0.004274,-52.869999,-21.870001000000002,-9.18,2a
2019-07-12_112413:900,-0.505371,0.010162000000000001,-0.089478,-0.00867,-0.0060609999999999995,0.005311,-52.869999,-21.870001000000002,-9.18,2a
2019-07-12_112413:920,-0.504333,0.0055850000000000006,-0.090485,-0.007541,-0.004596,0.004335,-52.869999,-21.870001000000002,-9.18,2a
2019-07-12_112413:940,-0.49926800000000005,0.007111,-0.088959,-0.005954,-0.002735,0.003908,-53.68,-21.5,-8.0,2a
2019-07-12_112413:960,-0.49517799999999995,0.010651,-0.08743300000000001,-0.003483,-0.0017280000000000002,0.004732,-53.68,-21.5,-8.0,2a
2019-07-12_112413:980,-0.48858599999999996,0.014221000000000001,-0.08590700000000001,-0.002933,-0.0017280000000000002,0.004915,-53.25,-21.5,-9.18,2a
2019-07-12_112414:000,-0.48553500000000005,0.015747,-0.085388,-0.002262,-0.0021850000000000003,0.004854,-53.25,-21.5,-9.18,2a
2019-07-12_112414:020,-0.48706099999999997,0.020325,-0.086914,-0.002414,-0.002857,0.004609,-53.25,-21.5,-9.18,2a
2019-07-12_112414:040,-0.48754899999999995,0.022858,-0.086914,-0.0037270000000000003,-0.0045049999999999995,0.004671,-53.68,-21.5,-9.18,2a
2019-07-12_112414:060,-0.491638,0.021851,-0.08743300000000001,-0.004520000000000001,-0.004961999999999999,0.005128,-53.68,-21.5,-9.18,2a
2019-07-12_112414:080,-0.49517799999999995,0.020325,-0.086426,-0.005893,-0.005298,0.005464,-52.869999,-21.5,-9.56,2a
2019-07-12_112414:100,-0.49823,0.016266,-0.0849,-0.007145,-0.004901,0.00525,-52.869999,-21.5,-9.56,2a
2019-07-12_112414:120,-0.497742,0.013213999999999998,-0.086426,-0.007816,-0.0045049999999999995,0.004915,-52.869999,-21.870001000000002,-8.37,2a
2019-07-12_112414:140,-0.49517799999999995,0.010651,-0.0849,-0.008029999999999999,-0.003711,0.004518,-52.869999,-21.870001000000002,-8.37,2a
2019-07-12_112414:160,-0.49365200000000004,0.008636,-0.0849,-0.00748,-0.002979,0.004335,-52.869999,-21.870001000000002,-8.37,2a
2019-07-12_112414:180,-0.492126,0.007599,-0.084381,-0.007145,-0.0031309999999999997,0.004396,-52.5,-21.059998999999998,-8.75,2a
2019-07-12_112414:200,-0.49517799999999995,0.007111,-0.082855,-0.005436,-0.003467,0.004213000000000001,-52.5,-21.059998999999998,-8.75,2a
2019-07-12_112414:220,-0.49517799999999995,0.009125,-0.081329,-0.0051,-0.003436,0.004182,-52.5,-21.059998999999998,-8.75,2a
2019-07-12_112414:240,-0.492645,0.012177,-0.080322,-0.004642,-0.00365,0.004548,-53.25,-21.059998999999998,-7.56,2a
2019-07-12_112414:260,-0.49316400000000005,0.011687999999999999,-0.081848,-0.004275999999999999,-0.003589,0.004518,-53.25,-21.059998999999998,-7.56,2a
2019-07-12_112414:280,-0.49517799999999995,0.013213999999999998,-0.082336,-0.003849,-0.003833,0.003114,-53.68,-21.870001000000002,-9.18,2a
2019-07-12_112414:300,-0.491638,0.016753999999999998,-0.078796,-0.004001,-0.004169,0.00345,-53.68,-21.870001000000002,-9.18,2a
2019-07-12_112414:320,-0.492645,0.017792,-0.081329,-0.0042450000000000005,-0.004321,0.004548,-53.68,-21.870001000000002,-9.18,2a
2019-07-12_112414:340,-0.490112,0.024902,-0.07928500000000001,-0.005039,-0.00426,0.0034189999999999997,-52.5,-21.5,-8.0,2a
2019-07-12_112414:360,-0.497742,0.025421,-0.079803,-0.006809,-0.004169,0.002107,-52.5,-21.5,-8.0,2a
2019-07-12_112414:380,-0.504333,0.027954000000000003,-0.076752,-0.009403,-0.003467,0.003511,-52.869999,-20.68,-8.37,2a
2019-07-12_112414:400,-0.504333,0.026427999999999997,-0.075226,-0.011936,-0.00246,0.006470999999999999,-52.869999,-20.68,-8.37,2a
2019-07-12_112414:420,-0.496216,0.018799,-0.075745,-0.014255,-0.001789,0.007203,-52.869999,-20.68,-8.37,2a
2019-07-12_112414:440,-0.490601,0.014221000000000001,-0.075745,-0.016056,-0.002246,0.006470999999999999,-53.25,-20.68,-8.37,2a
2019-07-12_112414:460,-0.48754899999999995,0.0055850000000000006,-0.077271,-0.016452,-0.00365,0.006532,-53.25,-20.68,-8.37,2a
2019-07-12_112414:480,-0.488068,-0.002014,-0.075745,-0.015323,-0.004961999999999999,0.006837,-53.25,-21.870001000000002,-8.75,2a
2019-07-12_112414:500,-0.491638,-0.009125,-0.074738,-0.012790000000000001,-0.005359,0.006196,-53.25,-21.870001000000002,-8.75,2a
2019-07-12_112414:520,-0.492126,-0.011169,-0.07421900000000001,-0.009128,-0.0055119999999999995,0.005128,-53.25,-21.870001000000002,-8.75,2a
2019-07-12_112414:540,-0.491638,-0.009644,-0.075745,-0.0051,-0.0052369999999999995,0.004274,-52.869999,-21.870001000000002,-7.18,2a
2019-07-12_112414:560,-0.490112,-0.0055850000000000006,-0.076752,-0.0016820000000000001,-0.005725,0.0034189999999999997,-52.869999,-21.870001000000002,-7.18,2a
2019-07-12_112414:580,-0.490112,0.0030210000000000002,-0.078278,0.001034,-0.006275,0.003023,-53.25,-21.059998999999998,-8.0,2a
2019-07-12_112414:600,-0.49316400000000005,0.012177,-0.076752,0.002041,-0.007006999999999999,0.002321,-53.25,-21.059998999999998,-8.0,2a
2019-07-12_112414:620,-0.49316400000000005,0.020325,-0.078796,0.0017050000000000001,-0.007404000000000001,0.001497,-53.25,-21.059998999999998,-8.0,2a
2019-07-12_112414:640,-0.490112,0.024902,-0.079803,0.00018,-0.007801000000000001,0.000245,-52.18,-21.870001000000002,-6.37,2a
2019-07-12_112414:660,-0.48754899999999995,0.027954000000000003,-0.081329,-0.0019260000000000002,-0.008747,0.000642,-52.18,-21.870001000000002,-6.37,2a
2019-07-12_112414:680,-0.491638,0.026427999999999997,-0.085388,-0.004275999999999999,-0.009845,0.003053,-54.0,-20.68,-8.75,2a
2019-07-12_112414:700,-0.49823,0.021332,-0.082855,-0.0064730000000000005,-0.010333,0.005861,-54.0,-20.68,-8.75,2a
2019-07-12_112414:720,-0.501801,0.014221000000000001,-0.081848,-0.007999,-0.009662,0.006532,-54.0,-20.68,-8.75,2a
2019-07-12_112414:740,-0.505371,0.002014,-0.080322,-0.008152,-0.008075,0.005739,-52.5,-21.5,-7.18,2a
2019-07-12_112414:760,-0.5058590000000001,-0.001495,-0.081329,-0.006687,-0.0061530000000000005,0.00525,-52.5,-21.5,-7.18,2a
2019-07-12_112414:780,-0.49823,-0.006592,-0.079803,-0.003849,-0.00484,0.004915,-52.5,-21.870001000000002,-6.75,2a
2019-07-12_112414:800,-0.49365200000000004,-0.004059,-0.07928500000000001,-0.000278,-0.004383,0.005067,-52.5,-21.870001000000002,-6.75,2a
2019-07-12_112414:820,-0.48196400000000006,-0.001495,-0.083374,0.002774,-0.005176,0.005678,-52.5,-21.870001000000002,-6.75,2a
2019-07-12_112414:840,-0.48196400000000006,0.004547,-0.0849,0.004971,-0.006731999999999999,0.007509,-52.869999,-21.5,-8.37,2a
2019-07-12_112414:860,-0.48196400000000006,0.009125,-0.08590700000000001,0.005947,-0.00838,0.008790000000000001,-52.869999,-21.5,-8.37,2a
2019-07-12_112414:880,-0.482483,0.013213999999999998,-0.087952,0.005154,-0.010272,0.0076,-54.0,-21.5,-7.56,2a
2019-07-12_112414:900,-0.484497,0.021851,-0.09149199999999999,0.0032310000000000004,-0.011524,0.005922,-54.0,-21.5,-7.56,2a
2019-07-12_112414:920,-0.48196400000000006,0.023895,-0.09149199999999999,0.0009119999999999999,-0.012317,0.005128,-54.0,-21.5,-7.56,2a
2019-07-12_112414:940,-0.48654200000000003,0.026427999999999997,-0.099121,-0.002018,-0.013568,0.002839,-52.5,-20.68,-8.37,2a
2019-07-12_112414:960,-0.489075,0.026917,-0.100647,-0.004947,-0.014240000000000001,6.2e-05,-52.5,-20.68,-8.37,2a
2019-07-12_112414:980,-0.495697,0.028961,-0.10318,-0.0076939999999999995,-0.014759,-0.0008230000000000001,-53.25,-21.059998999999998,-9.18,2a
2019-07-12_112415:000,-0.503845,0.026917,-0.10116599999999999,-0.010348999999999999,-0.01369,-0.0009449999999999999,-53.25,-21.059998999999998,-9.18,2a
2019-07-12_112415:020,-0.508423,0.022858,-0.102173,-0.012211,-0.011188,-0.001891,-53.25,-21.059998999999998,-9.18,2a
2019-07-12_112415:040,-0.5109560000000001,0.021332,-0.10116599999999999,-0.013065,-0.008594,-0.002349,-52.869999,-21.5,-10.0,2a
2019-07-12_112415:060,-0.514008,0.018799,-0.09811399999999999,-0.012577,-0.005817,-0.002257,-52.869999,-21.5,-10.0,2a
2019-07-12_112415:080,-0.510437,0.018799,-0.098633,-0.011539,-0.0030399999999999997,-0.002135,-52.5,-21.870001000000002,-9.56,2a
2019-07-12_112415:100,-0.5058590000000001,0.019318000000000002,-0.09353600000000001,-0.010471,-0.000263,-0.0011279999999999999,-52.5,-21.870001000000002,-9.56,2a
2019-07-12_112415:120,-0.49926800000000005,0.018799,-0.094055,-0.009128,0.0018739999999999998,0.001192,-52.5,-21.870001000000002,-9.56,2a
2019-07-12_112415:140,-0.492645,0.019318000000000002,-0.090485,-0.007633,0.0033079999999999997,0.0032359999999999997,-52.869999,-22.18,-9.56,2a
2019-07-12_112415:160,-0.489594,0.019318000000000002,-0.089478,-0.006687,0.0033079999999999997,0.005067,-52.869999,-22.18,-9.56,2a
2019-07-12_112415:180,-0.48858599999999996,0.017792,-0.08590700000000001,-0.005558,0.002972,0.007509,-52.18,-22.559998999999998,-8.0,2a
2019-07-12_112415:200,-0.489075,0.014221000000000001,-0.0849,-0.004642,0.00227,0.008394,-52.18,-22.559998999999998,-8.0,2a
2019-07-12_112415:220,-0.490112,0.014740000000000001,-0.082336,-0.004001,0.001446,0.008241,-52.18,-22.559998999999998,-8.0,2a
2019-07-12_112415:240,-0.490601,0.014221000000000001,-0.081848,-0.003788,0.000805,0.009248000000000001,-52.5,-22.559998999999998,-9.18,2a
2019-07-12_112415:260,-0.490601,0.011169,-0.078796,-0.003544,-0.00047599999999999997,0.00992,-52.5,-22.559998999999998,-9.18,2a
2019-07-12_112415:280,-0.492126,0.011169,-0.08081100000000001,-0.003483,-0.0012699999999999999,0.009492,-52.5,-21.5,-8.75,2a
2019-07-12_112415:300,-0.492645,0.011169,-0.078278,-0.003788,-0.00185,0.008912,-52.5,-21.5,-8.75,2a
2019-07-12_112415:320,-0.494171,0.009125,-0.078278,-0.00394,-0.0020629999999999997,0.008394,-52.5,-21.5,-8.75,2a
2019-07-12_112415:340,-0.49517799999999995,0.008636,-0.07775900000000001,-0.004184,-0.002307,0.007448000000000001,-52.869999,-21.870001000000002,-6.75,2a
2019-07-12_112415:360,-0.49468999999999996,0.007599,-0.075745,-0.004764,-0.0025210000000000002,0.006929,-52.869999,-21.870001000000002,-6.75,2a
2019-07-12_112415:380,-0.496704,0.007599,-0.076263,-0.004886,-0.00246,0.005922,-53.25,-21.5,-7.18,2a
2019-07-12_112415:400,-0.495697,0.006592,-0.07421900000000001,-0.004947,-0.002307,0.004396,-53.25,-21.5,-7.18,2a
2019-07-12_112415:420,-0.492126,0.008118,-0.075745,-0.005039,-0.002307,0.00345,-53.25,-21.5,-7.18,2a
2019-07-12_112415:440,-0.490112,0.009125,-0.076263,-0.004642,-0.002979,0.0032359999999999997,-52.869999,-20.68,-8.0,2a
2019-07-12_112415:460,-0.49316400000000005,0.009125,-0.07421900000000001,-0.004337,-0.0035280000000000003,0.0034189999999999997,-52.869999,-20.68,-8.0,2a
2019-07-12_112415:480,-0.49365200000000004,0.008118,-0.074738,-0.004062,-0.004169,0.003114,-53.25,-21.5,-8.0,2a
2019-07-12_112415:500,-0.49365200000000004,0.010162000000000001,-0.072174,-0.0036049999999999997,-0.004047,0.003114,-53.25,-21.5,-8.0,2a
2019-07-12_112415:520,-0.49316400000000005,0.013213999999999998,-0.07421900000000001,-0.003452,-0.00426,0.0034189999999999997,-53.25,-21.5,-8.0,2a
2019-07-12_112415:540,-0.49316400000000005,0.013702,-0.074738,-0.003544,-0.004657,0.0039689999999999994,-53.25,-21.5,-6.75,2a
2019-07-12_112415:560,-0.49517799999999995,0.014740000000000001,-0.075226,-0.0037270000000000003,-0.005298,0.004518,-53.25,-21.5,-6.75,2a
2019-07-12_112415:580,-0.49722299999999997,0.013213999999999998,-0.07421900000000001,-0.004001,-0.00539,0.004915,-52.869999,-21.870001000000002,-6.37,2a
2019-07-12_112415:600,-0.497742,0.010162000000000001,-0.071686,-0.004001,-0.005573,0.005128,-52.869999,-21.870001000000002,-6.37,2a
2019-07-12_112415:620,-0.496704,0.008118,-0.0737,-0.003879,-0.005359,0.004945000000000001,-52.869999,-21.870001000000002,-6.37,2a
2019-07-12_112415:640,-0.495697,0.006072999999999999,-0.073212,-0.003483,-0.005451,0.004732,-52.869999,-21.059998999999998,-6.75,2a
2019-07-12_112415:660,-0.492645,0.004059,-0.072693,-0.002994,-0.005451,0.004671,-52.869999,-21.059998999999998,-6.75,2a
2019-07-12_112415:680,-0.49316400000000005,0.0030210000000000002,-0.072693,-0.002018,-0.005634,0.004518,-51.75,-20.370001000000002,-8.0,2a
2019-07-12_112415:700,-0.49365200000000004,0.0030210000000000002,-0.072693,-0.00095,-0.006092,0.004152,-51.75,-20.370001000000002,-8.0,2a
2019-07-12_112415:720,-0.49365200000000004,0.005065999999999999,-0.073212,0.000241,-0.006275,0.003511,-51.75,-20.370001000000002,-8.0,2a
2019-07-12_112415:740,-0.495697,0.0055850000000000006,-0.07421900000000001,0.001126,-0.006214,0.0029620000000000002,-53.25,-21.5,-6.75,2a
2019-07-12_112415:760,-0.49517799999999995,0.011687999999999999,-0.072693,0.0015220000000000001,-0.0061530000000000005,0.002229,-53.25,-21.5,-6.75,2a
2019-07-12_112415:780,-0.49517799999999995,0.014740000000000001,-0.073212,0.0018280000000000002,-0.006092,0.0017100000000000001,-53.68,-21.5,-8.37,2a
2019-07-12_112415:800,-0.494171,0.018799,-0.073212,0.0015220000000000001,-0.0060609999999999995,0.0017100000000000001,-53.68,-21.5,-8.37,2a
2019-07-12_112415:820,-0.49316400000000005,0.019806,-0.075226,0.000729,-0.006397,0.001924,-53.68,-21.5,-8.37,2a
2019-07-12_112415:840,-0.490112,0.022369,-0.075745,-0.000217,-0.006854000000000001,0.002443,-53.68,-21.059998999999998,-7.18,2a
2019-07-12_112415:860,-0.492126,0.022369,-0.075745,-0.001529,-0.007343000000000001,0.0032359999999999997,-53.68,-21.059998999999998,-7.18,2a
2019-07-12_112415:880,-0.49468999999999996,0.022369,-0.078278,-0.002872,-0.007923000000000001,0.0038469999999999997,-53.25,-21.059998999999998,-8.37,2a
2019-07-12_112415:900,-0.495697,0.018799,-0.077271,-0.004275999999999999,-0.008075,0.004518,-53.25,-21.059998999999998,-8.37,2a
2019-07-12_112415:920,-0.49975600000000003,0.016753999999999998,-0.080322,-0.005222,-0.007862000000000001,0.004609,-53.25,-21.059998999999998,-8.37,2a
2019-07-12_112415:940,-0.495697,0.014221000000000001,-0.08081100000000001,-0.0060149999999999995,-0.007587000000000001,0.004945000000000001,-53.68,-21.059998999999998,-7.18,2a
2019-07-12_112415:960,-0.49468999999999996,0.010162000000000001,-0.081848,-0.006351,-0.007526000000000001,0.006135,-53.68,-21.059998999999998,-7.18,2a
2019-07-12_112415:980,-0.49316400000000005,0.007111,-0.082855,-0.0061070000000000004,-0.007220999999999999,0.006257,-52.18,-21.059998999999998,-8.37,2a
2019-07-12_112416:000,-0.49365200000000004,0.0055850000000000006,-0.082336,-0.005436,-0.007343000000000001,0.005678,-52.18,-21.059998999999998,-8.37,2a
2019-07-12_112416:020,-0.495697,0.004547,-0.083374,-0.004764,-0.006731999999999999,0.005342,-52.18,-21.059998999999998,-8.37,2a
2019-07-12_112416:040,-0.49926800000000005,0.006072999999999999,-0.081848,-0.00394,-0.006275,0.004732,-52.18,-21.870001000000002,-8.37,2a
2019-07-12_112416:060,-0.500275,0.008636,-0.08081100000000001,-0.003544,-0.0052369999999999995,0.004213000000000001,-52.18,-21.870001000000002,-8.37,2a
2019-07-12_112416:080,-0.49823,0.009644,-0.081329,-0.003544,-0.00484,0.004274,-52.869999,-21.5,-8.75,2a
2019-07-12_112416:100,-0.496704,0.009644,-0.07928500000000001,-0.0037270000000000003,-0.004566,0.004091,-52.869999,-21.5,-8.75,2a
2019-07-12_112416:120,-0.492126,0.011169,-0.080322,-0.003879,-0.004596,0.003694,-52.869999,-21.5,-8.75,2a
2019-07-12_112416:140,-0.49468999999999996,0.010651,-0.08081100000000001,-0.004184,-0.004961999999999999,0.0038469999999999997,-53.68,-21.059998999999998,-8.75,2a
2019-07-12_112416:160,-0.49316400000000005,0.008118,-0.07928500000000001,-0.004184,-0.00484,0.004609,-53.68,-21.059998999999998,-8.75,2a
2019-07-12_112416:180,-0.494171,0.007599,-0.07928500000000001,-0.004062,-0.004993,0.0039689999999999994,-53.25,-20.370001000000002,-7.56,2a
2019-07-12_112416:200,-0.49365200000000004,0.012695,-0.079803,-0.004062,-0.005115,0.003358,-53.25,-20.370001000000002,-7.56,2a
2019-07-12_112416:220,-0.49468999999999996,0.011687999999999999,-0.07928500000000001,-0.00394,-0.00539,0.004457,-53.25,-20.370001000000002,-7.56,2a
2019-07-12_112416:240,-0.491638,0.010162000000000001,-0.07928500000000001,-0.0042450000000000005,-0.005115,0.005189,-52.5,-21.059998999999998,-8.0,2a
2019-07-12_112416:260,-0.49517799999999995,0.010651,-0.07775900000000001,-0.004886,-0.004779,0.004396,-52.5,-21.059998999999998,-8.0,2a
2019-07-12_112416:280,-0.49926800000000005,0.009125,-0.08081100000000001,-0.004947,-0.004961999999999999,0.00403,-52.869999,-20.68,-7.56,2a
2019-07-12_112416:300,-0.49823,0.006592,-0.078796,-0.005039,-0.005451,0.0037549999999999997,-52.869999,-20.68,-7.56,2a
2019-07-12_112416:320,-0.49823,0.007599,-0.07775900000000001,-0.004581,-0.004657,0.002229,-52.869999,-20.68,-7.56,2a
2019-07-12_112416:340,-0.496216,0.010162000000000001,-0.07775900000000001,-0.00394,-0.0035280000000000003,0.0019850000000000002,-52.5,-21.059998999999998,-8.0,2a
2019-07-12_112416:360,-0.49111899999999997,0.010651,-0.077271,-0.0032689999999999998,-0.00246,0.003175,-52.5,-21.059998999999998,-8.0,2a
2019-07-12_112416:380,-0.48654200000000003,0.012695,-0.078278,-0.002994,-0.002918,0.0038469999999999997,-52.18,-21.059998999999998,-7.56,2a
2019-07-12_112416:400,-0.48654200000000003,0.016753999999999998,-0.078278,-0.003483,-0.004596,0.004182,-52.18,-21.059998999999998,-7.56,2a
2019-07-12_112416:420,-0.489075,0.015228,-0.08081100000000001,-0.0042450000000000005,-0.0066099999999999996,0.004915,-52.18,-21.059998999999998,-7.56,2a
2019-07-12_112416:440,-0.49975600000000003,0.013702,-0.07775900000000001,-0.0052829999999999995,-0.007587000000000001,0.004854,-53.25,-21.059998999999998,-7.18,2a
2019-07-12_112416:460,-0.508911,0.012695,-0.07775900000000001,-0.006351,-0.007281999999999999,0.004152,-53.25,-21.059998999999998,-7.18,2a
2019-07-12_112416:480,-0.511444,0.006592,-0.077271,-0.006504,-0.005878,0.0038159999999999995,-53.68,-21.059998999999998,-7.56,2a
2019-07-12_112416:500,-0.506897,0.004547,-0.075226,-0.005771,-0.003589,0.002839,-53.68,-21.059998999999998,-7.56,2a
2019-07-12_112416:520,-0.496216,0.0055850000000000006,-0.07421900000000001,-0.004459,-0.0014529999999999999,0.002046,-53.68,-21.059998999999998,-7.56,2a
2019-07-12_112416:540,-0.486023,0.006592,-0.072174,-0.002659,-0.000202,0.002687,-52.869999,-21.059998999999998,-7.56,2a
2019-07-12_112416:560,-0.477386,0.010162000000000001,-0.075226,-0.001194,-0.0012699999999999999,0.00403,-52.869999,-21.059998999999998,-7.56,2a
2019-07-12_112416:580,-0.475861,0.014740000000000001,-0.075226,-0.000889,-0.003833,0.004793,-53.25,-21.059998999999998,-7.56,2a
2019-07-12_112416:600,-0.48349,0.020325,-0.07775900000000001,-0.00159,-0.006885,0.00525,-53.25,-21.059998999999998,-7.56,2a
2019-07-12_112416:620,-0.492126,0.021851,-0.078796,-0.003147,-0.009052,0.005128,-53.25,-21.059998999999998,-7.56,2a
2019-07-12_112416:640,-0.50943,0.020325,-0.076263,-0.005436,-0.008990999999999999,0.004457,-54.0,-21.059998999999998,-8.37,2a
2019-07-12_112416:660,-0.519073,0.018799,-0.075226,-0.007297,-0.007006999999999999,0.004457,-54.0,-21.059998999999998,-8.37,2a
2019-07-12_112416:680,-0.516022,0.008118,-0.075745,-0.008213,-0.004383,0.004274,-51.75,-21.059998999999998,-8.37,2a
2019-07-12_112416:700,-0.506897,0.005065999999999999,-0.072174,-0.007816,-0.001575,0.003297,-51.75,-21.059998999999998,-8.37,2a
2019-07-12_112416:720,-0.490601,0.004547,-0.071167,-0.006412,0.000348,0.0029620000000000002,-51.75,-21.059998999999998,-8.37,2a
2019-07-12_112416:740,-0.48095699999999997,0.0030210000000000002,-0.070648,-0.004062,0.000866,0.004182,-54.0,-21.059998999999998,-7.18,2a
2019-07-12_112416:760,-0.47689799999999993,0.0055850000000000006,-0.073212,-0.00214,-0.0008730000000000001,0.005128,-54.0,-21.059998999999998,-7.18,2a
2019-07-12_112416:780,-0.47433500000000006,0.012177,-0.075226,-0.0011330000000000001,-0.004383,0.005403,-53.25,-21.059998999999998,-7.56,2a
2019-07-12_112416:800,-0.48858599999999996,0.017273,-0.07421900000000001,-0.001285,-0.008014,0.005647,-53.25,-21.059998999999998,-7.56,2a
2019-07-12_112416:820,-0.49823,0.020325,-0.075745,-0.002872,-0.009998,0.005586,-53.25,-21.059998999999998,-7.56,2a
2019-07-12_112416:840,-0.51297,0.019318000000000002,-0.075745,-0.004947,-0.009937,0.005464,-52.869999,-20.68,-8.0,2a
2019-07-12_112416:860,-0.5205989999999999,0.016266,-0.0737,-0.006962,-0.008014,0.005128,-52.869999,-20.68,-8.0,2a
2019-07-12_112416:880,-0.51297,0.007111,-0.070648,-0.008274,-0.004718,0.004732,-53.25,-21.059998999999998,-7.56,2a
2019-07-12_112416:900,-0.5073850000000001,0.001495,-0.070648,-0.007816,-0.001392,0.0037549999999999997,-53.25,-21.059998999999998,-7.56,2a
2019-07-12_112416:920,-0.49111899999999997,0.001007,-0.068634,-0.006351,0.00047000000000000004,0.003053,-53.25,-21.059998999999998,-7.56,2a
2019-07-12_112416:940,-0.477386,0.0025329999999999997,-0.07016,-0.004398,-0.000324,0.004518,-52.869999,-21.5,-7.56,2a
2019-07-12_112416:960,-0.469757,0.005065999999999999,-0.0737,-0.002933,-0.002979,0.006318,-52.869999,-21.5,-7.56,2a
2019-07-12_112416:980,-0.47079499999999996,0.006072999999999999,-0.075226,-0.002597,-0.006548999999999999,0.006837,-53.68,-21.059998999999998,-8.0,2a
2019-07-12_112417:000,-0.486023,0.009644,-0.07421900000000001,-0.00275,-0.010059,0.0058,-53.68,-21.059998999999998,-8.0,2a
2019-07-12_112417:020,-0.505371,0.011687999999999999,-0.075745,-0.003452,-0.011585,0.004274,-53.68,-21.059998999999998,-8.0,2a
2019-07-12_112417:040,-0.517548,0.013213999999999998,-0.074738,-0.004184,-0.010639000000000001,0.002839,-52.869999,-20.68,-6.75,2a
2019-07-12_112417:060,-0.5211180000000001,0.013213999999999998,-0.072174,-0.004886,-0.007587000000000001,0.002321,-52.869999,-20.68,-6.75,2a
2019-07-12_112417:080,-0.514496,0.012177,-0.070648,-0.005558,-0.003986,0.0032359999999999997,-52.869999,-20.0,-8.0,2a
2019-07-12_112417:100,-0.496216,0.008118,-0.069122,-0.005893,-0.001117,0.004396,-52.869999,-20.0,-8.0,2a
2019-07-12_112417:120,-0.48754899999999995,0.0055850000000000006,-0.071686,-0.005558,-0.000324,0.005006,-52.869999,-20.0,-8.0,2a
2019-07-12_112417:140,-0.476379,0.0025329999999999997,-0.071167,-0.005222,-0.001666,0.005464,-53.25,-21.5,-7.18,2a
2019-07-12_112417:160,-0.47689799999999993,0.002014,-0.0737,-0.004398,-0.00426,0.004915,-53.25,-21.5,-7.18,2a
2019-07-12_112417:180,-0.485016,0.007599,-0.074738,-0.003788,-0.0070680000000000005,0.003053,-52.869999,-20.68,-6.37,2a
2019-07-12_112417:200,-0.49468999999999996,0.010651,-0.073212,-0.002933,-0.008747,0.0027170000000000002,-52.869999,-20.68,-6.37,2a
2019-07-12_112417:220,-0.503326,0.012695,-0.07421900000000001,-0.0027199999999999998,-0.009052,0.004091,-52.869999,-20.68,-6.37,2a
2019-07-12_112417:240,-0.506897,0.014221000000000001,-0.072693,-0.002994,-0.007923000000000001,0.004548,-54.369999,-20.370001000000002,-7.18,2a
2019-07-12_112417:260,-0.506378,0.014740000000000001,-0.07421900000000001,-0.003879,-0.0061530000000000005,0.004609,-54.369999,-20.370001000000002,-7.18,2a
2019-07-12_112417:280,-0.502319,0.011687999999999999,-0.07421900000000001,-0.004886,-0.004718,0.005067,-52.869999,-20.68,-7.56,2a
2019-07-12_112417:300,-0.495697,0.007599,-0.072693,-0.005832,-0.0038640000000000002,0.004945000000000001,-52.869999,-20.68,-7.56,2a
2019-07-12_112417:320,-0.492645,0.005065999999999999,-0.072174,-0.006168,-0.003711,0.004671,-52.869999,-20.68,-7.56,2a
2019-07-12_112417:340,-0.490112,0.0025329999999999997,-0.0737,-0.005893,-0.003986,0.004457,-53.25,-20.68,-6.75,2a
2019-07-12_112417:360,-0.490112,0.001495,-0.073212,-0.0051,-0.004718,0.004091,-53.25,-20.68,-6.75,2a
2019-07-12_112417:380,-0.492126,0.004059,-0.073212,-0.004123,-0.005695,0.003572,-52.5,-21.5,-7.56,2a
2019-07-12_112417:400,-0.49468999999999996,0.0055850000000000006,-0.072174,-0.002872,-0.006092,0.003908,-52.5,-21.5,-7.56,2a
2019-07-12_112417:420,-0.49975600000000003,0.011169,-0.0737,-0.002323,-0.006397,0.00403,-52.5,-21.5,-7.56,2a
2019-07-12_112417:440,-0.502808,0.013213999999999998,-0.071686,-0.0022010000000000003,-0.0060609999999999995,0.0039689999999999994,-53.68,-21.059998999999998,-7.56,2a
2019-07-12_112417:460,-0.500793,0.016753999999999998,-0.071167,-0.003055,-0.005359,0.0039689999999999994,-53.68,-21.059998999999998,-7.56,2a
2019-07-12_112417:480,-0.49926800000000005,0.014740000000000001,-0.071686,-0.004764,-0.00426,0.004335,-53.25,-20.68,-8.0,2a
2019-07-12_112417:500,-0.494171,0.013213999999999998,-0.07016,-0.005832,-0.00426,0.004609,-53.25,-20.68,-8.0,2a
2019-07-12_112417:520,-0.490112,0.010162000000000001,-0.071167,-0.00629,-0.004993,0.004671,-53.25,-20.68,-8.0,2a
2019-07-12_112417:540,-0.490601,0.007599,-0.071686,-0.006229,-0.0060609999999999995,0.004213000000000001,-53.25,-20.0,-7.18,2a
2019-07-12_112417:560,-0.491638,0.006072999999999999,-0.070648,-0.005771,-0.006458,0.004091,-53.25,-20.0,-7.18,2a
2019-07-12_112417:580,-0.49365200000000004,0.008636,-0.070648,-0.005039,-0.007006999999999999,0.004457,-53.25,-20.68,-7.18,2a
2019-07-12_112417:600,-0.494171,0.007111,-0.07016,-0.004459,-0.006793,0.004915,-53.25,-20.68,-7.18,2a
2019-07-12_112417:620,-0.49517799999999995,0.009644,-0.072174,-0.0042450000000000005,-0.006548999999999999,0.005189,-53.25,-20.68,-7.18,2a
2019-07-12_112417:640,-0.494171,0.009644,-0.073212,-0.004062,-0.0066099999999999996,0.005342,-52.869999,-20.370001000000002,-7.56,2a
2019-07-12_112417:660,-0.496216,0.009644,-0.074738,-0.0042450000000000005,-0.006854000000000001,0.005189,-52.869999,-20.370001000000002,-7.56,2a
2019-07-12_112417:680,-0.496216,0.010162000000000001,-0.0737,-0.004642,-0.007129000000000001,0.004793,-53.68,-20.370001000000002,-7.18,2a
2019-07-12_112417:700,-0.498749,0.010162000000000001,-0.075226,-0.004978,-0.007129000000000001,0.004335,-53.68,-20.370001000000002,-7.18,2a
2019-07-12_112417:720,-0.496216,0.008118,-0.075745,-0.004978,-0.0070680000000000005,0.0039689999999999994,-53.68,-20.370001000000002,-7.18,2a
2019-07-12_112417:740,-0.495697,0.006072999999999999,-0.075226,-0.0051,-0.006854000000000001,0.003908,-53.68,-20.68,-7.18,2a
2019-07-12_112417:760,-0.49517799999999995,0.005065999999999999,-0.076263,-0.004703,-0.0066099999999999996,0.0038469999999999997,-53.68,-20.68,-7.18,2a
2019-07-12_112417:780,-0.495697,0.0025329999999999997,-0.076752,-0.004184,-0.006488,0.0038469999999999997,-52.5,-21.059998999999998,-8.0,2a
2019-07-12_112417:800,-0.496216,0.004059,-0.077271,-0.003544,-0.006092,0.00345,-52.5,-21.059998999999998,-8.0,2a
2019-07-12_112417:820,-0.49517799999999995,0.008636,-0.077271,-0.003116,-0.006,0.003694,-52.5,-21.059998999999998,-8.0,2a
2019-07-12_112417:840,-0.497742,0.008636,-0.07775900000000001,-0.0032689999999999998,-0.005573,0.004182,-52.869999,-20.370001000000002,-7.56,2a
2019-07-12_112417:860,-0.496216,0.011687999999999999,-0.075745,-0.004001,-0.004993,0.004182,-52.869999,-20.370001000000002,-7.56,2a
2019-07-12_112417:880,-0.49468999999999996,0.011687999999999999,-0.078796,-0.004825,-0.004566,0.0038469999999999997,-53.25,-20.68,-6.75,2a
2019-07-12_112417:900,-0.49316400000000005,0.010162000000000001,-0.076263,-0.005558,-0.004596,0.003633,-53.25,-20.68,-6.75,2a
2019-07-12_112417:920,-0.492645,0.008118,-0.076263,-0.005436,-0.004961999999999999,0.003908,-53.25,-20.68,-6.75,2a
2019-07-12_112417:940,-0.49111899999999997,0.0055850000000000006,-0.076752,-0.005161,-0.005054,0.00403,-54.0,-21.5,-8.37,2a
2019-07-12_112417:960,-0.492645,0.006592,-0.077271,-0.004978,-0.004961999999999999,0.003114,-54.0,-21.5,-8.37,2a
2019-07-12_112417:980,-0.49517799999999995,0.009644,-0.074738,-0.004886,-0.00484,0.0032359999999999997,-52.869999,-20.68,-8.0,2a
2019-07-12_112418:000,-0.495697,0.011169,-0.075226,-0.004825,-0.004383,0.00403,-52.869999,-20.68,-8.0,2a
2019-07-12_112418:020,-0.501801,0.009125,-0.075226,-0.004978,-0.003986,0.003572,-52.869999,-20.68,-8.0,2a
2019-07-12_112418:040,-0.502808,0.012177,-0.074738,-0.005436,-0.003192,0.002565,-53.68,-21.059998999999998,-8.37,2a
2019-07-12_112418:060,-0.503326,0.014221000000000001,-0.072693,-0.005741,-0.002582,0.003053,-53.68,-21.059998999999998,-8.37,2a
2019-07-12_112418:080,-0.503845,0.012695,-0.070648,-0.0060149999999999995,-0.0020629999999999997,0.003694,-52.869999,-20.68,-6.75,2a
2019-07-12_112418:100,-0.49975600000000003,0.014221000000000001,-0.067108,-0.0064730000000000005,-0.0021850000000000003,0.00403,-52.869999,-20.68,-6.75,2a
2019-07-12_112418:120,-0.49975600000000003,0.013702,-0.067596,-0.006626000000000001,-0.002307,0.005342,-52.869999,-20.68,-6.75,2a
2019-07-12_112418:140,-0.49365200000000004,0.010651,-0.065063,-0.006626000000000001,-0.002704,0.006257,-53.68,-21.059998999999998,-7.18,2a
2019-07-12_112418:160,-0.491638,0.011687999999999999,-0.065582,-0.00687,-0.003589,0.005006,-53.68,-21.059998999999998,-7.18,2a
2019-07-12_112418:180,-0.48858599999999996,0.015747,-0.069122,-0.007023000000000001,-0.004993,0.00525,-53.25,-20.68,-7.18,2a
2019-07-12_112418:200,-0.491638,0.014740000000000001,-0.067108,-0.007541,-0.006670999999999999,0.0076,-53.25,-20.68,-7.18,2a
2019-07-12_112418:220,-0.49517799999999995,0.008118,-0.066071,-0.007877,-0.007587000000000001,0.008454999999999999,-53.25,-20.68,-7.18,2a
2019-07-12_112418:240,-0.49722299999999997,0.0035399999999999997,-0.066589,-0.007999,-0.007587000000000001,0.008241,-53.25,-20.68,-7.18,2a
2019-07-12_112418:260,-0.496216,0.001007,-0.068115,-0.007418999999999999,-0.00719,0.007448000000000001,-53.25,-20.68,-7.18,2a
2019-07-12_112418:280,-0.49365200000000004,0.0,-0.068634,-0.0067480000000000005,-0.006854000000000001,0.006868000000000001,-54.0,-21.5,-8.37,2a
2019-07-12_112418:300,-0.489594,0.0,-0.069122,-0.005954,-0.0070680000000000005,0.006441,-54.0,-21.5,-8.37,2a
2019-07-12_112418:320,-0.490112,-0.001495,-0.071686,-0.005161,-0.007343000000000001,0.006135,-54.0,-21.5,-8.37,2a
2019-07-12_112418:340,-0.49111899999999997,-0.0025329999999999997,-0.073212,-0.0042450000000000005,-0.0076170000000000005,0.005861,-53.25,-20.370001000000002,-7.18,2a
2019-07-12_112418:360,-0.491638,-0.001495,-0.07421900000000001,-0.003544,-0.007678,0.005311,-53.25,-20.370001000000002,-7.18,2a
2019-07-12_112418:380,-0.49517799999999995,0.0,-0.075226,-0.002933,-0.0076170000000000005,0.004945000000000001,-54.0,-19.559998999999998,-8.0,2a
2019-07-12_112418:400,-0.496216,0.001495,-0.07421900000000001,-0.0027199999999999998,-0.007281999999999999,0.004793,-54.0,-19.559998999999998,-8.0,2a
2019-07-12_112418:420,-0.498749,0.001495,-0.075745,-0.0027199999999999998,-0.006885,0.004548,-54.0,-19.559998999999998,-8.0,2a
2019-07-12_112418:440,-0.498749,0.002014,-0.077271,-0.002811,-0.006945999999999999,0.004457,-54.369999,-20.370001000000002,-7.18,2a
2019-07-12_112418:460,-0.501282,0.0,-0.075745,-0.002597,-0.006488,0.005067,-54.369999,-20.370001000000002,-7.18,2a
2019-07-12_112418:480,-0.501282,-0.002014,-0.074738,-0.002414,-0.006,0.005189,-53.68,-20.370001000000002,-9.18,2a
2019-07-12_112418:500,-0.500793,-0.0025329999999999997,-0.072693,-0.001957,-0.0052369999999999995,0.004854,-53.68,-20.370001000000002,-9.18,2a
2019-07-12_112418:520,-0.495697,-0.0025329999999999997,-0.072693,-0.00159,-0.004566,0.004945000000000001,-53.68,-20.370001000000002,-9.18,2a
2019-07-12_112418:540,-0.49316400000000005,-0.001495,-0.075745,-0.001285,-0.004566,0.004945000000000001,-53.25,-19.559998999999998,-7.56,2a
2019-07-12_112418:560,-0.496216,-0.001007,-0.07421900000000001,-0.0011330000000000001,-0.005176,0.004396,-53.25,-19.559998999999998,-7.56,2a
2019-07-12_112418:580,-0.496216,-0.001495,-0.07421900000000001,-0.000736,-0.006,0.003511,-53.68,-20.370001000000002,-8.0,2a
2019-07-12_112418:600,-0.497742,0.001495,-0.071167,-6.500000000000001e-05,-0.005725,0.002382,-53.68,-20.370001000000002,-8.0,2a
2019-07-12_112418:620,-0.49722299999999997,0.0025329999999999997,-0.071686,0.00011899999999999999,-0.005573,0.001436,-53.68,-20.370001000000002,-8.0,2a
2019-07-12_112418:640,-0.495697,0.005065999999999999,-0.071686,0.000454,-0.005359,0.002229,-54.0,-20.68,-7.18,2a
2019-07-12_112418:660,-0.49517799999999995,0.004547,-0.073212,0.000576,-0.0055119999999999995,0.003694,-54.0,-20.68,-7.18,2a
2019-07-12_112418:680,-0.502808,0.0030210000000000002,-0.070648,0.000393,-0.005573,0.004915,-54.369999,-20.0,-8.37,2a
2019-07-12_112418:700,-0.503845,0.001007,-0.068634,0.000393,-0.004718,0.005525,-54.369999,-20.0,-8.37,2a
2019-07-12_112418:720,-0.49468999999999996,0.000488,-0.068634,0.000973,-0.0037719999999999997,0.004548,-54.369999,-20.0,-8.37,2a
2019-07-12_112418:740,-0.490112,0.004059,-0.07016,0.001187,-0.003375,0.0037549999999999997,-53.68,-20.0,-8.0,2a
2019-07-12_112418:760,-0.48349,0.006592,-0.071686,0.001187,-0.004718,0.004518,-53.68,-20.0,-8.0,2a
2019-07-12_112418:780,-0.484497,0.006072999999999999,-0.073212,0.000576,-0.006214,0.0058,-53.68,-21.059998999999998,-8.0,2a
2019-07-12_112418:800,-0.490601,0.0055850000000000006,-0.073212,-0.000553,-0.007404000000000001,0.005647,-53.68,-21.059998999999998,-8.0,2a
2019-07-12_112418:820,-0.492126,0.006072999999999999,-0.075745,-0.0018039999999999998,-0.008197,0.005067,-53.68,-21.059998999999998,-8.0,2a
2019-07-12_112418:840,-0.49316400000000005,0.002014,-0.078278,-0.00275,-0.008655,0.004945000000000001,-53.68,-21.5,-8.0,2a
2019-07-12_112418:860,-0.49517799999999995,0.001007,-0.081329,-0.0036659999999999996,-0.009662,0.004396,-53.68,-21.5,-8.0,2a
2019-07-12_112418:880,-0.490601,0.002014,-0.084381,-0.004062,-0.010242,0.004182,-53.25,-19.5,-7.56,2a
2019-07-12_112418:900,-0.491638,0.001007,-0.083862,-0.0042450000000000005,-0.010242,0.004732,-53.25,-19.5,-7.56,2a
2019-07-12_112418:920,-0.494171,0.001007,-0.083862,-0.0042450000000000005,-0.009662,0.004518,-53.25,-19.5,-7.56,2a
2019-07-12_112418:940,-0.497742,0.0025329999999999997,-0.083862,-0.004123,-0.008411,0.004091,-54.0,-19.5,-7.56,2a
2019-07-12_112418:960,-0.500275,0.0030210000000000002,-0.083862,-0.004520000000000001,-0.007281999999999999,0.004213000000000001,-54.0,-19.5,-7.56,2a
2019-07-12_112418:980,-0.501282,0.004059,-0.084381,-0.004764,-0.006854000000000001,0.004091,-52.869999,-19.059998999999998,-8.75,2a
2019-07-12_112419:000,-0.502808,0.004547,-0.081329,-0.005375,-0.006275,0.0037549999999999997,-52.869999,-19.059998999999998,-8.75,2a
2019-07-12_112419:020,-0.502808,0.004059,-0.081329,-0.005954,-0.005054,0.003908,-52.869999,-19.059998999999998,-8.75,2a
2019-07-12_112419:040,-0.502808,0.0025329999999999997,-0.07928500000000001,-0.00629,-0.003925,0.003633,-53.25,-19.059998999999998,-8.75,2a
2019-07-12_112419:060,-0.501801,0.0025329999999999997,-0.079803,-0.005954,-0.00307,0.0029620000000000002,-53.25,-19.059998999999998,-8.75,2a
2019-07-12_112419:080,-0.503326,0.004059,-0.078796,-0.005832,-0.002307,0.0032359999999999997,-54.0,-19.870001000000002,-8.37,2a
2019-07-12_112419:100,-0.49926800000000005,0.001007,-0.0737,-0.005375,-0.0017280000000000002,0.004152,-54.0,-19.870001000000002,-8.37,2a
2019-07-12_112419:120,-0.49517799999999995,0.000488,-0.076752,-0.004581,-0.001605,0.003908,-54.0,-19.870001000000002,-8.37,2a
2019-07-12_112419:140,-0.489594,0.002014,-0.075745,-0.003879,-0.001941,0.003908,-53.25,-20.559998999999998,-8.0,2a
2019-07-12_112419:160,-0.488068,0.0030210000000000002,-0.075226,-0.003208,-0.002582,0.005403,-53.25,-20.559998999999998,-8.0,2a
2019-07-12_112419:180,-0.48654200000000003,0.0030210000000000002,-0.07421900000000001,-0.0033909999999999995,-0.003436,0.006044,-54.0,-20.559998999999998,-8.75,2a
2019-07-12_112419:200,-0.490112,0.005065999999999999,-0.072693,-0.00394,-0.004383,0.005983,-54.0,-20.559998999999998,-8.75,2a
2019-07-12_112419:220,-0.495697,0.0055850000000000006,-0.075226,-0.004978,-0.00484,0.006441,-54.0,-20.559998999999998,-8.75,2a
2019-07-12_112419:240,-0.501282,0.0025329999999999997,-0.070648,-0.00629,-0.004718,0.006532,-53.25,-19.5,-7.56,2a
2019-07-12_112419:260,-0.500275,0.000488,-0.07016,-0.007358,-0.004108,0.006470999999999999,-53.25,-19.5,-7.56,2a
2019-07-12_112419:280,-0.49823,-0.002014,-0.072693,-0.007937999999999999,-0.0035280000000000003,0.006441,-53.25,-19.059998999999998,-8.0,2a
2019-07-12_112419:300,-0.496216,-0.004547,-0.070648,-0.008274,-0.003436,0.005922,-53.25,-19.059998999999998,-8.0,2a
2019-07-12_112419:320,-0.490601,-0.007599,-0.0737,-0.008029999999999999,-0.003589,0.005464,-53.25,-19.059998999999998,-8.0,2a
2019-07-12_112419:340,-0.490112,-0.007111,-0.073212,-0.007358,-0.0045049999999999995,0.005525,-53.68,-19.5,-8.75,2a
2019-07-12_112419:360,-0.49468999999999996,-0.008118,-0.07421900000000001,-0.00687,-0.005359,0.005403,-53.68,-19.5,-8.75,2a
2019-07-12_112419:380,-0.496216,-0.005065999999999999,-0.0737,-0.0061070000000000004,-0.005756,0.004518,-53.68,-19.5,-7.56,2a
2019-07-12_112419:400,-0.500275,-0.0035399999999999997,-0.072174,-0.005679999999999999,-0.005359,0.00403,-53.68,-19.5,-7.56,2a
2019-07-12_112419:420,-0.49926800000000005,-0.001495,-0.074738,-0.0052829999999999995,-0.00484,0.003297,-53.68,-19.5,-7.56,2a
2019-07-12_112419:440,-0.49823,0.0,-0.075226,-0.005375,-0.004229999999999999,0.003114,-53.25,-19.5,-7.56,2a
2019-07-12_112419:460,-0.498749,0.001007,-0.0737,-0.005679999999999999,-0.004047,0.003572,-53.25,-19.5,-7.56,2a
2019-07-12_112419:480,-0.49823,0.001007,-0.07421900000000001,-0.0060149999999999995,-0.004169,0.003511,-52.869999,-19.870001000000002,-7.18,2a
2019-07-12_112419:500,-0.497742,0.0,-0.071686,-0.0061070000000000004,-0.0037719999999999997,0.00345,-52.869999,-19.870001000000002,-7.18,2a
2019-07-12_112419:520,-0.49823,0.0,-0.070648,-0.006076,-0.002857,0.0039689999999999994,-52.869999,-19.870001000000002,-7.18,2a
2019-07-12_112419:540,-0.500275,0.0,-0.070648,-0.005771,-0.001911,0.004854,-53.25,-19.059998999999998,-6.75,2a
2019-07-12_112419:560,-0.494171,-0.002014,-0.07016,-0.005619,-0.001911,0.005464,-53.25,-19.059998999999998,-6.75,2a
2019-07-12_112419:580,-0.49365200000000004,-0.0025329999999999997,-0.07016,-0.005222,-0.002643,0.006135,-54.0,-19.870001000000002,-8.75,2a
2019-07-12_112419:600,-0.491638,-0.005065999999999999,-0.066589,-0.004764,-0.003314,0.006532,-54.0,-19.870001000000002,-8.75,2a
2019-07-12_112419:620,-0.49468999999999996,-0.006592,-0.068115,-0.004520000000000001,-0.00365,0.006196,-54.0,-19.870001000000002,-8.75,2a
2019-07-12_112419:640,-0.495697,-0.006072999999999999,-0.068115,-0.004275999999999999,-0.00365,0.005128,-53.68,-19.870001000000002,-6.75,2a
2019-07-12_112419:660,-0.49823,-0.004547,-0.066071,-0.004184,-0.003314,0.004609,-53.68,-19.870001000000002,-6.75,2a
2019-07-12_112419:680,-0.503326,-0.006072999999999999,-0.065063,-0.004337,-0.002796,0.004213000000000001,-54.369999,-19.5,-7.18,2a
2019-07-12_112419:700,-0.49823,-0.006592,-0.063019,-0.004275999999999999,-0.0020629999999999997,0.0034189999999999997,-54.369999,-19.5,-7.18,2a
2019-07-12_112419:720,-0.495697,-0.006072999999999999,-0.06405599999999999,-0.00394,-0.001605,0.002382,-54.369999,-19.5,-7.18,2a
2019-07-12_112419:740,-0.496216,-0.006072999999999999,-0.063538,-0.003879,-0.0013310000000000002,0.001832,-54.0,-19.870001000000002,-7.18,2a
2019-07-12_112419:760,-0.491638,0.0,-0.06149299999999999,-0.0036659999999999996,-0.0015140000000000002,0.002046,-54.0,-19.870001000000002,-7.18,2a
2019-07-12_112419:780,-0.491638,-0.001007,-0.063019,-0.003849,-0.002246,0.002839,-54.369999,-18.75,-6.0,2a
2019-07-12_112419:800,-0.49316400000000005,0.0,-0.05996699999999999,-0.004184,-0.0035280000000000003,0.0029620000000000002,-54.369999,-18.75,-6.0,2a
2019-07-12_112419:820,-0.49365200000000004,0.0,-0.06149299999999999,-0.004581,-0.004383,0.003114,-54.369999,-18.75,-6.0,2a
2019-07-12_112419:840,-0.497742,-0.002014,-0.063019,-0.004825,-0.005451,0.003175,-52.869999,-20.25,-7.18,2a
2019-07-12_112419:860,-0.49926800000000005,-0.001495,-0.062012,-0.004886,-0.006214,0.003023,-52.869999,-20.25,-7.18,2a
2019-07-12_112419:880,-0.506897,-0.002014,-0.062012,-0.004886,-0.006275,0.003053,-53.68,-19.870001000000002,-7.56,2a
2019-07-12_112419:900,-0.5048520000000001,-0.0030210000000000002,-0.063019,-0.004275999999999999,-0.006214,0.0032359999999999997,-53.68,-19.870001000000002,-7.56,2a
2019-07-12_112419:920,-0.502319,-0.0025329999999999997,-0.05996699999999999,-0.0036659999999999996,-0.005695,0.0029,-53.68,-19.870001000000002,-7.56,2a
2019-07-12_112419:940,-0.49926800000000005,-0.000488,-0.058960000000000005,-0.003116,-0.004383,0.002778,-54.369999,-19.870001000000002,-7.56,2a
2019-07-12_112419:960,-0.490112,0.0035399999999999997,-0.05996699999999999,-0.003452,-0.003925,0.004213000000000001,-54.369999,-19.870001000000002,-7.56,2a
2019-07-12_112419:980,-0.48858599999999996,0.0035399999999999997,-0.058441,-0.003879,-0.004321,0.004915,-53.25,-20.25,-6.75,2a
2019-07-12_112420:000,-0.48553500000000005,0.004059,-0.06253099999999999,-0.004978,-0.005695,0.003908,-53.25,-20.25,-6.75,2a
2019-07-12_112420:020,-0.484009,0.004547,-0.064545,-0.006076,-0.007343000000000001,0.0039689999999999994,-53.25,-20.25,-6.75,2a
2019-07-12_112420:040,-0.49365200000000004,0.002014,-0.064545,-0.006809,-0.007801000000000001,0.004945000000000001,-53.68,-19.5,-5.56,2a
2019-07-12_112420:060,-0.49823,0.001007,-0.063019,-0.007418999999999999,-0.007465,0.00525,-53.68,-19.5,-5.56,2a
2019-07-12_112420:080,-0.51297,-0.0030210000000000002,-0.06405599999999999,-0.007297,-0.006670999999999999,0.005342,-53.68,-19.870001000000002,-6.75,2a
2019-07-12_112420:100,-0.51297,-0.005065999999999999,-0.06405599999999999,-0.006687,-0.006092,0.0058,-53.68,-19.870001000000002,-6.75,2a
2019-07-12_112420:120,-0.5048520000000001,-0.011687999999999999,-0.061005,-0.004978,-0.005359,0.004732,-53.68,-19.870001000000002,-6.75,2a
2019-07-12_112420:140,-0.5048520000000001,-0.009644,-0.060486,-0.003452,-0.003925,0.002839,-53.25,-19.870001000000002,-7.18,2a
2019-07-12_112420:160,-0.49316400000000005,-0.002014,-0.05996699999999999,-0.0022010000000000003,-0.002796,0.002382,-53.25,-19.870001000000002,-7.18,2a
2019-07-12_112420:180,-0.489594,0.0,-0.062012,-0.002079,-0.002643,0.002565,-54.369999,-19.5,-6.37,2a
2019-07-12_112420:200,-0.48654200000000003,0.007111,-0.05996699999999999,-0.003055,-0.004566,0.0026260000000000003,-54.369999,-19.5,-6.37,2a
2019-07-12_112420:220,-0.48553500000000005,0.006072999999999999,-0.06405599999999999,-0.004581,-0.006854000000000001,0.003023,-54.369999,-19.5,-6.37,2a
2019-07-12_112420:240,-0.48706099999999997,0.005065999999999999,-0.065063,-0.005375,-0.007678,0.0032359999999999997,-54.0,-21.0,-6.37,2a
2019-07-12_112420:260,-0.492126,0.0025329999999999997,-0.064545,-0.007541,-0.009448,0.002565,-54.0,-21.0,-6.37,2a
2019-07-12_112420:280,-0.506378,0.000488,-0.064545,-0.008091,-0.009326000000000001,0.002168,-54.0,-19.870001000000002,-6.37,2a
2019-07-12_112420:300,-0.514008,-0.0030210000000000002,-0.066589,-0.007816,-0.008319,0.001924,-54.0,-19.870001000000002,-6.37,2a
2019-07-12_112420:320,-0.5119630000000001,-0.0055850000000000006,-0.06253099999999999,-0.006626000000000001,-0.006793,0.001039,-54.0,-19.870001000000002,-6.37,2a
2019-07-12_112420:340,-0.5119630000000001,-0.004547,-0.06149299999999999,-0.004764,-0.003925,0.000306,-54.369999,-19.870001000000002,-5.56,2a
2019-07-12_112420:360,-0.49823,-0.001007,-0.058441,-0.003116,-0.001666,0.001161,-54.369999,-19.870001000000002,-5.56,2a
2019-07-12_112420:380,-0.485016,0.000488,-0.059479,-0.001529,-0.001941,0.002443,-53.25,-19.5,-7.18,2a
2019-07-12_112420:400,-0.473846,0.004547,-0.064545,-0.00095,-0.004229999999999999,0.003053,-53.25,-19.5,-7.18,2a
2019-07-12_112420:420,-0.47332799999999997,0.009125,-0.065063,-0.001224,-0.0076170000000000005,0.0039689999999999994,-53.25,-19.5,-7.18,2a
2019-07-12_112420:440,-0.478912,0.012177,-0.069641,-0.00159,-0.009204,0.004335,-54.0,-20.25,-6.75,2a
2019-07-12_112420:460,-0.49111899999999997,0.013702,-0.068634,-0.003879,-0.012927000000000001,0.004548,-54.0,-20.25,-6.75,2a
2019-07-12_112420:480,-0.515015,0.011169,-0.069641,-0.004825,-0.012927000000000001,0.004548,-53.25,-20.559998999999998,-7.18,2a
2019-07-12_112420:500,-0.523163,0.007111,-0.071686,-0.006504,-0.010639000000000001,0.004548,-53.25,-20.559998999999998,-7.18,2a
2019-07-12_112420:520,-0.5211180000000001,0.001495,-0.065063,-0.006626000000000001,-0.006397,0.0034189999999999997,-53.25,-20.559998999999998,-7.18,2a
2019-07-12_112420:540,-0.522125,0.002014,-0.06253099999999999,-0.006351,-0.004047,0.002687,-53.25,-20.559998999999998,-7.56,2a
2019-07-12_112420:560,-0.5058590000000001,0.001495,-0.06253099999999999,-0.0051,0.00227,0.003053,-53.25,-20.559998999999998,-7.56,2a
2019-07-12_112420:580,-0.48754899999999995,0.0025329999999999997,-0.063538,-0.004612,0.002911,0.003633,-53.25,-20.25,-6.37,2a
2019-07-12_112420:600,-0.47280900000000003,0.002014,-0.068115,-0.0033299999999999996,0.000256,0.00525,-53.25,-20.25,-6.37,2a
2019-07-12_112420:620,-0.46823100000000006,0.0055850000000000006,-0.067596,-0.002994,-0.004718,0.005678,-53.25,-20.25,-6.37,2a
2019-07-12_112420:640,-0.475861,0.008118,-0.07016,-0.003483,-0.009448,0.006441,-53.68,-20.25,-8.0,2a
2019-07-12_112420:660,-0.48858599999999996,0.010162000000000001,-0.069641,-0.004947,-0.012256,0.005647,-53.68,-20.25,-8.0,2a
2019-07-12_112420:680,-0.516022,0.006592,-0.067596,-0.00687,-0.012378,0.005006,-54.0,-19.870001000000002,-7.18,2a
2019-07-12_112420:700,-0.528748,0.0035399999999999997,-0.067108,-0.008609,-0.008655,0.0037549999999999997,-54.0,-19.870001000000002,-7.18,2a
2019-07-12_112420:720,-0.525696,-0.0030210000000000002,-0.063019,-0.008152,-0.0037719999999999997,0.001039,-54.0,-19.870001000000002,-7.18,2a
2019-07-12_112420:740,-0.515015,-0.004059,-0.061005,-0.00748,-0.0015140000000000002,-9e-05,-52.5,-19.5,-6.75,2a
2019-07-12_112420:760,-0.498749,-0.0035399999999999997,-0.058960000000000005,-0.004520000000000001,0.003003,-9e-05,-52.5,-19.5,-6.75,2a
2019-07-12_112420:780,-0.475861,0.0,-0.06149299999999999,-0.003483,0.002972,0.000245,-52.5,-19.5,-6.75,2a
2019-07-12_112420:800,-0.467224,0.0055850000000000006,-0.064545,-0.0022010000000000003,-0.001941,0.001588,-54.0,-20.559998999999998,-7.56,2a
2019-07-12_112420:820,-0.46469099999999997,0.010162000000000001,-0.067596,-0.002262,-0.00719,0.004182,-54.0,-20.559998999999998,-7.56,2a
2019-07-12_112420:840,-0.473846,0.013213999999999998,-0.066589,-0.002597,-0.00893,0.005464,-53.68,-19.870001000000002,-6.0,2a
2019-07-12_112420:860,-0.500793,0.009644,-0.06405599999999999,-0.004764,-0.011066,0.004457,-53.68,-19.870001000000002,-6.0,2a
2019-07-12_112420:880,-0.522125,0.011169,-0.067596,-0.005679999999999999,-0.010394,0.003908,-53.68,-20.559998999999998,-6.75,2a
2019-07-12_112420:900,-0.530273,0.006072999999999999,-0.066071,-0.007145,-0.006945999999999999,0.004457,-53.68,-20.559998999999998,-6.75,2a
2019-07-12_112420:920,-0.5267029999999999,0.0,-0.062012,-0.0069,-0.003436,0.003358,-53.68,-20.559998999999998,-6.75,2a
2019-07-12_112420:940,-0.507904,0.0,-0.05996699999999999,-0.00629,-0.001392,0.0025039999999999997,-53.68,-20.559998999999998,-7.56,2a
2019-07-12_112420:960,-0.492645,0.0,-0.057953,-0.004337,0.0024530000000000003,0.002321,-53.68,-20.559998999999998,-7.56,2a
2019-07-12_112420:980,-0.473846,0.0055850000000000006,-0.05996699999999999,-0.003788,0.002392,0.0026260000000000003,-54.0,-21.370001000000002,-7.18,2a
2019-07-12_112421:000,-0.467743,0.008636,-0.06405599999999999,-0.003849,-0.002582,0.00403,-54.0,-21.370001000000002,-7.18,2a
2019-07-12_112421:020,-0.462128,0.012695,-0.067108,-0.004520000000000001,-0.008136,0.005861,-54.0,-21.370001000000002,-7.18,2a
2019-07-12_112421:040,-0.46875,0.011169,-0.068115,-0.004825,-0.010791,0.006654,-53.68,-21.370001000000002,-6.37,2a
2019-07-12_112421:060,-0.496216,0.007599,-0.065063,-0.0061070000000000004,-0.015155000000000002,0.005678,-53.68,-21.370001000000002,-6.37,2a
2019-07-12_112421:080,-0.515533,0.006072999999999999,-0.065582,-0.006687,-0.015186000000000002,0.004945000000000001,-53.68,-20.559998999999998,-6.37,2a
2019-07-12_112421:100,-0.531799,0.001495,-0.06405599999999999,-0.0065650000000000005,-0.011798000000000001,0.003114,-53.68,-20.559998999999998,-6.37,2a
2019-07-12_112421:120,-0.5348510000000001,0.001007,-0.061005,-0.006168,-0.006793,0.000795,-53.68,-20.559998999999998,-6.37,2a
2019-07-12_112421:140,-0.5246890000000001,0.001495,-0.058441,-0.005771,-0.0038640000000000002,0.000245,-52.869999,-20.559998999999998,-6.75,2a
2019-07-12_112421:160,-0.503845,0.0025329999999999997,-0.056427,-0.004123,0.0016600000000000002,0.001039,-52.869999,-20.559998999999998,-6.75,2a
2019-07-12_112421:180,-0.473846,0.0035399999999999997,-0.063538,-0.003483,0.001324,0.001161,-52.869999,-20.559998999999998,-6.75,2a
2019-07-12_112421:200,-0.460114,0.008118,-0.067108,-0.003055,-0.004108,0.001588,-54.0,-20.559998999999998,-7.56,2a
2019-07-12_112421:220,-0.454529,0.014740000000000001,-0.070648,-0.00275,-0.010059,0.0029,-54.0,-20.559998999999998,-7.56,2a
2019-07-12_112421:240,-0.46569799999999995,0.015747,-0.07016,-0.0032689999999999998,-0.012531,0.00345,-53.25,-21.0,-6.75,2a
2019-07-12_112421:260,-0.49517799999999995,0.014740000000000001,-0.069641,-0.005161,-0.01662,0.004152,-53.25,-21.0,-6.75,2a
2019-07-12_112421:280,-0.515533,0.011169,-0.071686,-0.005771,-0.016375999999999998,0.004335,-53.25,-21.0,-6.75,2a
2019-07-12_112421:300,-0.525177,0.0055850000000000006,-0.069122,-0.005679999999999999,-0.012103000000000001,0.0038469999999999997,-52.869999,-20.559998999999998,-6.75,2a
2019-07-12_112421:320,-0.529755,0.0030210000000000002,-0.066071,-0.005344,-0.009448,0.003175,-52.869999,-20.559998999999998,-6.75,2a
2019-07-12_112421:340,-0.519073,0.002014,-0.065063,-0.004398,-0.004047,0.0017100000000000001,-53.25,-20.559998999999998,-8.75,2a
2019-07-12_112421:360,-0.501282,0.004547,-0.067596,-0.0027199999999999998,-0.000659,0.001436,-53.25,-20.559998999999998,-8.75,2a
2019-07-12_112421:380,-0.48043800000000003,0.010651,-0.072693,-0.001468,-0.000537,0.002443,-53.25,-21.0,-7.56,2a
2019-07-12_112421:400,-0.467743,0.013702,-0.07421900000000001,-0.0011330000000000001,-0.003375,0.003908,-53.25,-21.0,-7.56,2a
2019-07-12_112421:420,-0.46469099999999997,0.021332,-0.076752,-0.002475,-0.00893,0.005861,-53.25,-21.0,-7.56,2a
2019-07-12_112421:440,-0.47842399999999996,0.023375999999999997,-0.075226,-0.003452,-0.010181,0.006593000000000001,-52.5,-21.0,-8.37,2a
2019-07-12_112421:460,-0.504333,0.017792,-0.07775900000000001,-0.00687,-0.011706999999999999,0.006929,-52.5,-21.0,-8.37,2a
2019-07-12_112421:480,-0.516541,0.015228,-0.076752,-0.00748,-0.011401999999999999,0.0067150000000000005,-52.5,-21.0,-8.37,2a
2019-07-12_112421:500,-0.523651,0.0055850000000000006,-0.07421900000000001,-0.007999,-0.008014,0.004548,-52.18,-20.559998999999998,-7.18,2a
2019-07-12_112421:520,-0.5272220000000001,0.002014,-0.072693,-0.007358,-0.0060609999999999995,0.003358,-52.18,-20.559998999999998,-7.18,2a
2019-07-12_112421:540,-0.5134890000000001,0.0030210000000000002,-0.071167,-0.006168,-0.001789,0.001192,-53.68,-20.559998999999998,-8.37,2a
2019-07-12_112421:560,-0.500793,0.0055850000000000006,-0.069641,-0.004520000000000001,0.000805,0.0017100000000000001,-53.68,-20.559998999999998,-8.37,2a
