timestamp,AccX,AccY,AccZ,GyroX,GyroY,GyroZ,MagX,MagY,MagZ,Activity
2019-07-12_125906:680,-0.552643,-0.025908999999999998,0.051330999999999995,-0.039341,0.004193,0.020875,-25.68,13.56,16.75,1a
2019-07-12_125906:700,-0.615173,-0.045745999999999995,0.050323,-0.031101,0.003064,0.020723,-27.18,15.0,15.56,1a
2019-07-12_125906:720,-0.624847,-0.063019,0.058960000000000005,-0.021213,0.004132,0.020326,-27.18,15.0,15.56,1a
2019-07-12_125906:740,-0.628387,-0.078278,0.058441,-0.009556,0.0071530000000000005,0.022371000000000002,-27.18,15.0,15.56,1a
2019-07-12_125906:760,-0.688385,-0.105225,0.072693,0.000454,0.010205,0.023042,-26.059998999999998,16.059998999999998,16.0,1a
2019-07-12_125906:780,-0.767181,-0.100159,-0.038635,0.007168000000000001,0.013074,0.021669,-26.059998999999998,16.059998999999998,16.0,1a
2019-07-12_125906:800,-0.621796,-0.138794,-0.027435,0.010403,0.00636,0.033479,-25.0,15.68,15.56,1a
2019-07-12_125906:820,-0.49316400000000005,-0.161652,-0.03302,0.016507,-0.002857,0.032625,-25.0,15.68,15.56,1a
2019-07-12_125906:840,-0.405212,-0.146423,-0.102692,0.016995,-0.017291,0.026491000000000004,-25.0,15.68,15.56,1a
2019-07-12_125906:860,-0.293854,-0.140808,-0.079803,0.018643,-0.022937,0.019533000000000002,-24.559998999999998,16.059998999999998,14.75,1a
2019-07-12_125906:880,-0.354858,-0.138275,-0.074738,0.016323,-0.02367,0.001893,-24.559998999999998,16.059998999999998,14.75,1a
2019-07-12_125906:900,-0.580597,-0.133179,-0.06405599999999999,0.0075650000000000005,-0.014911,-0.012572,-25.0,17.18,15.18,1a
2019-07-12_125906:920,-0.5211180000000001,-0.13269,-0.08743300000000001,0.000393,-0.00484,-0.006468000000000001,-25.0,17.18,15.18,1a
2019-07-12_125906:940,-0.432159,-0.165222,-0.045226999999999996,-0.001957,-0.0009339999999999999,-0.003935,-25.0,17.18,15.18,1a
2019-07-12_125906:960,-0.429108,-0.161652,-0.045226999999999996,-0.004978,-0.006548999999999999,-0.026579000000000002,-24.18,16.059998999999998,15.18,1a
2019-07-12_125906:980,-0.391968,-0.121002,-0.042694,-0.005741,-0.013904,-0.045745,-24.18,16.059998999999998,15.18,1a
2019-07-12_125907:000,-0.388916,-0.105743,-0.025908999999999998,0.000515,-0.021411000000000003,-0.044951,-26.059998999999998,15.5,14.75,1a
2019-07-12_125907:020,-0.43670699999999996,-0.08843999999999999,-0.01828,0.005642,-0.028095,-0.044341000000000005,-26.059998999999998,15.5,14.75,1a
2019-07-12_125907:040,-0.45806899999999995,-0.074738,-0.009644,0.007412,-0.029162999999999998,-0.048857,-26.059998999999998,15.5,14.75,1a
2019-07-12_125907:060,-0.481476,-0.058960000000000005,0.005065999999999999,0.010067,-0.025653,-0.045012,-27.18,14.68,14.75,1a
2019-07-12_125907:080,-0.48706099999999997,-0.054901,0.008636,0.012142,-0.019733,-0.033995,-27.18,14.68,14.75,1a
2019-07-12_125907:100,-0.46926899999999994,-0.048279,0.019318000000000002,0.012326,-0.011309999999999999,-0.025969,-28.0,12.5,14.0,1a
2019-07-12_125907:120,-0.447906,-0.043701,0.022858,0.011257,-0.002735,-0.019591,-28.0,12.5,14.0,1a
2019-07-12_125907:140,-0.417389,-0.042175,0.026427999999999997,0.010525,0.0045899999999999995,-0.012358,-28.0,12.5,14.0,1a
2019-07-12_125907:160,-0.396057,-0.043701,0.027954000000000003,0.009732,0.009686,-0.007567,-28.68,12.18,14.25,1a
2019-07-12_125907:180,-0.386383,-0.043701,0.020844,0.008541,0.010631999999999999,-0.006072,-28.68,12.18,14.25,1a
2019-07-12_125907:200,-0.359955,-0.048798,0.004059,0.0062829999999999995,0.002118,-0.0075060000000000005,-28.68,11.0,13.56,1a
2019-07-12_125907:220,-0.38028,-0.050842,0.001495,0.005764,-0.002796,-0.00891,-28.68,11.0,13.56,1a
2019-07-12_125907:240,-0.489594,-0.05438200000000001,-0.001007,0.0027129999999999997,-0.013628999999999999,-0.012084000000000001,-28.68,11.0,13.56,1a
2019-07-12_125907:260,-0.533844,-0.054901,-0.007599,0.001248,-0.014240000000000001,-0.011351,-28.0,11.37,14.75,1a
2019-07-12_125907:280,-0.6299130000000001,-0.047791,0.010162000000000001,-0.001224,-0.012195000000000001,-0.008634999999999999,-28.0,11.37,14.75,1a
2019-07-12_125907:300,-0.65332,-0.045226999999999996,-0.017273,-0.0069,-0.006,-0.009642,-29.5,9.87,14.25,1a
2019-07-12_125907:320,-0.600433,-0.026427999999999997,-0.023375999999999997,-0.009556,-0.0012699999999999999,-0.011626000000000001,-29.5,9.87,14.25,1a
2019-07-12_125907:340,-0.688385,-0.019806,0.013213999999999998,-0.010745999999999999,0.000866,-0.015227000000000001,-29.5,9.87,14.25,1a
2019-07-12_125907:360,-0.8343200000000001,0.020325,-0.071167,-0.015444999999999999,0.007184,-0.011443,-29.5,10.68,14.75,1a
2019-07-12_125907:380,-0.737213,0.031006,-0.050323,-0.017582,0.013347999999999999,0.008058,-29.5,10.68,14.75,1a
2019-07-12_125907:400,-0.46569799999999995,0.076752,-0.063538,-0.014988,0.006116,0.016817,-31.0,9.5,13.18,1a
2019-07-12_125907:420,-0.434692,0.09963999999999999,-0.085388,-0.016056,-0.005298,0.007844,-31.0,9.5,13.18,1a
2019-07-12_125907:440,-0.38739,0.149475,-0.116425,-0.016788,-0.016040000000000002,-0.002013,-31.0,9.5,13.18,1a
2019-07-12_125907:460,-0.511444,0.154022,-0.069641,-0.017032,-0.018695,-0.000151,-30.18,10.25,14.0,1a
2019-07-12_125907:480,-0.6060180000000001,0.160645,-0.088959,-0.019687,-0.013446000000000001,0.015687,-30.18,10.25,14.0,1a
2019-07-12_125907:500,-0.523651,0.142853,-0.072693,-0.021091,-0.004108,0.031679,-29.5,10.68,14.0,1a
2019-07-12_125907:520,-0.46569799999999995,0.110321,-0.042175,-0.024357,0.000989,0.030945999999999998,-29.5,10.68,14.0,1a
2019-07-12_125907:540,-0.504333,0.101685,-0.039642000000000004,-0.026462,0.004712,0.024904,-29.5,10.68,14.0,1a
2019-07-12_125907:560,-0.458588,0.08843999999999999,-0.036072,-0.028933999999999998,0.007367,0.026246,-29.5,11.0,14.0,1a
2019-07-12_125907:580,-0.418915,0.066589,-0.025421,-0.032444,0.005658,0.027223,-29.5,11.0,14.0,1a
2019-07-12_125907:600,-0.37011700000000003,0.038116000000000004,-0.021851,-0.036625,0.001141,0.025422,-30.18,11.75,13.56,1a
2019-07-12_125907:620,-0.348267,0.020844,-0.013702,-0.037632,-0.003192,0.026887,-30.18,11.75,13.56,1a
2019-07-12_125907:640,-0.355896,-0.012177,0.002014,-0.036106,-0.006397,0.029939,-30.18,11.75,13.56,1a
2019-07-12_125907:660,-0.379791,-0.028961,0.010162000000000001,-0.032322000000000004,-0.006854000000000001,0.029756,-30.559998999999998,13.25,13.18,1a
2019-07-12_125907:680,-0.38385,-0.035583,0.013213999999999998,-0.028049,-0.0055119999999999995,0.028107999999999998,-30.559998999999998,13.25,13.18,1a
2019-07-12_125907:700,-0.379791,-0.033539,0.018799,-0.023624000000000003,-0.0038640000000000002,0.026764999999999997,-30.18,14.0,12.0,1a
2019-07-12_125907:720,-0.378754,-0.026917,0.016753999999999998,-0.020298,-0.0032530000000000002,0.0253,-30.18,14.0,12.0,1a
2019-07-12_125907:740,-0.37674,-0.025421,0.014740000000000001,-0.017765,-0.002704,0.022859,-30.18,14.0,12.0,1a
2019-07-12_125907:760,-0.41232299999999994,-0.027954000000000003,0.023895,-0.015659,-0.002979,0.021455000000000002,-30.18,14.68,12.75,1a
2019-07-12_125907:780,-0.45196499999999995,-0.034058,0.024384,-0.012851,-0.002979,0.021058,-30.18,14.68,12.75,1a
2019-07-12_125907:800,-0.56839,-0.047791,0.035583,-0.008213,-0.001117,0.019136,-31.0,15.5,12.0,1a
2019-07-12_125907:820,-0.634491,-0.049805,0.034058,-0.003544,0.0018739999999999998,0.016084,-31.0,15.5,12.0,1a
2019-07-12_125907:840,-0.6487430000000001,-0.042694,0.025908999999999998,0.000729,0.006299,0.01468,-31.0,15.5,12.0,1a
2019-07-12_125907:860,-0.593811,-0.043701,0.022858,0.004086,0.009625,0.013826,-30.059998999999998,15.75,11.56,1a
2019-07-12_125907:880,-0.796692,-0.083374,0.085388,0.007229000000000001,0.012158,0.007997,-30.059998999999998,15.75,11.56,1a
2019-07-12_125907:900,-0.9344790000000001,-0.064545,-0.011169,0.006954999999999999,0.014752000000000001,0.007448000000000001,-30.870001000000002,16.559998999999998,11.56,1a
2019-07-12_125907:920,-0.669586,-0.103699,-0.023375999999999997,0.006954999999999999,0.019787,0.017061,-30.870001000000002,16.559998999999998,11.56,1a
2019-07-12_125907:940,-0.457581,-0.11691300000000002,-0.040161,0.007901,0.010083,0.00992,-30.870001000000002,16.559998999999998,11.56,1a
2019-07-12_125907:960,-0.338593,-0.135742,-0.096069,0.00372,-0.004444,0.001253,-31.559998999999998,16.559998999999998,12.25,1a
2019-07-12_125907:980,-0.389435,-0.154541,-0.098633,0.004177,-0.013294,0.000978,-31.559998999999998,16.559998999999998,12.25,1a
2019-07-12_125908:000,-0.705688,-0.161163,-0.063019,0.000851,-0.007220999999999999,0.000398,-30.5,16.18,13.18,1a
2019-07-12_125908:020,-0.62738,-0.180481,-0.089478,-0.003849,0.002911,0.0007639999999999999,-30.5,16.18,13.18,1a
2019-07-12_125908:040,-0.48300200000000004,-0.181488,-0.039124,-3e-06,0.011822,-0.003539,-30.5,16.18,13.18,1a
2019-07-12_125908:060,-0.47689799999999993,-0.171844,-0.025908999999999998,0.002255,0.01402,-0.013944999999999999,-31.18,16.18,13.18,1a
2019-07-12_125908:080,-0.45196499999999995,-0.138794,-0.024384,0.004361,0.013074,-0.017546,-31.18,16.18,13.18,1a
2019-07-12_125908:100,-0.39502,-0.12301600000000001,-0.016753999999999998,0.009823,0.008159999999999999,-0.009459,-32.25,16.18,15.56,1a
2019-07-12_125908:120,-0.34317,-0.103699,-0.0025329999999999997,0.014584,0.000866,-0.011229000000000001,-32.25,16.18,15.56,1a
2019-07-12_125908:140,-0.321808,-0.083862,0.000488,0.014797999999999999,-0.005176,-0.025389,-32.25,16.18,15.56,1a
2019-07-12_125908:160,-0.32132,-0.043701,0.019318000000000002,0.014065000000000001,-0.008197,-0.034606,-31.870001000000002,15.06,15.18,1a
2019-07-12_125908:180,-0.337067,-0.027954000000000003,0.029968,0.013333000000000001,-0.008411,-0.032987999999999996,-31.870001000000002,15.06,15.18,1a
2019-07-12_125908:200,-0.378754,-0.016266,0.046752999999999996,0.011196,-0.006275,-0.029631,-33.369999,14.0,13.18,1a
2019-07-12_125908:220,-0.393494,-0.011169,0.051849,0.007687,-0.003467,-0.028807,-33.369999,14.0,13.18,1a
2019-07-12_125908:240,-0.394012,-0.0055850000000000006,0.057953,0.005246,-0.001209,-0.025786,-33.369999,14.0,13.18,1a
2019-07-12_125908:260,-0.408752,-0.007111,0.067108,0.0032920000000000002,-8e-05,-0.02072,-33.060001,13.25,14.75,1a
2019-07-12_125908:280,-0.414337,-0.013213999999999998,0.05996699999999999,0.001187,-4.9e-05,-0.016814,-33.060001,13.25,14.75,1a
2019-07-12_125908:300,-0.396545,-0.013702,0.056427,0.000332,-0.001666,-0.014281,-33.75,12.5,15.18,1a
2019-07-12_125908:320,-0.47332799999999997,-0.011169,0.082336,-0.0004,-0.004779,-0.013640000000000001,-33.75,12.5,15.18,1a
2019-07-12_125908:340,-0.512482,-0.009125,0.068634,-0.00275,-0.007801000000000001,-0.011045999999999999,-33.75,12.5,15.18,1a
2019-07-12_125908:360,-0.56839,-0.009125,0.072693,-0.004337,-0.00954,-0.004850999999999999,-33.75,11.75,16.25,1a
2019-07-12_125908:380,-0.636536,-0.012695,0.075745,-0.0061070000000000004,-0.009204,0.001375,-33.75,11.75,16.25,1a
2019-07-12_125908:400,-0.589233,-0.006072999999999999,0.026917,-0.007418999999999999,-0.010394,0.005128,-35.25,10.68,16.0,1a
2019-07-12_125908:420,-0.5323180000000001,0.0055850000000000006,0.032013,-0.007755,-0.011646,0.004457,-35.25,10.68,16.0,1a
2019-07-12_125908:440,-0.876495,-0.001495,0.12454200000000001,-0.008945,-0.012775,0.002565,-35.25,10.68,16.0,1a
2019-07-12_125908:460,-0.801758,0.024902,-0.041168,-0.013736000000000002,-0.01192,0.013215000000000001,-34.869999,11.0,15.18,1a
2019-07-12_125908:480,-0.5419619999999999,0.021332,-0.022369,-0.013797,0.00285,0.032869,-34.869999,11.0,15.18,1a
2019-07-12_125908:500,-0.340118,0.032013,-0.015747,-0.010288,-0.003467,0.02997,-34.869999,11.75,14.75,1a
2019-07-12_125908:520,-0.383331,0.037598,-0.037598,-0.008732,-0.021015,0.003572,-34.869999,11.75,14.75,1a
2019-07-12_125908:540,-0.645691,0.051330999999999995,-0.025908999999999998,-0.007816,-0.028522000000000002,-0.022002,-34.869999,11.75,14.75,1a
2019-07-12_125908:560,-0.675171,0.094055,-0.081848,-0.008487,-0.02254,-0.01779,-36.060001,12.87,14.25,1a
2019-07-12_125908:580,-0.576538,0.097107,-0.027954000000000003,-0.007206000000000001,-0.012592,0.001039,-36.060001,12.87,14.25,1a
2019-07-12_125908:600,-0.539917,0.07421900000000001,-0.017273,-0.010654,-0.008747,0.0007639999999999999,-35.25,12.5,14.25,1a
2019-07-12_125908:620,-0.535339,0.081329,-0.036591000000000005,-0.013309,-0.005451,-0.003722,-35.25,12.5,14.25,1a
2019-07-12_125908:640,-0.421967,0.07928500000000001,-0.019806,-0.013584,-0.005817,0.003023,-35.25,12.5,14.25,1a
2019-07-12_125908:660,-0.390442,0.064545,-0.000488,-0.014865999999999999,-0.010791,0.006532,-36.0,11.75,14.0,1a
2019-07-12_125908:680,-0.35791,0.053863999999999995,-0.0035399999999999997,-0.017490000000000002,-0.015581999999999999,0.007203,-36.0,11.75,14.0,1a
2019-07-12_125908:700,-0.341125,0.038116000000000004,0.020325,-0.017307,-0.016498,0.013704,-37.060001,11.37,13.56,1a
2019-07-12_125908:720,-0.35180700000000004,0.032532,0.028442000000000002,-0.016361,-0.016101,0.021455000000000002,-37.060001,11.37,13.56,1a
2019-07-12_125908:740,-0.368591,0.022858,0.032532,-0.015964,-0.013324,0.025575,-37.060001,11.37,13.56,1a
2019-07-12_125908:760,-0.37316900000000003,0.016266,0.042694,-0.015659,-0.009265,0.027558999999999997,-36.68,11.75,13.56,1a
2019-07-12_125908:780,-0.391479,0.008636,0.048798,-0.014713,-0.006397,0.029207,-36.68,11.75,13.56,1a
2019-07-12_125908:800,-0.372162,0.0025329999999999997,0.038635,-0.013340000000000001,-0.005115,0.028687999999999998,-36.0,12.87,12.0,1a
2019-07-12_125908:820,-0.35739099999999996,0.001007,0.046752999999999996,-0.011478,-0.005878,0.025361,-36.0,12.87,12.0,1a
2019-07-12_125908:840,-0.435699,-0.0035399999999999997,0.055389,-0.010074,-0.008533,0.022522999999999998,-36.0,12.87,12.0,1a
2019-07-12_125908:860,-0.514008,-0.010162000000000001,0.042175,-0.008274,-0.009723,0.02292,-37.060001,14.0,12.0,1a
2019-07-12_125908:880,-0.591797,-0.017273,0.057953,-0.0060149999999999995,-0.008472,0.022706,-37.060001,14.0,12.0,1a
2019-07-12_125908:900,-0.6212770000000001,-0.016266,0.027435,-0.004764,-0.007801000000000001,0.019594,-37.060001,14.68,12.0,1a
2019-07-12_125908:920,-0.580109,-0.017273,0.026917,-0.0036659999999999996,-0.008258,0.018616999999999998,-37.060001,14.68,12.0,1a
2019-07-12_125908:940,-0.576019,-0.042694,0.039124,-0.00046100000000000004,-0.008258,0.018341999999999997,-37.060001,14.68,12.0,1a
2019-07-12_125908:960,-0.635529,-0.068634,0.026427999999999997,0.004116,-0.008411,0.0123,-36.68,14.25,12.25,1a
2019-07-12_125908:980,-0.9466549999999999,-0.06405599999999999,-0.006592,0.011257,-0.0030399999999999997,0.0032359999999999997,-36.68,14.25,12.25,1a
2019-07-12_125909:000,-0.661438,-0.065063,-0.09353600000000001,0.013850999999999999,-0.003925,0.004335,-37.75,15.5,13.56,1a
2019-07-12_125909:020,-0.409271,-0.086914,-0.019806,0.018581999999999998,0.001446,0.0032359999999999997,-37.75,15.5,13.56,1a
2019-07-12_125909:040,-0.338593,-0.100159,-0.065582,0.013850999999999999,-0.013568,-0.00067,-37.75,15.5,13.56,1a
2019-07-12_125909:060,-0.46926899999999994,-0.128601,-0.05438200000000001,0.011073999999999999,-0.023119999999999998,0.0058,-37.060001,14.68,13.56,1a
2019-07-12_125909:080,-0.685852,-0.148956,-0.039642000000000004,0.007809,-0.021259,0.015352000000000001,-37.060001,14.68,13.56,1a
2019-07-12_125909:100,-0.606537,-0.183533,-0.07775900000000001,0.004177,-0.014453,0.015137999999999999,-37.060001,14.68,13.18,1a
2019-07-12_125909:120,-0.508911,-0.18454,-0.039642000000000004,0.005703,-0.007739,-0.000151,-37.060001,14.68,13.18,1a
2019-07-12_125909:140,-0.515015,-0.154022,-0.043213,0.008816,-0.010333,-0.016814,-37.060001,14.68,13.18,1a
2019-07-12_125909:160,-0.47995,-0.131165,-0.060486,0.012783,-0.013843000000000001,-0.020934,-37.75,14.68,12.25,1a
2019-07-12_125909:180,-0.383331,-0.104706,-0.039642000000000004,0.017391999999999998,-0.018024000000000002,-0.019133,-37.75,14.68,12.25,1a
2019-07-12_125909:200,-0.364532,-0.083374,-0.032532,0.020962,-0.024463,-0.022978,-38.560001,13.25,12.0,1a
2019-07-12_125909:220,-0.349792,-0.048798,-0.030487,0.022366,-0.027727999999999996,-0.029936,-38.560001,13.25,12.0,1a
2019-07-12_125909:240,-0.338593,-0.028442000000000002,-0.022369,0.023403,-0.02779,-0.033354,-38.560001,13.25,12.0,1a
2019-07-12_125909:260,-0.342163,-0.008118,-0.005065999999999999,0.023068,-0.026111000000000002,-0.034667,-39.560001,12.5,12.25,1a
2019-07-12_125909:280,-0.363007,-0.0025329999999999997,0.0,0.02084,-0.022602,-0.035674000000000004,-39.560001,12.5,12.25,1a
2019-07-12_125909:300,-0.383331,0.007599,-0.000488,0.019162000000000002,-0.018421,-0.034117,-39.560001,10.68,10.75,1a
2019-07-12_125909:320,-0.386383,0.009125,0.004059,0.017361,-0.014118,-0.030608,-39.560001,10.68,10.75,1a
2019-07-12_125909:340,-0.40063499999999996,0.0055850000000000006,-0.001495,0.015590999999999999,-0.012317,-0.026701999999999997,-39.560001,10.68,10.75,1a
2019-07-12_125909:360,-0.401642,0.004547,-0.017792,0.015316,-0.013721,-0.024626,-40.369999,8.37,11.18,1a
2019-07-12_125909:380,-0.42248500000000005,0.013702,-0.009125,0.015774,-0.017078,-0.024169,-40.369999,8.37,11.18,1a
2019-07-12_125909:400,-0.514008,0.021332,-0.005065999999999999,0.014247999999999999,-0.019367,-0.022063,-41.5,7.25,11.18,1a
2019-07-12_125909:420,-0.574005,0.023375999999999997,-0.035583,0.01022,-0.021289,-0.014006000000000001,-41.5,7.25,11.18,1a
2019-07-12_125909:440,-0.635529,0.012695,-0.014740000000000001,0.006679999999999999,-0.018024000000000002,-0.00598,-41.5,7.25,11.18,1a
2019-07-12_125909:460,-0.652283,0.008636,-0.054901,0.003353,-0.014636000000000001,-0.004118999999999999,-40.369999,6.18,10.25,1a
2019-07-12_125909:480,-0.602478,0.017273,-0.051330999999999995,0.001644,-0.007678,-0.006194,-40.369999,6.18,10.25,1a
2019-07-12_125909:500,-0.851593,0.039642000000000004,0.022858,0.00198,-0.0014529999999999999,-0.008329999999999999,-41.060001,5.06,10.25,1a
2019-07-12_125909:520,-0.814484,0.055389,-0.12149000000000001,-0.001285,0.0037049999999999995,-0.008574,-41.060001,5.06,10.25,1a
2019-07-12_125909:540,-0.607544,0.056915,-0.06253099999999999,-0.005679999999999999,0.016278,-0.001891,-41.060001,5.06,10.25,1a
2019-07-12_125909:560,-0.389435,0.068115,-0.111328,-0.004703,0.010876,0.000795,-41.869999,4.68,10.0,1a
2019-07-12_125909:580,-0.282654,0.081329,-0.111328,-0.003849,-0.004993,-0.009642,-41.869999,4.68,10.0,1a
2019-07-12_125909:600,-0.566864,0.10928299999999999,-0.09149199999999999,-0.0011330000000000001,-0.025134,-0.035124,-41.869999,3.56,10.87,1a
2019-07-12_125909:620,-0.626373,0.177429,-0.16217,-0.006962,-0.032886,-0.049132,-41.869999,3.56,10.87,1a
2019-07-12_125909:640,-0.515015,0.188599,-0.09454299999999999,-0.0069,-0.026966000000000004,-0.030027999999999996,-41.869999,3.56,10.87,1a
2019-07-12_125909:660,-0.484009,0.17337,-0.08743300000000001,-0.008029999999999999,-0.025256999999999998,-0.010709999999999999,-42.0,1.25,10.37,1a
2019-07-12_125909:680,-0.501801,0.168274,-0.10318,-0.011264,-0.022022,-0.007567,-42.0,1.25,10.37,1a
2019-07-12_125909:700,-0.389954,0.15506,-0.092529,-0.012058,-0.019824,-0.0005480000000000001,-42.0,0.18,8.5,1a
2019-07-12_125909:720,-0.36349499999999996,0.130646,-0.062012,-0.012211,-0.023119999999999998,0.015809,-42.0,0.18,8.5,1a
2019-07-12_125909:740,-0.372162,0.09149199999999999,-0.05996699999999999,-0.013401,-0.027056999999999998,0.027315,-42.0,0.18,8.5,1a
2019-07-12_125909:760,-0.354858,0.081329,-0.049805,-0.013981,-0.024677,0.031068000000000002,-42.369999,0.18,8.87,1a
2019-07-12_125909:780,-0.349792,0.081329,-0.027954000000000003,-0.014194,-0.020618,0.033388,-42.369999,0.18,8.87,1a
2019-07-12_125909:800,-0.379272,0.075226,-0.034058,-0.014774,-0.017108,0.036806,-42.68,1.06,6.87,1a
2019-07-12_125909:820,-0.387909,0.070648,-0.032532,-0.015444999999999999,-0.012103000000000001,0.039247000000000004,-42.68,1.06,6.87,1a
2019-07-12_125909:840,-0.392487,0.068634,-0.024902,-0.016117,-0.006458,0.037904,-42.68,1.06,6.87,1a
2019-07-12_125909:860,-0.43011499999999997,0.072174,-0.032532,-0.017490000000000002,-0.00246,0.03412,-43.18,1.75,6.87,1a
2019-07-12_125909:880,-0.40063499999999996,0.076752,-0.056915,-0.01923,-0.004047,0.030275,-43.18,1.75,6.87,1a
2019-07-12_125909:900,-0.378754,0.072174,-0.045745999999999995,-0.019382,-0.006092,0.029695,-42.75,2.87,6.87,1a
2019-07-12_125909:920,-0.47689799999999993,0.061005,-0.041687,-0.019504,-0.009448,0.027711000000000003,-42.75,2.87,6.87,1a
2019-07-12_125909:940,-0.552124,0.051330999999999995,-0.051849,-0.019169,-0.010394,0.027223,-42.75,2.87,6.87,1a
2019-07-12_125909:960,-0.60553,0.044219999999999995,-0.043213,-0.015842,-0.006275,0.027558999999999997,-42.75,4.75,8.5,1a
2019-07-12_125909:980,-0.643646,0.029968,-0.0737,-0.013340000000000001,-0.004596,0.027223,-42.75,4.75,8.5,1a
2019-07-12_125910:000,-0.57196,0.016753999999999998,-0.066071,-0.007999,0.000805,0.026704000000000002,-44.0,4.75,6.87,1a
2019-07-12_125910:020,-0.8205870000000001,-0.000488,-0.011169,-0.001407,0.005566,0.022522999999999998,-44.0,4.75,6.87,1a
2019-07-12_125910:040,-0.732117,0.0025329999999999997,-0.152008,0.0032920000000000002,0.002606,0.015931,-44.0,4.75,6.87,1a
2019-07-12_125910:060,-0.5505979999999999,-0.028442000000000002,-0.095581,0.008297,0.006512,0.013947999999999999,-42.68,5.56,7.68,1a
2019-07-12_125910:080,-0.453491,-0.049316000000000006,-0.11438,0.010860999999999999,-0.005878,0.016145,-42.68,5.56,7.68,1a
2019-07-12_125910:100,-0.34063699999999997,-0.078278,-0.170319,0.011470999999999999,-0.01781,0.021974,-43.869999,6.56,7.25,1a
2019-07-12_125910:120,-0.5343319999999999,-0.09963999999999999,-0.10318,0.009274,-0.024738,0.030336000000000002,-43.869999,6.56,7.25,1a
2019-07-12_125910:140,-0.6507569999999999,-0.12454200000000001,-0.201843,0.006161,-0.02779,0.035249,-43.869999,6.56,7.25,1a
2019-07-12_125910:160,-0.532806,-0.159637,-0.156586,0.004635,-0.020008,0.030031,-43.060001,6.56,7.68,1a
2019-07-12_125910:180,-0.48858599999999996,-0.144897,-0.11438,0.007626000000000001,-0.014697,0.008638,-43.060001,6.56,7.68,1a
2019-07-12_125910:200,-0.49823,-0.11233499999999999,-0.122528,0.00787,-0.013111000000000001,-0.00659,-43.060001,6.87,8.87,1a
2019-07-12_125910:220,-0.44995100000000005,-0.09301799999999999,-0.114899,0.011073999999999999,-0.009387000000000001,-0.004546,-43.060001,6.87,8.87,1a
2019-07-12_125910:240,-0.395538,-0.0737,-0.091003,0.012813999999999999,-0.011127,-0.000609,-43.060001,6.87,8.87,1a
2019-07-12_125910:260,-0.375702,-0.05285599999999999,-0.07928500000000001,0.012081,-0.011798000000000001,-0.0070480000000000004,-43.869999,6.87,6.87,1a
2019-07-12_125910:280,-0.359955,-0.032013,-0.06405599999999999,0.009335,-0.010242,-0.013944999999999999,-43.869999,6.87,6.87,1a
2019-07-12_125910:300,-0.368591,-0.022858,-0.053375,0.0075650000000000005,-0.006731999999999999,-0.016356,-43.369999,6.18,6.56,1a
2019-07-12_125910:320,-0.379791,-0.018799,-0.049316000000000006,0.004574,-0.002735,-0.019347,-43.369999,6.18,6.56,1a
2019-07-12_125910:340,-0.379272,-0.015228,-0.048798,0.000729,0.00040899999999999997,-0.023924,-43.369999,6.18,6.56,1a
2019-07-12_125910:360,-0.380798,-0.014221000000000001,-0.045745999999999995,-0.002262,0.001477,-0.025969,-44.060001,5.06,7.68,1a
2019-07-12_125910:380,-0.401123,-0.013702,-0.045226999999999996,-0.004520000000000001,0.0009279999999999999,-0.026763,-44.060001,5.06,7.68,1a
2019-07-12_125910:400,-0.41842700000000005,-0.009125,-0.051849,-0.007084,0.000134,-0.027831,-44.060001,3.56,7.68,1a
2019-07-12_125910:420,-0.406219,-0.0035399999999999997,-0.049316000000000006,-0.009067,-0.00041500000000000006,-0.025511000000000002,-44.060001,3.56,7.68,1a
2019-07-12_125910:440,-0.497742,0.007111,-0.035065,-0.009861,0.000134,-0.0231,-44.060001,3.56,7.68,1a
2019-07-12_125910:460,-0.571442,0.022369,-0.048798,-0.013004,0.001935,-0.023924,-44.5,1.25,8.5,1a
2019-07-12_125910:480,-0.552124,0.034058,-0.034546,-0.017429,0.005108,-0.020842,-44.5,1.25,8.5,1a
2019-07-12_125910:500,-0.6146550000000001,0.035065,-0.01828,-0.019962,0.011151000000000001,-0.013152,-44.869999,0.68,7.68,1a
2019-07-12_125910:520,-0.577545,0.033539,-0.063538,-0.022434,0.010296,-0.01184,-44.869999,0.68,7.68,1a
2019-07-12_125910:540,-0.672638,0.043213,-0.010162000000000001,-0.022403,0.012218999999999999,-0.016661000000000002,-44.869999,0.68,7.68,1a
2019-07-12_125910:560,-0.700592,0.06253099999999999,-0.111328,-0.022037,0.008496,-0.016204,-44.869999,-0.37,8.87,1a
2019-07-12_125910:580,-0.686859,0.066589,-0.056915,-0.0181,0.0033689999999999996,-0.000212,-44.869999,-0.37,8.87,1a
2019-07-12_125910:600,-0.488068,0.096588,-0.105743,-0.016452,-0.007343000000000001,0.005067,-45.369999,-1.06,8.87,1a
2019-07-12_125910:620,-0.342163,0.12353499999999999,-0.12658699999999998,-0.012912,-0.015888,0.0017100000000000001,-45.369999,-1.06,8.87,1a
2019-07-12_125910:640,-0.36248800000000003,0.163696,-0.108795,-0.010929000000000001,-0.026386,-0.00772,-45.369999,-1.06,8.87,1a
2019-07-12_125910:660,-0.525696,0.190643,-0.154022,-0.012454999999999999,-0.035755,-0.014891,-45.369999,-1.87,9.68,1a
2019-07-12_125910:680,-0.562286,0.21505700000000003,-0.168793,-0.014315999999999999,-0.033679,-0.006255,-45.369999,-1.87,9.68,1a
2019-07-12_125910:700,-0.484009,0.209961,-0.124054,-0.017124,-0.027912,0.009035,-45.68,-1.87,8.87,1a
2019-07-12_125910:720,-0.484009,0.193176,-0.121002,-0.021671,-0.023853,0.017824,-45.68,-1.87,8.87,1a
2019-07-12_125910:740,-0.530792,0.18249500000000002,-0.12149000000000001,-0.025333,-0.017078,0.025056000000000002,-45.68,-1.87,8.87,1a
2019-07-12_125910:760,-0.47943100000000005,0.166748,-0.119965,-0.027988,-0.013904,0.031892000000000004,-46.75,-2.56,9.25,1a
2019-07-12_125910:780,-0.454529,0.146912,-0.109802,-0.030979000000000003,-0.015766,0.031862,-46.75,-2.56,9.25,1a
2019-07-12_125910:800,-0.43011499999999997,0.126068,-0.106232,-0.033694999999999996,-0.017963,0.030275,-46.060001,-1.87,8.87,1a
2019-07-12_125910:820,-0.404175,0.112854,-0.096588,-0.034305,-0.019,0.034395,-46.060001,-1.87,8.87,1a
2019-07-12_125910:840,-0.383331,0.086426,-0.087952,-0.033573,-0.019733,0.040254000000000005,-46.060001,-1.87,8.87,1a
2019-07-12_125910:860,-0.389435,0.080322,-0.084381,-0.032626999999999996,-0.018938999999999998,0.043245,-46.060001,0.25,6.87,1a
2019-07-12_125910:880,-0.411285,0.055908000000000006,-0.071686,-0.030185000000000003,-0.015186000000000002,0.045686000000000004,-46.060001,0.25,6.87,1a
2019-07-12_125910:900,-0.40823400000000004,0.051849,-0.069641,-0.026583999999999997,-0.011309999999999999,0.04767,-47.869999,2.56,6.56,1a
2019-07-12_125910:920,-0.388916,0.046265,-0.065063,-0.023624000000000003,-0.008197,0.046144,-47.869999,2.56,6.56,1a
2019-07-12_125910:940,-0.373688,0.045226999999999996,-0.06405599999999999,-0.021824,-0.005756,0.043702,-47.869999,2.56,6.56,1a
2019-07-12_125910:960,-0.349792,0.041687,-0.068115,-0.020541999999999998,-0.004383,0.042512,-47.560001,4.37,6.56,1a
2019-07-12_125910:980,-0.382324,0.032013,-0.051330999999999995,-0.018436,-0.001911,0.040986,-47.560001,4.37,6.56,1a
2019-07-12_125911:000,-0.45605500000000004,0.018799,-0.057953,-0.016849,0.000866,0.038728,-46.369999,5.56,7.68,1a
2019-07-12_125911:020,-0.498749,0.008118,-0.051330999999999995,-0.013401,0.006177,0.036775,-46.369999,5.56,7.68,1a
2019-07-12_125911:040,-0.599915,-0.004059,-0.06253099999999999,-0.009525,0.008556999999999999,0.032289,-46.369999,5.56,7.68,1a
2019-07-12_125911:060,-0.569427,-0.001495,-0.100159,-0.007267,0.010357,0.027284,-47.18,7.0,6.87,1a
2019-07-12_125911:080,-0.5368649999999999,-0.01828,-0.039124,-0.003055,0.015271000000000002,0.021119,-47.18,7.0,6.87,1a
2019-07-12_125911:100,-0.9141239999999999,-0.034058,-0.011687999999999999,-0.002659,0.014813,0.015625999999999998,-46.25,8.87,6.87,1a
2019-07-12_125911:120,-0.7789,-0.013702,-0.166229,-0.0037270000000000003,0.010083,0.027223,-46.25,8.87,6.87,1a
2019-07-12_125911:140,-0.5922850000000001,-0.042694,-0.102692,-0.001285,0.004712,0.027681,-46.25,8.87,6.87,1a
2019-07-12_125911:160,-0.35436999999999996,-0.050323,-0.17843599999999998,-0.00629,-0.014972,0.014497,-46.68,9.25,8.5,1a
2019-07-12_125911:180,-0.35638400000000003,-0.063019,-0.137756,-0.008548,-0.027118,0.012178,-46.68,9.25,8.5,1a
2019-07-12_125911:200,-0.505371,-0.09353600000000001,-0.20080599999999998,-0.009464,-0.034473000000000004,0.029939,-46.0,10.68,9.68,1a
2019-07-12_125911:220,-0.6177060000000001,-0.119476,-0.187592,-0.007816,-0.026507999999999997,0.035585000000000006,-46.0,10.68,9.68,1a
2019-07-12_125911:240,-0.580109,-0.126068,-0.193176,-0.008884,-0.016895,0.022522999999999998,-46.0,10.68,9.68,1a
2019-07-12_125911:260,-0.510437,-0.118958,-0.168793,-0.006351,-0.006458,0.011567000000000001,-45.68,9.87,7.68,1a
2019-07-12_125911:280,-0.485016,-0.09454299999999999,-0.144379,-0.00629,0.000592,0.012086,-45.68,9.87,7.68,1a
2019-07-12_125911:300,-0.492126,-0.088959,-0.144379,-0.0076939999999999995,0.003979,0.018525,-45.560001,12.18,7.68,1a
2019-07-12_125911:320,-0.469757,-0.081329,-0.139801,-0.011661,0.0037049999999999995,0.021669,-45.560001,12.18,7.68,1a
2019-07-12_125911:340,-0.434174,-0.076263,-0.111847,-0.015049000000000002,0.003399,0.017396000000000002,-45.560001,12.18,7.68,1a
2019-07-12_125911:360,-0.40823400000000004,-0.071167,-0.10675,-0.01865,0.003583,0.0076,-44.869999,12.87,6.56,1a
2019-07-12_125911:380,-0.397583,-0.068634,-0.08996599999999999,-0.021152,0.004925,-0.003935,-44.869999,12.87,6.56,1a
2019-07-12_125911:400,-0.406219,-0.063538,-0.08081100000000001,-0.023075,0.006909,-0.012297,-45.68,13.56,6.56,1a
2019-07-12_125911:420,-0.417389,-0.058960000000000005,-0.064545,-0.024082,0.010144,-0.016478,-45.68,13.56,6.56,1a
2019-07-12_125911:440,-0.42147799999999996,-0.053863999999999995,-0.056915,-0.024662,0.012799,-0.018401,-45.68,13.56,6.56,1a
2019-07-12_125911:460,-0.408752,-0.043701,-0.049805,-0.024143,0.014141999999999998,-0.020201,-45.369999,12.87,8.87,1a
2019-07-12_125911:480,-0.410278,-0.032532,-0.043701,-0.023349,0.01289,-0.022521,-45.369999,12.87,8.87,1a
2019-07-12_125911:500,-0.41485600000000006,-0.019806,-0.047791,-0.023014,0.009747,-0.022185,-46.060001,12.18,8.06,1a
2019-07-12_125911:520,-0.40976,-0.004059,-0.049316000000000006,-0.022953,0.0053219999999999995,-0.018522999999999998,-46.060001,12.18,8.06,1a
2019-07-12_125911:540,-0.44384799999999996,0.004547,-0.039642000000000004,-0.024021,0.001782,-0.015165999999999999,-46.060001,12.18,8.06,1a
2019-07-12_125911:560,-0.466217,0.015228,-0.039642000000000004,-0.027134,0.001782,-0.011106999999999999,-45.68,11.0,9.25,1a
2019-07-12_125911:580,-0.5205989999999999,0.029480000000000003,-0.016266,-0.031833,0.0045899999999999995,-0.005248,-45.68,11.0,9.25,1a
2019-07-12_125911:600,-0.627899,0.035065,-0.014221000000000001,-0.040012,0.007763,0.002443,-46.060001,9.5,10.37,1a
2019-07-12_125911:620,-0.494171,0.046265,-0.076752,-0.048556999999999996,0.009686,0.007965999999999999,-46.060001,9.5,10.37,1a
2019-07-12_125911:640,-0.45095799999999997,0.045745999999999995,-0.014740000000000001,-0.058445000000000004,0.006177,0.001161,-46.060001,9.5,10.37,1a
2019-07-12_125911:660,-0.505371,0.05996699999999999,-0.047791,-0.07114,-0.006,-0.002684,-45.68,9.87,10.87,1a
2019-07-12_125911:680,-0.643127,0.064545,-0.038635,-0.08237,-0.009113,0.004152,-45.68,9.87,10.87,1a
2019-07-12_125911:700,-0.615692,0.08590700000000001,-0.165741,-0.09717100000000001,-0.020496,0.018525,-44.560001,10.68,9.25,1a
2019-07-12_125911:720,-0.661957,0.063538,-0.053375,-0.10858499999999999,-0.014178999999999999,0.024171,-44.560001,10.68,9.25,1a
2019-07-12_125911:740,-0.607544,0.095062,-0.106232,-0.121708,-0.020862000000000002,0.030549,-44.560001,10.68,9.25,1a
2019-07-12_125911:760,-0.411285,0.104218,-0.138794,-0.127903,-0.015979,0.029358999999999996,-45.0,11.75,8.06,1a
2019-07-12_125911:780,-0.35739099999999996,0.106232,-0.117432,-0.133579,-0.019672,0.011445,-45.0,11.75,8.06,1a
2019-07-12_125911:800,-0.502808,0.11233499999999999,-0.12200899999999999,-0.135044,-0.014025999999999999,-0.008695999999999999,-44.18,13.56,6.87,1a
2019-07-12_125911:820,-0.65686,0.144897,-0.12658699999999998,-0.137302,-0.0025210000000000002,-0.007201000000000001,-44.18,13.56,6.87,1a
2019-07-12_125911:840,-0.569427,0.178955,-0.137268,-0.13492200000000001,0.010022,0.005586,-44.18,13.56,6.87,1a
2019-07-12_125911:860,-0.52774,0.17996199999999998,-0.114899,-0.136783,0.01167,0.009035,-45.68,13.56,4.87,1a
2019-07-12_125911:880,-0.500275,0.187073,-0.136749,-0.136722,0.011487,0.020112,-45.68,13.56,4.87,1a
2019-07-12_125911:900,-0.44638100000000003,0.176422,-0.12658699999999998,-0.13611199999999998,0.010418,0.031343,-45.0,15.75,4.06,1a
2019-07-12_125911:920,-0.405212,0.128113,-0.10675,-0.13431099999999999,0.004834000000000001,0.059236000000000004,-45.0,15.75,4.06,1a
2019-07-12_125911:940,-0.401123,0.102173,-0.103699,-0.13312100000000002,0.001202,0.059633000000000005,-45.0,15.75,4.06,1a
2019-07-12_125911:960,-0.385376,0.08590700000000001,-0.10928299999999999,-0.130863,-0.0025210000000000002,0.053834,-43.869999,17.0,4.06,1a
2019-07-12_125911:980,-0.382324,0.081329,-0.102692,-0.128544,-0.005756,0.049745,-43.869999,17.0,4.06,1a
2019-07-12_125912:000,-0.41485600000000006,0.071167,-0.100159,-0.12628499999999998,-0.006793,0.047882999999999995,-43.5,18.68,0.87,1a
2019-07-12_125912:020,-0.435699,0.065063,-0.09811399999999999,-0.124027,-0.004169,0.047425999999999996,-43.5,18.68,0.87,1a
2019-07-12_125912:040,-0.44891400000000004,0.058441,-0.090485,-0.12106700000000001,-0.00014099999999999998,0.047792,-43.5,18.68,0.87,1a
2019-07-12_125912:060,-0.431641,0.055389,-0.09149199999999999,-0.11978499999999999,0.001935,0.04767,-42.369999,20.18,-0.56,1a
2019-07-12_125912:080,-0.394531,0.046265,-0.08590700000000001,-0.114628,0.007702,0.043702,-42.369999,20.18,-0.56,1a
2019-07-12_125912:100,-0.381317,0.039124,-0.08081100000000001,-0.11243,0.008954,0.041963,-40.869999,22.25,-2.56,1a
2019-07-12_125912:120,-0.457581,0.016753999999999998,-0.062012,-0.102329,0.012555,0.037263,-40.869999,22.25,-2.56,1a
2019-07-12_125912:140,-0.589233,-0.008636,-0.047791,-0.093448,0.016522,0.036867000000000004,-40.869999,22.25,-2.56,1a
2019-07-12_125912:160,-0.558746,-0.0055850000000000006,-0.067596,-0.081363,0.023297,0.037599,-39.68,23.5,-4.56,1a
2019-07-12_125912:180,-0.56839,-0.016753999999999998,-0.023375999999999997,-0.072117,0.023755000000000002,0.03293,-39.68,23.5,-4.56,1a
2019-07-12_125912:200,-0.514008,-0.016753999999999998,-0.043701,-0.063511,0.027264,0.037385,-38.560001,23.5,-5.37,1a
2019-07-12_125912:220,-0.5872189999999999,-0.050842,0.0055850000000000006,-0.054537999999999996,0.030804,0.043764,-38.560001,23.5,-5.37,1a
2019-07-12_125912:240,-0.781433,-0.065582,-0.081329,-0.051639,0.032513,0.049348,-38.560001,23.5,-5.37,1a
2019-07-12_125912:260,-0.680756,-0.096588,-0.046265,-0.049045,0.037488,0.048951999999999996,-38.25,25.0,-5.75,1a
2019-07-12_125912:280,-0.521637,-0.09149199999999999,-0.084381,-0.048893,0.022838999999999998,0.038576,-38.25,25.0,-5.75,1a
2019-07-12_125912:300,-0.296906,-0.09301799999999999,-0.12048299999999999,-0.046573,0.017071,0.037599,-37.560001,25.68,-6.56,1a
2019-07-12_125912:320,-0.23995999999999998,-0.08996599999999999,-0.063019,-0.047916,-0.006670999999999999,0.024965,-37.560001,25.68,-6.56,1a
2019-07-12_125912:340,-0.363007,-0.072174,-0.09301799999999999,-0.052951,-0.009204,0.027162000000000002,-37.560001,25.68,-6.56,1a
2019-07-12_125912:360,-0.6146550000000001,-0.079803,-0.085388,-0.057529,-0.003986,0.030549,-36.369999,26.75,-7.06,1a
2019-07-12_125912:380,-0.5658569999999999,-0.090485,-0.112854,-0.07114,0.008679000000000001,0.030336000000000002,-36.369999,26.75,-7.06,1a
2019-07-12_125912:400,-0.461639,-0.116425,-0.076263,-0.073978,0.008832,0.019655000000000002,-35.25,27.68,-8.5,1a
2019-07-12_125912:420,-0.472321,-0.10675,-0.09201000000000001,-0.084354,-0.001605,-0.013304,-35.25,27.68,-8.5,1a
2019-07-12_125912:440,-0.49926800000000005,-0.083862,-0.095581,-0.086338,-0.006793,-0.0054,-35.25,27.68,-8.5,1a
2019-07-12_125912:460,-0.508423,-0.088959,-0.08590700000000001,-0.086612,-0.00893,0.001588,-36.369999,26.870001000000002,-8.18,1a
2019-07-12_125912:480,-0.508423,-0.09301799999999999,-0.081329,-0.08679500000000001,-0.010456,-0.005461,-36.369999,26.870001000000002,-8.18,1a
2019-07-12_125912:500,-0.489594,-0.078796,-0.071686,-0.086185,-0.008869,-0.012175,-35.25,25.370001000000002,-12.18,1a
2019-07-12_125912:520,-0.467224,-0.054901,-0.053375,-0.08057,-0.00185,-0.015959,-35.25,25.370001000000002,-12.18,1a
2019-07-12_125912:540,-0.47180200000000005,-0.045745999999999995,-0.043701,-0.077915,0.004925,-0.012908000000000001,-35.25,25.370001000000002,-12.18,1a
2019-07-12_125912:560,-0.46670500000000004,-0.043213,-0.033539,-0.077305,0.008618,-0.010832,-35.68,24.68,-13.25,1a
2019-07-12_125912:580,-0.451477,-0.044739,-0.025908999999999998,-0.073398,0.016675,-0.001891,-35.68,24.68,-13.25,1a
2019-07-12_125912:600,-0.434692,-0.058960000000000005,-0.022369,-0.071872,0.017773,6.2e-05,-35.68,24.68,-13.25,1a
2019-07-12_125912:620,-0.426544,-0.077271,-0.022369,-0.065677,0.015729,-0.003325,-37.560001,22.370001000000002,-14.5,1a
2019-07-12_125912:640,-0.425537,-0.083862,-0.029480000000000003,-0.058872,0.010876,-0.012175,-37.560001,22.370001000000002,-14.5,1a
2019-07-12_125912:660,-0.41995200000000005,-0.075226,-0.023375999999999997,-0.055607000000000004,0.008709999999999999,-0.017821,-36.369999,22.059998999999998,-15.0,1a
2019-07-12_125912:680,-0.418915,-0.06405599999999999,-0.020325,-0.045383,0.002667,-0.035643,-36.369999,22.059998999999998,-15.0,1a
2019-07-12_125912:700,-0.453003,-0.03302,-0.016753999999999998,-0.043308,0.00108,-0.040251,-36.060001,20.18,-15.68,1a
2019-07-12_125912:720,-0.514008,-0.015747,-0.005065999999999999,-0.040867,1.2e-05,-0.037902,-36.060001,20.18,-15.68,1a
2019-07-12_125912:740,-0.556702,0.005065999999999999,-0.018799,-0.040652999999999995,0.001538,-0.031737,-36.060001,20.18,-15.68,1a
2019-07-12_125912:760,-0.533844,0.009644,-0.0055850000000000006,-0.040928,0.00758,-0.019347,-37.560001,18.0,-16.870001000000002,1a
2019-07-12_125912:780,-0.562805,0.021332,-0.013213999999999998,-0.043979000000000004,0.011883,-0.012754999999999999,-37.560001,18.0,-16.870001000000002,1a
2019-07-12_125912:800,-0.530273,0.030487,-0.037108999999999996,-0.04816,0.011487,-0.0008230000000000001,-37.869999,16.559998999999998,-16.5,1a
2019-07-12_125912:820,-0.710266,0.014221000000000001,0.034546,-0.052494000000000006,0.0069700000000000005,0.013550999999999999,-37.869999,16.559998999999998,-16.5,1a
2019-07-12_125912:840,-0.787018,0.041168,-0.072174,-0.066745,-0.0020629999999999997,0.030733,-37.869999,16.559998999999998,-16.5,1a
2019-07-12_125912:860,-0.635529,0.031006,-0.015747,-0.070011,0.001446,0.03528,-39.0,15.75,-17.68,1a
2019-07-12_125912:880,-0.459595,0.050842,-0.050842,-0.08057,0.000989,0.021516,-39.0,15.75,-17.68,1a
2019-07-12_125912:900,-0.369598,0.096588,-0.076263,-0.083011,0.000317,0.013307,-39.0,15.75,-17.68,1a
2019-07-12_125912:920,-0.504333,0.12658699999999998,-0.050842,-0.091709,0.000317,-0.021117,-37.560001,15.06,-16.870001000000002,1a
2019-07-12_125912:940,-0.661438,0.209961,-0.09353600000000001,-0.097812,0.001324,-0.029814,-37.560001,15.06,-16.870001000000002,1a
2019-07-12_125912:960,-0.60907,0.25317399999999995,-0.100647,-0.112674,0.0047729999999999995,-0.030669,-39.0,13.56,-18.059998999999998,1a
2019-07-12_125912:980,-0.516022,0.25116,-0.100159,-0.13068,0.004712,-0.020537,-39.0,13.56,-18.059998999999998,1a
2019-07-12_125913:000,-0.521637,0.233337,-0.097107,-0.147342,-0.00038500000000000003,-0.009581000000000001,-39.369999,11.0,-18.5,1a
2019-07-12_125913:020,-0.501801,0.172333,-0.10675,-0.15780999999999998,-0.004444,0.007997,-39.369999,11.0,-18.5,1a
2019-07-12_125913:040,-0.467743,0.128113,-0.102692,-0.159092,-0.008197,0.028076999999999998,-39.369999,11.0,-18.5,1a
2019-07-12_125913:060,-0.42248500000000005,0.07016,-0.095062,-0.157871,-0.00954,0.029207,-39.369999,8.0,-20.18,1a
2019-07-12_125913:080,-0.397583,0.044219999999999995,-0.086426,-0.14487,-0.011859,0.033875999999999996,-39.369999,8.0,-20.18,1a
2019-07-12_125913:100,-0.35436999999999996,0.01828,-0.069122,-0.13864500000000002,-0.011401999999999999,0.03705,-39.369999,8.0,-20.18,1a
2019-07-12_125913:120,-0.34570300000000004,0.009125,-0.049316000000000006,-0.12106700000000001,-0.007404000000000001,0.040651,-38.25,4.68,-21.370001000000002,1a
2019-07-12_125913:140,-0.35638400000000003,0.002014,-0.042694,-0.116672,-0.0060609999999999995,0.041047,-38.25,4.68,-21.370001000000002,1a
2019-07-12_125913:160,-0.355377,-0.004059,-0.036072,-0.10815799999999999,-0.002704,0.044435,-39.0,4.25,-22.18,1a
2019-07-12_125913:180,-0.354858,-0.014740000000000001,-0.025421,-0.1012,-0.00041500000000000006,0.044893,-39.0,4.25,-22.18,1a
2019-07-12_125913:200,-0.373688,-0.017792,-0.024384,-0.096103,-8e-05,0.038452999999999994,-39.0,3.18,-21.0,1a
2019-07-12_125913:220,-0.382812,-0.016753999999999998,-0.026427999999999997,-0.091831,-0.0009339999999999999,0.032075,-39.0,3.18,-21.0,1a
2019-07-12_125913:240,-0.399597,-0.021332,-0.022858,-0.08566599999999999,-0.003192,0.027833,-39.0,3.18,-21.0,1a
2019-07-12_125913:260,-0.49517799999999995,-0.027435,-0.004547,-0.078708,-0.006670999999999999,0.021242,-39.0,2.06,-21.370001000000002,1a
2019-07-12_125913:280,-0.6375430000000001,-0.023895,-0.0030210000000000002,-0.070408,-0.008716,0.014223,-39.0,2.06,-21.370001000000002,1a
2019-07-12_125913:300,-0.640076,-0.025421,-0.025421,-0.0611,-0.010791,0.01587,-39.0,2.06,-21.370001000000002,1a
2019-07-12_125913:320,-0.604492,-0.032532,-0.0025329999999999997,-0.047519,-0.007678,0.013368000000000001,-38.560001,1.18,-22.25,1a
2019-07-12_125913:340,-0.8373719999999999,-0.044219999999999995,0.029968,-0.039158,-0.007465,0.008058,-38.560001,1.18,-22.25,1a
2019-07-12_125913:360,-0.8388979999999999,-0.026917,-0.081329,-0.033298,-0.003986,0.021913,-38.25,0.56,-21.5,1a
2019-07-12_125913:380,-0.680756,-0.0849,-0.013213999999999998,-0.028506999999999998,0.005963,0.045473,-38.25,0.56,-21.5,1a
2019-07-12_125913:400,-0.590759,-0.10318,-0.073212,-0.027712999999999998,0.006573000000000001,0.042421,-38.25,0.56,-21.5,1a
2019-07-12_125913:420,-0.348267,-0.11843900000000002,-0.152527,-0.029972000000000002,-0.0012699999999999999,0.034517,-39.369999,0.87,-22.25,1a
2019-07-12_125913:440,-0.21606399999999998,-0.140808,-0.139801,-0.02692,-0.012714,0.031892000000000004,-39.369999,0.87,-22.25,1a
2019-07-12_125913:460,-0.42807,-0.172333,-0.119476,-0.023929,-0.030108999999999997,0.021669,-39.369999,0.87,-21.5,1a
2019-07-12_125913:480,-0.6487430000000001,-0.170319,-0.14743,-0.023349,-0.03429,0.009248000000000001,-39.369999,0.87,-21.5,1a
2019-07-12_125913:500,-0.541443,-0.17538499999999999,-0.145386,-0.02103,-0.023731,0.010255,-39.369999,0.87,-21.5,1a
2019-07-12_125913:520,-0.45706199999999997,-0.177429,-0.102173,-0.014469,-0.013294,0.0027170000000000002,-39.68,1.18,-21.5,1a
2019-07-12_125913:540,-0.490601,-0.137756,-0.097107,-0.011326000000000001,-0.010242,-0.022704,-39.68,1.18,-21.5,1a
2019-07-12_125913:560,-0.475372,-0.10675,-0.095581,-0.008274,-0.005695,-0.030547,-39.0,2.37,-24.25,1a
2019-07-12_125913:580,-0.40823400000000004,-0.097595,-0.062012,-0.0018039999999999998,-0.002796,-0.015349000000000002,-39.0,2.37,-24.25,1a
2019-07-12_125913:600,-0.399109,-0.087952,-0.051849,0.002316,-0.003925,-0.011045999999999999,-39.0,2.37,-24.25,1a
2019-07-12_125913:620,-0.389954,-0.055908000000000006,-0.046752999999999996,0.002652,-0.005115,-0.020475999999999998,-38.560001,0.06,-22.25,1a
2019-07-12_125913:640,-0.379272,-0.039124,-0.037598,0.004086,-0.004657,-0.023528,-38.560001,0.06,-22.25,1a
2019-07-12_125913:660,-0.385376,-0.025908999999999998,-0.028442000000000002,0.004299,-0.004047,-0.021514,-39.68,-1.0,-23.059998999999998,1a
2019-07-12_125913:680,-0.392487,-0.017792,-0.021851,0.001431,-0.002918,-0.02365,-39.68,-1.0,-23.059998999999998,1a
2019-07-12_125913:700,-0.41333000000000003,-0.008636,-0.010651,-0.0018039999999999998,-0.000659,-0.025389,-39.68,-1.0,-23.059998999999998,1a
2019-07-12_125913:720,-0.437225,-0.006592,-0.007111,-0.004275999999999999,0.001599,-0.022917,-38.560001,-1.37,-22.68,1a
2019-07-12_125913:740,-0.433655,-0.012695,-0.013213999999999998,-0.007297,0.00285,-0.021330000000000002,-38.560001,-1.37,-22.68,1a
2019-07-12_125913:760,-0.414337,-0.015747,-0.018799,-0.010471,0.00108,-0.021666,-38.560001,-2.75,-23.059998999999998,1a
2019-07-12_125913:780,-0.441284,-0.026917,-0.015747,-0.012333,-0.0035280000000000003,-0.021238999999999997,-38.560001,-2.75,-23.059998999999998,1a
2019-07-12_125913:800,-0.488068,-0.033539,-0.017273,-0.012729,-0.007220999999999999,-0.02014,-38.560001,-2.75,-23.059998999999998,1a
2019-07-12_125913:820,-0.551117,-0.034546,-0.022858,-0.012912,-0.008655,-0.018126,-39.369999,-3.56,-21.5,1a
2019-07-12_125913:840,-0.605011,-0.035065,-0.012695,-0.012668,-0.006793,-0.014219999999999998,-39.369999,-3.56,-21.5,1a
2019-07-12_125913:860,-0.598907,-0.03302,-0.040649,-0.0116,-0.004444,-0.011962,-39.0,-5.06,-22.0,1a
2019-07-12_125913:880,-0.56839,-0.024902,-0.046265,-0.011142,-0.004321,-0.013822999999999998,-39.0,-5.06,-22.0,1a
2019-07-12_125913:900,-0.792603,-0.019806,0.011169,-0.010196,-0.004718,-0.015165999999999999,-39.0,-5.06,-22.0,1a
2019-07-12_125913:920,-0.6873779999999999,0.018799,-0.131165,-0.010806999999999999,-0.009937,-0.0024100000000000002,-38.25,-5.75,-22.0,1a
2019-07-12_125913:940,-0.566376,0.034546,-0.045745999999999995,-0.008274,-0.002796,-0.000212,-38.25,-5.75,-22.0,1a
2019-07-12_125913:960,-0.528748,0.07421900000000001,-0.087952,-0.011142,-0.012592,-0.004912,-39.0,-7.68,-22.75,1a
2019-07-12_125913:980,-0.417908,0.128601,-0.178955,-0.009739,-0.021411000000000003,-0.008787999999999999,-39.0,-7.68,-22.75,1a
2019-07-12_125914:000,-0.36911,0.145905,-0.148956,-0.007755,-0.030445,-0.023711000000000003,-39.0,-7.68,-22.75,1a
2019-07-12_125914:020,-0.646179,0.19927999999999998,-0.151001,-0.010532,-0.03429,-0.038633999999999995,-38.68,-7.25,-22.0,1a
2019-07-12_125914:040,-0.585175,0.23995999999999998,-0.189636,-0.012607,-0.027056999999999998,-0.020475999999999998,-38.68,-7.25,-22.0,1a
2019-07-12_125914:060,-0.488068,0.226227,-0.116425,-0.013125999999999999,-0.019489,0.0039689999999999994,-38.369999,-8.37,-23.559998999999998,1a
2019-07-12_125914:080,-0.5185850000000001,0.201843,-0.134705,-0.019901,-0.016101,0.014833,-38.369999,-8.37,-23.559998999999998,1a
2019-07-12_125914:100,-0.490112,0.17538499999999999,-0.126068,-0.024479,-0.008594,0.027375999999999998,-38.369999,-8.37,-23.559998999999998,1a
2019-07-12_125914:120,-0.434692,0.142853,-0.102692,-0.028324000000000002,-0.0060609999999999995,0.041963,-38.0,-8.75,-22.370001000000002,1a
2019-07-12_125914:140,-0.40774499999999997,0.096069,-0.08996599999999999,-0.032169,-0.00539,0.045686000000000004,-38.0,-8.75,-22.370001000000002,1a
2019-07-12_125914:160,-0.378754,0.07775900000000001,-0.083862,-0.036625,-0.002124,0.043489,-38.369999,-8.06,-24.370001000000002,1a
2019-07-12_125914:180,-0.348267,0.058441,-0.050842,-0.03873,0.00047000000000000004,0.044739999999999995,-38.369999,-8.06,-24.370001000000002,1a
2019-07-12_125914:200,-0.350281,0.037108999999999996,-0.049316000000000006,-0.040133999999999996,0.001843,0.046205,-38.369999,-8.06,-24.370001000000002,1a
2019-07-12_125914:220,-0.355896,0.028961,-0.042175,-0.041416,0.002972,0.043764,-37.68,-7.68,-22.5,1a
2019-07-12_125914:240,-0.384338,0.01828,-0.034546,-0.041416,0.0036439999999999997,0.039705000000000004,-37.68,-7.68,-22.5,1a
2019-07-12_125914:260,-0.390442,0.013702,-0.035583,-0.039951,0.004437,0.036378,-39.060001,-7.25,-22.75,1a
2019-07-12_125914:280,-0.364532,0.010162000000000001,-0.034546,-0.037693,0.004986,0.032686,-39.060001,-7.25,-22.75,1a
2019-07-12_125914:300,-0.37112399999999995,0.006072999999999999,-0.032532,-0.034152999999999996,0.003003,0.028566,-39.060001,-7.25,-22.75,1a
2019-07-12_125914:320,-0.432159,0.0025329999999999997,-0.039642000000000004,-0.029514,-0.00038500000000000003,0.025178,-40.560001,-6.18,-21.559998999999998,1a
2019-07-12_125914:340,-0.522125,-0.0025329999999999997,-0.029968,-0.022892,-0.001605,0.02292,-40.560001,-6.18,-21.559998999999998,1a
2019-07-12_125914:360,-0.605011,-0.008118,-0.049805,-0.016178,-0.002796,0.021058,-39.5,-5.06,-22.0,1a
2019-07-12_125914:380,-0.6177060000000001,-0.010162000000000001,-0.051849,-0.008487,-0.002246,0.01822,-39.5,-5.06,-22.0,1a
2019-07-12_125914:400,-0.552643,-0.019318000000000002,-0.05438200000000001,-0.002475,-0.001056,0.014740999999999999,-39.5,-5.06,-22.0,1a
2019-07-12_125914:420,-0.7763369999999999,-0.049316000000000006,0.010651,0.0033840000000000003,0.000134,0.013215000000000001,-39.75,-5.37,-21.559998999999998,1a
2019-07-12_125914:440,-0.809387,-0.051330999999999995,-0.171326,0.005093,-0.002857,0.021272,-39.75,-5.37,-21.559998999999998,1a
2019-07-12_125914:460,-0.7036439999999999,-0.088959,-0.07421900000000001,0.008206,0.009686,0.030366000000000004,-40.18,-5.37,-21.559998999999998,1a
2019-07-12_125914:480,-0.366058,-0.130127,-0.119476,0.006954999999999999,0.001446,0.024843,-40.18,-5.37,-21.559998999999998,1a
2019-07-12_125914:500,-0.28927600000000003,-0.148956,-0.107269,0.004849,-0.005695,0.019533000000000002,-40.18,-5.37,-21.559998999999998,1a
2019-07-12_125914:520,-0.452484,-0.185547,-0.11386099999999999,0.0038420000000000004,-0.016895,0.024324000000000002,-39.5,-3.18,-21.18,1a
2019-07-12_125914:540,-0.652283,-0.20385699999999998,-0.138794,0.004025,-0.019763,0.027039999999999998,-39.5,-3.18,-21.18,1a
2019-07-12_125914:560,-0.5272220000000001,-0.23028600000000002,-0.154541,0.002652,-0.01662,0.015077000000000002,-41.0,-2.75,-21.559998999999998,1a
2019-07-12_125914:580,-0.46823100000000006,-0.225739,-0.101685,0.004483,-0.014697,-0.008634999999999999,-41.0,-2.75,-21.559998999999998,1a
2019-07-12_125914:600,-0.535858,-0.194214,-0.11386099999999999,0.006770999999999999,-0.015766,-0.021575,-41.0,-2.75,-21.559998999999998,1a
2019-07-12_125914:620,-0.502319,-0.177429,-0.127106,0.011013,-0.013446000000000001,-0.018004,-40.18,-1.25,-21.18,1a
2019-07-12_125914:640,-0.43518100000000004,-0.146423,-0.083374,0.016232,-0.013507,-0.014556,-40.18,-1.25,-21.18,1a
2019-07-12_125914:660,-0.410278,-0.11691300000000002,-0.083374,0.018765,-0.016284,-0.021330000000000002,-39.75,-2.75,-21.559998999999998,1a
2019-07-12_125914:680,-0.36706500000000003,-0.073212,-0.07016,0.019497,-0.014697,-0.029296,-39.75,-2.75,-21.559998999999998,1a
2019-07-12_125914:700,-0.348267,-0.049805,-0.056427,0.018887,-0.011768,-0.032012,-39.75,-2.75,-21.559998999999998,1a
2019-07-12_125914:720,-0.354858,-0.026427999999999997,-0.044739,0.016049,-0.008655,-0.031462000000000004,-41.0,-3.18,-22.75,1a
2019-07-12_125914:740,-0.36349499999999996,-0.019806,-0.042694,0.011349,-0.0032530000000000002,-0.030547,-41.0,-3.18,-22.75,1a
2019-07-12_125914:760,-0.368073,-0.013702,-0.029480000000000003,0.007229000000000001,0.002911,-0.028838,-40.560001,-3.18,-23.559998999999998,1a
2019-07-12_125914:780,-0.378265,-0.012177,-0.022858,0.0032920000000000002,0.007977,-0.026701999999999997,-40.560001,-3.18,-23.559998999999998,1a
2019-07-12_125914:800,-0.367584,-0.012695,-0.031006,0.00018,0.010815,-0.025359,-40.560001,-3.18,-23.559998999999998,1a
2019-07-12_125914:820,-0.349792,-0.016266,-0.027954000000000003,-0.00159,0.010754000000000001,-0.024779,-39.060001,-5.37,-22.370001000000002,1a
2019-07-12_125914:840,-0.447906,-0.014740000000000001,-0.006592,-0.0019260000000000002,0.008709999999999999,-0.024321000000000002,-39.060001,-5.37,-22.370001000000002,1a
2019-07-12_125914:860,-0.546539,-0.013213999999999998,-0.020325,-0.00275,0.008496,-0.020995,-41.0,-6.18,-22.0,1a
2019-07-12_125914:880,-0.531281,-0.013213999999999998,-0.010651,-0.003544,0.009961,-0.014098,-41.0,-6.18,-22.0,1a
2019-07-12_125914:900,-0.591278,-0.015747,0.011687999999999999,-0.004184,0.011151000000000001,-0.009307,-41.0,-6.18,-22.0,1a
2019-07-12_125914:920,-0.607056,-0.013213999999999998,-0.05996699999999999,-0.004612,0.007702,-0.00772,-41.0,-7.25,-23.559998999999998,1a
2019-07-12_125914:940,-0.5480649999999999,-0.009644,-0.039642000000000004,-0.004978,0.0053219999999999995,-0.010588,-41.0,-7.25,-23.559998999999998,1a
2019-07-12_125914:960,-0.921234,0.0055850000000000006,0.013702,-0.0067480000000000005,0.001385,-0.010435999999999999,-41.25,-7.68,-22.0,1a
2019-07-12_125914:980,-0.752441,0.012695,-0.149963,-0.011203,-0.008136,0.003297,-41.25,-7.68,-22.0,1a
2019-07-12_125915:000,-0.512482,0.007599,-0.046265,-0.011539,-0.001941,0.011506,-41.25,-7.68,-22.0,1a
2019-07-12_125915:020,-0.452484,0.021851,-0.066589,-0.012454999999999999,-0.013111000000000001,0.003023,-41.0,-8.75,-20.0,1a
2019-07-12_125915:040,-0.315704,0.058960000000000005,-0.14386,-0.010654,-0.023517,-0.013884,-41.0,-8.75,-20.0,1a
2019-07-12_125915:060,-0.425537,0.081329,-0.09301799999999999,-0.0060149999999999995,-0.030108999999999997,-0.028166000000000004,-40.560001,-9.06,-20.370001000000002,1a
2019-07-12_125915:080,-0.645691,0.12301600000000001,-0.172333,-0.006351,-0.038135,-0.032927,-40.560001,-9.06,-20.370001000000002,1a
2019-07-12_125915:100,-0.533844,0.152008,-0.174896,-0.007084,-0.032306,-0.019652,-40.560001,-9.06,-20.370001000000002,1a
2019-07-12_125915:120,-0.44027700000000003,0.146423,-0.111328,-0.009403,-0.028247,0.000398,-40.18,-10.56,-21.18,1a
2019-07-12_125915:140,-0.523163,0.128113,-0.12353499999999999,-0.012607,-0.026447000000000002,0.015413,-40.18,-10.56,-21.18,1a
2019-07-12_125915:160,-0.531799,0.101685,-0.12912,-0.015597999999999999,-0.018604,0.026369,-38.68,-11.37,-22.370001000000002,1a
2019-07-12_125915:180,-0.46823100000000006,0.078796,-0.095062,-0.017887,-0.012592,0.030031,-38.68,-11.37,-22.370001000000002,1a
2019-07-12_125915:200,-0.430634,0.054901,-0.082855,-0.020359,-0.010791,0.026918,-38.68,-11.37,-22.370001000000002,1a
2019-07-12_125915:220,-0.396545,0.038635,-0.078796,-0.02161,-0.007587000000000001,0.024049,-39.560001,-11.37,-23.559998999999998,1a
2019-07-12_125915:240,-0.353851,0.028961,-0.053863999999999995,-0.020023,-0.005298,0.024232,-39.560001,-11.37,-23.559998999999998,1a
2019-07-12_125915:260,-0.36706500000000003,0.022858,-0.05285599999999999,-0.018161,-0.005878,0.025697,-39.18,-10.25,-23.18,1a
2019-07-12_125915:280,-0.388428,0.016266,-0.055908000000000006,-0.015781,-0.00539,0.027223,-39.18,-10.25,-23.18,1a
2019-07-12_125915:300,-0.386902,0.012177,-0.044739,-0.012516,-0.003436,0.029481,-39.18,-10.25,-23.18,1a
2019-07-12_125915:320,-0.374695,0.009125,-0.046752999999999996,-0.008762,-0.0025210000000000002,0.030366000000000004,-40.25,-10.25,-21.18,1a
2019-07-12_125915:340,-0.356903,0.013213999999999998,-0.043701,-0.005893,-0.0012699999999999999,0.029602999999999997,-40.25,-10.25,-21.18,1a
2019-07-12_125915:360,-0.396057,0.018799,-0.030487,-0.003116,-0.00072,0.028076999999999998,-39.18,-9.87,-23.18,1a
2019-07-12_125915:380,-0.44027700000000003,0.01828,-0.041168,-0.001529,0.000134,0.026491000000000004,-39.18,-9.87,-23.18,1a
2019-07-12_125915:400,-0.5343319999999999,0.012695,-0.029480000000000003,0.000851,0.0045899999999999995,0.024507,-39.18,-9.87,-23.18,1a
2019-07-12_125915:420,-0.585693,0.004547,-0.035065,0.003628,0.006512,0.021791,-40.25,-9.06,-22.0,1a
2019-07-12_125915:440,-0.5933229999999999,-0.009644,-0.065063,0.007137999999999999,0.005658,0.018953,-40.25,-9.06,-22.0,1a
2019-07-12_125915:460,-0.5348510000000001,-0.019806,-0.051849,0.01141,0.005902,0.019655000000000002,-39.869999,-8.37,-20.370001000000002,1a
2019-07-12_125915:480,-0.794647,-0.047272,0.047791,0.016171,0.005902,0.021791,-39.869999,-8.37,-20.370001000000002,1a
2019-07-12_125915:500,-0.8256530000000001,-0.048279,-0.126068,0.017238999999999997,0.00108,0.023836000000000003,-39.869999,-8.37,-20.370001000000002,1a
2019-07-12_125915:520,-0.625336,-0.099121,-0.075226,0.018368000000000002,0.007886,0.023712999999999998,-40.560001,-7.25,-20.0,1a
2019-07-12_125915:540,-0.42453,-0.116425,-0.099121,0.018917,-0.006458,0.014802000000000001,-40.560001,-7.25,-20.0,1a
2019-07-12_125915:560,-0.257751,-0.153534,-0.127594,0.016049,-0.019885,0.012086,-41.25,-6.56,-20.370001000000002,1a
2019-07-12_125915:580,-0.420959,-0.167755,-0.084381,0.014584,-0.028522000000000002,0.022127,-41.25,-6.56,-20.370001000000002,1a
2019-07-12_125915:600,-0.669067,-0.206909,-0.152008,0.012539,-0.031818,0.030488,-41.25,-6.56,-20.370001000000002,1a
2019-07-12_125915:620,-0.5734859999999999,-0.234375,-0.172333,0.010006000000000001,-0.026599,0.021119,-39.5,-5.37,-20.0,1a
2019-07-12_125915:640,-0.44232200000000005,-0.246063,-0.11386099999999999,0.01141,-0.027851,-0.000487,-39.5,-5.37,-20.0,1a
2019-07-12_125915:660,-0.49926800000000005,-0.227264,-0.139282,0.016568,-0.033893,-0.015013,-39.5,-3.87,-21.559998999999998,1a
2019-07-12_125915:680,-0.508423,-0.20080599999999998,-0.14386,0.021756,-0.031024,-0.0166,-39.5,-3.87,-21.559998999999998,1a
2019-07-12_125915:700,-0.44281000000000004,-0.17690999999999998,-0.117432,0.027676,-0.027239999999999997,-0.016538999999999998,-39.5,-3.87,-21.559998999999998,1a
2019-07-12_125915:720,-0.40316799999999997,-0.128601,-0.108795,0.032193,-0.024402,-0.025511000000000002,-38.68,-4.56,-21.18,1a
2019-07-12_125915:740,-0.361969,-0.095062,-0.105743,0.033839999999999995,-0.01955,-0.036864,-38.68,-4.56,-21.18,1a
2019-07-12_125915:760,-0.326385,-0.05285599999999999,-0.083374,0.034085000000000004,-0.016162,-0.042235,-37.68,-4.18,-23.559998999999998,1a
2019-07-12_125915:780,-0.355377,-0.037108999999999996,-0.078796,0.031979,-0.014513999999999999,-0.041899,-37.68,-4.18,-23.559998999999998,1a
2019-07-12_125915:800,-0.388428,-0.024902,-0.07421900000000001,0.028775,-0.010669,-0.039366000000000005,-37.68,-4.18,-23.559998999999998,1a
2019-07-12_125915:820,-0.39502,-0.019318000000000002,-0.05996699999999999,0.024929,-0.004596,-0.035276999999999996,-36.5,-5.68,-23.559998999999998,1a
2019-07-12_125915:840,-0.391479,-0.017792,-0.053863999999999995,0.021481,0.000989,-0.030608,-36.5,-5.68,-23.559998999999998,1a
2019-07-12_125915:860,-0.38739,-0.020325,-0.055908000000000006,0.018521,0.004651,-0.027677999999999998,-36.869999,-6.75,-23.559998999999998,1a
2019-07-12_125915:880,-0.391479,-0.021332,-0.056915,0.016262000000000002,0.005261,-0.026976,-36.869999,-6.75,-23.559998999999998,1a
2019-07-12_125915:900,-0.42453,-0.017792,-0.054901,0.01434,0.002514,-0.024779,-36.869999,-6.75,-23.559998999999998,1a
2019-07-12_125915:920,-0.508911,-0.010162000000000001,-0.054901,0.012783,-0.0008119999999999999,-0.020475999999999998,-36.18,-7.18,-23.18,1a
2019-07-12_125915:940,-0.5323180000000001,-0.0025329999999999997,-0.07421900000000001,0.008938,-0.001666,-0.014830000000000001,-36.18,-7.18,-23.18,1a
2019-07-12_125915:960,-0.569916,0.001007,-0.043213,0.00372,0.002118,-0.009093,-36.18,-8.25,-22.370001000000002,1a
2019-07-12_125915:980,-0.6146550000000001,0.0035399999999999997,-0.100647,-0.002811,0.001935,-0.0054,-36.18,-8.25,-22.370001000000002,1a
2019-07-12_125916:000,-0.533844,-0.005065999999999999,-0.11538699999999999,-0.008274,0.002575,-0.004607,-36.18,-8.25,-22.370001000000002,1a
2019-07-12_125916:020,-0.7804260000000001,0.002014,0.0,-0.011814,0.002575,-0.005675,-36.560001,-8.0,-22.0,1a
2019-07-12_125916:040,-0.921234,0.025908999999999998,-0.18249500000000002,-0.015995,0.00108,-2.8999999999999997e-05,-36.560001,-8.0,-22.0,1a
2019-07-12_125916:060,-0.576019,-0.007111,-0.12149000000000001,-0.022007,0.004376,0.017671,-36.25,-8.68,-22.0,1a
2019-07-12_125916:080,-0.315216,-0.002014,-0.146912,-0.019046,0.000256,0.022584,-36.25,-8.68,-22.0,1a
2019-07-12_125916:100,-0.244019,0.012177,-0.154541,-0.018955,-0.015247,0.007509,-36.25,-8.68,-22.0,1a
2019-07-12_125916:120,-0.48349,0.038116000000000004,-0.136749,-0.013645,-0.024463,-0.018401,-36.25,-9.37,-20.370001000000002,1a
2019-07-12_125916:140,-0.6583859999999999,0.081848,-0.219635,-0.013797,-0.028186000000000003,-0.030272000000000004,-36.25,-9.37,-20.370001000000002,1a
2019-07-12_125916:160,-0.5541689999999999,0.09963999999999999,-0.17944300000000002,-0.010745999999999999,-0.023609,-0.018004,-34.75,-9.75,-22.0,1a
2019-07-12_125916:180,-0.510437,0.085388,-0.13269,-0.01099,-0.021655,-0.005461,-34.75,-9.75,-22.0,1a
2019-07-12_125916:200,-0.551117,0.078278,-0.127106,-0.011539,-0.017566,0.00229,-34.75,-9.75,-22.0,1a
2019-07-12_125916:220,-0.507904,0.057434000000000006,-0.12048299999999999,-0.0076939999999999995,-0.009937,0.014955000000000001,-34.369999,-9.75,-22.0,1a
2019-07-12_125916:240,-0.425537,0.03302,-0.092529,-0.001407,-0.006336,0.026032999999999997,-34.369999,-9.75,-22.0,1a
2019-07-12_125916:260,-0.396545,0.024902,-0.088959,0.00011899999999999999,-0.008014,0.026155,-34.369999,-9.37,-22.370001000000002,1a
2019-07-12_125916:280,-0.38739,0.015747,-0.08590700000000001,0.004025,-0.011401999999999999,0.026643,-34.369999,-9.37,-22.370001000000002,1a
2019-07-12_125916:300,-0.384857,0.006072999999999999,-0.071686,0.008297,-0.0125,0.030092,-34.369999,-9.37,-22.370001000000002,1a
2019-07-12_125916:320,-0.394531,0.004547,-0.062012,0.010922,-0.011035,0.033388,-33.560001,-9.75,-21.559998999999998,1a
2019-07-12_125916:340,-0.402649,0.0055850000000000006,-0.044219999999999995,0.011654000000000001,-0.006793,0.034730000000000004,-33.560001,-9.75,-21.559998999999998,1a
2019-07-12_125916:360,-0.405212,0.007599,-0.041687,0.010952,-0.0021850000000000003,0.035066,-33.25,-8.25,-21.18,1a
2019-07-12_125916:380,-0.388428,0.013213999999999998,-0.040649,0.009732,0.0018739999999999998,0.033815,-33.25,-8.25,-21.18,1a
2019-07-12_125916:400,-0.377228,0.016753999999999998,-0.036072,0.007077,0.003918,0.030945999999999998,-33.25,-8.25,-21.18,1a
2019-07-12_125916:420,-0.40316799999999997,0.014740000000000001,-0.037108999999999996,0.004483,0.00346,0.028687999999999998,-33.25,-7.18,-22.0,1a
2019-07-12_125916:440,-0.44995100000000005,0.006072999999999999,-0.031494,0.002438,0.003247,0.027437,-33.25,-7.18,-22.0,1a
2019-07-12_125916:460,-0.48858599999999996,0.001495,-0.040161,0.001126,0.004437,0.025758,-33.25,-6.5,-23.18,1a
2019-07-12_125916:480,-0.552643,-0.004547,-0.025421,0.001034,0.0047729999999999995,0.024263,-33.25,-6.5,-23.18,1a
2019-07-12_125916:500,-0.588745,-0.0055850000000000006,-0.06405599999999999,0.001126,0.001996,0.021608000000000002,-33.25,-6.5,-23.18,1a
2019-07-12_125916:520,-0.558746,-0.008636,-0.057953,0.0017670000000000001,0.001263,0.018861000000000003,-33.25,-5.25,-21.559998999999998,1a
2019-07-12_125916:540,-0.52417,-0.021332,-0.05285599999999999,0.0018280000000000002,-0.00014099999999999998,0.015413,-33.25,-5.25,-21.559998999999998,1a
2019-07-12_125916:560,-0.644165,-0.048279,-0.036072,0.001309,-0.004321,0.013612,-32.5,-4.56,-20.370001000000002,1a
2019-07-12_125916:580,-0.762634,-0.051849,-0.20639000000000002,0.001248,-0.006885,0.014802000000000001,-32.5,-4.56,-20.370001000000002,1a
2019-07-12_125916:600,-0.538391,-0.0849,-0.14386,0.000393,-0.011249,0.020845,-32.5,-4.56,-20.370001000000002,1a
2019-07-12_125916:620,-0.491638,-0.104218,-0.09811399999999999,0.004422,-0.0125,0.009523,-32.5,-4.18,-21.18,1a
2019-07-12_125916:640,-0.452484,-0.109802,-0.175903,0.000698,-0.018207,0.003694,-32.5,-4.18,-21.18,1a
2019-07-12_125916:660,-0.35131799999999996,-0.133698,-0.11843900000000002,0.0023769999999999998,-0.009845,0.013826,-32.5,-3.06,-21.559998999999998,1a
2019-07-12_125916:680,-0.5368649999999999,-0.146912,-0.081329,0.002438,-0.005756,0.023988,-32.5,-3.06,-21.559998999999998,1a
2019-07-12_125916:700,-0.551636,-0.169281,-0.190125,-6.500000000000001e-05,-0.0076170000000000005,0.029146,-32.5,-3.06,-21.559998999999998,1a
2019-07-12_125916:720,-0.443329,-0.195221,-0.134705,0.001431,-0.004566,0.029756,-31.75,-3.37,-21.559998999999998,1a
2019-07-12_125916:740,-0.49111899999999997,-0.20285,-0.12912,0.005307,-0.012195000000000001,0.021333,-31.75,-3.37,-21.559998999999998,1a
2019-07-12_125916:760,-0.51297,-0.19775399999999999,-0.147949,0.006558,-0.017230000000000002,0.011781,-31.370001000000002,-2.56,-22.0,1a
2019-07-12_125916:780,-0.433167,-0.178955,-0.116425,0.00787,-0.015094,0.008119,-31.370001000000002,-2.56,-22.0,1a
2019-07-12_125916:800,-0.417389,-0.1586,-0.108795,0.009609999999999999,-0.015155000000000002,0.00345,-31.370001000000002,-2.56,-22.0,1a
2019-07-12_125916:820,-0.380798,-0.11691300000000002,-0.106232,0.009274,-0.014240000000000001,-0.010161,-31.059998999999998,-1.18,-22.0,1a
2019-07-12_125916:840,-0.35638400000000003,-0.08996599999999999,-0.091003,0.008084000000000001,-0.011249,-0.025237,-31.059998999999998,-1.18,-22.0,1a
2019-07-12_125916:860,-0.364532,-0.058441,-0.078278,0.006741,-0.009601,-0.032683,-29.870001000000002,-1.5,-22.370001000000002,1a
2019-07-12_125916:880,-0.375214,-0.050323,-0.075226,0.004757,-0.0076170000000000005,-0.033324,-29.870001000000002,-1.5,-22.370001000000002,1a
2019-07-12_125916:900,-0.382324,-0.042175,-0.063019,0.0028350000000000003,-0.0038640000000000002,-0.030944,-29.870001000000002,-1.5,-22.370001000000002,1a
2019-07-12_125916:920,-0.389954,-0.040161,-0.057434000000000006,0.0014609999999999998,-8e-05,-0.027098,-29.870001000000002,-1.87,-23.18,1a
2019-07-12_125916:940,-0.396057,-0.038635,-0.058960000000000005,0.001065,0.0024530000000000003,-0.023924,-29.870001000000002,-1.87,-23.18,1a
2019-07-12_125916:960,-0.381317,-0.03302,-0.067596,0.0009119999999999999,0.003247,-0.022978,-28.059998999999998,-3.68,-23.559998999999998,1a
2019-07-12_125916:980,-0.397064,-0.027435,-0.062012,0.000454,0.00105,-0.020934,-28.059998999999998,-3.68,-23.559998999999998,1a
2019-07-12_125917:000,-0.489594,-0.026917,-0.049316000000000006,-0.001072,-0.0014529999999999999,-0.015868,-28.059998999999998,-3.68,-23.559998999999998,1a
2019-07-12_125917:020,-0.512482,-0.021851,-0.07775900000000001,-0.004062,-0.0008119999999999999,-0.006652,-29.25,-4.06,-22.75,1a
2019-07-12_125917:040,-0.53891,-0.023375999999999997,-0.035065,-0.006626000000000001,0.003796,0.000978,-29.25,-4.06,-22.75,1a
2019-07-12_125917:060,-0.612122,-0.006592,-0.07421900000000001,-0.011539,0.004834000000000001,0.0005809999999999999,-29.25,-4.5,-23.18,1a
2019-07-12_125917:080,-0.5429689999999999,0.002014,-0.091003,-0.017246,0.004651,0.000368,-29.25,-4.5,-23.18,1a
2019-07-12_125917:100,-0.47280900000000003,0.012695,-0.084381,-0.022434,0.000317,-9e-05,-29.25,-4.5,-23.18,1a
2019-07-12_125917:120,-0.5795899999999999,0.009644,-0.07421900000000001,-0.027744,-0.012317,0.0016489999999999999,-29.68,-4.87,-22.370001000000002,1a
2019-07-12_125917:140,-0.700073,0.024902,-0.21606399999999998,-0.033298,-0.020069,0.011964,-29.68,-4.87,-22.370001000000002,1a
2019-07-12_125917:160,-0.5633239999999999,0.004059,-0.166748,-0.039493,-0.026202999999999997,0.035066,-29.25,-5.56,-21.18,1a
2019-07-12_125917:180,-0.443329,-0.012177,-0.158112,-0.040133999999999996,-0.029224,0.039033,-29.25,-5.56,-21.18,1a
2019-07-12_125917:200,-0.37265,0.0055850000000000006,-0.21759,-0.042942,-0.03609,0.025238999999999998,-29.25,-5.56,-21.18,1a
2019-07-12_125917:220,-0.5572199999999999,0.0055850000000000006,-0.131653,-0.039126999999999995,-0.032489,0.011964,-26.68,-5.56,-22.370001000000002,1a
2019-07-12_125917:240,-0.660431,0.025421,-0.197266,-0.035556,-0.029224,0.004457,-26.68,-5.56,-22.370001000000002,1a
2019-07-12_125917:260,-0.556213,0.027435,-0.17385899999999999,-0.032779,-0.020801,0.0071730000000000006,-27.0,-5.56,-23.559998999999998,1a
2019-07-12_125917:280,-0.49722299999999997,0.025421,-0.149475,-0.027712999999999998,-0.014697,0.006654,-27.0,-5.56,-23.559998999999998,1a
2019-07-12_125917:300,-0.521637,0.024902,-0.17385899999999999,-0.025333,-0.016345,0.004213000000000001,-27.0,-5.56,-23.559998999999998,1a
2019-07-12_125917:320,-0.491638,0.026427999999999997,-0.175903,-0.021549000000000002,-0.015979,0.012636,-26.68,-6.0,-23.18,1a
2019-07-12_125917:340,-0.432648,0.004547,-0.150482,-0.018436,-0.017414,0.028169,-26.68,-6.0,-23.18,1a
2019-07-12_125917:360,-0.42858900000000005,-0.001007,-0.14386,-0.014530000000000001,-0.018756000000000002,0.037935,-24.370001000000002,-7.06,-22.75,1a
2019-07-12_125917:380,-0.407227,-0.002014,-0.12200899999999999,-0.013309,-0.016040000000000002,0.039307999999999996,-24.370001000000002,-7.06,-22.75,1a
2019-07-12_125917:400,-0.389954,-0.0025329999999999997,-0.102173,-0.008884,-0.0060609999999999995,0.047792,-24.370001000000002,-7.06,-22.75,1a
2019-07-12_125917:420,-0.385864,-0.007599,-0.083374,-0.007633,0.001538,0.052644,-25.18,-6.0,-23.18,1a
2019-07-12_125917:440,-0.38739,-0.009125,-0.075226,-0.007937999999999999,0.008709999999999999,0.058107000000000006,-25.18,-6.0,-23.18,1a
2019-07-12_125917:460,-0.369598,-0.017792,-0.069641,-0.008274,0.013744999999999999,0.065278,-25.18,-5.56,-24.75,1a
2019-07-12_125917:480,-0.35943600000000003,-0.028442000000000002,-0.063538,-0.010074,0.014996,0.069703,-25.18,-5.56,-24.75,1a
2019-07-12_125917:500,-0.36349499999999996,-0.047791,-0.066589,-0.013248,0.01286,0.070894,-25.18,-5.56,-24.75,1a
2019-07-12_125917:520,-0.375702,-0.065582,-0.067108,-0.015719999999999998,0.008893,0.070375,-25.5,-3.37,-23.559998999999998,1a
2019-07-12_125917:540,-0.43927,-0.095062,-0.069122,-0.018039,0.00639,0.066255,-25.5,-3.37,-23.559998999999998,1a
2019-07-12_125917:560,-0.502808,-0.137268,-0.039124,-0.019443000000000002,0.007367,0.057557000000000004,-25.870001000000002,-2.56,-24.0,1a
2019-07-12_125917:580,-0.585693,-0.154022,-0.050842,-0.020572,0.008618,0.048128,-25.870001000000002,-2.56,-24.0,1a
2019-07-12_125917:600,-0.613129,-0.170319,-0.091003,-0.020237,0.012158,0.043367,-25.870001000000002,-2.56,-24.0,1a
2019-07-12_125917:620,-0.546539,-0.181488,-0.07928500000000001,-0.017307,0.017804,0.028749,-25.5,-0.37,-23.559998999999998,1a
2019-07-12_125917:640,-0.648224,-0.21453899999999998,-0.029968,-0.014591,0.01878,0.002107,-25.5,-0.37,-23.559998999999998,1a
2019-07-12_125917:660,-0.8276979999999999,-0.154541,-0.130646,-0.015231999999999999,0.011822,-0.00421,-26.370001000000002,-0.25,-22.75,1a
2019-07-12_125917:680,-0.587708,-0.175903,-0.100159,-0.010654,0.014934999999999999,0.018068,-26.370001000000002,-0.25,-22.75,1a
2019-07-12_125917:700,-0.447388,-0.189636,-0.102173,-0.009464,0.001324,0.011231999999999999,-26.370001000000002,-0.25,-22.75,1a
2019-07-12_125917:720,-0.319275,-0.145386,-0.167755,-0.010288,-0.008472,-0.001738,-26.370001000000002,-0.68,-23.18,1a
2019-07-12_125917:740,-0.248596,-0.139801,-0.130127,-0.007145,-0.009998,0.002168,-26.370001000000002,-0.68,-23.18,1a
2019-07-12_125917:760,-0.45196499999999995,-0.158112,-0.115906,-0.00748,-0.015491,0.01587,-26.75,-0.68,-22.75,1a
2019-07-12_125917:780,-0.532806,-0.168274,-0.20285,-0.009739,-0.019031,0.038179000000000005,-26.75,-0.68,-22.75,1a
2019-07-12_125917:800,-0.399597,-0.20639000000000002,-0.160126,-0.011387000000000001,-0.015186000000000002,0.047395,-26.75,-0.68,-22.75,1a
2019-07-12_125917:820,-0.42248500000000005,-0.227753,-0.137756,-0.011997,-0.020893000000000002,0.034212,-25.559998999999998,-0.68,-22.75,1a
2019-07-12_125917:840,-0.449432,-0.223694,-0.210968,-0.015842,-0.025867,0.025361,-25.559998999999998,-0.68,-22.75,1a
2019-07-12_125917:860,-0.42453,-0.227264,-0.197266,-0.018436,-0.025806,0.032533,-25.559998999999998,0.06,-24.370001000000002,1a
2019-07-12_125917:880,-0.42807,-0.23590100000000003,-0.183533,-0.020359,-0.027301,0.032594,-25.559998999999998,0.06,-24.370001000000002,1a
2019-07-12_125917:900,-0.449432,-0.22421300000000002,-0.171326,-0.0228,-0.023212,0.012483,-25.559998999999998,0.06,-24.370001000000002,1a
2019-07-12_125917:920,-0.445374,-0.189636,-0.140808,-0.024021,-0.01369,-0.010588,-25.559998999999998,-0.56,-23.18,1a
2019-07-12_125917:940,-0.437225,-0.164703,-0.12912,-0.024082,-0.00246,-0.022581999999999998,-25.559998999999998,-0.56,-23.18,1a
2019-07-12_125917:960,-0.41586300000000004,-0.137756,-0.11795,-0.025943,0.009289,-0.027037000000000002,-24.059998999999998,-1.0,-24.370001000000002,1a
2019-07-12_125917:980,-0.396057,-0.12200899999999999,-0.104218,-0.028933999999999998,0.018719,-0.028685000000000002,-24.059998999999998,-1.0,-24.370001000000002,1a
2019-07-12_125918:000,-0.375702,-0.105225,-0.101685,-0.031894,0.023358,-0.027433999999999997,-24.059998999999998,-1.0,-24.370001000000002,1a
2019-07-12_125918:020,-0.361481,-0.096588,-0.09963999999999999,-0.034031,0.023906999999999998,-0.025693999999999998,-25.5,-2.37,-24.75,1a
2019-07-12_125918:040,-0.368591,-0.087952,-0.092529,-0.035709,0.021649,-0.02423,-25.5,-2.37,-24.75,1a
2019-07-12_125918:060,-0.36911,-0.081329,-0.09201000000000001,-0.036227999999999996,0.018323,-0.020201,-25.18,-4.25,-24.370001000000002,1a
2019-07-12_125918:080,-0.396057,-0.079803,-0.079803,-0.036227999999999996,0.016064,-0.014159,-25.18,-4.25,-24.370001000000002,1a
2019-07-12_125918:100,-0.41842700000000005,-0.076263,-0.084381,-0.03815,0.014752000000000001,-0.0054,-25.18,-4.25,-24.370001000000002,1a
2019-07-12_125918:120,-0.44995100000000005,-0.078796,-0.068634,-0.040592,0.014874,0.005861,-26.25,-4.68,-23.559998999999998,1a
2019-07-12_125918:140,-0.5867,-0.090485,-0.068634,-0.048251999999999996,0.012402,0.017274,-26.25,-4.68,-23.559998999999998,1a
2019-07-12_125918:160,-0.492126,-0.107269,-0.127594,-0.054477,0.012066,0.031068000000000002,-26.25,-6.18,-22.370001000000002,1a
2019-07-12_125918:180,-0.48553500000000005,-0.130646,-0.05438200000000001,-0.061038999999999996,0.013988999999999998,0.021974,-26.25,-6.18,-22.370001000000002,1a
2019-07-12_125918:200,-0.5480649999999999,-0.131653,-0.103699,-0.068271,0.007092,0.013093,-26.25,-6.18,-22.370001000000002,1a
2019-07-12_125918:220,-0.659424,-0.111847,-0.147949,-0.075443,0.001202,0.023042,-27.75,-6.75,-23.559998999999998,1a
2019-07-12_125918:240,-0.576538,-0.152008,-0.117432,-0.079776,-0.000324,0.037935,-27.75,-6.75,-23.559998999999998,1a
2019-07-12_125918:260,-0.547058,-0.130127,-0.153015,-0.08859600000000001,-0.007984,0.033143,-27.370001000000002,-7.87,-21.559998999999998,1a
2019-07-12_125918:280,-0.46670500000000004,-0.063538,-0.192688,-0.09045800000000001,-0.010669,0.029298,-27.370001000000002,-7.87,-21.559998999999998,1a
2019-07-12_125918:300,-0.401642,-0.035065,-0.164703,-0.087406,-0.013446000000000001,0.005067,-27.370001000000002,-7.87,-21.559998999999998,1a
2019-07-12_125918:320,-0.5109560000000001,0.015228,-0.154541,-0.08627699999999999,-0.017230000000000002,-0.030669,-27.75,-9.0,-21.25,1a
2019-07-12_125918:340,-0.597382,0.072174,-0.183014,-0.087131,-0.01369,-0.02191,-27.75,-9.0,-21.25,1a
2019-07-12_125918:360,-0.530792,0.074738,-0.1698,-0.083744,-0.0015140000000000002,0.02411,-27.370001000000002,-10.5,-20.5,1a
2019-07-12_125918:380,-0.528748,0.044219999999999995,-0.164703,-0.08527,0.004712,0.039369,-27.370001000000002,-10.5,-20.5,1a
2019-07-12_125918:400,-0.538391,0.050323,-0.19165,-0.089847,0.00639,0.031618,-27.370001000000002,-10.5,-20.5,1a
2019-07-12_125918:420,-0.505371,0.048798,-0.18811,-0.090519,0.007031,0.038301,-27.75,-12.0,-19.25,1a
2019-07-12_125918:440,-0.46823100000000006,0.022858,-0.194702,-0.090793,0.003979,0.045808,-27.75,-12.0,-19.25,1a
2019-07-12_125918:460,-0.447388,0.005065999999999999,-0.19165,-0.093448,7.3e-05,0.040223,-28.5,-13.06,-18.5,1a
2019-07-12_125918:480,-0.40774499999999997,-0.006592,-0.1698,-0.091251,-0.002704,0.038331,-28.5,-13.06,-18.5,1a
2019-07-12_125918:500,-0.39859,-0.016753999999999998,-0.165222,-0.08533099999999999,-0.0032530000000000002,0.04236,-28.5,-13.06,-18.5,1a
2019-07-12_125918:520,-0.396057,-0.024902,-0.157593,-0.08057,-0.002643,0.042817,-28.5,-13.87,-16.5,1a
2019-07-12_125918:540,-0.396057,-0.025908999999999998,-0.147949,-0.076297,-0.000995,0.043641,-28.5,-13.87,-16.5,1a
2019-07-12_125918:560,-0.401123,-0.033539,-0.145386,-0.071476,0.000805,0.048951999999999996,-28.870001000000002,-14.56,-15.75,1a
2019-07-12_125918:580,-0.401642,-0.042694,-0.138794,-0.066959,0.0036439999999999997,0.051057,-28.870001000000002,-14.56,-15.75,1a
2019-07-12_125918:600,-0.384857,-0.046752999999999996,-0.12658699999999998,-0.063114,0.007763,0.047425999999999996,-28.870001000000002,-14.56,-15.75,1a
2019-07-12_125918:620,-0.384857,-0.048798,-0.119965,-0.059054999999999996,0.01167,0.043245,-30.0,-14.25,-14.18,1a
2019-07-12_125918:640,-0.393494,-0.05285599999999999,-0.12149000000000001,-0.055545000000000004,0.014996,0.040895,-30.0,-14.25,-14.18,1a
2019-07-12_125918:660,-0.432159,-0.069122,-0.10928299999999999,-0.052004999999999996,0.01701,0.039186,-31.059998999999998,-13.06,-13.37,1a
2019-07-12_125918:680,-0.516541,-0.075226,-0.127594,-0.049381,0.016797,0.04178,-31.059998999999998,-13.06,-13.37,1a
2019-07-12_125918:700,-0.546021,-0.079803,-0.117432,-0.04639,0.020581,0.043886,-31.059998999999998,-13.06,-13.37,1a
2019-07-12_125918:720,-0.5933229999999999,-0.07775900000000001,-0.145386,-0.049227999999999994,0.023114,0.039307999999999996,-31.059998999999998,-13.06,-12.18,1a
2019-07-12_125918:740,-0.580597,-0.076263,-0.159637,-0.053684,0.036358,0.031221,-31.059998999999998,-13.06,-12.18,1a
2019-07-12_125918:760,-0.663483,-0.12454200000000001,-0.153534,-0.062565,0.051251,0.020784,-32.869999,-12.75,-11.0,1a
2019-07-12_125918:780,-0.773804,-0.09149199999999999,-0.270477,-0.072879,0.05415,0.025758,-32.869999,-12.75,-11.0,1a
2019-07-12_125918:800,-0.55365,-0.131165,-0.237427,-0.081302,0.064587,0.037721,-32.869999,-12.75,-11.0,1a
2019-07-12_125918:820,-0.29180900000000004,-0.133698,-0.257751,-0.088138,0.054638,0.019349,-33.25,-13.06,-7.87,1a
2019-07-12_125918:840,-0.165222,-0.087952,-0.21505700000000003,-0.08871799999999999,0.040753,-0.0166,-33.25,-13.06,-7.87,1a
2019-07-12_125918:860,-0.311127,-0.058960000000000005,-0.162689,-0.09231900000000001,0.029919,-0.019744,-34.0,-11.56,-5.06,1a
2019-07-12_125918:880,-0.582123,-0.037108999999999996,-0.21759,-0.095951,0.026226999999999997,0.029146,-34.0,-11.56,-5.06,1a
2019-07-12_125918:900,-0.5058590000000001,-0.064545,-0.226746,-0.098026,0.030987,0.072511,-34.0,-11.56,-5.06,1a
2019-07-12_125918:920,-0.404694,-0.09811399999999999,-0.154022,-0.10763900000000001,0.025006,0.051912,-34.369999,-13.18,-2.75,1a
2019-07-12_125918:940,-0.425537,-0.074738,-0.19574,-0.117923,0.007702,0.019594,-34.369999,-13.18,-2.75,1a
2019-07-12_125918:960,-0.415375,-0.039124,-0.23590100000000003,-0.123172,-0.0060609999999999995,0.026246,-34.369999,-11.68,-0.37,1a
2019-07-12_125918:980,-0.427063,-0.05285599999999999,-0.224701,-0.127628,-0.017108,0.039918,-34.369999,-11.68,-0.37,1a
2019-07-12_125919:000,-0.47079499999999996,-0.033539,-0.23690799999999998,-0.13711900000000002,-0.024311000000000003,0.027681,-34.369999,-11.68,-0.37,1a
2019-07-12_125919:020,-0.48349,-0.006592,-0.226746,-0.144626,-0.022327,0.017946,-34.369999,-10.56,0.0,1a
2019-07-12_125919:040,-0.517548,0.002014,-0.21048000000000003,-0.146793,-0.015368999999999999,0.024659999999999998,-34.369999,-10.56,0.0,1a
2019-07-12_125919:060,-0.529266,-0.006072999999999999,-0.207916,-0.15118800000000002,-0.0045049999999999995,0.030366000000000004,-35.060001,-9.06,1.18,1a
2019-07-12_125919:080,-0.496216,-0.021332,-0.189117,-0.15396500000000002,0.007245000000000001,0.033388,-35.060001,-9.06,1.18,1a
2019-07-12_125919:100,-0.474854,-0.038635,-0.180481,-0.15311,0.015941999999999998,0.036989,-35.060001,-9.06,1.18,1a
2019-07-12_125919:120,-0.465179,-0.057953,-0.17843599999999998,-0.149601,0.020581,0.037599,-34.869999,-8.0,2.06,1a
2019-07-12_125919:140,-0.445374,-0.071686,-0.166229,-0.14474800000000002,0.022442,0.035585000000000006,-34.869999,-8.0,2.06,1a
2019-07-12_125919:160,-0.421967,-0.088959,-0.149475,-0.136905,0.02171,0.033723,-34.5,-6.87,3.18,1a
2019-07-12_125919:180,-0.401123,-0.103699,-0.139801,-0.12723099999999998,0.020184,0.030670999999999997,-34.5,-6.87,3.18,1a
2019-07-12_125919:200,-0.37316900000000003,-0.11386099999999999,-0.128113,-0.116337,0.01817,0.025361,-34.5,-6.87,3.18,1a
2019-07-12_125919:220,-0.346222,-0.117432,-0.130646,-0.104648,0.014141999999999998,0.022859,-35.18,-4.25,6.37,1a
2019-07-12_125919:240,-0.379272,-0.126068,-0.126068,-0.09390599999999999,0.009106,0.023042,-35.18,-4.25,6.37,1a
2019-07-12_125919:260,-0.42248500000000005,-0.126068,-0.128113,-0.08746699999999999,0.00404,0.028016000000000003,-34.869999,-3.5,8.06,1a
2019-07-12_125919:280,-0.394531,-0.113373,-0.163177,-0.081821,0.003857,0.034791,-34.869999,-3.5,8.06,1a
2019-07-12_125919:300,-0.41586300000000004,-0.100159,-0.18096900000000002,-0.083866,0.000653,0.026307,-34.869999,-3.5,8.06,1a
2019-07-12_125919:320,-0.43011499999999997,-0.089478,-0.212006,-0.09119,-0.008472,0.019746,-34.869999,-1.06,7.25,1a
2019-07-12_125919:340,-0.437225,-0.054901,-0.241486,-0.09656100000000001,-0.015491,0.0188,-34.869999,-1.06,7.25,1a
2019-07-12_125919:360,-0.5109560000000001,-0.050323,-0.224701,-0.107761,-0.023059,0.006074,-34.5,-0.25,7.68,1a
2019-07-12_125919:380,-0.5867,0.06253099999999999,-0.381805,-0.12488099999999999,-0.029712,0.013032,-34.5,-0.25,7.68,1a
2019-07-12_125919:400,-0.598907,0.064545,-0.20538299999999998,-0.129215,-0.008258,0.025422,-34.5,-0.25,7.68,1a
2019-07-12_125919:420,-0.62027,0.108795,-0.267914,-0.139774,-0.00307,0.016145,-34.060001,0.37,8.18,1a
2019-07-12_125919:440,-0.574493,0.121002,-0.262329,-0.134708,0.010357,0.012514,-34.060001,0.37,8.18,1a
2019-07-12_125919:460,-0.6350100000000001,0.139282,-0.172333,-0.125431,0.029004000000000002,0.002382,-35.18,2.68,7.37,1a
2019-07-12_125919:480,-0.625336,0.197266,-0.200317,-0.117344,0.038373000000000004,0.002046,-35.18,2.68,7.37,1a
2019-07-12_125919:500,-0.514008,0.21810900000000003,-0.150482,-0.107975,0.049908,0.022859,-35.18,2.68,7.37,1a
2019-07-12_125919:520,-0.47079499999999996,0.226227,-0.154541,-0.10486199999999998,0.049786000000000004,0.042238,-33.68,2.68,8.18,1a
2019-07-12_125919:540,-0.390961,0.223694,-0.140808,-0.10553299999999999,0.044414999999999996,0.058626,-33.68,2.68,8.18,1a
2019-07-12_125919:560,-0.371643,0.21249400000000002,-0.149475,-0.106174,0.033398000000000004,0.076692,-32.560001,4.18,9.75,1a
2019-07-12_125919:580,-0.384338,0.165222,-0.168793,-0.108829,0.017987,0.079011,-32.560001,4.18,9.75,1a
2019-07-12_125919:600,-0.390961,0.155548,-0.171844,-0.11386500000000001,0.002667,0.069124,-32.560001,4.18,9.75,1a
2019-07-12_125919:620,-0.398071,0.12353499999999999,-0.162689,-0.115757,-0.008808,0.063264,-31.870001000000002,7.5,10.06,1a
2019-07-12_125919:640,-0.40063499999999996,0.10928299999999999,-0.161652,-0.11548199999999999,-0.014025999999999999,0.063325,-31.870001000000002,7.5,10.06,1a
2019-07-12_125919:660,-0.396057,0.048279,-0.135742,-0.11249100000000001,-0.011127,0.063356,-32.560001,9.37,9.75,1a
2019-07-12_125919:680,-0.399109,0.033539,-0.130646,-0.107303,-0.0045049999999999995,0.06302,-32.560001,9.37,9.75,1a
2019-07-12_125919:700,-0.388428,-0.010651,-0.119476,-0.099277,0.003735,0.063325,-32.560001,9.37,9.75,1a
2019-07-12_125919:720,-0.382324,-0.01828,-0.11438,-0.090641,0.010205,0.06274500000000001,-31.18,12.68,7.37,1a
2019-07-12_125919:740,-0.381317,-0.029480000000000003,-0.105225,-0.08188200000000001,0.013591999999999998,0.06299,-31.18,12.68,7.37,1a
2019-07-12_125919:760,-0.372162,-0.044219999999999995,-0.10116599999999999,-0.07260499999999999,0.015729,0.062532,-29.68,15.25,6.25,1a
2019-07-12_125919:780,-0.363007,-0.055389,-0.092529,-0.063572,0.017071,0.0571,-29.68,15.25,6.25,1a
2019-07-12_125919:800,-0.394012,-0.069641,-0.0849,-0.055332000000000006,0.016919,0.049684,-29.68,15.25,6.25,1a
2019-07-12_125919:820,-0.425018,-0.077271,-0.100159,-0.051365,0.015941999999999998,0.047882999999999995,-28.870001000000002,16.870001000000002,5.75,1a
2019-07-12_125919:840,-0.501801,-0.103699,-0.087952,-0.036686,0.014874,0.043611000000000004,-28.870001000000002,16.870001000000002,5.75,1a
2019-07-12_125919:860,-0.570435,-0.11843900000000002,-0.103699,-0.031986,0.013684,0.039705000000000004,-28.18,19.870001000000002,6.25,1a
2019-07-12_125919:880,-0.610596,-0.12912,-0.133179,-0.015719999999999998,0.01347,0.02292,-28.18,19.870001000000002,6.25,1a
2019-07-12_125919:900,-0.6583859999999999,-0.144897,-0.113373,-0.007633,0.014203,0.015687,-28.18,19.870001000000002,6.25,1a
2019-07-12_125919:920,-0.749908,-0.133698,-0.23791500000000002,0.000576,0.010541,0.022371000000000002,-27.059998999999998,20.559998999999998,5.5,1a
2019-07-12_125919:940,-0.798218,-0.193695,-0.183533,0.011531999999999999,0.015332,0.016023,-27.059998999999998,20.559998999999998,5.5,1a
2019-07-12_125919:960,-0.640076,-0.171326,-0.284698,0.016444999999999998,0.008374,0.006470999999999999,-26.75,20.559998999999998,5.87,1a
2019-07-12_125919:980,-0.477905,-0.153534,-0.28112800000000004,0.021756,0.0016600000000000002,-0.001952,-26.75,20.559998999999998,5.87,1a
2019-07-12_125920:000,-0.34875500000000004,-0.141846,-0.303528,0.020291,-0.007343000000000001,-0.009825,-26.75,20.559998999999998,5.87,1a
2019-07-12_125920:020,-0.481476,-0.15506,-0.262848,0.018765,-0.00484,-0.016875,-27.059998999999998,19.5,6.68,1a
2019-07-12_125920:040,-0.56839,-0.151001,-0.258759,0.012204000000000001,0.006024,-0.012754999999999999,-27.059998999999998,19.5,6.68,1a
2019-07-12_125920:060,-0.43927,-0.168793,-0.204376,0.012539,0.022351,-0.004607,-27.0,19.5,7.5,1a
2019-07-12_125920:080,-0.420441,-0.176422,-0.1586,0.012081,0.031139999999999998,-0.015227000000000001,-27.0,19.5,7.5,1a
2019-07-12_125920:100,-0.380798,-0.152527,-0.139801,0.014126,0.035962,-0.028838,-27.0,19.5,7.5,1a
2019-07-12_125920:120,-0.365021,-0.126068,-0.09811399999999999,0.019894,0.037701,-0.030364,-27.75,18.75,7.87,1a
2019-07-12_125920:140,-0.369598,-0.104706,-0.054901,0.0238,0.034314,-0.027708999999999998,-27.75,18.75,7.87,1a
2019-07-12_125920:160,-0.387909,-0.091003,-0.047272,0.025325999999999998,0.029613999999999998,-0.027617000000000003,-27.75,17.559998999999998,8.25,1a
2019-07-12_125920:180,-0.389954,-0.078278,-0.027954000000000003,0.025325999999999998,0.026012999999999998,-0.026976,-27.75,17.559998999999998,8.25,1a
2019-07-12_125920:200,-0.39502,-0.07421900000000001,-0.016753999999999998,0.025021,0.021832,-0.026182999999999998,-27.75,17.559998999999998,8.25,1a
2019-07-12_125920:220,-0.40316799999999997,-0.067596,-0.011687999999999999,0.023098,0.017651,-0.028411000000000002,-28.18,16.5,9.06,1a
2019-07-12_125920:240,-0.402161,-0.064545,-0.012177,0.020016,0.012616,-0.031737,-28.18,16.5,9.06,1a
2019-07-12_125920:260,-0.389954,-0.063019,-0.021851,0.017238999999999997,0.004193,-0.031859,-29.25,15.37,10.68,1a
2019-07-12_125920:280,-0.37011700000000003,-0.064545,-0.027954000000000003,0.015774,-0.007281999999999999,-0.031279,-29.25,15.37,10.68,1a
2019-07-12_125920:300,-0.35638400000000003,-0.072174,-0.032532,0.015377000000000002,-0.019336000000000002,-0.032225,-29.25,15.37,10.68,1a
2019-07-12_125920:320,-0.364532,-0.068634,-0.038116000000000004,0.01553,-0.023334,-0.032622000000000005,-29.18,13.87,10.68,1a
2019-07-12_125920:340,-0.40011599999999997,-0.051330999999999995,-0.028961,0.018521,-0.025927999999999996,-0.036009,-29.18,13.87,10.68,1a
2019-07-12_125920:360,-0.49517799999999995,-0.030487,-0.017792,0.018429,-0.023150999999999998,-0.039855,-29.870001000000002,13.5,11.06,1a
2019-07-12_125920:380,-0.52774,0.001495,-0.027435,0.014003999999999999,-0.008594,-0.042906,-29.870001000000002,13.5,11.06,1a
2019-07-12_125920:400,-0.56839,0.017792,-0.001007,0.010403,0.002606,-0.034208999999999996,-29.870001000000002,13.5,11.06,1a
2019-07-12_125920:420,-0.615173,0.040649,-0.045226999999999996,0.004086,0.00755,-0.023711000000000003,-31.059998999999998,11.68,11.87,1a
2019-07-12_125920:440,-0.5770569999999999,0.059479,-0.05438200000000001,-0.001865,0.012676999999999999,-0.015531999999999999,-31.059998999999998,11.68,11.87,1a
2019-07-12_125920:460,-0.826691,0.068634,0.05996699999999999,-0.009128,0.016644,-0.008298999999999999,-30.68,11.06,10.68,1a
2019-07-12_125920:480,-0.758057,0.08843999999999999,-0.148956,-0.019382,0.005627,0.0067150000000000005,-30.68,11.06,10.68,1a
2019-07-12_125920:500,-0.633484,0.065582,-0.011687999999999999,-0.020908000000000003,0.025158,0.020784,-30.68,11.06,10.68,1a
2019-07-12_125920:520,-0.461121,0.078796,-0.068634,-0.021213,0.019452,0.019929,-31.059998999999998,10.56,11.87,1a
2019-07-12_125920:540,-0.330475,0.102173,-0.134216,-0.022037,0.003918,-0.005065,-31.059998999999998,10.56,11.87,1a
2019-07-12_125920:560,-0.410278,0.12200899999999999,-0.107269,-0.019747999999999998,-0.0045049999999999995,-0.015746,-31.370001000000002,10.56,11.87,1a
2019-07-12_125920:580,-0.612122,0.157593,-0.16217,-0.021305,-0.033435,-0.027281,-31.370001000000002,10.56,11.87,1a
2019-07-12_125920:600,-0.508911,0.158112,-0.157074,-0.021274,-0.039661,0.001039,-31.370001000000002,10.56,11.87,1a
2019-07-12_125920:620,-0.48349,0.117432,-0.08743300000000001,-0.019778999999999998,-0.044452,0.025422,-32.060001,9.87,10.18,1a
2019-07-12_125920:640,-0.518066,0.08996599999999999,-0.11795,-0.0181,-0.045032,0.028962,-32.060001,9.87,10.18,1a
2019-07-12_125920:660,-0.462128,0.081848,-0.099121,-0.012668,-0.040729,0.027681,-33.18,10.68,9.87,1a
2019-07-12_125920:680,-0.42858900000000005,0.070648,-0.076263,-0.007601999999999999,-0.040393,0.030610000000000002,-33.18,10.68,9.87,1a
2019-07-12_125920:700,-0.406738,0.050323,-0.082336,-0.005161,-0.037738,0.032625,-33.18,10.68,9.87,1a
2019-07-12_125920:720,-0.384338,0.040649,-0.06405599999999999,-0.004886,-0.033954000000000005,0.03354,-32.75,11.06,7.87,1a
2019-07-12_125920:740,-0.384338,0.033539,-0.042694,-0.00394,-0.020618,0.041566000000000006,-32.75,11.06,7.87,1a
2019-07-12_125920:760,-0.388428,0.026427999999999997,-0.048798,-0.003788,-0.016222999999999998,0.044557,-33.5,12.18,7.87,1a
2019-07-12_125920:780,-0.385864,0.014740000000000001,-0.035065,-0.004947,-0.003314,0.045625,-33.5,12.18,7.87,1a
2019-07-12_125920:800,-0.390961,0.011169,-0.032013,-0.005954,0.0033079999999999997,0.044099,-33.5,12.18,7.87,1a
2019-07-12_125920:820,-0.378754,0.009125,-0.035065,-0.0064730000000000005,0.009442,0.04355,-32.75,13.56,7.87,1a
2019-07-12_125920:840,-0.365021,0.011169,-0.036072,-0.0076939999999999995,0.013012000000000001,0.040986,-32.75,13.56,7.87,1a
2019-07-12_125920:860,-0.415375,0.008636,-0.03302,-0.007755,0.013226,0.040712,-32.369999,14.37,7.5,1a
2019-07-12_125920:880,-0.429108,0.0,-0.063538,-0.003544,0.01048,0.038331,-32.369999,14.37,7.5,1a
2019-07-12_125920:900,-0.537384,-0.037108999999999996,-0.063019,0.0017670000000000001,0.008709999999999999,0.026552,-32.369999,14.37,7.5,1a
2019-07-12_125920:920,-0.629425,-0.058441,-0.082336,0.00549,0.008771,0.018678,-33.18,15.87,7.06,1a
2019-07-12_125920:940,-0.700592,-0.062012,-0.11843900000000002,0.016659,0.035382,-0.00479,-33.18,15.87,7.06,1a
2019-07-12_125920:960,-0.6177060000000001,-0.069641,-0.068634,0.02023,0.044018,-0.011901,-33.18,16.559998999999998,6.37,1a
2019-07-12_125920:980,-0.947693,-0.069641,-0.034546,0.020291,0.050244,-0.029539999999999997,-33.18,16.559998999999998,6.37,1a
2019-07-12_125921:000,-0.7463380000000001,-0.068634,-0.163177,0.019558000000000002,0.057599000000000004,-0.022368,-33.18,16.559998999999998,6.37,1a
2019-07-12_125921:020,-0.512482,-0.077271,-0.06405599999999999,0.018643,0.049237,-0.01892,-32.75,15.75,8.25,1a
2019-07-12_125921:040,-0.420441,-0.09201000000000001,-0.065582,0.006954999999999999,0.024609,-0.010314,-32.75,15.75,8.25,1a
2019-07-12_125921:060,-0.372162,-0.112854,-0.09201000000000001,0.003445,0.01402,-0.004943,-32.75,15.75,8.25,1a
2019-07-12_125921:080,-0.439758,-0.150482,-0.09454299999999999,-0.000156,-0.007862000000000001,0.007965999999999999,-33.18,15.0,12.68,1a
2019-07-12_125921:100,-0.596863,-0.189117,-0.102692,-0.001194,-0.014636000000000001,-0.003081,-33.18,15.0,12.68,1a
2019-07-12_125921:120,-0.55011,-0.193695,-0.115906,-0.0013460000000000002,-0.014513999999999999,-0.009642,-32.75,15.37,11.5,1a
2019-07-12_125921:140,-0.477905,-0.166748,-0.072174,0.003445,-0.015308,-0.013030000000000002,-32.75,15.37,11.5,1a
2019-07-12_125921:160,-0.520111,-0.156067,-0.067596,0.00491,-0.013843000000000001,-0.012114,-33.869999,15.0,11.87,1a
2019-07-12_125921:180,-0.529266,-0.133698,-0.07928500000000001,0.0074730000000000005,-0.003833,-0.016692,-33.869999,15.0,11.87,1a
2019-07-12_125921:200,-0.475861,-0.108795,-0.045226999999999996,0.009670999999999999,0.002972,-0.018736000000000003,-33.869999,15.0,11.87,1a
2019-07-12_125921:220,-0.40774499999999997,-0.074738,-0.029480000000000003,0.009609999999999999,0.006024,-0.01892,-34.25,13.87,12.68,1a
2019-07-12_125921:240,-0.36349499999999996,-0.066071,-0.024384,0.00848,0.011334,-0.019133,-34.25,13.87,12.68,1a
2019-07-12_125921:260,-0.320801,-0.05285599999999999,-0.007111,0.007809,0.01402,-0.020201,-35.369999,12.75,12.68,1a
2019-07-12_125921:280,-0.31369,-0.047791,0.0,0.006497,0.014263999999999999,-0.020597999999999998,-35.369999,12.75,12.68,1a
2019-07-12_125921:300,-0.335541,-0.041687,0.013213999999999998,0.00491,0.014996,-0.020262,-35.369999,12.75,12.68,1a
2019-07-12_125921:320,-0.345215,-0.035583,0.012177,0.004025,0.015332,-0.020079,-35.0,11.68,12.18,1a
2019-07-12_125921:340,-0.338593,-0.037598,0.01828,0.0032310000000000004,0.01347,-0.023589,-35.0,11.68,12.18,1a
2019-07-12_125921:360,-0.355377,-0.033539,0.022369,0.0033840000000000003,0.011822,-0.026701999999999997,-35.0,11.68,12.18,1a
2019-07-12_125921:380,-0.383331,-0.027954000000000003,0.020325,0.003781,0.0062380000000000005,-0.034453,-35.75,11.0,14.18,1a
2019-07-12_125921:400,-0.434174,-0.011687999999999999,0.033539,0.0042380000000000004,0.005047,-0.033934,-35.75,11.0,14.18,1a
2019-07-12_125921:420,-0.510437,0.011687999999999999,0.020325,0.003048,0.003064,-0.027708999999999998,-35.369999,9.06,14.18,1a
2019-07-12_125921:440,-0.5404359999999999,0.023895,0.028961,0.001034,0.004437,-0.01895,-35.369999,9.06,14.18,1a
2019-07-12_125921:460,-0.609589,0.035065,0.037108999999999996,-0.003544,0.004437,-0.014556,-36.18,8.75,14.68,1a
2019-07-12_125921:480,-0.655334,0.037108999999999996,0.022369,-0.008091,0.006024,-0.012816,-36.18,8.75,14.68,1a
2019-07-12_125921:500,-0.621796,0.041687,0.022369,-0.012607,0.010083,-0.007842,-36.18,8.75,14.68,1a
2019-07-12_125921:520,-0.655853,0.06149299999999999,0.058960000000000005,-0.013858,0.009961,-0.005187,-36.869999,7.25,15.0,1a
2019-07-12_125921:540,-0.8571780000000001,0.076752,-0.038116000000000004,-0.024021,0.012005,0.009126,-36.869999,7.25,15.0,1a
2019-07-12_125921:560,-0.629425,0.077271,-0.042175,-0.024997,0.020123,0.014284,-36.869999,7.25,15.0,1a
2019-07-12_125921:580,-0.410278,0.085388,0.016266,-0.027866000000000002,0.008496,0.005464,-36.869999,8.06,15.75,1a
2019-07-12_125921:600,-0.305542,0.087952,-0.039124,-0.028110000000000003,0.003735,-0.004332,-36.869999,8.06,15.75,1a
2019-07-12_125921:620,-0.390961,0.12506099999999998,0.010162000000000001,-0.025669,-0.007739,-0.022734,-36.5,8.06,16.559998999999998,1a
2019-07-12_125921:640,-0.622803,0.14386,0.0025329999999999997,-0.026676,-0.017627,-0.024901,-36.5,8.06,16.559998999999998,1a
2019-07-12_125921:660,-0.6299130000000001,0.163696,-0.051849,-0.025272,-0.014972,-0.011168,-35.75,7.68,17.0,1a
2019-07-12_125921:680,-0.528229,0.160645,0.007111,-0.02341,-0.0125,-0.002989,-35.75,7.68,17.0,1a
2019-07-12_125921:700,-0.531281,0.161652,0.0035399999999999997,-0.023075,-0.017841,-0.0016769999999999999,-35.75,7.68,17.0,1a
2019-07-12_125921:720,-0.519592,0.146912,-0.007599,-0.021091,-0.016895,0.003572,-36.5,7.25,16.559998999999998,1a
2019-07-12_125921:740,-0.46469099999999997,0.12200899999999999,0.010651,-0.018894,-0.016773,0.018281,-36.5,7.25,16.559998999999998,1a
2019-07-12_125921:760,-0.399109,0.086914,0.0025329999999999997,-0.018711000000000002,-0.021075999999999998,0.030763,-36.5,7.25,16.559998999999998,1a
2019-07-12_125921:780,-0.36654699999999996,0.063019,0.007599,-0.017429,-0.024524,0.039644,-37.25,7.68,15.25,1a
2019-07-12_125921:800,-0.34063699999999997,0.038116000000000004,0.014740000000000001,-0.014713,-0.026660000000000003,0.042238,-37.25,7.68,15.25,1a
2019-07-12_125921:820,-0.353333,0.032532,0.021332,-0.012394,-0.026264,0.03943,-38.25,9.56,13.75,1a
2019-07-12_125921:840,-0.38028,0.030487,0.026917,-0.010471,-0.022266,0.037263,-38.25,9.56,13.75,1a
2019-07-12_125921:860,-0.390442,0.026917,0.029480000000000003,-0.008334999999999999,-0.015888,0.038057,-38.25,9.56,13.75,1a
2019-07-12_125921:880,-0.392487,0.022858,0.034546,-0.007358,-0.008716,0.037507,-38.0,10.68,13.75,1a
2019-07-12_125921:900,-0.38385,0.023895,0.036591000000000005,-0.007023000000000001,-0.0023989999999999997,0.034212,-38.0,10.68,13.75,1a
2019-07-12_125921:920,-0.36654699999999996,0.017273,0.041687,-0.006412,0.001202,0.030763,-38.0,12.18,13.25,1a
2019-07-12_125921:940,-0.449432,0.013213999999999998,0.064545,-0.004459,0.004376,0.026430000000000002,-38.0,12.18,13.25,1a
2019-07-12_125921:960,-0.521637,0.014221000000000001,0.057953,-0.003055,0.007916,0.024507,-38.0,12.18,13.25,1a
2019-07-12_125921:980,-0.5572199999999999,0.016266,0.081329,5.7999999999999994e-05,0.01228,0.027315,-38.0,11.75,13.0,1a
2019-07-12_125922:000,-0.646698,0.008636,0.082336,0.00256,0.013591999999999998,0.030885000000000003,-38.0,11.75,13.0,1a
2019-07-12_125922:020,-0.610107,0.0,0.061005,0.004483,0.014537999999999999,0.03354,-37.68,13.18,13.75,1a
2019-07-12_125922:040,-0.685852,-0.051330999999999995,0.130127,0.009426,0.015851,0.029817000000000003,-37.68,13.18,13.75,1a
2019-07-12_125922:060,-0.933441,-0.057434000000000006,0.088959,0.015927,0.016125,0.017884999999999998,-37.68,13.18,13.75,1a
2019-07-12_125922:080,-0.684326,-0.081329,0.012177,0.020687,0.01817,0.01468,-36.869999,14.37,14.06,1a
2019-07-12_125922:100,-0.498749,-0.098633,0.044219999999999995,0.030331,0.017315,0.010316,-36.869999,14.37,14.06,1a
2019-07-12_125922:120,-0.358429,-0.126068,-0.041687,0.033839999999999995,-8e-05,0.008729,-36.869999,14.37,15.25,1a
2019-07-12_125922:140,-0.347229,-0.137268,-0.039642000000000004,0.039486,-0.012531,0.01349,-36.869999,14.37,15.25,1a
2019-07-12_125922:160,-0.666534,-0.13623,0.008636,0.040524,-0.015949,0.018953,-36.869999,14.37,15.25,1a
2019-07-12_125922:180,-0.685333,-0.141846,-0.05285599999999999,0.036618,-0.011585,0.020723,-36.869999,13.18,15.0,1a
2019-07-12_125922:200,-0.517059,-0.138794,0.002014,0.035092,-0.001941,0.009309,-36.869999,13.18,15.0,1a
2019-07-12_125922:220,-0.497742,-0.116425,0.012177,0.032314999999999997,-0.0030399999999999997,-0.010435999999999999,-36.75,12.87,17.0,1a
2019-07-12_125922:240,-0.52417,-0.082336,0.0055850000000000006,0.027188,-0.004961999999999999,-0.019530000000000002,-36.75,12.87,17.0,1a
2019-07-12_125922:260,-0.45907600000000004,-0.075226,0.012695,0.023098,-0.005634,-0.011901,-36.75,12.87,17.0,1a
2019-07-12_125922:280,-0.37011700000000003,-0.072693,0.022858,0.02084,-0.008533,-0.008452,-36.75,12.87,16.559998999999998,1a
2019-07-12_125922:300,-0.340118,-0.063019,0.023895,0.016781,-0.012103000000000001,-0.018614,-36.75,12.87,16.559998999999998,1a
2019-07-12_125922:320,-0.329437,-0.03302,0.035583,0.013607,-0.012775,-0.028105,-37.560001,10.68,17.75,1a
2019-07-12_125922:340,-0.341125,-0.018799,0.046752999999999996,0.011319,-0.010517,-0.028624,-37.560001,10.68,17.75,1a
2019-07-12_125922:360,-0.367584,-0.009125,0.05438200000000001,0.008357999999999999,-0.006793,-0.025847000000000002,-37.560001,10.68,17.75,1a
2019-07-12_125922:380,-0.377228,-0.006072999999999999,0.057953,0.005154,-0.0014529999999999999,-0.023589,-37.18,9.56,17.25,1a
2019-07-12_125922:400,-0.385376,-0.007599,0.070648,0.0023769999999999998,0.003247,-0.019255,-37.18,9.56,17.25,1a
2019-07-12_125922:420,-0.385376,-0.008118,0.073212,0.000302,0.006756,-0.013212999999999999,-39.0,8.37,16.059998999999998,1a
2019-07-12_125922:440,-0.372162,-0.014221000000000001,0.071686,-0.001407,0.007702,-0.009459,-39.0,8.37,16.059998999999998,1a
2019-07-12_125922:460,-0.39502,-0.012177,0.080322,-0.0022010000000000003,0.005383,-0.008237999999999999,-39.0,8.37,16.059998999999998,1a
2019-07-12_125922:480,-0.5109560000000001,0.0,0.085388,-0.003055,0.0024530000000000003,-0.0070480000000000004,-38.560001,7.25,19.75,1a
2019-07-12_125922:500,-0.521637,0.009644,0.075226,-0.0052829999999999995,-0.001178,-0.004058,-38.560001,7.25,19.75,1a
2019-07-12_125922:520,-0.614166,0.022369,0.10928299999999999,-0.008732,-0.002857,-0.001067,-38.560001,6.18,17.75,1a
2019-07-12_125922:540,-0.634491,0.026917,0.07775900000000001,-0.013004,-0.006,3.2e-05,-38.560001,6.18,17.75,1a
2019-07-12_125922:560,-0.555176,0.036591000000000005,0.061005,-0.017032,-0.005878,-2.8999999999999997e-05,-38.560001,6.18,17.75,1a
2019-07-12_125922:580,-0.563812,0.05438200000000001,0.080322,-0.020084,-0.009601,0.002778,-38.18,6.18,17.25,1a
2019-07-12_125922:600,-0.8714290000000001,0.075745,0.026427999999999997,-0.024875,-0.00954,0.008790000000000001,-38.18,6.18,17.25,1a
2019-07-12_125922:620,-0.346222,0.06405599999999999,0.009644,-0.034244,-0.0032530000000000002,0.037935,-38.560001,6.18,18.059998999999998,1a
2019-07-12_125922:640,-0.346222,0.06405599999999999,0.009644,-0.033512,-0.009448,0.037935,-38.560001,6.18,18.059998999999998,1a
2019-07-12_125922:660,-0.26944,0.054901,-0.013213999999999998,-0.032322000000000004,-0.015643999999999998,0.031282,-38.560001,6.18,18.059998999999998,1a
2019-07-12_125922:680,-0.6238100000000001,0.058441,0.028961,-0.028141000000000003,-0.024249,0.002565,-37.560001,6.18,17.0,1a
2019-07-12_125922:700,-0.76413,0.096069,-0.027954000000000003,-0.028324000000000002,-0.021075999999999998,-0.017606999999999998,-37.560001,6.18,17.0,1a
2019-07-12_125922:720,-0.557739,0.11080899999999999,0.001007,-0.026188,-0.011188,-0.006774,-39.0,8.06,17.75,1a
2019-07-12_125922:740,-0.5048520000000001,0.097595,0.034058,-0.02396,-0.009876000000000001,0.004732,-39.0,8.06,17.75,1a
2019-07-12_125922:760,-0.564331,0.096069,-0.002014,-0.025089,-0.013965,0.004671,-39.0,8.06,17.75,1a
2019-07-12_125922:780,-0.517059,0.098633,-0.001007,-0.023075,-0.013568,0.011781,-38.18,8.06,15.75,1a
2019-07-12_125922:800,-0.43011499999999997,0.075745,0.015747,-0.023136,-0.018756000000000002,0.021333,-38.18,8.06,15.75,1a
2019-07-12_125922:820,-0.402161,0.058441,0.012177,-0.025669,-0.026507999999999997,0.024232,-39.369999,7.68,16.559998999999998,1a
2019-07-12_125922:840,-0.355896,0.039124,0.013702,-0.027073000000000003,-0.030841000000000004,0.02762,-39.369999,7.68,16.559998999999998,1a
2019-07-12_125922:860,-0.341125,0.027954000000000003,0.026917,-0.026583999999999997,-0.032489,0.031556,-39.369999,7.68,16.559998999999998,1a
2019-07-12_125922:880,-0.354858,0.016266,0.030487,-0.026614999999999996,-0.032428,0.031465,-39.0,8.75,14.06,1a
2019-07-12_125922:900,-0.371643,0.009644,0.035065,-0.027317,-0.029437,0.031282,-39.0,8.75,14.06,1a
2019-07-12_125922:920,-0.375702,0.0,0.040161,-0.026676,-0.024524,0.03412,-39.369999,9.87,12.56,1a
2019-07-12_125922:940,-0.368591,-0.008118,0.040649,-0.025943,-0.021137,0.035341000000000004,-39.369999,9.87,12.56,1a
2019-07-12_125922:960,-0.3508,-0.015747,0.035065,-0.024753,-0.019428,0.032257999999999995,-39.369999,9.87,12.56,1a
2019-07-12_125922:980,-0.384857,-0.019318000000000002,0.045226999999999996,-0.022494999999999998,-0.019428,0.026979000000000003,-39.75,11.37,13.37,1a
2019-07-12_125923:000,-0.46875,-0.020844,0.035065,-0.020694,-0.017566,0.022706,-39.75,11.37,13.37,1a
2019-07-12_125923:020,-0.509918,-0.027954000000000003,0.047272,-0.018313999999999997,-0.013721,0.021791,-39.68,12.18,12.06,1a
2019-07-12_125923:040,-0.613647,-0.035065,0.057434000000000006,-0.015567,-0.009509,0.020051,-39.68,12.18,12.06,1a
2019-07-12_125923:060,-0.645691,-0.037598,0.027954000000000003,-0.013797,-0.007343000000000001,0.018068,-39.68,12.18,12.06,1a
2019-07-12_125923:080,-0.582642,-0.049805,0.019318000000000002,-0.010685,-0.004657,0.016359000000000002,-40.869999,12.87,11.75,1a
2019-07-12_125923:100,-0.584167,-0.068634,0.035583,-0.0067480000000000005,-0.006397,0.011751000000000001,-40.869999,12.87,11.75,1a
2019-07-12_125923:120,-0.984283,-0.0737,0.012177,-0.001194,-0.003589,0.003175,-40.5,13.18,12.56,1a
2019-07-12_125923:140,-0.700592,-0.09149199999999999,-0.111328,-0.000736,-0.006092,0.0037549999999999997,-40.5,13.18,12.56,1a
2019-07-12_125923:160,-0.449432,-0.12301600000000001,-0.010651,0.008419,-0.004718,0.000184,-40.5,13.18,12.56,1a
2019-07-12_125923:180,-0.399109,-0.128601,-0.09963999999999999,0.009793000000000001,-0.025927999999999996,-0.002684,-40.869999,13.18,12.56,1a
2019-07-12_125923:200,-0.318756,-0.141846,-0.12912,0.014247999999999999,-0.03606,0.008577,-40.869999,13.18,12.56,1a
2019-07-12_125923:220,-0.489075,-0.155548,-0.055389,0.017575,-0.035541,0.021974,-41.5,13.18,13.0,1a
2019-07-12_125923:240,-0.6451720000000001,-0.17538499999999999,-0.13269,0.01553,-0.029376,0.025422,-41.5,13.18,13.0,1a
2019-07-12_125923:260,-0.5505979999999999,-0.185547,-0.12149000000000001,0.016995,-0.017749,0.021272,-41.5,13.18,13.0,1a
2019-07-12_125923:280,-0.489075,-0.166229,-0.08590700000000001,0.021939,-0.016712,0.0039689999999999994,-40.75,12.75,11.75,1a
2019-07-12_125923:300,-0.528748,-0.131165,-0.09353600000000001,0.021969,-0.01955,-0.015288,-40.75,12.75,11.75,1a
2019-07-12_125923:320,-0.463654,-0.08996599999999999,-0.076263,0.019894,-0.018359999999999998,-0.018553,-41.060001,11.68,11.75,1a
2019-07-12_125923:340,-0.420441,-0.076263,-0.052338,0.017514,-0.017414,-0.012297,-41.060001,11.68,11.75,1a
2019-07-12_125923:360,-0.392487,-0.057434000000000006,-0.040161,0.012051000000000001,-0.016834000000000002,-0.015135,-41.060001,11.68,11.75,1a
2019-07-12_125923:380,-0.374176,-0.043213,-0.026917,0.005307,-0.013111000000000001,-0.024169,-41.060001,11.25,11.5,1a
2019-07-12_125923:400,-0.364532,-0.027435,-0.007599,0.000241,-0.008655,-0.028227,-41.060001,11.25,11.5,1a
2019-07-12_125923:420,-0.373688,-0.024384,-0.001007,-0.0036659999999999996,-0.004961999999999999,-0.027159,-43.0,10.18,11.06,1a
2019-07-12_125923:440,-0.381317,-0.029480000000000003,0.005065999999999999,-0.007267,-0.001209,-0.026549,-43.0,10.18,11.06,1a
2019-07-12_125923:460,-0.378265,-0.032532,0.007111,-0.009067,0.001202,-0.025511000000000002,-43.0,10.18,11.06,1a
2019-07-12_125923:480,-0.408752,-0.035583,0.007599,-0.008609,0.0020570000000000002,-0.023711000000000003,-42.869999,8.25,11.87,1a
2019-07-12_125923:500,-0.40976,-0.030487,0.001007,-0.007418999999999999,0.00227,-0.022581999999999998,-42.869999,8.25,11.87,1a
2019-07-12_125923:520,-0.414337,-0.026427999999999997,0.002014,-0.005222,0.000805,-0.022124,-43.25,7.56,11.87,1a
2019-07-12_125923:540,-0.476379,-0.014221000000000001,0.004059,-0.003483,-0.00185,-0.021269,-43.25,7.56,11.87,1a
2019-07-12_125923:560,-0.5185850000000001,-0.0030210000000000002,-0.001007,-0.002933,-0.003589,-0.018522999999999998,-43.25,7.56,11.87,1a
2019-07-12_125923:580,-0.607544,0.009125,0.015747,-0.004062,-0.002643,-0.012969,-44.0,6.56,13.37,1a
2019-07-12_125923:600,-0.629425,0.020844,-0.014740000000000001,-0.006229,-0.001911,-0.008574,-44.0,6.56,13.37,1a
2019-07-12_125923:620,-0.588745,0.022858,-0.013702,-0.009281000000000001,-0.002735,-0.008116,-44.0,5.06,11.87,1a
2019-07-12_125923:640,-0.747375,0.032013,0.035065,-0.011814,-0.004169,-0.012114,-44.0,5.06,11.87,1a
2019-07-12_125923:660,-0.683319,0.051849,-0.097595,-0.016117,-0.006548999999999999,-0.007567,-44.0,5.06,11.87,1a
2019-07-12_125923:680,-0.662445,0.051849,-0.011687999999999999,-0.017978,-0.0025210000000000002,0.006929,-43.25,3.18,11.87,1a
2019-07-12_125923:700,-0.46875,0.074738,-0.087952,-0.018619,-0.007984,0.010103000000000001,-43.25,3.18,11.87,1a
2019-07-12_125923:720,-0.306061,0.097107,-0.127106,-0.017978,-0.016559,-0.00067,-44.060001,3.56,11.87,1a
2019-07-12_125923:740,-0.448425,0.121002,-0.074738,-0.013645,-0.031421,-0.019316,-44.060001,3.56,11.87,1a
2019-07-12_125923:760,-0.69043,0.150482,-0.112854,-0.012607,-0.039844,-0.036254,-44.060001,3.56,11.87,1a
2019-07-12_125923:780,-0.567383,0.182007,-0.133698,-0.015995,-0.033557,-0.025359,-44.869999,3.56,11.87,1a
2019-07-12_125923:800,-0.47079499999999996,0.161163,-0.08843999999999999,-0.014315999999999999,-0.02254,0.004915,-44.869999,3.56,11.87,1a
2019-07-12_125923:820,-0.525177,0.13623,-0.109802,-0.018375,-0.020404,0.017549000000000002,-45.25,2.87,10.18,1a
2019-07-12_125923:840,-0.539429,0.134216,-0.107269,-0.020694,-0.014972,0.018587,-45.25,2.87,10.18,1a
2019-07-12_125923:860,-0.447388,0.109802,-0.083862,-0.022281,-0.011127,0.023591,-45.25,2.87,10.18,1a
2019-07-12_125923:880,-0.43011499999999997,0.088959,-0.070648,-0.024418000000000002,-0.011706999999999999,0.024568,-45.560001,2.06,11.87,1a
2019-07-12_125923:900,-0.391968,0.064545,-0.066589,-0.028537,-0.012714,0.021394,-45.560001,2.06,11.87,1a
2019-07-12_125923:920,-0.361969,0.051849,-0.047272,-0.029972000000000002,-0.011188,0.024843,-46.0,4.37,10.18,1a
2019-07-12_125923:940,-0.37011700000000003,0.025908999999999998,-0.036591000000000005,-0.029789,-0.010517,0.032289,-46.0,4.37,10.18,1a
2019-07-12_125923:960,-0.378265,0.017273,-0.036591000000000005,-0.030032999999999997,-0.009937,0.035249,-46.0,4.37,10.18,1a
2019-07-12_125923:980,-0.367584,-0.0055850000000000006,-0.024902,-0.029117,-0.008411,0.033937,-45.560001,5.06,9.5,1a
2019-07-12_125924:000,-0.389954,-0.022858,-0.022369,-0.02515,-0.008197,0.030945999999999998,-45.560001,5.06,9.5,1a
2019-07-12_125924:020,-0.41333000000000003,-0.041687,-0.030487,-0.019443000000000002,-0.008472,0.024049,-46.25,6.87,10.68,1a
2019-07-12_125924:040,-0.389435,-0.045226999999999996,-0.027954000000000003,-0.011875,-0.007923000000000001,0.014558000000000001,-46.25,6.87,10.68,1a
2019-07-12_125924:060,-0.441803,-0.031494,-0.015228,-0.003116,-0.00838,0.005006,-46.25,6.87,10.68,1a
2019-07-12_125924:080,-0.498749,-0.011169,-0.021851,0.004086,-0.007739,-0.002989,-46.0,6.18,11.5,1a
2019-07-12_125924:100,-0.558228,0.016266,-0.011169,0.009091,-0.002124,-0.005582999999999999,-46.0,6.18,11.5,1a
2019-07-12_125924:120,-0.604492,0.026917,-0.007599,0.012722,0.003796,-0.00479,-46.0,7.25,9.5,1a
2019-07-12_125924:140,-0.574005,0.045745999999999995,-0.040161,0.013913,0.007306,-0.005736,-46.0,7.25,9.5,1a
2019-07-12_125924:160,-0.5185850000000001,0.049316000000000006,-0.023895,0.013119,0.009503,-0.0051259999999999995,-46.0,7.25,9.5,1a
2019-07-12_125924:180,-0.895813,0.033539,0.009644,0.012478,0.010541,-0.003539,-45.5,6.56,10.68,1a
2019-07-12_125924:200,-0.790588,0.022369,-0.109802,0.010128,0.007367,-0.002989,-45.5,6.56,10.68,1a
2019-07-12_125924:220,-0.552124,-0.014740000000000001,-0.073212,0.010159,0.011212,-0.0034170000000000003,-46.18,5.06,11.06,1a
2019-07-12_125924:240,-0.43774399999999997,-0.039124,-0.100159,0.012326,-0.00365,-0.004515,-46.18,5.06,11.06,1a
2019-07-12_125924:260,-0.29180900000000004,-0.05996699999999999,-0.128601,0.014126,-0.016284,-0.0009449999999999999,-46.18,5.06,11.06,1a
2019-07-12_125924:280,-0.410278,-0.080322,-0.096588,0.012204000000000001,-0.021808,0.012971000000000002,-46.18,5.06,10.68,1a
2019-07-12_125924:300,-0.6426390000000001,-0.12506099999999998,-0.134705,0.011807,-0.021259,0.032197,-46.18,5.06,10.68,1a
2019-07-12_125924:320,-0.561279,-0.14386,-0.154541,0.016507,-0.009998,0.030610000000000002,-46.18,5.06,11.5,1a
2019-07-12_125924:340,-0.45196499999999995,-0.128601,-0.118958,0.018887,-0.00954,0.019929,-46.18,5.06,11.5,1a
2019-07-12_125924:360,-0.52774,-0.099121,-0.135742,0.024472,-0.014513999999999999,-0.001464,-46.18,5.06,11.5,1a
2019-07-12_125924:380,-0.5246890000000001,-0.069122,-0.14743,0.024807,-0.015949,-0.010435999999999999,-45.5,6.18,11.5,1a
2019-07-12_125924:400,-0.47842399999999996,-0.072174,-0.12912,0.022824,-0.016834000000000002,-0.005339,-45.5,6.18,11.5,1a
2019-07-12_125924:420,-0.467743,-0.078796,-0.131653,0.018704,-0.018146000000000002,0.000398,-45.869999,5.75,11.06,1a
2019-07-12_125924:440,-0.441284,-0.079803,-0.12558,0.016323,-0.012927000000000001,-0.006529000000000001,-45.869999,5.75,11.06,1a
2019-07-12_125924:460,-0.409271,-0.068115,-0.10116599999999999,0.015194,-0.007281999999999999,-0.014433000000000001,-45.869999,5.75,11.06,1a
2019-07-12_125924:480,-0.398071,-0.059479,-0.09301799999999999,0.014736,-0.003986,-0.019408,-46.18,4.68,10.68,1a
2019-07-12_125924:500,-0.40570100000000003,-0.05438200000000001,-0.07928500000000001,0.014797999999999999,-0.001605,-0.022795,-46.18,4.68,10.68,1a
2019-07-12_125924:520,-0.408752,-0.05285599999999999,-0.07421900000000001,0.015194,0.000134,-0.024443,-47.369999,4.0,9.06,1a
2019-07-12_125924:540,-0.40316799999999997,-0.072174,-0.063019,0.016842,0.00227,-0.02365,-47.369999,4.0,9.06,1a
2019-07-12_125924:560,-0.38739,-0.09454299999999999,-0.056915,0.022488,0.004895,-0.02014,-47.369999,4.0,9.06,1a
2019-07-12_125924:580,-0.378754,-0.130646,-0.055389,0.035153,0.007702,-0.017272,-47.0,3.56,10.18,1a
2019-07-12_125924:600,-0.389954,-0.144379,-0.047791,0.053890999999999994,0.011944,-0.021178,-47.0,3.56,10.18,1a
2019-07-12_125924:620,-0.44433599999999995,-0.135223,-0.056915,0.072995,0.013866999999999999,-0.02835,-46.560001,1.37,11.06,1a
2019-07-12_125924:640,-0.45401,-0.11691300000000002,-0.068634,0.091,0.012676999999999999,-0.029967,-46.560001,1.37,11.06,1a
2019-07-12_125924:660,-0.48196400000000006,-0.082336,-0.057953,0.105526,0.009289,-0.029752999999999998,-46.560001,1.37,11.06,1a
2019-07-12_125924:680,-0.530273,-0.067108,-0.064545,0.113278,0.004497999999999999,-0.031859,-47.369999,-1.25,11.5,1a
2019-07-12_125924:700,-0.536377,-0.048279,-0.088959,0.11987,0.00105,-0.033599000000000004,-47.369999,-1.25,11.5,1a
2019-07-12_125924:720,-0.492645,-0.038116000000000004,-0.096588,0.12582000000000002,-0.00014099999999999998,-0.035124,-46.560001,-3.75,12.68,1a
2019-07-12_125924:740,-0.49517799999999995,-0.012177,-0.083862,0.127102,-8e-05,-0.039702,-46.560001,-3.75,12.68,1a
2019-07-12_125924:760,-0.506378,0.0,-0.101685,0.12411099999999999,-0.0015140000000000002,-0.043028,-46.560001,-3.75,12.68,1a
2019-07-12_125924:780,-0.7036439999999999,0.011169,-0.095581,0.124386,-0.002979,-0.041686,-46.18,-7.87,11.5,1a
2019-07-12_125924:800,-0.580597,-0.004059,-0.18454,0.12225,-0.010456,-0.043364,-46.18,-7.87,11.5,1a
2019-07-12_125924:820,-0.438751,-0.009644,-0.171844,0.125027,-0.010456,-0.041716,-46.0,-11.25,9.06,1a
2019-07-12_125924:840,-0.201843,-0.03302,-0.21859699999999999,0.12395899999999999,-0.008594,-0.037261,-46.0,-11.25,9.06,1a
2019-07-12_125924:860,-0.599426,-0.019806,-0.108795,0.13711199999999998,0.00285,-0.0455,-46.0,-11.25,9.06,1a
2019-07-12_125924:880,-0.618225,-0.021851,-0.29895,0.13659300000000002,0.004101,-0.08529500000000001,-46.25,-14.25,8.37,1a
2019-07-12_125924:900,-0.544495,0.015228,-0.24758899999999998,0.149929,0.009625,-0.096984,-46.25,-14.25,8.37,1a
2019-07-12_125924:920,-0.57196,0.048798,-0.25116,0.1665,0.00404,-0.069396,-45.560001,-17.870001000000002,6.75,1a
2019-07-12_125924:940,-0.586182,0.036072,-0.29486100000000004,0.18093499999999998,0.008893,-0.052976999999999996,-45.560001,-17.870001000000002,6.75,1a
2019-07-12_125924:960,-0.5979,0.065063,-0.280121,0.191281,0.018506,-0.051604,-45.560001,-17.870001000000002,6.75,1a
2019-07-12_125924:980,-0.593811,0.076752,-0.263855,0.195645,0.025006,-0.030425,-44.060001,-23.059998999999998,4.5,1a
2019-07-12_125925:000,-0.5658569999999999,0.046752999999999996,-0.237427,0.202236,0.032605,0.002229,-44.060001,-23.059998999999998,4.5,1a
2019-07-12_125925:020,-0.516541,-0.007111,-0.20944200000000002,0.205868,0.040478,0.00937,-42.25,-25.0,0.06,1a
2019-07-12_125925:040,-0.488068,-0.014740000000000001,-0.192688,0.20727199999999998,0.049328,-0.004850999999999999,-42.25,-25.0,0.06,1a
2019-07-12_125925:060,-0.447906,-0.000488,-0.157593,0.207608,0.056622000000000006,-0.016936,-42.25,-25.0,0.06,1a
2019-07-12_125925:080,-0.42758199999999996,0.008118,-0.137756,0.20596,0.05854500000000001,-0.021391999999999998,-42.560001,-25.370001000000002,-3.75,1a
2019-07-12_125925:100,-0.404694,0.013702,-0.117432,0.203152,0.055432,-0.02484,-42.560001,-25.370001000000002,-3.75,1a
2019-07-12_125925:120,-0.386902,0.022369,-0.12149000000000001,0.20089400000000002,0.048047,-0.027953,-41.869999,-24.68,-4.5,1a
2019-07-12_125925:140,-0.374695,0.036072,-0.111847,0.20031400000000002,0.039105,-0.026549,-41.869999,-24.68,-4.5,1a
2019-07-12_125925:160,-0.385864,0.038635,-0.10775799999999999,0.198849,0.031139999999999998,-0.024169,-41.869999,-24.68,-4.5,1a
2019-07-12_125925:180,-0.41333000000000003,0.053863999999999995,-0.106232,0.197171,0.027264,-0.025693999999999998,-42.560001,-24.370001000000002,-7.68,1a
2019-07-12_125925:200,-0.435699,0.073212,-0.09301799999999999,0.194271,0.026683999999999996,-0.026763,-42.560001,-24.370001000000002,-7.68,1a
2019-07-12_125925:220,-0.47842399999999996,0.106232,-0.097595,0.189999,0.025616000000000003,-0.025115000000000002,-42.25,-24.370001000000002,-10.56,1a
2019-07-12_125925:240,-0.47689799999999993,0.144897,-0.09353600000000001,0.18316300000000002,0.026012999999999998,-0.022185,-42.25,-24.370001000000002,-10.56,1a
2019-07-12_125925:260,-0.432648,0.176422,-0.095581,0.170101,0.025372,-0.017606999999999998,-42.25,-24.370001000000002,-10.56,1a
2019-07-12_125925:280,-0.385864,0.212006,-0.086426,0.153042,0.021649,-0.008727,-41.5,-23.18,-13.0,1a
2019-07-12_125925:300,-0.402649,0.219635,-0.103699,0.13460999999999998,0.013988999999999998,-0.000609,-41.5,-23.18,-13.0,1a
2019-07-12_125925:320,-0.42605600000000005,0.22421300000000002,-0.089478,0.11654300000000001,0.006695,0.0034189999999999997,-41.5,-21.0,-15.75,1a
2019-07-12_125925:340,-0.44384799999999996,0.216583,-0.076752,0.09814099999999999,0.000592,0.008638,-41.5,-21.0,-15.75,1a
2019-07-12_125925:360,-0.46417200000000003,0.18249500000000002,-0.075745,0.08254700000000001,-0.004718,0.019472,-41.5,-21.0,-15.75,1a
2019-07-12_125925:380,-0.471283,0.135742,-0.06253099999999999,0.07214,-0.0066099999999999996,0.03235,-43.0,-18.75,-17.0,1a
2019-07-12_125925:400,-0.45907600000000004,0.031006,-0.048279,0.06921000000000001,-0.003711,0.032747000000000005,-43.0,-18.75,-17.0,1a
2019-07-12_125925:420,-0.592804,-0.012695,0.023895,0.075528,0.00636,0.017488,-43.5,-17.68,-19.059998999999998,1a
2019-07-12_125925:440,-0.729065,-0.034058,-0.13269,0.09478400000000001,0.019391,-0.014769,-43.5,-17.68,-19.059998999999998,1a
2019-07-12_125925:460,-0.575531,0.005065999999999999,-0.046265,0.090908,0.026683999999999996,-0.028441,-43.5,-17.68,-19.059998999999998,1a
2019-07-12_125925:480,-0.354858,-0.039642000000000004,0.007599,0.102413,0.014355000000000001,0.03235,-43.5,-14.56,-19.870001000000002,1a
2019-07-12_125925:500,-0.546021,-0.14743,-0.009644,0.112423,0.00404,0.072358,-43.5,-14.56,-19.870001000000002,1a
2019-07-12_125925:520,-0.714325,-0.20285,-0.044219999999999995,0.110501,0.010693000000000001,0.033204000000000004,-45.25,-12.75,-19.870001000000002,1a
2019-07-12_125925:540,-0.661957,-0.20080599999999998,0.0,0.108181,0.020703,0.001192,-45.25,-12.75,-19.870001000000002,1a
2019-07-12_125925:560,-0.596375,-0.251648,0.001495,0.116665,0.016675,0.026430000000000002,-45.25,-12.75,-19.870001000000002,1a
2019-07-12_125925:580,-0.568909,-0.294373,-0.025421,0.12881099999999998,0.010357,0.035646,-45.369999,-9.06,-20.370001000000002,1a
2019-07-12_125925:600,-0.514496,-0.24658200000000002,-0.036591000000000005,0.12994,0.006024,-0.003935,-45.369999,-9.06,-20.370001000000002,1a
2019-07-12_125925:620,-0.488068,-0.163177,-0.045226999999999996,0.130215,0.00105,-0.032195,-46.75,-5.68,-22.370001000000002,1a
2019-07-12_125925:640,-0.43621800000000005,-0.082336,-0.039124,0.12981800000000002,-0.004993,-0.024169,-46.75,-5.68,-22.370001000000002,1a
2019-07-12_125925:660,-0.401123,-0.059479,-0.037108999999999996,0.121853,-0.008716,-0.019347,-46.75,-5.68,-22.370001000000002,1a
2019-07-12_125925:680,-0.36554000000000003,-0.026427999999999997,-0.033539,0.10693,-0.01073,-0.028441,-46.060001,-3.5,-21.18,1a
2019-07-12_125925:700,-0.378265,-0.011169,-0.025908999999999998,0.097012,-0.01192,-0.026305000000000002,-46.060001,-3.5,-21.18,1a
2019-07-12_125925:720,-0.421967,-0.012695,-0.022858,0.090267,-0.012042,-0.019591,-46.75,-1.68,-22.0,1a
2019-07-12_125925:740,-0.447388,-0.012695,-0.020844,0.081478,-0.010578,-0.023131,-46.75,-1.68,-22.0,1a
2019-07-12_125925:760,-0.46569799999999995,0.009125,-0.007111,0.07354400000000001,-0.005695,-0.024626,-46.75,-1.68,-22.0,1a
2019-07-12_125925:780,-0.461121,0.012695,-0.0035399999999999997,0.065823,-0.001178,-0.013365,-45.25,-1.68,-22.75,1a
2019-07-12_125925:800,-0.43670699999999996,-0.012177,-0.006592,0.057675,0.00040899999999999997,-0.000334,-45.25,-1.68,-22.75,1a
2019-07-12_125925:820,-0.457581,-0.023895,-0.007111,0.051692999999999996,-0.0017280000000000002,0.0025039999999999997,-46.369999,-1.37,-23.18,1a
2019-07-12_125925:840,-0.485016,-0.022858,-0.015747,0.046231,-0.0023989999999999997,-0.0058579999999999995,-46.369999,-1.37,-23.18,1a
2019-07-12_125925:860,-0.47079499999999996,-0.011169,-0.005065999999999999,0.038143,-0.000324,-0.013822999999999998,-46.369999,-1.37,-23.18,1a
2019-07-12_125925:880,-0.50943,0.008636,0.016266,0.030452999999999997,0.001935,-0.013640000000000001,-45.68,-1.06,-22.370001000000002,1a
2019-07-12_125925:900,-0.546539,0.010651,0.012695,0.020809,0.006299,-0.014495,-45.68,-1.06,-22.370001000000002,1a
2019-07-12_125925:920,-0.523651,0.010162000000000001,0.012695,0.008754999999999999,0.011426,-0.015806999999999998,-45.369999,0.5,-23.18,1a
2019-07-12_125925:940,-0.510437,-0.002014,0.017273,-3e-06,0.01048,-0.007781000000000001,-45.369999,0.5,-23.18,1a
2019-07-12_125925:960,-0.506897,-0.031494,-0.016266,-0.0037270000000000003,0.005841,-0.000334,-45.369999,0.5,-23.18,1a
2019-07-12_125925:980,-0.662964,-0.011169,0.038635,-0.008029999999999999,0.000317,-2.8999999999999997e-05,-44.869999,-0.25,-21.559998999999998,1a
2019-07-12_125926:000,-0.581116,-0.018799,-0.131165,-0.011264,-0.009448,-0.000426,-44.869999,-0.25,-21.559998999999998,1a
