timestamp,AccX,AccY,AccZ,GyroX,GyroY,GyroZ,MagX,MagY,MagZ,Activity
2019-07-12_112301:440,-0.398071,0.002014,-0.300964,-0.0022010000000000003,-0.002979,0.0037549999999999997,-44.369999,-20.18,-35.25,2b
2019-07-12_112301:460,-0.397583,0.0025329999999999997,-0.300476,-0.002353,-0.002979,0.002565,-44.369999,-20.18,-35.25,2b
2019-07-12_112301:480,-0.396057,0.0055850000000000006,-0.300964,-0.002659,-0.003314,0.002443,-44.369999,-20.18,-35.25,2b
2019-07-12_112301:500,-0.396057,0.004059,-0.29995700000000003,-0.003116,-0.003436,0.0038159999999999995,-44.68,-20.559998999999998,-35.68,2b
2019-07-12_112301:520,-0.40368699999999996,0.0030210000000000002,-0.29995700000000003,-0.0037270000000000003,-0.003375,0.00403,-44.68,-20.559998999999998,-35.68,2b
2019-07-12_112301:540,-0.402649,0.0030210000000000002,-0.29995700000000003,-0.004642,-0.0030399999999999997,0.0027170000000000002,-44.369999,-20.559998999999998,-36.5,2b
2019-07-12_112301:560,-0.40011599999999997,0.004059,-0.29486100000000004,-0.005497,-0.002338,0.001527,-44.369999,-20.559998999999998,-36.5,2b
2019-07-12_112301:580,-0.402161,0.0025329999999999997,-0.29742399999999997,-0.005893,-0.002124,0.000917,-44.369999,-20.559998999999998,-36.5,2b
2019-07-12_112301:600,-0.40063499999999996,0.002014,-0.294373,-0.006076,-0.002307,3.2e-05,-43.560001,-20.18,-35.68,2b
2019-07-12_112301:620,-0.401642,0.0025329999999999997,-0.29180900000000004,-0.005679999999999999,-0.0025210000000000002,-0.000365,-43.560001,-20.18,-35.68,2b
2019-07-12_112301:640,-0.40316799999999997,0.0025329999999999997,-0.29232800000000003,-0.004947,-0.002582,-0.000426,-45.060001,-21.0,-35.25,2b
2019-07-12_112301:660,-0.405212,0.005065999999999999,-0.28875700000000004,-0.004001,-0.0025210000000000002,-0.000151,-45.060001,-21.0,-35.25,2b
2019-07-12_112301:680,-0.40063499999999996,0.007111,-0.28927600000000003,-0.003147,-0.002735,0.0005809999999999999,-45.060001,-21.0,-35.25,2b
2019-07-12_112301:700,-0.401123,0.009125,-0.28775,-0.0027199999999999998,-0.0030399999999999997,0.001314,-44.68,-21.0,-34.5,2b
2019-07-12_112301:720,-0.401642,0.011687999999999999,-0.28875700000000004,-0.002475,-0.0035280000000000003,0.001161,-44.68,-21.0,-34.5,2b
2019-07-12_112301:740,-0.40063499999999996,0.012695,-0.28875700000000004,-0.002597,-0.004169,0.001588,-44.68,-21.0,-35.25,2b
2019-07-12_112301:760,-0.40316799999999997,0.012177,-0.285217,-0.00275,-0.00484,0.0029620000000000002,-44.68,-21.0,-35.25,2b
2019-07-12_112301:780,-0.402161,0.013213999999999998,-0.287231,-0.003452,-0.0052369999999999995,0.003023,-44.68,-21.0,-35.25,2b
2019-07-12_112301:800,-0.402161,0.013702,-0.28875700000000004,-0.00394,-0.005573,0.002443,-44.369999,-20.870001000000002,-36.060001,2b
2019-07-12_112301:820,-0.402161,0.014221000000000001,-0.28674299999999997,-0.004459,-0.006,0.00229,-44.369999,-20.870001000000002,-36.060001,2b
2019-07-12_112301:840,-0.401123,0.013702,-0.28875700000000004,-0.004947,-0.006397,0.0026260000000000003,-44.369999,-20.870001000000002,-34.869999,2b
2019-07-12_112301:860,-0.402649,0.013702,-0.287231,-0.005375,-0.006793,0.0025039999999999997,-44.369999,-20.870001000000002,-34.869999,2b
2019-07-12_112301:880,-0.404175,0.012695,-0.28979499999999997,-0.0052829999999999995,-0.007006999999999999,0.002687,-44.369999,-20.870001000000002,-34.869999,2b
2019-07-12_112301:900,-0.40316799999999997,0.012695,-0.290283,-0.005039,-0.007281999999999999,0.002778,-44.68,-20.559998999999998,-34.5,2b
2019-07-12_112301:920,-0.40368699999999996,0.013213999999999998,-0.29180900000000004,-0.004764,-0.007465,0.0029620000000000002,-44.68,-20.559998999999998,-34.5,2b
2019-07-12_112301:940,-0.402649,0.013702,-0.29284699999999997,-0.004581,-0.007343000000000001,0.0032359999999999997,-44.369999,-21.0,-34.869999,2b
2019-07-12_112301:960,-0.402649,0.015228,-0.29232800000000003,-0.004275999999999999,-0.007526000000000001,0.003694,-44.369999,-21.0,-34.869999,2b
2019-07-12_112301:980,-0.401642,0.015228,-0.293335,-0.004275999999999999,-0.0076170000000000005,0.004182,-44.369999,-21.0,-34.869999,2b
2019-07-12_112302:000,-0.401642,0.017273,-0.29538000000000003,-0.004581,-0.007739,0.004457,-44.0,-21.370001000000002,-34.5,2b
2019-07-12_112302:020,-0.402649,0.017273,-0.294373,-0.004642,-0.007923000000000001,0.004854,-44.0,-21.370001000000002,-34.5,2b
2019-07-12_112302:040,-0.402161,0.015228,-0.295898,-0.0051,-0.007678,0.005311,-43.560001,-21.370001000000002,-35.25,2b
2019-07-12_112302:060,-0.401642,0.013702,-0.29486100000000004,-0.005161,-0.007587000000000001,0.005739,-43.560001,-21.370001000000002,-35.25,2b
2019-07-12_112302:080,-0.401642,0.011687999999999999,-0.29742399999999997,-0.005344,-0.007526000000000001,0.006044,-43.560001,-21.370001000000002,-35.25,2b
2019-07-12_112302:100,-0.401123,0.011169,-0.297913,-0.005344,-0.007220999999999999,0.006044,-44.369999,-20.559998999999998,-34.5,2b
2019-07-12_112302:120,-0.402649,0.009125,-0.296906,-0.005161,-0.00719,0.005861,-44.369999,-20.559998999999998,-34.5,2b
2019-07-12_112302:140,-0.401642,0.007599,-0.29742399999999997,-0.004947,-0.006670999999999999,0.0058,-44.0,-20.18,-35.25,2b
2019-07-12_112302:160,-0.39859,0.007599,-0.296387,-0.004612,-0.006731999999999999,0.005861,-44.0,-20.18,-35.25,2b
2019-07-12_112302:180,-0.398071,0.008636,-0.298431,-0.004520000000000001,-0.006731999999999999,0.006257,-44.0,-20.18,-35.25,2b
2019-07-12_112302:200,-0.398071,0.009644,-0.298431,-0.004337,-0.006885,0.006470999999999999,-44.369999,-21.370001000000002,-34.869999,2b
2019-07-12_112302:220,-0.399597,0.010162000000000001,-0.29742399999999997,-0.004581,-0.0070680000000000005,0.006532,-44.369999,-21.370001000000002,-34.869999,2b
2019-07-12_112302:240,-0.40011599999999997,0.009125,-0.298431,-0.004978,-0.0070680000000000005,0.006470999999999999,-44.369999,-21.0,-34.869999,2b
2019-07-12_112302:260,-0.40063499999999996,0.009644,-0.298431,-0.005222,-0.006854000000000001,0.006379,-44.369999,-21.0,-34.869999,2b
2019-07-12_112302:280,-0.402649,0.008636,-0.296906,-0.005741,-0.006670999999999999,0.006257,-44.369999,-21.0,-34.869999,2b
2019-07-12_112302:300,-0.402649,0.007111,-0.29742399999999997,-0.005954,-0.006397,0.006593000000000001,-44.0,-21.0,-35.68,2b
2019-07-12_112302:320,-0.40316799999999997,0.006072999999999999,-0.29742399999999997,-0.006076,-0.005878,0.006776000000000001,-44.0,-21.0,-35.68,2b
2019-07-12_112302:340,-0.399597,0.0055850000000000006,-0.29742399999999997,-0.0061070000000000004,-0.005359,0.0069900000000000006,-43.18,-20.559998999999998,-36.869999,2b
2019-07-12_112302:360,-0.399597,0.0030210000000000002,-0.29742399999999997,-0.0061070000000000004,-0.005451,0.006868000000000001,-43.18,-20.559998999999998,-36.869999,2b
2019-07-12_112302:380,-0.396545,0.004059,-0.297913,-0.005954,-0.005298,0.006318,-43.18,-20.559998999999998,-36.869999,2b
2019-07-12_112302:400,-0.397583,0.0030210000000000002,-0.29943800000000004,-0.005619,-0.005817,0.005739,-43.560001,-21.0,-36.060001,2b
2019-07-12_112302:420,-0.39859,0.004547,-0.29895,-0.005222,-0.0061530000000000005,0.005403,-43.560001,-21.0,-36.060001,2b
2019-07-12_112302:440,-0.398071,0.004059,-0.297913,-0.004886,-0.0061530000000000005,0.006196,-43.560001,-20.5,-36.5,2b
2019-07-12_112302:460,-0.39859,0.0030210000000000002,-0.298431,-0.004520000000000001,-0.006214,0.006929,-43.560001,-20.5,-36.5,2b
2019-07-12_112302:480,-0.397583,0.004547,-0.29943800000000004,-0.004825,-0.006,0.006196,-43.560001,-20.5,-36.5,2b
2019-07-12_112302:500,-0.399597,0.004547,-0.300476,-0.004978,-0.006,0.005983,-43.560001,-20.059998999999998,-35.25,2b
2019-07-12_112302:520,-0.402161,0.0025329999999999997,-0.29943800000000004,-0.0051,-0.005634,0.006196,-43.560001,-20.059998999999998,-35.25,2b
2019-07-12_112302:540,-0.405212,0.0030210000000000002,-0.298431,-0.005375,-0.005451,0.005678,-43.560001,-20.059998999999998,-34.869999,2b
2019-07-12_112302:560,-0.401642,0.0030210000000000002,-0.29742399999999997,-0.005375,-0.005115,0.005403,-43.560001,-20.059998999999998,-34.869999,2b
2019-07-12_112302:580,-0.401123,0.000488,-0.29742399999999997,-0.005344,-0.004779,0.005678,-43.560001,-20.059998999999998,-34.869999,2b
2019-07-12_112302:600,-0.402161,0.0025329999999999997,-0.295898,-0.005039,-0.00484,0.005678,-44.369999,-20.870001000000002,-35.68,2b
2019-07-12_112302:620,-0.396057,0.0025329999999999997,-0.29538000000000003,-0.005222,-0.004901,0.005678,-44.369999,-20.870001000000002,-35.68,2b
2019-07-12_112302:640,-0.396057,0.001007,-0.296906,-0.0051,-0.005573,0.005678,-44.0,-19.75,-35.68,2b
2019-07-12_112302:660,-0.397064,0.002014,-0.29486100000000004,-0.005161,-0.005878,0.004793,-44.0,-19.75,-35.68,2b
2019-07-12_112302:680,-0.396545,0.004059,-0.297913,-0.004978,-0.006336,0.005006,-44.0,-19.75,-35.68,2b
2019-07-12_112302:700,-0.398071,0.002014,-0.296906,-0.004886,-0.006336,0.005861,-44.0,-20.059998999999998,-34.18,2b
2019-07-12_112302:720,-0.39859,0.001495,-0.297913,-0.004947,-0.006214,0.005586,-44.0,-20.059998999999998,-34.18,2b
2019-07-12_112302:740,-0.39859,0.002014,-0.29895,-0.0051,-0.006092,0.004915,-44.68,-20.559998999999998,-35.25,2b
2019-07-12_112302:760,-0.40063499999999996,0.002014,-0.297913,-0.004947,-0.006214,0.005189,-44.68,-20.559998999999998,-35.25,2b
2019-07-12_112302:780,-0.402161,0.002014,-0.300964,-0.004978,-0.006275,0.004945000000000001,-44.68,-20.559998999999998,-35.25,2b
2019-07-12_112302:800,-0.40063499999999996,0.001007,-0.297913,-0.005222,-0.006092,0.004671,-43.560001,-20.18,-35.25,2b
2019-07-12_112302:820,-0.40011599999999997,0.001495,-0.298431,-0.004978,-0.005939,0.004671,-43.560001,-20.18,-35.25,2b
2019-07-12_112302:840,-0.399109,0.001007,-0.29995700000000003,-0.004825,-0.005939,0.004793,-44.369999,-20.559998999999998,-35.25,2b
2019-07-12_112302:860,-0.399109,0.002014,-0.298431,-0.004642,-0.0061530000000000005,0.004671,-44.369999,-20.559998999999998,-35.25,2b
2019-07-12_112302:880,-0.40011599999999997,0.002014,-0.300476,-0.004612,-0.0060609999999999995,0.004945000000000001,-44.369999,-20.559998999999998,-35.25,2b
2019-07-12_112302:900,-0.399597,0.0025329999999999997,-0.29995700000000003,-0.004581,-0.005939,0.005189,-44.369999,-19.5,-36.060001,2b
2019-07-12_112302:920,-0.40063499999999996,0.0025329999999999997,-0.29943800000000004,-0.004642,-0.005725,0.005403,-44.369999,-19.5,-36.060001,2b
2019-07-12_112302:940,-0.39859,0.002014,-0.29995700000000003,-0.004978,-0.00539,0.005861,-44.0,-20.18,-36.5,2b
2019-07-12_112302:960,-0.397583,0.001007,-0.29995700000000003,-0.005161,-0.005054,0.0058,-44.0,-20.18,-36.5,2b
2019-07-12_112302:980,-0.39859,0.001495,-0.300476,-0.005375,-0.004993,0.005678,-44.0,-20.18,-36.5,2b
2019-07-12_112303:000,-0.398071,0.001007,-0.300476,-0.005375,-0.005298,0.005403,-44.369999,-20.5,-35.68,2b
2019-07-12_112303:020,-0.397583,0.0,-0.29943800000000004,-0.005375,-0.0052369999999999995,0.005525,-44.369999,-20.5,-35.68,2b
2019-07-12_112303:040,-0.399109,-0.000488,-0.29895,-0.005344,-0.005115,0.005403,-44.369999,-19.370001000000002,-34.869999,2b
2019-07-12_112303:060,-0.40011599999999997,-0.001007,-0.29742399999999997,-0.0051,-0.005054,0.005464,-44.369999,-19.370001000000002,-34.869999,2b
2019-07-12_112303:080,-0.40011599999999997,0.0,-0.298431,-0.004978,-0.0052369999999999995,0.005342,-44.369999,-19.370001000000002,-34.869999,2b
2019-07-12_112303:100,-0.399109,0.0,-0.29742399999999997,-0.004947,-0.004993,0.005067,-44.68,-19.5,-35.25,2b
2019-07-12_112303:120,-0.397064,-0.001007,-0.29742399999999997,-0.004886,-0.005359,0.004915,-44.68,-19.5,-35.25,2b
2019-07-12_112303:140,-0.399109,-0.001007,-0.297913,-0.004642,-0.005451,0.004793,-45.060001,-19.5,-35.68,2b
2019-07-12_112303:160,-0.396545,-0.001495,-0.296906,-0.004642,-0.005573,0.004945000000000001,-45.060001,-19.5,-35.68,2b
2019-07-12_112303:180,-0.401642,-0.001495,-0.298431,-0.004642,-0.005817,0.005128,-45.060001,-19.5,-35.68,2b
2019-07-12_112303:200,-0.401642,0.0,-0.295898,-0.004825,-0.005695,0.005006,-44.68,-20.18,-35.68,2b
2019-07-12_112303:220,-0.402649,-0.001007,-0.297913,-0.004825,-0.005756,0.005189,-44.68,-20.18,-35.68,2b
2019-07-12_112303:240,-0.40011599999999997,-0.000488,-0.296906,-0.005375,-0.005451,0.004732,-44.0,-20.18,-36.060001,2b
2019-07-12_112303:260,-0.397583,-0.002014,-0.296906,-0.0052829999999999995,-0.005451,0.004457,-44.0,-20.18,-36.060001,2b
2019-07-12_112303:280,-0.398071,-0.0030210000000000002,-0.29943800000000004,-0.005222,-0.006,0.004091,-44.0,-20.18,-36.060001,2b
2019-07-12_112303:300,-0.39502,-0.002014,-0.298431,-0.004886,-0.0060609999999999995,0.004548,-43.560001,-19.870001000000002,-35.25,2b
2019-07-12_112303:320,-0.39502,-0.001495,-0.29943800000000004,-0.004459,-0.006214,0.005006,-43.560001,-19.870001000000002,-35.25,2b
2019-07-12_112303:340,-0.397064,-0.000488,-0.300964,-0.004398,-0.006397,0.004457,-44.68,-20.18,-36.5,2b
2019-07-12_112303:360,-0.398071,0.0,-0.29943800000000004,-0.004398,-0.0061530000000000005,0.00403,-44.68,-20.18,-36.5,2b
2019-07-12_112303:380,-0.40063499999999996,0.0,-0.300964,-0.004581,-0.005878,0.004213000000000001,-44.68,-20.18,-36.5,2b
2019-07-12_112303:400,-0.40316799999999997,0.0,-0.300476,-0.004703,-0.0055119999999999995,0.004213000000000001,-45.060001,-19.5,-36.18,2b
2019-07-12_112303:420,-0.401123,-0.000488,-0.29995700000000003,-0.004764,-0.004901,0.004152,-45.060001,-19.5,-36.18,2b
2019-07-12_112303:440,-0.401123,-0.001495,-0.300964,-0.004886,-0.004901,0.004335,-44.0,-19.5,-36.869999,2b
2019-07-12_112303:460,-0.397583,0.0,-0.297913,-0.004581,-0.004901,0.004609,-44.0,-19.5,-36.869999,2b
2019-07-12_112303:480,-0.401642,0.0,-0.29943800000000004,-0.004520000000000001,-0.005176,0.004945000000000001,-44.0,-19.5,-36.869999,2b
2019-07-12_112303:500,-0.39859,0.0,-0.298431,-0.004581,-0.004961999999999999,0.00525,-44.0,-19.870001000000002,-35.25,2b
2019-07-12_112303:520,-0.396057,-0.001495,-0.29742399999999997,-0.004978,-0.004961999999999999,0.004274,-44.0,-19.870001000000002,-35.25,2b
2019-07-12_112303:540,-0.396057,0.000488,-0.298431,-0.005344,-0.005298,0.004091,-44.369999,-20.18,-36.18,2b
2019-07-12_112303:560,-0.397064,-0.001007,-0.29486100000000004,-0.0051,-0.0055119999999999995,0.005189,-44.369999,-20.18,-36.18,2b
2019-07-12_112303:580,-0.397583,-0.0025329999999999997,-0.297913,-0.005039,-0.005725,0.005006,-44.369999,-20.18,-36.18,2b
2019-07-12_112303:600,-0.397583,-0.002014,-0.29895,-0.0051,-0.005756,0.00403,-44.68,-20.18,-36.18,2b
2019-07-12_112303:620,-0.40011599999999997,-0.001495,-0.29895,-0.004825,-0.005817,0.004213000000000001,-44.68,-20.18,-36.18,2b
2019-07-12_112303:640,-0.40063499999999996,-0.0030210000000000002,-0.29742399999999997,-0.004703,-0.005451,0.004518,-44.369999,-19.870001000000002,-36.869999,2b
2019-07-12_112303:660,-0.402649,-0.001495,-0.29742399999999997,-0.004520000000000001,-0.0055119999999999995,0.004182,-44.369999,-19.870001000000002,-36.869999,2b
2019-07-12_112303:680,-0.398071,-0.000488,-0.296387,-0.004581,-0.005451,0.004213000000000001,-44.369999,-19.870001000000002,-36.869999,2b
2019-07-12_112303:700,-0.399109,0.0,-0.297913,-0.004459,-0.005725,0.004335,-45.060001,-19.870001000000002,-35.25,2b
2019-07-12_112303:720,-0.398071,0.000488,-0.296906,-0.004581,-0.0060609999999999995,0.004213000000000001,-45.060001,-19.870001000000002,-35.25,2b
2019-07-12_112303:740,-0.398071,0.0,-0.29943800000000004,-0.004642,-0.006214,0.004671,-44.0,-19.870001000000002,-35.68,2b
2019-07-12_112303:760,-0.397064,-0.000488,-0.298431,-0.004825,-0.006092,0.004854,-44.0,-19.870001000000002,-35.68,2b
2019-07-12_112303:780,-0.398071,-0.001495,-0.29943800000000004,-0.004764,-0.006397,0.004793,-44.0,-19.870001000000002,-35.68,2b
2019-07-12_112303:800,-0.399109,-0.001007,-0.29995700000000003,-0.005039,-0.006336,0.004854,-44.68,-19.5,-34.869999,2b
2019-07-12_112303:820,-0.398071,-0.0025329999999999997,-0.300476,-0.005039,-0.0061530000000000005,0.004793,-44.68,-19.5,-34.869999,2b
2019-07-12_112303:840,-0.399109,-0.001495,-0.300476,-0.004947,-0.006092,0.004732,-44.68,-19.870001000000002,-36.5,2b
2019-07-12_112303:860,-0.399109,-0.0030210000000000002,-0.29995700000000003,-0.004947,-0.005756,0.004793,-44.68,-19.870001000000002,-36.5,2b
2019-07-12_112303:880,-0.399597,-0.0030210000000000002,-0.300476,-0.004703,-0.005725,0.004732,-44.68,-19.870001000000002,-36.5,2b
2019-07-12_112303:900,-0.40011599999999997,-0.0030210000000000002,-0.302002,-0.004642,-0.005451,0.004609,-43.560001,-19.870001000000002,-35.25,2b
2019-07-12_112303:920,-0.397064,-0.002014,-0.29895,-0.004581,-0.0052369999999999995,0.004518,-43.560001,-19.870001000000002,-35.25,2b
2019-07-12_112303:940,-0.397583,-0.001495,-0.29995700000000003,-0.004764,-0.005359,0.004396,-45.5,-19.870001000000002,-36.869999,2b
2019-07-12_112303:960,-0.396545,-0.0025329999999999997,-0.298431,-0.004642,-0.00539,0.004518,-45.5,-19.870001000000002,-36.869999,2b
2019-07-12_112303:980,-0.397583,-0.002014,-0.298431,-0.004886,-0.0055119999999999995,0.004548,-45.5,-19.870001000000002,-36.869999,2b
2019-07-12_112304:000,-0.39859,-0.002014,-0.300476,-0.004978,-0.005573,0.004548,-44.369999,-19.5,-36.060001,2b
2019-07-12_112304:020,-0.39859,-0.0025329999999999997,-0.29895,-0.0051,-0.005725,0.004335,-44.369999,-19.5,-36.060001,2b
2019-07-12_112304:040,-0.397583,-0.0035399999999999997,-0.29895,-0.004947,-0.005695,0.00403,-45.060001,-19.870001000000002,-36.5,2b
2019-07-12_112304:060,-0.398071,-0.0030210000000000002,-0.29943800000000004,-0.004825,-0.005725,0.004274,-45.060001,-19.870001000000002,-36.5,2b
2019-07-12_112304:080,-0.40063499999999996,-0.0030210000000000002,-0.300476,-0.004581,-0.005634,0.004732,-45.060001,-19.870001000000002,-36.5,2b
2019-07-12_112304:100,-0.401123,-0.0030210000000000002,-0.298431,-0.004703,-0.0055119999999999995,0.004671,-45.060001,-20.18,-37.25,2b
2019-07-12_112304:120,-0.399597,-0.002014,-0.296906,-0.004703,-0.005298,0.004548,-45.060001,-20.18,-37.25,2b
2019-07-12_112304:140,-0.396545,-0.002014,-0.29995700000000003,-0.004947,-0.0052369999999999995,0.004457,-44.68,-19.870001000000002,-35.68,2b
2019-07-12_112304:160,-0.397064,-0.0025329999999999997,-0.29742399999999997,-0.0052829999999999995,-0.005359,0.004091,-44.68,-19.870001000000002,-35.68,2b
2019-07-12_112304:180,-0.398071,-0.0035399999999999997,-0.301483,-0.005344,-0.005817,0.003694,-44.68,-19.870001000000002,-35.68,2b
2019-07-12_112304:200,-0.39859,-0.004059,-0.29943800000000004,-0.004947,-0.005725,0.00403,-43.560001,-19.5,-35.68,2b
2019-07-12_112304:220,-0.396545,-0.0030210000000000002,-0.29995700000000003,-0.004398,-0.005634,0.004671,-43.560001,-19.5,-35.68,2b
2019-07-12_112304:240,-0.397064,-0.002014,-0.302002,-0.004123,-0.005634,0.004548,-45.060001,-19.059998999999998,-36.060001,2b
2019-07-12_112304:260,-0.398071,-0.000488,-0.29943800000000004,-0.004275999999999999,-0.005359,0.00403,-45.060001,-19.059998999999998,-36.060001,2b
2019-07-12_112304:280,-0.39859,-0.001007,-0.300476,-0.004642,-0.005298,0.004182,-45.060001,-19.059998999999998,-36.060001,2b
2019-07-12_112304:300,-0.40368699999999996,-0.001495,-0.30249000000000004,-0.004978,-0.005176,0.004335,-44.68,-19.870001000000002,-35.68,2b
2019-07-12_112304:320,-0.40316799999999997,-0.0025329999999999997,-0.29943800000000004,-0.005161,-0.004321,0.004091,-44.68,-19.870001000000002,-35.68,2b
2019-07-12_112304:340,-0.398071,-0.0030210000000000002,-0.298431,-0.004978,-0.004169,0.0039689999999999994,-44.369999,-19.870001000000002,-36.060001,2b
2019-07-12_112304:360,-0.40011599999999997,-0.0030210000000000002,-0.297913,-0.004703,-0.004444,0.004182,-44.369999,-19.870001000000002,-36.060001,2b
2019-07-12_112304:380,-0.40011599999999997,-0.002014,-0.29538000000000003,-0.004459,-0.004779,0.004335,-44.369999,-19.870001000000002,-36.060001,2b
2019-07-12_112304:400,-0.398071,-0.002014,-0.29486100000000004,-0.004459,-0.00484,0.004854,-45.060001,-19.75,-35.25,2b
2019-07-12_112304:420,-0.395538,-0.0025329999999999997,-0.295898,-0.004642,-0.004779,0.004609,-45.060001,-19.75,-35.25,2b
2019-07-12_112304:440,-0.396545,0.0,-0.29742399999999997,-0.0051,-0.005359,0.003694,-45.5,-19.75,-35.68,2b
2019-07-12_112304:460,-0.396545,-0.002014,-0.296387,-0.005222,-0.005878,0.004518,-45.5,-19.75,-35.68,2b
2019-07-12_112304:480,-0.399109,-0.004059,-0.29742399999999997,-0.0051,-0.006275,0.00525,-45.5,-19.75,-35.68,2b
2019-07-12_112304:500,-0.399597,-0.0035399999999999997,-0.297913,-0.005039,-0.0060609999999999995,0.0039689999999999994,-44.369999,-19.370001000000002,-36.869999,2b
2019-07-12_112304:520,-0.401123,-0.0035399999999999997,-0.296906,-0.0052829999999999995,-0.005878,0.0034189999999999997,-44.369999,-19.370001000000002,-36.869999,2b
2019-07-12_112304:540,-0.39859,-0.0030210000000000002,-0.298431,-0.004764,-0.005817,0.004182,-44.0,-19.75,-36.060001,2b
2019-07-12_112304:560,-0.399109,-0.004547,-0.297913,-0.004825,-0.005695,0.004213000000000001,-44.0,-19.75,-36.060001,2b
2019-07-12_112304:580,-0.397583,-0.002014,-0.297913,-0.004581,-0.006092,0.00345,-44.0,-19.75,-36.060001,2b
2019-07-12_112304:600,-0.397583,-0.0035399999999999997,-0.29742399999999997,-0.004398,-0.005878,0.0034189999999999997,-44.68,-19.0,-36.869999,2b
2019-07-12_112304:620,-0.397583,-0.0025329999999999997,-0.298431,-0.004398,-0.0061530000000000005,0.003358,-44.68,-19.0,-36.869999,2b
2019-07-12_112304:640,-0.39859,-0.001495,-0.29995700000000003,-0.004123,-0.0061530000000000005,0.003633,-44.68,-19.75,-36.060001,2b
2019-07-12_112304:660,-0.39859,-0.001007,-0.298431,-0.0042450000000000005,-0.006336,0.003908,-44.68,-19.75,-36.060001,2b
2019-07-12_112304:680,-0.398071,-0.002014,-0.29995700000000003,-0.004398,-0.0061530000000000005,0.004213000000000001,-44.68,-19.75,-36.060001,2b
2019-07-12_112304:700,-0.399109,-0.001495,-0.29995700000000003,-0.004642,-0.006336,0.004274,-44.68,-20.059998999999998,-35.68,2b
2019-07-12_112304:720,-0.399109,-0.002014,-0.300964,-0.004978,-0.0060609999999999995,0.004182,-44.68,-20.059998999999998,-35.68,2b
2019-07-12_112304:740,-0.40011599999999997,-0.002014,-0.300476,-0.005222,-0.005695,0.004274,-44.68,-19.370001000000002,-36.5,2b
2019-07-12_112304:760,-0.399109,-0.0035399999999999997,-0.29895,-0.005222,-0.005359,0.004091,-44.68,-19.370001000000002,-36.5,2b
2019-07-12_112304:780,-0.397583,-0.0030210000000000002,-0.29895,-0.0051,-0.0052369999999999995,0.004091,-44.68,-19.370001000000002,-36.5,2b
2019-07-12_112304:800,-0.396545,-0.0035399999999999997,-0.29943800000000004,-0.004825,-0.005176,0.0038469999999999997,-43.560001,-20.059998999999998,-36.5,2b
2019-07-12_112304:820,-0.395538,-0.0030210000000000002,-0.29943800000000004,-0.004581,-0.005451,0.003694,-43.560001,-20.059998999999998,-36.5,2b
2019-07-12_112304:840,-0.397064,-0.0035399999999999997,-0.300476,-0.004337,-0.005725,0.0034189999999999997,-44.369999,-20.5,-37.25,2b
2019-07-12_112304:860,-0.398071,-0.000488,-0.29742399999999997,-0.004184,-0.005817,0.003511,-44.369999,-20.5,-37.25,2b
2019-07-12_112304:880,-0.39859,0.0,-0.29995700000000003,-0.004184,-0.005756,0.0038159999999999995,-44.369999,-20.5,-37.25,2b
2019-07-12_112304:900,-0.399597,-0.001007,-0.29943800000000004,-0.004337,-0.005634,0.0039689999999999994,-44.369999,-19.75,-35.68,2b
2019-07-12_112304:920,-0.397583,0.0,-0.298431,-0.004825,-0.005725,0.003572,-44.369999,-19.75,-35.68,2b
2019-07-12_112304:940,-0.397583,-0.000488,-0.29943800000000004,-0.005161,-0.005725,0.003511,-43.18,-19.75,-36.060001,2b
2019-07-12_112304:960,-0.39859,-0.0025329999999999997,-0.297913,-0.0051,-0.005634,0.0038159999999999995,-43.18,-19.75,-36.060001,2b
2019-07-12_112304:980,-0.397583,-0.0025329999999999997,-0.298431,-0.004825,-0.005634,0.004152,-43.18,-19.75,-36.060001,2b
2019-07-12_112305:000,-0.399597,-0.0025329999999999997,-0.300476,-0.004398,-0.005725,0.004182,-44.68,-19.0,-35.68,2b
2019-07-12_112305:020,-0.396545,-0.002014,-0.295898,-0.004184,-0.005634,0.004335,-44.68,-19.0,-35.68,2b
2019-07-12_112305:040,-0.399597,-0.001007,-0.29895,-0.004184,-0.005756,0.004518,-45.060001,-20.059998999999998,-36.5,2b
2019-07-12_112305:060,-0.396057,-0.001495,-0.296387,-0.004612,-0.005725,0.003908,-45.060001,-20.059998999999998,-36.5,2b
2019-07-12_112305:080,-0.398071,-0.002014,-0.29995700000000003,-0.004642,-0.006,0.003358,-45.060001,-20.059998999999998,-36.5,2b
2019-07-12_112305:100,-0.39859,-0.0025329999999999997,-0.300476,-0.004703,-0.006214,0.0032359999999999997,-45.060001,-19.75,-36.5,2b
2019-07-12_112305:120,-0.395538,-0.0030210000000000002,-0.298431,-0.004612,-0.006336,0.0038159999999999995,-45.060001,-19.75,-36.5,2b
2019-07-12_112305:140,-0.39502,-0.0025329999999999997,-0.300964,-0.0042450000000000005,-0.0061530000000000005,0.004091,-44.369999,-19.0,-36.060001,2b
2019-07-12_112305:160,-0.394531,-0.0030210000000000002,-0.29995700000000003,-0.004001,-0.0061530000000000005,0.003633,-44.369999,-19.0,-36.060001,2b
2019-07-12_112305:180,-0.397064,-0.001007,-0.302002,-0.004184,-0.006336,0.003175,-44.369999,-19.0,-36.060001,2b
2019-07-12_112305:200,-0.40063499999999996,-0.000488,-0.300964,-0.004062,-0.0061530000000000005,0.003633,-44.369999,-18.559998999999998,-35.25,2b
2019-07-12_112305:220,-0.401642,-0.002014,-0.300964,-0.004398,-0.005695,0.0034189999999999997,-44.369999,-18.559998999999998,-35.25,2b
2019-07-12_112305:240,-0.401642,-0.001007,-0.300476,-0.004520000000000001,-0.005359,0.0034189999999999997,-44.0,-19.370001000000002,-35.25,2b
2019-07-12_112305:260,-0.40063499999999996,-0.0030210000000000002,-0.29995700000000003,-0.004337,-0.005176,0.003511,-44.0,-19.370001000000002,-35.25,2b
2019-07-12_112305:280,-0.398071,-0.001495,-0.300964,-0.0042450000000000005,-0.004901,0.00345,-44.0,-19.370001000000002,-35.25,2b
2019-07-12_112305:300,-0.398071,-0.000488,-0.29943800000000004,-0.0042450000000000005,-0.005054,0.003694,-44.68,-19.75,-35.68,2b
2019-07-12_112305:320,-0.394531,-0.0030210000000000002,-0.29995700000000003,-0.004184,-0.0052369999999999995,0.003694,-44.68,-19.75,-35.68,2b
2019-07-12_112305:340,-0.395538,-0.001495,-0.29943800000000004,-0.004275999999999999,-0.005359,0.002687,-44.0,-20.059998999999998,-36.869999,2b
2019-07-12_112305:360,-0.395538,-0.001007,-0.29943800000000004,-0.004184,-0.005756,0.0027170000000000002,-44.0,-20.059998999999998,-36.869999,2b
2019-07-12_112305:380,-0.396545,-0.001495,-0.29995700000000003,-0.003788,-0.005878,0.004335,-44.0,-20.059998999999998,-36.869999,2b
2019-07-12_112305:400,-0.398071,-0.000488,-0.300964,-0.0036659999999999996,-0.005634,0.004213000000000001,-44.0,-19.370001000000002,-36.060001,2b
2019-07-12_112305:420,-0.398071,0.000488,-0.29943800000000004,-0.004062,-0.005451,0.003053,-44.0,-19.370001000000002,-36.060001,2b
2019-07-12_112305:440,-0.40011599999999997,0.0,-0.301483,-0.004337,-0.00539,0.003297,-44.68,-20.059998999999998,-36.060001,2b
2019-07-12_112305:460,-0.399597,-0.000488,-0.300476,-0.004520000000000001,-0.005359,0.0037549999999999997,-44.68,-20.059998999999998,-36.060001,2b
2019-07-12_112305:480,-0.399597,-0.000488,-0.300964,-0.004825,-0.005115,0.0032359999999999997,-44.68,-20.059998999999998,-36.060001,2b
2019-07-12_112305:500,-0.398071,-0.001495,-0.29995700000000003,-0.004764,-0.0055119999999999995,0.003114,-44.0,-19.0,-36.060001,2b
2019-07-12_112305:520,-0.397583,-0.0025329999999999997,-0.29895,-0.004520000000000001,-0.005451,0.00345,-44.0,-19.0,-36.060001,2b
2019-07-12_112305:540,-0.397064,-0.002014,-0.29995700000000003,-0.004001,-0.005695,0.003114,-43.560001,-19.75,-36.060001,2b
2019-07-12_112305:560,-0.397583,0.0,-0.29742399999999997,-0.0037270000000000003,-0.005451,0.0032359999999999997,-43.560001,-19.75,-36.060001,2b
2019-07-12_112305:580,-0.397583,0.0,-0.29943800000000004,-0.0033299999999999996,-0.005756,0.003694,-43.560001,-19.75,-36.060001,2b
2019-07-12_112305:600,-0.396057,0.001007,-0.29895,-0.003544,-0.0060609999999999995,0.0037549999999999997,-45.5,-19.75,-36.5,2b
2019-07-12_112305:620,-0.397064,0.002014,-0.29895,-0.0037270000000000003,-0.006,0.0038159999999999995,-45.5,-19.75,-36.5,2b
2019-07-12_112305:640,-0.397064,0.001007,-0.29895,-0.004062,-0.006458,0.0038159999999999995,-44.68,-20.5,-37.68,2b
2019-07-12_112305:660,-0.397583,0.001007,-0.300476,-0.004459,-0.006488,0.0039689999999999994,-44.68,-20.5,-37.68,2b
2019-07-12_112305:680,-0.398071,-0.001007,-0.302002,-0.004825,-0.0066099999999999996,0.004091,-44.68,-20.5,-37.68,2b
2019-07-12_112305:700,-0.399109,-0.001007,-0.300964,-0.004947,-0.006336,0.004274,-44.68,-19.370001000000002,-36.5,2b
2019-07-12_112305:720,-0.399109,0.0,-0.300964,-0.004703,-0.006336,0.004457,-44.68,-19.370001000000002,-36.5,2b
2019-07-12_112305:740,-0.399109,0.0,-0.30300900000000003,-0.004703,-0.006275,0.004457,-44.68,-20.059998999999998,-35.68,2b
2019-07-12_112305:760,-0.39859,0.000488,-0.300964,-0.004642,-0.005725,0.004732,-44.68,-20.059998999999998,-35.68,2b
2019-07-12_112305:780,-0.398071,0.0,-0.30249000000000004,-0.004947,-0.005695,0.004518,-44.68,-20.059998999999998,-35.68,2b
2019-07-12_112305:800,-0.396545,0.0,-0.30249000000000004,-0.005222,-0.0055119999999999995,0.004335,-44.369999,-20.059998999999998,-35.68,2b
2019-07-12_112305:820,-0.39502,-0.002014,-0.302002,-0.005161,-0.00539,0.004396,-44.369999,-20.059998999999998,-35.68,2b
2019-07-12_112305:840,-0.395538,-0.002014,-0.30249000000000004,-0.005222,-0.005725,0.004274,-44.68,-19.75,-36.060001,2b
2019-07-12_112305:860,-0.394012,-0.001007,-0.300964,-0.004642,-0.005634,0.004548,-44.68,-19.75,-36.060001,2b
2019-07-12_112305:880,-0.40011599999999997,-0.0025329999999999997,-0.304016,-0.004612,-0.005939,0.004732,-44.68,-19.75,-36.060001,2b
2019-07-12_112305:900,-0.401123,-0.000488,-0.302002,-0.004520000000000001,-0.0055119999999999995,0.004457,-44.68,-19.75,-36.060001,2b
2019-07-12_112305:920,-0.40063499999999996,-0.001007,-0.300964,-0.004703,-0.0052369999999999995,0.004671,-44.68,-19.75,-36.060001,2b
2019-07-12_112305:940,-0.396545,-0.001007,-0.302002,-0.004886,-0.004779,0.004854,-44.68,-19.75,-36.5,2b
2019-07-12_112305:960,-0.39502,-0.0030210000000000002,-0.29895,-0.005497,-0.004383,0.004518,-44.68,-19.75,-36.5,2b
2019-07-12_112305:980,-0.397064,-0.001495,-0.300964,-0.005497,-0.004779,0.0038159999999999995,-44.68,-19.75,-36.5,2b
2019-07-12_112306:000,-0.397064,-0.002014,-0.301483,-0.005558,-0.005115,0.004091,-44.369999,-19.0,-36.060001,2b
2019-07-12_112306:020,-0.396545,-0.0030210000000000002,-0.300476,-0.0051,-0.004993,0.005311,-44.369999,-19.0,-36.060001,2b
2019-07-12_112306:040,-0.396057,-0.0030210000000000002,-0.300476,-0.004886,-0.004718,0.005189,-44.369999,-19.75,-35.68,2b
2019-07-12_112306:060,-0.395538,-0.001495,-0.298431,-0.004825,-0.004596,0.004396,-44.369999,-19.75,-35.68,2b
2019-07-12_112306:080,-0.397583,-0.001495,-0.29943800000000004,-0.0051,-0.004779,0.004548,-44.369999,-19.75,-35.68,2b
2019-07-12_112306:100,-0.399597,-0.0025329999999999997,-0.298431,-0.005222,-0.004961999999999999,0.004548,-44.68,-19.370001000000002,-35.68,2b
2019-07-12_112306:120,-0.399597,-0.0030210000000000002,-0.297913,-0.005344,-0.004961999999999999,0.0038159999999999995,-44.68,-19.370001000000002,-35.68,2b
2019-07-12_112306:140,-0.40011599999999997,-0.0030210000000000002,-0.298431,-0.005222,-0.004901,0.0038159999999999995,-44.369999,-19.370001000000002,-36.060001,2b
2019-07-12_112306:160,-0.397064,-0.0025329999999999997,-0.29742399999999997,-0.004947,-0.005176,0.0038159999999999995,-44.369999,-19.370001000000002,-36.060001,2b
2019-07-12_112306:180,-0.399109,-0.002014,-0.29895,-0.004703,-0.005359,0.003633,-44.369999,-19.370001000000002,-36.060001,2b
2019-07-12_112306:200,-0.396545,-0.001007,-0.297913,-0.004459,-0.0055119999999999995,0.004335,-44.369999,-19.75,-36.060001,2b
2019-07-12_112306:220,-0.395538,-0.000488,-0.29995700000000003,-0.004275999999999999,-0.005451,0.004152,-44.369999,-19.75,-36.060001,2b
2019-07-12_112306:240,-0.397064,0.0,-0.29995700000000003,-0.004612,-0.005756,0.0029620000000000002,-44.369999,-19.75,-36.869999,2b
2019-07-12_112306:260,-0.397064,0.0,-0.29742399999999997,-0.004825,-0.006092,0.0039689999999999994,-44.369999,-19.75,-36.869999,2b
2019-07-12_112306:280,-0.397064,0.0,-0.29895,-0.004978,-0.006,0.005189,-44.369999,-19.75,-36.869999,2b
2019-07-12_112306:300,-0.399597,-0.000488,-0.300964,-0.005375,-0.005939,0.004274,-45.060001,-19.75,-35.25,2b
2019-07-12_112306:320,-0.40063499999999996,0.0,-0.29943800000000004,-0.005771,-0.005756,0.0039689999999999994,-45.060001,-19.75,-35.25,2b
2019-07-12_112306:340,-0.397583,0.0,-0.29943800000000004,-0.005954,-0.0055119999999999995,0.004671,-44.68,-19.370001000000002,-36.060001,2b
2019-07-12_112306:360,-0.397064,-0.002014,-0.29995700000000003,-0.006168,-0.0055119999999999995,0.004274,-44.68,-19.370001000000002,-36.060001,2b
2019-07-12_112306:380,-0.397583,-0.0030210000000000002,-0.29943800000000004,-0.005893,-0.005756,0.003633,-44.68,-19.370001000000002,-36.060001,2b
2019-07-12_112306:400,-0.39859,-0.0030210000000000002,-0.300476,-0.005619,-0.005756,0.003694,-44.68,-20.059998999999998,-35.68,2b
2019-07-12_112306:420,-0.39859,-0.0035399999999999997,-0.29995700000000003,-0.005161,-0.005817,0.003358,-44.68,-20.059998999999998,-35.68,2b
2019-07-12_112306:440,-0.39859,-0.0030210000000000002,-0.300964,-0.004612,-0.005573,0.0034189999999999997,-43.560001,-19.370001000000002,-36.060001,2b
2019-07-12_112306:460,-0.396057,-0.001007,-0.29943800000000004,-0.004459,-0.005725,0.0038159999999999995,-43.560001,-19.370001000000002,-36.060001,2b
2019-07-12_112306:480,-0.397064,0.0,-0.29995700000000003,-0.004459,-0.006,0.003358,-43.560001,-19.370001000000002,-36.060001,2b
2019-07-12_112306:500,-0.397583,0.0025329999999999997,-0.300964,-0.004612,-0.005878,0.0034189999999999997,-44.369999,-19.370001000000002,-35.68,2b
2019-07-12_112306:520,-0.39859,0.002014,-0.300476,-0.004947,-0.0060609999999999995,0.0039689999999999994,-44.369999,-19.370001000000002,-35.68,2b
2019-07-12_112306:540,-0.399109,0.002014,-0.300964,-0.005344,-0.005695,0.004213000000000001,-43.560001,-19.75,-35.68,2b
2019-07-12_112306:560,-0.399597,0.001495,-0.300476,-0.005679999999999999,-0.005573,0.004182,-43.560001,-19.75,-35.68,2b
2019-07-12_112306:580,-0.398071,0.0,-0.29895,-0.005771,-0.005359,0.004274,-43.560001,-19.75,-35.68,2b
2019-07-12_112306:600,-0.398071,-0.000488,-0.29995700000000003,-0.005741,-0.005451,0.004182,-44.369999,-20.059998999999998,-36.060001,2b
2019-07-12_112306:620,-0.397583,-0.001495,-0.29943800000000004,-0.005161,-0.005634,0.004091,-44.369999,-20.059998999999998,-36.060001,2b
2019-07-12_112306:640,-0.398071,-0.0025329999999999997,-0.300476,-0.004886,-0.005725,0.0038469999999999997,-44.369999,-19.75,-36.060001,2b
2019-07-12_112306:660,-0.394531,0.0,-0.29943800000000004,-0.004520000000000001,-0.005725,0.003511,-44.369999,-19.75,-36.060001,2b
2019-07-12_112306:680,-0.394012,0.0,-0.29895,-0.004337,-0.006397,0.003572,-44.369999,-19.75,-36.060001,2b
2019-07-12_112306:700,-0.397583,0.001007,-0.300476,-0.004184,-0.006336,0.00403,-43.560001,-19.75,-35.68,2b
2019-07-12_112306:720,-0.397583,0.001007,-0.29995700000000003,-0.0042450000000000005,-0.006214,0.004213000000000001,-43.560001,-19.75,-35.68,2b
2019-07-12_112306:740,-0.401642,0.002014,-0.300964,-0.004581,-0.005817,0.004335,-44.0,-20.059998999999998,-35.68,2b
2019-07-12_112306:760,-0.40011599999999997,0.0025329999999999997,-0.29943800000000004,-0.004825,-0.005634,0.004854,-44.0,-20.059998999999998,-35.68,2b
2019-07-12_112306:780,-0.402649,0.001495,-0.300964,-0.005497,-0.0052369999999999995,0.004915,-44.0,-20.059998999999998,-35.68,2b
2019-07-12_112306:800,-0.398071,0.000488,-0.29995700000000003,-0.005893,-0.005115,0.004213000000000001,-44.0,-19.370001000000002,-35.68,2b
2019-07-12_112306:820,-0.394531,-0.001007,-0.29995700000000003,-0.005771,-0.006,0.0038469999999999997,-44.0,-19.370001000000002,-35.68,2b
2019-07-12_112306:840,-0.396545,-0.0030210000000000002,-0.302002,-0.005344,-0.0061530000000000005,0.004091,-44.369999,-19.75,-35.25,2b
2019-07-12_112306:860,-0.394012,-0.0030210000000000002,-0.300964,-0.004612,-0.006336,0.005067,-44.369999,-19.75,-35.25,2b
2019-07-12_112306:880,-0.39502,-0.002014,-0.302002,-0.004001,-0.006092,0.005067,-44.369999,-19.75,-35.25,2b
2019-07-12_112306:900,-0.397064,0.0,-0.302002,-0.004062,-0.005939,0.004213000000000001,-44.68,-19.75,-35.68,2b
2019-07-12_112306:920,-0.397064,0.001007,-0.300964,-0.004642,-0.005878,0.004182,-44.68,-19.75,-35.68,2b
2019-07-12_112306:940,-0.399597,0.000488,-0.303528,-0.005039,-0.005634,0.004396,-45.060001,-20.5,-36.060001,2b
2019-07-12_112306:960,-0.40063499999999996,0.0,-0.302002,-0.005375,-0.005298,0.0037549999999999997,-45.060001,-20.5,-36.060001,2b
2019-07-12_112306:980,-0.40011599999999997,-0.002014,-0.300964,-0.005344,-0.004993,0.00345,-45.060001,-20.5,-36.060001,2b
2019-07-12_112307:000,-0.398071,-0.002014,-0.300964,-0.004886,-0.005054,0.0038159999999999995,-44.0,-19.75,-35.68,2b
2019-07-12_112307:020,-0.397583,-0.001495,-0.29895,-0.004337,-0.0052369999999999995,0.004091,-44.0,-19.75,-35.68,2b
2019-07-12_112307:040,-0.39859,0.000488,-0.29895,-0.004275999999999999,-0.0052369999999999995,0.004213000000000001,-44.68,-19.75,-36.5,2b
2019-07-12_112307:060,-0.396057,0.001007,-0.297913,-0.004337,-0.00539,0.004274,-44.68,-19.75,-36.5,2b
2019-07-12_112307:080,-0.395538,0.001007,-0.29895,-0.004947,-0.005817,0.0034189999999999997,-44.68,-19.75,-36.5,2b
2019-07-12_112307:100,-0.395538,0.002014,-0.29995700000000003,-0.005344,-0.005878,0.003694,-44.0,-20.5,-35.25,2b
2019-07-12_112307:120,-0.397064,0.000488,-0.29943800000000004,-0.0051,-0.006092,0.004793,-44.0,-20.5,-35.25,2b
2019-07-12_112307:140,-0.396057,-0.002014,-0.29995700000000003,-0.0052829999999999995,-0.0061530000000000005,0.004182,-44.68,-19.75,-34.869999,2b
2019-07-12_112307:160,-0.396545,-0.000488,-0.300476,-0.005039,-0.006,0.003511,-44.68,-19.75,-34.869999,2b
2019-07-12_112307:180,-0.397583,0.0,-0.300964,-0.004642,-0.006214,0.0039689999999999994,-44.68,-19.75,-34.869999,2b
2019-07-12_112307:200,-0.398071,0.0,-0.302002,-0.004398,-0.0060609999999999995,0.003908,-44.0,-19.75,-36.060001,2b
2019-07-12_112307:220,-0.399597,0.000488,-0.300964,-0.004337,-0.005756,0.00345,-44.0,-19.75,-36.060001,2b
2019-07-12_112307:240,-0.40063499999999996,0.001495,-0.30249000000000004,-0.004520000000000001,-0.005817,0.00345,-44.0,-20.5,-35.68,2b
2019-07-12_112307:260,-0.398071,0.001007,-0.300964,-0.004337,-0.00539,0.003572,-44.0,-20.5,-35.68,2b
2019-07-12_112307:280,-0.397064,0.002014,-0.300964,-0.004275999999999999,-0.0055119999999999995,0.003572,-44.0,-20.5,-35.68,2b
2019-07-12_112307:300,-0.396057,0.0025329999999999997,-0.302002,-0.004337,-0.005695,0.004091,-43.18,-20.059998999999998,-35.68,2b
2019-07-12_112307:320,-0.39502,0.004059,-0.29895,-0.004520000000000001,-0.005634,0.004732,-43.18,-20.059998999999998,-35.68,2b
2019-07-12_112307:340,-0.39502,0.004059,-0.300476,-0.004978,-0.006092,0.004548,-44.0,-19.75,-37.68,2b
2019-07-12_112307:360,-0.395538,0.0025329999999999997,-0.300964,-0.005222,-0.0060609999999999995,0.004854,-44.0,-19.75,-37.68,2b
2019-07-12_112307:380,-0.398071,0.001495,-0.301483,-0.005497,-0.006,0.004915,-44.0,-19.75,-37.68,2b
2019-07-12_112307:400,-0.39859,0.0,-0.302002,-0.005558,-0.005695,0.004854,-44.68,-19.370001000000002,-36.5,2b
2019-07-12_112307:420,-0.399109,-0.001495,-0.301483,-0.005375,-0.005725,0.004671,-44.68,-19.370001000000002,-36.5,2b
2019-07-12_112307:440,-0.397583,-0.0030210000000000002,-0.30249000000000004,-0.004825,-0.005359,0.004457,-44.369999,-19.370001000000002,-36.869999,2b
2019-07-12_112307:460,-0.398071,-0.0030210000000000002,-0.29995700000000003,-0.004275999999999999,-0.00539,0.004274,-44.369999,-19.370001000000002,-36.869999,2b
2019-07-12_112307:480,-0.397064,-0.001007,-0.300476,-0.00394,-0.005634,0.004274,-44.369999,-19.370001000000002,-36.869999,2b
2019-07-12_112307:500,-0.396057,0.000488,-0.300476,-0.003849,-0.00539,0.004213000000000001,-44.0,-19.370001000000002,-36.869999,2b
2019-07-12_112307:520,-0.39502,0.001495,-0.300964,-0.004337,-0.005756,0.004152,-44.0,-19.370001000000002,-36.869999,2b
2019-07-12_112307:540,-0.396057,0.000488,-0.301483,-0.004703,-0.005573,0.004091,-44.0,-20.059998999999998,-36.869999,2b
2019-07-12_112307:560,-0.396057,0.001495,-0.300964,-0.0051,-0.005573,0.004274,-44.0,-20.059998999999998,-36.869999,2b
2019-07-12_112307:580,-0.397583,-0.000488,-0.300964,-0.005039,-0.005817,0.004518,-44.0,-20.059998999999998,-36.869999,2b
2019-07-12_112307:600,-0.401123,-0.000488,-0.301483,-0.0052829999999999995,-0.005451,0.004213000000000001,-44.68,-20.5,-36.5,2b
2019-07-12_112307:620,-0.397583,-0.001007,-0.298431,-0.005222,-0.0052369999999999995,0.004213000000000001,-44.68,-20.5,-36.5,2b
2019-07-12_112307:640,-0.401642,0.0,-0.300964,-0.0052829999999999995,-0.005115,0.004091,-44.0,-20.059998999999998,-35.68,2b
2019-07-12_112307:660,-0.395538,0.0,-0.300476,-0.0052829999999999995,-0.005054,0.003572,-44.0,-20.059998999999998,-35.68,2b
2019-07-12_112307:680,-0.394531,-0.001007,-0.300476,-0.005161,-0.005451,0.003114,-44.0,-20.059998999999998,-35.68,2b
2019-07-12_112307:700,-0.397064,-0.001007,-0.301483,-0.004978,-0.005573,0.0029620000000000002,-44.369999,-20.059998999999998,-36.060001,2b
2019-07-12_112307:720,-0.394012,0.001007,-0.300964,-0.004123,-0.005817,0.004274,-44.369999,-20.059998999999998,-36.060001,2b
2019-07-12_112307:740,-0.39502,0.001007,-0.30249000000000004,-0.003879,-0.005756,0.004793,-44.68,-20.059998999999998,-36.060001,2b
2019-07-12_112307:760,-0.395538,0.002014,-0.30249000000000004,-0.004062,-0.005695,0.003908,-44.68,-20.059998999999998,-36.060001,2b
2019-07-12_112307:780,-0.397064,0.0030210000000000002,-0.302002,-0.004337,-0.005817,0.003908,-44.68,-20.059998999999998,-36.060001,2b
2019-07-12_112307:800,-0.40063499999999996,0.0030210000000000002,-0.30249000000000004,-0.005039,-0.005359,0.004609,-44.369999,-19.370001000000002,-36.060001,2b
2019-07-12_112307:820,-0.402649,0.000488,-0.300476,-0.005558,-0.004657,0.004518,-44.369999,-19.370001000000002,-36.060001,2b
2019-07-12_112307:840,-0.401642,-0.001007,-0.300964,-0.005497,-0.0045049999999999995,0.004182,-44.369999,-19.370001000000002,-36.060001,2b
2019-07-12_112307:860,-0.397583,-0.0030210000000000002,-0.300476,-0.005436,-0.004566,0.004091,-43.560001,-20.059998999999998,-36.5,2b
2019-07-12_112307:880,-0.396057,-0.0035399999999999997,-0.29995700000000003,-0.004337,-0.004901,0.0038469999999999997,-43.560001,-20.059998999999998,-36.5,2b
2019-07-12_112307:900,-0.396057,-0.000488,-0.297913,-0.004123,-0.004993,0.004091,-44.68,-19.75,-36.060001,2b
2019-07-12_112307:920,-0.394012,0.001495,-0.29895,-0.003879,-0.005634,0.004396,-44.68,-19.75,-36.060001,2b
2019-07-12_112307:940,-0.393494,0.001007,-0.29895,-0.004275999999999999,-0.005939,0.0038469999999999997,-44.0,-20.059998999999998,-35.68,2b
2019-07-12_112307:960,-0.395538,0.0030210000000000002,-0.29943800000000004,-0.005161,-0.006397,0.00345,-44.0,-20.059998999999998,-35.68,2b
2019-07-12_112307:980,-0.39859,0.0025329999999999997,-0.29943800000000004,-0.005161,-0.006397,0.004213000000000001,-44.0,-20.059998999999998,-35.68,2b
2019-07-12_112308:000,-0.39859,-0.000488,-0.300964,-0.005039,-0.006214,0.00403,-44.0,-20.5,-37.25,2b
2019-07-12_112308:020,-0.397064,0.0,-0.300476,-0.005222,-0.006214,0.003297,-44.0,-20.5,-37.25,2b
2019-07-12_112308:040,-0.396057,0.001007,-0.300476,-0.004642,-0.006214,0.004091,-44.369999,-20.059998999999998,-36.5,2b
2019-07-12_112308:060,-0.396545,0.0,-0.30249000000000004,-0.004581,-0.0061530000000000005,0.004457,-44.369999,-20.059998999999998,-36.5,2b
2019-07-12_112308:080,-0.397064,0.0,-0.302002,-0.004612,-0.006092,0.003694,-44.369999,-20.059998999999998,-36.5,2b
2019-07-12_112308:100,-0.399109,0.0,-0.30300900000000003,-0.004703,-0.0060609999999999995,0.003633,-44.0,-19.370001000000002,-36.869999,2b
2019-07-12_112308:120,-0.40011599999999997,0.0,-0.301483,-0.004520000000000001,-0.005573,0.00403,-44.0,-19.370001000000002,-36.869999,2b
2019-07-12_112308:140,-0.39859,0.000488,-0.303528,-0.004520000000000001,-0.0055119999999999995,0.0038159999999999995,-43.560001,-20.5,-36.060001,2b
2019-07-12_112308:160,-0.396057,0.001007,-0.302002,-0.004459,-0.005451,0.004213000000000001,-43.560001,-20.5,-36.060001,2b
2019-07-12_112308:180,-0.395538,0.001495,-0.302002,-0.004520000000000001,-0.005695,0.004274,-43.560001,-20.5,-36.060001,2b
2019-07-12_112308:200,-0.394531,0.001495,-0.300964,-0.004612,-0.005878,0.004213000000000001,-44.68,-20.059998999999998,-36.060001,2b
2019-07-12_112308:220,-0.396057,0.002014,-0.303528,-0.004886,-0.005725,0.004609,-44.68,-20.059998999999998,-36.060001,2b
2019-07-12_112308:240,-0.397064,0.002014,-0.30249000000000004,-0.004978,-0.005878,0.004671,-44.0,-20.059998999999998,-37.25,2b
2019-07-12_112308:260,-0.39859,0.000488,-0.30249000000000004,-0.0052829999999999995,-0.005756,0.004671,-44.0,-20.059998999999998,-37.25,2b
2019-07-12_112308:280,-0.39859,0.0,-0.30300900000000003,-0.0052829999999999995,-0.00539,0.004274,-44.0,-20.059998999999998,-37.25,2b
2019-07-12_112308:300,-0.39859,-0.000488,-0.302002,-0.005161,-0.005359,0.00403,-44.369999,-19.370001000000002,-36.060001,2b
2019-07-12_112308:320,-0.396545,0.0,-0.301483,-0.004703,-0.005298,0.004091,-44.369999,-19.370001000000002,-36.060001,2b
2019-07-12_112308:340,-0.395538,-0.001495,-0.302002,-0.004459,-0.005298,0.004182,-45.060001,-19.75,-37.25,2b
2019-07-12_112308:360,-0.395538,0.0,-0.29943800000000004,-0.0042450000000000005,-0.005359,0.0039689999999999994,-45.060001,-19.75,-37.25,2b
2019-07-12_112308:380,-0.396057,0.002014,-0.301483,-0.004275999999999999,-0.005756,0.0037549999999999997,-45.060001,-19.75,-37.25,2b
2019-07-12_112308:400,-0.396057,0.001495,-0.302002,-0.004459,-0.005939,0.003633,-44.369999,-19.75,-35.25,2b
2019-07-12_112308:420,-0.396057,0.002014,-0.29995700000000003,-0.004764,-0.005695,0.0037549999999999997,-44.369999,-19.75,-35.25,2b
2019-07-12_112308:440,-0.396545,0.002014,-0.301483,-0.004703,-0.005878,0.0038159999999999995,-45.5,-19.75,-36.869999,2b
2019-07-12_112308:460,-0.396057,0.0,-0.30300900000000003,-0.004612,-0.005939,0.004152,-45.5,-19.75,-36.869999,2b
2019-07-12_112308:480,-0.40011599999999997,0.001495,-0.30249000000000004,-0.004398,-0.005878,0.004548,-45.5,-19.75,-36.869999,2b
2019-07-12_112308:500,-0.39859,0.001007,-0.301483,-0.004520000000000001,-0.0055119999999999995,0.004732,-44.68,-19.75,-36.869999,2b
2019-07-12_112308:520,-0.399109,0.002014,-0.301483,-0.004520000000000001,-0.005359,0.004609,-44.68,-19.75,-36.869999,2b
2019-07-12_112308:540,-0.397064,0.002014,-0.300476,-0.005039,-0.005115,0.004518,-44.0,-19.370001000000002,-36.5,2b
2019-07-12_112308:560,-0.394531,-0.001007,-0.300964,-0.0052829999999999995,-0.005451,0.004152,-44.0,-19.370001000000002,-36.5,2b
2019-07-12_112308:580,-0.396057,-0.0025329999999999997,-0.302002,-0.005344,-0.005756,0.003633,-44.0,-19.370001000000002,-36.5,2b
2019-07-12_112308:600,-0.393494,-0.000488,-0.30249000000000004,-0.005161,-0.005939,0.0038469999999999997,-44.0,-19.75,-36.060001,2b
2019-07-12_112308:620,-0.394531,-0.001495,-0.29995700000000003,-0.004459,-0.005756,0.004915,-44.0,-19.75,-36.060001,2b
2019-07-12_112308:640,-0.395538,0.001007,-0.30249000000000004,-0.0042450000000000005,-0.005939,0.004793,-44.0,-19.75,-36.060001,2b
2019-07-12_112308:660,-0.397583,0.001495,-0.304535,-0.004581,-0.005573,0.0038469999999999997,-44.0,-19.75,-34.869999,2b
2019-07-12_112308:680,-0.399109,0.001007,-0.30249000000000004,-0.004764,-0.005359,0.00403,-44.0,-19.75,-34.869999,2b
2019-07-12_112308:700,-0.401123,0.0,-0.302002,-0.0051,-0.004993,0.004182,-43.18,-19.370001000000002,-36.869999,2b
2019-07-12_112308:720,-0.39859,-0.000488,-0.302002,-0.0052829999999999995,-0.00484,0.003511,-43.18,-19.370001000000002,-36.869999,2b
2019-07-12_112308:740,-0.396545,-0.001007,-0.300964,-0.004886,-0.004566,0.0037549999999999997,-43.18,-19.370001000000002,-36.869999,2b
2019-07-12_112308:760,-0.395538,-0.000488,-0.300476,-0.004459,-0.00484,0.003908,-43.560001,-19.370001000000002,-36.5,2b
2019-07-12_112308:780,-0.396545,0.000488,-0.29895,-0.004123,-0.005054,0.0039689999999999994,-43.560001,-19.370001000000002,-36.5,2b
2019-07-12_112308:800,-0.39502,0.0030210000000000002,-0.298431,-0.004001,-0.005176,0.004671,-44.0,-19.370001000000002,-35.68,2b
2019-07-12_112308:820,-0.395538,0.002014,-0.29943800000000004,-0.004337,-0.005451,0.004671,-44.0,-19.370001000000002,-35.68,2b
2019-07-12_112308:840,-0.395538,0.0025329999999999997,-0.300476,-0.0051,-0.005725,0.0034189999999999997,-44.68,-19.370001000000002,-36.5,2b
2019-07-12_112308:860,-0.395538,0.001007,-0.300476,-0.005436,-0.005939,0.00403,-44.68,-19.370001000000002,-36.5,2b
2019-07-12_112308:880,-0.398071,-0.001495,-0.300476,-0.005222,-0.005878,0.005128,-44.68,-19.370001000000002,-36.5,2b
2019-07-12_112308:900,-0.394012,-0.001007,-0.300476,-0.004978,-0.005939,0.004091,-44.0,-20.059998999999998,-36.060001,2b
2019-07-12_112308:920,-0.396545,0.0,-0.300964,-0.004886,-0.005939,0.003175,-44.0,-20.059998999999998,-36.060001,2b
2019-07-12_112308:940,-0.396545,0.0,-0.30300900000000003,-0.004520000000000001,-0.006092,0.00403,-44.0,-20.059998999999998,-36.060001,2b
2019-07-12_112308:960,-0.398071,0.000488,-0.30300900000000003,-0.004337,-0.0061530000000000005,0.003908,-44.0,-20.059998999999998,-36.869999,2b
2019-07-12_112308:980,-0.396545,0.0025329999999999997,-0.302002,-0.004520000000000001,-0.006,0.0034189999999999997,-44.0,-20.059998999999998,-36.869999,2b
2019-07-12_112309:000,-0.396057,0.001495,-0.30300900000000003,-0.004581,-0.005725,0.0038469999999999997,-44.0,-20.5,-36.5,2b
2019-07-12_112309:020,-0.397583,0.001495,-0.30249000000000004,-0.004612,-0.005634,0.004152,-44.0,-20.5,-36.5,2b
2019-07-12_112309:040,-0.395538,0.002014,-0.302002,-0.004825,-0.005817,0.0039689999999999994,-43.560001,-20.059998999999998,-36.060001,2b
2019-07-12_112309:060,-0.397583,0.002014,-0.30300900000000003,-0.004825,-0.005725,0.004457,-43.560001,-20.059998999999998,-36.060001,2b
2019-07-12_112309:080,-0.395538,0.001007,-0.302002,-0.004825,-0.0055119999999999995,0.004732,-43.560001,-20.059998999999998,-36.060001,2b
2019-07-12_112309:100,-0.396545,0.000488,-0.303528,-0.004886,-0.005573,0.004609,-43.560001,-19.75,-36.060001,2b
2019-07-12_112309:120,-0.397064,0.001007,-0.301483,-0.004947,-0.005451,0.004671,-43.560001,-19.75,-36.060001,2b
2019-07-12_112309:140,-0.398071,0.0,-0.303528,-0.004947,-0.0055119999999999995,0.004609,-43.560001,-19.75,-36.060001,2b
2019-07-12_112309:160,-0.398071,0.000488,-0.301483,-0.0051,-0.005176,0.004671,-44.0,-18.559998999999998,-35.68,2b
2019-07-12_112309:180,-0.397064,-0.001007,-0.300476,-0.0051,-0.005115,0.004548,-44.0,-18.559998999999998,-35.68,2b
2019-07-12_112309:200,-0.395538,-0.001007,-0.29943800000000004,-0.004825,-0.005054,0.004274,-44.0,-19.75,-36.060001,2b
2019-07-12_112309:220,-0.397064,-0.000488,-0.29943800000000004,-0.004642,-0.004993,0.004213000000000001,-44.0,-19.75,-36.060001,2b
2019-07-12_112309:240,-0.396545,0.0,-0.300476,-0.004581,-0.005176,0.004152,-44.0,-19.75,-36.060001,2b
2019-07-12_112309:260,-0.396057,0.0,-0.29995700000000003,-0.004398,-0.005359,0.004274,-44.0,-20.059998999999998,-35.68,2b
2019-07-12_112309:280,-0.395538,0.001007,-0.29995700000000003,-0.004459,-0.005634,0.004182,-44.0,-20.059998999999998,-35.68,2b
2019-07-12_112309:300,-0.39502,0.000488,-0.29995700000000003,-0.004612,-0.005878,0.004182,-44.369999,-20.5,-36.060001,2b
2019-07-12_112309:320,-0.396545,0.0,-0.300476,-0.004764,-0.006,0.004182,-44.369999,-20.5,-36.060001,2b
2019-07-12_112309:340,-0.39502,0.000488,-0.300476,-0.004886,-0.005756,0.004182,-44.369999,-20.5,-36.060001,2b
2019-07-12_112309:360,-0.395538,0.0,-0.302002,-0.004947,-0.006092,0.004152,-44.369999,-20.059998999999998,-35.25,2b
2019-07-12_112309:380,-0.395538,0.0,-0.301483,-0.004978,-0.006275,0.004518,-44.369999,-20.059998999999998,-35.25,2b
2019-07-12_112309:400,-0.40063499999999996,-0.000488,-0.304016,-0.004825,-0.006397,0.004793,-44.68,-20.059998999999998,-37.25,2b
2019-07-12_112309:420,-0.399597,-0.000488,-0.300964,-0.004886,-0.0060609999999999995,0.004396,-44.68,-20.059998999999998,-37.25,2b
2019-07-12_112309:440,-0.397583,-0.000488,-0.300964,-0.005222,-0.005634,0.004457,-44.68,-20.059998999999998,-37.25,2b
2019-07-12_112309:460,-0.398071,0.0,-0.303528,-0.005161,-0.005115,0.004396,-44.68,-19.75,-36.5,2b
2019-07-12_112309:480,-0.390961,-0.002014,-0.29995700000000003,-0.005222,-0.005054,0.0039689999999999994,-44.68,-19.75,-36.5,2b
2019-07-12_112309:500,-0.392487,-0.002014,-0.303528,-0.004947,-0.005634,0.003358,-44.0,-19.370001000000002,-37.25,2b
2019-07-12_112309:520,-0.395538,0.0,-0.300964,-0.004703,-0.0061530000000000005,0.002778,-44.0,-19.370001000000002,-37.25,2b
2019-07-12_112309:540,-0.39502,0.000488,-0.30300900000000003,-0.004275999999999999,-0.006,0.0038469999999999997,-44.0,-19.370001000000002,-37.25,2b
2019-07-12_112309:560,-0.397583,0.000488,-0.304535,-0.00394,-0.005756,0.004518,-44.369999,-20.059998999999998,-36.060001,2b
2019-07-12_112309:580,-0.395538,0.002014,-0.300964,-0.004337,-0.00539,0.00345,-44.369999,-20.059998999999998,-36.060001,2b
2019-07-12_112309:600,-0.396057,0.0030210000000000002,-0.30300900000000003,-0.004581,-0.005359,0.003297,-43.18,-19.370001000000002,-36.060001,2b
2019-07-12_112309:620,-0.399109,0.001007,-0.300964,-0.004947,-0.005298,0.003694,-43.18,-19.370001000000002,-36.060001,2b
2019-07-12_112309:640,-0.39859,0.0,-0.301483,-0.005222,-0.005298,0.0034189999999999997,-43.18,-19.370001000000002,-36.060001,2b
2019-07-12_112309:660,-0.399597,0.000488,-0.302002,-0.005222,-0.004993,0.003358,-44.0,-20.870001000000002,-36.5,2b
2019-07-12_112309:680,-0.397064,-0.000488,-0.29995700000000003,-0.004642,-0.005115,0.003572,-44.0,-20.870001000000002,-36.5,2b
2019-07-12_112309:700,-0.394531,0.0,-0.29943800000000004,-0.004184,-0.005176,0.003358,-44.0,-19.370001000000002,-34.869999,2b
2019-07-12_112309:720,-0.393494,0.004547,-0.297913,-0.003879,-0.005634,0.0038469999999999997,-44.0,-19.370001000000002,-34.869999,2b
2019-07-12_112309:740,-0.393005,0.002014,-0.29895,-0.003849,-0.005939,0.004213000000000001,-44.0,-19.370001000000002,-34.869999,2b
2019-07-12_112309:760,-0.396057,0.004059,-0.300964,-0.004184,-0.006458,0.002839,-43.560001,-20.059998999999998,-36.060001,2b
2019-07-12_112309:780,-0.39502,0.005065999999999999,-0.29943800000000004,-0.004520000000000001,-0.006793,0.0029620000000000002,-43.560001,-20.059998999999998,-36.060001,2b
2019-07-12_112309:800,-0.396545,0.0030210000000000002,-0.30249000000000004,-0.004275999999999999,-0.006945999999999999,0.004945000000000001,-44.68,-19.75,-35.68,2b
2019-07-12_112309:820,-0.397064,0.001495,-0.303528,-0.004398,-0.007129000000000001,0.004671,-44.68,-19.75,-35.68,2b
2019-07-12_112309:840,-0.396057,0.004059,-0.30249000000000004,-0.004642,-0.006793,0.0038159999999999995,-44.68,-19.75,-35.68,2b
2019-07-12_112309:860,-0.396545,0.0025329999999999997,-0.305542,-0.004703,-0.006793,0.004335,-45.060001,-20.5,-35.25,2b
2019-07-12_112309:880,-0.396057,0.001007,-0.304016,-0.004886,-0.006670999999999999,0.004213000000000001,-45.060001,-20.5,-35.25,2b
2019-07-12_112309:900,-0.397064,0.002014,-0.304535,-0.004978,-0.006548999999999999,0.004213000000000001,-44.0,-19.75,-36.060001,2b
2019-07-12_112309:920,-0.395538,0.001007,-0.303528,-0.004825,-0.006488,0.004548,-44.0,-19.75,-36.060001,2b
2019-07-12_112309:940,-0.397064,0.0,-0.304535,-0.004612,-0.006275,0.004152,-44.0,-19.75,-36.060001,2b
2019-07-12_112309:960,-0.395538,0.0,-0.305542,-0.004612,-0.0060609999999999995,0.004091,-44.0,-20.059998999999998,-36.5,2b
2019-07-12_112309:980,-0.39502,0.001007,-0.304016,-0.004459,-0.006092,0.004732,-44.0,-20.059998999999998,-36.5,2b
2019-07-12_112310:000,-0.395538,0.001495,-0.304535,-0.004642,-0.005939,0.004793,-44.369999,-19.75,-37.25,2b
2019-07-12_112310:020,-0.394012,0.0025329999999999997,-0.304535,-0.004764,-0.0061530000000000005,0.004793,-44.369999,-19.75,-37.25,2b
2019-07-12_112310:040,-0.393494,0.001495,-0.304535,-0.005161,-0.0061530000000000005,0.005006,-44.369999,-19.75,-37.25,2b
2019-07-12_112310:060,-0.395538,0.0,-0.306061,-0.005436,-0.006092,0.004793,-44.0,-20.059998999999998,-36.869999,2b
2019-07-12_112310:080,-0.397064,-0.000488,-0.305054,-0.005619,-0.006,0.004548,-44.0,-20.059998999999998,-36.869999,2b
2019-07-12_112310:100,-0.395538,-0.0025329999999999997,-0.305054,-0.005344,-0.005695,0.004609,-44.369999,-19.370001000000002,-36.869999,2b
2019-07-12_112310:120,-0.396057,-0.0030210000000000002,-0.30300900000000003,-0.004947,-0.005573,0.004518,-44.369999,-19.370001000000002,-36.869999,2b
2019-07-12_112310:140,-0.39502,-0.001007,-0.30249000000000004,-0.004581,-0.005359,0.004274,-44.369999,-19.370001000000002,-36.869999,2b
2019-07-12_112310:160,-0.393005,-0.000488,-0.306061,-0.004398,-0.005725,0.004152,-43.560001,-20.5,-36.060001,2b
2019-07-12_112310:180,-0.393494,0.0,-0.304016,-0.004398,-0.006,0.003908,-43.560001,-20.5,-36.060001,2b
2019-07-12_112310:200,-0.393494,0.001495,-0.306061,-0.004612,-0.005725,0.003694,-43.18,-19.0,-36.869999,2b
2019-07-12_112310:220,-0.393005,0.000488,-0.304535,-0.004642,-0.005817,0.0037549999999999997,-43.18,-19.0,-36.869999,2b
2019-07-12_112310:240,-0.396057,0.000488,-0.30654899999999996,-0.004642,-0.005695,0.0038159999999999995,-43.18,-19.0,-36.869999,2b
2019-07-12_112310:260,-0.394012,0.0,-0.305054,-0.004764,-0.005451,0.003908,-44.369999,-19.75,-36.060001,2b
2019-07-12_112310:280,-0.397583,0.0,-0.305054,-0.004612,-0.005451,0.00403,-44.369999,-19.75,-36.060001,2b
2019-07-12_112310:300,-0.397064,0.0030210000000000002,-0.303528,-0.004764,-0.004993,0.0038469999999999997,-44.0,-19.370001000000002,-36.060001,2b
2019-07-12_112310:320,-0.396545,0.001007,-0.302002,-0.004886,-0.004718,0.004182,-44.0,-19.370001000000002,-36.060001,2b
2019-07-12_112310:340,-0.394012,0.0,-0.306061,-0.004886,-0.00484,0.0039689999999999994,-44.0,-19.370001000000002,-36.060001,2b
2019-07-12_112310:360,-0.388916,0.001007,-0.301483,-0.0051,-0.004901,0.003297,-44.369999,-19.370001000000002,-36.060001,2b
2019-07-12_112310:380,-0.391479,0.001007,-0.304535,-0.004947,-0.005634,0.003175,-44.369999,-19.370001000000002,-36.060001,2b
2019-07-12_112310:400,-0.391968,0.001495,-0.304535,-0.004703,-0.006,0.0037549999999999997,-44.369999,-19.75,-35.68,2b
2019-07-12_112310:420,-0.394531,0.0030210000000000002,-0.304016,-0.004459,-0.0061530000000000005,0.004609,-44.369999,-19.75,-35.68,2b
2019-07-12_112310:440,-0.39502,0.002014,-0.304016,-0.004337,-0.005878,0.004274,-44.369999,-19.75,-35.68,2b
2019-07-12_112310:460,-0.394012,0.004547,-0.305054,-0.004947,-0.005695,0.003908,-43.18,-19.75,-36.869999,2b
2019-07-12_112310:480,-0.396057,0.004059,-0.304535,-0.005161,-0.00539,0.004457,-43.18,-19.75,-36.869999,2b
2019-07-12_112310:500,-0.397064,0.001495,-0.305542,-0.005741,-0.005298,0.004671,-43.18,-20.059998999999998,-36.869999,2b
2019-07-12_112310:520,-0.397064,0.001007,-0.30249000000000004,-0.005741,-0.005115,0.004213000000000001,-43.18,-20.059998999999998,-36.869999,2b
2019-07-12_112310:540,-0.396057,0.0,-0.305054,-0.005558,-0.00484,0.004213000000000001,-43.18,-20.059998999999998,-36.869999,2b
2019-07-12_112310:560,-0.395538,-0.001007,-0.304016,-0.0051,-0.004961999999999999,0.004457,-43.560001,-20.059998999999998,-36.869999,2b
2019-07-12_112310:580,-0.396057,0.001007,-0.300964,-0.004886,-0.005298,0.004274,-43.560001,-20.059998999999998,-36.869999,2b
2019-07-12_112310:600,-0.392487,0.002014,-0.304016,-0.004703,-0.005451,0.004793,-43.560001,-20.059998999999998,-36.5,2b
2019-07-12_112310:620,-0.391968,0.000488,-0.30249000000000004,-0.004612,-0.005695,0.004335,-43.560001,-20.059998999999998,-36.5,2b
2019-07-12_112310:640,-0.393494,0.002014,-0.305054,-0.005039,-0.006092,0.003114,-43.560001,-20.059998999999998,-36.5,2b
2019-07-12_112310:660,-0.393005,0.0030210000000000002,-0.30300900000000003,-0.005161,-0.006092,0.004091,-44.0,-20.870001000000002,-36.5,2b
2019-07-12_112310:680,-0.39502,0.000488,-0.304535,-0.004978,-0.005878,0.005311,-44.0,-20.870001000000002,-36.5,2b
2019-07-12_112310:700,-0.396057,-0.000488,-0.304535,-0.005344,-0.005695,0.004396,-44.68,-19.75,-36.5,2b
2019-07-12_112310:720,-0.394531,0.000488,-0.304016,-0.0052829999999999995,-0.005695,0.003572,-44.68,-19.75,-36.5,2b
2019-07-12_112310:740,-0.394531,0.0,-0.306061,-0.004978,-0.005695,0.004091,-44.68,-19.75,-36.5,2b
2019-07-12_112310:760,-0.394531,0.0,-0.303528,-0.004978,-0.0055119999999999995,0.0039689999999999994,-44.369999,-20.059998999999998,-36.060001,2b
2019-07-12_112310:780,-0.39502,0.001007,-0.306061,-0.004947,-0.00539,0.00345,-44.369999,-20.059998999999998,-36.060001,2b
2019-07-12_112310:800,-0.395538,0.0,-0.306061,-0.004642,-0.00539,0.003633,-44.369999,-20.059998999999998,-36.869999,2b
2019-07-12_112310:820,-0.394012,0.001495,-0.303528,-0.004398,-0.005298,0.003175,-44.369999,-20.059998999999998,-36.869999,2b
2019-07-12_112310:840,-0.394531,0.0035399999999999997,-0.304535,-0.004337,-0.00539,0.003297,-44.369999,-20.059998999999998,-36.869999,2b
2019-07-12_112310:860,-0.394531,0.0025329999999999997,-0.304016,-0.004337,-0.005054,0.003908,-44.369999,-20.059998999999998,-35.68,2b
2019-07-12_112310:880,-0.393494,0.0030210000000000002,-0.304016,-0.004520000000000001,-0.00539,0.004152,-44.369999,-20.059998999999998,-35.68,2b
2019-07-12_112310:900,-0.394531,0.004547,-0.304016,-0.004947,-0.00539,0.0038159999999999995,-44.0,-19.370001000000002,-37.25,2b
2019-07-12_112310:920,-0.394531,0.004547,-0.30249000000000004,-0.005344,-0.00539,0.004213000000000001,-44.0,-19.370001000000002,-37.25,2b
2019-07-12_112310:940,-0.39502,0.002014,-0.303528,-0.005741,-0.0055119999999999995,0.004213000000000001,-44.0,-19.370001000000002,-37.25,2b
2019-07-12_112310:960,-0.395538,0.001495,-0.30300900000000003,-0.005741,-0.005451,0.004182,-44.0,-20.059998999999998,-36.5,2b
2019-07-12_112310:980,-0.395538,0.0,-0.303528,-0.0052829999999999995,-0.0055119999999999995,0.004182,-44.0,-20.059998999999998,-36.5,2b
2019-07-12_112311:000,-0.396057,0.0,-0.30300900000000003,-0.004886,-0.0055119999999999995,0.004091,-44.0,-20.059998999999998,-35.25,2b
2019-07-12_112311:020,-0.396057,0.000488,-0.303528,-0.004337,-0.005634,0.00403,-44.0,-20.059998999999998,-35.25,2b
2019-07-12_112311:040,-0.394531,0.001495,-0.30300900000000003,-0.0042450000000000005,-0.005451,0.00403,-44.0,-20.059998999999998,-35.25,2b
2019-07-12_112311:060,-0.394531,0.0035399999999999997,-0.303528,-0.0042450000000000005,-0.005756,0.0038469999999999997,-43.560001,-19.75,-36.869999,2b
2019-07-12_112311:080,-0.393005,0.0030210000000000002,-0.302002,-0.004520000000000001,-0.005634,0.0037549999999999997,-43.560001,-19.75,-36.869999,2b
2019-07-12_112311:100,-0.394531,0.0035399999999999997,-0.305542,-0.004764,-0.006092,0.003694,-44.369999,-20.5,-36.5,2b
2019-07-12_112311:120,-0.393494,0.0025329999999999997,-0.30249000000000004,-0.004978,-0.006,0.0038469999999999997,-44.369999,-20.5,-36.5,2b
2019-07-12_112311:140,-0.397583,0.000488,-0.304016,-0.004886,-0.0061530000000000005,0.00403,-44.369999,-20.5,-36.5,2b
2019-07-12_112311:160,-0.396545,0.002014,-0.305054,-0.004825,-0.005939,0.004152,-43.560001,-19.75,-36.869999,2b
2019-07-12_112311:180,-0.396057,0.002014,-0.303528,-0.004886,-0.005817,0.004182,-43.560001,-19.75,-36.869999,2b
2019-07-12_112311:200,-0.396545,0.0030210000000000002,-0.306061,-0.004886,-0.005725,0.0038469999999999997,-44.369999,-20.059998999999998,-36.5,2b
2019-07-12_112311:220,-0.393005,0.001495,-0.30249000000000004,-0.004978,-0.005878,0.00345,-44.369999,-20.059998999999998,-36.5,2b
2019-07-12_112311:240,-0.393005,0.0025329999999999997,-0.305542,-0.004886,-0.006,0.003053,-44.369999,-20.059998999999998,-36.5,2b
2019-07-12_112311:260,-0.392487,0.002014,-0.306061,-0.004764,-0.0061530000000000005,0.003358,-43.18,-19.75,-36.869999,2b
2019-07-12_112311:280,-0.391968,0.0025329999999999997,-0.305542,-0.004398,-0.0061530000000000005,0.004457,-43.18,-19.75,-36.869999,2b
2019-07-12_112311:300,-0.394012,0.002014,-0.30654899999999996,-0.0042450000000000005,-0.006092,0.004609,-44.0,-20.059998999999998,-36.5,2b
2019-07-12_112311:320,-0.393494,0.004547,-0.304535,-0.004459,-0.005725,0.0039689999999999994,-44.0,-20.059998999999998,-36.5,2b
2019-07-12_112311:340,-0.39502,0.0055850000000000006,-0.305542,-0.004947,-0.005573,0.004091,-44.0,-20.059998999999998,-36.5,2b
2019-07-12_112311:360,-0.396545,0.0030210000000000002,-0.307068,-0.005344,-0.0052369999999999995,0.004548,-43.560001,-19.75,-37.68,2b
2019-07-12_112311:380,-0.397064,0.002014,-0.306061,-0.005497,-0.005054,0.0039689999999999994,-43.560001,-19.75,-37.68,2b
2019-07-12_112311:400,-0.394531,0.001007,-0.305054,-0.005344,-0.004993,0.003633,-44.0,-20.870001000000002,-36.5,2b
2019-07-12_112311:420,-0.395538,0.0,-0.304016,-0.004825,-0.0052369999999999995,0.003908,-44.0,-20.870001000000002,-36.5,2b
2019-07-12_112311:440,-0.394012,0.001007,-0.303528,-0.004459,-0.005298,0.0038469999999999997,-44.0,-20.870001000000002,-36.5,2b
2019-07-12_112311:460,-0.395538,0.0035399999999999997,-0.303528,-0.004184,-0.005176,0.004213000000000001,-44.369999,-20.5,-35.68,2b
2019-07-12_112311:480,-0.391968,0.0030210000000000002,-0.300476,-0.004001,-0.005298,0.004518,-44.369999,-20.5,-35.68,2b
2019-07-12_112311:500,-0.390961,0.004547,-0.304016,-0.004612,-0.005695,0.00345,-44.0,-20.059998999999998,-36.060001,2b
2019-07-12_112311:520,-0.391479,0.006592,-0.303528,-0.005161,-0.006214,0.003297,-44.0,-20.059998999999998,-36.060001,2b
2019-07-12_112311:540,-0.393494,0.002014,-0.30249000000000004,-0.005222,-0.006336,0.004732,-44.0,-20.059998999999998,-36.060001,2b
2019-07-12_112311:560,-0.394012,0.002014,-0.303528,-0.005222,-0.006397,0.004671,-44.0,-20.059998999999998,-37.25,2b
2019-07-12_112311:580,-0.394531,0.002014,-0.305542,-0.005344,-0.006214,0.003694,-44.0,-20.059998999999998,-37.25,2b
2019-07-12_112311:600,-0.395538,0.001495,-0.305542,-0.004764,-0.006092,0.0038469999999999997,-42.869999,-20.059998999999998,-36.5,2b
2019-07-12_112311:620,-0.396057,0.002014,-0.305054,-0.004581,-0.0060609999999999995,0.004091,-42.869999,-20.059998999999998,-36.5,2b
2019-07-12_112311:640,-0.396545,0.0025329999999999997,-0.305054,-0.004520000000000001,-0.005756,0.003572,-42.869999,-20.059998999999998,-36.5,2b
2019-07-12_112311:660,-0.393494,0.004547,-0.30654899999999996,-0.004459,-0.005756,0.003908,-43.560001,-20.059998999999998,-36.869999,2b
2019-07-12_112311:680,-0.393494,0.004547,-0.306061,-0.004520000000000001,-0.005939,0.004213000000000001,-43.560001,-20.059998999999998,-36.869999,2b
2019-07-12_112311:700,-0.394012,0.005065999999999999,-0.306061,-0.004612,-0.005817,0.003694,-44.369999,-20.059998999999998,-36.5,2b
2019-07-12_112311:720,-0.393494,0.0035399999999999997,-0.305054,-0.004764,-0.006092,0.00403,-44.369999,-20.059998999999998,-36.5,2b
2019-07-12_112311:740,-0.394531,0.0030210000000000002,-0.306061,-0.004703,-0.005878,0.004609,-44.369999,-20.059998999999998,-36.5,2b
2019-07-12_112311:760,-0.394531,0.0030210000000000002,-0.30654899999999996,-0.004978,-0.006092,0.004548,-43.560001,-20.059998999999998,-36.060001,2b
2019-07-12_112311:780,-0.394531,0.0035399999999999997,-0.30654899999999996,-0.0051,-0.005634,0.004396,-43.560001,-20.059998999999998,-36.060001,2b
2019-07-12_112311:800,-0.394531,0.002014,-0.305542,-0.005039,-0.005634,0.004335,-44.369999,-20.5,-36.869999,2b
2019-07-12_112311:820,-0.394531,0.0025329999999999997,-0.306061,-0.0051,-0.005573,0.004182,-44.369999,-20.5,-36.869999,2b
2019-07-12_112311:840,-0.394531,0.002014,-0.305054,-0.005039,-0.0055119999999999995,0.0039689999999999994,-44.369999,-20.5,-36.869999,2b
2019-07-12_112311:860,-0.393494,0.002014,-0.306061,-0.004764,-0.005573,0.00403,-44.369999,-20.059998999999998,-36.869999,2b
2019-07-12_112311:880,-0.393005,0.002014,-0.304016,-0.004581,-0.005573,0.0038159999999999995,-44.369999,-20.059998999999998,-36.869999,2b
2019-07-12_112311:900,-0.394012,0.0030210000000000002,-0.306061,-0.004520000000000001,-0.005573,0.003908,-43.18,-20.5,-36.060001,2b
2019-07-12_112311:920,-0.393494,0.004547,-0.303528,-0.0042450000000000005,-0.005573,0.0038469999999999997,-43.18,-20.5,-36.060001,2b
2019-07-12_112311:940,-0.394012,0.0035399999999999997,-0.305542,-0.004520000000000001,-0.005634,0.0038159999999999995,-43.18,-20.5,-36.060001,2b
2019-07-12_112311:960,-0.391968,0.005065999999999999,-0.305054,-0.004703,-0.005725,0.003694,-44.0,-20.870001000000002,-36.5,2b
2019-07-12_112311:980,-0.391968,0.0030210000000000002,-0.304016,-0.004764,-0.005634,0.003694,-44.0,-20.870001000000002,-36.5,2b
2019-07-12_112312:000,-0.394012,0.0035399999999999997,-0.307068,-0.004886,-0.005817,0.0038159999999999995,-43.18,-19.0,-37.25,2b
2019-07-12_112312:020,-0.394012,0.0030210000000000002,-0.305542,-0.004886,-0.005939,0.004091,-43.18,-19.0,-37.25,2b
2019-07-12_112312:040,-0.396545,0.004547,-0.305542,-0.004642,-0.005634,0.004182,-43.18,-19.0,-37.25,2b
2019-07-12_112312:060,-0.39502,0.004059,-0.305054,-0.004642,-0.005176,0.004274,-43.560001,-19.370001000000002,-37.68,2b
2019-07-12_112312:080,-0.397064,0.004547,-0.305542,-0.004764,-0.005298,0.004152,-43.560001,-19.370001000000002,-37.68,2b
2019-07-12_112312:100,-0.391479,0.004059,-0.304535,-0.005161,-0.005359,0.0038159999999999995,-44.369999,-20.059998999999998,-36.869999,2b
2019-07-12_112312:120,-0.390442,0.002014,-0.305054,-0.005161,-0.005573,0.003511,-44.369999,-20.059998999999998,-36.869999,2b
2019-07-12_112312:140,-0.393494,0.0025329999999999997,-0.305542,-0.004978,-0.0061530000000000005,0.003023,-44.369999,-20.059998999999998,-36.869999,2b
2019-07-12_112312:160,-0.391479,0.0030210000000000002,-0.307068,-0.004612,-0.0060609999999999995,0.0038469999999999997,-43.560001,-19.75,-36.5,2b
2019-07-12_112312:180,-0.392487,0.0025329999999999997,-0.30654899999999996,-0.004062,-0.0060609999999999995,0.004548,-43.560001,-19.75,-36.5,2b
2019-07-12_112312:200,-0.393005,0.0055850000000000006,-0.307587,-0.004001,-0.005695,0.004091,-42.869999,-19.75,-37.25,2b
2019-07-12_112312:220,-0.39502,0.007111,-0.307587,-0.004520000000000001,-0.0055119999999999995,0.0037549999999999997,-42.869999,-19.75,-37.25,2b
2019-07-12_112312:240,-0.397064,0.005065999999999999,-0.30654899999999996,-0.005039,-0.005359,0.004457,-42.869999,-19.75,-37.25,2b
2019-07-12_112312:260,-0.396545,0.004547,-0.307068,-0.005375,-0.004901,0.004274,-43.560001,-20.5,-36.869999,2b
2019-07-12_112312:280,-0.394012,0.004059,-0.306061,-0.005497,-0.004566,0.0038469999999999997,-43.560001,-20.5,-36.869999,2b
2019-07-12_112312:300,-0.393005,0.002014,-0.306061,-0.005222,-0.0045049999999999995,0.004182,-42.869999,-20.5,-36.869999,2b
2019-07-12_112312:320,-0.393494,0.0025329999999999997,-0.304016,-0.004703,-0.00484,0.004091,-42.869999,-20.5,-36.869999,2b
2019-07-12_112312:340,-0.396545,0.0035399999999999997,-0.30249000000000004,-0.004459,-0.005054,0.004152,-42.869999,-20.5,-36.869999,2b
2019-07-12_112312:360,-0.391968,0.004547,-0.302002,-0.004184,-0.004901,0.004518,-44.0,-20.5,-36.060001,2b
2019-07-12_112312:380,-0.391479,0.0035399999999999997,-0.30249000000000004,-0.004398,-0.00539,0.003908,-44.0,-20.5,-36.060001,2b
2019-07-12_112312:400,-0.391479,0.007111,-0.304016,-0.004947,-0.005695,0.003023,-43.18,-19.370001000000002,-36.869999,2b
2019-07-12_112312:420,-0.391968,0.004547,-0.30300900000000003,-0.004947,-0.0060609999999999995,0.004335,-43.18,-19.370001000000002,-36.869999,2b
2019-07-12_112312:440,-0.394531,0.0025329999999999997,-0.305054,-0.004764,-0.005939,0.005067,-43.18,-19.370001000000002,-36.869999,2b
2019-07-12_112312:460,-0.395538,0.0030210000000000002,-0.305054,-0.004978,-0.006336,0.003908,-43.18,-20.5,-35.68,2b
2019-07-12_112312:480,-0.394012,0.0035399999999999997,-0.305542,-0.004825,-0.005939,0.0037549999999999997,-43.18,-20.5,-35.68,2b
2019-07-12_112312:500,-0.395538,0.0030210000000000002,-0.305054,-0.004825,-0.006214,0.004274,-43.560001,-20.059998999999998,-36.5,2b
2019-07-12_112312:520,-0.395538,0.004059,-0.304016,-0.004886,-0.006,0.003908,-43.560001,-20.059998999999998,-36.5,2b
2019-07-12_112312:540,-0.394012,0.005065999999999999,-0.305054,-0.004703,-0.005756,0.003694,-43.560001,-20.059998999999998,-36.5,2b
2019-07-12_112312:560,-0.391479,0.0035399999999999997,-0.306061,-0.004764,-0.005756,0.00403,-44.0,-20.5,-36.060001,2b
2019-07-12_112312:580,-0.393005,0.004059,-0.305542,-0.004520000000000001,-0.005756,0.003908,-44.0,-20.5,-36.060001,2b
2019-07-12_112312:600,-0.393494,0.006072999999999999,-0.307587,-0.004520000000000001,-0.005756,0.00403,-43.560001,-19.75,-36.5,2b
2019-07-12_112312:620,-0.394012,0.006072999999999999,-0.306061,-0.004612,-0.005817,0.004182,-43.560001,-19.75,-36.5,2b
2019-07-12_112312:640,-0.394012,0.0055850000000000006,-0.307068,-0.004764,-0.005695,0.004213000000000001,-43.560001,-19.75,-36.5,2b
2019-07-12_112312:660,-0.395538,0.006592,-0.307068,-0.004947,-0.005695,0.004335,-42.5,-20.5,-36.869999,2b
2019-07-12_112312:680,-0.394531,0.0035399999999999997,-0.306061,-0.0052829999999999995,-0.005573,0.004548,-42.5,-20.5,-36.869999,2b
2019-07-12_112312:700,-0.394012,0.0030210000000000002,-0.30654899999999996,-0.005344,-0.005451,0.004274,-43.560001,-20.059998999999998,-36.5,2b
2019-07-12_112312:720,-0.394012,0.0030210000000000002,-0.303528,-0.005039,-0.00539,0.004152,-43.560001,-20.059998999999998,-36.5,2b
2019-07-12_112312:740,-0.393494,0.001007,-0.304535,-0.004886,-0.005359,0.00403,-43.560001,-20.059998999999998,-36.5,2b
2019-07-12_112312:760,-0.391479,0.0030210000000000002,-0.305054,-0.004459,-0.0055119999999999995,0.0039689999999999994,-44.0,-20.059998999999998,-36.5,2b
2019-07-12_112312:780,-0.393005,0.0035399999999999997,-0.304016,-0.004123,-0.005298,0.004213000000000001,-44.0,-20.059998999999998,-36.5,2b
2019-07-12_112312:800,-0.393494,0.004547,-0.305542,-0.004001,-0.0055119999999999995,0.004335,-43.560001,-20.059998999999998,-36.869999,2b
2019-07-12_112312:820,-0.393494,0.0055850000000000006,-0.305542,-0.004337,-0.005756,0.004335,-43.560001,-20.059998999999998,-36.869999,2b
2019-07-12_112312:840,-0.396057,0.004547,-0.306061,-0.004612,-0.005725,0.004213000000000001,-43.560001,-20.059998999999998,-36.869999,2b
2019-07-12_112312:860,-0.396057,0.004547,-0.305542,-0.004978,-0.005695,0.004091,-43.18,-20.059998999999998,-36.5,2b
2019-07-12_112312:880,-0.392487,0.0030210000000000002,-0.305054,-0.005222,-0.0055119999999999995,0.004152,-43.18,-20.059998999999998,-36.5,2b
2019-07-12_112312:900,-0.392487,0.002014,-0.305542,-0.005344,-0.005573,0.004182,-43.18,-20.5,-37.25,2b
2019-07-12_112312:920,-0.390961,0.002014,-0.305054,-0.004947,-0.005725,0.004213000000000001,-43.18,-20.5,-37.25,2b
2019-07-12_112312:940,-0.394531,0.002014,-0.30654899999999996,-0.004642,-0.006,0.004274,-43.18,-20.5,-37.25,2b
2019-07-12_112312:960,-0.39502,0.0035399999999999997,-0.304535,-0.004612,-0.005939,0.004182,-43.560001,-20.870001000000002,-36.869999,2b
2019-07-12_112312:980,-0.395538,0.004547,-0.305054,-0.004459,-0.0055119999999999995,0.004152,-43.560001,-20.870001000000002,-36.869999,2b
2019-07-12_112313:000,-0.395538,0.005065999999999999,-0.305542,-0.004764,-0.0055119999999999995,0.0038469999999999997,-43.560001,-20.059998999999998,-37.68,2b
2019-07-12_112313:020,-0.391968,0.0030210000000000002,-0.304016,-0.005161,-0.005359,0.00345,-43.560001,-20.059998999999998,-37.68,2b
2019-07-12_112313:040,-0.391479,0.002014,-0.308075,-0.005039,-0.005756,0.003053,-43.560001,-20.059998999999998,-37.68,2b
2019-07-12_112313:060,-0.392487,0.0030210000000000002,-0.306061,-0.004947,-0.005756,0.003053,-44.0,-20.5,-37.68,2b
2019-07-12_112313:080,-0.391479,0.0035399999999999997,-0.306061,-0.004184,-0.006,0.004152,-44.0,-20.5,-37.68,2b
2019-07-12_112313:100,-0.391968,0.004059,-0.307068,-0.00394,-0.005756,0.004609,-42.869999,-20.5,-36.5,2b
2019-07-12_112313:120,-0.394012,0.006592,-0.306061,-0.004184,-0.005817,0.0037549999999999997,-42.869999,-20.5,-36.5,2b
2019-07-12_112313:140,-0.396057,0.008636,-0.306061,-0.004581,-0.005573,0.0039689999999999994,-42.869999,-20.5,-36.5,2b
2019-07-12_112313:160,-0.397583,0.007599,-0.308075,-0.005161,-0.0052369999999999995,0.004396,-43.560001,-20.870001000000002,-37.25,2b
2019-07-12_112313:180,-0.39502,0.005065999999999999,-0.304535,-0.005436,-0.004657,0.004091,-43.560001,-20.870001000000002,-37.25,2b
2019-07-12_112313:200,-0.393494,0.004059,-0.305542,-0.005344,-0.004566,0.003908,-44.0,-20.059998999999998,-36.869999,2b
2019-07-12_112313:220,-0.393494,0.0030210000000000002,-0.304016,-0.004886,-0.004961999999999999,0.004213000000000001,-44.0,-20.059998999999998,-36.869999,2b
2019-07-12_112313:240,-0.392487,0.004547,-0.30249000000000004,-0.004275999999999999,-0.005115,0.004091,-44.0,-20.059998999999998,-36.869999,2b
2019-07-12_112313:260,-0.393494,0.007111,-0.304016,-0.004123,-0.005451,0.004457,-43.560001,-20.5,-36.869999,2b
2019-07-12_112313:280,-0.391479,0.0055850000000000006,-0.30249000000000004,-0.004275999999999999,-0.005725,0.004915,-43.560001,-20.5,-36.869999,2b
2019-07-12_112313:300,-0.389954,0.005065999999999999,-0.305542,-0.004947,-0.0060609999999999995,0.0038159999999999995,-42.869999,-20.059998999999998,-36.5,2b
2019-07-12_112313:320,-0.391479,0.005065999999999999,-0.303528,-0.005375,-0.006336,0.0032359999999999997,-42.869999,-20.059998999999998,-36.5,2b
2019-07-12_112313:340,-0.39502,0.0035399999999999997,-0.307068,-0.004947,-0.006275,0.004732,-42.869999,-20.059998999999998,-36.5,2b
2019-07-12_112313:360,-0.394012,0.0025329999999999997,-0.306061,-0.004947,-0.0060609999999999995,0.004793,-44.0,-20.5,-36.5,2b
2019-07-12_112313:380,-0.392487,0.0035399999999999997,-0.307068,-0.004825,-0.005939,0.003633,-44.0,-20.5,-36.5,2b
2019-07-12_112313:400,-0.391968,0.0035399999999999997,-0.307068,-0.004581,-0.0060609999999999995,0.00403,-43.18,-19.75,-36.869999,2b
2019-07-12_112313:420,-0.394531,0.004059,-0.307068,-0.004520000000000001,-0.0060609999999999995,0.004396,-43.18,-19.75,-36.869999,2b
2019-07-12_112313:440,-0.39502,0.005065999999999999,-0.308075,-0.004825,-0.005878,0.0038469999999999997,-43.18,-19.75,-36.869999,2b
2019-07-12_112313:460,-0.394531,0.005065999999999999,-0.307587,-0.004978,-0.005634,0.003908,-44.0,-20.5,-36.869999,2b
2019-07-12_112313:480,-0.393494,0.004059,-0.305542,-0.004825,-0.005573,0.0039689999999999994,-44.0,-20.5,-36.869999,2b
2019-07-12_112313:500,-0.392487,0.0030210000000000002,-0.306061,-0.004825,-0.0055119999999999995,0.0037549999999999997,-43.560001,-20.870001000000002,-36.869999,2b
2019-07-12_112313:520,-0.391968,0.005065999999999999,-0.305054,-0.004703,-0.00539,0.0038159999999999995,-43.560001,-20.870001000000002,-36.869999,2b
2019-07-12_112313:540,-0.391968,0.0055850000000000006,-0.306061,-0.004581,-0.005695,0.004274,-43.560001,-20.870001000000002,-36.869999,2b
2019-07-12_112313:560,-0.392487,0.004547,-0.306061,-0.004642,-0.005573,0.004182,-43.18,-20.5,-36.869999,2b
2019-07-12_112313:580,-0.393494,0.0055850000000000006,-0.30654899999999996,-0.004642,-0.005634,0.0039689999999999994,-43.18,-20.5,-36.869999,2b
2019-07-12_112313:600,-0.394531,0.004059,-0.306061,-0.004978,-0.005695,0.004182,-43.560001,-20.059998999999998,-36.869999,2b
2019-07-12_112313:620,-0.394531,0.0035399999999999997,-0.304016,-0.004764,-0.0055119999999999995,0.0039689999999999994,-43.560001,-20.059998999999998,-36.869999,2b
2019-07-12_112313:640,-0.394531,0.004059,-0.305054,-0.004825,-0.00539,0.0038469999999999997,-43.560001,-20.059998999999998,-36.869999,2b
2019-07-12_112313:660,-0.393494,0.0035399999999999997,-0.304535,-0.004612,-0.005451,0.004091,-43.18,-20.870001000000002,-36.869999,2b
2019-07-12_112313:680,-0.393005,0.004547,-0.304535,-0.004459,-0.0055119999999999995,0.004182,-43.18,-20.870001000000002,-36.869999,2b
2019-07-12_112313:700,-0.391479,0.007111,-0.305542,-0.004703,-0.005725,0.004091,-43.560001,-20.059998999999998,-37.68,2b
2019-07-12_112313:720,-0.393494,0.0055850000000000006,-0.304016,-0.004612,-0.005695,0.004152,-43.560001,-20.059998999999998,-37.68,2b
2019-07-12_112313:740,-0.393494,0.005065999999999999,-0.305054,-0.004886,-0.006,0.0039689999999999994,-43.560001,-20.059998999999998,-37.68,2b
2019-07-12_112313:760,-0.393005,0.004059,-0.305054,-0.004825,-0.005756,0.00403,-44.0,-20.059998999999998,-36.869999,2b
2019-07-12_112313:780,-0.391479,0.004547,-0.305542,-0.004764,-0.0060609999999999995,0.004091,-44.0,-20.059998999999998,-36.869999,2b
2019-07-12_112313:800,-0.392487,0.0030210000000000002,-0.30654899999999996,-0.004703,-0.006458,0.0039689999999999994,-44.0,-20.5,-35.25,2b
2019-07-12_112313:820,-0.391968,0.004547,-0.305542,-0.004642,-0.006336,0.0039689999999999994,-44.0,-20.5,-35.25,2b
2019-07-12_112313:840,-0.396545,0.004547,-0.307068,-0.004459,-0.006670999999999999,0.004274,-44.0,-20.5,-35.25,2b
2019-07-12_112313:860,-0.396057,0.005065999999999999,-0.307068,-0.004642,-0.0060609999999999995,0.004152,-43.560001,-20.870001000000002,-37.25,2b
2019-07-12_112313:880,-0.394012,0.006072999999999999,-0.307068,-0.004612,-0.005756,0.004182,-43.560001,-20.870001000000002,-37.25,2b
2019-07-12_112313:900,-0.391479,0.006072999999999999,-0.307587,-0.0051,-0.005756,0.0039689999999999994,-44.369999,-20.059998999999998,-37.25,2b
2019-07-12_112313:920,-0.38739,0.004059,-0.305542,-0.005222,-0.0060609999999999995,0.003633,-44.369999,-20.059998999999998,-37.25,2b
2019-07-12_112313:940,-0.391479,0.0035399999999999997,-0.307587,-0.0051,-0.006731999999999999,0.0029,-44.369999,-20.059998999999998,-37.25,2b
2019-07-12_112313:960,-0.391968,0.005065999999999999,-0.309113,-0.004764,-0.006854000000000001,0.003023,-43.18,-20.5,-36.869999,2b
2019-07-12_112313:980,-0.393005,0.005065999999999999,-0.309601,-0.004001,-0.006397,0.004457,-43.18,-20.5,-36.869999,2b
2019-07-12_112314:000,-0.393494,0.004547,-0.310638,-0.003879,-0.005756,0.004182,-42.869999,-20.5,-36.060001,2b
2019-07-12_112314:020,-0.391968,0.007599,-0.308594,-0.004184,-0.005359,0.003175,-42.869999,-20.5,-36.060001,2b
2019-07-12_112314:040,-0.391479,0.007599,-0.309601,-0.004612,-0.005176,0.0038469999999999997,-42.869999,-20.5,-36.060001,2b
2019-07-12_112314:060,-0.394531,0.007599,-0.308594,-0.004703,-0.005054,0.004152,-44.0,-20.059998999999998,-37.25,2b
2019-07-12_112314:080,-0.395538,0.0055850000000000006,-0.307068,-0.0051,-0.004961999999999999,0.00345,-44.0,-20.059998999999998,-37.25,2b
2019-07-12_112314:100,-0.395538,0.004547,-0.307068,-0.004978,-0.004657,0.0037549999999999997,-42.869999,-20.870001000000002,-36.060001,2b
2019-07-12_112314:120,-0.393494,0.005065999999999999,-0.306061,-0.004520000000000001,-0.004657,0.004152,-42.869999,-20.870001000000002,-36.060001,2b
2019-07-12_112314:140,-0.391968,0.0055850000000000006,-0.304016,-0.004398,-0.0045049999999999995,0.0037549999999999997,-42.869999,-20.870001000000002,-36.060001,2b
2019-07-12_112314:160,-0.391968,0.007599,-0.305542,-0.004398,-0.004993,0.004274,-43.560001,-19.75,-37.68,2b
2019-07-12_112314:180,-0.389435,0.005065999999999999,-0.303528,-0.004398,-0.005298,0.004396,-43.560001,-19.75,-37.68,2b
2019-07-12_112314:200,-0.390442,0.006592,-0.306061,-0.004612,-0.005939,0.003053,-43.18,-20.870001000000002,-36.75,2b
2019-07-12_112314:220,-0.392487,0.007111,-0.304535,-0.004642,-0.006214,0.003633,-43.18,-20.870001000000002,-36.75,2b
2019-07-12_112314:240,-0.393005,0.005065999999999999,-0.305054,-0.004459,-0.006275,0.005342,-43.18,-20.870001000000002,-36.75,2b
2019-07-12_112314:260,-0.392487,0.004547,-0.30654899999999996,-0.004459,-0.006397,0.004213000000000001,-43.18,-20.5,-35.68,2b
2019-07-12_112314:280,-0.391968,0.007599,-0.306061,-0.004764,-0.006275,0.00345,-43.18,-20.5,-35.68,2b
2019-07-12_112314:300,-0.394012,0.006072999999999999,-0.309113,-0.004612,-0.006336,0.004213000000000001,-43.18,-20.059998999999998,-36.060001,2b
2019-07-12_112314:320,-0.393005,0.004059,-0.306061,-0.004825,-0.0061530000000000005,0.00403,-43.18,-20.059998999999998,-36.060001,2b
2019-07-12_112314:340,-0.392487,0.006072999999999999,-0.307068,-0.005039,-0.0060609999999999995,0.00345,-43.18,-20.059998999999998,-36.060001,2b
2019-07-12_112314:360,-0.393005,0.0055850000000000006,-0.307068,-0.004825,-0.006214,0.0039689999999999994,-43.18,-20.059998999999998,-36.5,2b
2019-07-12_112314:380,-0.393005,0.004059,-0.308075,-0.004703,-0.005817,0.003694,-43.18,-20.059998999999998,-36.5,2b
2019-07-12_112314:400,-0.392487,0.0055850000000000006,-0.309113,-0.004764,-0.005939,0.0032359999999999997,-43.18,-20.5,-36.060001,2b
2019-07-12_112314:420,-0.393494,0.006592,-0.308594,-0.004337,-0.005939,0.0039689999999999994,-43.18,-20.5,-36.060001,2b
2019-07-12_112314:440,-0.391479,0.007599,-0.307587,-0.004337,-0.005878,0.004152,-43.18,-20.5,-36.060001,2b
2019-07-12_112314:460,-0.393005,0.007599,-0.308075,-0.004337,-0.005756,0.003633,-43.18,-21.25,-36.869999,2b
2019-07-12_112314:480,-0.390961,0.010162000000000001,-0.307068,-0.004642,-0.005695,0.0039689999999999994,-43.18,-21.25,-36.869999,2b
2019-07-12_112314:500,-0.391479,0.009125,-0.309113,-0.004886,-0.005695,0.004335,-43.560001,-20.870001000000002,-36.5,2b
2019-07-12_112314:520,-0.392487,0.008118,-0.307068,-0.0051,-0.006,0.004671,-43.560001,-20.870001000000002,-36.5,2b
2019-07-12_112314:540,-0.394531,0.0055850000000000006,-0.309601,-0.0051,-0.005725,0.004609,-43.560001,-20.870001000000002,-36.5,2b
2019-07-12_112314:560,-0.396057,0.005065999999999999,-0.309113,-0.004947,-0.005451,0.004671,-44.0,-20.059998999999998,-37.25,2b
2019-07-12_112314:580,-0.394012,0.005065999999999999,-0.309113,-0.004764,-0.004993,0.004671,-44.0,-20.059998999999998,-37.25,2b
2019-07-12_112314:600,-0.394012,0.006072999999999999,-0.308594,-0.004581,-0.004657,0.004671,-44.0,-20.5,-37.25,2b
2019-07-12_112314:620,-0.389954,0.005065999999999999,-0.305542,-0.004764,-0.004779,0.004457,-44.0,-20.5,-37.25,2b
2019-07-12_112314:640,-0.388916,0.006592,-0.307587,-0.004886,-0.004961999999999999,0.004518,-44.0,-20.5,-37.25,2b
2019-07-12_112314:660,-0.389435,0.0055850000000000006,-0.307068,-0.004978,-0.005054,0.004396,-43.18,-20.5,-37.68,2b
2019-07-12_112314:680,-0.390961,0.0035399999999999997,-0.306061,-0.004978,-0.005298,0.004548,-43.18,-20.5,-37.68,2b
2019-07-12_112314:700,-0.396057,0.004059,-0.307587,-0.004764,-0.005054,0.004548,-42.869999,-20.059998999999998,-37.25,2b
2019-07-12_112314:720,-0.39502,0.0035399999999999997,-0.305542,-0.004459,-0.004901,0.004732,-42.869999,-20.059998999999998,-37.25,2b
2019-07-12_112314:740,-0.395538,0.001495,-0.307587,-0.00394,-0.004961999999999999,0.004518,-42.869999,-20.059998999999998,-37.25,2b
2019-07-12_112314:760,-0.388916,0.002014,-0.30654899999999996,-0.003788,-0.005054,0.0038469999999999997,-44.0,-20.059998999999998,-36.060001,2b
2019-07-12_112314:780,-0.389435,0.004547,-0.306061,-0.003208,-0.005695,0.0038469999999999997,-44.0,-20.059998999999998,-36.060001,2b
2019-07-12_112314:800,-0.391968,0.007111,-0.308075,-0.0032689999999999998,-0.005817,0.0037549999999999997,-43.560001,-20.5,-36.060001,2b
2019-07-12_112314:820,-0.391479,0.009644,-0.308594,-0.0033909999999999995,-0.005939,0.004518,-43.560001,-20.5,-36.060001,2b
2019-07-12_112314:840,-0.391968,0.008118,-0.309113,-0.003879,-0.005634,0.004854,-43.560001,-20.5,-36.060001,2b
2019-07-12_112314:860,-0.391968,0.009125,-0.309601,-0.004703,-0.005359,0.004091,-43.560001,-20.5,-35.25,2b
2019-07-12_112314:880,-0.391479,0.007599,-0.308594,-0.005344,-0.0052369999999999995,0.004274,-43.560001,-20.5,-35.25,2b
2019-07-12_112314:900,-0.39502,0.0055850000000000006,-0.308594,-0.005344,-0.004779,0.005128,-42.869999,-20.059998999999998,-37.68,2b
2019-07-12_112314:920,-0.394531,0.0030210000000000002,-0.30654899999999996,-0.005344,-0.004718,0.004945000000000001,-42.869999,-20.059998999999998,-37.68,2b
2019-07-12_112314:940,-0.397064,0.002014,-0.309113,-0.005161,-0.004657,0.004518,-42.869999,-20.059998999999998,-37.68,2b
2019-07-12_112314:960,-0.393494,0.002014,-0.307068,-0.004581,-0.004169,0.004609,-43.18,-20.059998999999998,-36.5,2b
2019-07-12_112314:980,-0.393494,0.004059,-0.305542,-0.004275999999999999,-0.004229999999999999,0.004518,-43.18,-20.059998999999998,-36.5,2b
2019-07-12_112315:000,-0.394012,0.005065999999999999,-0.306061,-0.004337,-0.004321,0.004793,-44.369999,-20.5,-36.0,2b
2019-07-12_112315:020,-0.390442,0.004547,-0.303528,-0.004459,-0.004321,0.005525,-44.369999,-20.5,-36.0,2b
2019-07-12_112315:040,-0.389954,0.004547,-0.304535,-0.004886,-0.004718,0.004396,-44.369999,-20.5,-36.0,2b
2019-07-12_112315:060,-0.393494,0.0055850000000000006,-0.304535,-0.005344,-0.004993,0.0038159999999999995,-43.560001,-20.5,-35.68,2b
2019-07-12_112315:080,-0.394012,0.0035399999999999997,-0.304535,-0.005375,-0.005298,0.005189,-43.560001,-20.5,-35.68,2b
2019-07-12_112315:100,-0.395538,0.002014,-0.304016,-0.005222,-0.00484,0.005586,-43.560001,-20.5,-37.25,2b
2019-07-12_112315:120,-0.394012,0.0025329999999999997,-0.303528,-0.0052829999999999995,-0.005115,0.004548,-43.560001,-20.5,-37.25,2b
2019-07-12_112315:140,-0.392487,0.0030210000000000002,-0.304535,-0.0052829999999999995,-0.005054,0.004518,-43.560001,-20.5,-37.25,2b
2019-07-12_112315:160,-0.392487,0.002014,-0.303528,-0.0051,-0.0055119999999999995,0.004609,-44.0,-20.5,-36.0,2b
2019-07-12_112315:180,-0.391479,0.002014,-0.304016,-0.005222,-0.005878,0.004213000000000001,-44.0,-20.5,-36.0,2b
2019-07-12_112315:200,-0.393005,0.0030210000000000002,-0.304535,-0.005344,-0.0060609999999999995,0.004274,-43.560001,-20.5,-37.18,2b
2019-07-12_112315:220,-0.39502,0.002014,-0.302002,-0.0051,-0.006214,0.004335,-43.560001,-20.5,-37.18,2b
2019-07-12_112315:240,-0.39502,0.001495,-0.304535,-0.005039,-0.0061530000000000005,0.0038469999999999997,-43.560001,-20.5,-37.18,2b
2019-07-12_112315:260,-0.393494,0.0025329999999999997,-0.306061,-0.004764,-0.005939,0.0038469999999999997,-43.18,-20.5,-36.369999,2b
2019-07-12_112315:280,-0.393005,0.002014,-0.305542,-0.004520000000000001,-0.006214,0.004091,-43.18,-20.5,-36.369999,2b
2019-07-12_112315:300,-0.391479,0.004059,-0.305542,-0.004459,-0.006488,0.003908,-42.869999,-20.5,-36.0,2b
2019-07-12_112315:320,-0.391479,0.0055850000000000006,-0.305542,-0.004642,-0.006488,0.003908,-42.869999,-20.5,-36.0,2b
2019-07-12_112315:340,-0.391479,0.004547,-0.30654899999999996,-0.004947,-0.006548999999999999,0.004213000000000001,-42.869999,-20.5,-36.0,2b
2019-07-12_112315:360,-0.394531,0.004059,-0.308075,-0.005222,-0.006548999999999999,0.0039689999999999994,-44.0,-19.75,-36.75,2b
2019-07-12_112315:380,-0.396057,0.004547,-0.307068,-0.005344,-0.006214,0.00403,-44.0,-19.75,-36.75,2b
2019-07-12_112315:400,-0.39502,0.0030210000000000002,-0.307587,-0.005497,-0.005939,0.004091,-43.18,-20.059998999999998,-37.18,2b
2019-07-12_112315:420,-0.39502,0.002014,-0.30654899999999996,-0.005436,-0.005878,0.0038469999999999997,-43.18,-20.059998999999998,-37.18,2b
2019-07-12_112315:440,-0.389954,0.002014,-0.307587,-0.005222,-0.005634,0.003633,-43.18,-20.059998999999998,-37.18,2b
2019-07-12_112315:460,-0.389954,0.0025329999999999997,-0.308594,-0.004764,-0.005756,0.0032359999999999997,-44.0,-20.059998999999998,-36.369999,2b
2019-07-12_112315:480,-0.391968,0.004547,-0.308075,-0.004398,-0.006,0.0032359999999999997,-44.0,-20.059998999999998,-36.369999,2b
2019-07-12_112315:500,-0.391968,0.006072999999999999,-0.308594,-0.004062,-0.005939,0.003633,-44.0,-20.059998999999998,-36.68,2b
2019-07-12_112315:520,-0.396545,0.007111,-0.30654899999999996,-0.00394,-0.005756,0.003908,-44.0,-20.059998999999998,-36.68,2b
2019-07-12_112315:540,-0.395538,0.008118,-0.306061,-0.004275999999999999,-0.005451,0.003908,-44.0,-20.059998999999998,-36.68,2b
2019-07-12_112315:560,-0.396057,0.008118,-0.307587,-0.004612,-0.004993,0.004091,-43.18,-20.870001000000002,-36.75,2b
2019-07-12_112315:580,-0.393005,0.008636,-0.306061,-0.005344,-0.004779,0.0038159999999999995,-43.18,-20.870001000000002,-36.75,2b
2019-07-12_112315:600,-0.389954,0.0055850000000000006,-0.307587,-0.005619,-0.005054,0.0037549999999999997,-43.560001,-20.5,-36.369999,2b
2019-07-12_112315:620,-0.390442,0.0035399999999999997,-0.307068,-0.005619,-0.0055119999999999995,0.003511,-43.560001,-20.5,-36.369999,2b
2019-07-12_112315:640,-0.391968,0.004059,-0.308075,-0.005375,-0.005634,0.0039689999999999994,-43.560001,-20.5,-36.369999,2b
2019-07-12_112315:660,-0.391479,0.0030210000000000002,-0.307587,-0.004642,-0.005756,0.005006,-42.869999,-20.059998999999998,-36.68,2b
2019-07-12_112315:680,-0.392487,0.004547,-0.308075,-0.004275999999999999,-0.005573,0.004609,-42.869999,-20.059998999999998,-36.68,2b
2019-07-12_112315:700,-0.393494,0.006592,-0.307068,-0.004398,-0.00539,0.0037549999999999997,-43.18,-20.870001000000002,-36.0,2b
2019-07-12_112315:720,-0.394531,0.007599,-0.306061,-0.004581,-0.005176,0.0039689999999999994,-43.18,-20.870001000000002,-36.0,2b
2019-07-12_112315:740,-0.39502,0.006072999999999999,-0.308075,-0.005039,-0.00484,0.004213000000000001,-43.18,-20.870001000000002,-36.0,2b
2019-07-12_112315:760,-0.394531,0.004547,-0.307068,-0.0052829999999999995,-0.0045049999999999995,0.003908,-44.0,-19.75,-36.0,2b
2019-07-12_112315:780,-0.393494,0.004547,-0.306061,-0.0051,-0.00484,0.0039689999999999994,-44.0,-19.75,-36.0,2b
2019-07-12_112315:800,-0.395538,0.0035399999999999997,-0.306061,-0.004459,-0.004901,0.004335,-43.18,-20.5,-36.75,2b
2019-07-12_112315:820,-0.396545,0.0035399999999999997,-0.30654899999999996,-0.004184,-0.004961999999999999,0.004152,-43.18,-20.5,-36.75,2b
2019-07-12_112315:840,-0.388916,0.007599,-0.30300900000000003,-0.004123,-0.004596,0.004732,-43.18,-20.5,-36.75,2b
2019-07-12_112315:860,-0.389435,0.007599,-0.302002,-0.004398,-0.004993,0.005189,-42.5,-20.870001000000002,-36.0,2b
2019-07-12_112315:880,-0.389954,0.007111,-0.303528,-0.005222,-0.005695,0.003908,-42.5,-20.870001000000002,-36.0,2b
2019-07-12_112315:900,-0.390961,0.007111,-0.305542,-0.005558,-0.006,0.004152,-44.0,-20.5,-37.560001,2b
2019-07-12_112315:920,-0.394012,0.001007,-0.303528,-0.005375,-0.006,0.005067,-44.0,-20.5,-37.560001,2b
2019-07-12_112315:940,-0.394012,0.000488,-0.304535,-0.005161,-0.006,0.004396,-44.0,-20.5,-37.560001,2b
2019-07-12_112315:960,-0.391968,0.002014,-0.308075,-0.004612,-0.005878,0.003358,-43.18,-20.5,-36.68,2b
2019-07-12_112315:980,-0.391479,0.0030210000000000002,-0.306061,-0.004001,-0.006,0.0039689999999999994,-43.18,-20.5,-36.68,2b
2019-07-12_112316:000,-0.394531,0.005065999999999999,-0.308075,-0.004001,-0.006,0.004274,-43.560001,-20.059998999999998,-36.68,2b
2019-07-12_112316:020,-0.393494,0.0055850000000000006,-0.308075,-0.004275999999999999,-0.005817,0.0038469999999999997,-43.560001,-20.059998999999998,-36.68,2b
2019-07-12_112316:040,-0.397064,0.007111,-0.30654899999999996,-0.004642,-0.005359,0.003572,-43.560001,-20.059998999999998,-36.68,2b
2019-07-12_112316:060,-0.397064,0.006072999999999999,-0.307068,-0.0051,-0.00539,0.003511,-43.18,-20.5,-36.0,2b
2019-07-12_112316:080,-0.393005,0.004547,-0.305054,-0.0051,-0.004993,0.003908,-43.18,-20.5,-36.0,2b
2019-07-12_112316:100,-0.391479,0.004547,-0.306061,-0.004978,-0.004993,0.004457,-44.369999,-19.0,-36.68,2b
2019-07-12_112316:120,-0.388428,0.004059,-0.305054,-0.004825,-0.0055119999999999995,0.004548,-44.369999,-19.0,-36.68,2b
2019-07-12_112316:140,-0.388916,0.004547,-0.306061,-0.004703,-0.005939,0.004182,-44.369999,-19.0,-36.68,2b
2019-07-12_112316:160,-0.396057,0.006072999999999999,-0.306061,-0.004825,-0.005756,0.004213000000000001,-44.0,-20.059998999999998,-35.560001,2b
2019-07-12_112316:180,-0.397583,0.006072999999999999,-0.307587,-0.004978,-0.005573,0.004274,-44.0,-20.059998999999998,-35.560001,2b
2019-07-12_112316:200,-0.397064,0.004547,-0.307068,-0.005039,-0.005176,0.004182,-43.560001,-20.5,-36.0,2b
2019-07-12_112316:220,-0.394531,0.004059,-0.305054,-0.005222,-0.004961999999999999,0.0038469999999999997,-43.560001,-20.5,-36.0,2b
2019-07-12_112316:240,-0.391968,0.0035399999999999997,-0.306061,-0.004978,-0.005115,0.003572,-43.560001,-20.5,-36.0,2b
2019-07-12_112316:260,-0.391479,0.0035399999999999997,-0.304535,-0.004703,-0.0055119999999999995,0.003511,-43.560001,-19.75,-36.68,2b
2019-07-12_112316:280,-0.390961,0.005065999999999999,-0.304016,-0.004398,-0.005451,0.003572,-43.560001,-19.75,-36.68,2b
2019-07-12_112316:300,-0.391479,0.0055850000000000006,-0.306061,-0.004612,-0.005695,0.0037549999999999997,-44.369999,-19.75,-36.369999,2b
2019-07-12_112316:320,-0.391968,0.006072999999999999,-0.306061,-0.004337,-0.005725,0.0037549999999999997,-44.369999,-19.75,-36.369999,2b
2019-07-12_112316:340,-0.393005,0.007111,-0.305054,-0.004581,-0.005756,0.0038159999999999995,-44.369999,-19.75,-36.369999,2b
2019-07-12_112316:360,-0.397064,0.006592,-0.307068,-0.004612,-0.005725,0.004182,-42.869999,-20.5,-37.18,2b
2019-07-12_112316:380,-0.396057,0.007599,-0.30654899999999996,-0.004947,-0.0055119999999999995,0.004274,-42.869999,-20.5,-37.18,2b
2019-07-12_112316:400,-0.394012,0.006592,-0.305054,-0.004947,-0.0052369999999999995,0.004457,-43.18,-20.059998999999998,-37.18,2b
2019-07-12_112316:420,-0.39502,0.0055850000000000006,-0.306061,-0.005619,-0.005054,0.004182,-43.18,-20.059998999999998,-37.18,2b
2019-07-12_112316:440,-0.389954,0.005065999999999999,-0.305542,-0.005558,-0.005176,0.0039689999999999994,-43.18,-20.059998999999998,-37.18,2b
2019-07-12_112316:460,-0.390961,0.0030210000000000002,-0.305542,-0.005375,-0.005725,0.003511,-42.869999,-20.870001000000002,-36.369999,2b
2019-07-12_112316:480,-0.391479,0.0030210000000000002,-0.30654899999999996,-0.004825,-0.005939,0.00345,-42.869999,-20.870001000000002,-36.369999,2b
2019-07-12_112316:500,-0.391968,0.006072999999999999,-0.306061,-0.004398,-0.005817,0.004335,-44.0,-20.059998999999998,-36.369999,2b
2019-07-12_112316:520,-0.393005,0.006072999999999999,-0.306061,-0.00394,-0.0055119999999999995,0.004671,-44.0,-20.059998999999998,-36.369999,2b
2019-07-12_112316:540,-0.393005,0.007599,-0.306061,-0.004062,-0.0055119999999999995,0.0038469999999999997,-44.0,-20.059998999999998,-36.369999,2b
2019-07-12_112316:560,-0.392487,0.009644,-0.30654899999999996,-0.004764,-0.005176,0.00403,-43.560001,-20.5,-36.369999,2b
2019-07-12_112316:580,-0.394531,0.008118,-0.307068,-0.005161,-0.005176,0.004335,-43.560001,-20.5,-36.369999,2b
2019-07-12_112316:600,-0.397064,0.006072999999999999,-0.30654899999999996,-0.005375,-0.00484,0.004091,-44.68,-20.5,-35.560001,2b
2019-07-12_112316:620,-0.395538,0.0055850000000000006,-0.30654899999999996,-0.005344,-0.004961999999999999,0.0038469999999999997,-44.68,-20.5,-35.560001,2b
2019-07-12_112316:640,-0.394012,0.0035399999999999997,-0.305054,-0.004642,-0.004993,0.004335,-44.68,-20.5,-35.560001,2b
2019-07-12_112316:660,-0.394012,0.0035399999999999997,-0.305542,-0.0042450000000000005,-0.004993,0.004182,-43.18,-20.5,-36.0,2b
2019-07-12_112316:680,-0.393494,0.0055850000000000006,-0.302002,-0.004001,-0.005054,0.004793,-43.18,-20.5,-36.0,2b
2019-07-12_112316:700,-0.390961,0.007599,-0.303528,-0.004123,-0.00539,0.005189,-42.869999,-20.5,-36.0,2b
2019-07-12_112316:720,-0.390961,0.006072999999999999,-0.30249000000000004,-0.004703,-0.005634,0.004091,-42.869999,-20.5,-36.0,2b
2019-07-12_112316:740,-0.393494,0.008118,-0.303528,-0.005497,-0.005725,0.004091,-42.869999,-20.5,-36.0,2b
2019-07-12_112316:760,-0.39502,0.004059,-0.304016,-0.005497,-0.005756,0.005342,-43.560001,-20.059998999999998,-36.75,2b
2019-07-12_112316:780,-0.393005,0.001007,-0.30249000000000004,-0.005344,-0.005878,0.004854,-43.560001,-20.059998999999998,-36.75,2b
2019-07-12_112316:800,-0.391968,0.0025329999999999997,-0.304535,-0.005344,-0.006,0.003511,-43.560001,-20.870001000000002,-38.0,2b
2019-07-12_112316:820,-0.391479,0.0030210000000000002,-0.305054,-0.004886,-0.006275,0.0038159999999999995,-43.560001,-20.870001000000002,-38.0,2b
2019-07-12_112316:840,-0.393005,0.0025329999999999997,-0.305542,-0.004337,-0.006488,0.004091,-43.560001,-20.870001000000002,-38.0,2b
2019-07-12_112316:860,-0.393494,0.0025329999999999997,-0.307068,-0.004337,-0.006670999999999999,0.003511,-44.0,-20.059998999999998,-37.560001,2b
2019-07-12_112316:880,-0.396057,0.0055850000000000006,-0.307068,-0.004123,-0.006214,0.003572,-44.0,-20.059998999999998,-37.560001,2b
2019-07-12_112316:900,-0.39502,0.005065999999999999,-0.305542,-0.004062,-0.005939,0.0037549999999999997,-44.0,-20.059998999999998,-36.75,2b
2019-07-12_112316:920,-0.392487,0.0055850000000000006,-0.308075,-0.004337,-0.005817,0.0034189999999999997,-44.0,-20.059998999999998,-36.75,2b
2019-07-12_112316:940,-0.392487,0.007599,-0.306061,-0.004520000000000001,-0.005878,0.003511,-44.0,-20.059998999999998,-36.75,2b
2019-07-12_112316:960,-0.390961,0.006592,-0.307587,-0.004520000000000001,-0.0060609999999999995,0.003633,-43.560001,-20.059998999999998,-36.0,2b
2019-07-12_112316:980,-0.391479,0.007111,-0.307587,-0.004612,-0.0060609999999999995,0.0039689999999999994,-43.560001,-20.059998999999998,-36.0,2b
2019-07-12_112317:000,-0.390961,0.007599,-0.307587,-0.004825,-0.006214,0.0039689999999999994,-44.0,-20.5,-37.18,2b
2019-07-12_112317:020,-0.391479,0.007599,-0.307587,-0.004978,-0.006214,0.004213000000000001,-44.0,-20.5,-37.18,2b
2019-07-12_112317:040,-0.394531,0.006072999999999999,-0.308594,-0.004978,-0.0060609999999999995,0.004182,-44.0,-20.5,-37.18,2b
2019-07-12_112317:060,-0.39502,0.005065999999999999,-0.310638,-0.005222,-0.005634,0.0039689999999999994,-43.18,-20.870001000000002,-36.369999,2b
2019-07-12_112317:080,-0.397064,0.006072999999999999,-0.307587,-0.0051,-0.004901,0.0038469999999999997,-43.18,-20.870001000000002,-36.369999,2b
2019-07-12_112317:100,-0.39502,0.0055850000000000006,-0.30654899999999996,-0.0051,-0.004718,0.0037549999999999997,-44.369999,-19.75,-36.369999,2b
2019-07-12_112317:120,-0.391479,0.005065999999999999,-0.307587,-0.004978,-0.004901,0.003572,-44.369999,-19.75,-36.369999,2b
2019-07-12_112317:140,-0.391479,0.006072999999999999,-0.30654899999999996,-0.004978,-0.005115,0.003511,-44.369999,-19.75,-36.369999,2b
2019-07-12_112317:160,-0.389435,0.006592,-0.305542,-0.004978,-0.005451,0.003694,-42.5,-20.870001000000002,-35.560001,2b
2019-07-12_112317:180,-0.390961,0.007111,-0.304016,-0.004825,-0.005298,0.003694,-42.5,-20.870001000000002,-35.560001,2b
2019-07-12_112317:200,-0.391968,0.007111,-0.306061,-0.004947,-0.005451,0.0037549999999999997,-43.560001,-20.5,-35.560001,2b
2019-07-12_112317:220,-0.393494,0.006072999999999999,-0.306061,-0.004825,-0.005573,0.00403,-43.560001,-20.5,-35.560001,2b
2019-07-12_112317:240,-0.391968,0.006592,-0.306061,-0.004764,-0.005756,0.004213000000000001,-43.560001,-20.5,-35.560001,2b
2019-07-12_112317:260,-0.397583,0.006072999999999999,-0.307587,-0.004703,-0.00539,0.004091,-43.560001,-20.870001000000002,-36.369999,2b
2019-07-12_112317:280,-0.396545,0.007599,-0.304535,-0.004825,-0.005359,0.00403,-43.560001,-20.870001000000002,-36.369999,2b
2019-07-12_112317:300,-0.39502,0.007111,-0.303528,-0.0051,-0.0052369999999999995,0.0039689999999999994,-43.18,-20.870001000000002,-36.75,2b
2019-07-12_112317:320,-0.391479,0.006592,-0.305054,-0.005222,-0.0052369999999999995,0.004091,-43.18,-20.870001000000002,-36.75,2b
2019-07-12_112317:340,-0.386902,0.0055850000000000006,-0.302002,-0.0052829999999999995,-0.0060609999999999995,0.0034189999999999997,-43.18,-20.870001000000002,-36.75,2b
2019-07-12_112317:360,-0.389954,0.004547,-0.307587,-0.005161,-0.006488,0.003023,-44.68,-20.5,-36.369999,2b
2019-07-12_112317:380,-0.392487,0.006072999999999999,-0.305054,-0.004459,-0.006488,0.0039689999999999994,-44.68,-20.5,-36.369999,2b
2019-07-12_112317:400,-0.394012,0.005065999999999999,-0.308075,-0.0042450000000000005,-0.006488,0.004396,-43.560001,-20.870001000000002,-36.0,2b
2019-07-12_112317:420,-0.393005,0.006592,-0.308594,-0.004337,-0.005817,0.0034189999999999997,-43.560001,-20.870001000000002,-36.0,2b
2019-07-12_112317:440,-0.392487,0.009125,-0.308075,-0.004398,-0.005634,0.0032359999999999997,-43.560001,-20.870001000000002,-36.0,2b
2019-07-12_112317:460,-0.393494,0.009644,-0.307587,-0.004978,-0.005359,0.003633,-44.0,-20.5,-36.68,2b
2019-07-12_112317:480,-0.394531,0.009125,-0.308075,-0.004978,-0.005115,0.003511,-44.0,-20.5,-36.68,2b
2019-07-12_112317:500,-0.397064,0.009644,-0.308075,-0.005222,-0.004596,0.003572,-43.560001,-20.059998999999998,-36.369999,2b
2019-07-12_112317:520,-0.393494,0.008118,-0.308594,-0.0051,-0.00484,0.0038469999999999997,-43.560001,-20.059998999999998,-36.369999,2b
2019-07-12_112317:540,-0.396545,0.007111,-0.307068,-0.004703,-0.004383,0.0038469999999999997,-43.560001,-20.059998999999998,-36.369999,2b
2019-07-12_112317:560,-0.394531,0.008118,-0.306061,-0.004612,-0.00426,0.00403,-43.18,-20.5,-37.18,2b
2019-07-12_112317:580,-0.390961,0.008636,-0.30300900000000003,-0.004703,-0.0045049999999999995,0.004732,-43.18,-20.5,-37.18,2b
2019-07-12_112317:600,-0.390442,0.006592,-0.304016,-0.004764,-0.004566,0.003908,-43.18,-20.5,-37.18,2b
2019-07-12_112317:620,-0.391968,0.009644,-0.30300900000000003,-0.005375,-0.005115,0.003023,-44.369999,-20.5,-36.369999,2b
2019-07-12_112317:640,-0.391479,0.009644,-0.303528,-0.0051,-0.005176,0.004152,-44.369999,-20.5,-36.369999,2b
2019-07-12_112317:660,-0.393494,0.006072999999999999,-0.304016,-0.004886,-0.005176,0.004518,-44.0,-20.5,-36.0,2b
2019-07-12_112317:680,-0.393005,0.007111,-0.303528,-0.004978,-0.005298,0.003572,-44.0,-20.5,-36.0,2b
2019-07-12_112317:700,-0.393005,0.009644,-0.304016,-0.004764,-0.005451,0.0032359999999999997,-43.560001,-20.870001000000002,-36.369999,2b
2019-07-12_112317:720,-0.393494,0.007599,-0.305054,-0.004642,-0.005756,0.004091,-43.560001,-20.870001000000002,-36.369999,2b
2019-07-12_112317:740,-0.394531,0.007111,-0.304535,-0.004612,-0.005634,0.003633,-43.560001,-20.870001000000002,-36.369999,2b
2019-07-12_112317:760,-0.39502,0.009125,-0.306061,-0.004825,-0.005817,0.003114,-43.18,-21.25,-37.18,2b
2019-07-12_112317:780,-0.393494,0.007599,-0.304016,-0.004581,-0.005817,0.003572,-43.18,-21.25,-37.18,2b
2019-07-12_112317:800,-0.39502,0.007111,-0.306061,-0.004612,-0.005756,0.0034189999999999997,-43.18,-20.870001000000002,-36.369999,2b
2019-07-12_112317:820,-0.390961,0.010162000000000001,-0.305542,-0.004459,-0.006,0.003175,-43.18,-20.870001000000002,-36.369999,2b
2019-07-12_112317:840,-0.393005,0.010651,-0.307068,-0.004275999999999999,-0.006092,0.003511,-43.18,-20.870001000000002,-36.369999,2b
2019-07-12_112317:860,-0.393494,0.011687999999999999,-0.306061,-0.004459,-0.0061530000000000005,0.003694,-43.560001,-20.5,-36.75,2b
2019-07-12_112317:880,-0.394012,0.013702,-0.307068,-0.004825,-0.0060609999999999995,0.003908,-43.560001,-20.5,-36.75,2b
2019-07-12_112317:900,-0.394012,0.012695,-0.308594,-0.005222,-0.005817,0.004335,-43.560001,-20.5,-36.75,2b
2019-07-12_112317:920,-0.394531,0.012695,-0.309113,-0.005436,-0.005451,0.004518,-43.18,-20.870001000000002,-36.369999,2b
2019-07-12_112317:940,-0.395538,0.011169,-0.307587,-0.005558,-0.005054,0.004213000000000001,-43.18,-20.870001000000002,-36.369999,2b
2019-07-12_112317:960,-0.39502,0.010651,-0.30654899999999996,-0.005497,-0.004961999999999999,0.004548,-44.0,-20.870001000000002,-36.75,2b
2019-07-12_112317:980,-0.394012,0.007599,-0.305542,-0.0051,-0.00484,0.004854,-44.0,-20.870001000000002,-36.75,2b
2019-07-12_112318:000,-0.392487,0.007599,-0.305054,-0.004978,-0.004596,0.004732,-43.560001,-20.870001000000002,-36.68,2b
2019-07-12_112318:020,-0.394012,0.007599,-0.305542,-0.004642,-0.004901,0.004945000000000001,-43.560001,-20.870001000000002,-36.68,2b
2019-07-12_112318:040,-0.393494,0.007599,-0.304016,-0.004398,-0.005054,0.004854,-43.560001,-20.870001000000002,-36.68,2b
2019-07-12_112318:060,-0.393494,0.008636,-0.305542,-0.004275999999999999,-0.005573,0.004609,-43.560001,-20.870001000000002,-37.18,2b
2019-07-12_112318:080,-0.393494,0.008118,-0.304016,-0.004062,-0.005573,0.004274,-43.560001,-20.870001000000002,-37.18,2b
2019-07-12_112318:100,-0.393494,0.008636,-0.304535,-0.004275999999999999,-0.005695,0.003908,-43.560001,-20.870001000000002,-37.18,2b
2019-07-12_112318:120,-0.396057,0.009125,-0.305054,-0.0042450000000000005,-0.005573,0.003633,-44.0,-20.870001000000002,-35.560001,2b
2019-07-12_112318:140,-0.396545,0.008636,-0.305054,-0.004337,-0.0055119999999999995,0.0038159999999999995,-44.0,-20.870001000000002,-35.560001,2b
2019-07-12_112318:160,-0.399109,0.010162000000000001,-0.306061,-0.004398,-0.005298,0.003633,-44.0,-20.059998999999998,-36.68,2b
2019-07-12_112318:180,-0.39502,0.009125,-0.302002,-0.004337,-0.005115,0.004152,-44.0,-20.059998999999998,-36.68,2b
2019-07-12_112318:200,-0.396057,0.008636,-0.303528,-0.004184,-0.005298,0.004213000000000001,-44.0,-20.870001000000002,-36.68,2b
2019-07-12_112318:220,-0.388916,0.008636,-0.304016,-0.004520000000000001,-0.005176,0.004152,-44.0,-20.870001000000002,-36.68,2b
2019-07-12_112318:240,-0.389435,0.008118,-0.304535,-0.004520000000000001,-0.005725,0.004671,-44.0,-20.870001000000002,-36.68,2b
2019-07-12_112318:260,-0.391479,0.008118,-0.307587,-0.004764,-0.006458,0.004793,-43.560001,-20.5,-36.369999,2b
2019-07-12_112318:280,-0.393494,0.008636,-0.307068,-0.005161,-0.006458,0.004609,-43.560001,-20.5,-36.369999,2b
2019-07-12_112318:300,-0.395538,0.006592,-0.308075,-0.005375,-0.006214,0.004396,-43.560001,-20.5,-36.369999,2b
2019-07-12_112318:320,-0.39502,0.005065999999999999,-0.308594,-0.005619,-0.005695,0.003572,-43.560001,-20.5,-36.369999,2b
2019-07-12_112318:340,-0.391968,0.0055850000000000006,-0.308594,-0.005222,-0.00539,0.003297,-43.560001,-20.5,-36.369999,2b
2019-07-12_112318:360,-0.393005,0.0055850000000000006,-0.308594,-0.004642,-0.004993,0.0038469999999999997,-43.18,-20.870001000000002,-36.0,2b
2019-07-12_112318:380,-0.394531,0.008118,-0.307068,-0.004184,-0.004566,0.00345,-43.18,-20.870001000000002,-36.0,2b
2019-07-12_112318:400,-0.394012,0.008118,-0.307068,-0.004123,-0.004321,0.003511,-43.18,-20.870001000000002,-36.0,2b
2019-07-12_112318:420,-0.397064,0.009125,-0.305054,-0.004001,-0.004229999999999999,0.003511,-43.18,-20.5,-36.0,2b
2019-07-12_112318:440,-0.394012,0.011687999999999999,-0.30249000000000004,-0.004001,-0.003986,0.003114,-43.18,-20.5,-36.0,2b
2019-07-12_112318:460,-0.396057,0.013213999999999998,-0.304016,-0.0042450000000000005,-0.004444,0.0038159999999999995,-44.369999,-20.5,-36.369999,2b
2019-07-12_112318:480,-0.392487,0.011687999999999999,-0.301483,-0.004398,-0.004718,0.004793,-44.369999,-20.5,-36.369999,2b
2019-07-12_112318:500,-0.390442,0.012177,-0.303528,-0.004886,-0.005054,0.003511,-44.369999,-20.5,-36.369999,2b
2019-07-12_112318:520,-0.391968,0.012177,-0.303528,-0.0051,-0.005695,0.003023,-43.560001,-20.5,-35.560001,2b
2019-07-12_112318:540,-0.396057,0.012177,-0.30300900000000003,-0.004886,-0.005695,0.004609,-43.560001,-20.5,-35.560001,2b
2019-07-12_112318:560,-0.396545,0.009125,-0.30249000000000004,-0.004886,-0.0055119999999999995,0.004915,-44.369999,-21.25,-36.0,2b
2019-07-12_112318:580,-0.39502,0.010651,-0.304016,-0.0052829999999999995,-0.005054,0.004152,-44.369999,-21.25,-36.0,2b
2019-07-12_112318:600,-0.393494,0.008636,-0.304016,-0.004886,-0.004901,0.004793,-44.369999,-21.25,-36.0,2b
2019-07-12_112318:620,-0.394012,0.006592,-0.304016,-0.004642,-0.005298,0.005128,-44.0,-21.559998999999998,-36.75,2b
2019-07-12_112318:640,-0.394531,0.007599,-0.30300900000000003,-0.004642,-0.005634,0.004457,-44.0,-21.559998999999998,-36.75,2b
2019-07-12_112318:660,-0.39502,0.008636,-0.303528,-0.004520000000000001,-0.005695,0.004518,-43.18,-20.870001000000002,-36.0,2b
2019-07-12_112318:680,-0.394531,0.008118,-0.304016,-0.004337,-0.005878,0.004335,-43.18,-20.870001000000002,-36.0,2b
2019-07-12_112318:700,-0.394012,0.007599,-0.30249000000000004,-0.004642,-0.0060609999999999995,0.003908,-43.18,-20.870001000000002,-36.0,2b
2019-07-12_112318:720,-0.394012,0.010162000000000001,-0.30300900000000003,-0.004337,-0.006336,0.004182,-43.560001,-20.870001000000002,-36.0,2b
2019-07-12_112318:740,-0.392487,0.007599,-0.30300900000000003,-0.004337,-0.006488,0.004671,-43.560001,-20.870001000000002,-36.0,2b
2019-07-12_112318:760,-0.393494,0.007599,-0.302002,-0.004642,-0.006548999999999999,0.004548,-44.0,-20.5,-36.369999,2b
2019-07-12_112318:780,-0.393494,0.007111,-0.30300900000000003,-0.004764,-0.006854000000000001,0.004396,-44.0,-20.5,-36.369999,2b
2019-07-12_112318:800,-0.393005,0.007111,-0.305054,-0.004764,-0.006397,0.004335,-44.0,-20.5,-36.369999,2b
2019-07-12_112318:820,-0.394012,0.0055850000000000006,-0.306061,-0.004825,-0.006488,0.004152,-43.18,-20.5,-36.68,2b
2019-07-12_112318:840,-0.394012,0.006072999999999999,-0.305054,-0.004764,-0.006458,0.0038159999999999995,-43.18,-20.5,-36.68,2b
2019-07-12_112318:860,-0.394531,0.007111,-0.306061,-0.004703,-0.006458,0.003572,-43.560001,-20.5,-37.18,2b
2019-07-12_112318:880,-0.393494,0.007599,-0.304016,-0.004642,-0.006336,0.0034189999999999997,-43.560001,-20.5,-37.18,2b
2019-07-12_112318:900,-0.392487,0.008636,-0.30654899999999996,-0.004581,-0.006458,0.003633,-43.560001,-20.5,-37.18,2b
2019-07-12_112318:920,-0.393005,0.007599,-0.307587,-0.004459,-0.006458,0.003633,-43.560001,-20.5,-36.369999,2b
2019-07-12_112318:940,-0.393005,0.008118,-0.30654899999999996,-0.004764,-0.006458,0.0032359999999999997,-43.560001,-20.5,-36.369999,2b
2019-07-12_112318:960,-0.392487,0.009644,-0.308075,-0.004764,-0.0061530000000000005,0.003114,-42.869999,-20.870001000000002,-37.18,2b
2019-07-12_112318:980,-0.393005,0.009125,-0.30654899999999996,-0.004886,-0.0061530000000000005,0.003175,-42.869999,-20.870001000000002,-37.18,2b
2019-07-12_112319:000,-0.391968,0.008636,-0.307587,-0.004703,-0.006,0.00345,-42.869999,-20.870001000000002,-37.18,2b
2019-07-12_112319:020,-0.396057,0.007599,-0.308075,-0.004459,-0.005878,0.003633,-43.560001,-21.25,-36.68,2b
2019-07-12_112319:040,-0.395538,0.010162000000000001,-0.306061,-0.004337,-0.005817,0.003694,-43.560001,-21.25,-36.68,2b
2019-07-12_112319:060,-0.395538,0.009644,-0.30654899999999996,-0.004459,-0.005359,0.0038159999999999995,-43.560001,-20.870001000000002,-37.560001,2b
2019-07-12_112319:080,-0.394012,0.011169,-0.306061,-0.004612,-0.005054,0.003694,-43.560001,-20.870001000000002,-37.560001,2b
2019-07-12_112319:100,-0.390442,0.009644,-0.305054,-0.005344,-0.005054,0.003572,-43.560001,-20.870001000000002,-37.560001,2b
2019-07-12_112319:120,-0.390961,0.008636,-0.307068,-0.005375,-0.00539,0.0029,-43.18,-20.5,-37.18,2b
2019-07-12_112319:140,-0.390961,0.009644,-0.30654899999999996,-0.005222,-0.00539,0.0029,-43.18,-20.5,-37.18,2b
2019-07-12_112319:160,-0.393494,0.008118,-0.307587,-0.004581,-0.0055119999999999995,0.00403,-42.869999,-20.5,-35.560001,2b
2019-07-12_112319:180,-0.393005,0.010651,-0.307587,-0.004275999999999999,-0.00539,0.00403,-42.869999,-20.5,-35.560001,2b
2019-07-12_112319:200,-0.394012,0.012177,-0.307587,-0.004275999999999999,-0.004961999999999999,0.003358,-42.869999,-20.5,-35.560001,2b
2019-07-12_112319:220,-0.393494,0.014221000000000001,-0.307068,-0.004398,-0.004901,0.003572,-43.18,-20.5,-36.0,2b
2019-07-12_112319:240,-0.396057,0.011169,-0.306061,-0.004764,-0.004444,0.003908,-43.18,-20.5,-36.0,2b
2019-07-12_112319:260,-0.39502,0.013213999999999998,-0.306061,-0.005222,-0.004229999999999999,0.003511,-44.0,-20.870001000000002,-36.369999,2b
2019-07-12_112319:280,-0.396545,0.011169,-0.306061,-0.004978,-0.004108,0.0038159999999999995,-44.0,-20.870001000000002,-36.369999,2b
2019-07-12_112319:300,-0.396545,0.009125,-0.305054,-0.004520000000000001,-0.003986,0.004335,-44.0,-20.870001000000002,-36.369999,2b
2019-07-12_112319:320,-0.39502,0.010651,-0.300964,-0.004275999999999999,-0.004047,0.004274,-42.869999,-20.870001000000002,-36.369999,2b
2019-07-12_112319:340,-0.393005,0.013213999999999998,-0.30249000000000004,-0.004123,-0.004108,0.004793,-42.869999,-20.870001000000002,-36.369999,2b
2019-07-12_112319:360,-0.391479,0.011169,-0.29943800000000004,-0.00394,-0.004657,0.005403,-44.0,-21.559998999999998,-36.0,2b
2019-07-12_112319:380,-0.390961,0.011687999999999999,-0.300476,-0.004825,-0.0052369999999999995,0.004274,-44.0,-21.559998999999998,-36.0,2b
2019-07-12_112319:400,-0.392487,0.009125,-0.30249000000000004,-0.0052829999999999995,-0.006,0.003908,-44.0,-21.559998999999998,-36.0,2b
2019-07-12_112319:420,-0.392487,0.007111,-0.30300900000000003,-0.0052829999999999995,-0.006488,0.004945000000000001,-43.18,-20.5,-36.0,2b
2019-07-12_112319:440,-0.392487,0.004059,-0.303528,-0.004978,-0.006793,0.004732,-43.18,-20.5,-36.0,2b
2019-07-12_112319:460,-0.393005,0.0055850000000000006,-0.305054,-0.004886,-0.006731999999999999,0.003297,-43.560001,-21.25,-36.369999,2b
2019-07-12_112319:480,-0.397064,0.006072999999999999,-0.305542,-0.004123,-0.006793,0.0034189999999999997,-43.560001,-21.25,-36.369999,2b
2019-07-12_112319:500,-0.396545,0.007111,-0.307068,-0.0036659999999999996,-0.006854000000000001,0.003297,-43.560001,-21.25,-36.369999,2b
2019-07-12_112319:520,-0.396057,0.011687999999999999,-0.306061,-0.0036049999999999997,-0.006458,0.002839,-42.869999,-21.25,-35.560001,2b
2019-07-12_112319:540,-0.396057,0.013213999999999998,-0.306061,-0.003788,-0.006,0.0029620000000000002,-42.869999,-21.25,-35.560001,2b
2019-07-12_112319:560,-0.39502,0.016266,-0.308594,-0.004275999999999999,-0.005451,0.003114,-43.18,-21.25,-35.560001,2b
2019-07-12_112319:580,-0.392487,0.016753999999999998,-0.305054,-0.004947,-0.005573,0.003053,-43.18,-21.25,-35.560001,2b
2019-07-12_112319:600,-0.391479,0.015747,-0.307068,-0.005497,-0.0061530000000000005,0.0038469999999999997,-43.18,-21.25,-35.560001,2b
2019-07-12_112319:620,-0.391968,0.014740000000000001,-0.307587,-0.0060149999999999995,-0.006275,0.0039689999999999994,-42.869999,-20.870001000000002,-36.0,2b
2019-07-12_112319:640,-0.391968,0.014221000000000001,-0.30654899999999996,-0.006351,-0.006336,0.0034189999999999997,-42.869999,-20.870001000000002,-36.0,2b
2019-07-12_112319:660,-0.393005,0.013213999999999998,-0.308594,-0.006229,-0.0061530000000000005,0.003908,-42.5,-21.25,-36.68,2b
2019-07-12_112319:680,-0.39502,0.010162000000000001,-0.305054,-0.005893,-0.0060609999999999995,0.004518,-42.5,-21.25,-36.68,2b
2019-07-12_112319:700,-0.396545,0.010651,-0.307068,-0.005436,-0.005725,0.00403,-42.5,-21.25,-36.68,2b
2019-07-12_112319:720,-0.394531,0.010651,-0.305054,-0.004947,-0.00539,0.004152,-42.869999,-20.870001000000002,-36.0,2b
2019-07-12_112319:740,-0.396057,0.009125,-0.306061,-0.004337,-0.00539,0.004457,-42.869999,-20.870001000000002,-36.0,2b
2019-07-12_112319:760,-0.39502,0.011687999999999999,-0.304535,-0.003879,-0.005573,0.004548,-42.5,-20.870001000000002,-36.369999,2b
2019-07-12_112319:780,-0.396545,0.012177,-0.304016,-0.003544,-0.005878,0.004915,-42.5,-20.870001000000002,-36.369999,2b
2019-07-12_112319:800,-0.395538,0.015747,-0.304016,-0.003452,-0.006275,0.005189,-42.5,-20.870001000000002,-36.369999,2b
2019-07-12_112319:820,-0.394012,0.013702,-0.303528,-0.004001,-0.006854000000000001,0.005739,-43.18,-20.870001000000002,-36.68,2b
2019-07-12_112319:840,-0.385864,0.013702,-0.30249000000000004,-0.004459,-0.007006999999999999,0.006196,-43.18,-20.870001000000002,-36.68,2b
2019-07-12_112319:860,-0.384338,0.012177,-0.303528,-0.005039,-0.00719,0.006196,-43.18,-21.25,-35.18,2b
2019-07-12_112319:880,-0.385864,0.006072999999999999,-0.304016,-0.005558,-0.007923000000000001,0.005647,-43.18,-21.25,-35.18,2b
2019-07-12_112319:900,-0.389435,0.005065999999999999,-0.307587,-0.005741,-0.008319,0.005342,-43.18,-21.25,-35.18,2b
2019-07-12_112319:920,-0.396545,0.004059,-0.309113,-0.0052829999999999995,-0.007862000000000001,0.005311,-43.560001,-21.370001000000002,-36.68,2b
2019-07-12_112319:940,-0.394531,0.005065999999999999,-0.307068,-0.005039,-0.006885,0.004732,-43.560001,-21.370001000000002,-36.68,2b
2019-07-12_112319:960,-0.393005,0.0055850000000000006,-0.310638,-0.004703,-0.005878,0.003908,-43.18,-20.870001000000002,-36.68,2b
2019-07-12_112319:980,-0.393494,0.006592,-0.31012,-0.004642,-0.00539,0.003114,-43.18,-20.870001000000002,-36.68,2b
2019-07-12_112320:000,-0.391479,0.007599,-0.311646,-0.004764,-0.005451,0.00229,-43.18,-20.870001000000002,-36.68,2b
2019-07-12_112320:020,-0.388916,0.009644,-0.313171,-0.004459,-0.0060609999999999995,0.001192,-42.869999,-21.559998999999998,-36.369999,2b
2019-07-12_112320:040,-0.391968,0.013702,-0.31012,-0.004337,-0.005573,0.000642,-42.869999,-21.559998999999998,-36.369999,2b
2019-07-12_112320:060,-0.388916,0.01828,-0.312653,-0.004398,-0.004779,0.002321,-43.560001,-20.5,-36.369999,2b
2019-07-12_112320:080,-0.385864,0.014740000000000001,-0.313171,-0.004581,-0.005115,0.004915,-43.560001,-20.5,-36.369999,2b
2019-07-12_112320:100,-0.393005,0.014740000000000001,-0.312653,-0.0051,-0.005817,0.003694,-43.560001,-20.5,-36.369999,2b
2019-07-12_112320:120,-0.389954,0.01828,-0.31012,-0.0064730000000000005,-0.00484,0.002168,-43.560001,-20.870001000000002,-36.68,2b
2019-07-12_112320:140,-0.394012,0.013213999999999998,-0.312164,-0.0065650000000000005,-0.004108,0.005128,-43.560001,-20.870001000000002,-36.68,2b
2019-07-12_112320:160,-0.396545,0.0025329999999999997,-0.31012,-0.0061070000000000004,-0.00365,0.0067150000000000005,-42.5,-21.0,-36.68,2b
2019-07-12_112320:180,-0.398071,0.002014,-0.308594,-0.005375,-0.002857,0.005403,-42.5,-21.0,-36.68,2b
2019-07-12_112320:200,-0.398071,0.0,-0.306061,-0.003452,-0.001941,0.005311,-42.5,-21.0,-36.68,2b
2019-07-12_112320:220,-0.392487,0.0030210000000000002,-0.305054,-0.00159,-0.0009339999999999999,0.004671,-42.869999,-21.0,-37.18,2b
2019-07-12_112320:240,-0.390961,0.012695,-0.304016,-0.001072,-0.0013310000000000002,0.0039689999999999994,-42.869999,-21.0,-37.18,2b
