timestamp,AccX,AccY,AccZ,GyroX,GyroY,GyroZ,MagX,MagY,MagZ,Activity
2019-07-12_112946:200,-0.287231,0.039642000000000004,-0.503326,-0.030581999999999998,-0.017963,0.004091,-0.87,-6.68,-39.560001,1b
2019-07-12_112946:220,-0.369598,0.047791,-0.626862,-0.032505,-0.024340999999999998,0.007905,-0.87,-6.68,-39.560001,1b
2019-07-12_112946:240,-0.322845,0.044219999999999995,-0.596863,-0.035220999999999995,-0.023334,0.023712999999999998,-0.87,-6.68,-39.560001,1b
2019-07-12_112946:260,-0.19775399999999999,0.056427,-0.556702,-0.034946,-0.020130000000000002,0.026918,-1.0,-7.87,-39.18,1b
2019-07-12_112946:280,-0.17385899999999999,0.049805,-0.535339,-0.037693,-0.0070680000000000005,0.026246,-1.0,-7.87,-39.18,1b
2019-07-12_112946:300,-0.169281,0.057434000000000006,-0.48196400000000006,-0.035160000000000004,0.005444,0.020204,-1.0,-8.56,-38.75,1b
2019-07-12_112946:320,-0.172333,0.061005,-0.49722299999999997,-0.032962,0.003918,0.014802000000000001,-1.0,-8.56,-38.75,1b
2019-07-12_112946:340,-0.192169,0.070648,-0.526215,-0.030185000000000003,-0.004596,0.0188,-1.0,-8.56,-38.75,1b
2019-07-12_112946:360,-0.194214,0.066071,-0.506897,-0.024936,-0.008533,0.030488,0.06,-10.06,-38.369999,1b
2019-07-12_112946:380,-0.226746,0.052338,-0.504333,-0.020419999999999997,-0.009662,0.034456,0.06,-10.06,-38.369999,1b
2019-07-12_112946:400,-0.23995999999999998,0.050842,-0.5109560000000001,-0.016452,-0.007862000000000001,0.031465,-0.18,-10.87,-37.18,1b
2019-07-12_112946:420,-0.238434,0.051849,-0.48706099999999997,-0.011264,-0.0038640000000000002,0.034456,-0.18,-10.87,-37.18,1b
2019-07-12_112946:440,-0.2547,0.049316000000000006,-0.463654,-0.007937999999999999,0.003064,0.041231,-0.18,-10.87,-37.18,1b
2019-07-12_112946:460,-0.259277,0.038116000000000004,-0.41586300000000004,-0.00687,0.013928,0.046296,-0.18,-10.5,-38.75,1b
2019-07-12_112946:480,-0.249115,0.035065,-0.380798,-0.0067480000000000005,0.024151,0.049928,-0.18,-10.5,-38.75,1b
2019-07-12_112946:500,-0.216583,0.024902,-0.34317,-0.007206000000000001,0.031079000000000002,0.051515,0.06,-11.18,-38.0,1b
2019-07-12_112946:520,-0.200317,0.016753999999999998,-0.32132,-0.007541,0.032605,0.049013,0.06,-11.18,-38.0,1b
2019-07-12_112946:540,-0.189117,0.011169,-0.311646,-0.008548,0.028270999999999998,0.044160000000000005,0.06,-11.18,-38.0,1b
2019-07-12_112946:560,-0.19622799999999999,0.009125,-0.310638,-0.00867,0.0211,0.040162,-2.5,-10.5,-36.75,1b
2019-07-12_112946:580,-0.205902,0.005065999999999999,-0.311646,-0.008487,0.013196000000000001,0.037385,-2.5,-10.5,-36.75,1b
2019-07-12_112946:600,-0.21859699999999999,-0.000488,-0.312164,-0.007023000000000001,0.007977,0.032991,-3.56,-10.5,-37.68,1b
2019-07-12_112946:620,-0.248108,-0.0055850000000000006,-0.309601,-0.005954,0.006573000000000001,0.027039999999999998,-3.56,-10.5,-37.68,1b
2019-07-12_112946:640,-0.270966,-0.006072999999999999,-0.322845,-0.003147,0.0071530000000000005,0.021058,-3.56,-10.5,-37.68,1b
2019-07-12_112946:660,-0.278107,-0.009644,-0.355377,0.000729,0.0060539999999999995,0.014558000000000001,-5.37,-11.18,-36.5,1b
2019-07-12_112946:680,-0.320801,-0.008118,-0.391968,0.004757,-0.002246,0.009187,-5.37,-11.18,-36.5,1b
2019-07-12_112946:700,-0.381317,-0.002014,-0.431122,0.00903,-0.007526000000000001,0.011049,-5.37,-9.68,-35.68,1b
2019-07-12_112946:720,-0.376221,0.0025329999999999997,-0.418915,0.013974,-0.004961999999999999,0.015931,-5.37,-9.68,-35.68,1b
2019-07-12_112946:740,-0.335022,-0.017273,-0.42858900000000005,0.015865999999999998,-0.001911,0.017,-5.37,-9.68,-35.68,1b
2019-07-12_112946:760,-0.396545,-0.035065,-0.515533,0.018093,-0.011859,0.014894,-3.56,-9.68,-34.75,1b
2019-07-12_112946:780,-0.360962,-0.059479,-0.543488,0.022274000000000002,-0.022418,0.011629,-3.56,-9.68,-34.75,1b
2019-07-12_112946:800,-0.344696,-0.0849,-0.530273,0.028012000000000002,-0.026202999999999997,-0.002684,-4.0,-8.56,-35.68,1b
2019-07-12_112946:820,-0.361969,-0.086426,-0.52774,0.027737,-0.022937,-0.012969,-4.0,-8.56,-35.68,1b
2019-07-12_112946:840,-0.25521900000000003,-0.09963999999999999,-0.49468999999999996,0.031369,-0.012195000000000001,-0.007994,-4.0,-8.56,-35.68,1b
2019-07-12_112946:860,-0.20285,-0.110321,-0.448425,0.030575,0.00224,-0.002867,-4.0,-8.18,-35.18,1b
2019-07-12_112946:880,-0.21048000000000003,-0.12301600000000001,-0.421967,0.026333,0.011487,-0.003203,-4.0,-8.18,-35.18,1b
2019-07-12_112946:900,-0.194214,-0.135742,-0.44638100000000003,0.023495,0.008954,-0.007201000000000001,-3.25,-6.68,-36.369999,1b
2019-07-12_112946:920,-0.169281,-0.141846,-0.42758199999999996,0.021939,0.00108,-0.016478,-3.25,-6.68,-36.369999,1b
2019-07-12_112946:940,-0.172333,-0.130127,-0.41586300000000004,0.018521,-0.0066099999999999996,-0.025847000000000002,-3.25,-6.68,-36.369999,1b
2019-07-12_112946:960,-0.198792,-0.119965,-0.427063,0.016323,-0.013385,-0.027677999999999998,-3.68,-6.37,-36.0,1b
2019-07-12_112946:980,-0.203369,-0.11080899999999999,-0.432648,0.014644999999999998,-0.019733,-0.029204,-3.68,-6.37,-36.0,1b
2019-07-12_112947:000,-0.210968,-0.086426,-0.423492,0.011807,-0.023548,-0.036711,-3.0,-5.25,-35.68,1b
2019-07-12_112947:020,-0.231323,-0.06405599999999999,-0.40976,0.008541,-0.022266,-0.044829,-3.0,-5.25,-35.68,1b
2019-07-12_112947:040,-0.265381,-0.039124,-0.389954,0.005093,-0.015186000000000002,-0.048063999999999996,-3.0,-5.25,-35.68,1b
2019-07-12_112947:060,-0.26944,-0.031494,-0.375702,0.00137,-0.005695,-0.047881,-1.5,-4.87,-35.18,1b
2019-07-12_112947:080,-0.25116,-0.023375999999999997,-0.349792,-0.002018,0.002728,-0.04608,-1.5,-4.87,-35.18,1b
2019-07-12_112947:100,-0.234375,-0.022369,-0.341644,-0.004612,0.006695,-0.042020999999999996,-0.25,-4.87,-35.25,1b
2019-07-12_112947:120,-0.225739,-0.022858,-0.333496,-0.0061070000000000004,0.005627,-0.035735,-0.25,-4.87,-35.25,1b
2019-07-12_112947:140,-0.22421300000000002,-0.026427999999999997,-0.330963,-0.007023000000000001,0.0027890000000000002,-0.029936,-0.25,-4.87,-35.25,1b
2019-07-12_112947:160,-0.228271,-0.031494,-0.335541,-0.007541,-0.001392,-0.024503999999999998,-0.25,-4.87,-34.5,1b
2019-07-12_112947:180,-0.235382,-0.035583,-0.345215,-0.00748,-0.005176,-0.019011,-0.25,-4.87,-34.5,1b
2019-07-12_112947:200,-0.255707,-0.040161,-0.353333,-0.006809,-0.006945999999999999,-0.0166,-0.25,-4.87,-35.18,1b
2019-07-12_112947:220,-0.282166,-0.038116000000000004,-0.353851,-0.006412,-0.004657,-0.016356,-0.25,-4.87,-35.18,1b
2019-07-12_112947:240,-0.278107,-0.031494,-0.381317,-0.007145,-0.0031309999999999997,-0.012236,-0.25,-4.87,-35.18,1b
2019-07-12_112947:260,-0.29538000000000003,-0.031006,-0.387909,-0.007541,-0.002246,-0.004454,0.0,-5.25,-35.68,1b
2019-07-12_112947:280,-0.336548,-0.035583,-0.435699,-0.009922,-0.005878,0.000642,0.0,-5.25,-35.68,1b
2019-07-12_112947:300,-0.3396,-0.040649,-0.447906,-0.010593,-0.006945999999999999,-0.0014939999999999999,0.75,-4.87,-35.25,1b
2019-07-12_112947:320,-0.33300799999999997,-0.023375999999999997,-0.451477,-0.011539,-0.00539,-0.010558,0.75,-4.87,-35.25,1b
2019-07-12_112947:340,-0.30249000000000004,-0.001007,-0.45654300000000003,-0.013309,-0.0015140000000000002,-0.013762,0.75,-4.87,-35.25,1b
2019-07-12_112947:360,-0.36911,0.022369,-0.489075,-0.014865999999999999,-0.001575,-0.005919,1.18,-4.56,-34.75,1b
2019-07-12_112947:380,-0.43011499999999997,0.041168,-0.575531,-0.019901,-0.017353,0.008516,1.18,-4.56,-34.75,1b
2019-07-12_112947:400,-0.369598,0.043213,-0.47689799999999993,-0.021884999999999998,-0.007923000000000001,0.020051,-0.25,-4.87,-35.68,1b
2019-07-12_112947:420,-0.28369099999999997,0.057953,-0.48300200000000004,-0.027866000000000002,-0.005878,0.019472,-0.25,-4.87,-35.68,1b
2019-07-12_112947:440,-0.18249500000000002,0.068634,-0.41232299999999994,-0.030124,0.007824,0.013276,-0.25,-4.87,-35.68,1b
2019-07-12_112947:460,-0.165222,0.0849,-0.390961,-0.031498000000000005,0.011212,0.004457,0.75,-6.18,-34.5,1b
2019-07-12_112947:480,-0.23791500000000002,0.108795,-0.461121,-0.034946,-0.000995,0.002321,0.75,-6.18,-34.5,1b
2019-07-12_112947:500,-0.248596,0.113373,-0.46316499999999994,-0.035373,-0.011859,0.012819,0.75,-7.18,-36.0,1b
2019-07-12_112947:520,-0.274536,0.09149199999999999,-0.445862,-0.034488,-0.016498,0.024568,0.75,-7.18,-36.0,1b
2019-07-12_112947:540,-0.304535,0.07928500000000001,-0.46823100000000006,-0.033451,-0.017688,0.027223,0.75,-7.18,-36.0,1b
2019-07-12_112947:560,-0.291321,0.068634,-0.46823100000000006,-0.029331,-0.014819999999999998,0.030031,1.5,-8.0,-35.68,1b
2019-07-12_112947:580,-0.283173,0.056427,-0.45553599999999994,-0.023624000000000003,-0.012988,0.036653,1.5,-8.0,-35.68,1b
2019-07-12_112947:600,-0.274536,0.035583,-0.423004,-0.019046,-0.007739,0.041627,1.5,-8.25,-34.75,1b
2019-07-12_112947:620,-0.272491,0.031006,-0.39502,-0.015444999999999999,-0.0009339999999999999,0.046662999999999996,1.5,-8.25,-34.75,1b
2019-07-12_112947:640,-0.261322,0.017273,-0.36248800000000003,-0.012333,0.006512,0.052522000000000006,1.5,-8.25,-34.75,1b
2019-07-12_112947:660,-0.24658200000000002,0.014221000000000001,-0.339111,-0.010593,0.012494,0.054262,1.5,-9.75,-35.18,1b
2019-07-12_112947:680,-0.23028600000000002,0.017792,-0.319794,-0.011722,0.015149000000000001,0.051851,1.5,-9.75,-35.18,1b
2019-07-12_112947:700,-0.231812,0.018799,-0.320282,-0.013309,0.01289,0.048921,0.37,-9.75,-34.75,1b
2019-07-12_112947:720,-0.237427,0.015747,-0.313171,-0.015384,0.0099,0.047425999999999996,0.37,-9.75,-34.75,1b
2019-07-12_112947:740,-0.23791500000000002,0.012695,-0.311127,-0.017307,0.0067870000000000005,0.044771,0.37,-9.75,-34.75,1b
2019-07-12_112947:760,-0.249115,0.007111,-0.318268,-0.019108,0.004315,0.040651,0.37,-9.5,-33.68,1b
2019-07-12_112947:780,-0.280121,0.001007,-0.32132,-0.019291,0.004529,0.036927999999999996,0.37,-9.5,-33.68,1b
2019-07-12_112947:800,-0.307587,-0.000488,-0.333496,-0.018375,0.00639,0.032869,-0.75,-10.06,-34.0,1b
2019-07-12_112947:820,-0.304535,-0.004059,-0.348267,-0.015903,0.0069700000000000005,0.027681,-0.75,-10.06,-34.0,1b
2019-07-12_112947:840,-0.342163,0.0025329999999999997,-0.384857,-0.012668,0.002575,0.022462,-0.75,-10.06,-34.0,1b
2019-07-12_112947:860,-0.364532,0.006072999999999999,-0.407227,-0.009739,-0.003375,0.022767,-0.75,-10.5,-34.75,1b
2019-07-12_112947:880,-0.374176,0.009125,-0.40774499999999997,-0.0061070000000000004,-0.0037719999999999997,0.025758,-0.75,-10.5,-34.75,1b
2019-07-12_112947:900,-0.3508,0.004547,-0.407227,-0.0036049999999999997,-0.0008119999999999999,0.024568,-1.56,-10.5,-34.75,1b
2019-07-12_112947:920,-0.410797,-0.0025329999999999997,-0.459595,-0.0013460000000000002,-0.004108,0.019746,-1.56,-10.5,-34.75,1b
2019-07-12_112947:940,-0.38739,0.0030210000000000002,-0.537384,-0.000278,-0.018085,0.018341999999999997,-1.56,-10.5,-34.75,1b
2019-07-12_112947:960,-0.38739,-0.002014,-0.498749,0.0033840000000000003,-0.021015,0.012086,-1.18,-10.5,-34.5,1b
2019-07-12_112947:980,-0.384857,-0.008118,-0.514008,0.001034,-0.021259,0.00937,-1.18,-10.5,-34.5,1b
2019-07-12_112948:000,-0.287231,-0.017792,-0.490112,0.00198,-0.011188,0.01819,-1.18,-11.56,-34.0,1b
2019-07-12_112948:020,-0.21249400000000002,-0.03302,-0.45043900000000003,0.0019190000000000001,0.000989,0.026307,-1.18,-11.56,-34.0,1b
2019-07-12_112948:040,-0.187073,-0.052338,-0.42401099999999997,-0.000797,0.008832,0.029695,-1.18,-11.56,-34.0,1b
2019-07-12_112948:060,-0.24353000000000002,-0.056915,-0.440796,-0.001865,0.007640999999999999,0.030733,-0.06,-10.5,-35.25,1b
2019-07-12_112948:080,-0.23233,-0.057953,-0.44384799999999996,-0.00159,0.005627,0.024171,-0.06,-10.5,-35.25,1b
2019-07-12_112948:100,-0.213013,-0.05285599999999999,-0.41943400000000003,-0.003879,0.0033689999999999996,0.00818,-0.75,-10.06,-34.75,1b
2019-07-12_112948:120,-0.242493,-0.035065,-0.433167,-0.007358,-0.001209,-0.00067,-0.75,-10.06,-34.75,1b
2019-07-12_112948:140,-0.255707,-0.024384,-0.441284,-0.009525,-0.00426,0.001253,-0.75,-10.06,-34.75,1b
2019-07-12_112948:160,-0.24963400000000002,-0.025421,-0.44232200000000005,-0.013187,-0.008472,0.003511,-1.18,-10.87,-35.18,1b
2019-07-12_112948:180,-0.275543,-0.017273,-0.420959,-0.016452,-0.008808,-0.001067,-1.18,-10.87,-35.18,1b
2019-07-12_112948:200,-0.310638,-0.011169,-0.408752,-0.018711000000000002,-0.005115,-0.003935,-1.56,-11.18,-36.0,1b
2019-07-12_112948:220,-0.325897,-0.005065999999999999,-0.378754,-0.018955,0.004651,-0.002593,-1.56,-11.18,-36.0,1b
2019-07-12_112948:240,-0.309113,0.000488,-0.364532,-0.019901,0.015057,-0.0009449999999999999,-1.56,-11.18,-36.0,1b
2019-07-12_112948:260,-0.29742399999999997,0.004547,-0.35739099999999996,-0.021366,0.021252,0.001527,-1.06,-11.5,-35.18,1b
2019-07-12_112948:280,-0.265381,0.011169,-0.3396,-0.022403,0.021953999999999998,0.007326000000000001,-1.06,-11.5,-35.18,1b
2019-07-12_112948:300,-0.257751,0.011687999999999999,-0.331482,-0.023746,0.019237999999999998,0.012239,-1.5,-11.5,-36.0,1b
2019-07-12_112948:320,-0.266907,0.012695,-0.328949,-0.025669,0.014813,0.014344999999999998,-1.5,-11.5,-36.0,1b
2019-07-12_112948:340,-0.278595,0.020844,-0.32995599999999997,-0.027134,0.010754000000000001,0.017671,-1.5,-11.5,-36.0,1b
2019-07-12_112948:360,-0.278107,0.01828,-0.32843,-0.028385000000000004,0.008618,0.021913,-2.56,-12.25,-35.68,1b
2019-07-12_112948:380,-0.302002,0.018799,-0.322327,-0.030185000000000003,0.008313,0.025361,-2.56,-12.25,-35.68,1b
2019-07-12_112948:400,-0.315704,0.022369,-0.341125,-0.032566000000000005,0.006756,0.030945999999999998,-3.0,-12.25,-35.18,1b
2019-07-12_112948:420,-0.316742,0.015747,-0.34674099999999997,-0.034702,0.0045899999999999995,0.038637,-3.0,-12.25,-35.18,1b
2019-07-12_112948:440,-0.327911,0.007599,-0.352844,-0.037693,0.003003,0.04178,-3.0,-12.25,-35.18,1b
2019-07-12_112948:460,-0.330475,0.014221000000000001,-0.411804,-0.043186,-0.004596,0.045686000000000004,-3.25,-13.25,-34.369999,1b
2019-07-12_112948:480,-0.309601,0.0025329999999999997,-0.398071,-0.04459,-0.005298,0.048067,-3.25,-13.25,-34.369999,1b
2019-07-12_112948:500,-0.344177,0.007599,-0.39859,-0.048649,-0.006275,0.03943,-4.75,-14.06,-34.68,1b
2019-07-12_112948:520,-0.349792,0.012695,-0.401642,-0.050480000000000004,-0.0035280000000000003,0.03705,-4.75,-14.06,-34.68,1b
2019-07-12_112948:540,-0.339111,0.024902,-0.409271,-0.0499,-0.001117,0.040223,-4.75,-14.06,-34.68,1b
2019-07-12_112948:560,-0.386383,0.028961,-0.431122,-0.053959,-0.010639000000000001,0.044374000000000004,-5.06,-16.25,-33.060001,1b
2019-07-12_112948:580,-0.425018,0.029480000000000003,-0.475861,-0.056614,-0.020404,0.057435,-5.06,-16.25,-33.060001,1b
2019-07-12_112948:600,-0.42401099999999997,0.029968,-0.46060200000000007,-0.058597,-0.019824,0.059297,-5.5,-17.5,-33.060001,1b
2019-07-12_112948:620,-0.37316900000000003,0.065063,-0.447906,-0.06363300000000001,-0.014972,0.055513,-5.5,-17.5,-33.060001,1b
2019-07-12_112948:640,-0.35739099999999996,0.079803,-0.434692,-0.063572,-0.004718,0.050722,-5.5,-17.5,-33.060001,1b
2019-07-12_112948:660,-0.34063699999999997,0.097595,-0.410797,-0.065372,0.005231,0.042573,-5.5,-19.25,-32.369999,1b
2019-07-12_112948:680,-0.28064,0.137268,-0.375702,-0.067569,0.015149000000000001,0.038698,-5.5,-19.25,-32.369999,1b
2019-07-12_112948:700,-0.271484,0.15506,-0.34570300000000004,-0.06894299999999999,0.021039,0.044435,-6.56,-21.059998999999998,-30.68,1b
2019-07-12_112948:720,-0.287231,0.17843599999999998,-0.359955,-0.07114,0.021252,0.055696,-6.56,-21.059998999999998,-30.68,1b
2019-07-12_112948:740,-0.282654,0.185547,-0.35791,-0.073795,0.017865,0.064149,-6.56,-21.059998999999998,-30.68,1b
2019-07-12_112948:760,-0.252686,0.189117,-0.358429,-0.075901,0.011029,0.066469,-8.5,-22.25,-30.870001000000002,1b
2019-07-12_112948:780,-0.26181,0.189117,-0.366058,-0.076053,0.00105,0.065126,-8.5,-22.25,-30.870001000000002,1b
2019-07-12_112948:800,-0.295898,0.188599,-0.391968,-0.074527,-0.008411,0.06732300000000001,-11.5,-23.25,-29.68,1b
2019-07-12_112948:820,-0.300476,0.189117,-0.396057,-0.071811,-0.015247,0.074281,-11.5,-23.25,-29.68,1b
2019-07-12_112948:840,-0.305542,0.174896,-0.388428,-0.068882,-0.018482,0.082521,-11.5,-23.25,-29.68,1b
2019-07-12_112948:860,-0.320282,0.163696,-0.387909,-0.067356,-0.019,0.087556,-12.5,-24.370001000000002,-26.870001000000002,1b
2019-07-12_112948:880,-0.334534,0.144897,-0.37265,-0.061190999999999995,-0.015094,0.102815,-12.5,-24.370001000000002,-26.870001000000002,1b
2019-07-12_112948:900,-0.33605999999999997,0.133698,-0.361481,-0.058475,-0.010639000000000001,0.10852200000000001,-14.0,-25.5,-26.18,1b
2019-07-12_112948:920,-0.333496,0.12558,-0.344177,-0.057132,-0.006488,0.110475,-14.0,-25.5,-26.18,1b
2019-07-12_112948:940,-0.313171,0.11386099999999999,-0.321808,-0.057132,-0.00246,0.111268,-14.0,-25.5,-26.18,1b
2019-07-12_112948:960,-0.29943800000000004,0.104706,-0.314697,-0.058200999999999996,-0.001178,0.110078,-16.18,-24.370001000000002,-25.68,1b
2019-07-12_112948:980,-0.273529,0.07775900000000001,-0.304016,-0.058597,-0.001392,0.107423,-16.18,-24.370001000000002,-25.68,1b
2019-07-12_112949:000,-0.267426,0.053863999999999995,-0.29995700000000003,-0.056063999999999996,-0.003375,0.102113,-18.75,-24.370001000000002,-23.68,1b
2019-07-12_112949:020,-0.259277,0.023895,-0.300964,-0.050082999999999996,-0.0055119999999999995,0.093751,-18.75,-24.370001000000002,-23.68,1b
2019-07-12_112949:040,-0.25827,0.023895,-0.314697,-0.041721,-0.009723,0.083925,-18.75,-24.370001000000002,-23.68,1b
2019-07-12_112949:060,-0.269958,0.022858,-0.334015,-0.034366,-0.012988,0.074769,-21.059998999999998,-24.0,-21.75,1b
2019-07-12_112949:080,-0.278595,0.029968,-0.3508,-0.027712999999999998,-0.01485,0.064729,-21.059998999999998,-24.0,-21.75,1b
2019-07-12_112949:100,-0.35638400000000003,0.038116000000000004,-0.389435,-0.023014,-0.015949,0.056428,-23.18,-22.5,-21.25,1b
2019-07-12_112949:120,-0.417908,0.048279,-0.41485600000000006,-0.019046,-0.011463,0.052125,-23.18,-22.5,-21.25,1b
2019-07-12_112949:140,-0.466217,0.037598,-0.425018,-0.016849,-0.0031309999999999997,0.051729,-23.18,-22.5,-21.25,1b
2019-07-12_112949:160,-0.562286,0.043213,-0.492126,-0.019443000000000002,-0.013172,0.058046,-23.18,-21.059998999999998,-21.370001000000002,1b
2019-07-12_112949:180,-0.382812,0.028442000000000002,-0.46670500000000004,-0.020023,-0.005359,0.07055800000000001,-23.18,-21.059998999999998,-21.370001000000002,1b
2019-07-12_112949:200,-0.23895300000000003,0.019806,-0.401123,-0.026676,0.006756,0.071962,-25.18,-20.370001000000002,-22.18,1b
2019-07-12_112949:220,-0.21148699999999998,-0.014740000000000001,-0.40011599999999997,-0.037632,0.007489,0.077028,-25.18,-20.370001000000002,-22.18,1b
2019-07-12_112949:240,-0.260803,-0.033539,-0.399597,-0.037814999999999994,0.010968,0.08465700000000001,-25.18,-20.370001000000002,-22.18,1b
2019-07-12_112949:260,-0.261322,-0.06149299999999999,-0.34368899999999997,-0.038883,0.015515000000000001,0.081849,-26.68,-19.25,-20.559998999999998,1b
2019-07-12_112949:280,-0.268951,-0.058960000000000005,-0.327911,-0.043918,0.023572,0.058015,-26.68,-19.25,-20.559998999999998,1b
2019-07-12_112949:300,-0.27301,-0.053375,-0.375214,-0.04578,0.021557,0.056702999999999996,-28.559998999999998,-18.18,-19.370001000000002,1b
2019-07-12_112949:320,-0.25521900000000003,-0.068115,-0.391968,-0.045505000000000004,0.009289,0.068117,-28.559998999999998,-18.18,-19.370001000000002,1b
2019-07-12_112949:340,-0.25317399999999995,-0.095062,-0.40774499999999997,-0.047977,0.00040899999999999997,0.064546,-28.559998999999998,-18.18,-19.370001000000002,1b
2019-07-12_112949:360,-0.25012199999999996,-0.10675,-0.42248500000000005,-0.047641,-0.0061530000000000005,0.058748,-30.0,-16.68,-17.370001000000002,1b
2019-07-12_112949:380,-0.267914,-0.115906,-0.416382,-0.037021,-0.007526000000000001,0.049074,-30.0,-16.68,-17.370001000000002,1b
2019-07-12_112949:400,-0.29742399999999997,-0.108795,-0.41232299999999994,-0.034427,-0.0060609999999999995,0.042695,-30.75,-15.56,-17.0,1b
2019-07-12_112949:420,-0.347748,-0.077271,-0.40570100000000003,-0.028873000000000003,-0.001575,0.034730000000000004,-30.75,-15.56,-17.0,1b
2019-07-12_112949:440,-0.37011700000000003,-0.055908000000000006,-0.394531,-0.027744,0.0023309999999999997,0.038452999999999994,-30.75,-15.56,-17.0,1b
2019-07-12_112949:460,-0.352325,-0.039124,-0.37316900000000003,-0.028720999999999997,0.004497999999999999,0.038972,-30.370001000000002,-14.5,-16.559998999999998,1b
2019-07-12_112949:480,-0.330963,-0.027954000000000003,-0.355377,-0.035556,0.007824,0.040833999999999995,-30.370001000000002,-14.5,-16.559998999999998,1b
2019-07-12_112949:500,-0.28775,-0.016266,-0.349792,-0.037937,0.006756,0.045534,-32.0,-13.0,-16.559998999999998,1b
2019-07-12_112949:520,-0.262329,-0.019806,-0.35638400000000003,-0.043399,-0.002979,0.055574,-32.0,-13.0,-16.559998999999998,1b
2019-07-12_112949:540,-0.272003,-0.021332,-0.36706500000000003,-0.048435,-0.010456,0.05450599999999999,-32.0,-13.0,-16.559998999999998,1b
2019-07-12_112949:560,-0.30654899999999996,-0.013702,-0.379791,-0.051029000000000005,-0.013324,0.055299,-32.369999,-12.68,-15.75,1b
2019-07-12_112949:580,-0.344696,-0.011169,-0.379272,-0.057712,-0.013568,0.06241,-32.369999,-12.68,-15.75,1b
2019-07-12_112949:600,-0.37316900000000003,-0.013213999999999998,-0.378265,-0.060367,-0.011463,0.064332,-32.869999,-12.0,-14.56,1b
2019-07-12_112949:620,-0.396057,-0.016753999999999998,-0.376221,-0.06927799999999999,-0.002246,0.07128999999999999,-32.869999,-12.0,-14.56,1b
2019-07-12_112949:640,-0.385376,-0.023375999999999997,-0.371643,-0.073063,0.002514,0.076021,-32.869999,-12.0,-14.56,1b
2019-07-12_112949:660,-0.350281,-0.044739,-0.36044299999999996,-0.074405,0.003186,0.076692,-33.560001,-10.87,-14.56,1b
2019-07-12_112949:680,-0.325378,-0.057434000000000006,-0.35436999999999996,-0.07599199999999999,0.000348,0.072969,-33.560001,-10.87,-14.56,1b
2019-07-12_112949:700,-0.285217,-0.068115,-0.334534,-0.076053,-0.000995,0.070985,-34.0,-9.37,-13.37,1b
2019-07-12_112949:720,-0.268951,-0.073212,-0.320801,-0.075168,-0.0070680000000000005,0.061952,-34.0,-9.37,-13.37,1b
2019-07-12_112949:740,-0.25827,-0.0737,-0.316742,-0.07526000000000001,-0.00954,0.057161000000000003,-34.0,-9.37,-13.37,1b
2019-07-12_112949:760,-0.263336,-0.069122,-0.320801,-0.074588,-0.014362,0.047151,-35.060001,-7.5,-13.68,1b
2019-07-12_112949:780,-0.276062,-0.05285599999999999,-0.32995599999999997,-0.074039,-0.019275,0.038576,-35.060001,-7.5,-13.68,1b
2019-07-12_112949:800,-0.285706,-0.041168,-0.344177,-0.073978,-0.023853,0.033662,-35.060001,-7.5,-13.68,1b
2019-07-12_112949:820,-0.321808,-0.024902,-0.355377,-0.074192,-0.025867,0.032747000000000005,-35.5,-7.87,-12.18,1b
2019-07-12_112949:840,-0.346222,-0.014740000000000001,-0.378265,-0.07385599999999999,-0.026599,0.033754,-35.5,-7.87,-12.18,1b
2019-07-12_112949:860,-0.34875500000000004,0.007111,-0.39502,-0.07385599999999999,-0.026325,0.035798,-34.68,-6.37,-12.18,1b
2019-07-12_112949:880,-0.347748,0.022858,-0.40976,-0.075901,-0.02544,0.049684,-34.68,-6.37,-12.18,1b
2019-07-12_112949:900,-0.349274,0.037598,-0.429108,-0.077182,-0.023791999999999997,0.055390999999999996,-34.68,-6.37,-12.18,1b
2019-07-12_112949:920,-0.355377,0.046752999999999996,-0.432159,-0.08413999999999999,-0.017627,0.06903200000000001,-33.68,-6.68,-13.0,1b
2019-07-12_112949:940,-0.44891400000000004,0.07016,-0.506897,-0.088779,-0.03017,0.076539,-33.68,-6.68,-13.0,1b
2019-07-12_112949:960,-0.35791,0.064545,-0.562286,-0.089389,-0.026111000000000002,0.07946900000000001,-34.5,-5.56,-13.0,1b
2019-07-12_112949:980,-0.306061,0.096069,-0.508423,-0.09415,-0.022083000000000002,0.083986,-34.5,-5.56,-13.0,1b
2019-07-12_112950:000,-0.301483,0.095581,-0.541443,-0.100406,-0.021075999999999998,0.095735,-34.5,-5.56,-13.0,1b
2019-07-12_112950:020,-0.20742800000000003,0.105743,-0.51297,-0.10379400000000001,-0.005054,0.105897,-34.060001,-4.06,-12.18,1b
2019-07-12_112950:040,-0.144897,0.10318,-0.472321,-0.103397,-0.0008119999999999999,0.10403599999999999,-34.060001,-4.06,-12.18,1b
2019-07-12_112950:060,-0.168793,0.107269,-0.49823,-0.10278699999999999,-0.003192,0.102449,-33.68,-1.75,-12.56,1b
2019-07-12_112950:080,-0.21505700000000003,0.09811399999999999,-0.5205989999999999,-0.097477,-0.00838,0.102022,-33.68,-1.75,-12.56,1b
2019-07-12_112950:100,-0.183014,0.102692,-0.506897,-0.094913,-0.008472,0.101625,-33.68,-1.75,-12.56,1b
2019-07-12_112950:120,-0.20944200000000002,0.097595,-0.49926800000000005,-0.08871799999999999,-0.010639000000000001,0.10009900000000001,-34.5,0.37,-13.37,1b
2019-07-12_112950:140,-0.21402,0.095581,-0.515533,-0.085819,-0.009876000000000001,0.101106,-34.5,0.37,-13.37,1b
2019-07-12_112950:160,-0.216583,0.08743300000000001,-0.495697,-0.079105,-0.008472,0.10315099999999999,-34.18,1.87,-11.68,1b
2019-07-12_112950:180,-0.24963400000000002,0.066071,-0.473846,-0.073581,-0.0061530000000000005,0.102968,-34.18,1.87,-11.68,1b
2019-07-12_112950:200,-0.248596,0.056915,-0.445374,-0.066562,0.000256,0.102449,-34.18,1.87,-11.68,1b
2019-07-12_112950:220,-0.238434,0.040649,-0.402161,-0.060001,0.005627,0.102907,-32.68,4.06,-14.06,1b
2019-07-12_112950:240,-0.228271,0.033539,-0.384338,-0.054081,0.008496,0.100648,-32.68,4.06,-14.06,1b
2019-07-12_112950:260,-0.21911599999999998,0.021851,-0.358429,-0.04935,0.008618,0.095399,-32.68,7.0,-13.56,1b
2019-07-12_112950:280,-0.23233,0.016753999999999998,-0.352325,-0.044712,0.0071530000000000005,0.08896,-32.68,7.0,-13.56,1b
2019-07-12_112950:300,-0.25012199999999996,0.008636,-0.344696,-0.039615,0.006451,0.08105599999999999,-32.68,7.0,-13.56,1b
2019-07-12_112950:320,-0.270966,0.0035399999999999997,-0.33300799999999997,-0.035099,0.006848000000000001,0.071382,-32.68,8.5,-13.56,1b
2019-07-12_112950:340,-0.272491,0.0025329999999999997,-0.325897,-0.030185000000000003,0.009106,0.063722,-32.68,8.5,-13.56,1b
2019-07-12_112950:360,-0.276062,-0.0025329999999999997,-0.315704,-0.024814,0.01167,0.059022000000000005,-30.75,11.25,-14.75,1b
2019-07-12_112950:380,-0.275543,-0.0025329999999999997,-0.312164,-0.01923,0.013988999999999998,0.052736,-30.75,11.25,-14.75,1b
2019-07-12_112950:400,-0.290802,0.0,-0.310638,-0.014377000000000001,0.015544999999999998,0.044679,-30.75,11.25,-14.75,1b
2019-07-12_112950:420,-0.315704,-0.001495,-0.323334,-0.009922,0.013928,0.039186,-31.25,12.37,-14.06,1b
2019-07-12_112950:440,-0.32486,-0.001495,-0.315704,-0.004612,0.014325,0.034395,-31.25,12.37,-14.06,1b
2019-07-12_112950:460,-0.337067,0.001495,-0.331482,-0.000553,0.014081,0.026307,-30.18,12.37,-14.75,1b
2019-07-12_112950:480,-0.402161,0.007111,-0.370636,0.002987,0.009289,0.020662,-30.18,12.37,-14.75,1b
2019-07-12_112950:500,-0.43518100000000004,0.005065999999999999,-0.382324,0.00787,0.007306,0.018739,-30.18,12.37,-14.75,1b
2019-07-12_112950:520,-0.425537,-0.004059,-0.369598,0.010952,0.0117,0.016663999999999998,-30.18,13.87,-12.5,1b
2019-07-12_112950:540,-0.40063499999999996,-0.012695,-0.378754,0.012936000000000001,0.016797,0.014740999999999999,-30.18,13.87,-12.5,1b
2019-07-12_112950:560,-0.444855,-0.031494,-0.41842700000000005,0.015652000000000003,0.016003,0.010255,-30.18,13.87,-12.5,1b
2019-07-12_112950:580,-0.44232200000000005,-0.024384,-0.503845,0.015377000000000002,-0.001941,0.005586,-30.18,13.87,-12.5,1b
2019-07-12_112950:600,-0.42758199999999996,-0.044219999999999995,-0.47995,0.018246000000000002,-0.014301,-0.0009449999999999999,-30.18,13.87,-12.5,1b
2019-07-12_112950:620,-0.380798,-0.056427,-0.494171,0.018521,-0.022266,-0.008452,-30.870001000000002,14.68,-13.18,1b
2019-07-12_112950:640,-0.33605999999999997,-0.050842,-0.44891400000000004,0.021084000000000002,-0.012531,-0.011229000000000001,-30.870001000000002,14.68,-13.18,1b
2019-07-12_112950:660,-0.288269,-0.047272,-0.407227,0.020443,0.0033689999999999996,-0.004118999999999999,-30.75,14.25,-13.5,1b
2019-07-12_112950:680,-0.277588,-0.037108999999999996,-0.339111,0.017849,0.021893,0.008790000000000001,-30.75,14.25,-13.5,1b
2019-07-12_112950:700,-0.28064,-0.042175,-0.338074,0.011257,0.028943,0.022584,-30.75,14.25,-13.5,1b
2019-07-12_112950:720,-0.243011,-0.066071,-0.329437,0.007016,0.026410000000000003,0.025238999999999998,-30.75,14.75,-12.37,1b
2019-07-12_112950:740,-0.230804,-0.066071,-0.32132,0.00079,0.018323,0.013276,-30.75,14.75,-12.37,1b
2019-07-12_112950:760,-0.256226,-0.070648,-0.338593,-0.006076,0.008221,0.007265000000000001,-31.18,15.18,-11.18,1b
2019-07-12_112950:780,-0.267914,-0.08843999999999999,-0.353851,-0.00922,-0.001941,0.011781,-31.18,15.18,-11.18,1b
2019-07-12_112950:800,-0.269958,-0.10675,-0.372162,-0.011051,-0.012317,0.008912,-31.18,15.18,-11.18,1b
2019-07-12_112950:820,-0.28979499999999997,-0.09454299999999999,-0.376221,-0.011936,-0.021594,-0.0051259999999999995,-31.18,15.18,-10.75,1b
2019-07-12_112950:840,-0.318756,-0.070648,-0.367584,-0.011051,-0.025531,-0.014219999999999998,-31.18,15.18,-10.75,1b
2019-07-12_112950:860,-0.336548,-0.057953,-0.35943600000000003,-0.009525,-0.023517,-0.015135,-30.370001000000002,15.5,-11.18,1b
2019-07-12_112950:880,-0.349792,-0.044739,-0.340118,-0.0098,-0.018146000000000002,-0.014769,-30.370001000000002,15.5,-11.18,1b
2019-07-12_112950:900,-0.336548,-0.037108999999999996,-0.330963,-0.01099,-0.01192,-0.015135,-30.370001000000002,15.5,-11.18,1b
2019-07-12_112950:920,-0.30654899999999996,-0.035065,-0.307587,-0.011539,-0.007343000000000001,-0.012969,-31.18,14.75,-12.37,1b
2019-07-12_112950:940,-0.29284699999999997,-0.031006,-0.304016,-0.011478,-0.006214,-0.0101,-31.18,14.75,-12.37,1b
2019-07-12_112950:960,-0.28418000000000004,-0.025421,-0.300964,-0.012516,-0.008075,-0.007903,-30.75,14.0,-11.56,1b
2019-07-12_112950:980,-0.28927600000000003,-0.020844,-0.29995700000000003,-0.014041999999999999,-0.011463,-0.005797,-30.75,14.0,-11.56,1b
2019-07-12_112951:000,-0.29486100000000004,-0.021851,-0.307068,-0.015781,-0.014362,-0.0036,-30.75,14.0,-11.56,1b
2019-07-12_112951:020,-0.296906,-0.023895,-0.309601,-0.017765,-0.015368999999999999,-0.002745,-31.870001000000002,13.68,-12.68,1b
2019-07-12_112951:040,-0.311646,-0.022858,-0.320801,-0.019169,-0.016040000000000002,-0.001738,-31.870001000000002,13.68,-12.68,1b
2019-07-12_112951:060,-0.33758499999999997,-0.022369,-0.326385,-0.020359,-0.014636000000000001,0.000459,-30.75,13.25,-14.37,1b
2019-07-12_112951:080,-0.371643,-0.019806,-0.345215,-0.021824,-0.012714,0.003572,-30.75,13.25,-14.37,1b
2019-07-12_112951:100,-0.389435,-0.017273,-0.364014,-0.024418000000000002,-0.011188,0.007448000000000001,-30.75,13.25,-14.37,1b
2019-07-12_112951:120,-0.394531,-0.022858,-0.378754,-0.026523,-0.010059,0.010896,-31.18,14.37,-14.68,1b
2019-07-12_112951:140,-0.382324,-0.022858,-0.381805,-0.027012,-0.00893,0.007844,-31.18,14.37,-14.68,1b
2019-07-12_112951:160,-0.353851,0.0,-0.385864,-0.029056,-0.006793,0.002778,-31.559998999999998,13.25,-14.68,1b
2019-07-12_112951:180,-0.318268,0.01828,-0.386383,-0.030521,-0.00539,0.007844,-31.559998999999998,13.25,-14.68,1b
2019-07-12_112951:200,-0.42147799999999996,0.03302,-0.43823199999999995,-0.031894,-0.012714,0.016084,-31.559998999999998,13.25,-14.68,1b
2019-07-12_112951:220,-0.44232200000000005,0.037598,-0.517548,-0.035556,-0.031085,0.021181000000000002,-30.370001000000002,13.25,-15.06,1b
2019-07-12_112951:240,-0.401123,0.043213,-0.42605600000000005,-0.035769999999999996,-0.027454000000000003,0.023195,-30.370001000000002,13.25,-15.06,1b
2019-07-12_112951:260,-0.366058,0.050842,-0.46417200000000003,-0.038363999999999995,-0.026966000000000004,0.026826,-30.75,12.18,-17.5,1b
2019-07-12_112951:280,-0.29742399999999997,0.05285599999999999,-0.444855,-0.034702,-0.019489,0.031099,-30.75,12.18,-17.5,1b
2019-07-12_112951:300,-0.21249400000000002,0.055908000000000006,-0.43670699999999996,-0.032047000000000006,-0.015186000000000002,0.029207,-30.75,12.18,-17.5,1b
2019-07-12_112951:320,-0.245544,0.055908000000000006,-0.40976,-0.027073000000000003,-0.011524,0.024507,-30.75,13.0,-19.870001000000002,1b
2019-07-12_112951:340,-0.302002,0.057953,-0.41586300000000004,-0.022831,-0.007281999999999999,0.027772,-30.75,13.0,-19.870001000000002,1b
2019-07-12_112951:360,-0.31723,0.051330999999999995,-0.43621800000000005,-0.019504,-0.008258,0.040986,-29.68,13.0,-18.25,1b
2019-07-12_112951:380,-0.295898,0.039642000000000004,-0.417908,-0.014927000000000001,-0.009387000000000001,0.046022,-29.68,13.0,-18.25,1b
2019-07-12_112951:400,-0.323853,0.037108999999999996,-0.410278,-0.013584,-0.009845,0.034395,-29.68,13.0,-18.25,1b
2019-07-12_112951:420,-0.334534,0.041168,-0.414337,-0.01218,-0.00954,0.025238999999999998,-29.370001000000002,13.25,-18.68,1b
2019-07-12_112951:440,-0.300476,0.03302,-0.404175,-0.009281000000000001,-0.010578,0.024965,-29.370001000000002,13.25,-18.68,1b
2019-07-12_112951:460,-0.28979499999999997,0.026917,-0.379791,-0.008395999999999999,-0.009937,0.022401,-28.559998999999998,14.37,-19.5,1b
2019-07-12_112951:480,-0.293854,0.016753999999999998,-0.346222,-0.00867,-0.007281999999999999,0.022066,-28.559998999999998,14.37,-19.5,1b
2019-07-12_112951:500,-0.304016,0.008118,-0.32995599999999997,-0.006351,-0.002979,0.029633999999999997,-28.559998999999998,14.37,-19.5,1b
2019-07-12_112951:520,-0.295898,-0.004059,-0.300476,-0.004764,0.001782,0.03354,-27.870001000000002,15.18,-20.68,1b
2019-07-12_112951:540,-0.281647,-0.002014,-0.288269,-0.004001,0.0045899999999999995,0.029817000000000003,-27.870001000000002,15.18,-20.68,1b
2019-07-12_112951:560,-0.276062,-0.001495,-0.285217,-0.0036049999999999997,0.003735,0.026185000000000003,-28.18,15.18,-20.25,1b
2019-07-12_112951:580,-0.27301,-0.005065999999999999,-0.283173,-0.003208,0.001263,0.024782,-28.18,15.18,-20.25,1b
2019-07-12_112951:600,-0.279114,-0.009125,-0.29284699999999997,-0.0036049999999999997,-0.003467,0.022859,-28.18,15.18,-20.25,1b
2019-07-12_112951:620,-0.285217,-0.008636,-0.29943800000000004,-0.004642,-0.008716,0.019806999999999998,-27.870001000000002,15.5,-19.059998999999998,1b
2019-07-12_112951:640,-0.303528,-0.010651,-0.305054,-0.0052829999999999995,-0.012042,0.01587,-27.870001000000002,15.5,-19.059998999999998,1b
2019-07-12_112951:660,-0.33605999999999997,-0.012695,-0.30654899999999996,-0.005497,-0.0125,0.011903,-27.870001000000002,16.25,-19.870001000000002,1b
2019-07-12_112951:680,-0.353333,-0.011169,-0.321808,-0.005344,-0.009723,0.009706000000000001,-27.870001000000002,16.25,-19.870001000000002,1b
2019-07-12_112951:700,-0.355377,-0.016753999999999998,-0.336548,-0.003788,-0.007801000000000001,0.007448000000000001,-27.870001000000002,16.25,-19.870001000000002,1b
2019-07-12_112951:720,-0.364532,-0.013702,-0.384857,-0.0033909999999999995,-0.013781999999999999,0.002229,-29.370001000000002,16.68,-20.25,1b
2019-07-12_112951:740,-0.399597,-0.006072999999999999,-0.389954,-0.001407,-0.019824,-0.00128,-29.370001000000002,16.68,-20.25,1b
2019-07-12_112951:760,-0.390961,0.004547,-0.390442,0.000332,-0.017688,-0.0024100000000000002,-28.559998999999998,17.0,-21.870001000000002,1b
2019-07-12_112951:780,-0.37265,-0.007111,-0.411804,0.000576,-0.012165,0.0019850000000000002,-28.559998999999998,17.0,-21.870001000000002,1b
2019-07-12_112951:800,-0.429108,-0.021332,-0.462646,0.0014609999999999998,-0.013843000000000001,0.003023,-28.559998999999998,17.0,-21.870001000000002,1b
2019-07-12_112951:820,-0.397583,-0.034546,-0.551636,0.001187,-0.030688999999999998,3.2e-05,-27.870001000000002,17.0,-21.870001000000002,1b
2019-07-12_112951:840,-0.375214,-0.028442000000000002,-0.49468999999999996,0.004177,-0.033954000000000005,-0.00952,-27.870001000000002,17.0,-21.870001000000002,1b
2019-07-12_112951:860,-0.341644,-0.028961,-0.51297,0.001309,-0.033832,-0.013884,-28.18,16.68,-22.18,1b
2019-07-12_112951:880,-0.266907,-0.026427999999999997,-0.491638,0.00256,-0.024188,-0.006774,-28.18,16.68,-22.18,1b
2019-07-12_112951:900,-0.128601,-0.034058,-0.46569799999999995,0.003109,-0.01485,-0.0014939999999999999,-28.18,16.68,-22.18,1b
2019-07-12_112951:920,-0.21810900000000003,-0.026427999999999997,-0.460114,0.000637,-0.012897,-0.002623,-27.870001000000002,17.0,-25.0,1b
2019-07-12_112951:940,-0.275055,-0.045226999999999996,-0.49926800000000005,-9.499999999999999e-05,-0.014422999999999998,0.006593000000000001,-27.870001000000002,17.0,-25.0,1b
2019-07-12_112951:960,-0.219635,-0.062012,-0.461121,0.002194,-0.011585,0.013368000000000001,-28.559998999999998,17.0,-23.870001000000002,1b
2019-07-12_112951:980,-0.21759,-0.06405599999999999,-0.448425,0.000332,-0.011188,0.005678,-28.559998999999998,17.0,-23.870001000000002,1b
2019-07-12_112952:000,-0.228271,-0.066071,-0.454529,-0.001407,-0.010517,0.0038159999999999995,-28.559998999999998,17.0,-23.870001000000002,1b
2019-07-12_112952:020,-0.222687,-0.080322,-0.444855,-0.001194,-0.008869,0.009492,-28.68,17.370001000000002,-23.870001000000002,1b
2019-07-12_112952:040,-0.23486300000000002,-0.083862,-0.430634,-0.0011330000000000001,-0.009723,0.004213000000000001,-28.68,17.370001000000002,-23.870001000000002,1b
2019-07-12_112952:060,-0.26181,-0.067596,-0.399109,-0.001743,-0.007526000000000001,-0.012175,-28.25,16.68,-24.559998999999998,1b
2019-07-12_112952:080,-0.272003,-0.055389,-0.37316900000000003,-0.000553,-0.001209,-0.023191999999999997,-28.25,16.68,-24.559998999999998,1b
2019-07-12_112952:100,-0.262329,-0.036591000000000005,-0.344177,0.0015220000000000001,0.00758,-0.02603,-28.25,16.68,-24.559998999999998,1b
2019-07-12_112952:120,-0.253693,-0.027435,-0.32843,0.001126,0.013531,-0.028013999999999997,-28.68,17.0,-24.870001000000002,1b
2019-07-12_112952:140,-0.244019,-0.014740000000000001,-0.316742,-0.000217,0.015149000000000001,-0.028227,-28.68,17.0,-24.870001000000002,1b
2019-07-12_112952:160,-0.23895300000000003,-0.014221000000000001,-0.314697,-0.001468,0.01347,-0.02423,-29.5,15.87,-23.370001000000002,1b
2019-07-12_112952:180,-0.22927899999999998,-0.012177,-0.315704,-0.003147,0.009106,-0.020781,-29.5,15.87,-23.370001000000002,1b
2019-07-12_112952:200,-0.233337,-0.009644,-0.323853,-0.005039,0.003399,-0.019927,-29.5,15.87,-23.370001000000002,1b
2019-07-12_112952:220,-0.259796,-0.009644,-0.34265100000000004,-0.006809,-0.0031309999999999997,-0.017546,-30.5,15.18,-24.059998999999998,1b
2019-07-12_112952:240,-0.277069,-0.010651,-0.353851,-0.007877,-0.0070680000000000005,-0.015013,-30.5,15.18,-24.059998999999998,1b
2019-07-12_112952:260,-0.30300900000000003,-0.007111,-0.347748,-0.00867,-0.0061530000000000005,-0.013884,-31.68,14.75,-24.059998999999998,1b
2019-07-12_112952:280,-0.315216,0.0,-0.361481,-0.009678,-0.001575,-0.011748,-31.68,14.75,-24.059998999999998,1b
2019-07-12_112952:300,-0.32132,-0.001007,-0.389954,-0.010868000000000001,0.001202,-0.004546,-31.68,14.75,-24.059998999999998,1b
2019-07-12_112952:320,-0.358917,0.000488,-0.401123,-0.012333,0.0016600000000000002,0.001527,-32.369999,14.37,-24.059998999999998,1b
2019-07-12_112952:340,-0.361481,-0.0055850000000000006,-0.412811,-0.014652000000000002,0.000348,0.004518,-32.369999,14.37,-24.059998999999998,1b
2019-07-12_112952:360,-0.330475,0.001495,-0.40823400000000004,-0.0163,0.003247,0.004548,-32.369999,14.75,-24.059998999999998,1b
2019-07-12_112952:380,-0.285706,0.016266,-0.423004,-0.016697,0.0033689999999999996,0.004915,-32.369999,14.75,-24.059998999999998,1b
2019-07-12_112952:400,-0.372162,0.026917,-0.47433500000000006,-0.019565,-0.015581999999999999,0.011293000000000001,-32.369999,14.75,-24.059998999999998,1b
2019-07-12_112952:420,-0.375214,0.018799,-0.55365,-0.020084,-0.028369,0.021577000000000002,-31.870001000000002,13.68,-23.75,1b
2019-07-12_112952:440,-0.392487,0.024384,-0.492645,-0.020145,-0.024921000000000002,0.022981,-31.870001000000002,13.68,-23.75,1b
2019-07-12_112952:460,-0.359955,0.038116000000000004,-0.502808,-0.019747999999999998,-0.016773,0.022462,-32.25,13.25,-25.25,1b
2019-07-12_112952:480,-0.29486100000000004,0.05996699999999999,-0.46060200000000007,-0.016239,-0.001789,0.017884999999999998,-32.25,13.25,-25.25,1b
2019-07-12_112952:500,-0.23590100000000003,0.079803,-0.41384899999999997,-0.015597999999999999,0.007306,0.008516,-32.25,13.25,-25.25,1b
2019-07-12_112952:520,-0.263336,0.09454299999999999,-0.421967,-0.016117,0.007367,0.006135,-31.559998999999998,14.37,-24.559998999999998,1b
2019-07-12_112952:540,-0.298431,0.104706,-0.42858900000000005,-0.016971,0.001263,0.01822,-31.559998999999998,14.37,-24.559998999999998,1b
2019-07-12_112952:560,-0.277588,0.086914,-0.410278,-0.014591,-0.0017280000000000002,0.025422,-32.25,13.68,-26.059998999999998,1b
2019-07-12_112952:580,-0.29232800000000003,0.074738,-0.40368699999999996,-0.015444999999999999,-0.005817,0.018129,-32.25,13.68,-26.059998999999998,1b
2019-07-12_112952:600,-0.294373,0.078278,-0.410797,-0.014194,-0.009662,0.015809,-32.25,13.68,-26.059998999999998,1b
2019-07-12_112952:620,-0.277588,0.06405599999999999,-0.408752,-0.012211,-0.013965,0.021394,-32.25,14.06,-26.870001000000002,1b
2019-07-12_112952:640,-0.275543,0.043213,-0.394012,-0.011417,-0.014575,0.022066,-32.25,14.06,-26.870001000000002,1b
2019-07-12_112952:660,-0.263336,0.026917,-0.36554000000000003,-0.010013,-0.010851999999999999,0.022522999999999998,-31.870001000000002,14.06,-26.059998999999998,1b
2019-07-12_112952:680,-0.264862,0.013213999999999998,-0.347229,-0.0061070000000000004,-0.0061530000000000005,0.027039999999999998,-31.870001000000002,14.06,-26.059998999999998,1b
2019-07-12_112952:700,-0.275543,-0.0025329999999999997,-0.32843,-0.002079,-0.001392,0.027711000000000003,-31.870001000000002,14.06,-26.059998999999998,1b
2019-07-12_112952:720,-0.270477,-0.004547,-0.315216,0.000332,0.001538,0.023652,-31.559998999999998,14.87,-26.870001000000002,1b
2019-07-12_112952:740,-0.265381,0.0035399999999999997,-0.29895,0.002499,0.001843,0.022066,-31.559998999999998,14.87,-26.870001000000002,1b
2019-07-12_112952:760,-0.266907,0.006072999999999999,-0.294373,0.0035670000000000003,-4.9e-05,0.022859,-31.18,14.87,-26.870001000000002,1b
2019-07-12_112952:780,-0.271484,0.006072999999999999,-0.29486100000000004,0.002957,-0.0037719999999999997,0.020204,-31.18,14.87,-26.870001000000002,1b
2019-07-12_112952:800,-0.27301,0.010162000000000001,-0.29742399999999997,0.00137,-0.006731999999999999,0.016023,-31.18,14.87,-26.870001000000002,1b
2019-07-12_112952:820,-0.274017,0.011687999999999999,-0.304535,0.000515,-0.008990999999999999,0.01169,-31.559998999999998,16.370001000000002,-27.25,1b
2019-07-12_112952:840,-0.29284699999999997,0.010162000000000001,-0.302002,-0.000675,-0.007801000000000001,0.007051000000000001,-31.559998999999998,16.370001000000002,-27.25,1b
2019-07-12_112952:860,-0.319275,0.011169,-0.33605999999999997,-0.0008269999999999999,-0.008014,0.004182,-31.870001000000002,16.0,-28.5,1b
2019-07-12_112952:880,-0.335022,0.0035399999999999997,-0.347229,0.0017670000000000001,-0.008808,-0.000609,-31.870001000000002,16.0,-28.5,1b
2019-07-12_112952:900,-0.37316900000000003,0.010162000000000001,-0.401642,0.0018579999999999998,-0.015552000000000002,-0.005644,-31.870001000000002,16.0,-28.5,1b
2019-07-12_112952:920,-0.405212,0.013213999999999998,-0.41842700000000005,0.004116,-0.017841,-0.003935,-31.559998999999998,16.0,-26.5,1b
2019-07-12_112952:940,-0.35739099999999996,0.023375999999999997,-0.41333000000000003,0.006222,-0.012988,0.001832,-31.559998999999998,16.0,-26.5,1b
2019-07-12_112952:960,-0.325378,0.011687999999999999,-0.42605600000000005,0.007504,-0.010912999999999999,0.004182,-31.870001000000002,16.370001000000002,-28.059998999999998,1b
2019-07-12_112952:980,-0.423004,0.013213999999999998,-0.567902,0.007077,-0.029651,0.004945000000000001,-31.870001000000002,16.370001000000002,-28.059998999999998,1b
2019-07-12_112953:000,-0.394012,-0.022858,-0.571442,0.011807,-0.032276,0.001527,-31.870001000000002,16.370001000000002,-28.059998999999998,1b
2019-07-12_112953:020,-0.364532,-0.026427999999999997,-0.546021,0.012326,-0.030231,-0.006377000000000001,-32.25,16.370001000000002,-27.68,1b
2019-07-12_112953:040,-0.366058,-0.028442000000000002,-0.5480649999999999,0.013577,-0.020404,-0.002593,-32.25,16.370001000000002,-27.68,1b
2019-07-12_112953:060,-0.293335,-0.028961,-0.49926800000000005,0.015865999999999998,-0.003589,0.0067150000000000005,-31.559998999999998,17.0,-28.5,1b
2019-07-12_112953:080,-0.193695,-0.034546,-0.43823199999999995,0.014126,0.01167,0.005067,-31.559998999999998,17.0,-28.5,1b
2019-07-12_112953:100,-0.20385699999999998,-0.035583,-0.416901,0.009884,0.017987,-0.000273,-31.559998999999998,17.0,-28.5,1b
2019-07-12_112953:120,-0.21249400000000002,-0.035583,-0.429108,0.006497,0.01466,-0.001067,-31.559998999999998,17.75,-28.870001000000002,1b
2019-07-12_112953:140,-0.185059,-0.044739,-0.408752,0.003689,0.007702,-0.002349,-31.559998999999998,17.75,-28.870001000000002,1b
2019-07-12_112953:160,-0.189636,-0.047791,-0.398071,-0.001194,-0.00038500000000000003,-0.007201000000000001,-31.870001000000002,17.370001000000002,-28.059998999999998,1b
2019-07-12_112953:180,-0.193695,-0.053375,-0.40976,-0.004520000000000001,-0.006945999999999999,-0.00421,-31.870001000000002,17.370001000000002,-28.059998999999998,1b
2019-07-12_112953:200,-0.207916,-0.068115,-0.433655,-0.005679999999999999,-0.014422999999999998,0.0017100000000000001,-31.870001000000002,17.370001000000002,-28.059998999999998,1b
2019-07-12_112953:220,-0.242004,-0.074738,-0.43518100000000004,-0.006168,-0.020954,-0.0031420000000000003,-33.060001,17.370001000000002,-26.5,1b
2019-07-12_112953:240,-0.30654899999999996,-0.065063,-0.41586300000000004,-0.005619,-0.019214,-0.016295,-33.060001,17.370001000000002,-26.5,1b
2019-07-12_112953:260,-0.323853,-0.049805,-0.397064,-0.003483,-0.007862000000000001,-0.024779,-33.369999,17.0,-28.059998999999998,1b
2019-07-12_112953:280,-0.303528,-0.031006,-0.361481,-0.001224,0.005963,-0.025847000000000002,-33.369999,17.0,-28.059998999999998,1b
2019-07-12_112953:300,-0.281647,-0.021332,-0.346222,-0.001285,0.015515000000000001,-0.024169,-33.369999,17.0,-28.059998999999998,1b
2019-07-12_112953:320,-0.25317399999999995,-0.008118,-0.320801,-0.002353,0.018841,-0.020537,-33.369999,15.87,-27.68,1b
2019-07-12_112953:340,-0.234375,-0.006592,-0.312164,-0.004062,0.016003,-0.01541,-33.369999,15.87,-27.68,1b
2019-07-12_112953:360,-0.230804,-0.006592,-0.30249000000000004,-0.006168,0.010296,-0.011962,-33.75,15.87,-26.5,1b
2019-07-12_112953:380,-0.23590100000000003,-0.006072999999999999,-0.304535,-0.008732,0.003796,-0.010709999999999999,-33.75,15.87,-26.5,1b
2019-07-12_112953:400,-0.24453699999999998,-0.011687999999999999,-0.32132,-0.010532,-0.002643,-0.00891,-33.75,15.87,-26.5,1b
2019-07-12_112953:420,-0.25317399999999995,-0.017273,-0.327911,-0.011722,-0.0076170000000000005,-0.007567,-35.68,15.18,-27.25,1b
2019-07-12_112953:440,-0.281647,-0.023895,-0.337067,-0.011875,-0.009723,-0.0070480000000000004,-35.68,15.18,-27.25,1b
2019-07-12_112953:460,-0.312653,-0.022858,-0.35131799999999996,-0.012211,-0.009113,-0.004058,-35.25,14.0,-26.870001000000002,1b
2019-07-12_112953:480,-0.333496,-0.028442000000000002,-0.37674,-0.012607,-0.006945999999999999,0.0017100000000000001,-35.25,14.0,-26.870001000000002,1b
2019-07-12_112953:500,-0.367584,-0.032532,-0.392487,-0.014041999999999999,-0.006092,0.004854,-35.25,14.0,-26.870001000000002,1b
2019-07-12_112953:520,-0.372162,-0.036072,-0.420959,-0.01511,-0.005176,0.004091,-35.68,13.68,-25.75,1b
2019-07-12_112953:540,-0.360962,-0.028961,-0.409271,-0.014591,-0.001575,-0.002135,-35.68,13.68,-25.75,1b
2019-07-12_112953:560,-0.309113,-0.007111,-0.423492,-0.014835,0.000531,-0.005644,-35.25,13.06,-25.75,1b
2019-07-12_112953:580,-0.320801,-0.0030210000000000002,-0.43774399999999997,-0.014377000000000001,-0.002582,-0.001616,-35.25,13.06,-25.75,1b
2019-07-12_112953:600,-0.38385,0.006072999999999999,-0.5872189999999999,-0.017368,-0.027239999999999997,0.009706000000000001,-35.25,13.06,-25.75,1b
2019-07-12_112953:620,-0.394012,0.0,-0.505371,-0.013522999999999999,-0.026569,0.012178,-34.560001,12.25,-26.5,1b
2019-07-12_112953:640,-0.386902,0.018799,-0.52774,-0.015049000000000002,-0.02605,0.001039,-34.560001,12.25,-26.5,1b
2019-07-12_112953:660,-0.36706500000000003,0.038635,-0.5048520000000001,-0.011539,-0.013507,-0.004850999999999999,-34.560001,12.68,-27.25,1b
2019-07-12_112953:680,-0.246063,0.067596,-0.434692,-0.006351,0.0020570000000000002,-0.007201000000000001,-34.560001,12.68,-27.25,1b
2019-07-12_112953:700,-0.226746,0.084381,-0.408752,-0.0037270000000000003,0.01228,-0.012877000000000001,-34.560001,12.68,-27.25,1b
2019-07-12_112953:720,-0.291321,0.11080899999999999,-0.408752,-0.004001,0.013591999999999998,-0.008116,-34.560001,12.68,-28.870001000000002,1b
2019-07-12_112953:740,-0.28418000000000004,0.099121,-0.416901,-0.0033299999999999996,0.01048,0.009431,-34.560001,12.68,-28.870001000000002,1b
2019-07-12_112953:760,-0.25012199999999996,0.063019,-0.394012,-0.001072,0.008159999999999999,0.014558000000000001,-35.25,11.56,-26.870001000000002,1b
2019-07-12_112953:780,-0.239441,0.05996699999999999,-0.39502,-0.002262,0.004315,0.003694,-35.25,11.56,-26.870001000000002,1b
2019-07-12_112953:800,-0.262848,0.055389,-0.40774499999999997,-0.002933,-0.0009339999999999999,0.003114,-35.25,11.56,-26.870001000000002,1b
2019-07-12_112953:820,-0.259277,0.038635,-0.41485600000000006,-0.00159,-0.007465,0.010835,-35.68,10.75,-26.059998999999998,1b
2019-07-12_112953:840,-0.256744,0.015228,-0.396545,-0.002262,-0.012103000000000001,0.007844,-35.68,10.75,-26.059998999999998,1b
2019-07-12_112953:860,-0.285706,0.009125,-0.387909,-0.002597,-0.012714,0.001924,-36.68,10.75,-27.25,1b
2019-07-12_112953:880,-0.322845,0.0,-0.36349499999999996,0.0009119999999999999,-0.007281999999999999,0.005586,-36.68,10.75,-27.25,1b
2019-07-12_112953:900,-0.320282,-0.002014,-0.346222,0.004849,0.001721,0.010042,-36.68,10.75,-27.25,1b
2019-07-12_112953:920,-0.307587,0.007599,-0.325897,0.0068319999999999995,0.008618,0.00757,-36.68,10.75,-26.870001000000002,1b
2019-07-12_112953:940,-0.296387,0.024384,-0.318756,0.00848,0.011548000000000001,0.004182,-36.68,10.75,-26.870001000000002,1b
2019-07-12_112953:960,-0.286224,0.034058,-0.303528,0.009091,0.011212,0.004182,-36.060001,11.18,-26.059998999999998,1b
2019-07-12_112953:980,-0.298431,0.039124,-0.293335,0.008084000000000001,0.009045000000000001,0.005128,-36.060001,11.18,-26.059998999999998,1b
2019-07-12_112954:000,-0.29995700000000003,0.041687,-0.28875700000000004,0.005947,0.007092,0.007112,-36.060001,11.18,-26.059998999999998,1b
2019-07-12_112954:020,-0.29895,0.043701,-0.285217,0.0042380000000000004,0.005566,0.007783,-37.5,12.68,-24.870001000000002,1b
2019-07-12_112954:040,-0.307587,0.037108999999999996,-0.28064,0.0015220000000000001,0.005383,0.006593000000000001,-37.5,12.68,-24.870001000000002,1b
2019-07-12_112954:060,-0.330475,0.037598,-0.284698,0.00011899999999999999,0.005444,0.005586,-37.060001,11.56,-25.25,1b
2019-07-12_112954:080,-0.334534,0.028442000000000002,-0.30654899999999996,0.00018,0.002911,0.005922,-37.060001,11.56,-25.25,1b
2019-07-12_112954:100,-0.363007,0.028442000000000002,-0.327911,0.0014609999999999998,-0.001911,0.0037549999999999997,-37.060001,11.56,-25.25,1b
2019-07-12_112954:120,-0.387909,0.026427999999999997,-0.36706500000000003,0.003048,-0.008716,0.00345,-37.060001,11.87,-24.870001000000002,1b
2019-07-12_112954:140,-0.386902,0.031006,-0.366058,0.006161,-0.010851999999999999,0.006135,-37.060001,11.87,-24.870001000000002,1b
2019-07-12_112954:160,-0.352844,0.020844,-0.383331,0.007351000000000001,-0.010791,0.010957,-37.060001,11.87,-24.870001000000002,1b
2019-07-12_112954:180,-0.394012,0.006072999999999999,-0.414337,0.008999,-0.014636000000000001,0.011293000000000001,-37.060001,11.87,-24.870001000000002,1b
2019-07-12_112954:200,-0.40063499999999996,-0.010162000000000001,-0.544495,0.009091,-0.032092,0.01056,-37.060001,11.87,-24.870001000000002,1b
2019-07-12_112954:220,-0.421967,-0.021851,-0.501801,0.013394,-0.035601999999999995,0.006776000000000001,-38.18,11.56,-24.5,1b
2019-07-12_112954:240,-0.415375,-0.043213,-0.51297,0.012813999999999999,-0.031421,0.007783,-38.18,11.56,-24.5,1b
2019-07-12_112954:260,-0.368073,-0.051849,-0.488068,0.01434,-0.014819999999999998,0.015687,-36.68,11.56,-25.25,1b
2019-07-12_112954:280,-0.24658200000000002,-0.072693,-0.440796,0.01318,0.001782,0.021272,-36.68,11.56,-25.25,1b
2019-07-12_112954:300,-0.237427,-0.082855,-0.42605600000000005,0.010159,0.008709999999999999,0.020326,-36.68,11.56,-25.25,1b
2019-07-12_112954:320,-0.25216700000000003,-0.111328,-0.445374,0.008602,0.003857,0.015016,-36.060001,13.06,-26.870001000000002,1b
2019-07-12_112954:340,-0.22879000000000002,-0.12048299999999999,-0.433655,0.008541,-0.00307,0.004152,-36.060001,13.06,-26.870001000000002,1b
2019-07-12_112954:360,-0.238434,-0.121002,-0.405212,0.0068319999999999995,-0.007862000000000001,-0.005339,-36.68,13.37,-24.559998999999998,1b
2019-07-12_112954:380,-0.253693,-0.12149000000000001,-0.418915,0.006436,-0.012165,-0.005736,-36.68,13.37,-24.559998999999998,1b
2019-07-12_112954:400,-0.262329,-0.11386099999999999,-0.415375,0.0062829999999999995,-0.015308,-0.008055,-36.68,13.37,-24.559998999999998,1b
2019-07-12_112954:420,-0.277069,-0.097595,-0.40368699999999996,0.004757,-0.017230000000000002,-0.020475999999999998,-37.060001,12.25,-25.25,1b
2019-07-12_112954:440,-0.285706,-0.064545,-0.373688,0.003689,-0.014178999999999999,-0.033019,-37.060001,12.25,-25.25,1b
2019-07-12_112954:460,-0.277588,-0.040649,-0.338593,0.002438,-0.006336,-0.038725,-37.5,12.25,-24.559998999999998,1b
2019-07-12_112954:480,-0.266388,-0.031006,-0.327911,-0.000217,-0.00014099999999999998,-0.039182999999999996,-37.5,12.25,-24.559998999999998,1b
2019-07-12_112954:500,-0.256744,-0.025908999999999998,-0.31369,-0.002659,0.0033079999999999997,-0.036925,-37.5,12.25,-24.559998999999998,1b
2019-07-12_112954:520,-0.248108,-0.022858,-0.306061,-0.004703,0.004529,-0.033873,-37.5,11.18,-25.18,1b
2019-07-12_112954:540,-0.241486,-0.020844,-0.309113,-0.0060149999999999995,0.0027890000000000002,-0.030211000000000002,-37.5,11.18,-25.18,1b
2019-07-12_112954:560,-0.23690799999999998,-0.022858,-0.316742,-0.006412,-0.0013310000000000002,-0.025969,-37.5,9.68,-25.18,1b
2019-07-12_112954:580,-0.249115,-0.021332,-0.330475,-0.006412,-0.0066099999999999996,-0.022978,-37.5,9.68,-25.18,1b
2019-07-12_112954:600,-0.256226,-0.019318000000000002,-0.33758499999999997,-0.0064730000000000005,-0.010394,-0.020597999999999998,-37.5,9.68,-25.18,1b
2019-07-12_112954:620,-0.28369099999999997,-0.017792,-0.335541,-0.00629,-0.010578,-0.016936,-38.560001,8.18,-24.75,1b
2019-07-12_112954:640,-0.316742,-0.010651,-0.341125,-0.006687,-0.007006999999999999,-0.011504,-38.560001,8.18,-24.75,1b
2019-07-12_112954:660,-0.29538000000000003,-0.0030210000000000002,-0.35791,-0.008823000000000001,-0.0031309999999999997,-0.003081,-37.869999,7.06,-25.559998999999998,1b
2019-07-12_112954:680,-0.29943800000000004,0.001007,-0.36554000000000003,-0.012272,-0.002704,0.004335,-37.869999,7.06,-25.559998999999998,1b
2019-07-12_112954:700,-0.352844,-0.005065999999999999,-0.41995200000000005,-0.017887,-0.01012,0.008241,-37.869999,7.06,-25.559998999999998,1b
2019-07-12_112954:720,-0.378754,-0.013702,-0.41943400000000003,-0.020084,-0.012988,0.006470999999999999,-39.0,6.0,-24.370001000000002,1b
2019-07-12_112954:740,-0.356903,0.005065999999999999,-0.42453,-0.022098,-0.009723,-0.0009449999999999999,-39.0,6.0,-24.370001000000002,1b
2019-07-12_112954:760,-0.394012,0.019806,-0.451477,-0.023288,-0.006854000000000001,-0.00128,-39.0,5.56,-25.559998999999998,1b
2019-07-12_112954:780,-0.383331,0.022369,-0.585693,-0.02692,-0.023944,0.011842,-39.0,5.56,-25.559998999999998,1b
2019-07-12_112954:800,-0.415375,0.015747,-0.522644,-0.024936,-0.028644,0.022066,-39.0,5.56,-25.559998999999998,1b
2019-07-12_112954:820,-0.382812,0.032013,-0.521637,-0.024814,-0.030292000000000003,0.016817,-39.060001,5.25,-26.370001000000002,1b
2019-07-12_112954:840,-0.32486,0.056915,-0.47332799999999997,-0.020481,-0.016956,0.009096,-39.060001,5.25,-26.370001000000002,1b
2019-07-12_112954:860,-0.25012199999999996,0.09353600000000001,-0.44027700000000003,-0.014652000000000002,-0.0030399999999999997,0.003297,-38.25,4.5,-27.18,1b
2019-07-12_112954:880,-0.23791500000000002,0.118958,-0.433655,-0.013736000000000002,0.0020570000000000002,-0.0014939999999999999,-38.25,4.5,-27.18,1b
2019-07-12_112954:900,-0.295898,0.13623,-0.420441,-0.015323,0.004376,0.005342,-38.25,4.5,-27.18,1b
2019-07-12_112954:920,-0.276581,0.12301600000000001,-0.41842700000000005,-0.016391,0.002606,0.024507,-39.060001,5.25,-26.5,1b
2019-07-12_112954:940,-0.277588,0.09811399999999999,-0.390961,-0.015444999999999999,0.00227,0.031282,-39.060001,5.25,-26.5,1b
2019-07-12_112954:960,-0.266388,0.095062,-0.391968,-0.015964,0.000348,0.023256,-38.25,4.06,-28.0,1b
2019-07-12_112954:980,-0.253693,0.085388,-0.394012,-0.015384,-0.004047,0.021242,-38.25,4.06,-28.0,1b
2019-07-12_112955:000,-0.24096700000000001,0.06149299999999999,-0.389954,-0.013248,-0.010242,0.029939,-38.25,4.06,-28.0,1b
2019-07-12_112955:020,-0.239441,0.049805,-0.384338,-0.011997,-0.014453,0.035463,-39.5,4.5,-26.870001000000002,1b
2019-07-12_112955:040,-0.251648,0.017792,-0.361481,-0.010288,-0.015552000000000002,0.038331,-39.5,4.5,-26.870001000000002,1b
2019-07-12_112955:060,-0.259277,0.011169,-0.36044299999999996,-0.007023000000000001,-0.013721,0.041841,-38.0,5.56,-26.870001000000002,1b
2019-07-12_112955:080,-0.291321,0.0035399999999999997,-0.335541,-0.005039,-0.009937,0.041292,-38.0,5.56,-26.870001000000002,1b
2019-07-12_112955:100,-0.290802,0.006072999999999999,-0.32486,-0.0037270000000000003,-0.006092,0.037721,-38.0,5.56,-26.870001000000002,1b
2019-07-12_112955:120,-0.28875700000000004,0.007599,-0.319794,-0.003055,-0.003436,0.033937,-39.060001,6.68,-26.870001000000002,1b
2019-07-12_112955:140,-0.285706,0.014221000000000001,-0.320801,-0.002933,-0.002796,0.030031,-39.060001,6.68,-26.870001000000002,1b
2019-07-12_112955:160,-0.28418000000000004,0.014221000000000001,-0.31723,-0.003879,-0.0031309999999999997,0.026764999999999997,-38.68,7.37,-26.5,1b
2019-07-12_112955:180,-0.28979499999999997,0.013213999999999998,-0.319275,-0.004764,-0.004383,0.0253,-38.68,7.37,-26.5,1b
2019-07-12_112955:200,-0.29538000000000003,0.007599,-0.322845,-0.005161,-0.004229999999999999,0.024782,-38.68,7.37,-26.5,1b
2019-07-12_112955:220,-0.320801,0.000488,-0.321808,-0.0052829999999999995,-0.001178,0.020936,-38.68,8.56,-26.870001000000002,1b
2019-07-12_112955:240,-0.320801,0.0,-0.325897,-0.004703,0.001996,0.015474000000000002,-38.68,8.56,-26.870001000000002,1b
2019-07-12_112955:260,-0.327911,-0.0030210000000000002,-0.347229,-0.0022010000000000003,0.0020570000000000002,0.009981,-38.68,8.87,-27.68,1b
2019-07-12_112955:280,-0.34674099999999997,-0.0035399999999999997,-0.361481,-6.500000000000001e-05,-0.002979,0.0038469999999999997,-38.68,8.87,-27.68,1b
2019-07-12_112955:300,-0.38739,-0.000488,-0.387909,0.002499,-0.00838,0.0032359999999999997,-38.68,8.87,-27.68,1b
2019-07-12_112955:320,-0.384857,0.002014,-0.38385,0.006497,-0.008747,0.005922,-38.18,9.25,-26.059998999999998,1b
2019-07-12_112955:340,-0.393494,0.001495,-0.416382,0.008084000000000001,-0.007801000000000001,0.007203,-38.18,9.25,-26.059998999999998,1b
2019-07-12_112955:360,-0.402649,0.005065999999999999,-0.461639,0.0075650000000000005,-0.020557,0.010988,-39.369999,8.87,-27.25,1b
2019-07-12_112955:380,-0.355377,-0.017792,-0.484497,0.011746,-0.027179000000000002,0.011354000000000001,-39.369999,8.87,-27.25,1b
2019-07-12_112955:400,-0.341644,-0.022369,-0.503845,0.011196,-0.034931,0.007112,-39.369999,8.87,-27.25,1b
2019-07-12_112955:420,-0.378754,-0.031494,-0.514496,0.01434,-0.032825,0.009767,-39.0,10.06,-26.5,1b
2019-07-12_112955:440,-0.329437,-0.037598,-0.489594,0.01492,-0.021075999999999998,0.016481,-39.0,10.06,-26.5,1b
2019-07-12_112955:460,-0.255707,-0.041687,-0.44995100000000005,0.011349,-0.0014529999999999999,0.016817,-39.0,10.06,-27.68,1b
2019-07-12_112955:480,-0.226227,-0.043701,-0.43518100000000004,0.009945,0.003064,0.015809,-39.0,10.06,-27.68,1b
2019-07-12_112955:500,-0.242493,-0.051330999999999995,-0.441284,0.005093,0.002118,0.006318,-39.0,10.06,-27.68,1b
2019-07-12_112955:520,-0.227264,-0.05438200000000001,-0.447388,0.002957,0.000317,0.002229,-37.869999,11.56,-27.559998999999998,1b
2019-07-12_112955:540,-0.203369,-0.057434000000000006,-0.416382,-0.002475,-0.003986,-0.0061329999999999996,-37.869999,11.56,-27.559998999999998,1b
2019-07-12_112955:560,-0.201843,-0.06405599999999999,-0.42248500000000005,-0.003788,-0.006670999999999999,-0.006377000000000001,-38.18,11.18,-26.75,1b
2019-07-12_112955:580,-0.21810900000000003,-0.07421900000000001,-0.443329,-0.003208,-0.018207,-0.006255,-38.18,11.18,-26.75,1b
2019-07-12_112955:600,-0.242493,-0.078796,-0.45706199999999997,-0.001285,-0.023150999999999998,-0.013030000000000002,-38.18,11.18,-26.75,1b
2019-07-12_112955:620,-0.295898,-0.07421900000000001,-0.439758,0.0018579999999999998,-0.019489,-0.022063,-38.18,11.56,-28.370001000000002,1b
2019-07-12_112955:640,-0.32486,-0.05996699999999999,-0.41995200000000005,0.004483,-0.0070680000000000005,-0.025023,-38.18,11.56,-28.370001000000002,1b
2019-07-12_112955:660,-0.307587,-0.034546,-0.391479,0.00549,0.005719,-0.02365,-38.18,9.68,-28.370001000000002,1b
2019-07-12_112955:680,-0.278595,-0.019318000000000002,-0.374695,0.00372,0.01347,-0.022307,-38.18,9.68,-28.370001000000002,1b
2019-07-12_112955:700,-0.244019,-0.0055850000000000006,-0.34570300000000004,0.000241,0.014599,-0.019744,-38.18,9.68,-28.370001000000002,1b
2019-07-12_112955:720,-0.231323,-0.001495,-0.33197,-0.001529,0.013196000000000001,-0.017606999999999998,-39.68,9.68,-28.75,1b
2019-07-12_112955:740,-0.22164899999999998,-0.005065999999999999,-0.316742,-0.007023000000000001,0.006299,-0.011290000000000001,-39.68,9.68,-28.75,1b
2019-07-12_112955:760,-0.22979699999999997,-0.008118,-0.31723,-0.008884,0.00346,-0.010222,-40.060001,9.25,-26.75,1b
2019-07-12_112955:780,-0.241486,-0.0035399999999999997,-0.326904,-0.014194,-0.004961999999999999,-0.005797,-40.060001,9.25,-26.75,1b
2019-07-12_112955:800,-0.24353000000000002,0.0025329999999999997,-0.33300799999999997,-0.018497,-0.009265,-0.001006,-40.060001,9.25,-26.75,1b
2019-07-12_112955:820,-0.260284,0.004547,-0.337067,-0.020359,-0.010394,0.001253,-40.060001,7.75,-26.75,1b
2019-07-12_112955:840,-0.284698,0.005065999999999999,-0.34368899999999997,-0.025211,-0.011127,0.00818,-40.060001,7.75,-26.75,1b
2019-07-12_112955:860,-0.307068,0.006072999999999999,-0.37316900000000003,-0.026981,-0.011188,0.011629,-39.68,7.37,-27.18,1b
2019-07-12_112955:880,-0.322845,-0.000488,-0.392487,-0.030399000000000002,-0.010242,0.021577000000000002,-39.68,7.37,-27.18,1b
2019-07-12_112955:900,-0.360962,-0.013213999999999998,-0.414337,-0.031833,-0.008747,0.023134000000000002,-39.68,7.37,-27.18,1b
2019-07-12_112955:920,-0.361481,-0.021851,-0.43927,-0.031833,-0.007343000000000001,0.021730000000000003,-40.060001,7.06,-28.75,1b
2019-07-12_112955:940,-0.356903,-0.014740000000000001,-0.44638100000000003,-0.031314999999999996,-0.002857,0.017671,-40.060001,7.06,-28.75,1b
2019-07-12_112955:960,-0.354858,-0.009644,-0.451477,-0.031192,-0.003925,0.017884999999999998,-40.060001,6.68,-28.0,1b
2019-07-12_112955:980,-0.352325,-0.004059,-0.514496,-0.029331,-0.012775,0.024965,-40.060001,6.68,-28.0,1b
2019-07-12_112956:000,-0.33758499999999997,0.004059,-0.490112,-0.028782,-0.016284,0.024965,-40.060001,6.68,-28.0,1b
2019-07-12_112956:020,-0.320282,0.019806,-0.49316400000000005,-0.027591,-0.016895,0.024263,-39.68,6.68,-29.18,1b
2019-07-12_112956:040,-0.32132,0.042175,-0.49365200000000004,-0.023288,-0.012775,0.019319,-39.68,6.68,-29.18,1b
2019-07-12_112956:060,-0.29742399999999997,0.065582,-0.45553599999999994,-0.022037,-0.008747,0.01523,-39.68,6.37,-28.75,1b
2019-07-12_112956:080,-0.308075,0.084381,-0.42858900000000005,-0.019291,0.008954,0.008454999999999999,-39.68,6.37,-28.75,1b
2019-07-12_112956:100,-0.29486100000000004,0.107269,-0.39859,-0.018772,0.016339,0.019014,-39.68,6.37,-28.75,1b
2019-07-12_112956:120,-0.272491,0.119965,-0.401642,-0.01984,0.013287,0.035463,-39.369999,6.68,-29.559998999999998,1b
2019-07-12_112956:140,-0.237427,0.105225,-0.385864,-0.02161,0.00639,0.038911,-39.369999,6.68,-29.559998999999998,1b
2019-07-12_112956:160,-0.242493,0.097107,-0.381317,-0.025333,-0.0032530000000000002,0.035005,-40.060001,6.37,-28.0,1b
2019-07-12_112956:180,-0.248108,0.088959,-0.39859,-0.026400999999999997,-0.014025999999999999,0.036714,-40.060001,6.37,-28.0,1b
2019-07-12_112956:200,-0.25317399999999995,0.0737,-0.408752,-0.026523,-0.021808,0.039522,-40.060001,6.37,-28.0,1b
2019-07-12_112956:220,-0.267914,0.038116000000000004,-0.407227,-0.026126999999999997,-0.023913999999999998,0.038789,-40.5,7.37,-29.18,1b
2019-07-12_112956:240,-0.28369099999999997,0.022369,-0.401123,-0.021213,-0.019824,0.038576,-40.5,7.37,-29.18,1b
2019-07-12_112956:260,-0.300476,0.0035399999999999997,-0.385864,-0.018253,-0.015247,0.040162,-39.369999,8.18,-29.18,1b
2019-07-12_112956:280,-0.30249000000000004,-0.001495,-0.37674,-0.00922,-0.002338,0.040956,-39.369999,8.18,-29.18,1b
2019-07-12_112956:300,-0.298431,0.0025329999999999997,-0.36349499999999996,-0.005375,0.004315,0.037995999999999995,-39.369999,8.18,-29.18,1b
2019-07-12_112956:320,-0.293854,0.009644,-0.353851,-0.003849,0.006573000000000001,0.03705,-39.0,9.25,-30.0,1b
2019-07-12_112956:340,-0.291321,0.023895,-0.3396,-0.003055,0.011761,0.03415,-39.0,9.25,-30.0,1b
2019-07-12_112956:360,-0.283173,0.029480000000000003,-0.332489,-0.003879,0.012402,0.032991,-39.0,9.25,-30.0,1b
2019-07-12_112956:380,-0.274017,0.033539,-0.323334,-0.007633,0.011273,0.030427,-39.369999,10.06,-28.0,1b
2019-07-12_112956:400,-0.272491,0.034058,-0.318268,-0.009678,0.010631999999999999,0.028566,-39.369999,10.06,-28.0,1b
2019-07-12_112956:420,-0.274536,0.026917,-0.311646,-0.009951999999999999,0.010570999999999999,0.026704000000000002,-38.560001,11.56,-28.75,1b
2019-07-12_112956:440,-0.283173,0.023375999999999997,-0.31723,-0.010013,0.008556999999999999,0.020447999999999997,-38.560001,11.56,-28.75,1b
2019-07-12_112956:460,-0.309601,0.017273,-0.338074,-0.008213,0.004895,0.012636,-39.68,12.68,-27.18,1b
2019-07-12_112956:480,-0.335022,0.017273,-0.354858,-0.005771,0.000256,0.008333,-39.68,12.68,-27.18,1b
2019-07-12_112956:500,-0.374695,0.016753999999999998,-0.384857,-0.000736,-0.002857,0.013826,-39.68,12.68,-27.18,1b
2019-07-12_112956:520,-0.38385,0.018799,-0.378754,0.001034,-0.00038500000000000003,0.015747999999999998,-39.68,13.06,-26.370001000000002,1b
2019-07-12_112956:540,-0.344696,0.024384,-0.379791,0.004086,0.006512,0.020204,-39.68,13.06,-26.370001000000002,1b
2019-07-12_112956:560,-0.42248500000000005,0.016753999999999998,-0.43774399999999997,0.004696,0.0037049999999999995,0.021333,-39.68,13.06,-26.370001000000002,1b
2019-07-12_112956:580,-0.411804,0.023375999999999997,-0.52774,0.003445,-0.012653,0.025575,-39.0,12.25,-26.870001000000002,1b
2019-07-12_112956:600,-0.36554000000000003,0.013702,-0.45553599999999994,0.002194,-0.012714,0.022188,-39.0,12.25,-26.870001000000002,1b
2019-07-12_112956:620,-0.38739,0.006592,-0.496704,-0.003788,-0.016773,0.023652,-38.560001,13.75,-26.5,1b
2019-07-12_112956:640,-0.31723,0.0,-0.466217,-0.005039,-0.007801000000000001,0.035646,-38.560001,13.75,-26.5,1b
2019-07-12_112956:660,-0.263855,-0.0030210000000000002,-0.426544,-0.009006,0.003979,0.039827,-38.560001,13.75,-26.5,1b
2019-07-12_112956:680,-0.264374,-0.007111,-0.42758199999999996,-0.015262000000000001,0.011487,0.036317,-38.18,14.06,-26.5,1b
2019-07-12_112956:700,-0.300476,-0.012695,-0.404694,-0.019352,0.016675,0.036469999999999995,-38.18,14.06,-26.5,1b
2019-07-12_112956:720,-0.258759,-0.014221000000000001,-0.41232299999999994,-0.021366,0.016583,0.038057,-37.869999,15.56,-25.68,1b
2019-07-12_112956:740,-0.245544,-0.023375999999999997,-0.411804,-0.025272,0.012738,0.039369,-37.869999,15.56,-25.68,1b
2019-07-12_112956:760,-0.23284899999999997,-0.032532,-0.418915,-0.030063,0.008556999999999999,0.037172000000000004,-37.869999,15.56,-25.68,1b
2019-07-12_112956:780,-0.245544,-0.046265,-0.431641,-0.032382999999999995,0.003979,0.038301,-38.18,16.370001000000002,-25.68,1b
2019-07-12_112956:800,-0.280121,-0.055908000000000006,-0.459595,-0.031894,-0.0013310000000000002,0.039247000000000004,-38.18,16.370001000000002,-25.68,1b
2019-07-12_112956:820,-0.29284699999999997,-0.055908000000000006,-0.44638100000000003,-0.030124,-0.002124,0.032625,-37.869999,17.870001000000002,-26.870001000000002,1b
2019-07-12_112956:840,-0.324371,-0.027435,-0.42401099999999997,-0.027744,0.002179,0.023591,-37.869999,17.870001000000002,-26.870001000000002,1b
2019-07-12_112956:860,-0.340118,-0.006072999999999999,-0.407227,-0.025333,0.012158,0.020479,-37.869999,17.870001000000002,-26.870001000000002,1b
2019-07-12_112956:880,-0.329437,0.026427999999999997,-0.380798,-0.025455000000000002,0.023022,0.02292,-37.5,17.870001000000002,-25.18,1b
2019-07-12_112956:900,-0.312653,0.039642000000000004,-0.36248800000000003,-0.028598000000000002,0.030743,0.029817000000000003,-37.5,17.870001000000002,-25.18,1b
2019-07-12_112956:920,-0.279114,0.051849,-0.3396,-0.033817,0.033703,0.038972,-36.68,18.25,-25.25,1b
2019-07-12_112956:940,-0.2659,0.05285599999999999,-0.326904,-0.040806,0.032055,0.045564,-36.68,18.25,-25.25,1b
2019-07-12_112956:960,-0.25521900000000003,0.047791,-0.319794,-0.048893,0.026501,0.049408999999999995,-36.68,18.25,-25.25,1b
2019-07-12_112956:980,-0.266388,0.041168,-0.319794,-0.056858000000000006,0.018323,0.053193,-37.869999,18.559998999999998,-23.68,1b
2019-07-12_112957:000,-0.274017,0.028442000000000002,-0.325378,-0.064182,0.009839,0.056825,-37.869999,18.559998999999998,-23.68,1b
2019-07-12_112957:020,-0.280121,0.009125,-0.32132,-0.069614,0.00224,0.057313,-37.869999,19.0,-24.5,1b
2019-07-12_112957:040,-0.318268,-0.011687999999999999,-0.338074,-0.073642,-0.00539,0.057557000000000004,-37.869999,19.0,-24.5,1b
2019-07-12_112957:060,-0.353851,-0.026917,-0.344177,-0.075718,-0.009662,0.061098,-37.869999,19.0,-24.5,1b
2019-07-12_112957:080,-0.391968,-0.045226999999999996,-0.340118,-0.07678600000000001,-0.008258,0.062593,-37.5,19.68,-24.059998999999998,1b
2019-07-12_112957:100,-0.404694,-0.048798,-0.34063699999999997,-0.077457,-0.004047,0.059633000000000005,-37.5,19.68,-24.059998999999998,1b
2019-07-12_112957:120,-0.33197,-0.049316000000000006,-0.32995599999999997,-0.077182,-4.9e-05,0.055635000000000004,-35.369999,20.059998999999998,-26.059998999999998,1b
2019-07-12_112957:140,-0.30300900000000003,-0.044219999999999995,-0.315704,-0.076847,0.00346,0.047487,-35.369999,20.059998999999998,-26.059998999999998,1b
2019-07-12_112957:160,-0.334015,-0.042694,-0.350281,-0.078159,-0.001575,0.043702,-35.369999,20.059998999999998,-26.059998999999998,1b
2019-07-12_112957:180,-0.33197,-0.048798,-0.34317,-0.076328,-0.004961999999999999,0.041231,-35.0,20.370001000000002,-26.0,1b
2019-07-12_112957:200,-0.32995599999999997,-0.034546,-0.346222,-0.075443,-0.007923000000000001,0.033723,-35.0,20.370001000000002,-26.0,1b
2019-07-12_112957:220,-0.322845,-0.011169,-0.35943600000000003,-0.073673,-0.009784000000000001,0.030213999999999998,-34.25,19.25,-28.0,1b
2019-07-12_112957:240,-0.399597,0.031494,-0.396057,-0.07232999999999999,-0.01369,0.033479,-34.25,19.25,-28.0,1b
2019-07-12_112957:260,-0.43774399999999997,0.074738,-0.514496,-0.075901,-0.032489,0.042299,-34.25,19.25,-28.0,1b
2019-07-12_112957:280,-0.49365200000000004,0.07928500000000001,-0.441284,-0.07464900000000001,-0.03197,0.044008,-32.75,18.870001000000002,-29.18,1b
2019-07-12_112957:300,-0.394531,0.12048299999999999,-0.46417200000000003,-0.079563,-0.024982,0.042299,-32.75,18.870001000000002,-29.18,1b
2019-07-12_112957:320,-0.347229,0.1698,-0.396057,-0.07764,-0.004169,0.050935,-31.68,18.870001000000002,-30.75,1b
2019-07-12_112957:340,-0.281647,0.189117,-0.375214,-0.08002100000000001,0.011273,0.054567,-31.68,18.870001000000002,-30.75,1b
2019-07-12_112957:360,-0.272491,0.223694,-0.402649,-0.084201,0.009839,0.046754000000000004,-31.68,18.870001000000002,-30.75,1b
2019-07-12_112957:380,-0.267426,0.23284899999999997,-0.417908,-0.088871,-0.003467,0.049652999999999996,-30.18,17.0,-32.25,1b
2019-07-12_112957:400,-0.269958,0.205902,-0.396545,-0.090244,-0.01485,0.066255,-30.18,17.0,-32.25,1b
2019-07-12_112957:420,-0.24963400000000002,0.182007,-0.393005,-0.089908,-0.021137,0.085573,-29.75,16.25,-32.68,1b
2019-07-12_112957:440,-0.250641,0.161652,-0.40570100000000003,-0.089206,-0.024188,0.098237,-29.75,16.25,-32.68,1b
2019-07-12_112957:460,-0.246063,0.145386,-0.42758199999999996,-0.08780299999999999,-0.030841000000000004,0.108278,-29.75,16.25,-32.68,1b
2019-07-12_112957:480,-0.262329,0.11538699999999999,-0.416901,-0.08520900000000001,-0.034564,0.11218399999999999,-29.18,15.5,-34.18,1b
2019-07-12_112957:500,-0.28875700000000004,0.096069,-0.404694,-0.084201,-0.032702999999999996,0.111177,-29.18,15.5,-34.18,1b
2019-07-12_112957:520,-0.30249000000000004,0.080322,-0.390961,-0.080417,-0.025072999999999998,0.110322,-25.370001000000002,16.25,-36.18,1b
2019-07-12_112957:540,-0.29538000000000003,0.072174,-0.37112399999999995,-0.075931,-0.015491,0.10852200000000001,-25.370001000000002,16.25,-36.18,1b
2019-07-12_112957:560,-0.274536,0.071686,-0.35180700000000004,-0.071476,-0.008197,0.102296,-25.370001000000002,16.25,-36.18,1b
2019-07-12_112957:580,-0.26181,0.07421900000000001,-0.342163,-0.067936,-0.005298,0.095979,-23.25,15.18,-37.75,1b
2019-07-12_112957:600,-0.257233,0.075226,-0.337067,-0.06375499999999999,-0.007220999999999999,0.091157,-23.25,15.18,-37.75,1b
2019-07-12_112957:620,-0.25521900000000003,0.076263,-0.335022,-0.060184,-0.010333,0.08539,-22.870001000000002,15.25,-38.869999,1b
2019-07-12_112957:640,-0.259277,0.077271,-0.32486,-0.056797,-0.012775,0.079194,-22.870001000000002,15.25,-38.869999,1b
2019-07-12_112957:660,-0.281647,0.076263,-0.33300799999999997,-0.052828999999999994,-0.01369,0.075014,-22.870001000000002,15.25,-38.869999,1b
2019-07-12_112957:680,-0.307587,0.0737,-0.34674099999999997,-0.04816,-0.015033000000000001,0.07171799999999999,-21.75,14.37,-39.369999,1b
2019-07-12_112957:700,-0.326904,0.071686,-0.352844,-0.042911000000000005,-0.016222999999999998,0.066316,-21.75,14.37,-39.369999,1b
2019-07-12_112957:720,-0.368073,0.0737,-0.354858,-0.037357,-0.014911,0.059236000000000004,-19.5,14.0,-40.869999,1b
2019-07-12_112957:740,-0.385864,0.081329,-0.355896,-0.031986,-0.010578,0.05505499999999999,-19.5,14.0,-40.869999,1b
2019-07-12_112957:760,-0.396545,0.10116599999999999,-0.356903,-0.028049,-0.005939,0.056642,-19.5,14.0,-40.869999,1b
2019-07-12_112957:780,-0.387909,0.109802,-0.344177,-0.027134,0.000653,0.062684,-18.370001000000002,13.75,-41.369999,1b
2019-07-12_112957:800,-0.325897,0.105743,-0.326385,-0.029238999999999998,0.0069700000000000005,0.0683,-18.370001000000002,13.75,-41.369999,1b
2019-07-12_112957:820,-0.293854,0.09149199999999999,-0.33197,-0.031711,0.005719,0.066011,-17.25,13.37,-40.18,1b
2019-07-12_112957:840,-0.282654,0.063019,-0.353851,-0.033847,-0.003192,0.056305999999999995,-17.25,13.37,-40.18,1b
2019-07-12_112957:860,-0.29486100000000004,0.037598,-0.37265,-0.032718000000000004,-0.014057,0.047609,-17.25,13.37,-40.18,1b
2019-07-12_112957:880,-0.40976,0.001007,-0.41384899999999997,-0.027195,-0.024249,0.04236,-17.559998999999998,13.75,-40.869999,1b
2019-07-12_112957:900,-0.43621800000000005,-0.012177,-0.471283,-0.019169,-0.035297,0.03885,-17.559998999999998,13.75,-40.869999,1b
2019-07-12_112957:920,-0.449432,-0.0055850000000000006,-0.476379,-0.008548,-0.03487,0.034944,-16.18,13.37,-42.060001,1b
2019-07-12_112957:940,-0.374695,0.006592,-0.491638,-0.002262,-0.032367,0.036927999999999996,-16.18,13.37,-42.060001,1b
2019-07-12_112957:960,-0.270477,0.027435,-0.42807,0.002255,-0.017108,0.041108,-16.18,13.37,-42.060001,1b
2019-07-12_112957:980,-0.23284899999999997,0.03302,-0.397583,-0.0019260000000000002,-0.001605,0.047029,-14.25,13.75,-42.060001,1b
2019-07-12_112958:000,-0.233856,0.032013,-0.36911,-0.0069,0.012494,0.052736,-14.25,13.75,-42.060001,1b
2019-07-12_112958:020,-0.21505700000000003,0.026427999999999997,-0.414337,-0.016513999999999997,0.009167,0.05597100000000001,-13.56,14.06,-41.68,1b
2019-07-12_112958:040,-0.18454,0.022858,-0.41384899999999997,-0.023136,-0.0021850000000000003,0.054262,-13.56,14.06,-41.68,1b
2019-07-12_112958:060,-0.183533,0.030487,-0.434692,-0.031039999999999998,-0.014636000000000001,0.046998000000000005,-13.56,14.06,-41.68,1b
2019-07-12_112958:080,-0.21402,0.039642000000000004,-0.45806899999999995,-0.039341,-0.025531,0.048738,-13.56,14.87,-41.369999,1b
2019-07-12_112958:100,-0.25116,0.040161,-0.496704,-0.047641,-0.031145999999999997,0.061098,-13.56,14.87,-41.369999,1b
2019-07-12_112958:120,-0.300964,0.034058,-0.49823,-0.057316,-0.031481999999999996,0.06979500000000001,-12.06,14.06,-41.369999,1b
2019-07-12_112958:140,-0.335541,0.027435,-0.481476,-0.065952,-0.022876,0.068574,-12.06,14.06,-41.369999,1b
2019-07-12_112958:160,-0.338593,0.021851,-0.45553599999999994,-0.07172,-0.008716,0.064729,-12.06,14.06,-41.369999,1b
2019-07-12_112958:180,-0.31369,0.010162000000000001,-0.414337,-0.07407000000000001,0.00639,0.065523,-10.18,11.56,-44.060001,1b
2019-07-12_112958:200,-0.281647,0.007111,-0.384857,-0.07352,0.017712000000000002,0.068574,-10.18,11.56,-44.060001,1b
2019-07-12_112958:220,-0.23486300000000002,0.0055850000000000006,-0.352325,-0.071262,0.022046,0.07019199999999999,-11.0,10.75,-44.060001,1b
2019-07-12_112958:240,-0.22116100000000002,0.005065999999999999,-0.341644,-0.069217,0.018933000000000002,0.07095499999999999,-11.0,10.75,-44.060001,1b
2019-07-12_112958:260,-0.223694,0.0,-0.34368899999999997,-0.067691,0.011090000000000001,0.072023,-11.0,10.75,-44.060001,1b
2019-07-12_112958:280,-0.240479,-0.007111,-0.34875500000000004,-0.066349,0.00108,0.07184,-10.18,7.75,-42.560001,1b
2019-07-12_112958:300,-0.274536,-0.017273,-0.354858,-0.064701,-0.007678,0.068452,-10.18,7.75,-42.560001,1b
2019-07-12_112958:320,-0.29284699999999997,-0.01828,-0.349274,-0.06250399999999999,-0.012653,0.06274500000000001,-10.5,6.0,-44.060001,1b
2019-07-12_112958:340,-0.311127,-0.019806,-0.34674099999999997,-0.059787,-0.012836000000000002,0.058503999999999994,-10.5,6.0,-44.060001,1b
2019-07-12_112958:360,-0.318268,-0.023375999999999997,-0.349274,-0.057192999999999994,-0.010639000000000001,0.05728300000000001,-10.5,6.0,-44.060001,1b
2019-07-12_112958:380,-0.316742,-0.026917,-0.349792,-0.054599,-0.007587000000000001,0.056305999999999995,-9.75,4.06,-45.369999,1b
2019-07-12_112958:400,-0.294373,-0.027435,-0.347748,-0.052767999999999995,-0.005115,0.053438,-9.75,4.06,-45.369999,1b
2019-07-12_112958:420,-0.300476,-0.023375999999999997,-0.353851,-0.051609,-0.004961999999999999,0.050081,-10.5,2.56,-44.18,1b
2019-07-12_112958:440,-0.312164,-0.023895,-0.368073,-0.051548000000000004,-0.008075,0.046083,-10.5,2.56,-44.18,1b
2019-07-12_112958:460,-0.326904,-0.026427999999999997,-0.36349499999999996,-0.051609,-0.012042,0.040651,-10.5,2.56,-44.18,1b
2019-07-12_112958:480,-0.333496,-0.023895,-0.37011700000000003,-0.0517,-0.014513999999999999,0.03354,-10.5,1.06,-44.560001,1b
2019-07-12_112958:500,-0.352844,-0.017273,-0.384338,-0.050754,-0.017566,0.031679,-10.5,1.06,-44.560001,1b
2019-07-12_112958:520,-0.36349499999999996,-0.014740000000000001,-0.399597,-0.049625,-0.020618,0.033326999999999996,-9.0,-0.68,-45.0,1b
2019-07-12_112958:540,-0.364532,0.005065999999999999,-0.41586300000000004,-0.048984,-0.021747,0.033204000000000004,-9.0,-0.68,-45.0,1b
2019-07-12_112958:560,-0.356903,0.031494,-0.430634,-0.048374,-0.022602,0.027772,-9.0,-0.68,-45.0,1b
2019-07-12_112958:580,-0.37265,0.078278,-0.454529,-0.051151,-0.019672,0.027955,-9.0,-2.56,-43.369999,1b
2019-07-12_112958:600,-0.49517799999999995,0.102173,-0.48706099999999997,-0.057987000000000004,-0.023731,0.037385,-9.0,-2.56,-43.369999,1b
2019-07-12_112958:620,-0.381805,0.088959,-0.555176,-0.059512999999999996,-0.023853,0.046814999999999996,-8.56,-3.68,-44.560001,1b
2019-07-12_112958:640,-0.282166,0.11233499999999999,-0.445374,-0.06238099999999999,-0.009265,0.037446,-8.56,-3.68,-44.560001,1b
2019-07-12_112958:660,-0.157593,0.12353499999999999,-0.46316499999999994,-0.06515900000000001,-0.005695,0.036073,-8.56,-3.68,-44.560001,1b
2019-07-12_112958:680,-0.138794,0.13269,-0.45654300000000003,-0.059054999999999996,-0.001575,0.038698,-8.25,-6.68,-43.75,1b
2019-07-12_112958:700,-0.185547,0.14386,-0.486023,-0.05871900000000001,-0.011127,0.031892000000000004,-8.25,-6.68,-43.75,1b
2019-07-12_112958:720,-0.248108,0.156067,-0.516541,-0.058109,-0.020679,0.032136,-7.87,-7.75,-44.18,1b
2019-07-12_112958:740,-0.257751,0.139801,-0.496216,-0.052555,-0.020862000000000002,0.044618,-7.87,-7.75,-44.18,1b
2019-07-12_112958:760,-0.274536,0.11438,-0.502808,-0.048496,-0.01955,0.049074,-7.87,-7.75,-44.18,1b
2019-07-12_112958:780,-0.272491,0.100647,-0.492645,-0.044650999999999996,-0.014697,0.046357999999999996,-8.25,-10.06,-43.0,1b
2019-07-12_112958:800,-0.24453699999999998,0.090485,-0.48043800000000003,-0.040531,-0.011249,0.050874,-8.25,-10.06,-43.0,1b
2019-07-12_112958:820,-0.24096700000000001,0.06149299999999999,-0.45095799999999997,-0.03635,-0.008411,0.05450599999999999,-7.5,-11.56,-45.0,1b
2019-07-12_112958:840,-0.24758899999999998,0.044219999999999995,-0.427063,-0.034244,-0.005298,0.052125,-7.5,-11.56,-45.0,1b
2019-07-12_112958:860,-0.274017,0.033539,-0.390961,-0.028933999999999998,-0.000598,0.047333999999999994,-7.5,-11.56,-45.0,1b
2019-07-12_112958:880,-0.272491,0.034058,-0.36248800000000003,-0.023227,0.005047,0.040773000000000004,-8.56,-12.87,-41.75,1b
2019-07-12_112958:900,-0.270966,0.051330999999999995,-0.326904,-0.019046,0.009106,0.033143,-8.56,-12.87,-41.75,1b
2019-07-12_112958:920,-0.268951,0.066589,-0.316223,-0.016849,0.010937,0.029481,-9.75,-13.37,-42.18,1b
2019-07-12_112958:940,-0.253693,0.078278,-0.296906,-0.015049000000000002,0.011212,0.029633999999999997,-9.75,-13.37,-42.18,1b
2019-07-12_112958:960,-0.2547,0.078796,-0.294373,-0.014438,0.008374,0.02823,-9.75,-13.37,-42.18,1b
2019-07-12_112958:980,-0.266388,0.081329,-0.29284699999999997,-0.014133000000000001,0.0053219999999999995,0.024843,-10.87,-13.37,-42.68,1b
2019-07-12_112959:000,-0.274536,0.083374,-0.290283,-0.012607,0.0033689999999999996,0.022767,-10.87,-13.37,-42.68,1b
2019-07-12_112959:020,-0.282166,0.079803,-0.29232800000000003,-0.010471,0.003399,0.020600999999999998,-10.87,-13.75,-41.75,1b
2019-07-12_112959:040,-0.304535,0.078796,-0.288269,-0.00748,0.004529,0.01819,-10.87,-13.75,-41.75,1b
2019-07-12_112959:060,-0.309113,0.082336,-0.308594,-0.0037270000000000003,0.005169,0.016206,-10.87,-13.75,-41.75,1b
2019-07-12_112959:080,-0.316742,0.0849,-0.302002,0.0014609999999999998,0.006695,0.013153999999999999,-11.56,-14.87,-41.75,1b
2019-07-12_112959:100,-0.335022,0.10318,-0.332489,0.004483,0.0033689999999999996,0.010957,-11.56,-14.87,-41.75,1b
2019-07-12_112959:120,-0.355896,0.111328,-0.35943600000000003,0.007687,-0.003711,0.014223,-12.68,-13.75,-41.5,1b
2019-07-12_112959:140,-0.398071,0.111847,-0.372162,0.010342,-0.007006999999999999,0.018739,-12.68,-13.75,-41.5,1b
2019-07-12_112959:160,-0.402161,0.10928299999999999,-0.370636,0.01199,-0.004901,0.020784,-12.68,-13.75,-41.5,1b
2019-07-12_112959:180,-0.38385,0.09811399999999999,-0.401642,0.012813999999999999,-0.004229999999999999,0.020997,-12.0,-13.37,-41.75,1b
2019-07-12_112959:200,-0.396057,0.081848,-0.420959,0.012875,-0.007862000000000001,0.021394,-12.0,-13.37,-41.75,1b
2019-07-12_112959:220,-0.40316799999999997,0.069641,-0.5633239999999999,0.011257,-0.030383999999999998,0.02411,-13.5,-13.0,-41.5,1b
2019-07-12_112959:240,-0.41995200000000005,0.028961,-0.49365200000000004,0.017056,-0.028766000000000003,0.017488,-13.5,-13.0,-41.5,1b
2019-07-12_112959:260,-0.372162,0.026917,-0.545013,0.015469,-0.029314999999999997,0.010103000000000001,-13.5,-13.0,-41.5,1b
2019-07-12_112959:280,-0.3508,0.021332,-0.508423,0.018826,-0.014636000000000001,0.015474000000000002,-13.75,-11.18,-41.5,1b
2019-07-12_112959:300,-0.24096700000000001,0.0025329999999999997,-0.463654,0.018429,0.000134,0.025422,-13.75,-11.18,-41.5,1b
2019-07-12_112959:320,-0.228271,-0.008118,-0.40774499999999997,0.015438,0.018719,0.029481,-12.0,-10.5,-42.18,1b
2019-07-12_112959:340,-0.23895300000000003,-0.018799,-0.384338,0.010556,0.028149,0.034791,-12.0,-10.5,-42.18,1b
2019-07-12_112959:360,-0.22216799999999998,-0.034546,-0.371643,0.008541,0.030469,0.035463,-12.0,-10.5,-42.18,1b
2019-07-12_112959:380,-0.20944200000000002,-0.049805,-0.346222,0.004757,0.024640000000000002,0.02292,-13.5,-9.25,-42.68,1b
2019-07-12_112959:400,-0.227264,-0.043701,-0.342163,-0.001011,0.015851,0.011384,-13.5,-9.25,-42.68,1b
2019-07-12_112959:420,-0.250641,-0.039642000000000004,-0.353333,-0.005497,0.0060539999999999995,0.0141,-15.25,-7.5,-42.18,1b
2019-07-12_112959:440,-0.260284,-0.048279,-0.373688,-0.009281000000000001,-0.006945999999999999,0.01523,-15.25,-7.5,-42.18,1b
2019-07-12_112959:460,-0.29995700000000003,-0.049316000000000006,-0.385376,-0.014377000000000001,-0.016681,0.003633,-15.25,-7.5,-42.18,1b
2019-07-12_112959:480,-0.320801,-0.041168,-0.377747,-0.017765,-0.018604,-0.0060409999999999995,-15.25,-7.75,-41.75,1b
2019-07-12_112959:500,-0.3396,-0.032013,-0.364014,-0.017917,-0.014422999999999998,-0.005919,-15.25,-7.75,-41.75,1b
2019-07-12_112959:520,-0.334015,-0.029968,-0.348267,-0.018039,-0.0076170000000000005,-0.005797,-15.0,-8.18,-41.75,1b
2019-07-12_112959:540,-0.32132,-0.019318000000000002,-0.333496,-0.017978,-0.001056,-0.008452,-15.0,-8.18,-41.75,1b
2019-07-12_112959:560,-0.296387,-0.008636,-0.316742,-0.017368,0.0033689999999999996,-0.00717,-15.0,-8.18,-41.75,1b
2019-07-12_112959:580,-0.282166,-0.004547,-0.307587,-0.016575,0.004254,-0.0036,-14.56,-9.25,-41.5,1b
2019-07-12_112959:600,-0.26944,0.000488,-0.30300900000000003,-0.017032,0.001843,-0.001067,-14.56,-9.25,-41.5,1b
2019-07-12_112959:620,-0.264374,0.0030210000000000002,-0.301483,-0.017765,-0.0017280000000000002,0.000642,-16.059998999999998,-9.68,-41.75,1b
2019-07-12_112959:640,-0.272491,0.0030210000000000002,-0.311127,-0.019291,-0.005451,0.003023,-16.059998999999998,-9.68,-41.75,1b
2019-07-12_112959:660,-0.276581,0.000488,-0.318268,-0.020878,-0.008014,0.005464,-16.059998999999998,-9.68,-41.75,1b
2019-07-12_112959:680,-0.307587,-0.0030210000000000002,-0.32995599999999997,-0.022556,-0.009601,0.007203,-15.25,-10.5,-41.75,1b
2019-07-12_112959:700,-0.338593,-0.0055850000000000006,-0.346222,-0.024204,-0.009387000000000001,0.009858,-15.25,-10.5,-41.75,1b
2019-07-12_112959:720,-0.369598,-0.015228,-0.368591,-0.024936,-0.008319,0.013153999999999999,-16.5,-10.5,-41.0,1b
2019-07-12_112959:740,-0.38739,-0.020325,-0.375214,-0.024753,-0.006458,0.01291,-16.5,-10.5,-41.0,1b
2019-07-12_112959:760,-0.358429,-0.016753999999999998,-0.396057,-0.023684999999999998,-0.005634,0.007326000000000001,-16.5,-10.5,-41.0,1b
2019-07-12_112959:780,-0.361969,-0.008636,-0.40368699999999996,-0.022281,-0.005054,0.0005809999999999999,-15.25,-11.56,-41.0,1b
2019-07-12_112959:800,-0.332489,0.009125,-0.433167,-0.01984,-0.0060609999999999995,-0.00067,-15.25,-11.56,-41.0,1b
2019-07-12_112959:820,-0.34063699999999997,0.026427999999999997,-0.43927,-0.016727000000000002,-0.007220999999999999,-0.000731,-15.25,-11.56,-41.0,1b
2019-07-12_112959:840,-0.484497,0.055908000000000006,-0.5368649999999999,-0.017307,-0.019672,0.001588,-15.25,-11.56,-41.0,1b
2019-07-12_112959:860,-0.45654300000000003,0.042175,-0.5267029999999999,-0.014774,-0.022876,0.010316,-15.25,-11.56,-41.0,1b
2019-07-12_112959:880,-0.411285,0.069641,-0.46823100000000006,-0.012454999999999999,-0.013294,0.009858,-15.68,-12.68,-40.25,1b
2019-07-12_112959:900,-0.36044299999999996,0.081848,-0.44995100000000005,-0.011783,-0.003375,0.006929,-15.68,-12.68,-40.25,1b
2019-07-12_112959:920,-0.20233199999999998,0.107269,-0.36911,-0.007937999999999999,0.012097,0.003297,-15.25,-12.25,-39.75,1b
2019-07-12_112959:940,-0.20639000000000002,0.12200899999999999,-0.34368899999999997,-0.00687,0.014416,-0.003081,-15.25,-12.25,-39.75,1b
2019-07-12_112959:960,-0.28875700000000004,0.146912,-0.406219,-0.008945,0.001996,-0.0016769999999999999,-15.25,-12.25,-39.75,1b
2019-07-12_112959:980,-0.278107,0.144897,-0.38739,-0.008884,-0.007465,0.010652,-15.25,-13.37,-39.75,1b
2019-07-12_113000:000,-0.273529,0.119965,-0.36706500000000003,-0.007999,-0.014697,0.01642,-15.25,-13.37,-39.75,1b
2019-07-12_113000:020,-0.30249000000000004,0.11438,-0.391968,-0.008823000000000001,-0.020893000000000002,0.013947999999999999,-15.68,-14.18,-41.0,1b
2019-07-12_113000:040,-0.28927600000000003,0.101685,-0.395538,-0.007023000000000001,-0.024799,0.018953,-15.68,-14.18,-41.0,1b
2019-07-12_113000:060,-0.28418000000000004,0.078278,-0.384338,-0.004886,-0.028125,0.026430000000000002,-15.68,-14.18,-41.0,1b
2019-07-12_113000:080,-0.29538000000000003,0.05438200000000001,-0.36706500000000003,-0.004703,-0.027576,0.027558999999999997,-15.0,-13.37,-40.25,1b
2019-07-12_113000:100,-0.29538000000000003,0.042694,-0.349792,-0.003544,-0.023609,0.029298,-15.0,-13.37,-40.25,1b
2019-07-12_113000:120,-0.29284699999999997,0.030487,-0.327423,-0.001072,-0.018207,0.03354,-15.0,-14.18,-41.0,1b
2019-07-12_113000:140,-0.29180900000000004,0.025421,-0.316742,0.000576,-0.012195000000000001,0.034273000000000005,-15.0,-14.18,-41.0,1b
2019-07-12_113000:160,-0.29232800000000003,0.024902,-0.308594,0.0014609999999999998,-0.008472,0.030366000000000004,-15.0,-14.18,-41.0,1b
2019-07-12_113000:180,-0.29538000000000003,0.028442000000000002,-0.307068,0.0027129999999999997,-0.006945999999999999,0.027375999999999998,-14.56,-13.0,-40.25,1b
2019-07-12_113000:200,-0.29232800000000003,0.027954000000000003,-0.303528,0.003689,-0.007129000000000001,0.025026,-14.56,-13.0,-40.25,1b
2019-07-12_113000:220,-0.296906,0.026917,-0.308594,0.0039030000000000002,-0.008258,0.021333,-15.25,-13.0,-40.68,1b
2019-07-12_113000:240,-0.29180900000000004,0.026917,-0.309601,0.004422,-0.008075,0.018129,-15.25,-13.0,-40.68,1b
2019-07-12_113000:260,-0.30249000000000004,0.022369,-0.304535,0.005642,-0.005451,0.015931,-15.25,-13.0,-40.68,1b
2019-07-12_113000:280,-0.33300799999999997,0.018799,-0.325378,0.006893000000000001,-0.0020629999999999997,0.013550999999999999,-15.0,-11.56,-41.5,1b
2019-07-12_113000:300,-0.327911,0.012177,-0.34063699999999997,0.00903,-0.00014099999999999998,0.01111,-15.0,-11.56,-41.5,1b
2019-07-12_113000:320,-0.355896,0.014221000000000001,-0.381805,0.011257,-0.0031309999999999997,0.006441,-15.68,-12.25,-40.68,1b
2019-07-12_113000:340,-0.382812,0.011169,-0.42248500000000005,0.01318,-0.011646,0.003908,-15.68,-12.25,-40.68,1b
2019-07-12_113000:360,-0.398071,0.012177,-0.40316799999999997,0.016628999999999998,-0.012042,0.004854,-15.68,-12.25,-40.68,1b
2019-07-12_113000:380,-0.412811,0.0035399999999999997,-0.41943400000000003,0.017697,-0.009265,0.007905,-15.68,-10.5,-41.5,1b
2019-07-12_113000:400,-0.410278,-0.007111,-0.501282,0.017453,-0.017230000000000002,0.01111,-15.68,-10.5,-41.5,1b
2019-07-12_113000:420,-0.402649,-0.006592,-0.502808,0.018368000000000002,-0.021411000000000003,0.007509,-15.68,-10.75,-41.5,1b
2019-07-12_113000:440,-0.337067,-0.039124,-0.530273,0.016507,-0.032092,0.003175,-15.68,-10.75,-41.5,1b
2019-07-12_113000:460,-0.335022,-0.044739,-0.530792,0.016964,-0.033007999999999996,-0.000273,-15.68,-10.75,-41.5,1b
2019-07-12_113000:480,-0.274536,-0.066589,-0.508423,0.015865999999999998,-0.025653,0.001527,-15.0,-10.06,-42.18,1b
2019-07-12_113000:500,-0.25216700000000003,-0.074738,-0.49316400000000005,0.01553,-0.015155000000000002,0.001832,-15.0,-10.06,-42.18,1b
2019-07-12_113000:520,-0.272491,-0.088959,-0.46875,0.013394,-0.004321,-0.001891,-15.0,-9.25,-43.369999,1b
2019-07-12_113000:540,-0.261322,-0.091003,-0.45605500000000004,0.014003999999999999,0.004193,-0.010375,-15.0,-9.25,-43.369999,1b
2019-07-12_113000:560,-0.196747,-0.083374,-0.43670699999999996,0.012875,0.006451,-0.019316,-15.0,-9.25,-43.369999,1b
2019-07-12_113000:580,-0.17538499999999999,-0.075745,-0.41333000000000003,0.011746,0.005566,-0.02072,-14.87,-8.56,-42.68,1b
2019-07-12_113000:600,-0.194214,-0.075745,-0.411285,0.008999,0.000989,-0.012816,-14.87,-8.56,-42.68,1b
2019-07-12_113000:620,-0.226227,-0.086426,-0.423004,0.006741,-0.0052369999999999995,-0.0061329999999999996,-14.87,-7.75,-41.75,1b
2019-07-12_113000:640,-0.234375,-0.08590700000000001,-0.411804,0.003964,-0.009052,-0.009123000000000001,-14.87,-7.75,-41.75,1b
2019-07-12_113000:660,-0.242493,-0.07421900000000001,-0.397583,0.00198,-0.009784000000000001,-0.017394,-14.87,-7.75,-41.75,1b
2019-07-12_113000:680,-0.259277,-0.05996699999999999,-0.377228,0.000515,-0.005634,-0.024779,-15.18,-7.75,-41.75,1b
2019-07-12_113000:700,-0.25827,-0.051849,-0.361481,-0.001529,0.001202,-0.029967,-15.18,-7.75,-41.75,1b
2019-07-12_113000:720,-0.25116,-0.043213,-0.34368899999999997,-0.003147,0.006299,-0.032683,-14.5,-8.56,-42.68,1b
2019-07-12_113000:740,-0.254211,-0.042694,-0.335022,-0.004001,0.008313,-0.032866,-14.5,-8.56,-42.68,1b
2019-07-12_113000:760,-0.255707,-0.040649,-0.330963,-0.00394,0.007245000000000001,-0.031218,-14.5,-8.56,-42.68,1b
2019-07-12_113000:780,-0.256744,-0.042175,-0.323334,-0.002933,0.004925,-0.028411000000000002,-15.18,-8.56,-41.68,1b
2019-07-12_113000:800,-0.2659,-0.040649,-0.32486,-0.001529,0.001996,-0.025115000000000002,-15.18,-8.56,-41.68,1b
2019-07-12_113000:820,-0.268951,-0.038635,-0.329437,-3e-06,-0.002002,-0.021788,-15.18,-9.25,-40.560001,1b
2019-07-12_113000:840,-0.266907,-0.037108999999999996,-0.33758499999999997,0.0019190000000000001,-0.005756,-0.019591,-15.18,-9.25,-40.560001,1b
2019-07-12_113000:860,-0.276062,-0.032532,-0.33758499999999997,0.0027129999999999997,-0.008136,-0.019591,-15.18,-9.25,-40.560001,1b
2019-07-12_113000:880,-0.28775,-0.026917,-0.34317,0.003109,-0.007984,-0.018187000000000002,-15.18,-9.68,-40.869999,1b
2019-07-12_113000:900,-0.302002,-0.023895,-0.349792,0.00256,-0.006397,-0.014556,-15.18,-9.68,-40.869999,1b
2019-07-12_113000:920,-0.320801,-0.026917,-0.37316900000000003,0.000729,-0.005695,-0.010954,-15.18,-10.06,-41.0,1b
2019-07-12_113000:940,-0.350281,-0.025908999999999998,-0.374695,-0.00214,-0.004444,-0.0101,-15.18,-10.06,-41.0,1b
2019-07-12_113000:960,-0.341644,-0.029480000000000003,-0.40316799999999997,-0.0052829999999999995,-0.0055119999999999995,-0.009032,-15.18,-10.06,-41.0,1b
2019-07-12_113000:980,-0.330963,-0.023895,-0.408752,-0.006229,-0.003467,-0.012419,-15.0,-10.06,-41.5,1b
2019-07-12_113001:000,-0.300964,-0.011169,-0.42758199999999996,-0.009067,-0.004596,-0.018004,-15.0,-10.06,-41.5,1b
2019-07-12_113001:020,-0.278107,0.010651,-0.453491,-0.010288,-0.006885,-0.015531999999999999,-15.0,-10.75,-40.68,1b
2019-07-12_113001:040,-0.355377,0.019318000000000002,-0.47842399999999996,-0.011661,-0.01192,-0.007842,-15.0,-10.75,-40.68,1b
2019-07-12_113001:060,-0.467743,0.024902,-0.608063,-0.016727000000000002,-0.028644,3.2e-05,-15.0,-10.75,-40.68,1b
2019-07-12_113001:080,-0.443329,0.01828,-0.505371,-0.016452,-0.022327,0.00818,-15.68,-10.75,-41.0,1b
2019-07-12_113001:100,-0.330475,0.029968,-0.48349,-0.016909999999999998,-0.009601,0.004915,-15.68,-10.75,-41.0,1b
2019-07-12_113001:120,-0.282166,0.034058,-0.407227,-0.015903,0.013012000000000001,0.0005200000000000001,-14.18,-12.0,-41.5,1b
2019-07-12_113001:140,-0.165222,0.046265,-0.371643,-0.011539,0.032513,-0.004454,-14.18,-12.0,-41.5,1b
2019-07-12_113001:160,-0.19622799999999999,0.059479,-0.396545,-0.010593,0.028027,-0.010039,-14.18,-12.0,-41.5,1b
2019-07-12_113001:180,-0.24658200000000002,0.05996699999999999,-0.427063,-0.009342,0.00758,-0.008298999999999999,-14.56,-12.0,-40.68,1b
2019-07-12_113001:200,-0.261322,0.046752999999999996,-0.40570100000000003,-0.005771,-0.006458,-0.001341,-14.56,-12.0,-40.68,1b
2019-07-12_113001:220,-0.312164,0.037108999999999996,-0.416901,-0.00275,-0.013111000000000001,0.000398,-15.68,-12.68,-39.060001,1b
2019-07-12_113001:240,-0.318756,0.036072,-0.441284,-0.000156,-0.015491,0.0019850000000000002,-15.68,-12.68,-39.060001,1b
2019-07-12_113001:260,-0.334015,0.024902,-0.45196499999999995,0.003689,-0.016345,0.0076,-15.68,-12.68,-39.060001,1b
2019-07-12_113001:280,-0.348267,0.012177,-0.434692,0.006161,-0.014819999999999998,0.011354000000000001,-15.68,-12.56,-39.060001,1b
2019-07-12_113001:300,-0.338593,0.000488,-0.385864,0.008877,-0.006731999999999999,0.011751000000000001,-15.68,-12.56,-39.060001,1b
2019-07-12_113001:320,-0.334534,0.0,-0.353851,0.012326,0.003247,0.013276,-14.56,-12.56,-41.0,1b
2019-07-12_113001:340,-0.313171,-0.004547,-0.314697,0.015041999999999998,0.012218999999999999,0.014740999999999999,-14.56,-12.56,-41.0,1b
2019-07-12_113001:360,-0.29232800000000003,-0.000488,-0.294373,0.016262000000000002,0.017315,0.013947999999999999,-14.56,-12.56,-41.0,1b
2019-07-12_113001:380,-0.26944,0.0035399999999999997,-0.275055,0.016323,0.017315,0.011384,-15.0,-11.87,-39.060001,1b
2019-07-12_113001:400,-0.263855,0.006592,-0.268433,0.015469,0.013531,0.008973,-15.0,-11.87,-39.060001,1b
2019-07-12_113001:420,-0.266388,0.010651,-0.26944,0.014065000000000001,0.007031,0.006135,-16.5,-11.5,-40.25,1b
2019-07-12_113001:440,-0.270477,0.012695,-0.271484,0.011319,-0.000324,0.004213000000000001,-16.5,-11.5,-40.25,1b
2019-07-12_113001:460,-0.28875700000000004,0.007599,-0.274017,0.008999,-0.005939,0.005464,-16.5,-11.5,-40.25,1b
2019-07-12_113001:480,-0.303528,0.008118,-0.277069,0.0068319999999999995,-0.008533,0.007265000000000001,-17.18,-10.0,-39.5,1b
2019-07-12_113001:500,-0.322327,0.005065999999999999,-0.293335,0.005032,-0.007678,0.0067150000000000005,-17.18,-10.0,-39.5,1b
2019-07-12_113001:520,-0.307587,0.0055850000000000006,-0.30300900000000003,0.004635,-0.008014,0.004548,-16.5,-10.37,-39.75,1b
2019-07-12_113001:540,-0.335541,0.007111,-0.36248800000000003,0.005032,-0.014118,0.00229,-16.5,-10.37,-39.75,1b
2019-07-12_113001:560,-0.37265,0.000488,-0.390442,0.005215,-0.023791999999999997,0.002687,-16.5,-10.37,-39.75,1b
2019-07-12_113001:580,-0.425537,0.006072999999999999,-0.396545,0.007016,-0.027514999999999998,0.0037549999999999997,-16.059998999999998,-9.56,-39.5,1b
2019-07-12_113001:600,-0.398071,0.0030210000000000002,-0.401123,0.007687,-0.023059,0.005311,-16.059998999999998,-9.56,-39.5,1b
2019-07-12_113001:620,-0.382324,-0.010162000000000001,-0.42858900000000005,0.00787,-0.019091999999999998,0.005311,-15.25,-8.87,-39.75,1b
2019-07-12_113001:640,-0.46875,-0.009125,-0.501801,0.007809,-0.024066,0.004396,-15.25,-8.87,-39.75,1b
2019-07-12_113001:660,-0.39859,-0.035065,-0.497742,0.010159,-0.033007999999999996,0.002839,-15.25,-8.87,-39.75,1b
2019-07-12_113001:680,-0.36349499999999996,-0.032013,-0.47079499999999996,0.008084000000000001,-0.028369,-0.000762,-15.25,-9.56,-40.18,1b
2019-07-12_113001:700,-0.319794,-0.048798,-0.48043800000000003,0.006770999999999999,-0.020465,0.005067,-15.25,-9.56,-40.18,1b
2019-07-12_113001:720,-0.23895300000000003,-0.053375,-0.449432,0.004971,-0.010272,0.014161000000000002,-14.18,-8.87,-39.75,1b
2019-07-12_113001:740,-0.187073,-0.07928500000000001,-0.41333000000000003,0.002194,-0.004566,0.017213,-14.18,-8.87,-39.75,1b
2019-07-12_113001:760,-0.263336,-0.096069,-0.430634,-0.00046100000000000004,-0.006854000000000001,0.018068,-14.18,-8.87,-39.75,1b
2019-07-12_113001:780,-0.242004,-0.111328,-0.45043900000000003,-0.000217,-0.009601,0.015809,-13.06,-8.06,-39.75,1b
2019-07-12_113001:800,-0.20233199999999998,-0.12506099999999998,-0.42453,-0.000675,-0.014422999999999998,0.005678,-13.06,-8.06,-39.75,1b
2019-07-12_113001:820,-0.21453899999999998,-0.11691300000000002,-0.43823199999999995,-0.002353,-0.019824,-0.001891,-13.06,-8.06,-39.5,1b
2019-07-12_113001:840,-0.22421300000000002,-0.105225,-0.45706199999999997,-0.0019260000000000002,-0.023456,-0.003264,-13.06,-8.06,-39.5,1b
2019-07-12_113001:860,-0.231323,-0.09963999999999999,-0.46060200000000007,-0.001865,-0.026202999999999997,-0.008634999999999999,-13.06,-8.06,-39.5,1b
2019-07-12_113001:880,-0.262329,-0.086426,-0.452484,-0.002414,-0.022479,-0.018279,-12.0,-8.06,-40.25,1b
2019-07-12_113001:900,-0.277588,-0.058441,-0.423004,-0.002475,-0.0125,-0.022521,-12.0,-8.06,-40.25,1b
2019-07-12_113001:920,-0.283173,-0.045745999999999995,-0.396057,-0.002536,-0.001911,-0.021391999999999998,-12.0,-7.68,-40.68,1b
2019-07-12_113001:940,-0.272003,-0.034058,-0.36706500000000003,-0.0033299999999999996,0.006848000000000001,-0.02072,-12.0,-7.68,-40.68,1b
2019-07-12_113001:960,-0.25012199999999996,-0.024902,-0.3396,-0.0042450000000000005,0.010418,-0.021330000000000002,-12.0,-7.68,-40.68,1b
2019-07-12_113001:980,-0.243011,-0.020844,-0.327911,-0.0052829999999999995,0.009686,-0.018462,-10.87,-8.5,-40.68,1b
2019-07-12_113002:000,-0.22521999999999998,-0.024384,-0.319794,-0.005679999999999999,0.005627,-0.014341999999999999,-10.87,-8.5,-40.68,1b
2019-07-12_113002:020,-0.222687,-0.030487,-0.319794,-0.0061070000000000004,-0.0008730000000000001,-0.012969,-11.18,-8.06,-39.75,1b
2019-07-12_113002:040,-0.233337,-0.034546,-0.325897,-0.005771,-0.005939,-0.013548,-11.18,-8.06,-39.75,1b
2019-07-12_113002:060,-0.23791500000000002,-0.034546,-0.330963,-0.005039,-0.00954,-0.012969,-11.18,-8.06,-39.75,1b
2019-07-12_113002:080,-0.26181,-0.035583,-0.340118,-0.004459,-0.01073,-0.010893,-11.18,-9.56,-40.18,1b
2019-07-12_113002:100,-0.296906,-0.032532,-0.34317,-0.004642,-0.009784000000000001,-0.007598000000000001,-11.18,-9.56,-40.18,1b
2019-07-12_113002:120,-0.300964,-0.027954000000000003,-0.36554000000000003,-0.005954,-0.007404000000000001,-0.003386,-10.06,-9.56,-39.5,1b
2019-07-12_113002:140,-0.296906,-0.029480000000000003,-0.36911,-0.00867,-0.008472,-0.000884,-10.06,-9.56,-39.5,1b
2019-07-12_113002:160,-0.317749,-0.028961,-0.417389,-0.011387000000000001,-0.013324,-0.000609,-10.06,-9.56,-39.5,1b
2019-07-12_113002:180,-0.322327,-0.033539,-0.425537,-0.013065,-0.013904,-0.005675,-10.87,-10.0,-39.5,1b
2019-07-12_113002:200,-0.34674099999999997,-0.020844,-0.44027700000000003,-0.015444999999999999,-0.011646,-0.008849,-10.87,-10.0,-39.5,1b
2019-07-12_113002:220,-0.337067,-0.011687999999999999,-0.453003,-0.016575,-0.006670999999999999,-0.006774,-11.18,-9.56,-39.0,1b
2019-07-12_113002:240,-0.335022,-0.0055850000000000006,-0.46823100000000006,-0.018833000000000003,-0.009876000000000001,-0.0024100000000000002,-11.18,-9.56,-39.0,1b
2019-07-12_113002:260,-0.42758199999999996,0.011687999999999999,-0.569916,-0.020359,-0.021655,0.005311,-11.18,-9.56,-39.0,1b
2019-07-12_113002:280,-0.387909,-0.002014,-0.548584,-0.018894,-0.012592,0.00818,-9.75,-10.37,-37.5,1b
2019-07-12_113002:300,-0.320801,0.018799,-0.49926800000000005,-0.019291,-0.010059,0.007844,-9.75,-10.37,-37.5,1b
2019-07-12_113002:320,-0.29895,0.024902,-0.488068,-0.015567,-0.00038500000000000003,0.0038469999999999997,-9.75,-11.06,-39.5,1b
2019-07-12_113002:340,-0.17690999999999998,0.045226999999999996,-0.430634,-0.01218,0.004895,-0.00479,-9.75,-11.06,-39.5,1b
2019-07-12_113002:360,-0.165741,0.061005,-0.404694,-0.009861,0.002606,-0.0101,-9.75,-11.06,-39.5,1b
2019-07-12_113002:380,-0.278107,0.08081100000000001,-0.441803,-0.009525,-0.002307,0.000123,-8.56,-11.5,-38.68,1b
2019-07-12_113002:400,-0.286224,0.081848,-0.45196499999999995,-0.0076939999999999995,-0.004229999999999999,0.015137999999999999,-8.56,-11.5,-38.68,1b
2019-07-12_113002:420,-0.256226,0.057953,-0.421967,-0.007633,-0.005695,0.014802000000000001,-9.5,-11.06,-37.5,1b
2019-07-12_113002:440,-0.266907,0.048279,-0.43621800000000005,-0.009556,-0.007587000000000001,0.008058,-9.5,-11.06,-37.5,1b
2019-07-12_113002:460,-0.268433,0.045226999999999996,-0.44433599999999995,-0.007937999999999999,-0.011463,0.012575,-9.5,-11.06,-37.5,1b
2019-07-12_113002:480,-0.26944,0.029968,-0.445862,-0.006229,-0.014240000000000001,0.017,-9.37,-11.87,-37.75,1b
2019-07-12_113002:500,-0.280121,0.0025329999999999997,-0.411285,-0.004886,-0.010272,0.013153999999999999,-9.37,-11.87,-37.75,1b
2019-07-12_113002:520,-0.276581,-0.001007,-0.388428,-0.002079,-0.0035280000000000003,0.012758,-9.5,-10.68,-37.75,1b
2019-07-12_113002:540,-0.283173,-0.004059,-0.36044299999999996,0.002499,0.003064,0.015687,-9.5,-10.68,-37.75,1b
2019-07-12_113002:560,-0.276581,-0.004059,-0.3396,0.005093,0.007640999999999999,0.014009,-9.5,-10.68,-37.75,1b
2019-07-12_113002:580,-0.266907,0.006072999999999999,-0.316223,0.005642,0.008435,0.011751000000000001,-10.06,-11.87,-37.5,1b
2019-07-12_113002:600,-0.260803,0.014740000000000001,-0.30654899999999996,0.006222,0.006848000000000001,0.013612,-10.06,-11.87,-37.5,1b
2019-07-12_113002:620,-0.25827,0.01828,-0.300476,0.005825,0.0033689999999999996,0.013153999999999999,-9.75,-10.68,-37.5,1b
2019-07-12_113002:640,-0.259277,0.017792,-0.30654899999999996,0.004635,-0.0012699999999999999,0.009187,-9.75,-10.68,-37.5,1b
2019-07-12_113002:660,-0.264862,0.022858,-0.315216,0.00372,-0.005359,0.008394,-9.75,-10.68,-37.5,1b
2019-07-12_113002:680,-0.267426,0.021851,-0.321808,0.0039030000000000002,-0.006854000000000001,0.009584,-10.06,-10.68,-36.68,1b
2019-07-12_113002:700,-0.290802,0.011169,-0.325897,0.004818,-0.005115,0.007051000000000001,-10.06,-10.68,-36.68,1b
2019-07-12_113002:720,-0.30654899999999996,0.008636,-0.335541,0.005246,-0.0037719999999999997,0.004793,-11.0,-10.0,-37.75,1b
2019-07-12_113002:740,-0.322845,0.005065999999999999,-0.365021,0.00848,-0.004901,-0.000487,-11.0,-10.0,-37.75,1b
2019-07-12_113002:760,-0.352325,0.007599,-0.40063499999999996,0.01022,-0.012317,-0.001219,-11.0,-10.0,-37.75,1b
2019-07-12_113002:780,-0.384857,0.010162000000000001,-0.416382,0.011531999999999999,-0.013111000000000001,-0.000884,-9.5,-8.87,-37.5,1b
2019-07-12_113002:800,-0.386383,0.019318000000000002,-0.40823400000000004,0.013850999999999999,-0.004901,0.0019850000000000002,-9.5,-8.87,-37.5,1b
2019-07-12_113002:820,-0.322845,0.012695,-0.401642,0.014126,-0.00038500000000000003,0.0039689999999999994,-9.5,-8.87,-35.869999,1b
2019-07-12_113002:840,-0.367584,-0.0025329999999999997,-0.441803,0.013058000000000002,-0.015491,0.008729,-9.5,-8.87,-35.869999,1b
2019-07-12_113002:860,-0.364532,-0.027435,-0.562805,0.015590999999999999,-0.025775,0.007112,-9.5,-8.87,-35.869999,1b
2019-07-12_113002:880,-0.361481,-0.041687,-0.506378,0.016444999999999998,-0.027179000000000002,0.0029620000000000002,-9.5,-8.5,-36.68,1b
2019-07-12_113002:900,-0.377747,-0.060486,-0.528229,0.014859,-0.021259,0.0019850000000000002,-9.5,-8.5,-36.68,1b
2019-07-12_113002:920,-0.35638400000000003,-0.068115,-0.5185850000000001,0.015774,-0.015705,0.006441,-9.06,-7.68,-36.68,1b
2019-07-12_113002:940,-0.24353000000000002,-0.089478,-0.48349,0.013850999999999999,-0.0025210000000000002,0.009828,-9.06,-7.68,-36.68,1b
2019-07-12_113002:960,-0.190643,-0.09201000000000001,-0.45043900000000003,0.011073999999999999,0.00346,0.003908,-9.06,-7.68,-36.68,1b
2019-07-12_113002:980,-0.200317,-0.097107,-0.41943400000000003,0.009945,0.0037049999999999995,0.001192,-8.68,-7.0,-37.060001,1b
2019-07-12_113003:000,-0.216583,-0.097107,-0.434692,0.0060079999999999995,-0.000202,-0.005187,-8.68,-7.0,-37.060001,1b
2019-07-12_113003:020,-0.19165,-0.09811399999999999,-0.405212,0.004116,-0.001209,-0.006529000000000001,-8.68,-7.0,-37.060001,1b
2019-07-12_113003:040,-0.188599,-0.101685,-0.399597,-0.000889,-0.006092,-0.008177,-7.18,-7.0,-35.869999,1b
2019-07-12_113003:060,-0.21453899999999998,-0.107269,-0.412811,-0.003147,-0.01012,-0.011504,-7.18,-7.0,-35.869999,1b
2019-07-12_113003:080,-0.220642,-0.105743,-0.423492,-0.003788,-0.012317,-0.014006000000000001,-6.87,-6.56,-37.5,1b
2019-07-12_113003:100,-0.231812,-0.09454299999999999,-0.410278,-0.003849,-0.014118,-0.023833,-6.87,-6.56,-37.5,1b
2019-07-12_113003:120,-0.252686,-0.083374,-0.40316799999999997,-0.0037270000000000003,-0.012897,-0.026701999999999997,-7.56,-6.56,-35.869999,1b
2019-07-12_113003:140,-0.267426,-0.063538,-0.382812,-0.001957,-0.003314,-0.030669,-7.56,-6.56,-35.869999,1b
2019-07-12_113003:160,-0.259796,-0.051330999999999995,-0.37112399999999995,-0.001865,0.001477,-0.030944,-7.56,-6.56,-35.869999,1b
2019-07-12_113003:180,-0.246063,-0.033539,-0.35638400000000003,-0.00214,0.0027890000000000002,-0.030364,-6.06,-6.25,-35.869999,1b
2019-07-12_113003:200,-0.25012199999999996,-0.023895,-0.347229,-0.004398,0.001782,-0.024565,-6.06,-6.25,-35.869999,1b
2019-07-12_113003:220,-0.254211,-0.017273,-0.341644,-0.005497,0.00108,-0.021727,-6.06,-6.25,-35.869999,1b
2019-07-12_113003:240,-0.25317399999999995,-0.017792,-0.337067,-0.007633,-0.00041500000000000006,-0.017424000000000002,-6.5,-6.56,-35.869999,1b
2019-07-12_113003:260,-0.252686,-0.01828,-0.33605999999999997,-0.01099,-0.002857,-0.011901,-6.5,-6.56,-35.869999,1b
2019-07-12_113003:280,-0.252686,-0.024902,-0.341125,-0.011203,-0.003314,-0.010222,-6.06,-6.18,-35.5,1b
2019-07-12_113003:300,-0.268433,-0.029480000000000003,-0.338593,-0.0116,-0.003314,-0.006926000000000001,-6.06,-6.18,-35.5,1b
2019-07-12_113003:320,-0.290283,-0.028961,-0.354858,-0.011661,-0.0030399999999999997,-0.005736,-6.06,-6.18,-35.5,1b
2019-07-12_113003:340,-0.311127,-0.026917,-0.365021,-0.012211,-0.003314,0.001161,-5.68,-7.37,-35.5,1b
2019-07-12_113003:360,-0.320282,-0.029480000000000003,-0.371643,-0.012851,-0.002307,0.004091,-5.68,-7.37,-35.5,1b
2019-07-12_113003:380,-0.355896,-0.026917,-0.393494,-0.016178,-0.0023989999999999997,0.007844,-6.06,-7.37,-34.25,1b
2019-07-12_113003:400,-0.338074,-0.046265,-0.41485600000000006,-0.017978,-0.003833,0.007965999999999999,-6.06,-7.37,-34.25,1b
2019-07-12_113003:420,-0.319794,-0.042175,-0.40368699999999996,-0.017887,-0.0023989999999999997,-0.002745,-6.06,-7.37,-34.25,1b
2019-07-12_113003:440,-0.2659,-0.0055850000000000006,-0.417389,-0.020298,-0.002338,-0.009581000000000001,-5.68,-7.37,-35.18,1b
2019-07-12_113003:460,-0.23895300000000003,0.007111,-0.434692,-0.021152,-0.010333,0.004182,-5.68,-7.37,-35.18,1b
2019-07-12_113003:480,-0.368591,0.021851,-0.530792,-0.022434,-0.018878,0.006532,-4.56,-8.5,-34.75,1b
2019-07-12_113003:500,-0.401642,0.009125,-0.590271,-0.024814,-0.035205,0.005311,-4.56,-8.5,-34.75,1b
2019-07-12_113003:520,-0.431122,0.031494,-0.552124,-0.024082,-0.030506000000000002,0.00345,-4.56,-8.5,-34.75,1b
2019-07-12_113003:540,-0.37674,0.039642000000000004,-0.5424800000000001,-0.024479,-0.009601,0.007965999999999999,-5.0,-9.18,-34.75,1b
2019-07-12_113003:560,-0.24453699999999998,0.05996699999999999,-0.462128,-0.023227,0.000256,0.009126,-5.0,-9.18,-34.75,1b
2019-07-12_113003:580,-0.251648,0.065582,-0.40570100000000003,-0.022159,0.015606,0.004548,-3.56,-9.18,-34.75,1b
2019-07-12_113003:600,-0.24658200000000002,0.088959,-0.407227,-0.021549000000000002,0.020703,-0.002684,-3.56,-9.18,-34.75,1b
2019-07-12_113003:620,-0.205902,0.094055,-0.393005,-0.020084,0.015941999999999998,0.001497,-3.56,-9.18,-34.75,1b
2019-07-12_113003:640,-0.21402,0.081848,-0.37316900000000003,-0.015964,0.007916,0.008119,-3.87,-10.0,-34.0,1b
2019-07-12_113003:660,-0.23791500000000002,0.073212,-0.389954,-0.013706,-0.0014529999999999999,0.010988,-3.87,-10.0,-34.0,1b
2019-07-12_113003:680,-0.276581,0.06149299999999999,-0.388916,-0.011783,-0.002002,0.015474000000000002,-3.87,-10.5,-34.0,1b
2019-07-12_113003:700,-0.29538000000000003,0.043701,-0.393005,-0.005741,-0.002735,0.030885000000000003,-3.87,-10.5,-34.0,1b
2019-07-12_113003:720,-0.319794,0.023895,-0.388428,-0.004642,-0.0021850000000000003,0.033143,-3.87,-10.5,-34.0,1b
2019-07-12_113003:740,-0.312164,0.005065999999999999,-0.37674,-0.0033299999999999996,-0.000598,0.037507,-3.87,-10.5,-32.75,1b
2019-07-12_113003:760,-0.30300900000000003,-0.016266,-0.358917,0.000302,0.000348,0.042238,-3.87,-10.5,-32.75,1b
2019-07-12_113003:780,-0.29232800000000003,-0.022369,-0.34674099999999997,0.0033840000000000003,0.000989,0.03766,-3.87,-10.5,-33.5,1b
2019-07-12_113003:800,-0.275543,-0.009644,-0.321808,0.004635,0.000989,0.024843,-3.87,-10.5,-33.5,1b
2019-07-12_113003:820,-0.272491,0.002014,-0.316742,0.004757,-0.00047599999999999997,0.016359000000000002,-3.87,-10.5,-33.5,1b
2019-07-12_113003:840,-0.264862,0.008118,-0.314697,0.00491,-0.003833,0.014161000000000002,-5.0,-10.06,-33.18,1b
2019-07-12_113003:860,-0.274536,0.010651,-0.315704,0.0035060000000000004,-0.008014,0.009858,-5.0,-10.06,-33.18,1b
2019-07-12_113003:880,-0.290283,0.014740000000000001,-0.318756,0.00079,-0.011646,0.005678,-3.56,-9.0,-33.5,1b
2019-07-12_113003:900,-0.29895,0.014221000000000001,-0.317749,0.000302,-0.011585,0.0071730000000000006,-3.56,-9.0,-33.5,1b
2019-07-12_113003:920,-0.31723,0.004059,-0.315704,0.000729,-0.008258,0.008394,-3.56,-9.0,-33.5,1b
2019-07-12_113003:940,-0.32995599999999997,0.004059,-0.32132,0.0018280000000000002,-0.0023989999999999997,0.004854,-3.87,-9.68,-34.25,1b
2019-07-12_113003:960,-0.315216,-0.000488,-0.339111,0.0039030000000000002,0.001263,0.0026260000000000003,-3.87,-9.68,-34.25,1b
2019-07-12_113003:980,-0.334015,-0.005065999999999999,-0.36044299999999996,0.007809,1.2e-05,-0.000731,-4.25,-9.0,-34.68,1b
2019-07-12_113004:000,-0.353333,-0.000488,-0.396057,0.010128,-0.005695,-0.005187,-4.25,-9.0,-34.68,1b
2019-07-12_113004:020,-0.361969,0.010162000000000001,-0.395538,0.013455000000000002,-0.006793,-0.006072,-4.25,-9.0,-34.68,1b
2019-07-12_113004:040,-0.35638400000000003,0.007111,-0.42807,0.013668000000000001,-0.0052369999999999995,-0.00128,-3.87,-9.0,-33.18,1b
2019-07-12_113004:060,-0.346222,-0.000488,-0.48754899999999995,0.013607,-0.013904,0.0032359999999999997,-3.87,-9.0,-33.18,1b
2019-07-12_113004:080,-0.410797,-0.017792,-0.55365,0.014126,-0.026720999999999998,-0.0011279999999999999,-2.75,-8.87,-32.25,1b
2019-07-12_113004:100,-0.399109,-0.038116000000000004,-0.574493,0.013577,-0.041004,-0.0061329999999999996,-2.75,-8.87,-32.25,1b
2019-07-12_113004:120,-0.335541,-0.042694,-0.555176,0.015988,-0.039386000000000004,-0.0060409999999999995,-2.75,-8.87,-32.25,1b
2019-07-12_113004:140,-0.34317,-0.047791,-0.528229,0.013913,-0.031238,0.001527,-3.56,-8.06,-34.68,1b
2019-07-12_113004:160,-0.280121,-0.054901,-0.476379,0.012204000000000001,-0.017169,0.010957,-3.56,-8.06,-34.68,1b
2019-07-12_113004:180,-0.243011,-0.057434000000000006,-0.409271,0.008754999999999999,0.00105,0.014009,-1.68,-7.68,-33.869999,1b
2019-07-12_113004:200,-0.220642,-0.060486,-0.352844,0.004116,0.017131999999999998,0.008454999999999999,-1.68,-7.68,-33.869999,1b
2019-07-12_113004:220,-0.139801,-0.076752,-0.34368899999999997,-0.0022010000000000003,0.016980000000000002,-0.00186,-0.56,-6.56,-34.25,1b
2019-07-12_113004:240,-0.134216,-0.07928500000000001,-0.332489,-0.002475,0.013988999999999998,-0.0058579999999999995,-0.56,-6.56,-34.25,1b
2019-07-12_113004:260,-0.155548,-0.081848,-0.338074,-0.005344,0.0037049999999999995,-0.012419,-0.56,-6.56,-34.25,1b
2019-07-12_113004:280,-0.216583,-0.086914,-0.380798,-0.0065650000000000005,-0.00719,-0.011504,-2.06,-7.37,-35.060001,1b
2019-07-12_113004:300,-0.224701,-0.09454299999999999,-0.407227,-0.005832,-0.018421,-0.006652,-2.06,-7.37,-35.060001,1b
2019-07-12_113004:320,-0.225739,-0.09149199999999999,-0.432648,-0.004947,-0.028369,-0.010222,-2.06,-7.37,-35.060001,1b
2019-07-12_113004:340,-0.25317399999999995,-0.080322,-0.44433599999999995,-0.004275999999999999,-0.035877,-0.019865999999999998,-1.68,-7.0,-33.869999,1b
2019-07-12_113004:360,-0.309601,-0.055908000000000006,-0.444855,-0.0027199999999999998,-0.035480000000000005,-0.026579000000000002,-1.68,-7.0,-33.869999,1b
2019-07-12_113004:380,-0.323853,-0.046752999999999996,-0.43621800000000005,-0.001285,-0.027118,-0.028166000000000004,0.87,-7.0,-35.060001,1b
2019-07-12_113004:400,-0.309601,-0.032532,-0.410278,-0.001194,-0.015552000000000002,-0.029814,0.87,-7.0,-35.060001,1b
2019-07-12_113004:420,-0.282654,-0.023375999999999997,-0.394012,-0.0022010000000000003,-0.004993,-0.03015,0.87,-7.0,-35.060001,1b
2019-07-12_113004:440,-0.250641,-0.016266,-0.371643,-0.002872,0.00105,-0.027495,0.56,-6.56,-35.060001,1b
2019-07-12_113004:460,-0.238434,-0.017273,-0.361969,-0.004123,0.002514,-0.024169,0.56,-6.56,-35.060001,1b
2019-07-12_113004:480,-0.234375,-0.015228,-0.35180700000000004,-0.004886,0.0016600000000000002,-0.022704,1.25,-7.5,-34.68,1b
2019-07-12_113004:500,-0.234375,-0.013702,-0.347229,-0.005039,0.00047000000000000004,-0.021178,1.25,-7.5,-34.68,1b
2019-07-12_113004:520,-0.23486300000000002,-0.006592,-0.346222,-0.004978,0.000195,-0.01892,1.25,-7.5,-34.68,1b
2019-07-12_113004:540,-0.242493,-0.0055850000000000006,-0.349792,-0.0051,-4.9e-05,-0.015746,1.87,-7.06,-33.560001,1b
2019-07-12_113004:560,-0.259277,0.0,-0.367584,-0.005497,-4.9e-05,-0.011045999999999999,1.87,-7.06,-33.560001,1b
2019-07-12_113004:580,-0.264862,0.001495,-0.379791,-0.006962,-0.0009339999999999999,-0.004149,1.18,-7.5,-34.75,1b
2019-07-12_113004:600,-0.30654899999999996,-0.000488,-0.402161,-0.008609,-0.00246,0.003297,1.18,-7.5,-34.75,1b
2019-07-12_113004:620,-0.326904,-0.0035399999999999997,-0.432159,-0.011326000000000001,-0.005634,0.006379,1.18,-7.5,-34.75,1b
2019-07-12_113004:640,-0.340118,-0.0025329999999999997,-0.44027700000000003,-0.014041999999999999,-0.004596,0.006044,2.25,-7.5,-34.0,1b
2019-07-12_113004:660,-0.305054,0.002014,-0.453003,-0.016909999999999998,-0.000263,0.006868000000000001,2.25,-7.5,-34.0,1b
2019-07-12_113004:680,-0.332489,0.009644,-0.528229,-0.018313999999999997,-0.002979,0.009645,2.68,-7.06,-34.75,1b
2019-07-12_113004:700,-0.347748,0.0055850000000000006,-0.5709529999999999,-0.018253,-0.013294,0.011903,2.68,-7.06,-34.75,1b
2019-07-12_113004:720,-0.381317,0.031494,-0.574005,-0.017917,-0.017963,0.014436000000000001,2.68,-7.06,-34.75,1b
2019-07-12_113004:740,-0.34570300000000004,0.037108999999999996,-0.5505979999999999,-0.018436,-0.015491,0.022522999999999998,1.56,-7.75,-35.18,1b
2019-07-12_113004:760,-0.267426,0.053863999999999995,-0.492645,-0.017307,-0.004229999999999999,0.020784,1.56,-7.75,-35.18,1b
2019-07-12_113004:780,-0.28674299999999997,0.068634,-0.447388,-0.017825999999999998,0.009807999999999999,0.007661,2.25,-8.56,-34.75,1b
2019-07-12_113004:800,-0.268433,0.096069,-0.39859,-0.016849,0.024548,-0.00067,2.25,-8.56,-34.75,1b
2019-07-12_113004:820,-0.208954,0.116425,-0.384857,-0.016391,0.025433,0.001527,2.25,-8.56,-34.75,1b
2019-07-12_113004:840,-0.195221,0.116425,-0.374695,-0.017582,0.015271000000000002,0.006196,1.87,-9.0,-35.560001,1b
2019-07-12_113004:860,-0.190643,0.116425,-0.375214,-0.019778999999999998,-0.002735,0.011445,1.87,-9.0,-35.560001,1b
2019-07-12_113004:880,-0.212006,0.108795,-0.382324,-0.019687,-0.011646,0.021394,0.5,-9.25,-34.75,1b
2019-07-12_113004:900,-0.248108,0.081848,-0.397583,-0.018772,-0.017291,0.033388,0.5,-9.25,-34.75,1b
2019-07-12_113004:920,-0.28674299999999997,0.06405599999999999,-0.399109,-0.017124,-0.017291,0.04117,0.5,-9.25,-34.75,1b
2019-07-12_113004:940,-0.314697,0.039124,-0.398071,-0.015262000000000001,-0.013111000000000001,0.047944,0.75,-9.68,-34.369999,1b
2019-07-12_113004:960,-0.309113,0.028961,-0.382324,-0.013004,-0.007129000000000001,0.05591,0.75,-9.68,-34.369999,1b
2019-07-12_113004:980,-0.29943800000000004,0.010651,-0.366058,-0.011783,-0.0030399999999999997,0.060426,0.75,-10.06,-36.0,1b
2019-07-12_113005:000,-0.294373,0.004547,-0.35943600000000003,-0.011081,-0.001789,0.058809,0.75,-10.06,-36.0,1b
2019-07-12_113005:020,-0.272003,0.0055850000000000006,-0.346222,-0.011478,-0.002338,0.053101999999999996,0.75,-10.06,-36.0,1b
2019-07-12_113005:040,-0.263336,0.006592,-0.34317,-0.012668,-0.004993,0.047609,1.18,-10.5,-35.18,1b
2019-07-12_113005:060,-0.263336,0.0055850000000000006,-0.341125,-0.014713,-0.008533,0.043031,1.18,-10.5,-35.18,1b
2019-07-12_113005:080,-0.260803,0.004547,-0.341125,-0.015842,-0.011309999999999999,0.037599,0.06,-10.5,-35.18,1b
2019-07-12_113005:100,-0.266388,0.001495,-0.34368899999999997,-0.016452,-0.013324,0.031556,0.06,-10.5,-35.18,1b
2019-07-12_113005:120,-0.276581,0.0,-0.34317,-0.014835,-0.011524,0.026581999999999998,0.06,-10.5,-35.18,1b
2019-07-12_113005:140,-0.294373,0.000488,-0.3508,-0.012668,-0.008716,0.023988,0.5,-11.56,-35.560001,1b
2019-07-12_113005:160,-0.30654899999999996,0.0025329999999999997,-0.364532,-0.009067,-0.007343000000000001,0.023256,0.5,-11.56,-35.560001,1b
2019-07-12_113005:180,-0.311127,0.0035399999999999997,-0.382324,-0.004978,-0.006275,0.021974,-1.0,-11.18,-34.25,1b
2019-07-12_113005:200,-0.323853,0.007599,-0.388428,-0.00159,-0.005451,0.020600999999999998,-1.0,-11.18,-34.25,1b
2019-07-12_113005:220,-0.3508,0.016753999999999998,-0.42453,0.000729,-0.006458,0.023988,-1.0,-11.18,-34.25,1b
2019-07-12_113005:240,-0.37674,0.027435,-0.429596,0.001126,-0.003925,0.029542000000000002,0.75,-12.68,-35.5,1b
2019-07-12_113005:260,-0.33758499999999997,0.032013,-0.410278,-0.001621,0.0047729999999999995,0.035463,0.75,-12.68,-35.5,1b
2019-07-12_113005:280,-0.28369099999999997,0.031494,-0.411285,-0.005039,0.010968,0.038728,-0.25,-11.06,-35.060001,1b
2019-07-12_113005:300,-0.316223,0.009125,-0.45196499999999995,-0.008609,0.006756,0.038118,-0.25,-11.06,-35.060001,1b
2019-07-12_113005:320,-0.325378,0.011169,-0.545532,-0.012272,-0.011646,0.038789,-0.25,-11.06,-35.060001,1b
2019-07-12_113005:340,-0.385376,-0.028961,-0.556702,-0.011875,-0.024005000000000002,0.035676,-1.0,-11.06,-35.869999,1b
2019-07-12_113005:360,-0.377228,-0.039124,-0.5872189999999999,-0.012607,-0.026996,0.033388,-1.0,-11.06,-35.869999,1b
2019-07-12_113005:380,-0.363007,-0.045226999999999996,-0.501801,-0.007937999999999999,-0.007678,0.035188,-1.37,-11.5,-35.869999,1b
