timestamp,AccX,AccY,AccZ,GyroX,GyroY,GyroZ,MagX,MagY,MagZ,Activity
2019-07-12_130416:420,-0.449432,-0.045226999999999996,-0.201324,-0.012516,-0.019336000000000002,0.005983,-55.18,-12.87,-25.5,2b
2019-07-12_130416:440,-0.44891400000000004,-0.045745999999999995,-0.201843,-0.012943000000000001,-0.019611,0.006379,-55.18,-12.87,-25.5,2b
2019-07-12_130416:460,-0.444855,-0.046265,-0.206909,-0.013522999999999999,-0.019946000000000002,0.006654,-55.18,-12.87,-25.5,2b
2019-07-12_130416:480,-0.44638100000000003,-0.046265,-0.20843499999999998,-0.013645,-0.019733,0.007844,-53.68,-13.25,-26.559998999999998,2b
2019-07-12_130416:500,-0.44384799999999996,-0.051330999999999995,-0.210968,-0.013401,-0.019763,0.008454999999999999,-53.68,-13.25,-26.559998999999998,2b
2019-07-12_130416:520,-0.443329,-0.050842,-0.21606399999999998,-0.013187,-0.019367,0.007661,-53.68,-13.25,-25.5,2b
2019-07-12_130416:540,-0.44433599999999995,-0.049805,-0.21810900000000003,-0.012577,-0.019091999999999998,0.0076,-53.68,-13.25,-25.5,2b
2019-07-12_130416:560,-0.443329,-0.051849,-0.22116100000000002,-0.011722,-0.018756000000000002,0.008912,-53.68,-13.25,-25.5,2b
2019-07-12_130416:580,-0.441284,-0.053863999999999995,-0.223694,-0.011051,-0.018359999999999998,0.00937,-53.369999,-12.5,-25.75,2b
2019-07-12_130416:600,-0.441803,-0.053375,-0.226227,-0.010256999999999999,-0.017688,0.008912,-53.369999,-12.5,-25.75,2b
2019-07-12_130416:620,-0.440796,-0.053375,-0.22979699999999997,-0.009525,-0.017475,0.008638,-54.060001,-12.5,-27.0,2b
2019-07-12_130416:640,-0.43774399999999997,-0.053863999999999995,-0.230804,-0.009067,-0.017414,0.008454999999999999,-54.060001,-12.5,-27.0,2b
2019-07-12_130416:660,-0.43774399999999997,-0.053375,-0.234375,-0.008823000000000001,-0.016559,0.008058,-54.060001,-12.5,-27.0,2b
2019-07-12_130416:680,-0.43670699999999996,-0.053863999999999995,-0.235382,-0.008426000000000001,-0.016222999999999998,0.007905,-53.0,-12.5,-27.0,2b
2019-07-12_130416:700,-0.437225,-0.053375,-0.239441,-0.008395999999999999,-0.015430000000000001,0.008058,-53.0,-12.5,-27.0,2b
2019-07-12_130416:720,-0.434692,-0.05285599999999999,-0.23895300000000003,-0.008487,-0.014819999999999998,0.007905,-53.560001,-13.25,-28.559998999999998,2b
2019-07-12_130416:740,-0.433167,-0.053375,-0.239441,-0.008487,-0.014453,0.007905,-53.560001,-13.25,-28.559998999999998,2b
2019-07-12_130416:760,-0.432648,-0.05438200000000001,-0.24353000000000002,-0.008732,-0.013721,0.007997,-53.560001,-13.25,-28.559998999999998,2b
2019-07-12_130416:780,-0.431641,-0.055908000000000006,-0.243011,-0.008732,-0.013294,0.00757,-52.18,-12.87,-28.5,2b
2019-07-12_130416:800,-0.430634,-0.056915,-0.246063,-0.008762,-0.012927000000000001,0.0069900000000000006,-52.18,-12.87,-28.5,2b
2019-07-12_130416:820,-0.429108,-0.058960000000000005,-0.24706999999999998,-0.008334999999999999,-0.012531,0.006379,-52.560001,-12.06,-28.18,2b
2019-07-12_130416:840,-0.431122,-0.058441,-0.249115,-0.007877,-0.012103000000000001,0.005586,-52.560001,-12.06,-28.18,2b
2019-07-12_130416:860,-0.42758199999999996,-0.059479,-0.249115,-0.007084,-0.011463,0.004732,-52.560001,-12.06,-28.18,2b
2019-07-12_130416:880,-0.42807,-0.060486,-0.249115,-0.006076,-0.011249,0.004091,-52.060001,-12.5,-28.18,2b
2019-07-12_130416:900,-0.42758199999999996,-0.058960000000000005,-0.25012199999999996,-0.004947,-0.010851999999999999,0.003511,-52.060001,-12.5,-28.18,2b
2019-07-12_130416:920,-0.425537,-0.056915,-0.252686,-0.003849,-0.010578,0.00345,-52.5,-12.5,-29.0,2b
2019-07-12_130416:940,-0.42758199999999996,-0.055908000000000006,-0.252686,-0.003208,-0.010394,0.002839,-52.5,-12.5,-29.0,2b
2019-07-12_130416:960,-0.42453,-0.053863999999999995,-0.25216700000000003,-0.002659,-0.01012,0.002321,-52.5,-12.5,-29.0,2b
2019-07-12_130416:980,-0.42401099999999997,-0.051330999999999995,-0.253693,-0.002323,-0.009784000000000001,0.002229,-52.5,-12.87,-28.5,2b
2019-07-12_130417:000,-0.425018,-0.050842,-0.2547,-0.0022010000000000003,-0.00954,0.002321,-52.5,-12.87,-28.5,2b
2019-07-12_130417:020,-0.425018,-0.049316000000000006,-0.2547,-0.002414,-0.00954,0.00229,-51.75,-12.06,-29.25,2b
2019-07-12_130417:040,-0.427063,-0.049805,-0.2547,-0.002536,-0.008869,0.0027170000000000002,-51.75,-12.06,-29.25,2b
2019-07-12_130417:060,-0.427063,-0.048798,-0.2547,-0.002933,-0.008411,0.002839,-51.75,-12.06,-29.25,2b
2019-07-12_130417:080,-0.42758199999999996,-0.049805,-0.253693,-0.0033299999999999996,-0.007678,0.003023,-52.060001,-12.87,-29.68,2b
2019-07-12_130417:100,-0.426544,-0.048279,-0.254211,-0.003544,-0.007281999999999999,0.0029,-52.060001,-12.87,-29.68,2b
2019-07-12_130417:120,-0.423492,-0.050323,-0.25317399999999995,-0.003788,-0.006670999999999999,0.003053,-51.75,-12.87,-29.25,2b
2019-07-12_130417:140,-0.420441,-0.050842,-0.254211,-0.003788,-0.0066099999999999996,0.0029620000000000002,-51.75,-12.87,-29.25,2b
2019-07-12_130417:160,-0.420959,-0.049316000000000006,-0.256226,-0.003879,-0.0070680000000000005,0.0029620000000000002,-51.75,-12.87,-29.25,2b
2019-07-12_130417:180,-0.420959,-0.049805,-0.25521900000000003,-0.003879,-0.007281999999999999,0.003694,-51.0,-12.5,-30.5,2b
2019-07-12_130417:200,-0.42248500000000005,-0.050323,-0.25216700000000003,-0.003879,-0.007006999999999999,0.004182,-51.0,-12.5,-30.5,2b
2019-07-12_130417:220,-0.42401099999999997,-0.049316000000000006,-0.252686,-0.004062,-0.006945999999999999,0.0038469999999999997,-51.369999,-12.87,-30.870001000000002,2b
2019-07-12_130417:240,-0.425018,-0.050323,-0.25216700000000003,-0.004337,-0.006488,0.003511,-51.369999,-12.87,-30.870001000000002,2b
2019-07-12_130417:260,-0.425018,-0.049316000000000006,-0.25317399999999995,-0.004398,-0.006458,0.003511,-51.369999,-12.87,-30.870001000000002,2b
2019-07-12_130417:280,-0.42401099999999997,-0.049316000000000006,-0.252686,-0.004398,-0.0066099999999999996,0.0038469999999999997,-52.060001,-12.06,-30.870001000000002,2b
2019-07-12_130417:300,-0.421967,-0.048279,-0.25216700000000003,-0.004520000000000001,-0.006731999999999999,0.004091,-52.060001,-12.06,-30.870001000000002,2b
2019-07-12_130417:320,-0.420959,-0.049805,-0.25216700000000003,-0.004642,-0.0070680000000000005,0.004396,-51.369999,-12.87,-30.5,2b
2019-07-12_130417:340,-0.41943400000000003,-0.050842,-0.25116,-0.004459,-0.007404000000000001,0.004335,-51.369999,-12.87,-30.5,2b
2019-07-12_130417:360,-0.420959,-0.050323,-0.25216700000000003,-0.004581,-0.007862000000000001,0.004335,-51.369999,-12.87,-30.5,2b
2019-07-12_130417:380,-0.420441,-0.049316000000000006,-0.251648,-0.004612,-0.008258,0.004793,-51.75,-12.5,-30.059998999999998,2b
2019-07-12_130417:400,-0.41842700000000005,-0.051849,-0.25317399999999995,-0.004642,-0.008533,0.004732,-51.75,-12.5,-30.059998999999998,2b
2019-07-12_130417:420,-0.41943400000000003,-0.050323,-0.254211,-0.004886,-0.008655,0.003633,-51.75,-12.87,-31.25,2b
2019-07-12_130417:440,-0.41995200000000005,-0.050323,-0.25521900000000003,-0.004764,-0.009265,0.003908,-51.75,-12.87,-31.25,2b
2019-07-12_130417:460,-0.41943400000000003,-0.051849,-0.257233,-0.004520000000000001,-0.00954,0.005067,-51.75,-12.87,-31.25,2b
2019-07-12_130417:480,-0.42147799999999996,-0.050323,-0.256744,-0.004398,-0.009662,0.004732,-51.0,-12.87,-29.25,2b
2019-07-12_130417:500,-0.41943400000000003,-0.050323,-0.258759,-0.004520000000000001,-0.00954,0.00403,-51.0,-12.87,-29.25,2b
2019-07-12_130417:520,-0.41943400000000003,-0.048798,-0.258759,-0.004612,-0.009601,0.003908,-50.560001,-12.87,-29.68,2b
2019-07-12_130417:540,-0.41995200000000005,-0.050323,-0.259796,-0.004703,-0.009662,0.004152,-50.560001,-12.87,-29.68,2b
2019-07-12_130417:560,-0.420441,-0.050323,-0.260803,-0.004703,-0.00954,0.004213000000000001,-50.560001,-12.87,-29.68,2b
2019-07-12_130417:580,-0.41995200000000005,-0.050323,-0.26181,-0.004581,-0.009204,0.004396,-51.0,-13.25,-31.0,2b
2019-07-12_130417:600,-0.41842700000000005,-0.050323,-0.261322,-0.004642,-0.009052,0.004274,-51.0,-13.25,-31.0,2b
2019-07-12_130417:620,-0.416901,-0.050842,-0.264862,-0.004612,-0.009052,0.004396,-50.560001,-12.87,-31.370001000000002,2b
2019-07-12_130417:640,-0.41842700000000005,-0.050323,-0.264374,-0.004398,-0.008990999999999999,0.004671,-50.560001,-12.87,-31.370001000000002,2b
2019-07-12_130417:660,-0.417389,-0.051330999999999995,-0.264862,-0.004398,-0.008533,0.004793,-50.560001,-12.87,-31.370001000000002,2b
2019-07-12_130417:680,-0.417908,-0.051330999999999995,-0.263855,-0.004520000000000001,-0.008136,0.004548,-51.0,-12.87,-29.75,2b
2019-07-12_130417:700,-0.418915,-0.050842,-0.267426,-0.004612,-0.008136,0.004548,-51.0,-12.87,-29.75,2b
2019-07-12_130417:720,-0.416901,-0.051330999999999995,-0.2659,-0.004581,-0.007862000000000001,0.004548,-51.0,-12.5,-31.0,2b
2019-07-12_130417:740,-0.417389,-0.052338,-0.267426,-0.004581,-0.007739,0.004548,-51.0,-12.5,-31.0,2b
2019-07-12_130417:760,-0.417908,-0.050323,-0.265381,-0.004398,-0.007281999999999999,0.004671,-51.0,-12.5,-31.0,2b
2019-07-12_130417:780,-0.416901,-0.051330999999999995,-0.266907,-0.004398,-0.0070680000000000005,0.004671,-50.560001,-12.5,-31.0,2b
2019-07-12_130417:800,-0.41586300000000004,-0.050842,-0.267426,-0.004275999999999999,-0.006793,0.004793,-50.560001,-12.5,-31.0,2b
2019-07-12_130417:820,-0.416382,-0.050842,-0.266388,-0.004337,-0.0066099999999999996,0.004793,-50.560001,-12.5,-31.370001000000002,2b
2019-07-12_130417:840,-0.41485600000000006,-0.051330999999999995,-0.264862,-0.004459,-0.006275,0.004609,-50.560001,-12.5,-31.370001000000002,2b
2019-07-12_130417:860,-0.41586300000000004,-0.050842,-0.265381,-0.004275999999999999,-0.006214,0.004854,-50.560001,-12.5,-31.370001000000002,2b
2019-07-12_130417:880,-0.416382,-0.050842,-0.265381,-0.004520000000000001,-0.006092,0.004854,-50.25,-12.06,-31.75,2b
2019-07-12_130417:900,-0.41586300000000004,-0.051849,-0.2659,-0.004581,-0.0060609999999999995,0.004793,-50.25,-12.06,-31.75,2b
2019-07-12_130417:920,-0.416901,-0.05285599999999999,-0.265381,-0.004612,-0.005939,0.004793,-51.0,-13.25,-31.370001000000002,2b
2019-07-12_130417:940,-0.415375,-0.053375,-0.265381,-0.004520000000000001,-0.005939,0.004915,-51.0,-13.25,-31.370001000000002,2b
2019-07-12_130417:960,-0.412811,-0.05285599999999999,-0.2659,-0.004398,-0.005939,0.004548,-51.0,-13.25,-31.370001000000002,2b
2019-07-12_130417:980,-0.411804,-0.052338,-0.2659,-0.004398,-0.006275,0.004671,-50.560001,-12.06,-32.060001,2b
2019-07-12_130418:000,-0.41586300000000004,-0.053863999999999995,-0.265381,-0.004062,-0.006397,0.004854,-50.560001,-12.06,-32.060001,2b
2019-07-12_130418:020,-0.416382,-0.053863999999999995,-0.265381,-0.004275999999999999,-0.006458,0.004793,-51.0,-12.5,-31.0,2b
2019-07-12_130418:040,-0.416901,-0.05285599999999999,-0.2659,-0.004184,-0.006092,0.004945000000000001,-51.0,-12.5,-31.0,2b
2019-07-12_130418:060,-0.416901,-0.05285599999999999,-0.265381,-0.004459,-0.005878,0.005006,-51.0,-12.5,-31.0,2b
2019-07-12_130418:080,-0.41586300000000004,-0.053375,-0.264862,-0.004581,-0.005878,0.004518,-51.0,-13.25,-30.18,2b
2019-07-12_130418:100,-0.415375,-0.051849,-0.264862,-0.004825,-0.005695,0.004213000000000001,-51.0,-13.25,-30.18,2b
2019-07-12_130418:120,-0.41333000000000003,-0.053863999999999995,-0.265381,-0.004947,-0.0055119999999999995,0.004396,-50.560001,-12.06,-31.75,2b
2019-07-12_130418:140,-0.41333000000000003,-0.054901,-0.266388,-0.004764,-0.005878,0.0038159999999999995,-50.560001,-12.06,-31.75,2b
2019-07-12_130418:160,-0.41232299999999994,-0.05438200000000001,-0.266907,-0.004642,-0.006458,0.003908,-50.560001,-12.06,-31.75,2b
2019-07-12_130418:180,-0.41333000000000003,-0.054901,-0.265381,-0.004275999999999999,-0.0066099999999999996,0.004945000000000001,-51.0,-12.5,-31.0,2b
2019-07-12_130418:200,-0.41485600000000006,-0.054901,-0.2659,-0.0042450000000000005,-0.0061530000000000005,0.004518,-51.0,-12.5,-31.0,2b
2019-07-12_130418:220,-0.415375,-0.054901,-0.266388,-0.0042450000000000005,-0.006,0.003358,-50.560001,-12.5,-31.0,2b
2019-07-12_130418:240,-0.416382,-0.055389,-0.265381,-0.004275999999999999,-0.005695,0.003114,-50.560001,-12.5,-31.0,2b
2019-07-12_130418:260,-0.417908,-0.055389,-0.266388,-0.004184,-0.005634,0.003114,-50.560001,-12.5,-31.0,2b
2019-07-12_130418:280,-0.41586300000000004,-0.053863999999999995,-0.265381,-0.004184,-0.005573,0.003175,-51.0,-13.25,-31.75,2b
2019-07-12_130418:300,-0.415375,-0.053375,-0.263855,-0.004001,-0.00539,0.003572,-51.0,-13.25,-31.75,2b
2019-07-12_130418:320,-0.41333000000000003,-0.053863999999999995,-0.264862,-0.004001,-0.005756,0.003358,-50.25,-12.06,-31.370001000000002,2b
2019-07-12_130418:340,-0.41333000000000003,-0.052338,-0.265381,-0.004184,-0.005725,0.0029620000000000002,-50.25,-12.06,-31.370001000000002,2b
2019-07-12_130418:360,-0.415375,-0.051330999999999995,-0.263336,-0.004275999999999999,-0.006092,0.003114,-50.25,-12.06,-31.370001000000002,2b
2019-07-12_130418:380,-0.414337,-0.051849,-0.263855,-0.004398,-0.0061530000000000005,0.003633,-51.369999,-12.87,-31.0,2b
2019-07-12_130418:400,-0.41384899999999997,-0.053375,-0.263855,-0.004520000000000001,-0.006336,0.002839,-51.369999,-12.87,-31.0,2b
2019-07-12_130418:420,-0.415375,-0.05285599999999999,-0.2659,-0.004337,-0.006092,0.0019850000000000002,-51.369999,-12.5,-31.370001000000002,2b
2019-07-12_130418:440,-0.41384899999999997,-0.050323,-0.265381,-0.004398,-0.006488,0.003114,-51.369999,-12.5,-31.370001000000002,2b
2019-07-12_130418:460,-0.414337,-0.051849,-0.266388,-0.003879,-0.006336,0.003908,-51.369999,-12.5,-31.370001000000002,2b
2019-07-12_130418:480,-0.414337,-0.052338,-0.266907,-0.004123,-0.006397,0.003053,-50.25,-12.5,-30.870001000000002,2b
2019-07-12_130418:500,-0.41485600000000006,-0.050323,-0.266907,-0.004398,-0.006214,0.002382,-50.25,-12.5,-30.870001000000002,2b
2019-07-12_130418:520,-0.414337,-0.050842,-0.268433,-0.004337,-0.006092,0.0026260000000000003,-50.560001,-12.87,-32.5,2b
2019-07-12_130418:540,-0.41485600000000006,-0.050842,-0.266907,-0.004275999999999999,-0.005878,0.0029620000000000002,-50.560001,-12.87,-32.5,2b
2019-07-12_130418:560,-0.416382,-0.050323,-0.266907,-0.004337,-0.005878,0.003023,-50.560001,-12.87,-32.5,2b
2019-07-12_130418:580,-0.416382,-0.050323,-0.267426,-0.004062,-0.005939,0.0032359999999999997,-49.869999,-12.87,-30.5,2b
2019-07-12_130418:600,-0.415375,-0.050323,-0.2659,-0.004062,-0.005725,0.003297,-49.869999,-12.87,-30.5,2b
2019-07-12_130418:620,-0.414337,-0.050323,-0.266907,-0.004062,-0.006,0.003633,-51.0,-13.25,-30.5,2b
2019-07-12_130418:640,-0.414337,-0.048798,-0.265381,-0.004123,-0.005817,0.0037549999999999997,-51.0,-13.25,-30.5,2b
2019-07-12_130418:660,-0.41485600000000006,-0.050323,-0.265381,-0.004398,-0.006092,0.003511,-51.0,-13.25,-30.5,2b
2019-07-12_130418:680,-0.414337,-0.049805,-0.265381,-0.004459,-0.0060609999999999995,0.003633,-49.869999,-13.56,-30.5,2b
2019-07-12_130418:700,-0.41586300000000004,-0.049316000000000006,-0.264862,-0.004459,-0.0060609999999999995,0.00403,-49.869999,-13.56,-30.5,2b
2019-07-12_130418:720,-0.41485600000000006,-0.049316000000000006,-0.2659,-0.004459,-0.006488,0.0039689999999999994,-49.5,-13.25,-32.5,2b
2019-07-12_130418:740,-0.41485600000000006,-0.049316000000000006,-0.2659,-0.004459,-0.006214,0.0039689999999999994,-49.5,-13.25,-32.5,2b
2019-07-12_130418:760,-0.41384899999999997,-0.050842,-0.266907,-0.004398,-0.006275,0.004091,-49.5,-13.25,-32.5,2b
2019-07-12_130418:780,-0.41485600000000006,-0.050842,-0.266907,-0.004398,-0.006397,0.00403,-50.25,-12.87,-31.68,2b
2019-07-12_130418:800,-0.41384899999999997,-0.049805,-0.264862,-0.004398,-0.006548999999999999,0.004091,-50.25,-12.87,-31.68,2b
2019-07-12_130418:820,-0.414337,-0.049805,-0.266388,-0.004337,-0.006548999999999999,0.004152,-50.25,-12.87,-32.0,2b
2019-07-12_130418:840,-0.41384899999999997,-0.050842,-0.267426,-0.0042450000000000005,-0.006854000000000001,0.004182,-50.25,-12.87,-32.0,2b
2019-07-12_130418:860,-0.414337,-0.050842,-0.265381,-0.004337,-0.006793,0.004091,-50.25,-12.87,-32.0,2b
2019-07-12_130418:880,-0.41485600000000006,-0.050323,-0.269958,-0.004184,-0.006885,0.004152,-50.560001,-13.56,-32.5,2b
2019-07-12_130418:900,-0.416382,-0.050323,-0.269958,-0.004184,-0.006458,0.004213000000000001,-50.560001,-13.56,-32.5,2b
2019-07-12_130418:920,-0.41384899999999997,-0.050842,-0.268951,-0.00394,-0.006275,0.004091,-50.25,-12.87,-30.870001000000002,2b
2019-07-12_130418:940,-0.41586300000000004,-0.051330999999999995,-0.269958,-0.004062,-0.006214,0.0039689999999999994,-50.25,-12.87,-30.870001000000002,2b
2019-07-12_130418:960,-0.41232299999999994,-0.050842,-0.26944,-0.004062,-0.005878,0.0037549999999999997,-50.25,-12.87,-30.870001000000002,2b
2019-07-12_130418:980,-0.412811,-0.050842,-0.269958,-0.00394,-0.005878,0.0037549999999999997,-50.560001,-13.25,-31.68,2b
2019-07-12_130419:000,-0.41333000000000003,-0.049805,-0.268433,-0.00394,-0.005878,0.003633,-50.560001,-13.25,-31.68,2b
2019-07-12_130419:020,-0.415375,-0.050323,-0.26944,-0.003849,-0.005878,0.003694,-50.560001,-12.5,-32.5,2b
2019-07-12_130419:040,-0.41586300000000004,-0.049805,-0.268433,-0.0037270000000000003,-0.0055119999999999995,0.0039689999999999994,-50.560001,-12.5,-32.5,2b
2019-07-12_130419:060,-0.41586300000000004,-0.049805,-0.267914,-0.00394,-0.00539,0.004152,-50.560001,-12.5,-32.5,2b
2019-07-12_130419:080,-0.415375,-0.050323,-0.267914,-0.004184,-0.004993,0.003908,-51.369999,-12.87,-32.0,2b
2019-07-12_130419:100,-0.416382,-0.051330999999999995,-0.2659,-0.004123,-0.004961999999999999,0.003572,-51.369999,-12.87,-32.0,2b
2019-07-12_130419:120,-0.412811,-0.049805,-0.266907,-0.004612,-0.00484,0.003511,-50.560001,-12.87,-32.869999,2b
2019-07-12_130419:140,-0.41333000000000003,-0.052338,-0.266907,-0.004398,-0.004993,0.003572,-50.560001,-12.87,-32.869999,2b
2019-07-12_130419:160,-0.41333000000000003,-0.050323,-0.266907,-0.004398,-0.005298,0.003053,-50.560001,-12.87,-32.869999,2b
2019-07-12_130419:180,-0.411285,-0.049805,-0.266388,-0.004275999999999999,-0.005451,0.003297,-50.560001,-13.25,-31.68,2b
2019-07-12_130419:200,-0.41333000000000003,-0.050323,-0.265381,-0.003849,-0.0055119999999999995,0.004091,-50.560001,-13.25,-31.68,2b
2019-07-12_130419:220,-0.41586300000000004,-0.050323,-0.2659,-0.003879,-0.00539,0.003694,-50.25,-12.87,-31.68,2b
2019-07-12_130419:240,-0.41586300000000004,-0.050323,-0.2659,-0.00394,-0.004993,0.002778,-50.25,-12.87,-31.68,2b
2019-07-12_130419:260,-0.41842700000000005,-0.049316000000000006,-0.268433,-0.004062,-0.004596,0.003023,-50.25,-12.87,-31.68,2b
2019-07-12_130419:280,-0.416382,-0.050323,-0.265381,-0.004123,-0.004229999999999999,0.0034189999999999997,-50.25,-13.25,-32.5,2b
2019-07-12_130419:300,-0.41586300000000004,-0.049316000000000006,-0.263336,-0.0042450000000000005,-0.004383,0.003358,-50.25,-13.25,-32.5,2b
2019-07-12_130419:320,-0.414337,-0.048798,-0.264862,-0.004459,-0.004961999999999999,0.0034189999999999997,-50.25,-12.87,-31.25,2b
2019-07-12_130419:340,-0.414337,-0.048279,-0.262848,-0.004581,-0.005115,0.003511,-50.25,-12.87,-31.25,2b
2019-07-12_130419:360,-0.410797,-0.049316000000000006,-0.263336,-0.004581,-0.005359,0.003114,-50.25,-12.87,-31.25,2b
2019-07-12_130419:380,-0.414337,-0.047791,-0.264374,-0.004703,-0.006,0.0032359999999999997,-51.369999,-13.25,-30.059998999999998,2b
2019-07-12_130419:400,-0.41485600000000006,-0.048798,-0.259796,-0.004581,-0.0060609999999999995,0.003511,-51.369999,-13.25,-30.059998999999998,2b
2019-07-12_130419:420,-0.41485600000000006,-0.050323,-0.263336,-0.004520000000000001,-0.006214,0.002687,-51.369999,-13.25,-30.059998999999998,2b
2019-07-12_130419:440,-0.414337,-0.049316000000000006,-0.263855,-0.004459,-0.006670999999999999,0.002046,-50.25,-12.87,-32.0,2b
2019-07-12_130419:460,-0.414337,-0.046752999999999996,-0.265381,-0.004123,-0.006945999999999999,0.003358,-50.25,-12.87,-32.0,2b
2019-07-12_130419:480,-0.415375,-0.048279,-0.265381,-0.00394,-0.006854000000000001,0.004152,-50.560001,-13.25,-30.870001000000002,2b
2019-07-12_130419:500,-0.41586300000000004,-0.046752999999999996,-0.263855,-0.004398,-0.0066099999999999996,0.003023,-50.560001,-13.25,-30.870001000000002,2b
2019-07-12_130419:520,-0.414337,-0.046752999999999996,-0.265381,-0.004825,-0.006731999999999999,0.0027170000000000002,-50.560001,-13.25,-30.870001000000002,2b
2019-07-12_130419:540,-0.41384899999999997,-0.048279,-0.266907,-0.004612,-0.006854000000000001,0.0029,-49.060001,-13.25,-30.059998999999998,2b
2019-07-12_130419:560,-0.41586300000000004,-0.048798,-0.2659,-0.004825,-0.0066099999999999996,0.002443,-49.060001,-13.25,-30.059998999999998,2b
2019-07-12_130419:580,-0.41485600000000006,-0.048798,-0.266907,-0.004703,-0.006793,0.0027170000000000002,-50.25,-12.87,-31.370001000000002,2b
2019-07-12_130419:600,-0.41586300000000004,-0.048798,-0.2659,-0.004184,-0.006670999999999999,0.002839,-50.25,-12.87,-31.370001000000002,2b
2019-07-12_130419:620,-0.414337,-0.048798,-0.266907,-0.004001,-0.006670999999999999,0.002565,-50.25,-12.87,-31.370001000000002,2b
2019-07-12_130419:640,-0.414337,-0.046265,-0.267426,-0.0036049999999999997,-0.006548999999999999,0.0026260000000000003,-49.869999,-13.56,-31.75,2b
2019-07-12_130419:660,-0.41384899999999997,-0.045226999999999996,-0.267914,-0.003544,-0.006731999999999999,0.0027170000000000002,-49.869999,-13.56,-31.75,2b
2019-07-12_130419:680,-0.414337,-0.045226999999999996,-0.266907,-0.0036049999999999997,-0.006548999999999999,0.002443,-50.25,-13.56,-31.0,2b
2019-07-12_130419:700,-0.416382,-0.043701,-0.267426,-0.00394,-0.006731999999999999,0.002321,-50.25,-13.56,-31.0,2b
2019-07-12_130419:720,-0.41586300000000004,-0.042694,-0.267426,-0.0042450000000000005,-0.006854000000000001,0.002565,-50.25,-13.56,-31.0,2b
2019-07-12_130419:740,-0.41586300000000004,-0.044219999999999995,-0.268951,-0.004612,-0.0066099999999999996,0.002321,-49.060001,-13.25,-31.25,2b
2019-07-12_130419:760,-0.415375,-0.041687,-0.26944,-0.004764,-0.006275,0.002321,-49.060001,-13.25,-31.25,2b
2019-07-12_130419:780,-0.416382,-0.042175,-0.26944,-0.004978,-0.006336,0.0029,-49.869999,-13.25,-32.560001,2b
2019-07-12_130419:800,-0.416382,-0.042694,-0.26944,-0.004947,-0.005939,0.003023,-49.869999,-13.25,-32.560001,2b
2019-07-12_130419:820,-0.41586300000000004,-0.042694,-0.268951,-0.004825,-0.005725,0.0029620000000000002,-49.869999,-13.25,-32.560001,2b
2019-07-12_130419:840,-0.414337,-0.042175,-0.26944,-0.004612,-0.005756,0.003358,-49.869999,-13.56,-31.75,2b
2019-07-12_130419:860,-0.41384899999999997,-0.042175,-0.266388,-0.004612,-0.005634,0.004091,-49.869999,-13.56,-31.75,2b
2019-07-12_130419:880,-0.41333000000000003,-0.042175,-0.267426,-0.004581,-0.005725,0.004335,-50.25,-13.25,-31.370001000000002,2b
2019-07-12_130419:900,-0.41384899999999997,-0.041687,-0.265381,-0.004703,-0.005725,0.004518,-50.25,-13.25,-31.370001000000002,2b
2019-07-12_130419:920,-0.415375,-0.043213,-0.267426,-0.004886,-0.005725,0.004671,-50.25,-13.25,-31.370001000000002,2b
2019-07-12_130419:940,-0.416382,-0.043213,-0.266388,-0.004825,-0.005725,0.004793,-50.560001,-13.25,-32.560001,2b
2019-07-12_130419:960,-0.41485600000000006,-0.044739,-0.267914,-0.004886,-0.005756,0.004945000000000001,-50.560001,-13.25,-32.560001,2b
2019-07-12_130419:980,-0.412811,-0.044219999999999995,-0.267914,-0.004612,-0.005817,0.004854,-49.060001,-13.56,-32.560001,2b
2019-07-12_130420:000,-0.41232299999999994,-0.045745999999999995,-0.2659,-0.004581,-0.006,0.004732,-49.060001,-13.56,-32.560001,2b
2019-07-12_130420:020,-0.414337,-0.045226999999999996,-0.267426,-0.004581,-0.006336,0.004671,-49.060001,-13.56,-32.560001,2b
2019-07-12_130420:040,-0.41485600000000006,-0.045226999999999996,-0.266388,-0.004275999999999999,-0.006488,0.004671,-48.75,-13.25,-32.5,2b
2019-07-12_130420:060,-0.417908,-0.045745999999999995,-0.268433,-0.004337,-0.006488,0.004152,-48.75,-13.25,-32.5,2b
2019-07-12_130420:080,-0.416382,-0.045745999999999995,-0.266907,-0.004398,-0.0061530000000000005,0.003908,-50.25,-13.56,-32.560001,2b
2019-07-12_130420:100,-0.41842700000000005,-0.048279,-0.266907,-0.0042450000000000005,-0.005817,0.003572,-50.25,-13.56,-32.560001,2b
2019-07-12_130420:120,-0.414337,-0.050323,-0.270477,-0.004337,-0.005695,0.0029620000000000002,-50.25,-13.56,-32.560001,2b
2019-07-12_130420:140,-0.415375,-0.05285599999999999,-0.274536,-0.004001,-0.0055119999999999995,0.002229,-50.25,-14.0,-31.75,2b
2019-07-12_130420:160,-0.414337,-0.05285599999999999,-0.272491,-0.0036049999999999997,-0.005115,0.001192,-50.25,-14.0,-31.75,2b
2019-07-12_130420:180,-0.41485600000000006,-0.053375,-0.274017,-0.003116,-0.005054,0.000642,-49.5,-14.37,-32.060001,2b
2019-07-12_130420:200,-0.41586300000000004,-0.053375,-0.27301,-0.002414,-0.004444,0.000368,-49.5,-14.37,-32.060001,2b
2019-07-12_130420:220,-0.41485600000000006,-0.051330999999999995,-0.271484,-0.0019260000000000002,-0.003925,-0.001067,-49.5,-14.37,-32.060001,2b
2019-07-12_130420:240,-0.415375,-0.049316000000000006,-0.272003,-0.0018039999999999998,-0.0031309999999999997,-0.002135,-49.869999,-13.25,-31.0,2b
2019-07-12_130420:260,-0.417389,-0.047272,-0.26944,-0.001743,-0.002735,-0.002349,-49.869999,-13.25,-31.0,2b
2019-07-12_130420:280,-0.417908,-0.046265,-0.26944,-0.0016820000000000001,-0.00246,-0.002867,-49.869999,-13.56,-32.060001,2b
2019-07-12_130420:300,-0.41842700000000005,-0.044219999999999995,-0.2659,-0.002079,-0.002124,-0.0036,-49.869999,-13.56,-32.060001,2b
2019-07-12_130420:320,-0.41943400000000003,-0.042175,-0.265381,-0.00214,-0.0020629999999999997,-0.0038740000000000003,-49.869999,-13.56,-32.060001,2b
2019-07-12_130420:340,-0.41943400000000003,-0.044219999999999995,-0.263855,-0.002262,-0.0017280000000000002,-0.004729,-49.869999,-14.75,-31.370001000000002,2b
2019-07-12_130420:360,-0.416382,-0.043701,-0.263336,-0.002323,-0.0017280000000000002,-0.006712999999999999,-49.869999,-14.75,-31.370001000000002,2b
2019-07-12_130420:380,-0.42147799999999996,-0.045226999999999996,-0.265381,-0.00214,-0.002246,-0.007994,-49.5,-14.68,-30.559998999999998,2b
2019-07-12_130420:400,-0.418915,-0.047791,-0.263855,-0.001468,-0.001789,-0.009184000000000001,-49.5,-14.68,-30.559998999999998,2b
2019-07-12_130420:420,-0.425537,-0.050323,-0.267426,-0.000736,-0.0020629999999999997,-0.011962,-49.5,-14.68,-30.559998999999998,2b
2019-07-12_130420:440,-0.429108,-0.049805,-0.269958,0.000332,-0.001666,-0.015531999999999999,-48.75,-15.06,-30.559998999999998,2b
2019-07-12_130420:460,-0.432159,-0.040649,-0.2659,0.001309,-0.0008119999999999999,-0.017485,-48.75,-15.06,-30.559998999999998,2b
2019-07-12_130420:480,-0.440796,-0.037598,-0.264374,0.0019190000000000001,7.3e-05,-0.016814,-50.25,-16.559998999999998,-31.370001000000002,2b
2019-07-12_130420:500,-0.44433599999999995,-0.034546,-0.255707,0.0027129999999999997,0.002118,-0.016081,-50.25,-16.559998999999998,-31.370001000000002,2b
2019-07-12_130420:520,-0.434174,-0.034058,-0.251648,0.003445,0.004712,-0.018279,-50.25,-16.559998999999998,-31.370001000000002,2b
2019-07-12_130420:540,-0.410797,-0.027954000000000003,-0.252686,0.0042380000000000004,0.006177,-0.021330000000000002,-50.560001,-16.559998999999998,-31.0,2b
2019-07-12_130420:560,-0.404694,-0.029480000000000003,-0.25317399999999995,0.005612,0.005902,-0.02191,-50.560001,-16.559998999999998,-31.0,2b
2019-07-12_130420:580,-0.412811,-0.032013,-0.25012199999999996,0.0072900000000000005,0.004315,-0.021391999999999998,-49.5,-17.0,-30.559998999999998,2b
2019-07-12_130420:600,-0.41995200000000005,-0.032532,-0.244019,0.010159,0.002728,-0.021605000000000003,-49.5,-17.0,-30.559998999999998,2b
2019-07-12_130420:620,-0.429108,-0.029480000000000003,-0.24706999999999998,0.013211,0.001599,-0.022581999999999998,-49.5,-17.0,-30.559998999999998,2b
2019-07-12_130420:640,-0.41842700000000005,-0.021851,-0.240479,0.016384,0.001782,-0.023313999999999998,-49.060001,-18.5,-29.75,2b
2019-07-12_130420:660,-0.421967,-0.015747,-0.243011,0.018368000000000002,0.001477,-0.023253,-49.060001,-18.5,-29.75,2b
2019-07-12_130420:680,-0.420959,-0.011687999999999999,-0.24096700000000001,0.019284,0.000805,-0.021453,-48.369999,-18.75,-31.0,2b
2019-07-12_130420:700,-0.426544,-0.010162000000000001,-0.236389,0.019711000000000003,0.000134,-0.019927,-48.369999,-18.75,-31.0,2b
2019-07-12_130420:720,-0.42807,-0.004547,-0.23590100000000003,0.019223,-0.000659,-0.021575,-48.369999,-18.75,-31.0,2b
2019-07-12_130420:740,-0.43011499999999997,0.001007,-0.23590100000000003,0.017391999999999998,-0.001575,-0.024108,-48.0,-19.559998999999998,-31.25,2b
2019-07-12_130420:760,-0.425537,0.004059,-0.23284899999999997,0.015590999999999999,-0.00246,-0.024901,-48.0,-19.559998999999998,-31.25,2b
2019-07-12_130420:780,-0.416901,0.006072999999999999,-0.233337,0.013271999999999999,-0.003589,-0.026244,-47.25,-20.059998999999998,-30.870001000000002,2b
2019-07-12_130420:800,-0.410797,0.012695,-0.235382,0.010403,-0.00484,-0.028502,-47.25,-20.059998999999998,-30.870001000000002,2b
2019-07-12_130420:820,-0.404175,0.014740000000000001,-0.237427,0.007809,-0.006397,-0.029875,-47.25,-20.059998999999998,-30.870001000000002,2b
2019-07-12_130420:840,-0.41842700000000005,0.020325,-0.24096700000000001,0.00549,-0.008197,-0.032408,-47.25,-21.059998999999998,-31.25,2b
2019-07-12_130420:860,-0.42248500000000005,0.022369,-0.245056,0.0032920000000000002,-0.01012,-0.036193,-47.25,-21.059998999999998,-31.25,2b
2019-07-12_130420:880,-0.425018,0.025421,-0.245056,0.00198,-0.010394,-0.040496,-47.25,-21.5,-31.25,2b
2019-07-12_130420:900,-0.434692,0.031494,-0.245056,0.001065,-0.009876000000000001,-0.045409,-47.25,-21.5,-31.25,2b
2019-07-12_130420:920,-0.447906,0.041687,-0.24706999999999998,0.000851,-0.00893,-0.049864,-47.25,-21.5,-31.25,2b
2019-07-12_130420:940,-0.453491,0.057434000000000006,-0.244019,0.001065,-0.007862000000000001,-0.051177,-45.060001,-23.0,-31.25,2b
2019-07-12_130420:960,-0.46926899999999994,0.076752,-0.231323,0.001034,-0.006488,-0.047942,-45.060001,-23.0,-31.25,2b
2019-07-12_130420:980,-0.470276,0.089478,-0.21911599999999998,-0.00046100000000000004,-0.004169,-0.040099,-44.0,-25.559998999999998,-32.5,2b
2019-07-12_130421:000,-0.49111899999999997,0.095581,-0.21249400000000002,-0.002414,-0.002124,-0.029020999999999998,-44.0,-25.559998999999998,-32.5,2b
2019-07-12_130421:020,-0.474854,0.100159,-0.207916,-0.005436,-0.0008730000000000001,-0.020659,-44.0,-25.559998999999998,-32.5,2b
2019-07-12_130421:040,-0.447906,0.102173,-0.20843499999999998,-0.009159,-0.002246,-0.016204,-42.5,-26.68,-32.5,2b
2019-07-12_130421:060,-0.448425,0.10775799999999999,-0.212006,-0.010348999999999999,-0.005359,-0.013365,-42.5,-26.68,-32.5,2b
2019-07-12_130421:080,-0.45553599999999994,0.119965,-0.22216799999999998,-0.0098,-0.009326000000000001,-0.013030000000000002,-41.560001,-27.870001000000002,-31.68,2b
2019-07-12_130421:100,-0.43927,0.144379,-0.22421300000000002,-0.009342,-0.012592,-0.012572,-41.560001,-27.870001000000002,-31.68,2b
2019-07-12_130421:120,-0.443329,0.189117,-0.254211,-0.009403,-0.016375999999999998,-0.006712999999999999,-41.560001,-27.870001000000002,-31.68,2b
2019-07-12_130421:140,-0.44281000000000004,0.20233199999999998,-0.266388,-0.011417,-0.019611,0.00525,-41.18,-28.68,-32.0,2b
2019-07-12_130421:160,-0.449432,0.204376,-0.277069,-0.013736000000000002,-0.018634,0.019014,-41.18,-28.68,-32.0,2b
2019-07-12_130421:180,-0.451477,0.19927999999999998,-0.285217,-0.0163,-0.015094,0.033388,-40.18,-29.75,-32.5,2b
2019-07-12_130421:200,-0.434692,0.181488,-0.293854,-0.0181,-0.010791,0.045808,-40.18,-29.75,-32.5,2b
2019-07-12_130421:220,-0.415375,0.169281,-0.290283,-0.019352,-0.00539,0.05450599999999999,-40.18,-29.75,-32.5,2b
2019-07-12_130421:240,-0.385376,0.156586,-0.277588,-0.020084,0.00040899999999999997,0.06149400000000001,-40.5,-29.5,-33.18,2b
2019-07-12_130421:260,-0.364532,0.149475,-0.271484,-0.021366,0.005902,0.06713999999999999,-40.5,-29.5,-33.18,2b
2019-07-12_130421:280,-0.344177,0.139282,-0.265381,-0.023349,0.007428,0.068635,-42.68,-27.25,-31.68,2b
2019-07-12_130421:300,-0.339111,0.128113,-0.24096700000000001,-0.025851999999999997,0.009503,0.066926,-42.68,-27.25,-31.68,2b
2019-07-12_130421:320,-0.319275,0.11080899999999999,-0.21505700000000003,-0.027744,0.012005,0.06421,-42.68,-27.25,-31.68,2b
2019-07-12_130421:340,-0.300476,0.098633,-0.199799,-0.029238999999999998,0.015941999999999998,0.061006,-43.869999,-25.75,-30.5,2b
2019-07-12_130421:360,-0.29895,0.07421900000000001,-0.20233199999999998,-0.029727999999999997,0.015851,0.057557000000000004,-43.869999,-25.75,-30.5,2b
2019-07-12_130421:380,-0.312164,0.059479,-0.20538299999999998,-0.027134,0.009289,0.04947,-46.869999,-23.18,-30.059998999999998,2b
2019-07-12_130421:400,-0.358917,0.041168,-0.203369,-0.022281,-0.001178,0.033723,-46.869999,-23.18,-30.059998999999998,2b
2019-07-12_130421:420,-0.406219,0.037598,-0.205902,-0.015842,-0.011859,0.015352000000000001,-46.869999,-23.18,-30.059998999999998,2b
2019-07-12_130421:440,-0.463654,0.035583,-0.213531,-0.008029999999999999,-0.01955,0.0034189999999999997,-47.18,-22.75,-28.5,2b
2019-07-12_130421:460,-0.48654200000000003,0.034058,-0.22116100000000002,-0.001194,-0.023456,0.001253,-47.18,-22.75,-28.5,2b
2019-07-12_130421:480,-0.515015,0.026427999999999997,-0.238434,0.0033840000000000003,-0.025134,0.008516,-46.869999,-21.68,-28.870001000000002,2b
2019-07-12_130421:500,-0.530792,0.010162000000000001,-0.24658200000000002,0.005215,-0.026172000000000004,0.020600999999999998,-46.869999,-21.68,-28.870001000000002,2b
2019-07-12_130421:520,-0.522644,-0.013702,-0.249115,0.004849,-0.025043,0.031007,-46.869999,-21.68,-28.870001000000002,2b
2019-07-12_130421:540,-0.5073850000000001,-0.028961,-0.25012199999999996,0.003445,-0.021289,0.03943,-48.25,-21.559998999999998,-29.25,2b
2019-07-12_130421:560,-0.46926899999999994,-0.052338,-0.25216700000000003,0.000637,-0.016559,0.047212,-48.25,-21.559998999999998,-29.25,2b
2019-07-12_130421:580,-0.433167,-0.068115,-0.254211,-0.002933,-0.0125,0.054627999999999996,-46.869999,-20.25,-30.059998999999998,2b
2019-07-12_130421:600,-0.393005,-0.096069,-0.257751,-0.00629,-0.010181,0.059083000000000004,-46.869999,-20.25,-30.059998999999998,2b
2019-07-12_130421:620,-0.381805,-0.112854,-0.26181,-0.0076939999999999995,-0.010181,0.0571,-46.869999,-20.25,-30.059998999999998,2b
2019-07-12_130421:640,-0.374176,-0.130646,-0.257751,-0.007297,-0.010639000000000001,0.04767,-48.25,-18.370001000000002,-30.870001000000002,2b
2019-07-12_130421:660,-0.37316900000000003,-0.12912,-0.25827,-0.004947,-0.01305,0.026552,-48.25,-18.370001000000002,-30.870001000000002,2b
2019-07-12_130421:680,-0.387909,-0.12149000000000001,-0.259277,-0.002079,-0.015766,0.014558000000000001,-49.0,-15.75,-31.25,2b
2019-07-12_130421:700,-0.395538,-0.11233499999999999,-0.257751,0.00011899999999999999,-0.018938999999999998,0.00525,-49.0,-15.75,-31.25,2b
2019-07-12_130421:720,-0.40976,-0.09811399999999999,-0.259796,0.002255,-0.022022,-0.002257,-49.0,-15.75,-31.25,2b
2019-07-12_130421:740,-0.41586300000000004,-0.08843999999999999,-0.258759,0.003781,-0.023791999999999997,-0.00952,-49.369999,-14.68,-31.68,2b
2019-07-12_130421:760,-0.42147799999999996,-0.072693,-0.260284,0.005032,-0.024921000000000002,-0.015562999999999999,-49.369999,-14.68,-31.68,2b
2019-07-12_130421:780,-0.42605600000000005,-0.061005,-0.261322,0.005825,-0.025379,-0.019347,-47.5,-15.06,-32.5,2b
2019-07-12_130421:800,-0.42248500000000005,-0.045745999999999995,-0.266388,0.0062829999999999995,-0.024921000000000002,-0.021849,-47.5,-15.06,-32.5,2b
2019-07-12_130421:820,-0.416901,-0.037108999999999996,-0.267914,0.006375,-0.024005000000000002,-0.024565,-47.5,-15.06,-32.5,2b
2019-07-12_130421:840,-0.41333000000000003,-0.022858,-0.276581,0.0062829999999999995,-0.023150999999999998,-0.028013999999999997,-48.68,-15.75,-32.869999,2b
2019-07-12_130421:860,-0.411804,-0.012695,-0.279633,0.005825,-0.022418,-0.030088999999999998,-48.68,-15.75,-32.869999,2b
2019-07-12_130421:880,-0.416382,-0.001495,-0.281647,0.004635,-0.021197999999999998,-0.02957,-47.5,-16.059998999999998,-34.369999,2b
2019-07-12_130421:900,-0.42453,0.004059,-0.28369099999999997,0.002987,-0.019031,-0.028044,-47.5,-16.059998999999998,-34.369999,2b
2019-07-12_130421:920,-0.421967,0.011169,-0.282654,0.000729,-0.016375999999999998,-0.024901,-47.5,-16.059998999999998,-34.369999,2b
2019-07-12_130421:940,-0.416382,0.012695,-0.285217,-0.001468,-0.014240000000000001,-0.020201,-45.0,-16.870001000000002,-34.869999,2b
2019-07-12_130421:960,-0.40774499999999997,0.014740000000000001,-0.291321,-0.002018,-0.013324,-0.017943,-45.0,-16.870001000000002,-34.869999,2b
2019-07-12_130421:980,-0.40823400000000004,0.017273,-0.296906,-0.0016820000000000001,-0.013385,-0.021178,-43.869999,-18.370001000000002,-34.369999,2b
2019-07-12_130422:000,-0.411285,0.028961,-0.296906,-0.001011,-0.0125,-0.02426,-43.869999,-18.370001000000002,-34.369999,2b
2019-07-12_130422:020,-0.41586300000000004,0.036072,-0.29895,0.000241,-0.011524,-0.023772,-43.869999,-18.370001000000002,-34.369999,2b
2019-07-12_130422:040,-0.41384899999999997,0.041687,-0.29538000000000003,0.00079,-0.00954,-0.021514,-43.5,-18.75,-36.75,2b
2019-07-12_130422:060,-0.410797,0.050323,-0.294373,0.000241,-0.007465,-0.017211,-43.5,-18.75,-36.75,2b
2019-07-12_130422:080,-0.40823400000000004,0.053375,-0.293854,-0.000614,-0.006214,-0.010985,-42.68,-21.0,-36.369999,2b
2019-07-12_130422:100,-0.402161,0.05285599999999999,-0.291321,-0.00159,-0.005573,-0.00479,-42.68,-21.0,-36.369999,2b
2019-07-12_130422:120,-0.408752,0.055908000000000006,-0.29284699999999997,-0.002933,-0.005817,0.0005200000000000001,-42.68,-21.0,-36.369999,2b
2019-07-12_130422:140,-0.412811,0.047791,-0.28875700000000004,-0.004123,-0.005817,0.004732,-42.68,-21.0,-36.369999,2b
2019-07-12_130422:160,-0.41485600000000006,0.043701,-0.28875700000000004,-0.005344,-0.005298,0.006441,-42.68,-21.0,-36.369999,2b
2019-07-12_130422:180,-0.409271,0.042175,-0.28875700000000004,-0.0065650000000000005,-0.00426,0.007997,-42.0,-21.0,-36.369999,2b
2019-07-12_130422:200,-0.40774499999999997,0.036591000000000005,-0.287231,-0.007633,-0.003986,0.011293000000000001,-42.0,-21.0,-36.369999,2b
2019-07-12_130422:220,-0.40316799999999997,0.03302,-0.287231,-0.008609,-0.003833,0.013643,-42.0,-21.0,-36.369999,2b
2019-07-12_130422:240,-0.40316799999999997,0.029968,-0.28875700000000004,-0.009617,-0.004383,0.014894,-42.369999,-21.25,-36.0,2b
2019-07-12_130422:260,-0.404694,0.023895,-0.28369099999999997,-0.009739,-0.004444,0.016267,-42.369999,-21.25,-36.0,2b
2019-07-12_130422:280,-0.404175,0.020844,-0.286224,-0.009922,-0.004321,0.016541999999999998,-43.5,-21.370001000000002,-35.560001,2b
2019-07-12_130422:300,-0.405212,0.016266,-0.28369099999999997,-0.009951999999999999,-0.004229999999999999,0.015931,-43.5,-21.370001000000002,-35.560001,2b
2019-07-12_130422:320,-0.404694,0.014221000000000001,-0.282654,-0.010013,-0.00426,0.016145,-43.5,-21.370001000000002,-35.560001,2b
2019-07-12_130422:340,-0.40774499999999997,0.009125,-0.282654,-0.009525,-0.0045049999999999995,0.016663999999999998,-42.369999,-20.25,-36.75,2b
2019-07-12_130422:360,-0.40774499999999997,0.007111,-0.282654,-0.009525,-0.00484,0.016817,-42.369999,-20.25,-36.75,2b
2019-07-12_130422:380,-0.405212,0.005065999999999999,-0.282654,-0.009342,-0.004961999999999999,0.017396000000000002,-44.18,-20.25,-35.560001,2b
2019-07-12_130422:400,-0.405212,0.001007,-0.28369099999999997,-0.009159,-0.005176,0.018007,-44.18,-20.25,-35.560001,2b
2019-07-12_130422:420,-0.406738,-0.0025329999999999997,-0.28418000000000004,-0.008548,-0.005359,0.017824,-44.18,-20.25,-35.560001,2b
2019-07-12_130422:440,-0.40570100000000003,-0.004059,-0.286224,-0.007877,-0.005573,0.016206,-44.18,-19.870001000000002,-35.560001,2b
2019-07-12_130422:460,-0.407227,-0.005065999999999999,-0.28369099999999997,-0.0069,-0.005359,0.014436000000000001,-44.18,-19.870001000000002,-35.560001,2b
2019-07-12_130422:480,-0.40823400000000004,-0.006072999999999999,-0.286224,-0.006229,-0.00539,0.01288,-44.560001,-19.870001000000002,-35.18,2b
2019-07-12_130422:500,-0.408752,-0.006072999999999999,-0.282654,-0.005558,-0.005115,0.01169,-44.560001,-19.870001000000002,-35.18,2b
2019-07-12_130422:520,-0.404694,-0.006072999999999999,-0.28418000000000004,-0.0051,-0.004901,0.010713,-44.560001,-19.870001000000002,-35.18,2b
2019-07-12_130422:540,-0.404694,-0.005065999999999999,-0.284698,-0.004581,-0.00484,0.010164,-44.18,-19.5,-34.369999,2b
2019-07-12_130422:560,-0.407227,-0.006592,-0.285706,-0.004642,-0.005054,0.009767,-44.18,-19.5,-34.369999,2b
2019-07-12_130422:580,-0.40774499999999997,-0.006072999999999999,-0.285217,-0.004642,-0.005359,0.009431,-45.0,-19.5,-35.560001,2b
2019-07-12_130422:600,-0.411285,-0.006072999999999999,-0.285217,-0.004581,-0.0052369999999999995,0.009126,-45.0,-19.5,-35.560001,2b
2019-07-12_130422:620,-0.411804,-0.007599,-0.284698,-0.004825,-0.00484,0.008790000000000001,-45.0,-19.5,-35.560001,2b
2019-07-12_130422:640,-0.409271,-0.007599,-0.28369099999999997,-0.004764,-0.00426,0.008699,-44.18,-19.059998999999998,-34.869999,2b
2019-07-12_130422:660,-0.410797,-0.008118,-0.284698,-0.004825,-0.003986,0.007997,-44.18,-19.059998999999998,-34.869999,2b
2019-07-12_130422:680,-0.406738,-0.009125,-0.282654,-0.004612,-0.00365,0.00757,-44.560001,-18.75,-34.869999,2b
2019-07-12_130422:700,-0.407227,-0.007111,-0.281647,-0.004398,-0.0037719999999999997,0.007112,-44.560001,-18.75,-34.869999,2b
2019-07-12_130422:720,-0.40368699999999996,-0.007111,-0.283173,-0.004581,-0.004229999999999999,0.007051000000000001,-44.560001,-18.75,-34.869999,2b
2019-07-12_130422:740,-0.40570100000000003,-0.008118,-0.282654,-0.004398,-0.004566,0.007783,-45.0,-18.370001000000002,-35.18,2b
2019-07-12_130422:760,-0.406219,-0.008636,-0.281647,-0.004642,-0.0045049999999999995,0.007661,-45.0,-18.370001000000002,-35.18,2b
2019-07-12_130422:780,-0.406219,-0.008118,-0.28064,-0.004978,-0.004229999999999999,0.006593000000000001,-45.0,-18.75,-34.869999,2b
2019-07-12_130422:800,-0.406738,-0.008118,-0.280121,-0.005222,-0.004383,0.006135,-45.0,-18.75,-34.869999,2b
2019-07-12_130422:820,-0.407227,-0.008636,-0.28064,-0.005344,-0.004657,0.005586,-45.0,-18.75,-34.869999,2b
2019-07-12_130422:840,-0.40823400000000004,-0.009644,-0.28112800000000004,-0.005375,-0.004993,0.004915,-45.369999,-18.75,-35.18,2b
2019-07-12_130422:860,-0.40976,-0.010162000000000001,-0.279114,-0.0052829999999999995,-0.00539,0.004854,-45.369999,-18.75,-35.18,2b
2019-07-12_130422:880,-0.410797,-0.010651,-0.28064,-0.004612,-0.005695,0.004732,-45.68,-17.559998999999998,-35.560001,2b
2019-07-12_130422:900,-0.410278,-0.010651,-0.280121,-0.003788,-0.005878,0.004609,-45.68,-17.559998999999998,-35.560001,2b
2019-07-12_130422:920,-0.41232299999999994,-0.007599,-0.279633,-0.003147,-0.005634,0.005006,-45.68,-17.559998999999998,-35.560001,2b
2019-07-12_130422:940,-0.40976,-0.005065999999999999,-0.278107,-0.002933,-0.005451,0.006196,-45.369999,-18.0,-35.560001,2b
2019-07-12_130422:960,-0.406738,-0.0055850000000000006,-0.279633,-0.003116,-0.005176,0.005983,-45.369999,-18.0,-35.560001,2b
2019-07-12_130422:980,-0.40570100000000003,-0.004547,-0.281647,-0.003849,-0.005298,0.005006,-45.68,-18.0,-36.0,2b
2019-07-12_130423:000,-0.404175,-0.004059,-0.279114,-0.004398,-0.0060609999999999995,0.005983,-45.68,-18.0,-36.0,2b
2019-07-12_130423:020,-0.406738,-0.007599,-0.281647,-0.004703,-0.006336,0.006929,-45.68,-18.0,-36.0,2b
2019-07-12_130423:040,-0.40774499999999997,-0.008118,-0.282654,-0.005497,-0.006488,0.006654,-45.369999,-18.0,-34.369999,2b
2019-07-12_130423:060,-0.410278,-0.007111,-0.282166,-0.006076,-0.006336,0.006776000000000001,-45.369999,-18.0,-34.369999,2b
2019-07-12_130423:080,-0.411285,-0.009644,-0.282166,-0.0067480000000000005,-0.006214,0.007265000000000001,-45.68,-17.25,-36.0,2b
2019-07-12_130423:100,-0.410278,-0.011687999999999999,-0.28112800000000004,-0.007267,-0.005634,0.006776000000000001,-45.68,-17.25,-36.0,2b
2019-07-12_130423:120,-0.410797,-0.012177,-0.282654,-0.00748,-0.005115,0.006257,-45.68,-17.25,-36.0,2b
2019-07-12_130423:140,-0.411804,-0.015228,-0.281647,-0.007145,-0.00484,0.006654,-45.0,-18.059998999999998,-34.0,2b
2019-07-12_130423:160,-0.412811,-0.015747,-0.28112800000000004,-0.006626000000000001,-0.004444,0.006593000000000001,-45.0,-18.059998999999998,-34.0,2b
2019-07-12_130423:180,-0.412811,-0.013702,-0.28064,-0.006229,-0.004229999999999999,0.0067150000000000005,-46.060001,-17.559998999999998,-34.5,2b
2019-07-12_130423:200,-0.410797,-0.012695,-0.279633,-0.005771,-0.003711,0.007326000000000001,-46.060001,-17.559998999999998,-34.5,2b
2019-07-12_130423:220,-0.40823400000000004,-0.011687999999999999,-0.279633,-0.0060149999999999995,-0.00365,0.007265000000000001,-46.060001,-17.559998999999998,-34.5,2b
2019-07-12_130423:240,-0.406738,-0.009644,-0.278595,-0.006504,-0.0035280000000000003,0.007112,-46.060001,-17.370001000000002,-34.369999,2b
2019-07-12_130423:260,-0.407227,-0.010651,-0.278107,-0.006962,-0.003986,0.007722,-46.060001,-17.370001000000002,-34.369999,2b
2019-07-12_130423:280,-0.407227,-0.011169,-0.277588,-0.007297,-0.0045049999999999995,0.007722,-45.369999,-17.68,-34.869999,2b
2019-07-12_130423:300,-0.406219,-0.011687999999999999,-0.278595,-0.007816,-0.004901,0.007265000000000001,-45.369999,-17.68,-34.869999,2b
2019-07-12_130423:320,-0.407227,-0.013702,-0.278595,-0.007633,-0.0055119999999999995,0.007387,-45.369999,-17.68,-34.869999,2b
2019-07-12_130423:340,-0.409271,-0.015747,-0.279114,-0.007297,-0.005725,0.006868000000000001,-45.68,-17.68,-33.68,2b
2019-07-12_130423:360,-0.411285,-0.015747,-0.279633,-0.00687,-0.0055119999999999995,0.006318,-45.68,-17.68,-33.68,2b
2019-07-12_130423:380,-0.411285,-0.015747,-0.279633,-0.006412,-0.005451,0.006135,-45.68,-17.68,-34.369999,2b
2019-07-12_130423:400,-0.412811,-0.016753999999999998,-0.277588,-0.005741,-0.00539,0.005922,-45.68,-17.68,-34.369999,2b
2019-07-12_130423:420,-0.410278,-0.014221000000000001,-0.277588,-0.005497,-0.0052369999999999995,0.005525,-45.68,-17.68,-34.369999,2b
2019-07-12_130423:440,-0.41384899999999997,-0.013702,-0.278107,-0.005497,-0.005298,0.005647,-46.060001,-17.370001000000002,-34.0,2b
2019-07-12_130423:460,-0.408752,-0.014221000000000001,-0.276062,-0.005679999999999999,-0.0052369999999999995,0.005525,-46.060001,-17.370001000000002,-34.0,2b
2019-07-12_130423:480,-0.40774499999999997,-0.012695,-0.279114,-0.005619,-0.005359,0.005647,-46.5,-17.0,-34.369999,2b
2019-07-12_130423:500,-0.40976,-0.014740000000000001,-0.278595,-0.005558,-0.0055119999999999995,0.005586,-46.5,-17.0,-34.369999,2b
2019-07-12_130423:520,-0.40976,-0.013213999999999998,-0.279633,-0.005679999999999999,-0.006,0.006196,-46.5,-17.0,-34.369999,2b
2019-07-12_130423:540,-0.411804,-0.015228,-0.28064,-0.005771,-0.005634,0.0071730000000000006,-45.369999,-17.370001000000002,-34.869999,2b
2019-07-12_130423:560,-0.410278,-0.015228,-0.278595,-0.005832,-0.0055119999999999995,0.0067150000000000005,-45.369999,-17.370001000000002,-34.869999,2b
2019-07-12_130423:580,-0.410278,-0.015228,-0.280121,-0.006168,-0.005054,0.005739,-46.5,-17.68,-34.869999,2b
2019-07-12_130423:600,-0.40976,-0.015747,-0.278595,-0.006076,-0.005115,0.005342,-46.5,-17.68,-34.869999,2b
2019-07-12_130423:620,-0.410797,-0.016753999999999998,-0.280121,-0.005954,-0.004993,0.005464,-46.5,-17.68,-34.869999,2b
2019-07-12_130423:640,-0.411804,-0.016753999999999998,-0.277588,-0.005679999999999999,-0.005176,0.005403,-46.869999,-17.68,-34.869999,2b
2019-07-12_130423:660,-0.410797,-0.015747,-0.279114,-0.005375,-0.005176,0.005464,-46.869999,-17.68,-34.869999,2b
2019-07-12_130423:680,-0.41384899999999997,-0.015747,-0.277588,-0.005222,-0.005298,0.005586,-46.5,-17.68,-34.0,2b
2019-07-12_130423:700,-0.411804,-0.014740000000000001,-0.277069,-0.0052829999999999995,-0.004993,0.005525,-46.5,-17.68,-34.0,2b
2019-07-12_130423:720,-0.412811,-0.013702,-0.277069,-0.005436,-0.004961999999999999,0.006074,-46.5,-17.68,-34.0,2b
2019-07-12_130423:740,-0.411804,-0.015747,-0.276581,-0.005832,-0.004566,0.006318,-46.5,-16.559998999999998,-32.869999,2b
2019-07-12_130423:760,-0.40823400000000004,-0.016753999999999998,-0.275543,-0.006076,-0.004566,0.005311,-46.5,-16.559998999999998,-32.869999,2b
2019-07-12_130423:780,-0.40774499999999997,-0.017273,-0.276581,-0.006229,-0.004901,0.004518,-45.68,-17.68,-33.18,2b
2019-07-12_130423:800,-0.408752,-0.018799,-0.275055,-0.005771,-0.0055119999999999995,0.005525,-45.68,-17.68,-33.18,2b
2019-07-12_130423:820,-0.410797,-0.01828,-0.277069,-0.005344,-0.005695,0.0058,-45.68,-17.68,-33.18,2b
2019-07-12_130423:840,-0.412811,-0.01828,-0.277588,-0.0051,-0.005817,0.005128,-46.5,-17.0,-33.68,2b
2019-07-12_130423:860,-0.412811,-0.017273,-0.276062,-0.004886,-0.005634,0.004457,-46.5,-17.0,-33.68,2b
2019-07-12_130423:880,-0.412811,-0.017792,-0.276581,-0.004612,-0.0055119999999999995,0.004457,-46.869999,-17.370001000000002,-34.369999,2b
2019-07-12_130423:900,-0.412811,-0.017792,-0.276581,-0.004459,-0.0055119999999999995,0.004091,-46.869999,-17.370001000000002,-34.369999,2b
2019-07-12_130423:920,-0.411804,-0.017792,-0.277069,-0.004275999999999999,-0.0052369999999999995,0.004335,-46.869999,-17.370001000000002,-34.369999,2b
2019-07-12_130423:940,-0.40976,-0.017273,-0.276581,-0.004001,-0.005176,0.004732,-46.060001,-18.059998999999998,-32.869999,2b
2019-07-12_130423:960,-0.411285,-0.015228,-0.276581,-0.004123,-0.005359,0.004915,-46.060001,-18.059998999999998,-32.869999,2b
2019-07-12_130423:980,-0.411285,-0.015747,-0.275543,-0.004459,-0.005298,0.004945000000000001,-47.18,-17.0,-34.0,2b
2019-07-12_130424:000,-0.41333000000000003,-0.014221000000000001,-0.276062,-0.004886,-0.005298,0.004945000000000001,-47.18,-17.0,-34.0,2b
2019-07-12_130424:020,-0.41333000000000003,-0.015747,-0.276581,-0.0052829999999999995,-0.0052369999999999995,0.004396,-47.18,-17.0,-34.0,2b
2019-07-12_130424:040,-0.410797,-0.017792,-0.275055,-0.005619,-0.004901,0.004213000000000001,-46.869999,-16.559998999999998,-34.869999,2b
2019-07-12_130424:060,-0.411285,-0.017792,-0.275543,-0.005497,-0.005176,0.004091,-46.869999,-16.559998999999998,-34.869999,2b
2019-07-12_130424:080,-0.410278,-0.018799,-0.276581,-0.0051,-0.0055119999999999995,0.0038469999999999997,-46.869999,-17.370001000000002,-33.18,2b
2019-07-12_130424:100,-0.410797,-0.018799,-0.274536,-0.004612,-0.005725,0.004213000000000001,-46.869999,-17.370001000000002,-33.18,2b
2019-07-12_130424:120,-0.41232299999999994,-0.018799,-0.277069,-0.004062,-0.005725,0.004915,-46.869999,-17.370001000000002,-33.18,2b
2019-07-12_130424:140,-0.412811,-0.018799,-0.276581,-0.003544,-0.005725,0.004793,-47.18,-16.559998999999998,-34.0,2b
2019-07-12_130424:160,-0.412811,-0.016753999999999998,-0.277069,-0.003208,-0.0055119999999999995,0.004518,-47.18,-16.559998999999998,-34.0,2b
2019-07-12_130424:180,-0.41384899999999997,-0.015228,-0.278107,-0.003208,-0.005634,0.004335,-46.060001,-17.68,-34.869999,2b
2019-07-12_130424:200,-0.414337,-0.014221000000000001,-0.276062,-0.0036049999999999997,-0.005176,0.004152,-46.060001,-17.68,-34.869999,2b
2019-07-12_130424:220,-0.41384899999999997,-0.015228,-0.275543,-0.004001,-0.004657,0.004091,-46.060001,-17.68,-34.869999,2b
2019-07-12_130424:240,-0.412811,-0.014221000000000001,-0.276062,-0.004459,-0.004718,0.004335,-47.5,-17.0,-34.5,2b
2019-07-12_130424:260,-0.41333000000000003,-0.016753999999999998,-0.275543,-0.004764,-0.00484,0.004945000000000001,-47.5,-17.0,-34.5,2b
2019-07-12_130424:280,-0.41384899999999997,-0.015747,-0.275055,-0.004978,-0.004779,0.005189,-47.18,-17.370001000000002,-33.68,2b
2019-07-12_130424:300,-0.40976,-0.019318000000000002,-0.274017,-0.005436,-0.004596,0.005067,-47.18,-17.370001000000002,-33.68,2b
2019-07-12_130424:320,-0.41232299999999994,-0.019806,-0.275055,-0.004886,-0.004779,0.004609,-47.18,-17.370001000000002,-33.68,2b
2019-07-12_130424:340,-0.41232299999999994,-0.018799,-0.275543,-0.004703,-0.004961999999999999,0.004518,-46.5,-17.370001000000002,-33.68,2b
2019-07-12_130424:360,-0.41232299999999994,-0.018799,-0.274536,-0.004062,-0.004961999999999999,0.005342,-46.5,-17.370001000000002,-33.68,2b
2019-07-12_130424:380,-0.41232299999999994,-0.019318000000000002,-0.275055,-0.0037270000000000003,-0.004961999999999999,0.005525,-46.5,-16.18,-32.869999,2b
2019-07-12_130424:400,-0.41232299999999994,-0.016266,-0.273529,-0.003849,-0.0045049999999999995,0.005006,-46.5,-16.18,-32.869999,2b
2019-07-12_130424:420,-0.411804,-0.015747,-0.273529,-0.004062,-0.004566,0.004548,-46.5,-16.18,-32.869999,2b
2019-07-12_130424:440,-0.41232299999999994,-0.017273,-0.274017,-0.004337,-0.004596,0.004518,-46.060001,-16.559998999999998,-34.0,2b
2019-07-12_130424:460,-0.41333000000000003,-0.01828,-0.272491,-0.004520000000000001,-0.004993,0.004518,-46.060001,-16.559998999999998,-34.0,2b
2019-07-12_130424:480,-0.414337,-0.017792,-0.274017,-0.004642,-0.004718,0.004854,-46.869999,-17.0,-33.25,2b
2019-07-12_130424:500,-0.41586300000000004,-0.019318000000000002,-0.273529,-0.004612,-0.004657,0.00525,-46.869999,-17.0,-33.25,2b
2019-07-12_130424:520,-0.416382,-0.019318000000000002,-0.274017,-0.004459,-0.004383,0.004732,-46.869999,-17.0,-33.25,2b
2019-07-12_130424:540,-0.41384899999999997,-0.017792,-0.27301,-0.004581,-0.004444,0.004945000000000001,-46.060001,-17.0,-33.18,2b
2019-07-12_130424:560,-0.412811,-0.01828,-0.270966,-0.004612,-0.004444,0.0058,-46.060001,-17.0,-33.18,2b
2019-07-12_130424:580,-0.412811,-0.021851,-0.272003,-0.004703,-0.004321,0.005586,-46.5,-17.370001000000002,-34.369999,2b
2019-07-12_130424:600,-0.41232299999999994,-0.020325,-0.272491,-0.004886,-0.0045049999999999995,0.004091,-46.5,-17.370001000000002,-34.369999,2b
2019-07-12_130424:620,-0.411804,-0.019318000000000002,-0.272491,-0.004581,-0.005176,0.004548,-46.5,-17.370001000000002,-34.369999,2b
2019-07-12_130424:640,-0.41384899999999997,-0.020844,-0.274536,-0.004459,-0.005176,0.005861,-47.18,-17.68,-32.5,2b
2019-07-12_130424:660,-0.416382,-0.021332,-0.272491,-0.004520000000000001,-0.004901,0.005403,-47.18,-17.68,-32.5,2b
2019-07-12_130424:680,-0.416901,-0.019318000000000002,-0.275055,-0.004520000000000001,-0.00426,0.004732,-46.5,-16.559998999999998,-34.0,2b
2019-07-12_130424:700,-0.416382,-0.020844,-0.275055,-0.004581,-0.004229999999999999,0.004854,-46.5,-16.559998999999998,-34.0,2b
2019-07-12_130424:720,-0.416382,-0.020844,-0.27301,-0.004581,-0.00365,0.004793,-46.5,-16.559998999999998,-34.0,2b
2019-07-12_130424:740,-0.417389,-0.019806,-0.274017,-0.004398,-0.00365,0.004793,-46.5,-17.68,-32.869999,2b
2019-07-12_130424:760,-0.416382,-0.020325,-0.274017,-0.0042450000000000005,-0.0032530000000000002,0.004945000000000001,-46.5,-17.68,-32.869999,2b
2019-07-12_130424:780,-0.416382,-0.020844,-0.274536,-0.0042450000000000005,-0.002979,0.004945000000000001,-47.869999,-16.18,-32.869999,2b
2019-07-12_130424:800,-0.414337,-0.020325,-0.274536,-0.0042450000000000005,-0.002857,0.005006,-47.869999,-16.18,-32.869999,2b
2019-07-12_130424:820,-0.414337,-0.019806,-0.276062,-0.004123,-0.002582,0.005067,-47.869999,-16.18,-32.869999,2b
2019-07-12_130424:840,-0.416382,-0.021332,-0.275543,-0.0042450000000000005,-0.002124,0.004915,-46.869999,-17.0,-32.5,2b
2019-07-12_130424:860,-0.41943400000000003,-0.016753999999999998,-0.275055,-0.004886,-0.001117,0.0058,-46.869999,-17.0,-32.5,2b
2019-07-12_130424:880,-0.425537,-0.011169,-0.278107,-0.006504,-8e-05,0.007661,-47.18,-16.18,-33.18,2b
2019-07-12_130424:900,-0.432159,-0.011169,-0.278107,-0.008732,0.001843,0.009981,-47.18,-16.18,-33.18,2b
2019-07-12_130424:920,-0.42758199999999996,-0.015747,-0.271484,-0.009922,0.00346,0.010164,-47.18,-16.18,-33.18,2b
2019-07-12_130424:940,-0.42147799999999996,-0.021332,-0.270477,-0.010409999999999999,0.00404,0.009035,-47.5,-16.559998999999998,-32.0,2b
2019-07-12_130424:960,-0.416901,-0.025421,-0.26944,-0.009525,0.004315,0.0067150000000000005,-47.5,-16.559998999999998,-32.0,2b
2019-07-12_130424:980,-0.41842700000000005,-0.028442000000000002,-0.267914,-0.008884,0.004254,0.006532,-48.68,-17.370001000000002,-31.25,2b
2019-07-12_130425:000,-0.423492,-0.030487,-0.262848,-0.005832,0.004651,0.006868000000000001,-48.68,-17.370001000000002,-31.25,2b
2019-07-12_130425:020,-0.425537,-0.029968,-0.261322,-0.003879,0.005566,0.006837,-48.68,-17.370001000000002,-31.25,2b
2019-07-12_130425:040,-0.42605600000000005,-0.026917,-0.260803,-0.003147,0.006177,0.006837,-48.68,-17.0,-31.68,2b
2019-07-12_130425:060,-0.420959,-0.024902,-0.25521900000000003,-0.0016820000000000001,0.007306,0.006929,-48.68,-17.0,-31.68,2b
2019-07-12_130425:080,-0.421967,-0.022369,-0.254211,-0.001407,0.007489,0.0069900000000000006,-49.0,-16.559998999999998,-31.25,2b
2019-07-12_130425:100,-0.42453,-0.021332,-0.25216700000000003,-0.001621,0.007916,0.007905,-49.0,-16.559998999999998,-31.25,2b
2019-07-12_130425:120,-0.43011499999999997,-0.019806,-0.24758899999999998,-0.002659,0.008313,0.008394,-49.0,-16.559998999999998,-31.25,2b
2019-07-12_130425:140,-0.432159,-0.019318000000000002,-0.244019,-0.002994,0.008496,0.008577,-49.369999,-16.18,-30.5,2b
2019-07-12_130425:160,-0.438751,-0.021851,-0.23995999999999998,-0.004123,0.009503,0.008912,-49.369999,-16.18,-30.5,2b
2019-07-12_130425:180,-0.43927,-0.024902,-0.237427,-0.004337,0.009839,0.008729,-49.75,-16.559998999999998,-29.75,2b
2019-07-12_130425:200,-0.437225,-0.026917,-0.233856,-0.004337,0.010083,0.008699,-49.75,-16.559998999999998,-29.75,2b
2019-07-12_130425:220,-0.43621800000000005,-0.026427999999999997,-0.231323,-0.0042450000000000005,0.0099,0.009858,-49.75,-16.559998999999998,-29.75,2b
2019-07-12_130425:240,-0.433655,-0.027954000000000003,-0.228271,-0.00394,0.009839,0.010713,-50.18,-15.87,-29.75,2b
2019-07-12_130425:260,-0.431641,-0.031006,-0.224701,-0.003483,0.009442,0.01169,-50.18,-15.87,-29.75,2b
2019-07-12_130425:280,-0.431122,-0.032532,-0.22216799999999998,-0.0033909999999999995,0.00935,0.011354000000000001,-50.18,-15.87,-29.75,2b
2019-07-12_130425:300,-0.431641,-0.03302,-0.220123,-0.003116,0.008771,0.010773999999999999,-50.869999,-14.75,-28.18,2b
2019-07-12_130425:320,-0.434692,-0.03302,-0.217072,-0.002872,0.008556999999999999,0.010713,-50.869999,-14.75,-28.18,2b
2019-07-12_130425:340,-0.43774399999999997,-0.036072,-0.217072,-0.00275,0.008282,0.010499,-50.869999,-15.5,-27.5,2b
2019-07-12_130425:360,-0.439758,-0.036072,-0.210968,-0.0027199999999999998,0.008282,0.01111,-50.869999,-15.5,-27.5,2b
2019-07-12_130425:380,-0.43670699999999996,-0.039124,-0.20944200000000002,-0.002659,0.007977,0.011293000000000001,-51.25,-15.5,-28.559998999999998,2b
2019-07-12_130425:400,-0.433655,-0.041687,-0.20944200000000002,-0.0027199999999999998,0.0069700000000000005,0.01056,-51.25,-15.5,-28.559998999999998,2b
2019-07-12_130425:420,-0.433167,-0.042694,-0.20944200000000002,-0.002536,0.005566,0.009981,-51.25,-15.5,-28.559998999999998,2b
2019-07-12_130425:440,-0.441284,-0.044219999999999995,-0.207916,-0.002536,0.005383,0.010042,-51.68,-14.0,-26.5,2b
2019-07-12_130425:460,-0.443329,-0.046752999999999996,-0.203369,-0.002079,0.005902,0.010164,-51.68,-14.0,-26.5,2b
2019-07-12_130425:480,-0.43927,-0.051330999999999995,-0.204376,-0.001621,0.006024,0.009858,-51.68,-14.0,-26.5,2b
2019-07-12_130425:500,-0.43927,-0.051330999999999995,-0.206909,-0.001285,0.005169,0.009858,-53.18,-14.0,-25.68,2b
2019-07-12_130425:520,-0.448425,-0.053375,-0.20233199999999998,-0.000889,0.005261,0.010896,-53.18,-14.0,-25.68,2b
2019-07-12_130425:540,-0.45553599999999994,-0.056915,-0.197266,-0.000217,0.005963,0.011293000000000001,-53.18,-13.25,-25.370001000000002,2b
2019-07-12_130425:560,-0.459595,-0.063019,-0.18811,0.000393,0.008556999999999999,0.00937,-53.18,-13.25,-25.370001000000002,2b
2019-07-12_130425:580,-0.45605500000000004,-0.067596,-0.187592,0.0015220000000000001,0.011090000000000001,0.006654,-52.75,-12.5,-23.5,2b
2019-07-12_130425:600,-0.447906,-0.076263,-0.18249500000000002,0.004116,0.012341,0.004671,-52.75,-12.5,-23.5,2b
2019-07-12_130425:620,-0.44995100000000005,-0.081329,-0.175903,0.008754999999999999,0.01228,6.2e-05,-52.75,-12.5,-23.5,2b
2019-07-12_130425:640,-0.45196499999999995,-0.07775900000000001,-0.168793,0.010067,0.012738,-0.0016769999999999999,-53.869999,-11.75,-23.870001000000002,2b
2019-07-12_130425:660,-0.45043900000000003,-0.069122,-0.157074,0.0126,0.014081,-0.0042710000000000005,-53.869999,-11.75,-23.870001000000002,2b
2019-07-12_130425:680,-0.454529,-0.063538,-0.155548,0.012997,0.014203,-0.004149,-53.869999,-11.75,-23.870001000000002,2b
2019-07-12_130425:700,-0.46060200000000007,-0.056915,-0.149475,0.011868,0.013287,-0.003722,-54.18,-12.18,-24.25,2b
2019-07-12_130425:720,-0.459595,-0.050842,-0.14386,0.011196,0.01289,-0.003264,-54.18,-12.18,-24.25,2b
2019-07-12_130425:740,-0.46316499999999994,-0.050323,-0.138275,0.009212999999999999,0.011761,-0.002593,-54.560001,-12.87,-22.25,2b
2019-07-12_130425:760,-0.466217,-0.051330999999999995,-0.135223,0.006954999999999999,0.009564,-0.0036609999999999998,-54.560001,-12.87,-22.25,2b
2019-07-12_130425:780,-0.465179,-0.047272,-0.134705,0.004818,0.00639,-0.0051259999999999995,-54.560001,-12.87,-22.25,2b
2019-07-12_130425:800,-0.45907600000000004,-0.048279,-0.139801,0.002957,0.001721,-0.0054,-54.560001,-13.25,-22.25,2b
2019-07-12_130425:820,-0.466217,-0.046752999999999996,-0.142334,0.0014609999999999998,-0.004108,-0.0061329999999999996,-54.560001,-13.25,-22.25,2b
2019-07-12_130425:840,-0.46926899999999994,-0.046752999999999996,-0.144897,5.7999999999999994e-05,-0.008594,-0.007445,-54.560001,-13.25,-23.059998999999998,2b
2019-07-12_130425:860,-0.47079499999999996,-0.044219999999999995,-0.148956,-0.0008269999999999999,-0.01192,-0.007994,-54.560001,-13.25,-23.059998999999998,2b
2019-07-12_130425:880,-0.475861,-0.044739,-0.154022,-0.001407,-0.016101,-0.008695999999999999,-54.560001,-13.25,-23.059998999999998,2b
2019-07-12_130425:900,-0.494171,-0.041687,-0.170807,-0.0022010000000000003,-0.021686,-0.008116,-54.560001,-12.87,-22.18,2b
2019-07-12_130425:920,-0.496704,-0.039124,-0.18249500000000002,-0.003055,-0.029498000000000003,-0.005797,-54.560001,-12.87,-22.18,2b
2019-07-12_130425:940,-0.48300200000000004,-0.038635,-0.17690999999999998,-0.003544,-0.032611,-0.00302,-53.869999,-14.37,-23.0,2b
2019-07-12_130425:960,-0.484009,-0.038116000000000004,-0.17337,-0.005039,-0.030506000000000002,-0.002532,-53.869999,-14.37,-23.0,2b
2019-07-12_130425:980,-0.470276,-0.037108999999999996,-0.18454,-0.006351,-0.025043,-0.002013,-53.869999,-14.37,-23.0,2b
2019-07-12_130426:000,-0.461121,-0.040649,-0.192688,-0.007084,-0.021747,-0.0005480000000000001,-53.369999,-14.75,-24.18,2b
2019-07-12_130426:020,-0.44891400000000004,-0.041687,-0.206909,-0.007267,-0.022266,-0.000334,-53.369999,-14.75,-24.18,2b
2019-07-12_130426:040,-0.44384799999999996,-0.042694,-0.21048000000000003,-0.007418999999999999,-0.024799,-0.0016769999999999999,-53.060001,-14.37,-23.75,2b
2019-07-12_130426:060,-0.447906,-0.039642000000000004,-0.21249400000000002,-0.00687,-0.026111000000000002,-0.0036,-53.060001,-14.37,-23.75,2b
2019-07-12_130426:080,-0.452484,-0.037108999999999996,-0.21453899999999998,-0.0064730000000000005,-0.02486,-0.004912,-53.060001,-14.37,-23.75,2b
2019-07-12_130426:100,-0.45196499999999995,-0.038635,-0.21606399999999998,-0.0061070000000000004,-0.021808,-0.0063159999999999996,-51.560001,-15.18,-25.68,2b
2019-07-12_130426:120,-0.44638100000000003,-0.038635,-0.22164899999999998,-0.0051,-0.018878,-0.008237999999999999,-51.560001,-15.18,-25.68,2b
2019-07-12_130426:140,-0.445862,-0.034058,-0.225739,-0.003849,-0.017353,-0.009703,-52.25,-15.87,-25.68,2b
2019-07-12_130426:160,-0.448425,-0.029968,-0.224701,-0.002262,-0.016101,-0.010709999999999999,-52.25,-15.87,-25.68,2b
2019-07-12_130426:180,-0.457581,-0.021851,-0.220642,-0.00095,-0.013965,-0.011045999999999999,-52.25,-15.87,-25.68,2b
2019-07-12_130426:200,-0.462128,-0.016753999999999998,-0.216583,0.000302,-0.011249,-0.010893,-50.75,-15.87,-27.370001000000002,2b
2019-07-12_130426:220,-0.46875,-0.009644,-0.20944200000000002,0.00079,-0.007343000000000001,-0.0101,-50.75,-15.87,-27.370001000000002,2b
2019-07-12_130426:240,-0.46823100000000006,-0.005065999999999999,-0.20538299999999998,0.000851,-0.004321,-0.008116,-51.560001,-17.0,-26.5,2b
2019-07-12_130426:260,-0.461121,0.0,-0.198273,0.000851,-0.002002,-0.006652,-51.560001,-17.0,-26.5,2b
2019-07-12_130426:280,-0.45654300000000003,0.004059,-0.195221,-0.000156,-0.000781,-0.005248,-51.560001,-17.0,-26.5,2b
2019-07-12_130426:300,-0.444855,0.005065999999999999,-0.190125,-0.0013460000000000002,7.3e-05,-0.004058,-50.75,-17.370001000000002,-27.370001000000002,2b
2019-07-12_130426:320,-0.441803,0.007599,-0.187592,-0.002811,-0.0008119999999999999,-0.004058,-50.75,-17.370001000000002,-27.370001000000002,2b
2019-07-12_130426:340,-0.430634,0.012177,-0.186584,-0.004825,-0.002582,-0.003722,-50.369999,-18.5,-27.68,2b
2019-07-12_130426:360,-0.423492,0.012177,-0.187073,-0.0067480000000000005,-0.005756,-0.002196,-50.369999,-18.5,-27.68,2b
2019-07-12_130426:380,-0.42147799999999996,0.012177,-0.189636,-0.008884,-0.009509,-0.000762,-50.369999,-18.5,-27.68,2b
2019-07-12_130426:400,-0.425537,0.011687999999999999,-0.192688,-0.011081,-0.012988,3.2e-05,-50.75,-18.059998999999998,-27.0,2b
2019-07-12_130426:420,-0.43518100000000004,0.009125,-0.192169,-0.012790000000000001,-0.015155000000000002,0.000795,-50.75,-18.059998999999998,-27.0,2b
2019-07-12_130426:440,-0.440796,0.006072999999999999,-0.19622799999999999,-0.014072,-0.016498,0.0017100000000000001,-49.68,-18.870001000000002,-26.870001000000002,2b
2019-07-12_130426:460,-0.448425,0.0055850000000000006,-0.199799,-0.01511,-0.017505,0.001924,-49.68,-18.870001000000002,-26.870001000000002,2b
2019-07-12_130426:480,-0.451477,0.004059,-0.20285,-0.015597999999999999,-0.018238,0.001832,-49.68,-18.870001000000002,-26.870001000000002,2b
2019-07-12_130426:500,-0.453003,0.006592,-0.20742800000000003,-0.015781,-0.019214,0.0016489999999999999,-50.060001,-18.870001000000002,-26.870001000000002,2b
2019-07-12_130426:520,-0.45605500000000004,0.006072999999999999,-0.20843499999999998,-0.015659,-0.019428,0.00229,-50.060001,-18.870001000000002,-26.870001000000002,2b
2019-07-12_130426:540,-0.45553599999999994,0.006592,-0.21249400000000002,-0.015323,-0.020221,0.003511,-48.869999,-18.870001000000002,-27.370001000000002,2b
2019-07-12_130426:560,-0.455017,0.006072999999999999,-0.21554600000000002,-0.014865999999999999,-0.020465,0.004854,-48.869999,-18.870001000000002,-27.370001000000002,2b
2019-07-12_130426:580,-0.453491,0.006592,-0.220123,-0.014041999999999999,-0.020221,0.005861,-48.869999,-18.870001000000002,-27.370001000000002,2b
2019-07-12_130426:600,-0.45043900000000003,0.005065999999999999,-0.223175,-0.012851,-0.019824,0.006470999999999999,-48.560001,-19.18,-28.870001000000002,2b
2019-07-12_130426:620,-0.445862,0.006072999999999999,-0.22521999999999998,-0.011814,-0.019763,0.007387,-48.560001,-19.18,-28.870001000000002,2b
2019-07-12_130426:640,-0.44433599999999995,0.005065999999999999,-0.228271,-0.010532,-0.01955,0.008058,-48.18,-18.870001000000002,-29.25,2b
2019-07-12_130426:660,-0.438751,0.006592,-0.22927899999999998,-0.009342,-0.019428,0.008973,-48.18,-18.870001000000002,-29.25,2b
2019-07-12_130426:680,-0.434174,0.0055850000000000006,-0.23284899999999997,-0.008487,-0.019214,0.00937,-48.18,-18.870001000000002,-29.25,2b
2019-07-12_130426:700,-0.43518100000000004,0.006072999999999999,-0.23791500000000002,-0.007816,-0.019733,0.009309,-48.869999,-20.68,-30.059998999999998,2b
2019-07-12_130426:720,-0.441284,0.006592,-0.23995999999999998,-0.007023000000000001,-0.020069,0.008851000000000001,-48.869999,-20.68,-30.059998999999998,2b
2019-07-12_130426:740,-0.448425,0.006592,-0.239441,-0.006687,-0.019733,0.008302,-48.68,-19.559998999999998,-30.5,2b
2019-07-12_130426:760,-0.447906,0.0055850000000000006,-0.239441,-0.006412,-0.018421,0.007905,-48.68,-19.559998999999998,-30.5,2b
2019-07-12_130426:780,-0.43927,0.0055850000000000006,-0.242493,-0.0064730000000000005,-0.017016999999999997,0.007965999999999999,-48.68,-19.559998999999998,-30.5,2b
2019-07-12_130426:800,-0.43823199999999995,0.0055850000000000006,-0.245544,-0.006504,-0.016284,0.008729,-48.25,-19.18,-30.5,2b
2019-07-12_130426:820,-0.42858900000000005,0.002014,-0.24453699999999998,-0.006809,-0.015581999999999999,0.009858,-48.25,-19.18,-30.5,2b
2019-07-12_130426:840,-0.42453,0.001007,-0.246063,-0.006809,-0.015581999999999999,0.010652,-47.869999,-19.18,-30.5,2b
2019-07-12_130426:860,-0.41995200000000005,-0.001007,-0.251648,-0.006809,-0.015766,0.010713,-47.869999,-19.18,-30.5,2b
2019-07-12_130426:880,-0.418915,-0.004059,-0.2547,-0.0069,-0.016834000000000002,0.010255,-47.869999,-19.18,-30.5,2b
2019-07-12_130426:900,-0.420959,-0.006592,-0.257751,-0.006687,-0.018146000000000002,0.010042,-47.75,-19.18,-31.25,2b
2019-07-12_130426:920,-0.423004,-0.007599,-0.259796,-0.00629,-0.019031,0.009523,-47.75,-19.18,-31.25,2b
2019-07-12_130426:940,-0.42401099999999997,-0.008118,-0.260803,-0.005771,-0.018878,0.008454999999999999,-47.75,-20.0,-33.25,2b
2019-07-12_130426:960,-0.42605600000000005,-0.008636,-0.264374,-0.005344,-0.018359999999999998,0.0071730000000000006,-47.75,-20.0,-33.25,2b
2019-07-12_130426:980,-0.425537,-0.007599,-0.266907,-0.004612,-0.017230000000000002,0.005342,-47.75,-20.0,-33.25,2b
2019-07-12_130427:000,-0.425018,-0.006072999999999999,-0.268433,-0.0042450000000000005,-0.016345,0.0034189999999999997,-47.18,-18.870001000000002,-31.68,2b
2019-07-12_130427:020,-0.41842700000000005,-0.0035399999999999997,-0.270966,-0.004001,-0.015581999999999999,0.002229,-47.18,-18.870001000000002,-31.68,2b
2019-07-12_130427:040,-0.41232299999999994,-0.001495,-0.27301,-0.004184,-0.015094,0.0025039999999999997,-48.18,-18.870001000000002,-32.5,2b
2019-07-12_130427:060,-0.40774499999999997,-0.000488,-0.275055,-0.0042450000000000005,-0.014819999999999998,0.003297,-48.18,-18.870001000000002,-32.5,2b
2019-07-12_130427:080,-0.407227,0.000488,-0.277069,-0.004764,-0.015094,0.004182,-48.18,-18.870001000000002,-32.5,2b
2019-07-12_130427:100,-0.407227,-0.001495,-0.28112800000000004,-0.0052829999999999995,-0.015491,0.005464,-47.060001,-19.18,-31.25,2b
2019-07-12_130427:120,-0.409271,-0.0030210000000000002,-0.28112800000000004,-0.005619,-0.015766,0.004915,-47.060001,-19.18,-31.25,2b
2019-07-12_130427:140,-0.416382,-0.0025329999999999997,-0.285217,-0.005619,-0.015766,0.003511,-46.75,-19.18,-33.68,2b
2019-07-12_130427:160,-0.41995200000000005,-0.002014,-0.284698,-0.0052829999999999995,-0.015491,0.002839,-46.75,-19.18,-33.68,2b
2019-07-12_130427:180,-0.42248500000000005,-0.002014,-0.28674299999999997,-0.004612,-0.014118,0.002321,-46.75,-19.18,-33.68,2b
2019-07-12_130427:200,-0.41995200000000005,0.0,-0.28674299999999997,-0.004337,-0.012836000000000002,0.0019850000000000002,-46.369999,-19.18,-34.0,2b
2019-07-12_130427:220,-0.416382,0.000488,-0.28674299999999997,-0.003788,-0.010974,0.002229,-46.369999,-19.18,-34.0,2b
2019-07-12_130427:240,-0.414337,0.0030210000000000002,-0.287231,-0.003849,-0.009113,0.003358,-44.869999,-19.18,-34.5,2b
2019-07-12_130427:260,-0.412811,0.0030210000000000002,-0.285217,-0.003452,-0.007678,0.004915,-44.869999,-19.18,-34.5,2b
2019-07-12_130427:280,-0.408752,0.0025329999999999997,-0.28674299999999997,-0.0036049999999999997,-0.006945999999999999,0.005739,-44.869999,-19.18,-34.5,2b
2019-07-12_130427:300,-0.410797,0.0035399999999999997,-0.286224,-0.004001,-0.0066099999999999996,0.004915,-44.5,-18.870001000000002,-34.0,2b
2019-07-12_130427:320,-0.41333000000000003,0.005065999999999999,-0.282654,-0.004520000000000001,-0.006548999999999999,0.004396,-44.5,-18.870001000000002,-34.0,2b
2019-07-12_130427:340,-0.417908,0.006072999999999999,-0.28064,-0.004886,-0.006275,0.005067,-45.560001,-18.870001000000002,-35.560001,2b
2019-07-12_130427:360,-0.417908,0.0025329999999999997,-0.277588,-0.005619,-0.004993,0.005525,-45.560001,-18.870001000000002,-35.560001,2b
2019-07-12_130427:380,-0.416382,0.002014,-0.276581,-0.006412,-0.004229999999999999,0.005342,-45.560001,-18.870001000000002,-35.560001,2b
2019-07-12_130427:400,-0.409271,0.002014,-0.274017,-0.006809,-0.003711,0.005586,-44.869999,-19.559998999999998,-34.0,2b
2019-07-12_130427:420,-0.40368699999999996,0.001007,-0.272003,-0.007145,-0.0038640000000000002,0.005922,-44.869999,-19.559998999999998,-34.0,2b
2019-07-12_130427:440,-0.40011599999999997,-0.000488,-0.274017,-0.007206000000000001,-0.005054,0.006196,-45.560001,-19.18,-34.369999,2b
2019-07-12_130427:460,-0.398071,0.000488,-0.272491,-0.006809,-0.006458,0.0069900000000000006,-45.560001,-19.18,-34.369999,2b
2019-07-12_130427:480,-0.398071,-0.001495,-0.277069,-0.006412,-0.007862000000000001,0.008119,-45.560001,-19.18,-34.369999,2b
2019-07-12_130427:500,-0.402161,-0.0035399999999999997,-0.28064,-0.005619,-0.009387000000000001,0.008729,-45.560001,-18.870001000000002,-34.369999,2b
2019-07-12_130427:520,-0.41586300000000004,-0.0030210000000000002,-0.281647,-0.0051,-0.010333,0.008333,-45.560001,-18.870001000000002,-34.369999,2b
2019-07-12_130427:540,-0.41995200000000005,-0.002014,-0.281647,-0.004612,-0.010333,0.008241,-46.0,-19.18,-33.68,2b
2019-07-12_130427:560,-0.41842700000000005,0.000488,-0.281647,-0.004825,-0.009387000000000001,0.008851000000000001,-46.0,-19.18,-33.68,2b
2019-07-12_130427:580,-0.41333000000000003,-0.001007,-0.284698,-0.005222,-0.008014,0.009706000000000001,-46.0,-19.18,-33.68,2b
2019-07-12_130427:600,-0.405212,-0.002014,-0.286224,-0.005893,-0.007465,0.009767,-45.25,-18.5,-34.0,2b
2019-07-12_130427:620,-0.402161,-0.005065999999999999,-0.285217,-0.0067480000000000005,-0.007587000000000001,0.00992,-45.25,-18.5,-34.0,2b
2019-07-12_130427:640,-0.40368699999999996,-0.008636,-0.28775,-0.006809,-0.008075,0.00992,-44.869999,-18.5,-35.18,2b
2019-07-12_130427:660,-0.40774499999999997,-0.009125,-0.288269,-0.0065650000000000005,-0.008655,0.009096,-44.869999,-18.5,-35.18,2b
2019-07-12_130427:680,-0.40823400000000004,-0.007599,-0.28875700000000004,-0.006504,-0.008594,0.009645,-44.869999,-18.5,-35.18,2b
2019-07-12_130427:700,-0.408752,-0.010651,-0.28875700000000004,-0.0064730000000000005,-0.007678,0.011170999999999999,-46.0,-18.5,-34.5,2b
2019-07-12_130427:720,-0.404694,-0.011687999999999999,-0.285706,-0.006626000000000001,-0.006548999999999999,0.011506,-46.0,-18.5,-34.5,2b
2019-07-12_130427:740,-0.404694,-0.012695,-0.28775,-0.006962,-0.005725,0.01056,-45.560001,-17.370001000000002,-33.18,2b
2019-07-12_130427:760,-0.404694,-0.015747,-0.286224,-0.0067480000000000005,-0.005756,0.010255,-45.560001,-17.370001000000002,-33.18,2b
2019-07-12_130427:780,-0.406219,-0.017273,-0.288269,-0.006626000000000001,-0.0060609999999999995,0.009645,-45.560001,-17.370001000000002,-33.18,2b
2019-07-12_130427:800,-0.406219,-0.01828,-0.28418000000000004,-0.006504,-0.005939,0.008851000000000001,-45.560001,-17.68,-34.5,2b
2019-07-12_130427:820,-0.406219,-0.019318000000000002,-0.287231,-0.006168,-0.005817,0.008516,-45.560001,-17.68,-34.5,2b
2019-07-12_130427:840,-0.40368699999999996,-0.021332,-0.28775,-0.005558,-0.005817,0.007905,-44.869999,-17.68,-35.68,2b
2019-07-12_130427:860,-0.404175,-0.021332,-0.285706,-0.005161,-0.006275,0.007203,-44.869999,-17.68,-35.68,2b
2019-07-12_130427:880,-0.40368699999999996,-0.020325,-0.287231,-0.004703,-0.0061530000000000005,0.006776000000000001,-44.869999,-17.68,-35.68,2b
2019-07-12_130427:900,-0.404175,-0.022858,-0.28674299999999997,-0.003879,-0.0061530000000000005,0.0058,-46.369999,-17.370001000000002,-34.869999,2b
2019-07-12_130427:920,-0.40570100000000003,-0.021851,-0.28875700000000004,-0.003452,-0.006,0.004091,-46.369999,-17.370001000000002,-34.869999,2b
2019-07-12_130427:940,-0.404175,-0.018799,-0.28875700000000004,-0.002994,-0.0060609999999999995,0.003633,-46.0,-17.370001000000002,-34.5,2b
2019-07-12_130427:960,-0.405212,-0.019318000000000002,-0.287231,-0.0027199999999999998,-0.005573,0.004213000000000001,-46.0,-17.370001000000002,-34.5,2b
2019-07-12_130427:980,-0.405212,-0.019318000000000002,-0.290283,-0.0027199999999999998,-0.005451,0.003511,-46.0,-17.370001000000002,-34.5,2b
2019-07-12_130428:000,-0.406738,-0.016266,-0.290283,-0.003055,-0.005115,0.0025039999999999997,-46.75,-17.370001000000002,-34.869999,2b
2019-07-12_130428:020,-0.406219,-0.017273,-0.28979499999999997,-0.003147,-0.0045049999999999995,0.002168,-46.75,-17.370001000000002,-34.869999,2b
2019-07-12_130428:040,-0.408752,-0.017792,-0.29180900000000004,-0.002994,-0.004229999999999999,0.001924,-45.25,-17.68,-34.0,2b
2019-07-12_130428:060,-0.409271,-0.016266,-0.29180900000000004,-0.003116,-0.0035280000000000003,0.0008560000000000001,-45.25,-17.68,-34.0,2b
2019-07-12_130428:080,-0.40774499999999997,-0.014221000000000001,-0.28927600000000003,-0.002811,-0.002796,0.000795,-45.25,-17.68,-34.0,2b
2019-07-12_130428:100,-0.40823400000000004,-0.014221000000000001,-0.28979499999999997,-0.002414,-0.002338,0.000917,-46.0,-18.5,-34.0,2b
2019-07-12_130428:120,-0.40774499999999997,-0.013213999999999998,-0.28875700000000004,-0.0022010000000000003,-0.00185,0.000917,-46.0,-18.5,-34.0,2b
2019-07-12_130428:140,-0.40774499999999997,-0.012177,-0.286224,-0.001957,-0.001392,0.0007639999999999999,-46.0,-17.370001000000002,-34.5,2b
2019-07-12_130428:160,-0.408752,-0.012177,-0.282166,-0.0018039999999999998,-0.000995,0.000917,-46.0,-17.370001000000002,-34.5,2b
2019-07-12_130428:180,-0.408752,-0.010651,-0.282654,-0.001529,-0.0008119999999999999,0.001253,-46.0,-17.370001000000002,-34.5,2b
2019-07-12_130428:200,-0.409271,-0.010162000000000001,-0.279633,-0.00159,-0.000995,0.001893,-46.0,-18.059998999999998,-34.869999,2b
2019-07-12_130428:220,-0.409271,-0.010162000000000001,-0.277069,-0.001407,-0.000995,0.002321,-46.0,-18.059998999999998,-34.869999,2b
2019-07-12_130428:240,-0.410278,-0.008118,-0.276062,-0.001468,-0.0012699999999999999,0.0025039999999999997,-46.75,-17.370001000000002,-34.869999,2b
2019-07-12_130428:260,-0.40976,-0.007599,-0.274536,-0.001743,-0.001666,0.003053,-46.75,-17.370001000000002,-34.869999,2b
2019-07-12_130428:280,-0.410278,-0.008118,-0.272491,-0.0019260000000000002,-0.001789,0.003633,-46.75,-17.370001000000002,-34.869999,2b
2019-07-12_130428:300,-0.410278,-0.008118,-0.272491,-0.002323,-0.0021850000000000003,0.004091,-46.369999,-17.68,-34.5,2b
2019-07-12_130428:320,-0.40976,-0.008636,-0.272003,-0.002933,-0.002918,0.004732,-46.369999,-17.68,-34.5,2b
2019-07-12_130428:340,-0.412811,-0.009644,-0.272491,-0.0033909999999999995,-0.003436,0.00525,-46.369999,-17.0,-34.0,2b
2019-07-12_130428:360,-0.41384899999999997,-0.010162000000000001,-0.270477,-0.004184,-0.003436,0.005647,-46.369999,-17.0,-34.0,2b
2019-07-12_130428:380,-0.41232299999999994,-0.011169,-0.271484,-0.004398,-0.003711,0.005983,-46.369999,-17.0,-34.0,2b
2019-07-12_130428:400,-0.414337,-0.012177,-0.276062,-0.005039,-0.003986,0.006441,-46.0,-18.5,-32.869999,2b
2019-07-12_130428:420,-0.411285,-0.013213999999999998,-0.275055,-0.005497,-0.004566,0.006532,-46.0,-18.5,-32.869999,2b
2019-07-12_130428:440,-0.41384899999999997,-0.015228,-0.282654,-0.0061070000000000004,-0.004961999999999999,0.005739,-47.060001,-17.370001000000002,-34.0,2b
2019-07-12_130428:460,-0.41384899999999997,-0.012695,-0.282654,-0.006687,-0.004657,0.005525,-47.060001,-17.370001000000002,-34.0,2b
2019-07-12_130428:480,-0.41842700000000005,-0.015228,-0.28418000000000004,-0.007541,-0.003711,0.006318,-47.060001,-17.370001000000002,-34.0,2b
2019-07-12_130428:500,-0.418915,-0.017792,-0.284698,-0.007633,-0.0017280000000000002,0.006044,-47.060001,-17.0,-33.68,2b
2019-07-12_130428:520,-0.416382,-0.020325,-0.28418000000000004,-0.007633,0.000317,0.005006,-47.060001,-17.0,-33.68,2b
2019-07-12_130428:540,-0.415375,-0.021851,-0.28064,-0.0069,0.001721,0.004671,-46.75,-18.5,-33.68,2b
2019-07-12_130428:560,-0.41586300000000004,-0.022369,-0.277588,-0.005741,0.00285,0.004518,-46.75,-18.5,-33.68,2b
2019-07-12_130428:580,-0.41943400000000003,-0.021332,-0.274017,-0.004398,0.003399,0.0039689999999999994,-46.75,-18.5,-33.68,2b
2019-07-12_130428:600,-0.41995200000000005,-0.020325,-0.269958,-0.0033299999999999996,0.00404,0.0039689999999999994,-46.369999,-17.0,-32.869999,2b
2019-07-12_130428:620,-0.421967,-0.019318000000000002,-0.265381,-0.002262,0.004193,0.0037549999999999997,-46.369999,-17.0,-32.869999,2b
2019-07-12_130428:640,-0.418915,-0.017273,-0.26181,-0.00159,0.004193,0.0032359999999999997,-47.75,-17.370001000000002,-33.68,2b
2019-07-12_130428:660,-0.42147799999999996,-0.011687999999999999,-0.256226,-0.001621,0.003796,0.00345,-47.75,-17.370001000000002,-33.68,2b
2019-07-12_130428:680,-0.418915,-0.013702,-0.252686,-0.002018,0.003583,0.004091,-47.75,-17.370001000000002,-33.68,2b
2019-07-12_130428:700,-0.416901,-0.013702,-0.25116,-0.002536,0.00285,0.003114,-48.18,-17.370001000000002,-32.5,2b
2019-07-12_130428:720,-0.417908,-0.011169,-0.24963400000000002,-0.003055,0.001446,0.002565,-48.18,-17.370001000000002,-32.5,2b
2019-07-12_130428:740,-0.417908,-0.013702,-0.248108,-0.0033299999999999996,-0.000324,0.00403,-48.18,-17.0,-32.5,2b
2019-07-12_130428:760,-0.42147799999999996,-0.014740000000000001,-0.24706999999999998,-0.0036049999999999997,-0.0015140000000000002,0.004945000000000001,-48.18,-17.0,-32.5,2b
2019-07-12_130428:780,-0.420959,-0.014221000000000001,-0.24658200000000002,-0.004123,-0.00246,0.004518,-48.18,-17.0,-32.5,2b
2019-07-12_130428:800,-0.420959,-0.014221000000000001,-0.248108,-0.004459,-0.003192,0.004396,-48.18,-17.68,-31.68,2b
2019-07-12_130428:820,-0.42401099999999997,-0.016266,-0.248596,-0.004459,-0.003986,0.004335,-48.18,-17.68,-31.68,2b
2019-07-12_130428:840,-0.425018,-0.017792,-0.249115,-0.004275999999999999,-0.004779,0.003908,-48.560001,-17.68,-31.25,2b
2019-07-12_130428:860,-0.423492,-0.017273,-0.248108,-0.004062,-0.00539,0.0038469999999999997,-48.560001,-17.68,-31.25,2b
2019-07-12_130428:880,-0.42453,-0.016753999999999998,-0.248108,-0.003483,-0.005573,0.0039689999999999994,-48.560001,-17.68,-31.25,2b
2019-07-12_130428:900,-0.42453,-0.015747,-0.250641,-0.0033909999999999995,-0.006458,0.004182,-47.060001,-17.68,-31.25,2b
2019-07-12_130428:920,-0.423004,-0.015228,-0.25116,-0.0033299999999999996,-0.006945999999999999,0.004671,-47.060001,-17.68,-31.25,2b
2019-07-12_130428:940,-0.423004,-0.015228,-0.252686,-0.0036049999999999997,-0.007587000000000001,0.005006,-48.869999,-16.559998999999998,-30.870001000000002,2b
2019-07-12_130428:960,-0.423492,-0.014740000000000001,-0.25216700000000003,-0.004123,-0.008014,0.004732,-48.869999,-16.559998999999998,-30.870001000000002,2b
2019-07-12_130428:980,-0.42401099999999997,-0.015228,-0.25521900000000003,-0.004581,-0.00838,0.004732,-48.869999,-16.559998999999998,-30.870001000000002,2b
2019-07-12_130429:000,-0.42401099999999997,-0.016753999999999998,-0.254211,-0.004886,-0.008747,0.004732,-47.75,-17.0,-32.060001,2b
2019-07-12_130429:020,-0.423492,-0.01828,-0.25521900000000003,-0.004978,-0.008716,0.004213000000000001,-47.75,-17.0,-32.060001,2b
2019-07-12_130429:040,-0.42248500000000005,-0.017792,-0.25827,-0.004825,-0.008716,0.004335,-48.18,-17.0,-32.060001,2b
2019-07-12_130429:060,-0.421967,-0.017273,-0.257751,-0.004581,-0.008655,0.004915,-48.18,-17.0,-32.060001,2b
2019-07-12_130429:080,-0.423004,-0.018799,-0.259277,-0.0042450000000000005,-0.009052,0.004854,-48.18,-17.0,-32.060001,2b
2019-07-12_130429:100,-0.421967,-0.017792,-0.260284,-0.004184,-0.009052,0.004732,-47.5,-16.559998999999998,-32.5,2b
2019-07-12_130429:120,-0.42605600000000005,-0.01828,-0.259796,-0.004275999999999999,-0.00893,0.004609,-47.5,-16.559998999999998,-32.5,2b
2019-07-12_130429:140,-0.42453,-0.01828,-0.259796,-0.004642,-0.008716,0.004213000000000001,-47.369999,-17.0,-32.5,2b
2019-07-12_130429:160,-0.42453,-0.017792,-0.261322,-0.004703,-0.00838,0.004396,-47.369999,-17.0,-32.5,2b
2019-07-12_130429:180,-0.420959,-0.01828,-0.263336,-0.005039,-0.008014,0.004396,-47.369999,-17.0,-32.5,2b
2019-07-12_130429:200,-0.418915,-0.020325,-0.263336,-0.004764,-0.008197,0.003694,-47.060001,-17.0,-31.68,2b
2019-07-12_130429:220,-0.41995200000000005,-0.020844,-0.265381,-0.004398,-0.00838,0.0029,-47.060001,-17.0,-31.68,2b
2019-07-12_130429:240,-0.42147799999999996,-0.01828,-0.265381,-0.00394,-0.008533,0.003511,-47.75,-17.370001000000002,-32.060001,2b
2019-07-12_130429:260,-0.42147799999999996,-0.018799,-0.263855,-0.003452,-0.00838,0.004182,-47.75,-17.370001000000002,-32.060001,2b
2019-07-12_130429:280,-0.421967,-0.016753999999999998,-0.2659,-0.003208,-0.0076170000000000005,0.0038469999999999997,-47.75,-17.370001000000002,-32.060001,2b
2019-07-12_130429:300,-0.42147799999999996,-0.015228,-0.263855,-0.003452,-0.0070680000000000005,0.003175,-47.5,-16.559998999999998,-33.25,2b
2019-07-12_130429:320,-0.42147799999999996,-0.013213999999999998,-0.264374,-0.003788,-0.0066099999999999996,0.003114,-47.5,-16.559998999999998,-33.25,2b
2019-07-12_130429:340,-0.42147799999999996,-0.015228,-0.265381,-0.004184,-0.006214,0.0032359999999999997,-47.060001,-17.68,-32.869999,2b
2019-07-12_130429:360,-0.420959,-0.013213999999999998,-0.264862,-0.004978,-0.006214,0.0034189999999999997,-47.060001,-17.68,-32.869999,2b
2019-07-12_130429:380,-0.41995200000000005,-0.014221000000000001,-0.263855,-0.005497,-0.006275,0.0038159999999999995,-47.060001,-17.68,-32.869999,2b
2019-07-12_130429:400,-0.42147799999999996,-0.014740000000000001,-0.263855,-0.005832,-0.006548999999999999,0.00403,-48.18,-17.0,-32.5,2b
2019-07-12_130429:420,-0.41943400000000003,-0.016266,-0.26181,-0.006076,-0.006458,0.003694,-48.18,-17.0,-32.5,2b
2019-07-12_130429:440,-0.420441,-0.015747,-0.265381,-0.006076,-0.0066099999999999996,0.004213000000000001,-47.75,-17.370001000000002,-32.060001,2b
2019-07-12_130429:460,-0.418915,-0.018799,-0.263855,-0.0061070000000000004,-0.006458,0.004671,-47.75,-17.370001000000002,-32.060001,2b
2019-07-12_130429:480,-0.417389,-0.019318000000000002,-0.264862,-0.005497,-0.006488,0.003358,-47.75,-17.370001000000002,-32.060001,2b
2019-07-12_130429:500,-0.41842700000000005,-0.015228,-0.2659,-0.004886,-0.006793,0.002778,-47.369999,-17.370001000000002,-32.060001,2b
2019-07-12_130429:520,-0.418915,-0.014740000000000001,-0.265381,-0.004184,-0.007006999999999999,0.004274,-47.369999,-17.370001000000002,-32.060001,2b
2019-07-12_130429:540,-0.41995200000000005,-0.014740000000000001,-0.266907,-0.004123,-0.006793,0.004609,-48.18,-17.370001000000002,-32.060001,2b
2019-07-12_130429:560,-0.41943400000000003,-0.013702,-0.263855,-0.004459,-0.006488,0.0038159999999999995,-48.18,-17.370001000000002,-32.060001,2b
2019-07-12_130429:580,-0.423004,-0.013702,-0.267914,-0.004886,-0.006,0.0038159999999999995,-48.18,-17.370001000000002,-32.060001,2b
2019-07-12_130429:600,-0.420441,-0.014221000000000001,-0.266388,-0.005161,-0.005695,0.003908,-47.060001,-17.0,-32.5,2b
2019-07-12_130429:620,-0.42147799999999996,-0.014221000000000001,-0.266388,-0.005619,-0.005573,0.0037549999999999997,-47.060001,-17.0,-32.5,2b
2019-07-12_130429:640,-0.418915,-0.015747,-0.265381,-0.005619,-0.005451,0.00403,-47.5,-17.68,-32.5,2b
2019-07-12_130429:660,-0.418915,-0.016266,-0.263336,-0.005436,-0.005359,0.004213000000000001,-47.5,-17.68,-32.5,2b
2019-07-12_130429:680,-0.418915,-0.016266,-0.263336,-0.0052829999999999995,-0.0055119999999999995,0.004335,-47.5,-17.68,-32.5,2b
2019-07-12_130429:700,-0.418915,-0.016266,-0.263336,-0.004947,-0.005817,0.004396,-47.5,-17.0,-33.68,2b
2019-07-12_130429:720,-0.418915,-0.015747,-0.26181,-0.004703,-0.005817,0.004457,-47.5,-17.0,-33.68,2b
2019-07-12_130429:740,-0.418915,-0.015228,-0.262848,-0.004642,-0.005878,0.004152,-47.75,-18.059998999999998,-33.68,2b
2019-07-12_130429:760,-0.418915,-0.013213999999999998,-0.26181,-0.004581,-0.006275,0.004182,-47.75,-18.059998999999998,-33.68,2b
2019-07-12_130429:780,-0.418915,-0.015228,-0.262848,-0.004703,-0.0066099999999999996,0.004518,-47.75,-18.059998999999998,-33.68,2b
2019-07-12_130429:800,-0.418915,-0.015228,-0.263855,-0.004825,-0.006670999999999999,0.004213000000000001,-47.369999,-17.68,-33.18,2b
2019-07-12_130429:820,-0.417908,-0.015228,-0.264374,-0.004825,-0.006670999999999999,0.004335,-47.369999,-17.68,-33.18,2b
2019-07-12_130429:840,-0.41842700000000005,-0.015228,-0.263855,-0.004947,-0.0070680000000000005,0.004152,-47.75,-17.370001000000002,-31.25,2b
2019-07-12_130429:860,-0.416901,-0.015747,-0.263855,-0.004825,-0.007404000000000001,0.004182,-47.75,-17.370001000000002,-31.25,2b
2019-07-12_130429:880,-0.418915,-0.014740000000000001,-0.266907,-0.004612,-0.007587000000000001,0.004396,-47.75,-17.370001000000002,-31.25,2b
2019-07-12_130429:900,-0.41943400000000003,-0.016266,-0.265381,-0.004703,-0.007465,0.004548,-47.75,-17.0,-32.060001,2b
2019-07-12_130429:920,-0.420959,-0.015228,-0.266388,-0.004612,-0.007587000000000001,0.004518,-47.75,-17.0,-32.060001,2b
2019-07-12_130429:940,-0.418915,-0.015747,-0.265381,-0.004612,-0.006945999999999999,0.004518,-47.75,-17.0,-33.68,2b
2019-07-12_130429:960,-0.42147799999999996,-0.015228,-0.267426,-0.004642,-0.006885,0.004396,-47.75,-17.0,-33.68,2b
2019-07-12_130429:980,-0.417908,-0.015228,-0.265381,-0.004886,-0.006670999999999999,0.004152,-47.75,-17.0,-33.68,2b
2019-07-12_130430:000,-0.416901,-0.016753999999999998,-0.268433,-0.004825,-0.0066099999999999996,0.003908,-47.060001,-17.370001000000002,-32.060001,2b
2019-07-12_130430:020,-0.416901,-0.016753999999999998,-0.267914,-0.004978,-0.007006999999999999,0.003511,-47.060001,-17.370001000000002,-32.060001,2b
2019-07-12_130430:040,-0.416382,-0.014740000000000001,-0.26944,-0.004703,-0.007220999999999999,0.0038469999999999997,-47.5,-17.0,-33.68,2b
2019-07-12_130430:060,-0.417908,-0.015228,-0.268433,-0.004398,-0.007129000000000001,0.004945000000000001,-47.5,-17.0,-33.68,2b
2019-07-12_130430:080,-0.418915,-0.015228,-0.26944,-0.004581,-0.006793,0.004945000000000001,-47.5,-17.0,-33.68,2b
2019-07-12_130430:100,-0.418915,-0.015228,-0.268951,-0.004612,-0.006336,0.0038469999999999997,-47.5,-17.0,-32.060001,2b
2019-07-12_130430:120,-0.418915,-0.015747,-0.267914,-0.004612,-0.0060609999999999995,0.003297,-47.5,-17.0,-32.060001,2b
2019-07-12_130430:140,-0.418915,-0.015747,-0.270477,-0.004612,-0.005756,0.0037549999999999997,-47.060001,-17.68,-32.869999,2b
2019-07-12_130430:160,-0.418915,-0.014740000000000001,-0.266907,-0.004459,-0.005573,0.0038159999999999995,-47.060001,-17.68,-32.869999,2b
2019-07-12_130430:180,-0.417908,-0.013702,-0.267426,-0.004459,-0.005756,0.004091,-47.060001,-17.68,-32.869999,2b
2019-07-12_130430:200,-0.418915,-0.014740000000000001,-0.267914,-0.004612,-0.005878,0.004274,-47.75,-18.059998999999998,-33.25,2b
2019-07-12_130430:220,-0.417389,-0.014221000000000001,-0.265381,-0.004612,-0.006,0.003908,-47.75,-18.059998999999998,-33.25,2b
2019-07-12_130430:240,-0.416901,-0.014221000000000001,-0.266907,-0.004947,-0.006275,0.004213000000000001,-47.060001,-18.059998999999998,-33.25,2b
2019-07-12_130430:260,-0.415375,-0.015747,-0.265381,-0.004764,-0.005878,0.004945000000000001,-47.060001,-18.059998999999998,-33.25,2b
2019-07-12_130430:280,-0.41485600000000006,-0.015747,-0.267426,-0.004886,-0.0061530000000000005,0.0038159999999999995,-47.060001,-18.059998999999998,-33.25,2b
2019-07-12_130430:300,-0.41586300000000004,-0.013702,-0.268433,-0.004947,-0.0066099999999999996,0.003114,-47.060001,-17.68,-32.869999,2b
2019-07-12_130430:320,-0.416901,-0.015228,-0.268433,-0.004581,-0.006885,0.004457,-47.060001,-17.68,-32.869999,2b
2019-07-12_130430:340,-0.41842700000000005,-0.015228,-0.26944,-0.004337,-0.006854000000000001,0.005006,-48.18,-17.68,-32.060001,2b
2019-07-12_130430:360,-0.41842700000000005,-0.013702,-0.26944,-0.004520000000000001,-0.006670999999999999,0.003908,-48.18,-17.68,-32.060001,2b
2019-07-12_130430:380,-0.41842700000000005,-0.013702,-0.268951,-0.004642,-0.006336,0.003572,-48.18,-17.68,-32.060001,2b
2019-07-12_130430:400,-0.416901,-0.015747,-0.270966,-0.004581,-0.006092,0.00403,-46.369999,-18.059998999999998,-32.5,2b
2019-07-12_130430:420,-0.417389,-0.014221000000000001,-0.26944,-0.004642,-0.005878,0.0038469999999999997,-46.369999,-18.059998999999998,-32.5,2b
2019-07-12_130430:440,-0.416901,-0.014740000000000001,-0.269958,-0.004520000000000001,-0.005939,0.00403,-47.369999,-17.68,-33.68,2b
2019-07-12_130430:460,-0.416901,-0.014221000000000001,-0.267426,-0.004398,-0.006,0.004182,-47.369999,-17.68,-33.68,2b
2019-07-12_130430:480,-0.416382,-0.014221000000000001,-0.26944,-0.004398,-0.006,0.004182,-47.369999,-17.68,-33.68,2b
2019-07-12_130430:500,-0.416901,-0.014221000000000001,-0.269958,-0.004184,-0.006,0.004182,-47.75,-17.68,-33.25,2b
2019-07-12_130430:520,-0.418915,-0.014740000000000001,-0.268951,-0.004459,-0.005878,0.004152,-47.75,-17.68,-33.25,2b
2019-07-12_130430:540,-0.41842700000000005,-0.013702,-0.269958,-0.004459,-0.005878,0.0039689999999999994,-47.5,-17.0,-32.060001,2b
2019-07-12_130430:560,-0.416901,-0.013702,-0.266907,-0.004459,-0.005756,0.0038469999999999997,-47.5,-17.0,-32.060001,2b
2019-07-12_130430:580,-0.417908,-0.014740000000000001,-0.267914,-0.004275999999999999,-0.005756,0.004091,-47.5,-17.0,-32.060001,2b
2019-07-12_130430:600,-0.416382,-0.015228,-0.268433,-0.004337,-0.005451,0.004152,-46.75,-17.0,-33.68,2b
2019-07-12_130430:620,-0.416382,-0.013213999999999998,-0.266907,-0.004275999999999999,-0.0055119999999999995,0.004182,-46.75,-17.0,-33.68,2b
2019-07-12_130430:640,-0.41995200000000005,-0.014740000000000001,-0.270966,-0.004398,-0.005756,0.004152,-48.18,-17.68,-32.869999,2b
2019-07-12_130430:660,-0.41586300000000004,-0.012695,-0.268433,-0.004398,-0.005573,0.004182,-48.18,-17.68,-32.869999,2b
2019-07-12_130430:680,-0.417908,-0.015228,-0.26944,-0.004612,-0.005573,0.004091,-48.18,-17.68,-32.869999,2b
2019-07-12_130430:700,-0.41485600000000006,-0.015228,-0.268951,-0.004398,-0.005695,0.0039689999999999994,-47.369999,-17.68,-33.18,2b
2019-07-12_130430:720,-0.415375,-0.015228,-0.266907,-0.004337,-0.005695,0.00403,-47.369999,-17.68,-33.18,2b
2019-07-12_130430:740,-0.418915,-0.015228,-0.269958,-0.004337,-0.006092,0.003908,-47.369999,-17.370001000000002,-32.5,2b
2019-07-12_130430:760,-0.418915,-0.015747,-0.266907,-0.004337,-0.005725,0.004213000000000001,-47.369999,-17.370001000000002,-32.5,2b
2019-07-12_130430:780,-0.41995200000000005,-0.014221000000000001,-0.268433,-0.0042450000000000005,-0.005634,0.004213000000000001,-47.369999,-17.370001000000002,-32.5,2b
2019-07-12_130430:800,-0.416901,-0.014740000000000001,-0.267914,-0.004398,-0.0052369999999999995,0.004335,-47.369999,-17.370001000000002,-32.869999,2b
2019-07-12_130430:820,-0.420441,-0.014740000000000001,-0.267426,-0.004581,-0.005451,0.004213000000000001,-47.369999,-17.370001000000002,-32.869999,2b
2019-07-12_130430:840,-0.41485600000000006,-0.015228,-0.266907,-0.004947,-0.0055119999999999995,0.003908,-48.18,-17.370001000000002,-32.869999,2b
2019-07-12_130430:860,-0.416382,-0.015747,-0.266907,-0.004947,-0.005451,0.003633,-48.18,-17.370001000000002,-32.869999,2b
2019-07-12_130430:880,-0.41485600000000006,-0.014740000000000001,-0.267914,-0.004703,-0.005695,0.003358,-48.18,-17.370001000000002,-32.869999,2b
2019-07-12_130430:900,-0.41586300000000004,-0.013702,-0.268951,-0.004581,-0.006275,0.003572,-47.060001,-17.0,-32.5,2b
2019-07-12_130430:920,-0.417389,-0.014221000000000001,-0.268433,-0.004275999999999999,-0.006397,0.004854,-47.060001,-17.0,-32.5,2b
2019-07-12_130430:940,-0.416382,-0.013213999999999998,-0.267914,-0.004459,-0.0060609999999999995,0.004152,-47.369999,-17.0,-33.68,2b
2019-07-12_130430:960,-0.417908,-0.014221000000000001,-0.266388,-0.004703,-0.005725,0.003114,-47.369999,-17.0,-33.68,2b
2019-07-12_130430:980,-0.417389,-0.014740000000000001,-0.268433,-0.004520000000000001,-0.005573,0.003114,-47.369999,-17.0,-33.68,2b
2019-07-12_130431:000,-0.417389,-0.012695,-0.266388,-0.004459,-0.005695,0.003572,-46.75,-17.370001000000002,-34.5,2b
2019-07-12_130431:020,-0.417389,-0.014221000000000001,-0.266388,-0.004581,-0.005817,0.0039689999999999994,-46.75,-17.370001000000002,-34.5,2b
2019-07-12_130431:040,-0.416901,-0.013213999999999998,-0.266907,-0.004459,-0.0060609999999999995,0.004213000000000001,-47.060001,-17.0,-32.0,2b
2019-07-12_130431:060,-0.418915,-0.012177,-0.266388,-0.004337,-0.0061530000000000005,0.004213000000000001,-47.060001,-17.0,-32.0,2b
2019-07-12_130431:080,-0.41842700000000005,-0.012695,-0.267914,-0.004520000000000001,-0.0061530000000000005,0.00403,-47.060001,-17.0,-32.0,2b
2019-07-12_130431:100,-0.418915,-0.011687999999999999,-0.268951,-0.004642,-0.006092,0.004518,-47.369999,-17.68,-33.18,2b
2019-07-12_130431:120,-0.416382,-0.015228,-0.267426,-0.004764,-0.0060609999999999995,0.004396,-47.369999,-17.68,-33.18,2b
2019-07-12_130431:140,-0.41384899999999997,-0.015747,-0.268951,-0.004703,-0.006336,0.003114,-47.060001,-17.68,-33.25,2b
2019-07-12_130431:160,-0.417908,-0.012695,-0.267426,-0.004459,-0.006458,0.003633,-47.060001,-17.68,-33.25,2b
2019-07-12_130431:180,-0.417389,-0.012695,-0.268951,-0.0042450000000000005,-0.006458,0.005128,-47.060001,-17.68,-33.25,2b
2019-07-12_130431:200,-0.41842700000000005,-0.014740000000000001,-0.26944,-0.004398,-0.006214,0.004793,-47.060001,-17.68,-33.18,2b
2019-07-12_130431:220,-0.41842700000000005,-0.013702,-0.269958,-0.004642,-0.005878,0.0037549999999999997,-47.060001,-17.68,-33.18,2b
2019-07-12_130431:240,-0.418915,-0.013702,-0.270477,-0.004825,-0.005695,0.0039689999999999994,-46.75,-17.68,-33.25,2b
2019-07-12_130431:260,-0.41842700000000005,-0.013702,-0.26944,-0.004703,-0.0055119999999999995,0.0039689999999999994,-46.75,-17.68,-33.25,2b
2019-07-12_130431:280,-0.420441,-0.014740000000000001,-0.26944,-0.004703,-0.005054,0.0039689999999999994,-46.75,-17.68,-33.25,2b
2019-07-12_130431:300,-0.420959,-0.010651,-0.267914,-0.004337,-0.004596,0.004091,-46.0,-17.68,-32.5,2b
2019-07-12_130431:320,-0.411285,-0.01828,-0.269958,-0.0042450000000000005,-0.00484,0.004213000000000001,-46.0,-17.68,-32.5,2b
2019-07-12_130431:340,-0.41333000000000003,-0.015228,-0.26944,-0.003788,-0.004993,0.004396,-47.75,-17.370001000000002,-32.869999,2b
2019-07-12_130431:360,-0.416901,-0.014221000000000001,-0.267426,-0.004123,-0.004961999999999999,0.004396,-47.75,-17.370001000000002,-32.869999,2b
2019-07-12_130431:380,-0.415375,-0.013213999999999998,-0.267914,-0.004123,-0.005451,0.00403,-47.75,-17.370001000000002,-32.869999,2b
2019-07-12_130431:400,-0.416901,-0.013702,-0.266907,-0.004337,-0.005573,0.0038469999999999997,-47.369999,-17.68,-31.68,2b
2019-07-12_130431:420,-0.41485600000000006,-0.013702,-0.266907,-0.004398,-0.005878,0.003908,-47.369999,-17.68,-31.68,2b
2019-07-12_130431:440,-0.415375,-0.013213999999999998,-0.264862,-0.004581,-0.006275,0.004091,-46.75,-17.68,-32.869999,2b
2019-07-12_130431:460,-0.417908,-0.013213999999999998,-0.264862,-0.004612,-0.006214,0.004182,-46.75,-17.68,-32.869999,2b
2019-07-12_130431:480,-0.414337,-0.012695,-0.2659,-0.004764,-0.0066099999999999996,0.004182,-46.75,-17.68,-32.869999,2b
2019-07-12_130431:500,-0.414337,-0.014221000000000001,-0.265381,-0.004825,-0.006793,0.004274,-47.75,-17.370001000000002,-32.5,2b
2019-07-12_130431:520,-0.423004,-0.013213999999999998,-0.26181,-0.004703,-0.006885,0.004152,-47.75,-17.370001000000002,-32.5,2b
2019-07-12_130431:540,-0.425018,-0.008636,-0.266388,-0.005161,-0.00719,0.003511,-47.060001,-18.059998999999998,-32.0,2b
2019-07-12_130431:560,-0.41232299999999994,-0.016753999999999998,-0.27301,-0.005832,-0.007923000000000001,0.003053,-47.060001,-18.059998999999998,-32.0,2b
2019-07-12_130431:580,-0.411804,-0.015747,-0.26944,-0.0042450000000000005,-0.007220999999999999,0.005189,-47.060001,-18.059998999999998,-32.0,2b
2019-07-12_130431:600,-0.425537,-0.015228,-0.267426,-0.0036049999999999997,-0.006488,0.005342,-47.75,-18.059998999999998,-32.060001,2b
2019-07-12_130431:620,-0.417389,-0.016266,-0.267914,-0.00394,-0.005359,0.002443,-47.75,-18.059998999999998,-32.060001,2b
2019-07-12_130431:640,-0.39502,-0.010162000000000001,-0.271484,-0.00394,-0.0066099999999999996,0.003297,-47.060001,-17.370001000000002,-33.18,2b
2019-07-12_130431:660,-0.409271,-0.010162000000000001,-0.268433,-0.003483,-0.007281999999999999,0.005189,-47.060001,-17.370001000000002,-33.18,2b
2019-07-12_130431:680,-0.423004,-0.013702,-0.269958,-0.004398,-0.00719,0.0038469999999999997,-47.060001,-17.370001000000002,-33.18,2b
2019-07-12_130431:700,-0.423492,-0.011687999999999999,-0.271484,-0.005039,-0.006214,0.0038469999999999997,-47.369999,-17.68,-33.68,2b
2019-07-12_130431:720,-0.41842700000000005,-0.013213999999999998,-0.270477,-0.004703,-0.005634,0.004793,-47.369999,-17.68,-33.68,2b
2019-07-12_130431:740,-0.41842700000000005,-0.014740000000000001,-0.272491,-0.0051,-0.0052369999999999995,0.0039689999999999994,-46.75,-17.68,-33.18,2b
2019-07-12_130431:760,-0.414337,-0.013213999999999998,-0.269958,-0.005039,-0.005725,0.0034189999999999997,-46.75,-17.68,-33.18,2b
2019-07-12_130431:780,-0.41842700000000005,-0.015747,-0.272003,-0.004612,-0.005817,0.0038469999999999997,-46.75,-17.68,-33.18,2b
2019-07-12_130431:800,-0.412811,-0.015228,-0.26944,-0.0042450000000000005,-0.005878,0.004274,-47.369999,-18.059998999999998,-32.869999,2b
2019-07-12_130431:820,-0.410797,-0.009125,-0.267914,-0.004398,-0.006458,0.004457,-47.369999,-18.059998999999998,-32.869999,2b
2019-07-12_130431:840,-0.41333000000000003,-0.011169,-0.268951,-0.004947,-0.006397,0.004335,-47.060001,-17.68,-32.5,2b
2019-07-12_130431:860,-0.417389,-0.012695,-0.269958,-0.004886,-0.006092,0.004457,-47.060001,-17.68,-32.5,2b
2019-07-12_130431:880,-0.42147799999999996,-0.014740000000000001,-0.268951,-0.004612,-0.005176,0.003633,-47.060001,-17.68,-32.5,2b
2019-07-12_130431:900,-0.41995200000000005,-0.014221000000000001,-0.26944,-0.004612,-0.004901,0.0029,-46.75,-17.370001000000002,-32.5,2b
2019-07-12_130431:920,-0.417908,-0.013213999999999998,-0.268951,-0.004001,-0.004596,0.004793,-46.75,-17.370001000000002,-32.5,2b
2019-07-12_130431:940,-0.41842700000000005,-0.011687999999999999,-0.269958,-0.003849,-0.004566,0.005647,-47.369999,-17.68,-33.68,2b
2019-07-12_130431:960,-0.41485600000000006,-0.013213999999999998,-0.269958,-0.004123,-0.005054,0.004518,-47.369999,-17.68,-33.68,2b
2019-07-12_130431:980,-0.415375,-0.011687999999999999,-0.269958,-0.0042450000000000005,-0.005451,0.004182,-47.369999,-17.68,-33.68,2b
2019-07-12_130432:000,-0.41485600000000006,-0.011687999999999999,-0.268433,-0.004581,-0.005695,0.00525,-47.369999,-17.68,-32.5,2b
2019-07-12_130432:020,-0.414337,-0.011687999999999999,-0.267914,-0.004947,-0.005725,0.004854,-47.369999,-17.68,-32.5,2b
2019-07-12_130432:040,-0.41333000000000003,-0.016753999999999998,-0.267914,-0.004947,-0.0060609999999999995,0.003358,-47.369999,-17.370001000000002,-33.18,2b
2019-07-12_130432:060,-0.41485600000000006,-0.015747,-0.26944,-0.004886,-0.0061530000000000005,0.00345,-47.369999,-17.370001000000002,-33.18,2b
2019-07-12_130432:080,-0.416382,-0.013702,-0.26944,-0.004337,-0.0061530000000000005,0.005128,-47.369999,-17.370001000000002,-33.18,2b
2019-07-12_130432:100,-0.416382,-0.015747,-0.26944,-0.004275999999999999,-0.006,0.005464,-47.060001,-17.0,-33.25,2b
2019-07-12_130432:120,-0.41586300000000004,-0.015747,-0.270966,-0.004581,-0.005939,0.004274,-47.060001,-17.0,-33.25,2b
2019-07-12_130432:140,-0.41586300000000004,-0.014221000000000001,-0.268951,-0.004581,-0.005939,0.0038469999999999997,-47.369999,-17.370001000000002,-32.060001,2b
2019-07-12_130432:160,-0.416382,-0.013213999999999998,-0.268951,-0.004581,-0.0060609999999999995,0.0038469999999999997,-47.369999,-17.370001000000002,-32.060001,2b
2019-07-12_130432:180,-0.415375,-0.014740000000000001,-0.26944,-0.004825,-0.006092,0.003633,-47.369999,-17.370001000000002,-32.060001,2b
2019-07-12_130432:200,-0.415375,-0.014221000000000001,-0.269958,-0.004612,-0.006397,0.003908,-46.369999,-17.370001000000002,-31.68,2b
2019-07-12_130432:220,-0.41586300000000004,-0.015747,-0.268951,-0.004275999999999999,-0.006548999999999999,0.004152,-46.369999,-17.370001000000002,-31.68,2b
2019-07-12_130432:240,-0.416382,-0.014221000000000001,-0.268951,-0.004275999999999999,-0.006731999999999999,0.0039689999999999994,-47.060001,-17.68,-32.5,2b
2019-07-12_130432:260,-0.418915,-0.013213999999999998,-0.269958,-0.004123,-0.006214,0.004274,-47.060001,-17.68,-32.5,2b
2019-07-12_130432:280,-0.417389,-0.014221000000000001,-0.268433,-0.0042450000000000005,-0.006214,0.004396,-47.060001,-17.68,-32.5,2b
2019-07-12_130432:300,-0.417389,-0.014221000000000001,-0.270477,-0.004398,-0.005939,0.0038469999999999997,-47.060001,-16.18,-32.869999,2b
2019-07-12_130432:320,-0.416382,-0.012695,-0.267914,-0.004337,-0.0061530000000000005,0.0037549999999999997,-47.060001,-16.18,-32.869999,2b
2019-07-12_130432:340,-0.41586300000000004,-0.012695,-0.26944,-0.004337,-0.006275,0.004091,-46.75,-18.059998999999998,-32.869999,2b
2019-07-12_130432:360,-0.41384899999999997,-0.013213999999999998,-0.269958,-0.004459,-0.006488,0.00403,-46.75,-18.059998999999998,-32.869999,2b
2019-07-12_130432:380,-0.415375,-0.013702,-0.26944,-0.004459,-0.006793,0.004091,-46.75,-18.059998999999998,-32.869999,2b
2019-07-12_130432:400,-0.416901,-0.014221000000000001,-0.270966,-0.004581,-0.0066099999999999996,0.004274,-47.369999,-18.059998999999998,-32.869999,2b
2019-07-12_130432:420,-0.41586300000000004,-0.014740000000000001,-0.270477,-0.004520000000000001,-0.006488,0.004182,-47.369999,-18.059998999999998,-32.869999,2b
2019-07-12_130432:440,-0.415375,-0.012695,-0.271484,-0.004459,-0.006548999999999999,0.004335,-47.060001,-17.68,-32.5,2b
2019-07-12_130432:460,-0.416382,-0.014740000000000001,-0.270966,-0.004581,-0.006336,0.004213000000000001,-47.060001,-17.68,-32.5,2b
2019-07-12_130432:480,-0.415375,-0.013213999999999998,-0.270477,-0.004459,-0.006397,0.004091,-47.060001,-17.68,-32.5,2b
2019-07-12_130432:500,-0.412811,-0.013702,-0.271484,-0.004398,-0.006275,0.004274,-47.369999,-17.68,-32.869999,2b
2019-07-12_130432:520,-0.41384899999999997,-0.013213999999999998,-0.270477,-0.004337,-0.006214,0.004518,-47.369999,-17.68,-32.869999,2b
2019-07-12_130432:540,-0.416382,-0.014740000000000001,-0.272491,-0.004520000000000001,-0.006275,0.004548,-46.75,-17.68,-32.5,2b
2019-07-12_130432:560,-0.416901,-0.014221000000000001,-0.270966,-0.004520000000000001,-0.006092,0.004457,-46.75,-17.68,-32.5,2b
2019-07-12_130432:580,-0.417389,-0.014221000000000001,-0.271484,-0.004581,-0.005878,0.004548,-46.75,-17.68,-32.5,2b
2019-07-12_130432:600,-0.417389,-0.013702,-0.271484,-0.004642,-0.005695,0.004609,-47.060001,-17.0,-33.25,2b
2019-07-12_130432:620,-0.415375,-0.015228,-0.270966,-0.004703,-0.005725,0.004274,-47.060001,-17.0,-33.25,2b
2019-07-12_130432:640,-0.41384899999999997,-0.014221000000000001,-0.271484,-0.004978,-0.005725,0.004152,-46.75,-18.059998999999998,-32.5,2b
2019-07-12_130432:660,-0.41384899999999997,-0.014740000000000001,-0.26944,-0.004825,-0.005878,0.004091,-46.75,-18.059998999999998,-32.5,2b
2019-07-12_130432:680,-0.41384899999999997,-0.015747,-0.271484,-0.004642,-0.006275,0.0038159999999999995,-46.75,-18.059998999999998,-32.5,2b
2019-07-12_130432:700,-0.415375,-0.013213999999999998,-0.272003,-0.004581,-0.006458,0.004518,-47.369999,-16.559998999999998,-33.18,2b
2019-07-12_130432:720,-0.414337,-0.013702,-0.270966,-0.004398,-0.006488,0.005342,-47.369999,-16.559998999999998,-33.18,2b
2019-07-12_130432:740,-0.415375,-0.014740000000000001,-0.271484,-0.0042450000000000005,-0.0060609999999999995,0.005006,-46.75,-16.559998999999998,-32.869999,2b
2019-07-12_130432:760,-0.415375,-0.015747,-0.271484,-0.004642,-0.005451,0.003633,-46.75,-16.559998999999998,-32.869999,2b
2019-07-12_130432:780,-0.41485600000000006,-0.014740000000000001,-0.272003,-0.004581,-0.0055119999999999995,0.00345,-46.75,-16.559998999999998,-32.869999,2b
2019-07-12_130432:800,-0.41586300000000004,-0.015747,-0.270966,-0.0042450000000000005,-0.00539,0.003694,-47.060001,-17.68,-32.5,2b
2019-07-12_130432:820,-0.415375,-0.014221000000000001,-0.269958,-0.004275999999999999,-0.005634,0.0037549999999999997,-47.060001,-17.68,-32.5,2b
2019-07-12_130432:840,-0.41586300000000004,-0.014221000000000001,-0.269958,-0.004001,-0.006,0.004396,-48.18,-18.059998999999998,-32.0,2b
2019-07-12_130432:860,-0.416901,-0.014221000000000001,-0.271484,-0.0042450000000000005,-0.0060609999999999995,0.004396,-48.18,-18.059998999999998,-32.0,2b
2019-07-12_130432:880,-0.414337,-0.013213999999999998,-0.270477,-0.004275999999999999,-0.005939,0.00403,-48.18,-18.059998999999998,-32.0,2b
2019-07-12_130432:900,-0.414337,-0.013213999999999998,-0.270477,-0.004275999999999999,-0.006,0.004274,-48.18,-17.68,-35.68,2b
2019-07-12_130432:920,-0.41333000000000003,-0.014740000000000001,-0.269958,-0.0042450000000000005,-0.005878,0.004518,-48.18,-17.68,-35.68,2b
2019-07-12_130432:940,-0.411804,-0.015228,-0.270966,-0.004275999999999999,-0.005939,0.0038469999999999997,-46.75,-16.559998999999998,-34.0,2b
2019-07-12_130432:960,-0.41485600000000006,-0.013702,-0.271484,-0.004184,-0.006548999999999999,0.003908,-46.75,-16.559998999999998,-34.0,2b
2019-07-12_130432:980,-0.41384899999999997,-0.013702,-0.271484,-0.003879,-0.006458,0.004915,-46.75,-16.559998999999998,-34.0,2b
2019-07-12_130433:000,-0.415375,-0.014740000000000001,-0.271484,-0.003788,-0.006458,0.0058,-47.75,-17.68,-33.25,2b
2019-07-12_130433:020,-0.417389,-0.013702,-0.271484,-0.0042450000000000005,-0.006214,0.004732,-47.75,-17.68,-33.25,2b
2019-07-12_130433:040,-0.41485600000000006,-0.014740000000000001,-0.27301,-0.004642,-0.006214,0.004518,-47.369999,-17.68,-32.5,2b
2019-07-12_130433:060,-0.41586300000000004,-0.016266,-0.272491,-0.004886,-0.006092,0.004671,-47.369999,-17.68,-32.5,2b
2019-07-12_130433:080,-0.412811,-0.016266,-0.269958,-0.004886,-0.005939,0.004548,-47.369999,-17.68,-32.5,2b
2019-07-12_130433:100,-0.414337,-0.016753999999999998,-0.271484,-0.004612,-0.006214,0.004548,-47.060001,-17.0,-34.0,2b
2019-07-12_130433:120,-0.41384899999999997,-0.016266,-0.272003,-0.004275999999999999,-0.006275,0.004671,-47.060001,-17.0,-34.0,2b
2019-07-12_130433:140,-0.415375,-0.016266,-0.270477,-0.004123,-0.006458,0.004609,-47.060001,-17.0,-33.18,2b
2019-07-12_130433:160,-0.415375,-0.015747,-0.27301,-0.004001,-0.006458,0.004671,-47.060001,-17.0,-33.18,2b
2019-07-12_130433:180,-0.41384899999999997,-0.013702,-0.270477,-0.003849,-0.006397,0.005067,-47.060001,-17.0,-33.18,2b
2019-07-12_130433:200,-0.41384899999999997,-0.015228,-0.271484,-0.004275999999999999,-0.006458,0.004793,-48.18,-17.0,-32.5,2b
2019-07-12_130433:220,-0.41333000000000003,-0.013213999999999998,-0.270966,-0.004398,-0.0066099999999999996,0.004609,-48.18,-17.0,-32.5,2b
2019-07-12_130433:240,-0.41384899999999997,-0.015228,-0.27301,-0.004642,-0.006854000000000001,0.004732,-48.18,-17.0,-32.5,2b
2019-07-12_130433:260,-0.41333000000000003,-0.015747,-0.272003,-0.004764,-0.006885,0.004915,-47.060001,-17.68,-33.18,2b
2019-07-12_130433:280,-0.41384899999999997,-0.016753999999999998,-0.272003,-0.004764,-0.007129000000000001,0.004945000000000001,-47.060001,-17.68,-33.18,2b
2019-07-12_130433:300,-0.41333000000000003,-0.016753999999999998,-0.274017,-0.004703,-0.00719,0.004854,-47.369999,-17.68,-32.869999,2b
2019-07-12_130433:320,-0.414337,-0.017792,-0.27301,-0.004520000000000001,-0.007006999999999999,0.005006,-47.369999,-17.68,-32.869999,2b
2019-07-12_130433:340,-0.414337,-0.01828,-0.273529,-0.004337,-0.00719,0.004854,-47.369999,-17.68,-32.869999,2b
2019-07-12_130433:360,-0.41232299999999994,-0.017273,-0.273529,-0.004275999999999999,-0.006854000000000001,0.004671,-47.060001,-16.559998999999998,-32.0,2b
2019-07-12_130433:380,-0.412811,-0.016266,-0.273529,-0.004123,-0.00719,0.004609,-47.060001,-16.559998999999998,-32.0,2b
2019-07-12_130433:400,-0.41333000000000003,-0.016753999999999998,-0.274536,-0.0042450000000000005,-0.00719,0.005067,-47.369999,-17.68,-32.869999,2b
2019-07-12_130433:420,-0.41333000000000003,-0.016266,-0.273529,-0.004275999999999999,-0.007281999999999999,0.004945000000000001,-47.369999,-17.68,-32.869999,2b
2019-07-12_130433:440,-0.415375,-0.017273,-0.277069,-0.004337,-0.007281999999999999,0.004945000000000001,-47.369999,-17.68,-32.869999,2b
2019-07-12_130433:460,-0.414337,-0.017273,-0.273529,-0.004459,-0.006854000000000001,0.004793,-47.060001,-17.370001000000002,-32.5,2b
2019-07-12_130433:480,-0.41333000000000003,-0.016753999999999998,-0.274536,-0.004459,-0.006458,0.004732,-47.060001,-17.370001000000002,-32.5,2b
2019-07-12_130433:500,-0.410797,-0.017792,-0.275543,-0.004520000000000001,-0.006397,0.004793,-47.5,-16.18,-33.68,2b
2019-07-12_130433:520,-0.408752,-0.01828,-0.273529,-0.004581,-0.006731999999999999,0.004854,-47.5,-16.18,-33.68,2b
2019-07-12_130433:540,-0.409271,-0.018799,-0.275055,-0.004398,-0.007220999999999999,0.004274,-47.5,-16.18,-33.68,2b
2019-07-12_130433:560,-0.411285,-0.016753999999999998,-0.277069,-0.004398,-0.007801000000000001,0.004213000000000001,-46.75,-16.559998999999998,-33.68,2b
2019-07-12_130433:580,-0.41333000000000003,-0.01828,-0.276062,-0.0042450000000000005,-0.007678,0.005403,-46.75,-16.559998999999998,-33.68,2b
2019-07-12_130433:600,-0.41384899999999997,-0.018799,-0.277069,-0.004275999999999999,-0.006945999999999999,0.005311,-46.369999,-17.0,-33.68,2b
2019-07-12_130433:620,-0.411285,-0.016753999999999998,-0.274017,-0.004398,-0.0066099999999999996,0.004091,-46.369999,-17.0,-33.68,2b
2019-07-12_130433:640,-0.40976,-0.016753999999999998,-0.277069,-0.004459,-0.006336,0.0039689999999999994,-46.369999,-17.0,-33.68,2b
2019-07-12_130433:660,-0.410797,-0.01828,-0.277069,-0.0042450000000000005,-0.006458,0.004152,-46.369999,-17.68,-33.18,2b
2019-07-12_130433:680,-0.411285,-0.01828,-0.276581,-0.0042450000000000005,-0.006731999999999999,0.003908,-46.369999,-17.68,-33.18,2b
2019-07-12_130433:700,-0.41333000000000003,-0.017273,-0.277588,-0.0042450000000000005,-0.006854000000000001,0.004518,-46.0,-17.370001000000002,-34.0,2b
2019-07-12_130433:720,-0.41232299999999994,-0.019318000000000002,-0.276581,-0.004275999999999999,-0.006731999999999999,0.004548,-46.0,-17.370001000000002,-34.0,2b
2019-07-12_130433:740,-0.41232299999999994,-0.017273,-0.278595,-0.004459,-0.006731999999999999,0.004091,-46.0,-17.370001000000002,-34.0,2b
2019-07-12_130433:760,-0.41333000000000003,-0.016753999999999998,-0.278107,-0.004520000000000001,-0.006488,0.004091,-46.75,-17.0,-33.68,2b
2019-07-12_130433:780,-0.412811,-0.019806,-0.277588,-0.004459,-0.006214,0.004915,-46.75,-17.0,-33.68,2b
2019-07-12_130433:800,-0.408752,-0.019318000000000002,-0.279633,-0.004398,-0.005939,0.00403,-46.75,-17.370001000000002,-34.5,2b
2019-07-12_130433:820,-0.40976,-0.016753999999999998,-0.277588,-0.004581,-0.0061530000000000005,0.003114,-46.75,-17.370001000000002,-34.5,2b
2019-07-12_130433:840,-0.410797,-0.01828,-0.278107,-0.004184,-0.006,0.004793,-46.75,-17.370001000000002,-34.5,2b
2019-07-12_130433:860,-0.41232299999999994,-0.01828,-0.280121,-0.004184,-0.005878,0.005464,-47.060001,-17.0,-34.0,2b
2019-07-12_130433:880,-0.412811,-0.016753999999999998,-0.277588,-0.004612,-0.005725,0.004091,-47.060001,-17.0,-34.0,2b
2019-07-12_130433:900,-0.41333000000000003,-0.017273,-0.278107,-0.004764,-0.0055119999999999995,0.003908,-46.369999,-16.559998999999998,-34.0,2b
2019-07-12_130433:920,-0.41232299999999994,-0.018799,-0.277588,-0.004825,-0.005054,0.004182,-46.369999,-16.559998999999998,-34.0,2b
2019-07-12_130433:940,-0.411285,-0.020325,-0.277069,-0.004764,-0.004961999999999999,0.0037549999999999997,-46.369999,-16.559998999999998,-34.0,2b
2019-07-12_130433:960,-0.411285,-0.018799,-0.276062,-0.004642,-0.004901,0.0039689999999999994,-46.75,-17.0,-33.68,2b
2019-07-12_130433:980,-0.410797,-0.020844,-0.276581,-0.004184,-0.004993,0.004396,-46.75,-17.0,-33.68,2b
2019-07-12_130434:000,-0.411285,-0.017792,-0.277588,-0.004062,-0.005176,0.004152,-46.75,-17.0,-33.25,2b
2019-07-12_130434:020,-0.410278,-0.016753999999999998,-0.275543,-0.004062,-0.0052369999999999995,0.004182,-46.75,-17.0,-33.25,2b
2019-07-12_130434:040,-0.411285,-0.017792,-0.275055,-0.0042450000000000005,-0.005298,0.004671,-46.75,-17.0,-33.25,2b
2019-07-12_130434:060,-0.410278,-0.01828,-0.275543,-0.004520000000000001,-0.005176,0.004274,-47.5,-17.0,-33.68,2b
2019-07-12_130434:080,-0.40976,-0.017792,-0.276581,-0.004825,-0.005451,0.0037549999999999997,-47.5,-17.0,-33.68,2b
2019-07-12_130434:100,-0.410278,-0.019806,-0.275543,-0.004703,-0.005634,0.004182,-46.0,-17.0,-34.0,2b
2019-07-12_130434:120,-0.411285,-0.019318000000000002,-0.275055,-0.004947,-0.005725,0.004182,-46.0,-17.0,-34.0,2b
2019-07-12_130434:140,-0.41232299999999994,-0.019806,-0.275055,-0.004764,-0.005451,0.004091,-46.0,-17.0,-34.0,2b
2019-07-12_130434:160,-0.41232299999999994,-0.019806,-0.275055,-0.004337,-0.005451,0.004335,-46.75,-17.370001000000002,-33.68,2b
2019-07-12_130434:180,-0.411804,-0.018799,-0.275055,-0.004184,-0.0055119999999999995,0.004548,-46.75,-17.370001000000002,-33.68,2b
2019-07-12_130434:200,-0.409271,-0.017792,-0.275055,-0.004459,-0.005451,0.0038159999999999995,-46.75,-16.559998999999998,-34.369999,2b
2019-07-12_130434:220,-0.408752,-0.016266,-0.276581,-0.004459,-0.005451,0.0039689999999999994,-46.75,-16.559998999999998,-34.369999,2b
2019-07-12_130434:240,-0.41232299999999994,-0.017792,-0.276581,-0.004764,-0.005817,0.004152,-46.75,-16.559998999999998,-34.369999,2b
2019-07-12_130434:260,-0.412811,-0.017792,-0.275543,-0.004947,-0.005756,0.00403,-46.75,-16.18,-33.68,2b
2019-07-12_130434:280,-0.415375,-0.019806,-0.276062,-0.004978,-0.005634,0.004091,-46.75,-16.18,-33.68,2b
2019-07-12_130434:300,-0.41485600000000006,-0.018799,-0.274017,-0.005161,-0.005298,0.004091,-46.75,-17.0,-33.68,2b
2019-07-12_130434:320,-0.414337,-0.020325,-0.273529,-0.004825,-0.005176,0.00403,-46.75,-17.0,-33.68,2b
2019-07-12_130434:340,-0.410797,-0.019806,-0.274536,-0.004886,-0.005298,0.003908,-46.75,-17.0,-33.68,2b
2019-07-12_130434:360,-0.40823400000000004,-0.019318000000000002,-0.274017,-0.004825,-0.005298,0.0037549999999999997,-47.060001,-16.18,-33.18,2b
2019-07-12_130434:380,-0.40976,-0.01828,-0.276062,-0.004703,-0.005817,0.003297,-47.060001,-16.18,-33.18,2b
2019-07-12_130434:400,-0.411285,-0.01828,-0.276581,-0.004764,-0.006336,0.00345,-47.5,-17.370001000000002,-34.5,2b
2019-07-12_130434:420,-0.412811,-0.017273,-0.275543,-0.004642,-0.006214,0.004457,-47.5,-17.370001000000002,-34.5,2b
2019-07-12_130434:440,-0.41333000000000003,-0.01828,-0.276062,-0.004642,-0.006214,0.004335,-47.5,-17.370001000000002,-34.5,2b
2019-07-12_130434:460,-0.41333000000000003,-0.01828,-0.275543,-0.005039,-0.005817,0.003175,-46.75,-16.559998999999998,-32.5,2b
2019-07-12_130434:480,-0.411804,-0.018799,-0.274017,-0.0051,-0.005725,0.003114,-46.75,-16.559998999999998,-32.5,2b
2019-07-12_130434:500,-0.41232299999999994,-0.017792,-0.276581,-0.004703,-0.005634,0.0032359999999999997,-47.5,-17.370001000000002,-33.68,2b
2019-07-12_130434:520,-0.41232299999999994,-0.017273,-0.274017,-0.004398,-0.005756,0.003358,-47.5,-17.370001000000002,-33.68,2b
2019-07-12_130434:540,-0.411285,-0.016266,-0.274536,-0.004398,-0.0061530000000000005,0.0037549999999999997,-47.5,-17.370001000000002,-33.68,2b
2019-07-12_130434:560,-0.41232299999999994,-0.017792,-0.275055,-0.004581,-0.006397,0.0038159999999999995,-46.75,-17.370001000000002,-34.0,2b
2019-07-12_130434:580,-0.411804,-0.015747,-0.274536,-0.004398,-0.006458,0.00345,-46.75,-17.370001000000002,-34.0,2b
2019-07-12_130434:600,-0.41333000000000003,-0.014740000000000001,-0.275543,-0.004703,-0.006548999999999999,0.0037549999999999997,-47.060001,-17.370001000000002,-33.25,2b
2019-07-12_130434:620,-0.412811,-0.015747,-0.273529,-0.004825,-0.006488,0.004396,-47.060001,-17.370001000000002,-33.25,2b
2019-07-12_130434:640,-0.409271,-0.017273,-0.277069,-0.004825,-0.006731999999999999,0.003297,-47.060001,-17.370001000000002,-33.25,2b
2019-07-12_130434:660,-0.40976,-0.015228,-0.277588,-0.005039,-0.006731999999999999,0.002565,-46.75,-17.68,-33.68,2b
2019-07-12_130434:680,-0.411285,-0.016753999999999998,-0.277069,-0.004459,-0.006885,0.004335,-46.75,-17.68,-33.68,2b
2019-07-12_130434:700,-0.411285,-0.016266,-0.278107,-0.004275999999999999,-0.006793,0.005067,-47.369999,-16.559998999999998,-34.0,2b
2019-07-12_130434:720,-0.41333000000000003,-0.015747,-0.278107,-0.004337,-0.0066099999999999996,0.00403,-47.369999,-16.559998999999998,-34.0,2b
2019-07-12_130434:740,-0.41384899999999997,-0.014740000000000001,-0.278595,-0.004642,-0.006214,0.003572,-47.369999,-16.559998999999998,-34.0,2b
2019-07-12_130434:760,-0.41232299999999994,-0.016753999999999998,-0.279114,-0.004764,-0.006214,0.003908,-46.369999,-17.370001000000002,-33.68,2b
2019-07-12_130434:780,-0.41232299999999994,-0.016266,-0.278595,-0.004947,-0.005817,0.0038159999999999995,-46.369999,-17.370001000000002,-33.68,2b
2019-07-12_130434:800,-0.411285,-0.016266,-0.278595,-0.004764,-0.005817,0.003908,-46.369999,-17.68,-34.5,2b
2019-07-12_130434:820,-0.411804,-0.016266,-0.277069,-0.004581,-0.005451,0.004213000000000001,-46.369999,-17.68,-34.5,2b
2019-07-12_130434:840,-0.411804,-0.016266,-0.277069,-0.004459,-0.0055119999999999995,0.004152,-46.369999,-17.68,-34.5,2b
2019-07-12_130434:860,-0.411804,-0.016753999999999998,-0.277588,-0.004459,-0.005634,0.004274,-47.060001,-17.0,-33.68,2b
2019-07-12_130434:880,-0.411285,-0.016266,-0.277588,-0.004398,-0.005573,0.004518,-47.060001,-17.0,-33.68,2b
2019-07-12_130434:900,-0.410278,-0.015747,-0.277069,-0.004642,-0.005573,0.003908,-46.369999,-17.0,-34.869999,2b
