timestamp,AccX,AccY,AccZ,GyroX,GyroY,GyroZ,MagX,MagY,MagZ,Activity
2019-07-12_105039:400,-0.31012,-0.036591000000000005,-0.384338,-0.005161,-0.0052369999999999995,0.005006,-41.25,4.5,-23.059998999999998,3b
2019-07-12_105039:420,-0.307068,-0.035583,-0.382812,-0.004978,-0.00539,0.004945000000000001,-40.560001,3.68,-21.5,3b
2019-07-12_105039:440,-0.310638,-0.036591000000000005,-0.385376,-0.004642,-0.006,0.005189,-40.560001,3.68,-21.5,3b
2019-07-12_105039:460,-0.31012,-0.036591000000000005,-0.382812,-0.004764,-0.005878,0.00525,-40.560001,4.06,-22.68,3b
2019-07-12_105039:480,-0.307068,-0.036072,-0.380798,-0.004947,-0.006336,0.004915,-40.560001,4.06,-22.68,3b
2019-07-12_105039:500,-0.31369,-0.034546,-0.385864,-0.005222,-0.006548999999999999,0.004609,-40.560001,4.06,-22.68,3b
2019-07-12_105039:520,-0.308594,-0.035065,-0.384338,-0.005497,-0.006458,0.004213000000000001,-41.68,4.5,-21.870001000000002,3b
2019-07-12_105039:540,-0.311127,-0.037598,-0.384338,-0.005619,-0.007129000000000001,0.003694,-41.68,4.5,-21.870001000000002,3b
2019-07-12_105039:560,-0.311127,-0.036591000000000005,-0.386383,-0.005436,-0.0070680000000000005,0.003694,-41.68,4.5,-21.870001000000002,3b
2019-07-12_105039:580,-0.308594,-0.037598,-0.386383,-0.0042450000000000005,-0.007220999999999999,0.004518,-40.869999,4.5,-22.68,3b
2019-07-12_105039:600,-0.312164,-0.038116000000000004,-0.38739,-0.00394,-0.006945999999999999,0.004091,-40.869999,4.5,-22.68,3b
2019-07-12_105039:620,-0.309601,-0.034058,-0.386902,-0.003879,-0.006731999999999999,0.00345,-40.869999,4.06,-23.18,3b
2019-07-12_105039:640,-0.307068,-0.032013,-0.385376,-0.004123,-0.006793,0.0039689999999999994,-40.869999,4.06,-23.18,3b
2019-07-12_105039:660,-0.307587,-0.03302,-0.386383,-0.004520000000000001,-0.006854000000000001,0.0038469999999999997,-40.869999,4.5,-22.75,3b
2019-07-12_105039:680,-0.307068,-0.03302,-0.386902,-0.005039,-0.0070680000000000005,0.003053,-40.869999,4.5,-22.75,3b
2019-07-12_105039:700,-0.309113,-0.035065,-0.38739,-0.004947,-0.007281999999999999,0.003358,-40.869999,4.5,-22.75,3b
2019-07-12_105039:720,-0.307587,-0.035583,-0.389954,-0.004886,-0.007343000000000001,0.003694,-40.869999,3.68,-22.75,3b
2019-07-12_105039:740,-0.310638,-0.035583,-0.388428,-0.004612,-0.00719,0.003694,-40.869999,3.68,-22.75,3b
2019-07-12_105039:760,-0.308594,-0.035583,-0.388916,-0.0042450000000000005,-0.007129000000000001,0.0032359999999999997,-40.869999,3.68,-22.75,3b
2019-07-12_105039:780,-0.309601,-0.03302,-0.389954,-0.004123,-0.007006999999999999,0.0026260000000000003,-41.25,4.06,-22.75,3b
2019-07-12_105039:800,-0.309113,-0.031006,-0.389435,-0.004123,-0.006731999999999999,0.003694,-41.25,4.06,-22.75,3b
2019-07-12_105039:820,-0.307068,-0.031006,-0.388428,-0.004275999999999999,-0.006731999999999999,0.00403,-39.75,4.06,-22.370001000000002,3b
2019-07-12_105039:840,-0.305054,-0.031006,-0.386902,-0.004947,-0.006488,0.003511,-39.75,4.06,-22.370001000000002,3b
2019-07-12_105039:860,-0.303528,-0.030487,-0.389954,-0.0052829999999999995,-0.006731999999999999,0.003633,-40.560001,4.5,-23.559998999999998,3b
2019-07-12_105039:880,-0.304016,-0.031494,-0.389435,-0.005771,-0.006945999999999999,0.004213000000000001,-40.560001,4.5,-23.559998999999998,3b
2019-07-12_105039:900,-0.303528,-0.031494,-0.390961,-0.005679999999999999,-0.00719,0.0039689999999999994,-40.560001,4.5,-23.559998999999998,3b
2019-07-12_105039:920,-0.306061,-0.034058,-0.391968,-0.005893,-0.007220999999999999,0.0039689999999999994,-41.25,4.06,-24.370001000000002,3b
2019-07-12_105039:940,-0.305542,-0.035583,-0.391479,-0.005558,-0.0070680000000000005,0.004152,-41.25,4.06,-24.370001000000002,3b
2019-07-12_105039:960,-0.307587,-0.034546,-0.394012,-0.005039,-0.006548999999999999,0.0039689999999999994,-40.18,4.06,-21.059998999999998,3b
2019-07-12_105039:980,-0.30654899999999996,-0.033539,-0.394531,-0.004825,-0.006397,0.003572,-40.18,4.06,-21.059998999999998,3b
2019-07-12_105040:000,-0.307068,-0.032532,-0.393494,-0.004520000000000001,-0.005756,0.003511,-40.18,4.06,-21.059998999999998,3b
2019-07-12_105040:020,-0.305542,-0.032013,-0.393005,-0.004520000000000001,-0.005573,0.00345,-39.75,3.68,-22.68,3b
2019-07-12_105040:040,-0.305542,-0.031006,-0.390961,-0.004764,-0.005054,0.003511,-39.75,3.68,-22.68,3b
2019-07-12_105040:060,-0.30654899999999996,-0.028961,-0.392487,-0.004825,-0.00484,0.0034189999999999997,-40.560001,3.25,-23.059998999999998,3b
2019-07-12_105040:080,-0.307587,-0.028442000000000002,-0.394531,-0.004825,-0.004779,0.004182,-40.560001,3.25,-23.059998999999998,3b
2019-07-12_105040:100,-0.312164,-0.028442000000000002,-0.394012,-0.004886,-0.0045049999999999995,0.004671,-40.560001,3.25,-23.059998999999998,3b
2019-07-12_105040:120,-0.312164,-0.029480000000000003,-0.394012,-0.004886,-0.003589,0.005189,-40.560001,3.68,-23.5,3b
2019-07-12_105040:140,-0.307068,-0.031006,-0.389954,-0.004947,-0.002643,0.005861,-40.560001,3.68,-23.5,3b
2019-07-12_105040:160,-0.305054,-0.030487,-0.388916,-0.004947,-0.002307,0.006044,-40.560001,3.68,-23.5,3b
2019-07-12_105040:180,-0.303528,-0.031494,-0.385864,-0.005558,-0.002643,0.005922,-40.18,4.06,-22.68,3b
2019-07-12_105040:200,-0.303528,-0.034546,-0.385376,-0.005619,-0.003711,0.005464,-40.18,4.06,-22.68,3b
2019-07-12_105040:220,-0.310638,-0.034058,-0.38739,-0.005619,-0.004169,0.005067,-40.560001,4.06,-22.370001000000002,3b
2019-07-12_105040:240,-0.30654899999999996,-0.034546,-0.382812,-0.005375,-0.004047,0.004671,-40.560001,4.06,-22.370001000000002,3b
2019-07-12_105040:260,-0.307587,-0.034058,-0.384857,-0.004886,-0.0045049999999999995,0.004671,-40.560001,4.06,-22.370001000000002,3b
2019-07-12_105040:280,-0.30654899999999996,-0.031494,-0.384857,-0.004612,-0.004718,0.004182,-40.18,4.75,-22.370001000000002,3b
2019-07-12_105040:300,-0.302002,-0.032532,-0.383331,-0.004520000000000001,-0.005115,0.003572,-40.18,4.75,-22.370001000000002,3b
2019-07-12_105040:320,-0.307068,-0.030487,-0.386383,-0.004459,-0.0060609999999999995,0.0029620000000000002,-40.869999,3.68,-23.559998999999998,3b
2019-07-12_105040:340,-0.308075,-0.029968,-0.385864,-0.004459,-0.0061530000000000005,0.003297,-40.869999,3.68,-23.559998999999998,3b
2019-07-12_105040:360,-0.31012,-0.030487,-0.389435,-0.004123,-0.0061530000000000005,0.004182,-40.869999,3.68,-23.559998999999998,3b
2019-07-12_105040:380,-0.312164,-0.031006,-0.388916,-0.00394,-0.005878,0.004213000000000001,-40.560001,4.06,-23.18,3b
2019-07-12_105040:400,-0.311127,-0.028961,-0.386902,-0.004184,-0.0055119999999999995,0.0038159999999999995,-40.560001,4.06,-23.18,3b
2019-07-12_105040:420,-0.312164,-0.029480000000000003,-0.389435,-0.004184,-0.005115,0.00403,-41.25,4.06,-23.18,3b
2019-07-12_105040:440,-0.312653,-0.028442000000000002,-0.387909,-0.004581,-0.004993,0.004182,-41.25,4.06,-23.18,3b
2019-07-12_105040:460,-0.311646,-0.029480000000000003,-0.386383,-0.004764,-0.004901,0.0039689999999999994,-40.869999,4.5,-24.370001000000002,3b
2019-07-12_105040:480,-0.311127,-0.030487,-0.385864,-0.004947,-0.004901,0.004671,-40.869999,4.5,-24.370001000000002,3b
2019-07-12_105040:500,-0.31012,-0.032013,-0.38385,-0.004886,-0.005115,0.005189,-40.869999,4.5,-24.370001000000002,3b
2019-07-12_105040:520,-0.30654899999999996,-0.032013,-0.384857,-0.004825,-0.0052369999999999995,0.004671,-40.560001,5.18,-22.0,3b
2019-07-12_105040:540,-0.307587,-0.031494,-0.383331,-0.004764,-0.005634,0.003908,-40.560001,5.18,-22.0,3b
2019-07-12_105040:560,-0.309601,-0.029968,-0.385864,-0.004978,-0.006092,0.0034189999999999997,-40.560001,5.18,-22.0,3b
2019-07-12_105040:580,-0.31012,-0.032532,-0.384857,-0.004886,-0.006214,0.004182,-40.560001,4.75,-23.18,3b
2019-07-12_105040:600,-0.31012,-0.032013,-0.386383,-0.004642,-0.0066099999999999996,0.004091,-40.560001,4.75,-23.18,3b
2019-07-12_105040:620,-0.309113,-0.029968,-0.386902,-0.004825,-0.006488,0.003053,-42.060001,3.68,-22.75,3b
2019-07-12_105040:640,-0.308594,-0.028442000000000002,-0.385864,-0.004642,-0.0066099999999999996,0.0032359999999999997,-42.060001,3.68,-22.75,3b
2019-07-12_105040:660,-0.309113,-0.028442000000000002,-0.38739,-0.004581,-0.006854000000000001,0.003175,-41.25,3.68,-23.18,3b
2019-07-12_105040:680,-0.308594,-0.029480000000000003,-0.38739,-0.004703,-0.006854000000000001,0.003023,-41.25,3.68,-23.18,3b
2019-07-12_105040:700,-0.31012,-0.029968,-0.388428,-0.004703,-0.006885,0.00345,-41.25,3.68,-23.18,3b
2019-07-12_105040:720,-0.31012,-0.028961,-0.385864,-0.004581,-0.006793,0.0034189999999999997,-41.25,3.68,-21.559998999999998,3b
2019-07-12_105040:740,-0.31012,-0.028442000000000002,-0.385864,-0.004520000000000001,-0.006458,0.003297,-41.25,3.68,-21.559998999999998,3b
2019-07-12_105040:760,-0.309113,-0.027435,-0.389435,-0.004398,-0.006458,0.003633,-41.25,3.68,-21.559998999999998,3b
2019-07-12_105040:780,-0.31012,-0.028442000000000002,-0.388916,-0.004520000000000001,-0.006214,0.003694,-41.25,4.06,-21.559998999999998,3b
2019-07-12_105040:800,-0.309601,-0.028442000000000002,-0.38739,-0.004520000000000001,-0.0060609999999999995,0.0038159999999999995,-41.25,4.06,-21.559998999999998,3b
2019-07-12_105040:820,-0.308075,-0.027954000000000003,-0.38739,-0.004612,-0.006092,0.0039689999999999994,-40.560001,3.68,-22.75,3b
2019-07-12_105040:840,-0.31012,-0.029968,-0.38739,-0.004825,-0.0061530000000000005,0.004091,-40.560001,3.68,-22.75,3b
2019-07-12_105040:860,-0.311646,-0.030487,-0.389435,-0.004612,-0.006,0.0037549999999999997,-40.560001,3.68,-22.75,3b
2019-07-12_105040:880,-0.310638,-0.029968,-0.388916,-0.004612,-0.005634,0.0038159999999999995,-39.75,3.25,-23.559998999999998,3b
2019-07-12_105040:900,-0.308594,-0.029968,-0.388916,-0.004520000000000001,-0.00539,0.003694,-39.75,3.25,-23.559998999999998,3b
2019-07-12_105040:920,-0.307587,-0.029968,-0.38739,-0.004337,-0.005695,0.003297,-40.560001,3.68,-22.0,3b
2019-07-12_105040:940,-0.307068,-0.028961,-0.387909,-0.004275999999999999,-0.005573,0.0032359999999999997,-40.560001,3.68,-22.0,3b
2019-07-12_105040:960,-0.306061,-0.028961,-0.38739,-0.004337,-0.005939,0.003358,-40.560001,3.68,-22.0,3b
2019-07-12_105040:980,-0.308594,-0.027954000000000003,-0.388428,-0.004459,-0.006092,0.00345,-41.68,3.68,-22.370001000000002,3b
2019-07-12_105041:000,-0.307587,-0.026917,-0.385864,-0.004459,-0.005817,0.004152,-41.68,3.68,-22.370001000000002,3b
2019-07-12_105041:020,-0.309601,-0.025908999999999998,-0.388916,-0.004581,-0.005878,0.004213000000000001,-40.869999,4.06,-24.0,3b
2019-07-12_105041:040,-0.306061,-0.026427999999999997,-0.38739,-0.0052829999999999995,-0.005695,0.003633,-40.869999,4.06,-24.0,3b
2019-07-12_105041:060,-0.305542,-0.027435,-0.387909,-0.005497,-0.005634,0.0037549999999999997,-40.869999,4.06,-24.0,3b
2019-07-12_105041:080,-0.308075,-0.029968,-0.390961,-0.005619,-0.005878,0.0038159999999999995,-41.25,3.68,-22.75,3b
2019-07-12_105041:100,-0.307068,-0.031006,-0.389954,-0.005161,-0.005817,0.004182,-41.25,3.68,-22.75,3b
2019-07-12_105041:120,-0.309113,-0.029968,-0.390961,-0.004642,-0.005725,0.004335,-40.869999,3.68,-22.0,3b
2019-07-12_105041:140,-0.309113,-0.029968,-0.389435,-0.004459,-0.005451,0.0039689999999999994,-40.869999,3.68,-22.0,3b
2019-07-12_105041:160,-0.308075,-0.027954000000000003,-0.388916,-0.004337,-0.004993,0.0037549999999999997,-40.869999,3.68,-22.0,3b
2019-07-12_105041:180,-0.308075,-0.027435,-0.390442,-0.004520000000000001,-0.00484,0.003908,-40.560001,3.68,-24.370001000000002,3b
2019-07-12_105041:200,-0.308594,-0.026917,-0.388916,-0.004764,-0.0045049999999999995,0.0037549999999999997,-40.560001,3.68,-24.370001000000002,3b
2019-07-12_105041:220,-0.307068,-0.027435,-0.389954,-0.004947,-0.004596,0.003572,-40.18,4.06,-24.0,3b
2019-07-12_105041:240,-0.305542,-0.028442000000000002,-0.388428,-0.004703,-0.00484,0.0039689999999999994,-40.18,4.06,-24.0,3b
2019-07-12_105041:260,-0.312164,-0.029968,-0.388428,-0.004764,-0.004718,0.004457,-40.18,4.06,-24.0,3b
2019-07-12_105041:280,-0.308075,-0.031006,-0.386902,-0.004398,-0.00426,0.004335,-40.18,4.5,-22.75,3b
2019-07-12_105041:300,-0.307068,-0.031006,-0.389435,-0.0042450000000000005,-0.004718,0.003633,-40.18,4.5,-22.75,3b
2019-07-12_105041:320,-0.311127,-0.028961,-0.388916,-0.003849,-0.0045049999999999995,0.0038159999999999995,-40.869999,4.06,-22.75,3b
2019-07-12_105041:340,-0.312164,-0.029968,-0.387909,-0.0036659999999999996,-0.00426,0.004091,-40.869999,4.06,-22.75,3b
2019-07-12_105041:360,-0.315704,-0.028961,-0.388916,-0.0036659999999999996,-0.003833,0.003572,-40.869999,4.06,-22.75,3b
2019-07-12_105041:380,-0.314178,-0.026427999999999997,-0.386902,-0.0037270000000000003,-0.003314,0.003297,-40.869999,4.06,-22.0,3b
2019-07-12_105041:400,-0.31369,-0.025908999999999998,-0.384338,-0.004062,-0.0030399999999999997,0.0039689999999999994,-40.869999,4.06,-22.0,3b
2019-07-12_105041:420,-0.31369,-0.025421,-0.381317,-0.004581,-0.002918,0.003908,-41.25,3.0,-22.0,3b
2019-07-12_105041:440,-0.311646,-0.027954000000000003,-0.38028,-0.0052829999999999995,-0.003436,0.0038159999999999995,-41.25,3.0,-22.0,3b
2019-07-12_105041:460,-0.31012,-0.028442000000000002,-0.380798,-0.005344,-0.0038640000000000002,0.004335,-41.25,3.0,-22.0,3b
2019-07-12_105041:480,-0.312164,-0.032013,-0.381805,-0.004978,-0.0045049999999999995,0.004274,-40.560001,3.68,-22.370001000000002,3b
2019-07-12_105041:500,-0.313171,-0.031494,-0.38028,-0.004581,-0.004657,0.003908,-40.560001,3.68,-22.370001000000002,3b
2019-07-12_105041:520,-0.314697,-0.031006,-0.38028,-0.004062,-0.004961999999999999,0.0039689999999999994,-41.25,4.06,-22.75,3b
2019-07-12_105041:540,-0.314697,-0.030487,-0.38028,-0.0037270000000000003,-0.005115,0.0039689999999999994,-41.25,4.06,-22.75,3b
2019-07-12_105041:560,-0.314697,-0.027435,-0.381805,-0.0036659999999999996,-0.005451,0.003694,-41.25,4.06,-22.75,3b
2019-07-12_105041:580,-0.313171,-0.025908999999999998,-0.382324,-0.003879,-0.0055119999999999995,0.0037549999999999997,-40.560001,3.68,-22.75,3b
2019-07-12_105041:600,-0.313171,-0.025908999999999998,-0.382324,-0.004337,-0.005634,0.0037549999999999997,-40.560001,3.68,-22.75,3b
2019-07-12_105041:620,-0.314697,-0.026427999999999997,-0.383331,-0.004825,-0.005817,0.003694,-40.18,3.68,-22.75,3b
2019-07-12_105041:640,-0.316223,-0.025908999999999998,-0.383331,-0.005161,-0.005817,0.0038469999999999997,-40.18,3.68,-22.75,3b
2019-07-12_105041:660,-0.316223,-0.027435,-0.38385,-0.005039,-0.005817,0.003694,-40.18,3.68,-22.75,3b
2019-07-12_105041:680,-0.316223,-0.028442000000000002,-0.38385,-0.004978,-0.005634,0.003908,-40.560001,4.06,-22.370001000000002,3b
2019-07-12_105041:700,-0.312164,-0.029480000000000003,-0.38385,-0.004764,-0.005725,0.004274,-40.560001,4.06,-22.370001000000002,3b
2019-07-12_105041:720,-0.317749,-0.027954000000000003,-0.383331,-0.004459,-0.005878,0.004213000000000001,-40.560001,4.5,-22.0,3b
2019-07-12_105041:740,-0.314697,-0.027435,-0.382812,-0.004337,-0.005725,0.004518,-40.560001,4.5,-22.0,3b
2019-07-12_105041:760,-0.31723,-0.026427999999999997,-0.384338,-0.004398,-0.005573,0.004518,-40.560001,4.5,-22.0,3b
2019-07-12_105041:780,-0.316742,-0.025421,-0.384338,-0.004703,-0.0055119999999999995,0.004091,-40.869999,3.0,-22.75,3b
2019-07-12_105041:800,-0.309601,-0.025421,-0.379272,-0.0051,-0.0055119999999999995,0.0038469999999999997,-40.869999,3.0,-22.75,3b
2019-07-12_105041:820,-0.313171,-0.026427999999999997,-0.384857,-0.005558,-0.005939,0.0038469999999999997,-40.869999,4.06,-22.370001000000002,3b
2019-07-12_105041:840,-0.309113,-0.028961,-0.380798,-0.004978,-0.006275,0.004457,-40.869999,4.06,-22.370001000000002,3b
2019-07-12_105041:860,-0.311127,-0.030487,-0.381805,-0.004184,-0.006793,0.005006,-40.869999,4.06,-22.370001000000002,3b
2019-07-12_105041:880,-0.318268,-0.027954000000000003,-0.384338,-0.0037270000000000003,-0.006854000000000001,0.004457,-40.18,3.68,-22.75,3b
2019-07-12_105041:900,-0.316223,-0.025908999999999998,-0.383331,-0.003483,-0.006214,0.004152,-40.18,3.68,-22.75,3b
2019-07-12_105041:920,-0.315216,-0.024902,-0.384857,-0.0036659999999999996,-0.006092,0.004671,-40.560001,3.68,-22.0,3b
2019-07-12_105041:940,-0.316223,-0.025908999999999998,-0.384338,-0.004337,-0.005878,0.004945000000000001,-40.560001,3.68,-22.0,3b
2019-07-12_105041:960,-0.314178,-0.026917,-0.38385,-0.004703,-0.005939,0.004548,-40.560001,3.68,-22.0,3b
2019-07-12_105041:980,-0.315704,-0.028442000000000002,-0.384338,-0.004764,-0.005817,0.004396,-40.560001,3.68,-23.18,3b
2019-07-12_105042:000,-0.32132,-0.027954000000000003,-0.384338,-0.004703,-0.005634,0.004915,-40.560001,3.68,-23.18,3b
2019-07-12_105042:020,-0.309601,-0.026427999999999997,-0.384338,-0.004947,-0.0052369999999999995,0.005342,-40.560001,3.68,-23.559998999999998,3b
2019-07-12_105042:040,-0.312164,-0.029968,-0.380798,-0.004612,-0.005939,0.005678,-40.560001,3.68,-23.559998999999998,3b
2019-07-12_105042:060,-0.316223,-0.029968,-0.384338,-0.004581,-0.0061530000000000005,0.004732,-40.560001,3.68,-23.559998999999998,3b
2019-07-12_105042:080,-0.311646,-0.029968,-0.381805,-0.004612,-0.006275,0.00525,-41.25,3.68,-21.559998999999998,3b
2019-07-12_105042:100,-0.311646,-0.033539,-0.384338,-0.004398,-0.0066099999999999996,0.005983,-41.25,3.68,-21.559998999999998,3b
2019-07-12_105042:120,-0.312164,-0.03302,-0.384338,-0.004398,-0.006670999999999999,0.004854,-41.25,3.68,-23.18,3b
2019-07-12_105042:140,-0.315704,-0.032013,-0.382812,-0.004275999999999999,-0.006885,0.003694,-41.25,3.68,-23.18,3b
2019-07-12_105042:160,-0.315216,-0.031006,-0.384338,-0.004184,-0.006336,0.003908,-41.25,3.68,-23.18,3b
2019-07-12_105042:180,-0.310638,-0.030487,-0.382812,-0.004184,-0.006214,0.0039689999999999994,-40.18,3.68,-22.370001000000002,3b
2019-07-12_105042:200,-0.31012,-0.029480000000000003,-0.383331,-0.004337,-0.006488,0.00403,-40.18,3.68,-22.370001000000002,3b
2019-07-12_105042:220,-0.31012,-0.030487,-0.384338,-0.0042450000000000005,-0.0070680000000000005,0.004152,-40.18,4.06,-22.370001000000002,3b
2019-07-12_105042:240,-0.311646,-0.030487,-0.38385,-0.004275999999999999,-0.0070680000000000005,0.0038469999999999997,-40.18,4.06,-22.370001000000002,3b
2019-07-12_105042:260,-0.310638,-0.029480000000000003,-0.385864,-0.004612,-0.007006999999999999,0.00403,-40.18,4.06,-22.370001000000002,3b
2019-07-12_105042:280,-0.311646,-0.028961,-0.385376,-0.004825,-0.007006999999999999,0.004396,-40.18,4.06,-22.0,3b
2019-07-12_105042:300,-0.310638,-0.030487,-0.384338,-0.005161,-0.007129000000000001,0.004213000000000001,-40.18,4.06,-22.0,3b
2019-07-12_105042:320,-0.309601,-0.029480000000000003,-0.387909,-0.005161,-0.006945999999999999,0.004091,-40.560001,4.06,-22.370001000000002,3b
2019-07-12_105042:340,-0.309601,-0.030487,-0.386383,-0.005222,-0.006793,0.004182,-40.560001,4.06,-22.370001000000002,3b
2019-07-12_105042:360,-0.30654899999999996,-0.030487,-0.386902,-0.005039,-0.006885,0.004548,-40.560001,4.06,-22.370001000000002,3b
2019-07-12_105042:380,-0.30654899999999996,-0.031006,-0.388428,-0.004764,-0.007129000000000001,0.004793,-41.25,3.68,-22.75,3b
2019-07-12_105042:400,-0.309113,-0.030487,-0.388428,-0.004612,-0.0070680000000000005,0.004335,-41.25,3.68,-22.75,3b
2019-07-12_105042:420,-0.313171,-0.030487,-0.388916,-0.004612,-0.006854000000000001,0.00403,-40.560001,4.06,-23.559998999999998,3b
2019-07-12_105042:440,-0.308594,-0.029968,-0.389435,-0.004764,-0.006275,0.004396,-40.560001,4.06,-23.559998999999998,3b
2019-07-12_105042:460,-0.31369,-0.031006,-0.389435,-0.004703,-0.006214,0.004609,-40.560001,4.06,-23.559998999999998,3b
2019-07-12_105042:480,-0.310638,-0.03302,-0.388428,-0.004947,-0.005817,0.004213000000000001,-40.869999,4.06,-22.370001000000002,3b
2019-07-12_105042:500,-0.311127,-0.034546,-0.385864,-0.004764,-0.005573,0.00403,-40.869999,4.06,-22.370001000000002,3b
2019-07-12_105042:520,-0.314178,-0.034058,-0.388428,-0.004459,-0.00539,0.0034189999999999997,-40.869999,4.06,-22.370001000000002,3b
2019-07-12_105042:540,-0.308075,-0.034546,-0.385864,-0.004275999999999999,-0.005054,0.002839,-40.869999,4.06,-22.370001000000002,3b
2019-07-12_105042:560,-0.310638,-0.03302,-0.385864,-0.003879,-0.0055119999999999995,0.002443,-40.869999,4.06,-22.370001000000002,3b
2019-07-12_105042:580,-0.311127,-0.031494,-0.386902,-0.0036049999999999997,-0.005573,0.002321,-41.25,3.68,-22.75,3b
2019-07-12_105042:600,-0.311646,-0.029968,-0.384338,-0.003483,-0.0055119999999999995,0.0032359999999999997,-41.25,3.68,-22.75,3b
2019-07-12_105042:620,-0.312164,-0.031006,-0.38739,-0.0037270000000000003,-0.005298,0.003114,-40.869999,4.06,-22.370001000000002,3b
2019-07-12_105042:640,-0.308075,-0.029480000000000003,-0.382324,-0.00394,-0.0055119999999999995,0.0025039999999999997,-40.869999,4.06,-22.370001000000002,3b
2019-07-12_105042:660,-0.311127,-0.030487,-0.384338,-0.004001,-0.006,0.002443,-40.869999,4.06,-22.370001000000002,3b
2019-07-12_105042:680,-0.31369,-0.028442000000000002,-0.383331,-0.003879,-0.005725,0.002382,-40.869999,3.25,-23.18,3b
2019-07-12_105042:700,-0.312164,-0.028961,-0.382812,-0.004184,-0.005756,0.002565,-40.869999,3.25,-23.18,3b
2019-07-12_105042:720,-0.31369,-0.028442000000000002,-0.38385,-0.00394,-0.006214,0.003114,-41.68,2.56,-23.18,3b
2019-07-12_105042:740,-0.310638,-0.028442000000000002,-0.381805,-0.004062,-0.006397,0.003358,-41.68,2.56,-23.18,3b
2019-07-12_105042:760,-0.308075,-0.026917,-0.383331,-0.0042450000000000005,-0.006670999999999999,0.0034189999999999997,-41.68,2.56,-23.18,3b
2019-07-12_105042:780,-0.308594,-0.029480000000000003,-0.384338,-0.004275999999999999,-0.0070680000000000005,0.003114,-40.869999,4.06,-23.559998999999998,3b
2019-07-12_105042:800,-0.311127,-0.027435,-0.384857,-0.004459,-0.007587000000000001,0.0026260000000000003,-40.869999,4.06,-23.559998999999998,3b
2019-07-12_105042:820,-0.311127,-0.027954000000000003,-0.385376,-0.004398,-0.007343000000000001,0.00345,-40.869999,3.25,-22.75,3b
2019-07-12_105042:840,-0.31369,-0.027954000000000003,-0.385376,-0.004184,-0.007526000000000001,0.004091,-40.869999,3.25,-22.75,3b
2019-07-12_105042:860,-0.308075,-0.025908999999999998,-0.385864,-0.004581,-0.006945999999999999,0.003908,-40.869999,3.25,-22.75,3b
2019-07-12_105042:880,-0.307068,-0.026917,-0.38739,-0.004703,-0.007404000000000001,0.004274,-40.560001,3.68,-22.75,3b
2019-07-12_105042:900,-0.30654899999999996,-0.029480000000000003,-0.387909,-0.004978,-0.007465,0.004609,-40.560001,3.68,-22.75,3b
2019-07-12_105042:920,-0.307068,-0.029968,-0.38739,-0.005497,-0.0076170000000000005,0.004182,-41.68,3.25,-22.370001000000002,3b
2019-07-12_105042:940,-0.305542,-0.031006,-0.387909,-0.005558,-0.007587000000000001,0.004274,-41.68,3.25,-22.370001000000002,3b
2019-07-12_105042:960,-0.30654899999999996,-0.031006,-0.390442,-0.005161,-0.007801000000000001,0.004671,-41.68,3.25,-22.370001000000002,3b
2019-07-12_105042:980,-0.305542,-0.031006,-0.387909,-0.004978,-0.007526000000000001,0.004457,-39.75,3.0,-22.370001000000002,3b
2019-07-12_105043:000,-0.308075,-0.031494,-0.390961,-0.004642,-0.007862000000000001,0.004182,-39.75,3.0,-22.370001000000002,3b
2019-07-12_105043:020,-0.308075,-0.030487,-0.391479,-0.004703,-0.007281999999999999,0.004182,-40.560001,3.25,-22.75,3b
2019-07-12_105043:040,-0.308075,-0.031006,-0.391479,-0.004703,-0.0070680000000000005,0.0038469999999999997,-40.560001,3.25,-22.75,3b
2019-07-12_105043:060,-0.308075,-0.031006,-0.391479,-0.004642,-0.006670999999999999,0.0037549999999999997,-40.560001,3.25,-22.75,3b
2019-07-12_105043:080,-0.305542,-0.031006,-0.391968,-0.004703,-0.006397,0.0039689999999999994,-40.869999,3.68,-22.75,3b
2019-07-12_105043:100,-0.305054,-0.031006,-0.391968,-0.004642,-0.0060609999999999995,0.0038469999999999997,-40.869999,3.68,-22.75,3b
2019-07-12_105043:120,-0.305542,-0.031006,-0.391479,-0.004581,-0.005725,0.0038469999999999997,-40.560001,3.25,-22.370001000000002,3b
2019-07-12_105043:140,-0.30300900000000003,-0.031006,-0.388428,-0.004642,-0.005725,0.003572,-40.560001,3.25,-22.370001000000002,3b
2019-07-12_105043:160,-0.304535,-0.031006,-0.389435,-0.004886,-0.005939,0.003358,-40.560001,3.25,-22.370001000000002,3b
2019-07-12_105043:180,-0.30300900000000003,-0.03302,-0.388916,-0.004886,-0.005878,0.003511,-40.869999,3.68,-23.18,3b
2019-07-12_105043:200,-0.301483,-0.03302,-0.387909,-0.004947,-0.005756,0.003572,-40.869999,3.68,-23.18,3b
2019-07-12_105043:220,-0.304016,-0.034546,-0.391479,-0.004978,-0.006336,0.003297,-41.68,3.0,-23.559998999999998,3b
2019-07-12_105043:240,-0.30249000000000004,-0.034546,-0.38739,-0.004978,-0.006275,0.003297,-41.68,3.0,-23.559998999999998,3b
2019-07-12_105043:260,-0.308594,-0.035065,-0.393005,-0.004764,-0.0066099999999999996,0.0026260000000000003,-41.68,3.0,-23.559998999999998,3b
2019-07-12_105043:280,-0.311127,-0.035065,-0.39502,-0.0051,-0.006488,0.001161,-40.869999,4.06,-22.370001000000002,3b
2019-07-12_105043:300,-0.312653,-0.036591000000000005,-0.394531,-0.004978,-0.0060609999999999995,0.000123,-40.869999,4.06,-22.370001000000002,3b
2019-07-12_105043:320,-0.314178,-0.033539,-0.396545,-0.004612,-0.005695,-0.001006,-40.18,3.68,-23.18,3b
2019-07-12_105043:340,-0.312164,-0.032532,-0.393494,-0.00394,-0.004718,-0.001158,-40.18,3.68,-23.18,3b
2019-07-12_105043:360,-0.314178,-0.028961,-0.394012,-0.003208,-0.004108,-0.0009449999999999999,-40.18,3.68,-23.18,3b
2019-07-12_105043:380,-0.31369,-0.025908999999999998,-0.390442,-0.002933,-0.003436,-0.001738,-41.25,3.25,-23.18,3b
2019-07-12_105043:400,-0.314697,-0.019806,-0.386383,-0.003116,-0.002735,-0.002013,-41.25,3.25,-23.18,3b
2019-07-12_105043:420,-0.312164,-0.016266,-0.384338,-0.0033909999999999995,-0.002124,-0.0008230000000000001,-40.560001,3.68,-23.18,3b
2019-07-12_105043:440,-0.305542,-0.016753999999999998,-0.378754,-0.004275999999999999,-0.002246,-0.000151,-40.560001,3.68,-23.18,3b
2019-07-12_105043:460,-0.301483,-0.016753999999999998,-0.378265,-0.005344,-0.002704,-0.000151,-40.560001,3.68,-23.18,3b
2019-07-12_105043:480,-0.300964,-0.01828,-0.378754,-0.005893,-0.003833,0.0005809999999999999,-40.869999,2.56,-22.370001000000002,3b
2019-07-12_105043:500,-0.30654899999999996,-0.020325,-0.380798,-0.006168,-0.005176,0.0016489999999999999,-40.869999,2.56,-22.370001000000002,3b
2019-07-12_105043:520,-0.30300900000000003,-0.021851,-0.38028,-0.00629,-0.005878,0.001832,-41.25,3.0,-22.75,3b
2019-07-12_105043:540,-0.306061,-0.022369,-0.385376,-0.006076,-0.006458,0.001436,-41.25,3.0,-22.75,3b
2019-07-12_105043:560,-0.307587,-0.022369,-0.386383,-0.005741,-0.006731999999999999,0.001253,-41.25,3.0,-22.75,3b
2019-07-12_105043:580,-0.311127,-0.021851,-0.388916,-0.005375,-0.006945999999999999,0.001924,-40.560001,2.25,-23.559998999999998,3b
2019-07-12_105043:600,-0.31369,-0.020325,-0.390961,-0.004947,-0.006458,0.001893,-40.560001,2.25,-23.559998999999998,3b
2019-07-12_105043:620,-0.31369,-0.017273,-0.389954,-0.004764,-0.006,0.001436,-40.560001,2.25,-22.370001000000002,3b
2019-07-12_105043:640,-0.313171,-0.016753999999999998,-0.389435,-0.004978,-0.005359,0.001893,-40.560001,2.25,-22.370001000000002,3b
2019-07-12_105043:660,-0.311646,-0.016266,-0.389954,-0.005161,-0.004657,0.001924,-40.560001,2.25,-22.370001000000002,3b
2019-07-12_105043:680,-0.308075,-0.014740000000000001,-0.388428,-0.005741,-0.004383,0.001771,-40.560001,2.25,-23.559998999999998,3b
2019-07-12_105043:700,-0.305542,-0.016266,-0.385864,-0.005832,-0.004383,0.00229,-40.560001,2.25,-23.559998999999998,3b
2019-07-12_105043:720,-0.305054,-0.015228,-0.384338,-0.005741,-0.004596,0.002839,-40.18,1.87,-23.059998999999998,3b
2019-07-12_105043:740,-0.305054,-0.015228,-0.383331,-0.005832,-0.004657,0.0029620000000000002,-40.18,1.87,-23.059998999999998,3b
2019-07-12_105043:760,-0.29895,-0.013702,-0.382324,-0.005832,-0.004718,0.003358,-40.18,1.87,-23.059998999999998,3b
2019-07-12_105043:780,-0.295898,-0.012695,-0.381805,-0.005771,-0.005176,0.00403,-40.869999,3.0,-21.870001000000002,3b
2019-07-12_105043:800,-0.294373,-0.012695,-0.378265,-0.0060149999999999995,-0.005725,0.004335,-40.869999,3.0,-21.870001000000002,3b
2019-07-12_105043:820,-0.295898,-0.012695,-0.37265,-0.006351,-0.005878,0.004915,-40.869999,1.87,-22.25,3b
2019-07-12_105043:840,-0.29284699999999997,-0.012177,-0.369598,-0.006504,-0.005756,0.005067,-40.869999,1.87,-22.25,3b
2019-07-12_105043:860,-0.28369099999999997,-0.015747,-0.372162,-0.006626000000000001,-0.006275,0.004793,-40.869999,1.87,-22.25,3b
2019-07-12_105043:880,-0.277588,-0.01828,-0.378754,-0.0060149999999999995,-0.008747,0.004274,-40.560001,2.25,-23.559998999999998,3b
2019-07-12_105043:900,-0.271484,-0.021332,-0.393005,-0.004703,-0.012714,0.003908,-40.560001,2.25,-23.559998999999998,3b
2019-07-12_105043:920,-0.286224,-0.022369,-0.406219,-0.003147,-0.017505,0.003694,-40.869999,1.5,-23.059998999999998,3b
2019-07-12_105043:940,-0.32132,-0.021332,-0.42453,-0.001529,-0.020618,0.005189,-40.869999,1.5,-23.059998999999998,3b
2019-07-12_105043:960,-0.345215,-0.022369,-0.432648,-0.00046100000000000004,-0.019153,0.007203,-40.869999,1.5,-23.059998999999998,3b
2019-07-12_105043:980,-0.356903,-0.023375999999999997,-0.430634,-0.000339,-0.013904,0.0069900000000000006,-40.560001,2.25,-22.68,3b
2019-07-12_105044:000,-0.344177,-0.020844,-0.41995200000000005,-0.000736,-0.006336,0.006135,-40.560001,2.25,-22.68,3b
2019-07-12_105044:020,-0.31723,-0.021332,-0.40823400000000004,-0.00095,-0.00047599999999999997,0.005739,-40.18,1.5,-23.870001000000002,3b
2019-07-12_105044:040,-0.29943800000000004,-0.020325,-0.396545,-0.001743,0.00224,0.004945000000000001,-40.18,1.5,-23.870001000000002,3b
2019-07-12_105044:060,-0.28979499999999997,-0.021332,-0.386383,-0.002353,0.001843,0.004518,-40.18,1.5,-23.870001000000002,3b
2019-07-12_105044:080,-0.293854,-0.021332,-0.384338,-0.00275,-0.00047599999999999997,0.004671,-40.560001,2.25,-23.870001000000002,3b
2019-07-12_105044:100,-0.290802,-0.022858,-0.381317,-0.003116,-0.002796,0.005006,-40.560001,2.25,-23.870001000000002,3b
2019-07-12_105044:120,-0.294373,-0.022858,-0.385864,-0.003452,-0.005451,0.00525,-40.18,1.87,-23.5,3b
2019-07-12_105044:140,-0.30300900000000003,-0.023375999999999997,-0.390961,-0.003788,-0.007739,0.005189,-40.18,1.87,-23.5,3b
2019-07-12_105044:160,-0.307587,-0.024902,-0.39502,-0.0042450000000000005,-0.009326000000000001,0.004732,-40.18,1.87,-23.5,3b
2019-07-12_105044:180,-0.315216,-0.024902,-0.40316799999999997,-0.004642,-0.009662,0.004732,-40.869999,2.56,-23.5,3b
2019-07-12_105044:200,-0.315704,-0.026427999999999997,-0.40570100000000003,-0.004825,-0.009509,0.004854,-40.869999,2.56,-23.5,3b
2019-07-12_105044:220,-0.317749,-0.025908999999999998,-0.404694,-0.004825,-0.008655,0.004518,-39.75,2.56,-22.68,3b
2019-07-12_105044:240,-0.314178,-0.023895,-0.40570100000000003,-0.004581,-0.007281999999999999,0.004213000000000001,-39.75,2.56,-22.68,3b
2019-07-12_105044:260,-0.312164,-0.021851,-0.407227,-0.004337,-0.006092,0.004609,-39.75,2.56,-22.68,3b
2019-07-12_105044:280,-0.311646,-0.020325,-0.404175,-0.004398,-0.004961999999999999,0.004609,-40.869999,2.56,-23.559998999999998,3b
2019-07-12_105044:300,-0.312653,-0.019806,-0.40316799999999997,-0.004001,-0.00426,0.004854,-40.869999,2.56,-23.559998999999998,3b
2019-07-12_105044:320,-0.313171,-0.017792,-0.402649,-0.004459,-0.0035280000000000003,0.004548,-40.18,2.56,-24.370001000000002,3b
2019-07-12_105044:340,-0.312164,-0.015747,-0.397064,-0.004947,-0.002735,0.005006,-40.18,2.56,-24.370001000000002,3b
2019-07-12_105044:360,-0.310638,-0.017273,-0.394531,-0.005497,-0.0020629999999999997,0.006257,-40.18,2.56,-24.370001000000002,3b
2019-07-12_105044:380,-0.305054,-0.017792,-0.390961,-0.0061070000000000004,-0.001605,0.005983,-41.25,3.0,-23.870001000000002,3b
2019-07-12_105044:400,-0.303528,-0.01828,-0.387909,-0.0064730000000000005,-0.0017280000000000002,0.005311,-41.25,3.0,-23.870001000000002,3b
2019-07-12_105044:420,-0.30300900000000003,-0.019318000000000002,-0.385376,-0.0064730000000000005,-0.0021850000000000003,0.005189,-39.75,3.0,-22.25,3b
2019-07-12_105044:440,-0.301483,-0.019318000000000002,-0.38028,-0.0060149999999999995,-0.002979,0.005311,-39.75,3.0,-22.25,3b
2019-07-12_105044:460,-0.301483,-0.019318000000000002,-0.378754,-0.005436,-0.0038640000000000002,0.005525,-39.75,3.0,-22.25,3b
2019-07-12_105044:480,-0.30249000000000004,-0.019318000000000002,-0.379272,-0.005161,-0.00539,0.005678,-40.560001,2.56,-23.559998999999998,3b
2019-07-12_105044:500,-0.302002,-0.017273,-0.378754,-0.004886,-0.006397,0.005342,-40.560001,2.56,-23.559998999999998,3b
2019-07-12_105044:520,-0.301483,-0.015747,-0.379791,-0.004825,-0.007220999999999999,0.005311,-40.560001,2.56,-22.68,3b
2019-07-12_105044:540,-0.304016,-0.014221000000000001,-0.379791,-0.004947,-0.008197,0.005647,-40.560001,2.56,-22.68,3b
2019-07-12_105044:560,-0.301483,-0.016266,-0.38028,-0.005344,-0.009265,0.005861,-40.560001,2.56,-22.68,3b
2019-07-12_105044:580,-0.306061,-0.016753999999999998,-0.384338,-0.005771,-0.009937,0.005739,-40.18,2.56,-22.0,3b
2019-07-12_105044:600,-0.30300900000000003,-0.017792,-0.384857,-0.005954,-0.010669,0.005464,-40.18,2.56,-22.0,3b
2019-07-12_105044:620,-0.294373,-0.01828,-0.387909,-0.0061070000000000004,-0.011646,0.004793,-40.560001,2.56,-23.559998999999998,3b
2019-07-12_105044:640,-0.294373,-0.018799,-0.389954,-0.006076,-0.012165,0.004396,-40.560001,2.56,-23.559998999999998,3b
2019-07-12_105044:660,-0.29538000000000003,-0.01828,-0.397064,-0.005893,-0.01305,0.0038159999999999995,-40.560001,2.56,-23.559998999999998,3b
2019-07-12_105044:680,-0.30249000000000004,-0.018799,-0.399109,-0.005741,-0.0125,0.003358,-39.369999,2.56,-24.370001000000002,3b
2019-07-12_105044:700,-0.313171,-0.018799,-0.40316799999999997,-0.005436,-0.010181,0.002778,-39.369999,2.56,-24.370001000000002,3b
2019-07-12_105044:720,-0.309113,-0.020325,-0.401123,-0.005039,-0.007587000000000001,0.002229,-39.75,3.0,-23.18,3b
2019-07-12_105044:740,-0.30654899999999996,-0.021332,-0.401642,-0.004337,-0.005878,0.0016489999999999999,-39.75,3.0,-23.18,3b
2019-07-12_105044:760,-0.29232800000000003,-0.019806,-0.397064,-0.00394,-0.004444,0.00229,-39.75,3.0,-23.18,3b
2019-07-12_105044:780,-0.29538000000000003,-0.021332,-0.39859,-0.003879,-0.00484,0.002687,-39.75,2.56,-23.559998999999998,3b
2019-07-12_105044:800,-0.307068,-0.019806,-0.396545,-0.004184,-0.004596,0.003175,-39.75,2.56,-23.559998999999998,3b
2019-07-12_105044:820,-0.308075,-0.019318000000000002,-0.394012,-0.004520000000000001,-0.0045049999999999995,0.004396,-40.560001,2.25,-23.559998999999998,3b
2019-07-12_105044:840,-0.306061,-0.023375999999999997,-0.394531,-0.005222,-0.004383,0.005861,-40.560001,2.25,-23.559998999999998,3b
2019-07-12_105044:860,-0.300476,-0.024902,-0.391479,-0.006351,-0.00484,0.006654,-40.560001,2.25,-23.559998999999998,3b
2019-07-12_105044:880,-0.30249000000000004,-0.028442000000000002,-0.390961,-0.007297,-0.005573,0.007997,-40.560001,2.25,-23.18,3b
2019-07-12_105044:900,-0.30249000000000004,-0.030487,-0.387909,-0.008334999999999999,-0.005298,0.008729,-40.560001,2.25,-23.18,3b
2019-07-12_105044:920,-0.29486100000000004,-0.035583,-0.379791,-0.008732,-0.004169,0.008454999999999999,-39.369999,2.25,-22.75,3b
2019-07-12_105044:940,-0.28979499999999997,-0.038635,-0.379272,-0.00867,-0.002918,0.008699,-39.369999,2.25,-22.75,3b
2019-07-12_105044:960,-0.286224,-0.042175,-0.384338,-0.007755,-0.003589,0.009858,-39.369999,2.25,-22.75,3b
2019-07-12_105044:980,-0.29486100000000004,-0.043701,-0.388916,-0.006687,-0.005451,0.011781,-39.060001,3.0,-22.75,3b
2019-07-12_105045:000,-0.313171,-0.046265,-0.396057,-0.006076,-0.006731999999999999,0.012483,-39.060001,3.0,-22.75,3b
2019-07-12_105045:020,-0.323853,-0.044739,-0.401123,-0.006076,-0.006548999999999999,0.011964,-40.18,2.25,-23.18,3b
2019-07-12_105045:040,-0.327911,-0.045226999999999996,-0.40570100000000003,-0.006412,-0.005756,0.01169,-40.18,2.25,-23.18,3b
2019-07-12_105045:060,-0.328949,-0.044219999999999995,-0.406738,-0.007084,-0.004596,0.01169,-40.18,2.25,-23.18,3b
2019-07-12_105045:080,-0.326385,-0.042175,-0.401642,-0.007999,-0.003314,0.010164,-39.75,3.0,-23.559998999999998,3b
2019-07-12_105045:100,-0.321808,-0.039642000000000004,-0.40063499999999996,-0.008762,-0.0020629999999999997,0.007844,-39.75,3.0,-23.559998999999998,3b
2019-07-12_105045:120,-0.308075,-0.036591000000000005,-0.396545,-0.009128,-0.002002,0.005922,-39.75,3.25,-23.18,3b
2019-07-12_105045:140,-0.304016,-0.037598,-0.391479,-0.008884,-0.00246,0.005067,-39.75,3.25,-23.18,3b
2019-07-12_105045:160,-0.302002,-0.036072,-0.386902,-0.008091,-0.002338,0.004609,-39.75,3.25,-23.18,3b
2019-07-12_105045:180,-0.290802,-0.035065,-0.382812,-0.00687,-0.002124,0.004182,-39.75,3.25,-23.559998999999998,3b
2019-07-12_105045:200,-0.28775,-0.031494,-0.385376,-0.005741,-0.0032530000000000002,0.004091,-39.75,3.25,-23.559998999999998,3b
2019-07-12_105045:220,-0.29180900000000004,-0.028442000000000002,-0.386383,-0.004825,-0.004444,0.004732,-40.560001,2.56,-22.75,3b
2019-07-12_105045:240,-0.300964,-0.024902,-0.389435,-0.004581,-0.005054,0.004732,-40.560001,2.56,-22.75,3b
2019-07-12_105045:260,-0.307587,-0.023375999999999997,-0.392487,-0.004764,-0.004779,0.003572,-40.560001,2.56,-22.75,3b
2019-07-12_105045:280,-0.308594,-0.020844,-0.391968,-0.004978,-0.004169,0.0026260000000000003,-39.75,2.56,-22.75,3b
2019-07-12_105045:300,-0.307068,-0.021332,-0.390442,-0.005161,-0.0035280000000000003,0.001497,-39.75,2.56,-22.75,3b
2019-07-12_105045:320,-0.29895,-0.018799,-0.390961,-0.0052829999999999995,-0.0035280000000000003,0.000368,-40.18,3.68,-24.0,3b
2019-07-12_105045:340,-0.29995700000000003,-0.01828,-0.389954,-0.004947,-0.003833,-0.000212,-40.18,3.68,-24.0,3b
2019-07-12_105045:360,-0.300964,-0.016753999999999998,-0.388916,-0.004642,-0.00365,-0.000731,-40.18,3.68,-24.0,3b
2019-07-12_105045:380,-0.29895,-0.015747,-0.38739,-0.004520000000000001,-0.003375,-0.0017989999999999998,-39.369999,3.0,-22.75,3b
2019-07-12_105045:400,-0.296906,-0.013213999999999998,-0.386383,-0.004275999999999999,-0.003192,-0.001464,-39.369999,3.0,-22.75,3b
2019-07-12_105045:420,-0.29943800000000004,-0.009644,-0.386902,-0.004398,-0.003375,3.2e-05,-40.869999,2.56,-23.18,3b
2019-07-12_105045:440,-0.29742399999999997,-0.008636,-0.38385,-0.004764,-0.0035280000000000003,0.0011,-40.869999,2.56,-23.18,3b
2019-07-12_105045:460,-0.30249000000000004,-0.008118,-0.384857,-0.006229,-0.003467,-0.000151,-40.869999,2.56,-23.18,3b
2019-07-12_105045:480,-0.302002,-0.005065999999999999,-0.384338,-0.007267,-0.003467,-0.001402,-40.560001,3.0,-23.18,3b
2019-07-12_105045:500,-0.304535,-0.005065999999999999,-0.383331,-0.008152,-0.0032530000000000002,-0.002349,-40.560001,3.0,-23.18,3b
2019-07-12_105045:520,-0.307587,-0.0025329999999999997,-0.386383,-0.008609,-0.003314,-0.002532,-40.869999,1.87,-22.370001000000002,3b
2019-07-12_105045:540,-0.308594,-0.004059,-0.385376,-0.008029999999999999,-0.0030399999999999997,-0.00128,-40.869999,1.87,-22.370001000000002,3b
2019-07-12_105045:560,-0.312653,-0.0025329999999999997,-0.385864,-0.007267,-0.00307,-0.000212,-40.869999,1.87,-22.370001000000002,3b
2019-07-12_105045:580,-0.312164,-0.000488,-0.385376,-0.006412,-0.002796,6.2e-05,-40.560001,1.5,-23.18,3b
2019-07-12_105045:600,-0.312164,0.001495,-0.38385,-0.005893,-0.002979,0.000795,-40.560001,1.5,-23.18,3b
2019-07-12_105045:620,-0.312653,0.002014,-0.383331,-0.005771,-0.0035280000000000003,0.0016489999999999999,-40.869999,1.06,-24.370001000000002,3b
2019-07-12_105045:640,-0.314178,0.0025329999999999997,-0.382812,-0.005954,-0.004566,0.002046,-40.869999,1.06,-24.370001000000002,3b
2019-07-12_105045:660,-0.315704,0.0025329999999999997,-0.382812,-0.006626000000000001,-0.005176,0.0025039999999999997,-40.869999,1.06,-24.370001000000002,3b
2019-07-12_105045:680,-0.318268,0.001007,-0.384338,-0.0067480000000000005,-0.005725,0.0026260000000000003,-40.869999,1.06,-21.559998999999998,3b
2019-07-12_105045:700,-0.320282,-0.001007,-0.382812,-0.007023000000000001,-0.006275,0.002168,-40.869999,1.06,-21.559998999999998,3b
2019-07-12_105045:720,-0.312164,-0.000488,-0.381317,-0.006504,-0.006488,0.001588,-40.18,1.5,-22.370001000000002,3b
2019-07-12_105045:740,-0.308594,-0.002014,-0.379791,-0.005832,-0.006793,0.0007030000000000001,-40.18,1.5,-22.370001000000002,3b
2019-07-12_105045:760,-0.29995700000000003,0.0025329999999999997,-0.378265,-0.005375,-0.007465,0.000123,-40.18,1.5,-22.370001000000002,3b
2019-07-12_105045:780,-0.297913,0.001495,-0.377228,-0.004642,-0.008533,0.000795,-41.25,1.5,-22.0,3b
2019-07-12_105045:800,-0.29486100000000004,0.005065999999999999,-0.380798,-0.004459,-0.009937,0.001192,-41.25,1.5,-22.0,3b
2019-07-12_105045:820,-0.29943800000000004,0.007111,-0.386383,-0.004886,-0.011188,0.000917,-41.25,1.06,-22.370001000000002,3b
2019-07-12_105045:840,-0.305054,0.008636,-0.391479,-0.005375,-0.01192,0.001527,-41.25,1.06,-22.370001000000002,3b
2019-07-12_105045:860,-0.311127,0.007111,-0.394531,-0.005771,-0.011859,0.0016489999999999999,-41.25,1.06,-22.370001000000002,3b
2019-07-12_105045:880,-0.316223,0.009125,-0.398071,-0.006351,-0.011127,0.001253,-40.869999,1.06,-24.0,3b
2019-07-12_105045:900,-0.315704,0.009125,-0.399109,-0.006626000000000001,-0.009387000000000001,0.001588,-40.869999,1.06,-24.0,3b
2019-07-12_105045:920,-0.314697,0.005065999999999999,-0.40011599999999997,-0.006687,-0.008136,0.001832,-40.560001,0.75,-23.559998999999998,3b
2019-07-12_105045:940,-0.312653,0.0035399999999999997,-0.397583,-0.006351,-0.0066099999999999996,0.0011,-40.560001,0.75,-23.559998999999998,3b
2019-07-12_105045:960,-0.307587,0.0025329999999999997,-0.395538,-0.005222,-0.005725,0.000978,-40.560001,0.75,-23.559998999999998,3b
2019-07-12_105045:980,-0.305054,0.0025329999999999997,-0.393494,-0.003788,-0.005359,0.001497,-40.560001,0.75,-23.559998999999998,3b
2019-07-12_105046:000,-0.30249000000000004,0.0035399999999999997,-0.388428,-0.002475,-0.005634,0.001588,-40.560001,0.75,-23.559998999999998,3b
2019-07-12_105046:020,-0.30249000000000004,0.005065999999999999,-0.385864,-0.001529,-0.0060609999999999995,0.0016489999999999999,-40.18,0.37,-24.0,3b
2019-07-12_105046:040,-0.302002,0.006072999999999999,-0.38385,-0.001285,-0.006458,0.001527,-40.18,0.37,-24.0,3b
2019-07-12_105046:060,-0.298431,0.008636,-0.384338,-0.001407,-0.0076170000000000005,0.001497,-40.18,0.37,-24.0,3b
2019-07-12_105046:080,-0.30249000000000004,0.009125,-0.388428,-0.0018039999999999998,-0.008716,0.0019850000000000002,-40.18,0.37,-23.18,3b
2019-07-12_105046:100,-0.30300900000000003,0.008636,-0.388428,-0.002597,-0.009448,0.002321,-40.18,0.37,-23.18,3b
2019-07-12_105046:120,-0.30654899999999996,0.007111,-0.390961,-0.003452,-0.009601,0.001832,-40.560001,0.75,-22.75,3b
2019-07-12_105046:140,-0.307587,0.006072999999999999,-0.392487,-0.004184,-0.009204,0.0016489999999999999,-40.560001,0.75,-22.75,3b
2019-07-12_105046:160,-0.30249000000000004,0.004547,-0.393005,-0.004398,-0.009143,0.001832,-40.560001,0.75,-22.75,3b
2019-07-12_105046:180,-0.305542,0.0035399999999999997,-0.395538,-0.004581,-0.009143,0.0017100000000000001,-42.060001,0.37,-22.75,3b
2019-07-12_105046:200,-0.300476,0.0025329999999999997,-0.394012,-0.004520000000000001,-0.008808,0.001375,-42.060001,0.37,-22.75,3b
2019-07-12_105046:220,-0.29943800000000004,0.001495,-0.396057,-0.004184,-0.008869,0.001253,-40.18,0.37,-23.18,3b
2019-07-12_105046:240,-0.302002,0.002014,-0.397583,-0.003452,-0.00893,0.001375,-40.18,0.37,-23.18,3b
2019-07-12_105046:260,-0.30300900000000003,0.004059,-0.398071,-0.002933,-0.008411,0.002687,-40.18,0.37,-23.18,3b
2019-07-12_105046:280,-0.304016,0.004547,-0.39859,-0.002536,-0.007862000000000001,0.0032359999999999997,-40.18,0.37,-22.370001000000002,3b
2019-07-12_105046:300,-0.303528,0.0055850000000000006,-0.397583,-0.002994,-0.007281999999999999,0.003114,-40.18,0.37,-22.370001000000002,3b
2019-07-12_105046:320,-0.29995700000000003,0.007111,-0.399597,-0.003544,-0.006854000000000001,0.003633,-40.18,0.37,-24.0,3b
2019-07-12_105046:340,-0.29995700000000003,0.006072999999999999,-0.396545,-0.004337,-0.0066099999999999996,0.004213000000000001,-40.18,0.37,-24.0,3b
2019-07-12_105046:360,-0.298431,0.002014,-0.39859,-0.004947,-0.006670999999999999,0.004152,-40.18,0.37,-24.0,3b
2019-07-12_105046:380,-0.29895,0.000488,-0.398071,-0.0051,-0.006458,0.003908,-40.18,0.0,-24.370001000000002,3b
2019-07-12_105046:400,-0.29943800000000004,-0.000488,-0.39859,-0.004947,-0.005878,0.00403,-40.18,0.0,-24.370001000000002,3b
2019-07-12_105046:420,-0.30300900000000003,-0.001007,-0.398071,-0.004612,-0.005756,0.00403,-39.75,0.37,-24.0,3b
2019-07-12_105046:440,-0.29895,0.0,-0.394012,-0.00394,-0.0052369999999999995,0.0038469999999999997,-39.75,0.37,-24.0,3b
2019-07-12_105046:460,-0.29895,0.0,-0.398071,-0.003788,-0.0052369999999999995,0.003023,-39.75,0.37,-24.0,3b
2019-07-12_105046:480,-0.29995700000000003,0.0025329999999999997,-0.397583,-0.0037270000000000003,-0.005115,0.003358,-39.75,-0.37,-24.75,3b
2019-07-12_105046:500,-0.300964,0.000488,-0.39859,-0.0033909999999999995,-0.004901,0.004274,-39.75,-0.37,-24.75,3b
2019-07-12_105046:520,-0.29943800000000004,0.001495,-0.39859,-0.0032689999999999998,-0.0045049999999999995,0.004335,-40.560001,0.0,-23.559998999999998,3b
2019-07-12_105046:540,-0.29943800000000004,0.0025329999999999997,-0.397583,-0.003452,-0.0045049999999999995,0.004182,-40.560001,0.0,-23.559998999999998,3b
2019-07-12_105046:560,-0.29995700000000003,0.002014,-0.396057,-0.003849,-0.00426,0.004671,-40.560001,0.0,-23.559998999999998,3b
2019-07-12_105046:580,-0.300964,0.0025329999999999997,-0.396057,-0.004275999999999999,-0.004169,0.004793,-39.75,0.37,-24.370001000000002,3b
2019-07-12_105046:600,-0.300964,0.000488,-0.396057,-0.004581,-0.003986,0.004518,-39.75,0.37,-24.370001000000002,3b
2019-07-12_105046:620,-0.300964,-0.000488,-0.396057,-0.004612,-0.004108,0.004548,-40.560001,0.0,-22.75,3b
2019-07-12_105046:640,-0.305054,-0.001495,-0.396057,-0.004581,-0.003925,0.004854,-40.560001,0.0,-22.75,3b
2019-07-12_105046:660,-0.304535,-0.001495,-0.396057,-0.004520000000000001,-0.003711,0.004518,-40.560001,0.0,-22.75,3b
2019-07-12_105046:680,-0.305054,0.0,-0.395538,-0.004337,-0.0037719999999999997,0.004548,-40.18,0.37,-24.0,3b
2019-07-12_105046:700,-0.304535,-0.001007,-0.394012,-0.004337,-0.003467,0.004732,-40.18,0.37,-24.0,3b
2019-07-12_105046:720,-0.303528,-0.000488,-0.391479,-0.004123,-0.00365,0.004945000000000001,-40.18,0.37,-24.0,3b
2019-07-12_105046:740,-0.30300900000000003,-0.001495,-0.389954,-0.003879,-0.0037719999999999997,0.00525,-40.18,0.37,-24.0,3b
2019-07-12_105046:760,-0.30300900000000003,-0.001495,-0.389954,-0.003788,-0.004108,0.005311,-40.18,0.37,-24.0,3b
2019-07-12_105046:780,-0.30249000000000004,-0.002014,-0.389954,-0.003544,-0.004169,0.00525,-40.18,0.0,-22.75,3b
2019-07-12_105046:800,-0.30249000000000004,-0.0025329999999999997,-0.388428,-0.003544,-0.004718,0.005464,-40.18,0.0,-22.75,3b
2019-07-12_105046:820,-0.300476,-0.0030210000000000002,-0.389954,-0.003544,-0.004993,0.0058,-40.18,0.37,-23.559998999999998,3b
2019-07-12_105046:840,-0.302002,-0.0025329999999999997,-0.38739,-0.003483,-0.005573,0.0058,-40.18,0.37,-23.559998999999998,3b
2019-07-12_105046:860,-0.305054,-0.0035399999999999997,-0.389954,-0.0037270000000000003,-0.0060609999999999995,0.005647,-40.18,0.37,-23.559998999999998,3b
2019-07-12_105046:880,-0.30300900000000003,-0.0055850000000000006,-0.388428,-0.0036659999999999996,-0.005939,0.005525,-39.75,1.06,-23.18,3b
2019-07-12_105046:900,-0.30654899999999996,-0.0055850000000000006,-0.392487,-0.00394,-0.006397,0.005189,-39.75,1.06,-23.18,3b
2019-07-12_105046:920,-0.30249000000000004,-0.007599,-0.390442,-0.004184,-0.006458,0.004335,-40.869999,0.0,-23.18,3b
2019-07-12_105046:940,-0.305054,-0.007111,-0.393005,-0.00394,-0.006670999999999999,0.0037549999999999997,-40.869999,0.0,-23.18,3b
2019-07-12_105046:960,-0.304016,-0.006072999999999999,-0.395538,-0.0036659999999999996,-0.006885,0.0032359999999999997,-40.869999,0.0,-23.18,3b
2019-07-12_105046:980,-0.30249000000000004,-0.005065999999999999,-0.390961,-0.003147,-0.006670999999999999,0.003908,-39.75,0.37,-22.370001000000002,3b
2019-07-12_105047:000,-0.30300900000000003,-0.004547,-0.391968,-0.0027199999999999998,-0.0066099999999999996,0.004182,-39.75,0.37,-22.370001000000002,3b
2019-07-12_105047:020,-0.300964,-0.001007,-0.391479,-0.002933,-0.006854000000000001,0.003908,-40.560001,0.0,-25.18,3b
2019-07-12_105047:040,-0.29943800000000004,0.0,-0.390442,-0.003208,-0.006854000000000001,0.004335,-40.560001,0.0,-25.18,3b
2019-07-12_105047:060,-0.29995700000000003,-0.001495,-0.394012,-0.00394,-0.007220999999999999,0.005311,-40.560001,0.0,-25.18,3b
2019-07-12_105047:080,-0.300964,-0.0035399999999999997,-0.395538,-0.004764,-0.007739,0.005586,-39.75,0.0,-23.559998999999998,3b
2019-07-12_105047:100,-0.30654899999999996,-0.006592,-0.396057,-0.005375,-0.007984,0.005647,-39.75,0.0,-23.559998999999998,3b
2019-07-12_105047:120,-0.30654899999999996,-0.008118,-0.397583,-0.005497,-0.007220999999999999,0.005586,-40.869999,0.0,-23.559998999999998,3b
2019-07-12_105047:140,-0.310638,-0.008636,-0.398071,-0.005497,-0.0066099999999999996,0.005342,-40.869999,0.0,-23.559998999999998,3b
2019-07-12_105047:160,-0.30249000000000004,-0.009125,-0.395538,-0.0051,-0.00539,0.005311,-40.869999,0.0,-23.559998999999998,3b
2019-07-12_105047:180,-0.29995700000000003,-0.009125,-0.396057,-0.004886,-0.005359,0.004609,-39.75,0.37,-23.559998999999998,3b
2019-07-12_105047:200,-0.29895,-0.005065999999999999,-0.396057,-0.004825,-0.005298,0.0039689999999999994,-39.75,0.37,-23.559998999999998,3b
2019-07-12_105047:220,-0.30249000000000004,-0.007111,-0.397064,-0.004337,-0.005451,0.004793,-40.18,1.06,-22.370001000000002,3b
2019-07-12_105047:240,-0.303528,-0.007111,-0.39502,-0.004275999999999999,-0.005451,0.004945000000000001,-40.18,1.06,-22.370001000000002,3b
2019-07-12_105047:260,-0.30249000000000004,-0.004547,-0.394012,-0.004520000000000001,-0.005054,0.004335,-40.18,1.06,-22.370001000000002,3b
2019-07-12_105047:280,-0.300964,-0.0030210000000000002,-0.39502,-0.004825,-0.004901,0.004396,-39.75,0.37,-22.75,3b
2019-07-12_105047:300,-0.300964,-0.004059,-0.395538,-0.005222,-0.004779,0.004671,-39.75,0.37,-22.75,3b
2019-07-12_105047:320,-0.30249000000000004,-0.0035399999999999997,-0.394531,-0.005497,-0.004993,0.004396,-39.75,0.37,-24.0,3b
2019-07-12_105047:340,-0.30249000000000004,-0.006072999999999999,-0.393494,-0.005679999999999999,-0.005054,0.004548,-39.75,0.37,-24.0,3b
2019-07-12_105047:360,-0.305542,-0.006072999999999999,-0.39502,-0.005558,-0.005054,0.004793,-39.75,0.37,-24.0,3b
2019-07-12_105047:380,-0.304016,-0.008118,-0.393494,-0.0052829999999999995,-0.00484,0.004396,-40.560001,0.0,-24.370001000000002,3b
2019-07-12_105047:400,-0.303528,-0.005065999999999999,-0.392487,-0.004947,-0.004657,0.004548,-40.560001,0.0,-24.370001000000002,3b
2019-07-12_105047:420,-0.30249000000000004,-0.004059,-0.394012,-0.004825,-0.004596,0.004518,-40.18,0.0,-24.0,3b
2019-07-12_105047:440,-0.304535,-0.001007,-0.391479,-0.0051,-0.0045049999999999995,0.004732,-40.18,0.0,-24.0,3b
2019-07-12_105047:460,-0.30300900000000003,-0.0025329999999999997,-0.391968,-0.005375,-0.004779,0.005006,-40.18,0.0,-24.0,3b
2019-07-12_105047:480,-0.30300900000000003,-0.004059,-0.390961,-0.005679999999999999,-0.004566,0.004945000000000001,-39.75,1.06,-24.370001000000002,3b
2019-07-12_105047:500,-0.305542,-0.005065999999999999,-0.39502,-0.005832,-0.004657,0.004548,-39.75,1.06,-24.370001000000002,3b
2019-07-12_105047:520,-0.305054,-0.0035399999999999997,-0.394531,-0.005497,-0.004657,0.004793,-40.18,1.06,-24.0,3b
2019-07-12_105047:540,-0.303528,-0.0055850000000000006,-0.390442,-0.005344,-0.004321,0.005067,-40.18,1.06,-24.0,3b
2019-07-12_105047:560,-0.304535,-0.005065999999999999,-0.392487,-0.005039,-0.004596,0.005525,-40.18,1.06,-24.0,3b
2019-07-12_105047:580,-0.308594,-0.004547,-0.391968,-0.004612,-0.004779,0.005586,-40.560001,0.37,-23.559998999999998,3b
2019-07-12_105047:600,-0.307587,-0.0055850000000000006,-0.390961,-0.004764,-0.004229999999999999,0.005403,-40.560001,0.37,-23.559998999999998,3b
2019-07-12_105047:620,-0.308075,-0.005065999999999999,-0.391968,-0.004947,-0.004444,0.005311,-39.369999,0.0,-24.370001000000002,3b
2019-07-12_105047:640,-0.309601,-0.005065999999999999,-0.389954,-0.0051,-0.004444,0.004915,-39.369999,0.0,-24.370001000000002,3b
2019-07-12_105047:660,-0.305542,-0.008118,-0.388916,-0.005161,-0.004383,0.004335,-39.369999,0.0,-24.370001000000002,3b
2019-07-12_105047:680,-0.308075,-0.008118,-0.390442,-0.005161,-0.004657,0.003633,-40.18,0.75,-23.18,3b
2019-07-12_105047:700,-0.305054,-0.009644,-0.389954,-0.004612,-0.004566,0.004152,-40.18,0.75,-23.18,3b
2019-07-12_105047:720,-0.305542,-0.010162000000000001,-0.389435,-0.003879,-0.004779,0.004945000000000001,-39.75,0.37,-24.0,3b
2019-07-12_105047:740,-0.304016,-0.007599,-0.387909,-0.003452,-0.00484,0.004213000000000001,-39.75,0.37,-24.0,3b
2019-07-12_105047:760,-0.304016,-0.008118,-0.387909,-0.0033299999999999996,-0.004993,0.003633,-39.75,0.37,-24.0,3b
2019-07-12_105047:780,-0.304535,-0.006592,-0.389435,-0.003208,-0.005451,0.0039689999999999994,-40.18,1.06,-24.0,3b
2019-07-12_105047:800,-0.304535,-0.007111,-0.388428,-0.003788,-0.006,0.0037549999999999997,-40.18,1.06,-24.0,3b
2019-07-12_105047:820,-0.306061,-0.008636,-0.390442,-0.004001,-0.0061530000000000005,0.003358,-40.560001,0.75,-22.0,3b
2019-07-12_105047:840,-0.308594,-0.009125,-0.388428,-0.004184,-0.006548999999999999,0.003114,-40.560001,0.75,-22.0,3b
2019-07-12_105047:860,-0.309113,-0.009125,-0.389435,-0.003879,-0.006092,0.0029620000000000002,-40.560001,0.75,-22.0,3b
2019-07-12_105047:880,-0.307587,-0.008118,-0.388916,-0.003879,-0.006,0.003114,-39.75,0.75,-24.75,3b
2019-07-12_105047:900,-0.305054,-0.010162000000000001,-0.390442,-0.003544,-0.005756,0.002778,-39.75,0.75,-24.75,3b
2019-07-12_105047:920,-0.304535,-0.007599,-0.391479,-0.0037270000000000003,-0.006336,0.002107,-39.75,0.75,-22.370001000000002,3b
2019-07-12_105047:940,-0.306061,-0.007599,-0.388428,-0.003544,-0.006548999999999999,0.002443,-39.75,0.75,-22.370001000000002,3b
2019-07-12_105047:960,-0.30654899999999996,-0.006072999999999999,-0.391479,-0.003483,-0.006670999999999999,0.003053,-39.75,0.75,-22.370001000000002,3b
2019-07-12_105047:980,-0.30654899999999996,-0.006072999999999999,-0.389954,-0.003849,-0.0066099999999999996,0.0025039999999999997,-40.560001,0.37,-23.18,3b
2019-07-12_105048:000,-0.30654899999999996,-0.005065999999999999,-0.389435,-0.004398,-0.006458,0.002687,-40.560001,0.37,-23.18,3b
2019-07-12_105048:020,-0.309601,-0.007599,-0.392487,-0.004764,-0.006793,0.002778,-40.869999,0.0,-24.0,3b
2019-07-12_105048:040,-0.308075,-0.006592,-0.390442,-0.005039,-0.006214,0.002229,-40.869999,0.0,-24.0,3b
2019-07-12_105048:060,-0.308594,-0.008636,-0.391479,-0.0052829999999999995,-0.006,0.002168,-40.869999,0.0,-24.0,3b
2019-07-12_105048:080,-0.307587,-0.008636,-0.390961,-0.004978,-0.006092,0.002168,-39.369999,0.37,-23.18,3b
2019-07-12_105048:100,-0.30654899999999996,-0.007599,-0.390442,-0.004978,-0.005573,0.001893,-39.369999,0.37,-23.18,3b
2019-07-12_105048:120,-0.307068,-0.006072999999999999,-0.388916,-0.004947,-0.005756,0.001436,-40.560001,0.37,-23.18,3b
2019-07-12_105048:140,-0.30654899999999996,-0.0035399999999999997,-0.388916,-0.0051,-0.005725,0.001253,-40.560001,0.37,-23.18,3b
2019-07-12_105048:160,-0.304535,-0.002014,-0.390442,-0.005558,-0.005634,0.001314,-40.560001,0.37,-23.18,3b
2019-07-12_105048:180,-0.305542,-0.001007,-0.390442,-0.005832,-0.005756,0.001375,-39.75,0.0,-22.0,3b
2019-07-12_105048:200,-0.305054,-0.002014,-0.390961,-0.006412,-0.0060609999999999995,0.001436,-39.75,0.0,-22.0,3b
2019-07-12_105048:220,-0.305054,-0.0025329999999999997,-0.391968,-0.006809,-0.006,0.001161,-39.75,0.0,-23.18,3b
2019-07-12_105048:240,-0.30654899999999996,-0.002014,-0.390442,-0.006809,-0.006214,0.001039,-39.75,0.0,-23.18,3b
2019-07-12_105048:260,-0.304016,0.0,-0.391968,-0.00687,-0.0060609999999999995,0.001253,-39.75,0.0,-23.18,3b
2019-07-12_105048:280,-0.309113,0.001495,-0.391968,-0.006504,-0.0061530000000000005,0.0016489999999999999,-39.060001,0.37,-22.0,3b
2019-07-12_105048:300,-0.30654899999999996,0.0035399999999999997,-0.391968,-0.0065650000000000005,-0.005817,0.002382,-39.060001,0.37,-22.0,3b
2019-07-12_105048:320,-0.30654899999999996,0.0025329999999999997,-0.391479,-0.0067480000000000005,-0.005817,0.003694,-41.25,0.0,-22.370001000000002,3b
2019-07-12_105048:340,-0.309113,0.0035399999999999997,-0.391968,-0.007418999999999999,-0.005725,0.0039689999999999994,-41.25,0.0,-22.370001000000002,3b
2019-07-12_105048:360,-0.30249000000000004,0.0030210000000000002,-0.391968,-0.008213,-0.005634,0.004091,-41.25,0.0,-22.370001000000002,3b
2019-07-12_105048:380,-0.304535,0.001495,-0.393494,-0.008609,-0.005725,0.004518,-39.369999,0.0,-23.18,3b
2019-07-12_105048:400,-0.305542,0.0,-0.394012,-0.008945,-0.005634,0.005189,-39.369999,0.0,-23.18,3b
2019-07-12_105048:420,-0.305542,-0.001495,-0.393005,-0.008823000000000001,-0.005725,0.006654,-40.869999,-0.68,-23.559998999999998,3b
2019-07-12_105048:440,-0.308594,0.0,-0.393494,-0.008548,-0.005451,0.006654,-40.869999,-0.68,-23.559998999999998,3b
2019-07-12_105048:460,-0.306061,0.0,-0.392487,-0.008823000000000001,-0.0052369999999999995,0.006379,-40.869999,-0.68,-23.559998999999998,3b
2019-07-12_105048:480,-0.30249000000000004,0.0,-0.391968,-0.009128,-0.004901,0.006135,-40.18,-0.37,-23.18,3b
2019-07-12_105048:500,-0.303528,-0.001495,-0.392487,-0.009525,-0.005054,0.005922,-40.18,-0.37,-23.18,3b
2019-07-12_105048:520,-0.304016,-0.001495,-0.394012,-0.009617,-0.005359,0.005647,-40.18,0.0,-22.0,3b
2019-07-12_105048:540,-0.304016,-0.001007,-0.389954,-0.009556,-0.005573,0.005586,-40.18,0.0,-22.0,3b
2019-07-12_105048:560,-0.305054,0.0,-0.391479,-0.009464,-0.005573,0.005647,-40.18,0.0,-22.0,3b
2019-07-12_105048:580,-0.30654899999999996,0.0,-0.391968,-0.009403,-0.005359,0.005586,-40.560001,0.0,-22.75,3b
2019-07-12_105048:600,-0.307587,0.0,-0.391479,-0.009403,-0.005298,0.004854,-40.560001,0.0,-22.75,3b
2019-07-12_105048:620,-0.305542,0.002014,-0.393005,-0.0098,-0.005054,0.004213000000000001,-39.75,-0.37,-21.559998999999998,3b
2019-07-12_105048:640,-0.302002,0.001495,-0.390442,-0.0098,-0.005298,0.004793,-39.75,-0.37,-21.559998999999998,3b
2019-07-12_105048:660,-0.305542,0.000488,-0.393494,-0.009678,-0.00539,0.004854,-39.75,-0.37,-21.559998999999998,3b
2019-07-12_105048:680,-0.305054,0.001007,-0.392487,-0.009525,-0.0052369999999999995,0.004091,-39.75,-1.06,-22.75,3b
2019-07-12_105048:700,-0.308594,0.0025329999999999997,-0.392487,-0.009403,-0.005054,0.004152,-39.75,-1.06,-22.75,3b
2019-07-12_105048:720,-0.309113,0.0030210000000000002,-0.391968,-0.008945,-0.00484,0.004091,-40.18,-1.5,-23.18,3b
2019-07-12_105048:740,-0.311127,0.0035399999999999997,-0.390961,-0.009067,-0.004596,0.003572,-40.18,-1.5,-23.18,3b
2019-07-12_105048:760,-0.305542,0.006072999999999999,-0.38739,-0.008609,-0.004779,0.0038159999999999995,-40.18,-1.5,-23.18,3b
2019-07-12_105048:780,-0.304535,0.0055850000000000006,-0.386902,-0.008609,-0.00539,0.0038159999999999995,-39.75,0.0,-24.0,3b
2019-07-12_105048:800,-0.30654899999999996,0.005065999999999999,-0.385864,-0.008274,-0.005878,0.00345,-39.75,0.0,-24.0,3b
2019-07-12_105048:820,-0.308075,0.006072999999999999,-0.386902,-0.0076939999999999995,-0.006275,0.0034189999999999997,-41.25,-1.87,-23.18,3b
2019-07-12_105048:840,-0.312653,0.007111,-0.384338,-0.007206000000000001,-0.006458,0.003175,-41.25,-1.87,-23.18,3b
2019-07-12_105048:860,-0.312164,0.008118,-0.384857,-0.007023000000000001,-0.005939,0.0029620000000000002,-41.25,-1.87,-23.18,3b
2019-07-12_105048:880,-0.307587,0.012695,-0.384338,-0.0067480000000000005,-0.006458,0.0034189999999999997,-40.560001,-0.37,-22.370001000000002,3b
2019-07-12_105048:900,-0.305054,0.011169,-0.382812,-0.0067480000000000005,-0.006488,0.003694,-40.560001,-0.37,-22.370001000000002,3b
2019-07-12_105048:920,-0.304535,0.012695,-0.386902,-0.0069,-0.007404000000000001,0.003908,-40.18,-1.06,-23.559998999999998,3b
2019-07-12_105048:940,-0.30654899999999996,0.012695,-0.385864,-0.0067480000000000005,-0.007923000000000001,0.004609,-40.18,-1.06,-23.559998999999998,3b
2019-07-12_105048:960,-0.309601,0.011169,-0.388428,-0.006809,-0.008258,0.005128,-40.18,-1.06,-23.559998999999998,3b
2019-07-12_105048:980,-0.313171,0.013213999999999998,-0.388916,-0.006809,-0.00838,0.005586,-39.75,-0.37,-23.18,3b
2019-07-12_105049:000,-0.309601,0.017792,-0.389435,-0.007418999999999999,-0.008258,0.006929,-39.75,-0.37,-23.18,3b
2019-07-12_105049:020,-0.309601,0.017792,-0.392487,-0.007999,-0.008258,0.008516,-40.560001,-0.68,-24.370001000000002,3b
2019-07-12_105049:040,-0.31012,0.016266,-0.393494,-0.009067,-0.007862000000000001,0.008973,-40.560001,-0.68,-24.370001000000002,3b
2019-07-12_105049:060,-0.308594,0.016753999999999998,-0.39502,-0.010074,-0.00719,0.008516,-40.560001,-0.68,-24.370001000000002,3b
2019-07-12_105049:080,-0.314697,0.014221000000000001,-0.39502,-0.011142,-0.006336,0.008729,-39.75,-0.68,-22.370001000000002,3b
2019-07-12_105049:100,-0.308594,0.015747,-0.389954,-0.0116,-0.005634,0.010164,-39.75,-0.68,-22.370001000000002,3b
2019-07-12_105049:120,-0.308594,0.014221000000000001,-0.386902,-0.012272,-0.004718,0.010957,-39.75,-0.68,-23.559998999999998,3b
2019-07-12_105049:140,-0.29995700000000003,0.014221000000000001,-0.380798,-0.013248,-0.004229999999999999,0.010255,-39.75,-0.68,-23.559998999999998,3b
2019-07-12_105049:160,-0.29995700000000003,0.019806,-0.374176,-0.013797,-0.004229999999999999,0.008851000000000001,-39.75,-0.68,-23.559998999999998,3b
2019-07-12_105049:180,-0.300964,0.021851,-0.376221,-0.014469,-0.004993,0.006868000000000001,-40.18,-0.37,-23.18,3b
2019-07-12_105049:200,-0.29943800000000004,0.031494,-0.382812,-0.014988,-0.006275,0.004396,-40.18,-0.37,-23.18,3b
2019-07-12_105049:220,-0.29995700000000003,0.033539,-0.384338,-0.015171,-0.007923000000000001,0.0025039999999999997,-40.18,-1.06,-23.18,3b
2019-07-12_105049:240,-0.293854,0.038635,-0.385864,-0.015049000000000002,-0.00954,0.0011,-40.18,-1.06,-23.18,3b
2019-07-12_105049:260,-0.285217,0.047791,-0.391968,-0.014530000000000001,-0.011371,0.0007639999999999999,-40.18,-1.06,-23.18,3b
2019-07-12_105049:280,-0.28775,0.051330999999999995,-0.397583,-0.013584,-0.012927000000000001,0.000642,-40.18,-1.5,-23.559998999999998,3b
2019-07-12_105049:300,-0.286224,0.056427,-0.402161,-0.012272,-0.014422999999999998,-0.000609,-40.18,-1.5,-23.559998999999998,3b
2019-07-12_105049:320,-0.29284699999999997,0.06149299999999999,-0.409271,-0.011142,-0.01369,-0.001402,-39.369999,-1.87,-23.18,3b
2019-07-12_105049:340,-0.296387,0.066589,-0.408752,-0.009464,-0.012195000000000001,0.0005200000000000001,-39.369999,-1.87,-23.18,3b
2019-07-12_105049:360,-0.300964,0.066589,-0.411804,-0.007755,-0.009784000000000001,0.00229,-39.369999,-1.87,-23.18,3b
2019-07-12_105049:380,-0.298431,0.064545,-0.411285,-0.0061070000000000004,-0.0070680000000000005,0.00229,-39.060001,-3.0,-23.18,3b
2019-07-12_105049:400,-0.29284699999999997,0.06149299999999999,-0.40774499999999997,-0.004184,-0.0055119999999999995,0.001375,-39.060001,-3.0,-23.18,3b
2019-07-12_105049:420,-0.290802,0.057953,-0.410797,-0.00159,-0.004566,-2.8999999999999997e-05,-39.75,-2.18,-24.0,3b
2019-07-12_105049:440,-0.28979499999999997,0.056427,-0.409271,0.001187,-0.003833,-0.003081,-39.75,-2.18,-24.0,3b
2019-07-12_105049:460,-0.291321,0.057434000000000006,-0.40823400000000004,0.004116,-0.00307,-0.005248,-39.75,-2.18,-24.0,3b
2019-07-12_105049:480,-0.300476,0.059479,-0.410797,0.0068319999999999995,-0.001575,-0.005736,-39.75,-2.18,-22.75,3b
2019-07-12_105049:500,-0.307587,0.063538,-0.401642,0.009212999999999999,0.00040899999999999997,-0.005675,-39.75,-2.18,-22.75,3b
2019-07-12_105049:520,-0.312164,0.064545,-0.40011599999999997,0.010464,0.00224,-0.0063159999999999996,-40.18,-3.0,-24.75,3b
2019-07-12_105049:540,-0.300964,0.066589,-0.396545,0.011746,0.0027890000000000002,-0.007567,-40.18,-3.0,-24.75,3b
2019-07-12_105049:560,-0.29742399999999997,0.066589,-0.393494,0.012387,0.002514,-0.008116,-40.18,-3.0,-24.75,3b
2019-07-12_105049:580,-0.300964,0.066071,-0.393494,0.012997,0.001599,-0.0075060000000000005,-39.369999,-1.5,-22.75,3b
2019-07-12_105049:600,-0.311127,0.066589,-0.390442,0.012875,0.001385,-0.0063159999999999996,-39.369999,-1.5,-22.75,3b
2019-07-12_105049:620,-0.314697,0.067108,-0.389954,0.011868,0.001263,-0.004850999999999999,-40.18,-2.18,-22.75,3b
2019-07-12_105049:640,-0.315704,0.067596,-0.392487,0.011013,0.000256,-0.003722,-40.18,-2.18,-22.75,3b
2019-07-12_105049:660,-0.313171,0.06405599999999999,-0.387909,0.009793000000000001,-0.00047599999999999997,-0.002471,-40.18,-2.18,-22.75,3b
2019-07-12_105049:680,-0.315704,0.061005,-0.38739,0.008145,-0.001056,-0.0015550000000000002,-40.869999,-2.56,-23.18,3b
2019-07-12_105049:700,-0.314697,0.058441,-0.385376,0.006375,-0.0008730000000000001,0.000642,-40.869999,-2.56,-23.18,3b
2019-07-12_105049:720,-0.310638,0.048798,-0.377228,0.005093,-0.000324,0.003633,-40.869999,-2.18,-22.75,3b
2019-07-12_105049:740,-0.308594,0.041168,-0.375702,0.003628,-0.000263,0.005342,-40.869999,-2.18,-22.75,3b
2019-07-12_105049:760,-0.308594,0.03302,-0.374176,0.002987,-0.001575,0.005525,-40.869999,-2.18,-22.75,3b
2019-07-12_105049:780,-0.311646,0.028961,-0.378754,0.00259,-0.002735,0.005067,-40.869999,-2.5,-22.0,3b
2019-07-12_105049:800,-0.311646,0.026427999999999997,-0.379791,0.002316,-0.005756,0.002321,-40.869999,-2.5,-22.0,3b
2019-07-12_105049:820,-0.314178,0.024902,-0.381317,0.002316,-0.0066099999999999996,0.001924,-41.25,-2.06,-22.0,3b
2019-07-12_105049:840,-0.314178,0.023895,-0.378754,0.002255,-0.007923000000000001,0.002565,-41.25,-2.06,-22.0,3b
2019-07-12_105049:860,-0.31012,0.020844,-0.378265,0.00198,-0.008014,0.0026260000000000003,-41.25,-2.06,-22.0,3b
2019-07-12_105049:880,-0.308075,0.01828,-0.37674,0.002041,-0.008258,0.001832,-40.18,-1.75,-23.18,3b
2019-07-12_105049:900,-0.309113,0.013702,-0.374695,0.002499,-0.008472,0.001161,-40.18,-1.75,-23.18,3b
2019-07-12_105049:920,-0.312164,0.012177,-0.378754,0.002987,-0.00838,0.001253,-39.75,-1.75,-22.75,3b
2019-07-12_105049:940,-0.314697,0.010651,-0.37674,0.003964,-0.007678,0.002321,-39.75,-1.75,-22.75,3b
2019-07-12_105049:960,-0.315704,0.004547,-0.37112399999999995,0.004757,-0.006793,0.0038469999999999997,-39.75,-1.75,-22.75,3b
2019-07-12_105049:980,-0.318268,0.0030210000000000002,-0.368591,0.004696,-0.006092,0.004213000000000001,-40.560001,-1.75,-22.0,3b
2019-07-12_105050:000,-0.296906,0.0025329999999999997,-0.364532,0.004574,-0.006397,0.004732,-40.560001,-1.75,-22.0,3b
2019-07-12_105050:020,-0.282654,0.0025329999999999997,-0.371643,0.004483,-0.007465,0.004671,-39.75,-1.75,-22.0,3b
2019-07-12_105050:040,-0.28369099999999997,0.005065999999999999,-0.382324,0.0032310000000000004,-0.012927000000000001,0.006135,-39.75,-1.75,-22.0,3b
2019-07-12_105050:060,-0.29232800000000003,0.006072999999999999,-0.390961,0.0017670000000000001,-0.015643999999999998,0.009126,-39.75,-1.75,-22.0,3b
2019-07-12_105050:080,-0.314178,0.001495,-0.402161,-0.000278,-0.016040000000000002,0.01169,-40.18,-1.37,-23.18,3b
2019-07-12_105050:100,-0.329437,0.0,-0.405212,-0.0022010000000000003,-0.013781999999999999,0.012483,-40.18,-1.37,-23.18,3b
2019-07-12_105050:120,-0.33605999999999997,-0.0025329999999999997,-0.411285,-0.004123,-0.010333,0.01288,-40.18,-0.56,-23.559998999999998,3b
2019-07-12_105050:140,-0.33758499999999997,-0.002014,-0.41232299999999994,-0.005771,-0.006488,0.012758,-40.18,-0.56,-23.559998999999998,3b
2019-07-12_105050:160,-0.33300799999999997,-0.004547,-0.410278,-0.007267,-0.002979,0.012636,-40.18,-0.56,-23.559998999999998,3b
2019-07-12_105050:180,-0.32486,-0.007599,-0.406219,-0.007999,-0.001666,0.012575,-40.560001,0.06,-23.559998999999998,3b
2019-07-12_105050:200,-0.31723,-0.012695,-0.396545,-0.009006,0.00108,0.013612,-40.560001,0.06,-23.559998999999998,3b
2019-07-12_105050:220,-0.309601,-0.016753999999999998,-0.391968,-0.009281000000000001,0.001202,0.013643,-40.560001,-1.06,-24.0,3b
2019-07-12_105050:240,-0.304535,-0.019806,-0.38739,-0.009159,0.000714,0.013947999999999999,-40.560001,-1.06,-24.0,3b
2019-07-12_105050:260,-0.302002,-0.022369,-0.384857,-0.008823000000000001,-0.00047599999999999997,0.013887,-40.560001,-1.06,-24.0,3b
2019-07-12_105050:280,-0.300476,-0.026917,-0.384857,-0.008609,-0.001209,0.013550999999999999,-39.75,0.37,-22.75,3b
2019-07-12_105050:300,-0.305054,-0.028442000000000002,-0.384338,-0.00748,-0.002857,0.011903,-39.75,0.37,-22.75,3b
2019-07-12_105050:320,-0.309113,-0.028961,-0.385864,-0.007023000000000001,-0.0030399999999999997,0.011384,-40.560001,0.37,-23.18,3b
2019-07-12_105050:340,-0.312164,-0.028961,-0.384857,-0.005222,-0.002979,0.009126,-40.560001,0.37,-23.18,3b
2019-07-12_105050:360,-0.30249000000000004,-0.028961,-0.386383,-0.004001,-0.002735,0.007905,-40.560001,0.37,-23.18,3b
2019-07-12_105050:380,-0.304535,-0.027435,-0.390442,-0.0033909999999999995,-0.002857,0.007448000000000001,-40.18,1.06,-21.559998999999998,3b
2019-07-12_105050:400,-0.31012,-0.024384,-0.391479,-0.002018,-0.002704,0.007722,-40.18,1.06,-21.559998999999998,3b
2019-07-12_105050:420,-0.312164,-0.022369,-0.391968,-0.0018039999999999998,-0.0021850000000000003,0.0076,-40.560001,0.75,-22.75,3b
2019-07-12_105050:440,-0.316223,-0.020844,-0.39502,-0.002018,-0.001117,0.007112,-40.560001,0.75,-22.75,3b
2019-07-12_105050:460,-0.306061,-0.019806,-0.395538,-0.0027199999999999998,-0.000202,0.006470999999999999,-40.560001,0.75,-22.75,3b
2019-07-12_105050:480,-0.308075,-0.021332,-0.40011599999999997,-0.003116,-0.00014099999999999998,0.006379,-40.18,1.06,-21.559998999999998,3b
2019-07-12_105050:500,-0.315704,-0.020844,-0.399597,-0.003879,0.000989,0.007051000000000001,-40.18,1.06,-21.559998999999998,3b
2019-07-12_105050:520,-0.320282,-0.023375999999999997,-0.394531,-0.004001,0.0016600000000000002,0.007112,-40.18,1.5,-22.0,3b
2019-07-12_105050:540,-0.32486,-0.025421,-0.391968,-0.004703,0.004986,0.005403,-40.18,1.5,-22.0,3b
2019-07-12_105050:560,-0.322845,-0.026917,-0.385864,-0.004642,0.007367,0.004518,-40.18,1.5,-22.0,3b
2019-07-12_105050:580,-0.313171,-0.027954000000000003,-0.380798,-0.004612,0.007886,0.00403,-40.869999,0.87,-21.559998999999998,3b
2019-07-12_105050:600,-0.307587,-0.030487,-0.377228,-0.003452,0.007367,0.002168,-40.869999,0.87,-21.559998999999998,3b
2019-07-12_105050:620,-0.308075,-0.030487,-0.374695,-0.002811,0.007092,0.001832,-41.25,0.5,-21.559998999999998,3b
2019-07-12_105050:640,-0.319275,-0.025421,-0.37112399999999995,-0.001285,0.00639,0.000459,-41.25,0.5,-21.559998999999998,3b
2019-07-12_105050:660,-0.32132,-0.022858,-0.36706500000000003,-0.000675,0.00636,-9e-05,-41.25,0.5,-21.559998999999998,3b
2019-07-12_105050:680,-0.316742,-0.019318000000000002,-0.361481,-0.000553,0.006756,-0.000273,-41.25,1.18,-20.370001000000002,3b
2019-07-12_105050:700,-0.315704,-0.017273,-0.360962,-0.0004,0.006177,-0.0011279999999999999,-41.25,1.18,-20.370001000000002,3b
2019-07-12_105050:720,-0.31723,-0.013702,-0.35943600000000003,-0.000492,0.005902,-0.001067,-41.68,0.5,-20.370001000000002,3b
2019-07-12_105050:740,-0.315704,-0.012695,-0.360962,-0.001072,0.005231,-2.8999999999999997e-05,-41.68,0.5,-20.370001000000002,3b
2019-07-12_105050:760,-0.323853,-0.014221000000000001,-0.361481,-0.001468,0.0027890000000000002,0.0007639999999999999,-41.68,0.5,-20.370001000000002,3b
2019-07-12_105050:780,-0.331482,-0.013702,-0.36248800000000003,-0.001743,0.001996,0.000398,-43.18,1.18,-19.559998999999998,3b
2019-07-12_105050:800,-0.334015,-0.011687999999999999,-0.364014,-0.002414,-0.000995,-9e-05,-43.18,1.18,-19.559998999999998,3b
2019-07-12_105050:820,-0.340118,-0.013702,-0.368073,-0.0027199999999999998,-0.002643,3.2e-05,-43.18,1.18,-19.559998999999998,3b
2019-07-12_105050:840,-0.353851,-0.011687999999999999,-0.366058,-0.004123,-0.0038640000000000002,-0.001067,-43.18,0.87,-20.0,3b
2019-07-12_105050:860,-0.35180700000000004,-0.009644,-0.36044299999999996,-0.005039,-0.002857,-0.001341,-43.18,0.87,-20.0,3b
2019-07-12_105050:880,-0.339111,-0.008636,-0.354858,-0.005497,-0.002002,-0.001341,-42.369999,1.18,-19.559998999999998,3b
2019-07-12_105050:900,-0.323853,-0.007599,-0.350281,-0.0065650000000000005,-0.0013310000000000002,-0.001402,-42.369999,1.18,-19.559998999999998,3b
2019-07-12_105050:920,-0.312164,-0.008118,-0.35131799999999996,-0.0067480000000000005,-0.002246,-0.00128,-42.369999,0.37,-19.18,3b
2019-07-12_105050:940,-0.31369,-0.008636,-0.355896,-0.005832,-0.0060609999999999995,-0.001067,-42.369999,0.37,-19.18,3b
2019-07-12_105050:960,-0.32995599999999997,-0.008118,-0.361481,-0.004947,-0.007404000000000001,-0.0009449999999999999,-42.369999,0.37,-19.18,3b
2019-07-12_105050:980,-0.339111,-0.006592,-0.367584,-0.004337,-0.007526000000000001,-0.0008230000000000001,-42.369999,0.5,-20.370001000000002,3b
2019-07-12_105051:000,-0.35180700000000004,-0.001495,-0.370636,-0.0036049999999999997,-0.006854000000000001,-0.000273,-42.369999,0.5,-20.370001000000002,3b
2019-07-12_105051:020,-0.352844,0.0,-0.372162,-0.003483,-0.006397,3.2e-05,-42.369999,0.5,-20.370001000000002,3b
2019-07-12_105051:040,-0.355896,0.0030210000000000002,-0.37265,-0.003849,-0.004901,0.001588,-42.75,-0.37,-19.559998999999998,3b
2019-07-12_105051:060,-0.35638400000000003,0.0025329999999999997,-0.368591,-0.0042450000000000005,-0.004321,0.0016489999999999999,-42.75,-0.37,-19.559998999999998,3b
2019-07-12_105051:080,-0.353333,0.005065999999999999,-0.364532,-0.0052829999999999995,-0.0031309999999999997,0.0017100000000000001,-42.75,-0.68,-19.18,3b
2019-07-12_105051:100,-0.344177,0.0055850000000000006,-0.35739099999999996,-0.006504,-0.002735,0.003114,-42.75,-0.68,-19.18,3b
2019-07-12_105051:120,-0.33758499999999997,0.0025329999999999997,-0.358429,-0.00687,-0.00307,0.00345,-41.68,0.5,-19.18,3b
2019-07-12_105051:140,-0.32995599999999997,0.001495,-0.352844,-0.007084,-0.004444,0.0037549999999999997,-41.68,0.5,-19.18,3b
2019-07-12_105051:160,-0.327911,0.000488,-0.355377,-0.007145,-0.006458,0.004396,-41.68,0.5,-19.18,3b
2019-07-12_105051:180,-0.332489,0.0,-0.35739099999999996,-0.00687,-0.006885,0.004793,-42.369999,-0.37,-19.559998999999998,3b
2019-07-12_105051:200,-0.335022,-0.001495,-0.358429,-0.006229,-0.008411,0.006135,-42.369999,-0.37,-19.559998999999998,3b
2019-07-12_105051:220,-0.338593,-0.000488,-0.36349499999999996,-0.006076,-0.008655,0.006379,-42.369999,-0.37,-19.559998999999998,3b
2019-07-12_105051:240,-0.34265100000000004,0.0,-0.366058,-0.005771,-0.008533,0.006868000000000001,-42.060001,0.0,-20.0,3b
2019-07-12_105051:260,-0.34265100000000004,-0.001495,-0.367584,-0.005771,-0.008136,0.007203,-42.060001,0.0,-20.0,3b
2019-07-12_105051:280,-0.344696,-0.0030210000000000002,-0.368591,-0.005771,-0.007984,0.006868000000000001,-42.060001,-0.68,-19.559998999999998,3b
2019-07-12_105051:300,-0.34368899999999997,-0.004059,-0.36706500000000003,-0.005558,-0.007129000000000001,0.005861,-42.060001,-0.68,-19.559998999999998,3b
2019-07-12_105051:320,-0.335541,-0.0055850000000000006,-0.365021,-0.005222,-0.006945999999999999,0.0058,-42.060001,-0.68,-19.559998999999998,3b
2019-07-12_105051:340,-0.33300799999999997,-0.004547,-0.364532,-0.004398,-0.007343000000000001,0.005586,-42.369999,0.75,-19.18,3b
2019-07-12_105051:360,-0.33197,-0.0035399999999999997,-0.366058,-0.004275999999999999,-0.0076170000000000005,0.005403,-42.369999,0.75,-19.18,3b
2019-07-12_105051:380,-0.334015,-0.000488,-0.36554000000000003,-0.00394,-0.008136,0.004732,-42.75,0.0,-20.0,3b
2019-07-12_105051:400,-0.33300799999999997,0.000488,-0.366058,-0.004123,-0.008472,0.004091,-42.75,0.0,-20.0,3b
2019-07-12_105051:420,-0.334534,-0.000488,-0.36706500000000003,-0.004062,-0.008411,0.005189,-42.75,0.0,-20.0,3b
2019-07-12_105051:440,-0.337067,-0.002014,-0.36911,-0.004001,-0.008716,0.005464,-42.369999,-0.37,-18.75,3b
2019-07-12_105051:460,-0.33758499999999997,-0.000488,-0.37112399999999995,-0.004612,-0.008197,0.005067,-42.369999,-0.37,-18.75,3b
2019-07-12_105051:480,-0.339111,-0.000488,-0.37112399999999995,-0.004703,-0.007801000000000001,0.00525,-42.369999,-0.37,-20.370001000000002,3b
2019-07-12_105051:500,-0.339111,-0.0035399999999999997,-0.370636,-0.004764,-0.00719,0.005525,-42.369999,-0.37,-20.370001000000002,3b
2019-07-12_105051:520,-0.338593,-0.0030210000000000002,-0.368591,-0.0052829999999999995,-0.006854000000000001,0.004548,-41.25,0.0,-20.0,3b
2019-07-12_105051:540,-0.336548,-0.004059,-0.367584,-0.004581,-0.006336,0.004274,-41.25,0.0,-20.0,3b
2019-07-12_105051:560,-0.335541,-0.0035399999999999997,-0.36706500000000003,-0.004398,-0.006092,0.004213000000000001,-41.25,0.0,-20.0,3b
2019-07-12_105051:580,-0.333496,-0.001495,-0.36654699999999996,-0.004001,-0.0061530000000000005,0.004152,-42.060001,0.37,-20.370001000000002,3b
2019-07-12_105051:600,-0.334534,0.0,-0.365021,-0.003849,-0.006397,0.004274,-42.060001,0.37,-20.370001000000002,3b
2019-07-12_105051:620,-0.332489,0.0,-0.364532,-0.004001,-0.006793,0.004671,-42.75,0.75,-20.370001000000002,3b
2019-07-12_105051:640,-0.330963,0.0,-0.36554000000000003,-0.004337,-0.006670999999999999,0.004548,-42.75,0.75,-20.370001000000002,3b
2019-07-12_105051:660,-0.332489,0.0,-0.36654699999999996,-0.004764,-0.007129000000000001,0.004182,-42.75,0.75,-20.370001000000002,3b
2019-07-12_105051:680,-0.332489,-0.001495,-0.36706500000000003,-0.004764,-0.007465,0.004182,-42.369999,0.37,-19.559998999999998,3b
2019-07-12_105051:700,-0.3396,-0.001495,-0.367584,-0.004703,-0.007862000000000001,0.004548,-42.369999,0.37,-19.559998999999998,3b
2019-07-12_105051:720,-0.338074,-0.000488,-0.36654699999999996,-0.004612,-0.0076170000000000005,0.004732,-42.369999,0.37,-19.559998999999998,3b
2019-07-12_105051:740,-0.334534,-0.001495,-0.36706500000000003,-0.004581,-0.007220999999999999,0.005311,-42.060001,-0.68,-21.18,3b
2019-07-12_105051:760,-0.336548,-0.002014,-0.368073,-0.004612,-0.007281999999999999,0.005128,-42.060001,-0.68,-21.18,3b
2019-07-12_105051:780,-0.32843,-0.001495,-0.36706500000000003,-0.004642,-0.0076170000000000005,0.004671,-42.75,0.37,-19.559998999999998,3b
2019-07-12_105051:800,-0.329437,-0.002014,-0.36554000000000003,-0.004825,-0.007862000000000001,0.004609,-42.75,0.37,-19.559998999999998,3b
2019-07-12_105051:820,-0.330963,-0.0025329999999999997,-0.36911,-0.004886,-0.008655,0.004274,-42.75,0.37,-19.559998999999998,3b
2019-07-12_105051:840,-0.331482,-0.0025329999999999997,-0.370636,-0.004520000000000001,-0.008716,0.004609,-42.369999,0.0,-20.0,3b
2019-07-12_105051:860,-0.335022,-0.001007,-0.37112399999999995,-0.004275999999999999,-0.008655,0.005128,-42.369999,0.0,-20.0,3b
2019-07-12_105051:880,-0.33197,-0.000488,-0.371643,-0.004398,-0.008411,0.005189,-42.75,0.37,-21.18,3b
2019-07-12_105051:900,-0.329437,0.0,-0.371643,-0.004520000000000001,-0.007984,0.005342,-42.75,0.37,-21.18,3b
2019-07-12_105051:920,-0.329437,0.0,-0.37265,-0.004978,-0.007984,0.005525,-42.75,0.37,-21.18,3b
2019-07-12_105051:940,-0.326385,0.0,-0.372162,-0.005558,-0.008075,0.005586,-41.68,1.06,-20.370001000000002,3b
2019-07-12_105051:960,-0.330963,-0.002014,-0.37265,-0.005741,-0.008533,0.005922,-41.68,1.06,-20.370001000000002,3b
2019-07-12_105051:980,-0.330475,-0.0030210000000000002,-0.37316900000000003,-0.005893,-0.008533,0.006470999999999999,-42.060001,0.0,-21.18,3b
2019-07-12_105052:000,-0.329437,-0.004059,-0.37316900000000003,-0.005954,-0.008136,0.006470999999999999,-42.060001,0.0,-21.18,3b
2019-07-12_105052:020,-0.32995599999999997,-0.004059,-0.374176,-0.005741,-0.007923000000000001,0.006379,-42.060001,0.0,-21.18,3b
2019-07-12_105052:040,-0.32843,-0.004059,-0.374695,-0.005741,-0.007678,0.005678,-42.75,0.0,-19.559998999999998,3b
2019-07-12_105052:060,-0.32843,-0.0030210000000000002,-0.373688,-0.005436,-0.0076170000000000005,0.005586,-42.75,0.0,-19.559998999999998,3b
2019-07-12_105052:080,-0.327911,-0.0025329999999999997,-0.374695,-0.005161,-0.0076170000000000005,0.006074,-42.369999,0.75,-20.75,3b
2019-07-12_105052:100,-0.328949,-0.002014,-0.371643,-0.004947,-0.007587000000000001,0.006044,-42.369999,0.75,-20.75,3b
2019-07-12_105052:120,-0.327423,0.0,-0.372162,-0.005161,-0.0076170000000000005,0.005983,-42.369999,0.75,-20.75,3b
2019-07-12_105052:140,-0.32486,-0.000488,-0.371643,-0.005222,-0.007587000000000001,0.006470999999999999,-41.68,0.0,-20.0,3b
2019-07-12_105052:160,-0.32486,-0.002014,-0.371643,-0.005771,-0.007739,0.006532,-41.68,0.0,-20.0,3b
2019-07-12_105052:180,-0.323853,-0.002014,-0.372162,-0.005954,-0.008197,0.006868000000000001,-42.060001,0.0,-21.559998999999998,3b
2019-07-12_105052:200,-0.324371,-0.0030210000000000002,-0.37316900000000003,-0.006351,-0.008747,0.007051000000000001,-42.060001,0.0,-21.559998999999998,3b
2019-07-12_105052:220,-0.325378,-0.0055850000000000006,-0.375214,-0.0064730000000000005,-0.009113,0.0071730000000000006,-42.060001,0.0,-21.559998999999998,3b
2019-07-12_105052:240,-0.326385,-0.0055850000000000006,-0.376221,-0.0065650000000000005,-0.009448,0.0069900000000000006,-42.060001,0.37,-20.75,3b
2019-07-12_105052:260,-0.325378,-0.005065999999999999,-0.375214,-0.00629,-0.009113,0.0067150000000000005,-42.060001,0.37,-20.75,3b
2019-07-12_105052:280,-0.325378,-0.007111,-0.377228,-0.0060149999999999995,-0.009143,0.006654,-40.869999,0.37,-21.559998999999998,3b
2019-07-12_105052:300,-0.323853,-0.006592,-0.376221,-0.005954,-0.009113,0.006470999999999999,-40.869999,0.37,-21.559998999999998,3b
2019-07-12_105052:320,-0.323334,-0.006072999999999999,-0.377747,-0.005741,-0.008869,0.006470999999999999,-40.869999,0.37,-21.559998999999998,3b
2019-07-12_105052:340,-0.323853,-0.007111,-0.378265,-0.005741,-0.008990999999999999,0.006470999999999999,-41.25,0.37,-20.370001000000002,3b
2019-07-12_105052:360,-0.328949,-0.006592,-0.378754,-0.005558,-0.008716,0.006441,-41.25,0.37,-20.370001000000002,3b
2019-07-12_105052:380,-0.324371,-0.006072999999999999,-0.377747,-0.005558,-0.008014,0.006441,-41.68,0.37,-20.370001000000002,3b
2019-07-12_105052:400,-0.327911,-0.005065999999999999,-0.379791,-0.005619,-0.007739,0.006379,-41.68,0.37,-20.370001000000002,3b
2019-07-12_105052:420,-0.320801,-0.0055850000000000006,-0.37674,-0.005619,-0.007343000000000001,0.006135,-41.68,0.37,-20.370001000000002,3b
2019-07-12_105052:440,-0.320801,-0.007599,-0.378754,-0.005771,-0.0076170000000000005,0.005861,-40.869999,0.75,-20.75,3b
2019-07-12_105052:460,-0.322845,-0.007111,-0.381317,-0.005679999999999999,-0.007801000000000001,0.005464,-40.869999,0.75,-20.75,3b
2019-07-12_105052:480,-0.322327,-0.008118,-0.379791,-0.005375,-0.007678,0.006196,-42.369999,1.06,-21.559998999999998,3b
2019-07-12_105052:500,-0.322327,-0.010162000000000001,-0.38028,-0.004825,-0.007404000000000001,0.006196,-42.369999,1.06,-21.559998999999998,3b
2019-07-12_105052:520,-0.322845,-0.008636,-0.379272,-0.004612,-0.006945999999999999,0.005464,-42.369999,1.06,-21.559998999999998,3b
2019-07-12_105052:540,-0.315704,-0.006592,-0.379791,-0.004612,-0.006793,0.005464,-41.68,1.06,-21.18,3b
2019-07-12_105052:560,-0.318268,-0.006592,-0.379272,-0.004642,-0.007129000000000001,0.005464,-41.68,1.06,-21.18,3b
2019-07-12_105052:580,-0.319794,-0.008118,-0.382812,-0.004825,-0.007343000000000001,0.005067,-41.68,0.75,-22.0,3b
2019-07-12_105052:600,-0.322845,-0.008636,-0.381317,-0.004825,-0.007129000000000001,0.004915,-41.68,0.75,-22.0,3b
2019-07-12_105052:620,-0.323853,-0.008636,-0.384338,-0.004581,-0.006397,0.004945000000000001,-41.25,0.75,-21.18,3b
2019-07-12_105052:640,-0.327423,-0.008118,-0.381805,-0.004337,-0.005725,0.005067,-41.25,0.75,-21.18,3b
2019-07-12_105052:660,-0.320801,-0.008118,-0.379791,-0.004184,-0.004993,0.004915,-41.25,0.75,-21.18,3b
2019-07-12_105052:680,-0.318268,-0.008118,-0.379791,-0.0042450000000000005,-0.005176,0.004274,-41.68,1.87,-22.370001000000002,3b
2019-07-12_105052:700,-0.314697,-0.006592,-0.377228,-0.004459,-0.005634,0.004732,-41.68,1.87,-22.370001000000002,3b
2019-07-12_105052:720,-0.318268,-0.007599,-0.380798,-0.004123,-0.005939,0.005128,-41.68,1.87,-22.370001000000002,3b
2019-07-12_105052:740,-0.316223,-0.009125,-0.377747,-0.004062,-0.0061530000000000005,0.004457,-40.869999,1.06,-21.559998999999998,3b
2019-07-12_105052:760,-0.31723,-0.008118,-0.378754,-0.004001,-0.006548999999999999,0.004152,-40.869999,1.06,-21.559998999999998,3b
2019-07-12_105052:780,-0.319275,-0.008118,-0.38028,-0.003849,-0.006548999999999999,0.004396,-40.869999,1.06,-22.370001000000002,3b
2019-07-12_105052:800,-0.319275,-0.007111,-0.379272,-0.003788,-0.006458,0.004518,-40.869999,1.06,-22.370001000000002,3b
2019-07-12_105052:820,-0.321808,-0.007111,-0.381317,-0.0036049999999999997,-0.006275,0.004274,-40.869999,1.06,-22.370001000000002,3b
2019-07-12_105052:840,-0.320801,-0.008118,-0.381805,-0.003483,-0.0060609999999999995,0.004671,-41.68,1.5,-21.559998999999998,3b
2019-07-12_105052:860,-0.322327,-0.008118,-0.382324,-0.0036049999999999997,-0.005756,0.004793,-41.68,1.5,-21.559998999999998,3b
2019-07-12_105052:880,-0.320282,-0.006592,-0.379272,-0.0037270000000000003,-0.005695,0.004915,-42.060001,1.87,-22.75,3b
2019-07-12_105052:900,-0.319275,-0.006592,-0.38028,-0.003788,-0.005817,0.005464,-42.060001,1.87,-22.75,3b
2019-07-12_105052:920,-0.319275,-0.007111,-0.379272,-0.0037270000000000003,-0.005725,0.005525,-42.060001,1.87,-22.75,3b
2019-07-12_105052:940,-0.320282,-0.009125,-0.378754,-0.00394,-0.005878,0.005311,-40.869999,1.5,-22.370001000000002,3b
2019-07-12_105052:960,-0.320801,-0.008118,-0.378754,-0.0042450000000000005,-0.005756,0.005647,-40.869999,1.5,-22.370001000000002,3b
2019-07-12_105052:980,-0.316223,-0.010651,-0.378265,-0.004184,-0.005817,0.006044,-41.25,1.06,-20.75,3b
2019-07-12_105053:000,-0.318268,-0.011169,-0.377228,-0.0042450000000000005,-0.006275,0.005739,-41.25,1.06,-20.75,3b
2019-07-12_105053:020,-0.317749,-0.010162000000000001,-0.377228,-0.004123,-0.0066099999999999996,0.005739,-41.25,1.06,-20.75,3b
2019-07-12_105053:040,-0.314697,-0.012177,-0.377747,-0.0042450000000000005,-0.0070680000000000005,0.005464,-40.560001,1.5,-21.18,3b
2019-07-12_105053:060,-0.319794,-0.012177,-0.377747,-0.004764,-0.007678,0.004915,-40.560001,1.5,-21.18,3b
2019-07-12_105053:080,-0.316223,-0.011169,-0.378265,-0.004612,-0.007739,0.004609,-40.869999,1.06,-22.0,3b
2019-07-12_105053:100,-0.320801,-0.013702,-0.380798,-0.004581,-0.008258,0.0039689999999999994,-40.869999,1.06,-22.0,3b
2019-07-12_105053:120,-0.320801,-0.013702,-0.38385,-0.0042450000000000005,-0.007923000000000001,0.00403,-40.869999,1.06,-22.0,3b
2019-07-12_105053:140,-0.319794,-0.013213999999999998,-0.383331,-0.0036049999999999997,-0.007587000000000001,0.004945000000000001,-40.869999,1.87,-22.370001000000002,3b
2019-07-12_105053:160,-0.319275,-0.010651,-0.383331,-0.0033909999999999995,-0.006945999999999999,0.004732,-40.869999,1.87,-22.370001000000002,3b
2019-07-12_105053:180,-0.318268,-0.008636,-0.382324,-0.003483,-0.006670999999999999,0.004457,-42.060001,1.06,-22.0,3b
2019-07-12_105053:200,-0.316223,-0.009644,-0.381805,-0.003849,-0.006670999999999999,0.004732,-42.060001,1.06,-22.0,3b
2019-07-12_105053:220,-0.316223,-0.010651,-0.38385,-0.0042450000000000005,-0.006793,0.005006,-42.060001,1.06,-22.0,3b
2019-07-12_105053:240,-0.318268,-0.011169,-0.381805,-0.004612,-0.006793,0.004915,-40.560001,1.87,-21.18,3b
2019-07-12_105053:260,-0.320801,-0.012695,-0.383331,-0.004612,-0.006731999999999999,0.005067,-40.560001,1.87,-21.18,3b
2019-07-12_105053:280,-0.322327,-0.014740000000000001,-0.385376,-0.004703,-0.006275,0.005342,-40.869999,0.75,-22.370001000000002,3b
2019-07-12_105053:300,-0.316223,-0.014221000000000001,-0.381317,-0.004581,-0.006092,0.005128,-40.869999,0.75,-22.370001000000002,3b
2019-07-12_105053:320,-0.316742,-0.015747,-0.382812,-0.004459,-0.005725,0.004457,-40.869999,0.75,-22.370001000000002,3b
2019-07-12_105053:340,-0.31723,-0.013702,-0.383331,-0.004612,-0.0060609999999999995,0.003908,-41.25,1.06,-21.559998999999998,3b
2019-07-12_105053:360,-0.316742,-0.015228,-0.380798,-0.004337,-0.005817,0.004854,-41.25,1.06,-21.559998999999998,3b
2019-07-12_105053:380,-0.31723,-0.014740000000000001,-0.382324,-0.004062,-0.005878,0.004732,-41.68,1.5,-22.370001000000002,3b
2019-07-12_105053:400,-0.316742,-0.013702,-0.380798,-0.004275999999999999,-0.005817,0.003908,-41.68,1.5,-22.370001000000002,3b
2019-07-12_105053:420,-0.315704,-0.013702,-0.381805,-0.004123,-0.0060609999999999995,0.00403,-41.68,1.5,-22.370001000000002,3b
2019-07-12_105053:440,-0.31723,-0.013702,-0.381805,-0.004398,-0.0061530000000000005,0.004091,-41.68,1.5,-22.370001000000002,3b
2019-07-12_105053:460,-0.314697,-0.014221000000000001,-0.379791,-0.004581,-0.006336,0.00345,-41.68,1.5,-22.370001000000002,3b
2019-07-12_105053:480,-0.316742,-0.013213999999999998,-0.381805,-0.004459,-0.006336,0.0034189999999999997,-40.869999,1.5,-22.75,3b
2019-07-12_105053:500,-0.317749,-0.014740000000000001,-0.380798,-0.004184,-0.006458,0.0038159999999999995,-40.869999,1.5,-22.75,3b
2019-07-12_105053:520,-0.317749,-0.012695,-0.382812,-0.004062,-0.006458,0.003572,-40.869999,1.5,-22.75,3b
2019-07-12_105053:540,-0.318268,-0.011687999999999999,-0.381805,-0.004001,-0.006397,0.003572,-40.869999,1.06,-22.0,3b
2019-07-12_105053:560,-0.315704,-0.012695,-0.382324,-0.0042450000000000005,-0.006458,0.0037549999999999997,-40.869999,1.06,-22.0,3b
2019-07-12_105053:580,-0.314697,-0.013702,-0.383331,-0.004184,-0.006488,0.0037549999999999997,-40.560001,1.5,-24.0,3b
2019-07-12_105053:600,-0.314697,-0.015228,-0.382812,-0.004184,-0.006854000000000001,0.003358,-40.560001,1.5,-24.0,3b
2019-07-12_105053:620,-0.314697,-0.013702,-0.382324,-0.004062,-0.006885,0.003053,-40.560001,1.5,-24.0,3b
2019-07-12_105053:640,-0.317749,-0.013213999999999998,-0.384338,-0.0037270000000000003,-0.006731999999999999,0.003023,-41.25,0.75,-22.0,3b
2019-07-12_105053:660,-0.312653,-0.013702,-0.384857,-0.0036659999999999996,-0.006397,0.003358,-41.25,0.75,-22.0,3b
2019-07-12_105053:680,-0.319794,-0.012695,-0.386383,-0.003483,-0.006458,0.003358,-40.560001,1.5,-22.370001000000002,3b
2019-07-12_105053:700,-0.318268,-0.010651,-0.381805,-0.003483,-0.0060609999999999995,0.003511,-40.560001,1.5,-22.370001000000002,3b
2019-07-12_105053:720,-0.317749,-0.011169,-0.382812,-0.0033909999999999995,-0.005939,0.0038159999999999995,-40.560001,1.5,-22.370001000000002,3b
2019-07-12_105053:740,-0.319794,-0.010651,-0.384338,-0.003849,-0.005725,0.00345,-41.25,1.87,-22.0,3b
2019-07-12_105053:760,-0.314697,-0.010162000000000001,-0.379791,-0.0042450000000000005,-0.005573,0.00345,-41.25,1.87,-22.0,3b
2019-07-12_105053:780,-0.314178,-0.012177,-0.384857,-0.004337,-0.006,0.0032359999999999997,-41.25,1.06,-22.75,3b
2019-07-12_105053:800,-0.311646,-0.013213999999999998,-0.381805,-0.004275999999999999,-0.006336,0.003511,-41.25,1.06,-22.75,3b
2019-07-12_105053:820,-0.313171,-0.013702,-0.380798,-0.004062,-0.006670999999999999,0.0038469999999999997,-41.25,1.06,-22.75,3b
2019-07-12_105053:840,-0.315216,-0.010651,-0.380798,-0.003788,-0.006731999999999999,0.0034189999999999997,-40.869999,1.5,-21.559998999999998,3b
2019-07-12_105053:860,-0.315704,-0.008636,-0.381317,-0.00394,-0.006854000000000001,0.003358,-40.869999,1.5,-21.559998999999998,3b
2019-07-12_105053:880,-0.311127,-0.009644,-0.382812,-0.004184,-0.006885,0.004335,-40.18,1.06,-23.18,3b
2019-07-12_105053:900,-0.311646,-0.011687999999999999,-0.38385,-0.004642,-0.007587000000000001,0.004854,-40.18,1.06,-23.18,3b
2019-07-12_105053:920,-0.313171,-0.011687999999999999,-0.385864,-0.004947,-0.007801000000000001,0.004518,-40.18,1.06,-23.18,3b
2019-07-12_105053:940,-0.315704,-0.012695,-0.387909,-0.005161,-0.007465,0.004548,-40.18,1.06,-22.370001000000002,3b
2019-07-12_105053:960,-0.318268,-0.014221000000000001,-0.388428,-0.004825,-0.007281999999999999,0.005006,-40.18,1.06,-22.370001000000002,3b
2019-07-12_105053:980,-0.313171,-0.013213999999999998,-0.388428,-0.004825,-0.006397,0.005006,-40.869999,0.75,-22.370001000000002,3b
2019-07-12_105054:000,-0.310638,-0.014221000000000001,-0.386902,-0.004642,-0.006336,0.004732,-40.869999,0.75,-22.370001000000002,3b
2019-07-12_105054:020,-0.309113,-0.012695,-0.385376,-0.004642,-0.006548999999999999,0.004457,-40.869999,0.75,-22.370001000000002,3b
2019-07-12_105054:040,-0.308075,-0.014221000000000001,-0.386383,-0.004581,-0.007281999999999999,0.006074,-40.560001,1.5,-22.0,3b
2019-07-12_105054:060,-0.308594,-0.015228,-0.384857,-0.00394,-0.007526000000000001,0.007112,-40.560001,1.5,-22.0,3b
2019-07-12_105054:080,-0.308594,-0.016266,-0.385864,-0.003544,-0.007862000000000001,0.006654,-40.560001,1.87,-22.370001000000002,3b
2019-07-12_105054:100,-0.306061,-0.013702,-0.385864,-0.0032689999999999998,-0.008258,0.006868000000000001,-40.560001,1.87,-22.370001000000002,3b
2019-07-12_105054:120,-0.307068,-0.013702,-0.385864,-0.003116,-0.008716,0.007905,-40.560001,1.87,-22.370001000000002,3b
2019-07-12_105054:140,-0.309113,-0.013702,-0.388428,-0.00394,-0.008869,0.007661,-39.75,1.87,-22.0,3b
2019-07-12_105054:160,-0.312653,-0.016266,-0.390961,-0.004642,-0.008533,0.006868000000000001,-39.75,1.87,-22.0,3b
2019-07-12_105054:180,-0.313171,-0.018799,-0.391479,-0.005039,-0.008014,0.006593000000000001,-40.18,2.25,-22.75,3b
2019-07-12_105054:200,-0.312653,-0.020325,-0.391479,-0.0051,-0.00719,0.006044,-40.18,2.25,-22.75,3b
2019-07-12_105054:220,-0.308075,-0.021851,-0.392487,-0.0051,-0.0066099999999999996,0.005311,-40.18,2.25,-22.75,3b
2019-07-12_105054:240,-0.307587,-0.022369,-0.391479,-0.004459,-0.0061530000000000005,0.005067,-40.869999,1.5,-22.370001000000002,3b
2019-07-12_105054:260,-0.30654899999999996,-0.021332,-0.391479,-0.00394,-0.0061530000000000005,0.004518,-40.869999,1.5,-22.370001000000002,3b
2019-07-12_105054:280,-0.305542,-0.020844,-0.389954,-0.003788,-0.0060609999999999995,0.003908,-40.560001,1.87,-23.559998999999998,3b
2019-07-12_105054:300,-0.30654899999999996,-0.020844,-0.390442,-0.0036049999999999997,-0.006092,0.0038159999999999995,-40.560001,1.87,-23.559998999999998,3b
2019-07-12_105054:320,-0.307068,-0.019806,-0.391479,-0.0036659999999999996,-0.006092,0.0037549999999999997,-40.560001,1.87,-23.559998999999998,3b
2019-07-12_105054:340,-0.307068,-0.019806,-0.390961,-0.0036049999999999997,-0.006,0.003633,-40.869999,1.5,-22.370001000000002,3b
2019-07-12_105054:360,-0.30654899999999996,-0.020325,-0.394012,-0.0036049999999999997,-0.005817,0.003694,-40.869999,1.5,-22.370001000000002,3b
2019-07-12_105054:380,-0.311646,-0.019318000000000002,-0.394531,-0.0033909999999999995,-0.005939,0.003633,-40.18,2.56,-22.75,3b
2019-07-12_105054:400,-0.309601,-0.020325,-0.389954,-0.0036049999999999997,-0.00539,0.003572,-40.18,2.56,-22.75,3b
2019-07-12_105054:420,-0.312653,-0.019806,-0.393005,-0.003483,-0.004961999999999999,0.0034189999999999997,-40.18,2.56,-22.75,3b
2019-07-12_105054:440,-0.307068,-0.020325,-0.391479,-0.003879,-0.004444,0.003114,-40.869999,2.25,-22.0,3b
2019-07-12_105054:460,-0.30654899999999996,-0.019806,-0.389954,-0.003879,-0.004169,0.002839,-40.869999,2.25,-22.0,3b
2019-07-12_105054:480,-0.308594,-0.019806,-0.390961,-0.004001,-0.004229999999999999,0.002107,-39.75,2.56,-22.75,3b
2019-07-12_105054:500,-0.304016,-0.019806,-0.385864,-0.0036659999999999996,-0.004169,0.002382,-39.75,2.56,-22.75,3b
2019-07-12_105054:520,-0.311127,-0.018799,-0.388916,-0.002994,-0.004383,0.003114,-39.75,2.56,-22.75,3b
2019-07-12_105054:540,-0.308594,-0.018799,-0.38739,-0.002872,-0.004169,0.002778,-40.560001,2.25,-23.18,3b
2019-07-12_105054:560,-0.30654899999999996,-0.016266,-0.388428,-0.002811,-0.004321,0.002565,-40.560001,2.25,-23.18,3b
2019-07-12_105054:580,-0.309601,-0.015747,-0.387909,-0.003147,-0.004444,0.0029620000000000002,-40.560001,1.5,-22.75,3b
2019-07-12_105054:600,-0.308594,-0.015228,-0.386383,-0.003544,-0.004718,0.0032359999999999997,-40.560001,1.5,-22.75,3b
2019-07-12_105054:620,-0.311646,-0.01828,-0.386383,-0.004001,-0.004961999999999999,0.003358,-40.560001,1.5,-22.75,3b
2019-07-12_105054:640,-0.312164,-0.017273,-0.38739,-0.004123,-0.005054,0.003511,-41.25,1.06,-22.370001000000002,3b
2019-07-12_105054:660,-0.315216,-0.016266,-0.386383,-0.004337,-0.00484,0.004182,-41.25,1.06,-22.370001000000002,3b
2019-07-12_105054:680,-0.309601,-0.017273,-0.386383,-0.004520000000000001,-0.004657,0.004274,-40.869999,1.5,-23.18,3b
2019-07-12_105054:700,-0.308075,-0.01828,-0.385864,-0.004947,-0.004993,0.0037549999999999997,-40.869999,1.5,-23.18,3b
2019-07-12_105054:720,-0.307068,-0.017792,-0.385864,-0.0051,-0.005298,0.00403,-40.869999,1.5,-23.18,3b
2019-07-12_105054:740,-0.309601,-0.019806,-0.386902,-0.0051,-0.005756,0.004671,-40.869999,2.25,-22.0,3b
2019-07-12_105054:760,-0.312653,-0.01828,-0.388428,-0.005375,-0.005695,0.004396,-40.869999,2.25,-22.0,3b
2019-07-12_105054:780,-0.312653,-0.01828,-0.38739,-0.005619,-0.005359,0.0038159999999999995,-41.25,1.06,-23.559998999999998,3b
2019-07-12_105054:800,-0.312653,-0.01828,-0.38739,-0.005954,-0.0052369999999999995,0.004152,-41.25,1.06,-23.559998999999998,3b
2019-07-12_105054:820,-0.31369,-0.01828,-0.388428,-0.006229,-0.004993,0.0038469999999999997,-41.25,1.06,-23.559998999999998,3b
2019-07-12_105054:840,-0.314178,-0.018799,-0.386383,-0.0064730000000000005,-0.004718,0.003358,-41.25,1.06,-22.75,3b
2019-07-12_105054:860,-0.314697,-0.017792,-0.386383,-0.0061070000000000004,-0.004321,0.003358,-41.25,1.06,-22.75,3b
2019-07-12_105054:880,-0.314697,-0.017273,-0.386383,-0.005832,-0.004229999999999999,0.003297,-39.75,1.5,-22.370001000000002,3b
2019-07-12_105054:900,-0.312653,-0.015747,-0.384338,-0.005741,-0.003986,0.003023,-39.75,1.5,-22.370001000000002,3b
2019-07-12_105054:920,-0.31369,-0.013702,-0.385376,-0.005436,-0.004169,0.0029,-39.75,1.5,-22.370001000000002,3b
2019-07-12_105054:940,-0.315704,-0.013213999999999998,-0.384338,-0.005436,-0.004169,0.003023,-40.869999,2.25,-22.75,3b
2019-07-12_105054:960,-0.314697,-0.012695,-0.38385,-0.005771,-0.004229999999999999,0.003053,-40.869999,2.25,-22.75,3b
2019-07-12_105054:980,-0.315216,-0.013702,-0.384857,-0.005893,-0.0037719999999999997,0.0027170000000000002,-40.18,1.5,-21.18,3b
2019-07-12_105055:000,-0.315216,-0.013702,-0.382324,-0.005771,-0.003986,0.002382,-40.18,1.5,-21.18,3b
2019-07-12_105055:020,-0.314697,-0.013213999999999998,-0.382812,-0.005497,-0.004047,0.002443,-40.18,1.5,-21.18,3b
2019-07-12_105055:040,-0.313171,-0.013702,-0.381805,-0.005222,-0.004047,0.0027170000000000002,-40.18,1.5,-21.559998999999998,3b
2019-07-12_105055:060,-0.31723,-0.011169,-0.382324,-0.004612,-0.0045049999999999995,0.002565,-40.18,1.5,-21.559998999999998,3b
2019-07-12_105055:080,-0.31723,-0.009644,-0.381317,-0.004520000000000001,-0.004444,0.003114,-40.560001,1.06,-22.370001000000002,3b
2019-07-12_105055:100,-0.318268,-0.009644,-0.380798,-0.004520000000000001,-0.0045049999999999995,0.0032359999999999997,-40.560001,1.06,-22.370001000000002,3b
2019-07-12_105055:120,-0.316223,-0.009644,-0.382324,-0.005161,-0.004657,0.0027170000000000002,-40.560001,1.06,-22.370001000000002,3b
2019-07-12_105055:140,-0.312653,-0.012177,-0.379791,-0.005039,-0.004718,0.0025039999999999997,-40.560001,1.5,-21.559998999999998,3b
2019-07-12_105055:160,-0.315704,-0.012695,-0.38385,-0.005039,-0.005695,0.0025039999999999997,-40.560001,1.5,-21.559998999999998,3b
2019-07-12_105055:180,-0.315216,-0.012177,-0.382812,-0.004764,-0.005939,0.003053,-40.869999,1.06,-21.18,3b
2019-07-12_105055:200,-0.316742,-0.012695,-0.382812,-0.004337,-0.005878,0.003633,-40.869999,1.06,-21.18,3b
2019-07-12_105055:220,-0.317749,-0.010651,-0.38385,-0.0042450000000000005,-0.005725,0.003297,-40.869999,1.06,-21.18,3b
2019-07-12_105055:240,-0.315216,-0.009644,-0.382324,-0.004337,-0.005451,0.002839,-41.25,1.5,-22.0,3b
2019-07-12_105055:260,-0.315216,-0.010651,-0.382812,-0.004581,-0.005695,0.00345,-41.25,1.5,-22.0,3b
2019-07-12_105055:280,-0.315216,-0.011169,-0.382324,-0.004764,-0.005695,0.0037549999999999997,-40.560001,0.75,-23.559998999999998,3b
2019-07-12_105055:300,-0.318756,-0.011687999999999999,-0.381805,-0.0051,-0.005817,0.003297,-40.560001,0.75,-23.559998999999998,3b
2019-07-12_105055:320,-0.316223,-0.012695,-0.384338,-0.0051,-0.005756,0.0032359999999999997,-40.560001,0.75,-23.559998999999998,3b
2019-07-12_105055:340,-0.317749,-0.011687999999999999,-0.382812,-0.0051,-0.006,0.003572,-41.68,1.5,-21.559998999999998,3b
2019-07-12_105055:360,-0.316742,-0.012695,-0.380798,-0.004947,-0.005695,0.003694,-41.68,1.5,-21.559998999999998,3b
2019-07-12_105055:380,-0.315704,-0.011687999999999999,-0.38385,-0.005039,-0.005725,0.002778,-40.18,1.87,-22.0,3b
2019-07-12_105055:400,-0.316223,-0.010651,-0.381317,-0.005161,-0.005939,0.002687,-40.18,1.87,-22.0,3b
2019-07-12_105055:420,-0.314178,-0.012695,-0.382324,-0.004886,-0.006092,0.0037549999999999997,-40.18,1.87,-22.0,3b
2019-07-12_105055:440,-0.315704,-0.012177,-0.381805,-0.005161,-0.006275,0.003572,-40.869999,1.5,-22.370001000000002,3b
2019-07-12_105055:460,-0.314178,-0.010162000000000001,-0.381805,-0.005375,-0.0066099999999999996,0.002839,-40.869999,1.5,-22.370001000000002,3b
2019-07-12_105055:480,-0.31369,-0.011169,-0.382324,-0.005497,-0.006885,0.0029620000000000002,-40.869999,0.37,-23.18,3b
2019-07-12_105055:500,-0.313171,-0.014221000000000001,-0.379791,-0.005436,-0.006945999999999999,0.003023,-40.869999,0.37,-23.18,3b
2019-07-12_105055:520,-0.311646,-0.012177,-0.379791,-0.005222,-0.007006999999999999,0.0025039999999999997,-40.869999,0.37,-23.18,3b
2019-07-12_105055:540,-0.310638,-0.011169,-0.38028,-0.004825,-0.007129000000000001,0.00229,-41.68,0.75,-21.18,3b
2019-07-12_105055:560,-0.31012,-0.011687999999999999,-0.38028,-0.004337,-0.007281999999999999,0.00229,-41.68,0.75,-21.18,3b
2019-07-12_105055:580,-0.31012,-0.010162000000000001,-0.382324,-0.003879,-0.007801000000000001,0.001924,-40.869999,1.18,-22.75,3b
2019-07-12_105055:600,-0.308075,-0.009644,-0.381317,-0.0036049999999999997,-0.008197,0.001436,-40.869999,1.18,-22.75,3b
2019-07-12_105055:620,-0.316223,-0.007599,-0.386383,-0.003483,-0.008472,0.001497,-40.869999,1.18,-22.75,3b
2019-07-12_105055:640,-0.319275,-0.006072999999999999,-0.387909,-0.0033299999999999996,-0.008533,0.001375,-40.869999,1.18,-22.370001000000002,3b
2019-07-12_105055:660,-0.321808,-0.006072999999999999,-0.389954,-0.0033909999999999995,-0.007984,0.001436,-40.869999,1.18,-22.370001000000002,3b
2019-07-12_105055:680,-0.322327,-0.006592,-0.389954,-0.003544,-0.006885,0.001527,-41.25,1.56,-22.0,3b
2019-07-12_105055:700,-0.320801,-0.006592,-0.386902,-0.00394,-0.0061530000000000005,0.001375,-41.25,1.56,-22.0,3b
2019-07-12_105055:720,-0.317749,-0.007599,-0.385864,-0.0036659999999999996,-0.005359,0.001253,-41.25,1.56,-22.0,3b
2019-07-12_105055:740,-0.319794,-0.006072999999999999,-0.385864,-0.0036049999999999997,-0.005359,0.000978,-40.560001,1.18,-22.75,3b
2019-07-12_105055:760,-0.31723,-0.006072999999999999,-0.385864,-0.0033299999999999996,-0.005054,0.001253,-40.560001,1.18,-22.75,3b
2019-07-12_105055:780,-0.313171,-0.004059,-0.379791,-0.0027199999999999998,-0.004961999999999999,0.001771,-41.25,1.18,-22.370001000000002,3b
2019-07-12_105055:800,-0.315704,-0.0030210000000000002,-0.381805,-0.002994,-0.005298,0.001832,-41.25,1.18,-22.370001000000002,3b
2019-07-12_105055:820,-0.309601,-0.0035399999999999997,-0.378754,-0.0033909999999999995,-0.005573,0.001771,-41.25,1.18,-22.370001000000002,3b
2019-07-12_105055:840,-0.313171,-0.004547,-0.382324,-0.0037270000000000003,-0.0061530000000000005,0.001588,-41.68,0.5,-22.0,3b
2019-07-12_105055:860,-0.31369,-0.005065999999999999,-0.382812,-0.0036659999999999996,-0.006854000000000001,0.001893,-41.68,0.5,-22.0,3b
2019-07-12_105055:880,-0.31369,-0.007599,-0.382812,-0.003055,-0.006885,0.003114,-41.25,0.5,-22.75,3b
2019-07-12_105055:900,-0.31369,-0.007111,-0.384338,-0.002597,-0.007129000000000001,0.003297,-41.25,0.5,-22.75,3b
2019-07-12_105055:920,-0.312164,-0.004547,-0.384857,-0.002659,-0.006731999999999999,0.0032359999999999997,-41.25,0.5,-22.75,3b
2019-07-12_105055:940,-0.313171,-0.004059,-0.385376,-0.002811,-0.007129000000000001,0.0038159999999999995,-40.560001,0.5,-22.0,3b
2019-07-12_105055:960,-0.314697,-0.006072999999999999,-0.386383,-0.003544,-0.006885,0.003572,-40.560001,0.5,-22.0,3b
2019-07-12_105055:980,-0.315704,-0.008118,-0.387909,-0.003879,-0.007006999999999999,0.003053,-40.560001,0.06,-22.0,3b
2019-07-12_105056:000,-0.316742,-0.010162000000000001,-0.387909,-0.003788,-0.006458,0.0029620000000000002,-40.560001,0.06,-22.0,3b
2019-07-12_105056:020,-0.319275,-0.011169,-0.387909,-0.0036049999999999997,-0.006,0.002778,-40.560001,0.06,-22.0,3b
2019-07-12_105056:040,-0.313171,-0.008636,-0.386902,-0.003147,-0.00539,0.0027170000000000002,-41.25,1.56,-22.0,3b
2019-07-12_105056:060,-0.312653,-0.010651,-0.385864,-0.002536,-0.005634,0.002443,-41.25,1.56,-22.0,3b
2019-07-12_105056:080,-0.312653,-0.007111,-0.385376,-0.002659,-0.0055119999999999995,0.002321,-40.18,0.5,-22.370001000000002,3b
2019-07-12_105056:100,-0.314178,-0.004059,-0.382812,-0.002597,-0.005725,0.003053,-40.18,0.5,-22.370001000000002,3b
2019-07-12_105056:120,-0.314697,-0.005065999999999999,-0.384338,-0.002933,-0.005634,0.003297,-40.18,0.5,-22.370001000000002,3b
2019-07-12_105056:140,-0.313171,-0.005065999999999999,-0.384338,-0.003788,-0.005634,0.003175,-40.560001,-0.25,-22.370001000000002,3b
2019-07-12_105056:160,-0.312164,-0.006072999999999999,-0.38385,-0.004001,-0.005817,0.003908,-40.560001,-0.25,-22.370001000000002,3b
2019-07-12_105056:180,-0.312164,-0.008118,-0.384338,-0.004062,-0.006092,0.004335,-40.560001,0.06,-22.370001000000002,3b
2019-07-12_105056:200,-0.314178,-0.008636,-0.384857,-0.004184,-0.006397,0.004152,-40.560001,0.06,-22.370001000000002,3b
2019-07-12_105056:220,-0.313171,-0.008636,-0.384338,-0.003788,-0.006397,0.004609,-40.560001,0.06,-22.370001000000002,3b
2019-07-12_105056:240,-0.313171,-0.009125,-0.386383,-0.003483,-0.006336,0.004793,-41.25,0.06,-22.370001000000002,3b
2019-07-12_105056:260,-0.314178,-0.008636,-0.384857,-0.003544,-0.006275,0.004793,-41.25,0.06,-22.370001000000002,3b
2019-07-12_105056:280,-0.311127,-0.008118,-0.384338,-0.0036049999999999997,-0.006,0.004854,-41.68,0.06,-22.75,3b
2019-07-12_105056:300,-0.311127,-0.008118,-0.38385,-0.00394,-0.006275,0.005189,-41.68,0.06,-22.75,3b
2019-07-12_105056:320,-0.309601,-0.009125,-0.385376,-0.004184,-0.006548999999999999,0.005464,-41.68,0.06,-22.75,3b
2019-07-12_105056:340,-0.311646,-0.008118,-0.386902,-0.004520000000000001,-0.006854000000000001,0.005189,-39.369999,0.5,-22.370001000000002,3b
2019-07-12_105056:360,-0.313171,-0.008636,-0.385864,-0.004520000000000001,-0.0066099999999999996,0.005342,-39.369999,0.5,-22.370001000000002,3b
2019-07-12_105056:380,-0.313171,-0.008636,-0.386383,-0.004764,-0.006548999999999999,0.005464,-40.869999,0.5,-22.370001000000002,3b
2019-07-12_105056:400,-0.313171,-0.009125,-0.385376,-0.004886,-0.006275,0.0058,-40.869999,0.5,-22.370001000000002,3b
2019-07-12_105056:420,-0.308594,-0.010162000000000001,-0.385376,-0.004947,-0.006275,0.005922,-40.869999,0.5,-22.370001000000002,3b
2019-07-12_105056:440,-0.312164,-0.011687999999999999,-0.387909,-0.004886,-0.006793,0.005861,-40.869999,0.5,-21.559998999999998,3b
2019-07-12_105056:460,-0.309601,-0.010162000000000001,-0.386383,-0.004764,-0.006731999999999999,0.006044,-40.869999,0.5,-21.559998999999998,3b
2019-07-12_105056:480,-0.312164,-0.009644,-0.38739,-0.004978,-0.006945999999999999,0.006135,-40.18,0.87,-23.559998999999998,3b
2019-07-12_105056:500,-0.312164,-0.010651,-0.386902,-0.005436,-0.006793,0.005983,-40.18,0.87,-23.559998999999998,3b
2019-07-12_105056:520,-0.307587,-0.014221000000000001,-0.386383,-0.005679999999999999,-0.006670999999999999,0.005403,-40.18,0.87,-23.559998999999998,3b
2019-07-12_105056:540,-0.306061,-0.014740000000000001,-0.388428,-0.005436,-0.006945999999999999,0.004457,-40.560001,0.06,-22.0,3b
2019-07-12_105056:560,-0.306061,-0.015747,-0.389954,-0.004642,-0.007404000000000001,0.004854,-40.560001,0.06,-22.0,3b
2019-07-12_105056:580,-0.305054,-0.013213999999999998,-0.388428,-0.004123,-0.0070680000000000005,0.004945000000000001,-40.560001,0.5,-23.18,3b
2019-07-12_105056:600,-0.307068,-0.008636,-0.389954,-0.003849,-0.0070680000000000005,0.004671,-40.560001,0.5,-23.18,3b
2019-07-12_105056:620,-0.307068,-0.007599,-0.392487,-0.004337,-0.006885,0.004915,-40.560001,0.5,-23.18,3b
2019-07-12_105056:640,-0.312164,-0.008118,-0.393005,-0.004886,-0.006548999999999999,0.005403,-41.25,0.06,-22.370001000000002,3b
2019-07-12_105056:660,-0.312653,-0.008118,-0.395538,-0.005558,-0.006,0.005067,-41.25,0.06,-22.370001000000002,3b
2019-07-12_105056:680,-0.312653,-0.011169,-0.394012,-0.005893,-0.0055119999999999995,0.004732,-40.869999,0.5,-23.18,3b
2019-07-12_105056:700,-0.311646,-0.012177,-0.392487,-0.005558,-0.004444,0.00525,-40.869999,0.5,-23.18,3b
2019-07-12_105056:720,-0.312164,-0.013702,-0.391968,-0.004947,-0.004108,0.0058,-40.869999,0.5,-23.18,3b
2019-07-12_105056:740,-0.308075,-0.014740000000000001,-0.388916,-0.004581,-0.0037719999999999997,0.005464,-40.560001,1.18,-22.370001000000002,3b
2019-07-12_105056:760,-0.31012,-0.013213999999999998,-0.389954,-0.004184,-0.00365,0.004915,-40.560001,1.18,-22.370001000000002,3b
2019-07-12_105056:780,-0.307068,-0.012177,-0.38739,-0.004123,-0.00365,0.005006,-40.560001,0.5,-22.370001000000002,3b
2019-07-12_105056:800,-0.309113,-0.012695,-0.385864,-0.004001,-0.004169,0.005342,-40.560001,0.5,-22.370001000000002,3b
2019-07-12_105056:820,-0.309113,-0.011687999999999999,-0.38739,-0.0042450000000000005,-0.004169,0.004732,-40.560001,0.5,-22.370001000000002,3b
2019-07-12_105056:840,-0.312164,-0.011169,-0.385376,-0.004337,-0.004444,0.004518,-40.560001,0.87,-24.0,3b
2019-07-12_105056:860,-0.311646,-0.013702,-0.384338,-0.004459,-0.00426,0.004915,-40.560001,0.87,-24.0,3b
2019-07-12_105056:880,-0.310638,-0.013213999999999998,-0.386902,-0.004642,-0.004596,0.004518,-39.75,1.56,-21.18,3b
2019-07-12_105056:900,-0.31012,-0.013702,-0.384857,-0.004459,-0.004657,0.004396,-39.75,1.56,-21.18,3b
2019-07-12_105056:920,-0.311646,-0.013213999999999998,-0.386383,-0.004398,-0.00484,0.004457,-39.75,1.56,-21.18,3b
2019-07-12_105056:940,-0.310638,-0.012177,-0.386902,-0.004184,-0.005115,0.004518,-40.869999,1.18,-23.18,3b
2019-07-12_105056:960,-0.311646,-0.010162000000000001,-0.386383,-0.004398,-0.00484,0.004671,-40.869999,1.18,-23.18,3b
2019-07-12_105056:980,-0.311646,-0.011169,-0.386383,-0.004612,-0.004961999999999999,0.005067,-40.18,0.5,-23.559998999999998,3b
2019-07-12_105057:000,-0.311127,-0.011687999999999999,-0.383331,-0.004612,-0.005451,0.005525,-40.18,0.5,-23.559998999999998,3b
2019-07-12_105057:020,-0.31012,-0.012695,-0.385864,-0.004978,-0.005451,0.005586,-40.18,0.5,-23.559998999999998,3b
2019-07-12_105057:040,-0.308594,-0.014740000000000001,-0.385376,-0.005222,-0.005634,0.005586,-41.25,0.87,-22.370001000000002,3b
2019-07-12_105057:060,-0.308594,-0.016266,-0.384857,-0.005161,-0.005756,0.005586,-41.25,0.87,-22.370001000000002,3b
2019-07-12_105057:080,-0.308594,-0.017792,-0.38739,-0.005039,-0.006336,0.005128,-40.869999,0.5,-22.0,3b
2019-07-12_105057:100,-0.311646,-0.016266,-0.385376,-0.004703,-0.006275,0.005067,-40.869999,0.5,-22.0,3b
2019-07-12_105057:120,-0.307068,-0.016266,-0.386902,-0.004459,-0.006397,0.005128,-40.869999,0.5,-22.0,3b
2019-07-12_105057:140,-0.315216,-0.014740000000000001,-0.38739,-0.004520000000000001,-0.006488,0.004548,-39.75,1.18,-22.75,3b
2019-07-12_105057:160,-0.309113,-0.013213999999999998,-0.385864,-0.004703,-0.006214,0.004609,-39.75,1.18,-22.75,3b
2019-07-12_105057:180,-0.309113,-0.012695,-0.386902,-0.005222,-0.0061530000000000005,0.004671,-40.560001,1.56,-22.0,3b
2019-07-12_105057:200,-0.312653,-0.014221000000000001,-0.389435,-0.005619,-0.006336,0.00403,-40.560001,1.56,-22.0,3b
2019-07-12_105057:220,-0.308075,-0.014740000000000001,-0.388428,-0.005954,-0.006092,0.003694,-40.560001,1.56,-22.0,3b
2019-07-12_105057:240,-0.312164,-0.016266,-0.389954,-0.005832,-0.006275,0.0032359999999999997,-41.25,0.87,-23.559998999999998,3b
2019-07-12_105057:260,-0.311646,-0.016266,-0.388916,-0.005161,-0.006092,0.003694,-41.25,0.87,-23.559998999999998,3b
2019-07-12_105057:280,-0.311646,-0.015747,-0.38739,-0.004337,-0.005817,0.004213000000000001,-40.560001,1.56,-22.370001000000002,3b
2019-07-12_105057:300,-0.312653,-0.013213999999999998,-0.388428,-0.004184,-0.00539,0.0037549999999999997,-40.560001,1.56,-22.370001000000002,3b
2019-07-12_105057:320,-0.308075,-0.008636,-0.386383,-0.004581,-0.00539,0.003511,-40.560001,1.56,-22.370001000000002,3b
2019-07-12_105057:340,-0.308075,-0.009125,-0.386902,-0.0051,-0.005451,0.0039689999999999994,-40.869999,0.87,-22.370001000000002,3b
2019-07-12_105057:360,-0.308075,-0.011169,-0.386383,-0.005558,-0.006,0.003511,-40.869999,0.87,-22.370001000000002,3b
2019-07-12_105057:380,-0.308594,-0.011687999999999999,-0.388916,-0.006076,-0.006275,0.003297,-40.18,0.87,-22.370001000000002,3b
2019-07-12_105057:400,-0.311646,-0.013213999999999998,-0.386383,-0.005436,-0.006214,0.003633,-40.18,0.87,-22.370001000000002,3b
2019-07-12_105057:420,-0.315704,-0.013702,-0.388428,-0.005039,-0.0060609999999999995,0.0039689999999999994,-40.18,0.87,-22.370001000000002,3b
2019-07-12_105057:440,-0.309601,-0.012177,-0.387909,-0.004642,-0.005695,0.0037549999999999997,-40.18,0.87,-22.75,3b
2019-07-12_105057:460,-0.309601,-0.012177,-0.387909,-0.004459,-0.006,0.0029,-40.18,0.87,-22.75,3b
2019-07-12_105057:480,-0.31012,-0.009644,-0.387909,-0.004337,-0.0061530000000000005,0.002839,-40.869999,0.5,-24.0,3b
2019-07-12_105057:500,-0.311127,-0.010162000000000001,-0.386383,-0.0042450000000000005,-0.0061530000000000005,0.0037549999999999997,-40.869999,0.5,-24.0,3b
2019-07-12_105057:520,-0.309601,-0.008118,-0.386902,-0.004520000000000001,-0.006,0.003358,-40.869999,0.5,-24.0,3b
2019-07-12_105057:540,-0.309601,-0.008636,-0.386383,-0.004764,-0.005817,0.003114,-40.18,1.18,-22.0,3b
2019-07-12_105057:560,-0.308594,-0.009644,-0.386902,-0.004642,-0.006092,0.003694,-40.18,1.18,-22.0,3b
2019-07-12_105057:580,-0.309601,-0.009644,-0.386383,-0.004642,-0.006336,0.003694,-40.18,1.18,-22.370001000000002,3b
2019-07-12_105057:600,-0.310638,-0.009644,-0.386383,-0.004459,-0.006488,0.0034189999999999997,-40.18,1.18,-22.370001000000002,3b
2019-07-12_105057:620,-0.312164,-0.009644,-0.388916,-0.004275999999999999,-0.006488,0.003694,-40.18,1.18,-22.370001000000002,3b
2019-07-12_105057:640,-0.312164,-0.009125,-0.388916,-0.004123,-0.006336,0.0039689999999999994,-41.25,0.87,-22.75,3b
2019-07-12_105057:660,-0.312653,-0.008118,-0.389435,-0.003879,-0.006,0.003908,-41.25,0.87,-22.75,3b
2019-07-12_105057:680,-0.311646,-0.007599,-0.389954,-0.004123,-0.005817,0.004091,-40.869999,0.87,-22.370001000000002,3b
2019-07-12_105057:700,-0.311127,-0.008118,-0.386902,-0.0042450000000000005,-0.005695,0.004274,-40.869999,0.87,-22.370001000000002,3b
2019-07-12_105057:720,-0.312653,-0.008636,-0.388916,-0.004337,-0.005817,0.004457,-40.869999,0.87,-22.370001000000002,3b
2019-07-12_105057:740,-0.312164,-0.009644,-0.388428,-0.0042450000000000005,-0.005634,0.004518,-39.369999,-0.25,-21.559998999999998,3b
2019-07-12_105057:760,-0.311127,-0.009644,-0.386902,-0.0042450000000000005,-0.0055119999999999995,0.004793,-39.369999,-0.25,-21.559998999999998,3b
2019-07-12_105057:780,-0.312164,-0.009644,-0.385864,-0.004062,-0.005634,0.004945000000000001,-40.560001,1.18,-22.0,3b
2019-07-12_105057:800,-0.309601,-0.011687999999999999,-0.384338,-0.004062,-0.005725,0.005006,-40.560001,1.18,-22.0,3b
2019-07-12_105057:820,-0.307068,-0.012177,-0.384338,-0.00394,-0.0061530000000000005,0.005067,-40.560001,1.18,-22.0,3b
2019-07-12_105057:840,-0.314178,-0.012177,-0.385864,-0.00394,-0.006488,0.005006,-40.869999,0.06,-22.0,3b
2019-07-12_105057:860,-0.310638,-0.011169,-0.381805,-0.004062,-0.006336,0.00525,-40.869999,0.06,-22.0,3b
2019-07-12_105057:880,-0.311127,-0.012177,-0.385864,-0.004275999999999999,-0.006670999999999999,0.005067,-40.18,1.56,-23.18,3b
2019-07-12_105057:900,-0.310638,-0.011687999999999999,-0.385864,-0.004642,-0.006793,0.004793,-40.18,1.56,-23.18,3b
2019-07-12_105057:920,-0.306061,-0.013702,-0.386902,-0.004886,-0.0070680000000000005,0.004518,-40.18,1.56,-23.18,3b
2019-07-12_105057:940,-0.308594,-0.014221000000000001,-0.390442,-0.004764,-0.0076170000000000005,0.004274,-40.869999,1.56,-21.559998999999998,3b
2019-07-12_105057:960,-0.309113,-0.014740000000000001,-0.388916,-0.004520000000000001,-0.007526000000000001,0.004793,-40.869999,1.56,-21.559998999999998,3b
2019-07-12_105057:980,-0.31012,-0.014740000000000001,-0.390442,-0.004001,-0.007129000000000001,0.005525,-40.560001,0.5,-23.18,3b
2019-07-12_105058:000,-0.307587,-0.013702,-0.388428,-0.003879,-0.006731999999999999,0.004945000000000001,-40.560001,0.5,-23.18,3b
2019-07-12_105058:020,-0.305054,-0.011169,-0.388916,-0.0042450000000000005,-0.006548999999999999,0.005128,-40.560001,0.5,-23.18,3b
2019-07-12_105058:040,-0.306061,-0.013213999999999998,-0.389954,-0.004459,-0.006670999999999999,0.005464,-40.18,1.18,-22.370001000000002,3b
2019-07-12_105058:060,-0.308075,-0.013702,-0.391968,-0.004825,-0.006885,0.00525,-40.18,1.18,-22.370001000000002,3b
2019-07-12_105058:080,-0.313171,-0.016266,-0.392487,-0.005039,-0.006854000000000001,0.005128,-40.560001,1.18,-22.75,3b
2019-07-12_105058:100,-0.310638,-0.017273,-0.390961,-0.004978,-0.006275,0.00525,-40.560001,1.18,-22.75,3b
2019-07-12_105058:120,-0.311127,-0.017273,-0.394012,-0.004642,-0.005756,0.005128,-40.560001,1.18,-22.75,3b
2019-07-12_105058:140,-0.308075,-0.017792,-0.391479,-0.004520000000000001,-0.00539,0.004732,-41.68,1.18,-22.370001000000002,3b
2019-07-12_105058:160,-0.308075,-0.015228,-0.391968,-0.004459,-0.0055119999999999995,0.004152,-41.68,1.18,-22.370001000000002,3b
2019-07-12_105058:180,-0.308594,-0.017273,-0.390961,-0.004275999999999999,-0.005451,0.004457,-40.869999,0.87,-22.75,3b
2019-07-12_105058:200,-0.309113,-0.016753999999999998,-0.388916,-0.004062,-0.005176,0.004732,-40.869999,0.87,-22.75,3b
2019-07-12_105058:220,-0.309113,-0.012177,-0.389435,-0.004337,-0.004901,0.004182,-40.869999,0.87,-22.75,3b
2019-07-12_105058:240,-0.309601,-0.014740000000000001,-0.388916,-0.004520000000000001,-0.004718,0.00403,-40.560001,1.18,-22.75,3b
2019-07-12_105058:260,-0.309601,-0.015228,-0.386902,-0.004520000000000001,-0.004779,0.004274,-40.560001,1.18,-22.75,3b
2019-07-12_105058:280,-0.310638,-0.016753999999999998,-0.387909,-0.004581,-0.004779,0.003908,-40.560001,0.87,-23.18,3b
2019-07-12_105058:300,-0.30654899999999996,-0.015228,-0.384857,-0.004398,-0.004961999999999999,0.003633,-40.560001,0.87,-23.18,3b
2019-07-12_105058:320,-0.307068,-0.016266,-0.384338,-0.004001,-0.004993,0.003908,-40.560001,0.87,-23.18,3b
2019-07-12_105058:340,-0.310638,-0.015228,-0.385376,-0.003544,-0.005359,0.0038159999999999995,-40.869999,1.56,-22.370001000000002,3b
2019-07-12_105058:360,-0.310638,-0.014221000000000001,-0.385376,-0.0033299999999999996,-0.0055119999999999995,0.003572,-40.869999,1.56,-22.370001000000002,3b
2019-07-12_105058:380,-0.311127,-0.013702,-0.385864,-0.0033909999999999995,-0.005573,0.0038469999999999997,-40.18,1.56,-22.75,3b
2019-07-12_105058:400,-0.308594,-0.013702,-0.385864,-0.003483,-0.005451,0.0038469999999999997,-40.18,1.56,-22.75,3b
2019-07-12_105058:420,-0.307587,-0.013702,-0.386383,-0.0037270000000000003,-0.005817,0.0038469999999999997,-40.18,1.56,-22.75,3b
2019-07-12_105058:440,-0.309113,-0.014740000000000001,-0.386383,-0.003849,-0.005939,0.004274,-40.869999,1.56,-22.75,3b
2019-07-12_105058:460,-0.309601,-0.014740000000000001,-0.386383,-0.004123,-0.006092,0.004213000000000001,-40.869999,1.56,-22.75,3b
2019-07-12_105058:480,-0.308594,-0.014221000000000001,-0.388428,-0.004398,-0.006397,0.004152,-39.75,2.37,-23.18,3b
2019-07-12_105058:500,-0.311127,-0.016266,-0.388428,-0.004184,-0.0061530000000000005,0.004335,-39.75,2.37,-23.18,3b
2019-07-12_105058:520,-0.310638,-0.017273,-0.388428,-0.004275999999999999,-0.005878,0.004396,-39.75,2.37,-23.18,3b
2019-07-12_105058:540,-0.314697,-0.015747,-0.389954,-0.004001,-0.006214,0.004091,-40.869999,2.0,-23.18,3b
2019-07-12_105058:560,-0.31723,-0.015747,-0.389435,-0.004184,-0.005756,0.0039689999999999994,-40.869999,2.0,-23.18,3b
2019-07-12_105058:580,-0.310638,-0.015747,-0.386902,-0.003849,-0.00539,0.004609,-40.560001,2.0,-24.0,3b
2019-07-12_105058:600,-0.311127,-0.014221000000000001,-0.38739,-0.004184,-0.005176,0.004671,-40.560001,2.0,-24.0,3b
2019-07-12_105058:620,-0.30654899999999996,-0.016266,-0.384338,-0.004703,-0.0052369999999999995,0.0039689999999999994,-40.560001,2.0,-24.0,3b
2019-07-12_105058:640,-0.307068,-0.015747,-0.385376,-0.004886,-0.005634,0.003633,-40.869999,1.56,-22.75,3b
2019-07-12_105058:660,-0.311646,-0.016753999999999998,-0.386902,-0.005161,-0.0060609999999999995,0.003511,-40.869999,1.56,-22.75,3b
2019-07-12_105058:680,-0.311127,-0.015747,-0.386902,-0.004642,-0.005939,0.004213000000000001,-42.060001,2.0,-23.559998999999998,3b
2019-07-12_105058:700,-0.311127,-0.014221000000000001,-0.385376,-0.004459,-0.005878,0.004396,-42.060001,2.0,-23.559998999999998,3b
2019-07-12_105058:720,-0.309601,-0.014221000000000001,-0.385864,-0.004459,-0.005817,0.0039689999999999994,-42.060001,2.0,-23.559998999999998,3b
2019-07-12_105058:740,-0.308075,-0.012177,-0.386902,-0.004886,-0.0061530000000000005,0.004396,-40.869999,0.87,-22.370001000000002,3b
2019-07-12_105058:760,-0.309113,-0.013213999999999998,-0.386383,-0.005161,-0.006458,0.004732,-40.869999,0.87,-22.370001000000002,3b
