timestamp,AccX,AccY,AccZ,GyroX,GyroY,GyroZ,MagX,MagY,MagZ,Activity
2019-07-12_145334:440,-0.452484,-0.021851,-0.227264,-0.010423,-0.008181,0.001,-49.18,-18.870001000000002,-25.870001000000002,2b
2019-07-12_145334:460,-0.445374,-0.020844,-0.227264,-0.009751000000000001,-0.007662,0.001091,-49.560001,-18.870001000000002,-26.25,2b
2019-07-12_145334:480,-0.439758,-0.018799,-0.227753,-0.008012,-0.006379999999999999,0.00103,-49.560001,-18.870001000000002,-26.25,2b
2019-07-12_145334:500,-0.44232200000000005,-0.017273,-0.227753,-0.007370999999999999,-0.005801,0.001274,-48.75,-19.68,-27.5,2b
2019-07-12_145334:520,-0.444855,-0.014221000000000001,-0.227753,-0.006425,-0.003878,0.001549,-48.75,-19.68,-27.5,2b
2019-07-12_145334:540,-0.444855,-0.012695,-0.226746,-0.0063030000000000004,-0.0022,0.0014880000000000002,-48.75,-19.68,-27.5,2b
2019-07-12_145334:560,-0.444855,-0.011169,-0.223694,-0.006242,-0.000307,0.0016710000000000002,-48.060001,-19.25,-28.68,2b
2019-07-12_145334:580,-0.445862,-0.013213999999999998,-0.220642,-0.006242,0.0007,0.0019149999999999998,-48.060001,-19.25,-28.68,2b
2019-07-12_145334:600,-0.441284,-0.014221000000000001,-0.22116100000000002,-0.006547,0.000883,0.001854,-48.060001,-19.25,-28.68,2b
2019-07-12_145334:620,-0.43823199999999995,-0.013702,-0.22164899999999998,-0.00615,-9.4e-05,0.003228,-48.5,-19.68,-27.870001000000002,2b
2019-07-12_145334:640,-0.440796,-0.014221000000000001,-0.22116100000000002,-0.0063030000000000004,-0.001376,0.00457,-48.5,-19.68,-27.870001000000002,2b
2019-07-12_145334:660,-0.441803,-0.015228,-0.222687,-0.006486,-0.002261,0.004784,-49.560001,-18.870001000000002,-27.5,2b
2019-07-12_145334:680,-0.44638100000000003,-0.013213999999999998,-0.223694,-0.007279000000000001,-0.004183,0.005761,-49.560001,-18.870001000000002,-27.5,2b
2019-07-12_145334:700,-0.446899,-0.016266,-0.223694,-0.007431999999999999,-0.00461,0.005547,-49.560001,-19.68,-26.68,2b
2019-07-12_145334:720,-0.448425,-0.01828,-0.227264,-0.007951,-0.005465,0.0037770000000000004,-49.560001,-19.68,-26.68,2b
2019-07-12_145334:740,-0.444855,-0.016753999999999998,-0.228271,-0.007768000000000001,-0.006379999999999999,0.004357,-49.560001,-19.68,-26.68,2b
2019-07-12_145334:760,-0.440796,-0.017273,-0.230804,-0.007615,-0.006533,0.00515,-48.5,-19.25,-27.059998999999998,2b
2019-07-12_145334:780,-0.44281000000000004,-0.017273,-0.231323,-0.007829000000000001,-0.006716,0.005638000000000001,-48.5,-19.25,-27.059998999999998,2b
2019-07-12_145334:800,-0.443329,-0.015228,-0.23284899999999997,-0.008073,-0.006258,0.005181,-48.5,-19.25,-27.059998999999998,2b
2019-07-12_145334:820,-0.444855,-0.016266,-0.23233,-0.008958,-0.0042439999999999995,0.004418,-48.060001,-19.25,-27.870001000000002,2b
2019-07-12_145334:840,-0.445374,-0.019806,-0.23284899999999997,-0.009355,-0.0025960000000000002,0.0037159999999999997,-48.060001,-19.25,-27.870001000000002,2b
2019-07-12_145334:860,-0.44384799999999996,-0.019318000000000002,-0.231812,-0.009477,-0.001955,0.003228,-49.18,-18.870001000000002,-28.68,2b
2019-07-12_145334:880,-0.44232200000000005,-0.022858,-0.23028600000000002,-0.009141,-0.000246,0.002434,-49.18,-18.870001000000002,-28.68,2b
2019-07-12_145334:900,-0.440796,-0.024902,-0.231323,-0.008561,-9.4e-05,0.002129,-49.18,-18.870001000000002,-28.68,2b
2019-07-12_145334:920,-0.441803,-0.024384,-0.23028600000000002,-0.007095999999999999,-0.00036899999999999997,0.002892,-48.5,-19.25,-27.870001000000002,2b
2019-07-12_145334:940,-0.43927,-0.023895,-0.22879000000000002,-0.006089,-0.001101,0.003563,-48.5,-19.25,-27.870001000000002,2b
2019-07-12_145334:960,-0.43823199999999995,-0.024384,-0.23284899999999997,-0.005601,-0.00162,0.0034409999999999996,-48.75,-18.5,-27.870001000000002,2b
2019-07-12_145334:980,-0.43927,-0.022369,-0.230804,-0.005204,-0.003146,0.0037159999999999997,-48.75,-18.5,-27.870001000000002,2b
2019-07-12_145335:000,-0.443329,-0.021332,-0.23233,-0.005143,-0.0034509999999999996,0.004357,-48.5,-19.68,-27.5,2b
2019-07-12_145335:020,-0.444855,-0.021851,-0.23284899999999997,-0.00554,-0.002932,0.004113,-48.5,-19.68,-27.5,2b
2019-07-12_145335:040,-0.446899,-0.020325,-0.23028600000000002,-0.005845,-0.002139,0.0034409999999999996,-48.5,-19.68,-27.5,2b
2019-07-12_145335:060,-0.444855,-0.021332,-0.231812,-0.006028,-0.0017420000000000003,0.003258,-48.75,-18.5,-27.5,2b
2019-07-12_145335:080,-0.441284,-0.022858,-0.22879000000000002,-0.006486,-0.000521,0.002129,-48.75,-18.5,-27.5,2b
2019-07-12_145335:100,-0.44232200000000005,-0.023375999999999997,-0.231323,-0.006486,-0.00036899999999999997,0.00161,-48.75,-18.5,-27.5,2b
2019-07-12_145335:120,-0.44027700000000003,-0.022369,-0.227753,-0.00615,2.8000000000000003e-05,0.001091,-48.75,-18.870001000000002,-27.5,2b
2019-07-12_145335:140,-0.437225,-0.021851,-0.226746,-0.006181,-0.000185,0.001091,-48.75,-18.870001000000002,-27.5,2b
2019-07-12_145335:160,-0.435699,-0.022369,-0.22879000000000002,-0.005906000000000001,-0.0011619999999999998,0.001549,-49.18,-18.5,-27.5,2b
2019-07-12_145335:180,-0.44027700000000003,-0.021851,-0.227753,-0.005967,-0.0018030000000000001,0.0014269999999999999,-49.18,-18.5,-27.5,2b
2019-07-12_145335:200,-0.44232200000000005,-0.021851,-0.22879000000000002,-0.006089,-0.002535,0.0014269999999999999,-49.560001,-18.870001000000002,-27.059998999999998,2b
2019-07-12_145335:220,-0.44433599999999995,-0.022858,-0.22927899999999998,-0.006181,-0.002535,0.00161,-49.560001,-18.870001000000002,-27.059998999999998,2b
2019-07-12_145335:240,-0.445374,-0.021332,-0.230804,-0.00615,-0.002139,0.001396,-49.560001,-18.870001000000002,-27.059998999999998,2b
2019-07-12_145335:260,-0.44433599999999995,-0.022858,-0.231323,-0.006028,-0.002078,0.001152,-49.18,-18.5,-27.5,2b
2019-07-12_145335:280,-0.440796,-0.023375999999999997,-0.22979699999999997,-0.0056619999999999995,-0.0017420000000000003,0.0009390000000000001,-49.18,-18.5,-27.5,2b
2019-07-12_145335:300,-0.439758,-0.023375999999999997,-0.22979699999999997,-0.005326,-0.00162,0.0009390000000000001,-48.5,-18.5,-28.68,2b
2019-07-12_145335:320,-0.441803,-0.022369,-0.230804,-0.0049299999999999995,-0.001498,0.001396,-48.5,-18.5,-28.68,2b
2019-07-12_145335:340,-0.44027700000000003,-0.021332,-0.22879000000000002,-0.004594,-0.0012230000000000001,0.001396,-48.5,-18.5,-28.68,2b
2019-07-12_145335:360,-0.44232200000000005,-0.019318000000000002,-0.231812,-0.004654999999999999,-0.0012230000000000001,0.001396,-48.75,-17.370001000000002,-28.68,2b
2019-07-12_145335:380,-0.443329,-0.019318000000000002,-0.22879000000000002,-0.005265,-0.0009789999999999998,0.001,-48.75,-17.370001000000002,-28.68,2b
2019-07-12_145335:400,-0.44232200000000005,-0.018799,-0.231812,-0.0054789999999999995,-0.0009789999999999998,8.4e-05,-48.75,-17.370001000000002,-28.68,2b
2019-07-12_145335:420,-0.44281000000000004,-0.017792,-0.231812,-0.005723,-0.0012230000000000001,8.4e-05,-48.75,-18.870001000000002,-28.68,2b
2019-07-12_145335:440,-0.43927,-0.018799,-0.23028600000000002,-0.005845,-0.001315,0.0016710000000000002,-48.75,-18.870001000000002,-28.68,2b
2019-07-12_145335:460,-0.441284,-0.020325,-0.22927899999999998,-0.005815,-0.0011619999999999998,0.0017929999999999999,-48.75,-18.870001000000002,-28.68,2b
2019-07-12_145335:480,-0.440796,-0.019318000000000002,-0.22879000000000002,-0.006242,-0.000704,0.000817,-48.75,-18.870001000000002,-28.68,2b
2019-07-12_145335:500,-0.441284,-0.018799,-0.227753,-0.006242,-0.000521,0.00042,-48.75,-18.870001000000002,-28.68,2b
2019-07-12_145335:520,-0.44384799999999996,-0.019806,-0.22927899999999998,-0.006028,-0.000521,0.00042,-49.18,-18.870001000000002,-28.68,2b
2019-07-12_145335:540,-0.44433599999999995,-0.020844,-0.227753,-0.006028,-0.00043,0.000359,-49.18,-18.870001000000002,-28.68,2b
2019-07-12_145335:560,-0.441803,-0.020325,-0.227753,-0.005601,-0.000246,0.000878,-48.5,-19.25,-27.870001000000002,2b
2019-07-12_145335:580,-0.44281000000000004,-0.021332,-0.226227,-0.005204,-0.000582,0.000878,-48.5,-19.25,-27.870001000000002,2b
2019-07-12_145335:600,-0.443329,-0.016753999999999998,-0.226746,-0.005143,-0.000918,0.000603,-48.5,-19.25,-27.870001000000002,2b
2019-07-12_145335:620,-0.44027700000000003,-0.016753999999999998,-0.226227,-0.005052,-0.0011619999999999998,0.001396,-49.560001,-18.5,-28.25,2b
2019-07-12_145335:640,-0.43927,-0.019806,-0.226746,-0.005052,-0.001559,0.001152,-49.560001,-18.5,-28.25,2b
2019-07-12_145335:660,-0.43927,-0.016753999999999998,-0.22879000000000002,-0.005052,-0.001864,0.000206,-49.18,-19.25,-27.870001000000002,2b
2019-07-12_145335:680,-0.440796,-0.016753999999999998,-0.22879000000000002,-0.005082,-0.0022,0.00161,-49.18,-19.25,-27.870001000000002,2b
2019-07-12_145335:700,-0.44232200000000005,-0.017792,-0.22927899999999998,-0.005052,-0.0022,0.002251,-48.75,-18.5,-27.870001000000002,2b
2019-07-12_145335:720,-0.44232200000000005,-0.015747,-0.22927899999999998,-0.0054789999999999995,-0.001864,0.0016710000000000002,-48.75,-18.5,-27.870001000000002,2b
2019-07-12_145335:740,-0.44384799999999996,-0.016753999999999998,-0.22879000000000002,-0.005815,-0.001498,0.0014880000000000002,-48.75,-18.5,-27.870001000000002,2b
2019-07-12_145335:760,-0.44384799999999996,-0.01828,-0.22979699999999997,-0.005906000000000001,-0.0012230000000000001,0.00161,-49.18,-18.870001000000002,-27.870001000000002,2b
2019-07-12_145335:780,-0.44433599999999995,-0.019318000000000002,-0.22879000000000002,-0.006089,-0.0010400000000000001,0.001335,-49.18,-18.870001000000002,-27.870001000000002,2b
2019-07-12_145335:800,-0.445374,-0.01828,-0.22979699999999997,-0.005906000000000001,-0.000918,0.001,-49.18,-18.870001000000002,-27.870001000000002,2b
2019-07-12_145335:820,-0.44433599999999995,-0.01828,-0.227753,-0.005815,-0.00036899999999999997,0.001549,-48.75,-19.25,-28.25,2b
2019-07-12_145335:840,-0.44281000000000004,-0.018799,-0.22879000000000002,-0.005448,-0.00043,0.001854,-48.75,-19.25,-28.25,2b
2019-07-12_145335:860,-0.44281000000000004,-0.019318000000000002,-0.226746,-0.005448,-0.000582,0.0019149999999999998,-49.18,-19.25,-27.870001000000002,2b
2019-07-12_145335:880,-0.44232200000000005,-0.016266,-0.22421300000000002,-0.005601,-0.0007650000000000001,0.002129,-49.18,-19.25,-27.870001000000002,2b
2019-07-12_145335:900,-0.440796,-0.01828,-0.225739,-0.0056619999999999995,-0.0009789999999999998,0.002434,-48.75,-18.870001000000002,-27.870001000000002,2b
2019-07-12_145335:920,-0.440796,-0.017792,-0.225739,-0.005815,-0.0012230000000000001,0.002434,-48.75,-18.870001000000002,-27.870001000000002,2b
2019-07-12_145335:940,-0.44232200000000005,-0.020325,-0.225739,-0.005967,-0.001437,0.002129,-48.75,-18.870001000000002,-27.870001000000002,2b
2019-07-12_145335:960,-0.444855,-0.020844,-0.226227,-0.005906000000000001,-0.001437,0.0017629999999999998,-48.75,-19.25,-27.870001000000002,2b
2019-07-12_145335:980,-0.444855,-0.021332,-0.225739,-0.005784,-0.0011619999999999998,0.0016710000000000002,-48.75,-19.25,-27.870001000000002,2b
2019-07-12_145336:000,-0.44638100000000003,-0.020844,-0.226227,-0.0056619999999999995,-0.001101,0.0016710000000000002,-48.75,-19.25,-27.870001000000002,2b
2019-07-12_145336:020,-0.44638100000000003,-0.019806,-0.226227,-0.005386999999999999,-0.000185,0.00161,-49.560001,-18.870001000000002,-28.68,2b
2019-07-12_145336:040,-0.44384799999999996,-0.018799,-0.224701,-0.005386999999999999,0.000364,0.0014269999999999999,-49.560001,-18.870001000000002,-28.68,2b
2019-07-12_145336:060,-0.443329,-0.020325,-0.223694,-0.005448,0.000303,0.001213,-48.060001,-19.25,-27.059998999999998,2b
2019-07-12_145336:080,-0.44027700000000003,-0.020325,-0.22521999999999998,-0.005265,-0.000185,0.000359,-48.060001,-19.25,-27.059998999999998,2b
2019-07-12_145336:100,-0.443329,-0.016266,-0.228271,-0.005265,-0.001101,0.000206,-48.060001,-19.25,-27.059998999999998,2b
2019-07-12_145336:120,-0.44232200000000005,-0.017792,-0.227264,-0.004807,-0.0010400000000000001,0.0019149999999999998,-48.5,-18.18,-27.870001000000002,2b
2019-07-12_145336:140,-0.44638100000000003,-0.017792,-0.226746,-0.004594,-0.000582,0.002495,-48.5,-18.18,-27.870001000000002,2b
2019-07-12_145336:160,-0.444855,-0.015747,-0.226227,-0.004807,-9.4e-05,0.001732,-48.75,-18.870001000000002,-27.059998999999998,2b
2019-07-12_145336:180,-0.445374,-0.017273,-0.225739,-0.005052,0.000669,0.001274,-48.75,-18.870001000000002,-27.059998999999998,2b
2019-07-12_145336:200,-0.44638100000000003,-0.017792,-0.22421300000000002,-0.005265,0.000944,0.001,-48.75,-18.870001000000002,-27.059998999999998,2b
2019-07-12_145336:220,-0.446899,-0.01828,-0.22164899999999998,-0.005204,0.0010960000000000002,0.0007559999999999999,-48.5,-18.5,-27.059998999999998,2b
2019-07-12_145336:240,-0.44638100000000003,-0.020325,-0.22164899999999998,-0.004869,0.001218,0.001335,-48.5,-18.5,-27.059998999999998,2b
2019-07-12_145336:260,-0.445862,-0.020325,-0.22116100000000002,-0.00435,0.001005,0.0016710000000000002,-49.18,-18.870001000000002,-27.870001000000002,2b
2019-07-12_145336:280,-0.445862,-0.017792,-0.219635,-0.004258,0.0007,0.001213,-49.18,-18.870001000000002,-27.870001000000002,2b
2019-07-12_145336:300,-0.44384799999999996,-0.017273,-0.21911599999999998,-0.004136,0.000547,0.001549,-49.18,-18.870001000000002,-27.870001000000002,2b
2019-07-12_145336:320,-0.440796,-0.017792,-0.220123,-0.004197,0.00015,0.001396,-50.0,-18.870001000000002,-27.059998999999998,2b
2019-07-12_145336:340,-0.44232200000000005,-0.015747,-0.220123,-0.004594,-0.00045999999999999996,0.000542,-50.0,-18.870001000000002,-27.059998999999998,2b
2019-07-12_145336:360,-0.44384799999999996,-0.015747,-0.219635,-0.004685,-0.000582,0.002037,-49.18,-18.870001000000002,-27.059998999999998,2b
2019-07-12_145336:380,-0.445374,-0.017792,-0.219635,-0.0049299999999999995,-0.000857,0.003167,-49.18,-18.870001000000002,-27.059998999999998,2b
2019-07-12_145336:400,-0.44638100000000003,-0.015747,-0.220642,-0.005601,-0.0010400000000000001,0.0019760000000000003,-49.18,-18.870001000000002,-27.059998999999998,2b
2019-07-12_145336:420,-0.446899,-0.01828,-0.21911599999999998,-0.006089,-0.000704,0.0017629999999999998,-48.75,-18.870001000000002,-27.870001000000002,2b
2019-07-12_145336:440,-0.44891400000000004,-0.021332,-0.220642,-0.006028,-0.000826,0.002129,-48.75,-18.870001000000002,-27.870001000000002,2b
2019-07-12_145336:460,-0.44891400000000004,-0.021332,-0.21810900000000003,-0.006089,-0.00043,0.00161,-50.0,-19.25,-27.059998999999998,2b
2019-07-12_145336:480,-0.447906,-0.023375999999999997,-0.21810900000000003,-0.0056619999999999995,-0.000307,0.001732,-50.0,-19.25,-27.059998999999998,2b
2019-07-12_145336:500,-0.446899,-0.022369,-0.21859699999999999,-0.005052,-0.00045999999999999996,0.00161,-50.0,-19.25,-27.059998999999998,2b
2019-07-12_145336:520,-0.446899,-0.020844,-0.21810900000000003,-0.004533,-0.0007650000000000001,0.001549,-49.18,-18.5,-27.5,2b
2019-07-12_145336:540,-0.447388,-0.01828,-0.21810900000000003,-0.004319,-0.0012230000000000001,0.001854,-49.18,-18.5,-27.5,2b
2019-07-12_145336:560,-0.447388,-0.016753999999999998,-0.21759,-0.004136,-0.0011619999999999998,0.0017629999999999998,-49.18,-18.5,-27.059998999999998,2b
2019-07-12_145336:580,-0.44384799999999996,-0.016753999999999998,-0.21505700000000003,-0.004533,-0.001315,0.0014880000000000002,-49.18,-18.5,-27.059998999999998,2b
2019-07-12_145336:600,-0.444855,-0.016266,-0.21759,-0.004869,-0.0017420000000000003,0.00161,-49.18,-18.5,-27.059998999999998,2b
2019-07-12_145336:620,-0.443329,-0.018799,-0.217072,-0.005326,-0.001864,0.002037,-49.560001,-18.870001000000002,-27.059998999999998,2b
2019-07-12_145336:640,-0.447388,-0.018799,-0.21859699999999999,-0.005815,-0.0022,0.0021899999999999997,-49.560001,-18.870001000000002,-27.059998999999998,2b
2019-07-12_145336:660,-0.448425,-0.020325,-0.21911599999999998,-0.006028,-0.002535,0.0019149999999999998,-49.560001,-18.870001000000002,-27.059998999999998,2b
2019-07-12_145336:680,-0.453003,-0.021332,-0.21859699999999999,-0.005967,-0.002352,0.0017929999999999999,-49.560001,-18.870001000000002,-27.059998999999998,2b
2019-07-12_145336:700,-0.44891400000000004,-0.019806,-0.21911599999999998,-0.005845,-0.0016809999999999998,0.0016710000000000002,-49.560001,-18.870001000000002,-27.059998999999998,2b
2019-07-12_145336:720,-0.44891400000000004,-0.021332,-0.220123,-0.0054789999999999995,-0.001254,0.0023120000000000003,-50.0,-18.870001000000002,-27.870001000000002,2b
2019-07-12_145336:740,-0.44384799999999996,-0.023375999999999997,-0.21911599999999998,-0.005386999999999999,-0.0012230000000000001,0.0021899999999999997,-50.0,-18.870001000000002,-27.870001000000002,2b
2019-07-12_145336:760,-0.441284,-0.020844,-0.223694,-0.005143,-0.001925,0.001152,-50.0,-18.5,-26.25,2b
2019-07-12_145336:780,-0.44433599999999995,-0.01828,-0.222687,-0.005265,-0.0028710000000000003,0.0017629999999999998,-50.0,-18.5,-26.25,2b
2019-07-12_145336:800,-0.447906,-0.019318000000000002,-0.22164899999999998,-0.005326,-0.003054,0.0034409999999999996,-50.0,-18.5,-26.25,2b
2019-07-12_145336:820,-0.449432,-0.019318000000000002,-0.223175,-0.005906000000000001,-0.0024739999999999996,0.0028309999999999997,-48.75,-18.5,-26.68,2b
2019-07-12_145336:840,-0.447906,-0.018799,-0.223694,-0.006547,-0.001437,0.001396,-48.75,-18.5,-26.68,2b
2019-07-12_145336:860,-0.449432,-0.021332,-0.223175,-0.006822,-0.000918,0.001152,-49.560001,-19.25,-27.059998999999998,2b
2019-07-12_145336:880,-0.448425,-0.023375999999999997,-0.22116100000000002,-0.006822,-0.000246,0.001152,-49.560001,-19.25,-27.059998999999998,2b
2019-07-12_145336:900,-0.449432,-0.021851,-0.22116100000000002,-0.0063030000000000004,0.000364,0.001213,-49.560001,-19.25,-27.059998999999998,2b
2019-07-12_145336:920,-0.448425,-0.022858,-0.220642,-0.005815,0.000547,0.001732,-49.18,-18.5,-27.870001000000002,2b
2019-07-12_145336:940,-0.447388,-0.021332,-0.219635,-0.005143,0.000425,0.001549,-49.18,-18.5,-27.870001000000002,2b
2019-07-12_145336:960,-0.448425,-0.01828,-0.219635,-0.005204,0.00048600000000000005,0.0017929999999999999,-49.560001,-18.870001000000002,-26.25,2b
2019-07-12_145336:980,-0.446899,-0.019318000000000002,-0.216583,-0.005386999999999999,0.000272,0.002251,-49.560001,-18.870001000000002,-26.25,2b
2019-07-12_145337:000,-0.444855,-0.018799,-0.217072,-0.0056619999999999995,-3.3e-05,0.000634,-49.560001,-18.870001000000002,-26.25,2b
2019-07-12_145337:020,-0.445374,-0.016266,-0.216583,-0.006242,-0.000307,0.000267,-49.18,-18.18,-27.059998999999998,2b
2019-07-12_145337:040,-0.44638100000000003,-0.018799,-0.21606399999999998,-0.00615,-0.000704,0.002098,-49.18,-18.18,-27.059998999999998,2b
2019-07-12_145337:060,-0.44995100000000005,-0.020844,-0.21911599999999998,-0.005845,-0.000826,0.0019760000000000003,-48.75,-19.25,-27.059998999999998,2b
2019-07-12_145337:080,-0.44891400000000004,-0.019806,-0.21606399999999998,-0.006028,-0.000521,0.000695,-48.75,-19.25,-27.059998999999998,2b
2019-07-12_145337:100,-0.44891400000000004,-0.021332,-0.21606399999999998,-0.005143,-9.4e-05,0.001091,-48.75,-19.25,-27.059998999999998,2b
2019-07-12_145337:120,-0.449432,-0.020844,-0.217072,-0.004746,0.000303,0.0009390000000000001,-49.18,-19.25,-27.059998999999998,2b
2019-07-12_145337:140,-0.44891400000000004,-0.01828,-0.21606399999999998,-0.004258,0.000272,0.000878,-49.18,-19.25,-27.059998999999998,2b
2019-07-12_145337:160,-0.44891400000000004,-0.016753999999999998,-0.21453899999999998,-0.004136,0.000272,0.001335,-49.560001,-18.870001000000002,-27.5,2b
2019-07-12_145337:180,-0.449432,-0.015747,-0.213013,-0.004075,-0.000185,0.0016710000000000002,-49.560001,-18.870001000000002,-27.5,2b
2019-07-12_145337:200,-0.448425,-0.014221000000000001,-0.213013,-0.004319,-0.00036899999999999997,0.0019760000000000003,-49.560001,-18.870001000000002,-27.5,2b
2019-07-12_145337:220,-0.44638100000000003,-0.013702,-0.21249400000000002,-0.004807,-0.000643,0.002648,-48.75,-18.5,-26.25,2b
2019-07-12_145337:240,-0.447388,-0.014740000000000001,-0.21249400000000002,-0.005723,-0.000826,0.002892,-48.75,-18.5,-26.25,2b
2019-07-12_145337:260,-0.447388,-0.016266,-0.21402,-0.006364,-0.001315,0.003258,-50.0,-18.5,-27.059998999999998,2b
2019-07-12_145337:280,-0.447906,-0.018799,-0.213531,-0.006761,-0.00162,0.003563,-50.0,-18.5,-27.059998999999998,2b
2019-07-12_145337:300,-0.44891400000000004,-0.019806,-0.213531,-0.007279000000000001,-0.001925,0.003655,-50.0,-18.5,-27.059998999999998,2b
2019-07-12_145337:320,-0.453491,-0.020325,-0.213013,-0.007431999999999999,-0.001864,0.004052,-49.560001,-18.870001000000002,-25.870001000000002,2b
2019-07-12_145337:340,-0.44995100000000005,-0.022858,-0.213013,-0.007156999999999999,-0.001559,0.004021,-49.560001,-18.870001000000002,-25.870001000000002,2b
2019-07-12_145337:360,-0.45196499999999995,-0.022369,-0.213531,-0.007095999999999999,-0.001498,0.0037159999999999997,-49.18,-18.870001000000002,-26.68,2b
2019-07-12_145337:380,-0.446899,-0.024384,-0.213013,-0.006883,-0.001101,0.003899,-49.18,-18.870001000000002,-26.68,2b
2019-07-12_145337:400,-0.44638100000000003,-0.024902,-0.21453899999999998,-0.0067,-0.001498,0.003167,-49.18,-18.870001000000002,-26.68,2b
2019-07-12_145337:420,-0.44638100000000003,-0.022858,-0.21453899999999998,-0.006486,-0.001925,0.002434,-49.18,-18.18,-26.68,2b
2019-07-12_145337:440,-0.445374,-0.023375999999999997,-0.21402,-0.006181,-0.002352,0.003258,-49.18,-18.18,-26.68,2b
2019-07-12_145337:460,-0.447906,-0.021332,-0.21554600000000002,-0.006364,-0.0024739999999999996,0.00396,-50.0,-18.18,-25.870001000000002,2b
2019-07-12_145337:480,-0.44891400000000004,-0.023375999999999997,-0.21453899999999998,-0.006761,-0.002261,0.002983,-50.0,-18.18,-25.870001000000002,2b
2019-07-12_145337:500,-0.449432,-0.024384,-0.21505700000000003,-0.007370999999999999,-0.002322,0.0023120000000000003,-50.0,-18.18,-25.870001000000002,2b
2019-07-12_145337:520,-0.449432,-0.024902,-0.21606399999999998,-0.00731,-0.002016,0.0019149999999999998,-48.75,-18.870001000000002,-25.5,2b
2019-07-12_145337:540,-0.44995100000000005,-0.025421,-0.213531,-0.007279000000000001,-0.0016809999999999998,0.001396,-48.75,-18.870001000000002,-25.5,2b
2019-07-12_145337:560,-0.453003,-0.026427999999999997,-0.21606399999999998,-0.006822,-0.001315,0.001152,-48.75,-18.870001000000002,-25.870001000000002,2b
2019-07-12_145337:580,-0.45095799999999997,-0.026917,-0.213531,-0.005967,-0.001376,0.001335,-48.75,-18.870001000000002,-25.870001000000002,2b
2019-07-12_145337:600,-0.451477,-0.022369,-0.21453899999999998,-0.0054789999999999995,-0.001376,0.00103,-48.75,-18.870001000000002,-25.870001000000002,2b
2019-07-12_145337:620,-0.44384799999999996,-0.019318000000000002,-0.213013,-0.0054789999999999995,-0.0012230000000000001,0.001854,-49.18,-18.870001000000002,-26.68,2b
2019-07-12_145337:640,-0.44433599999999995,-0.021851,-0.21810900000000003,-0.0056619999999999995,-0.00162,0.0023120000000000003,-49.18,-18.870001000000002,-26.68,2b
2019-07-12_145337:660,-0.444855,-0.019806,-0.216583,-0.006028,-0.002352,0.000298,-50.0,-18.18,-27.059998999999998,2b
2019-07-12_145337:680,-0.44891400000000004,-0.019318000000000002,-0.21402,-0.006761,-0.0027489999999999997,-0.00018999999999999998,-50.0,-18.18,-27.059998999999998,2b
2019-07-12_145337:700,-0.45095799999999997,-0.022858,-0.21554600000000002,-0.006822,-0.002718,0.001274,-50.0,-18.18,-27.059998999999998,2b
2019-07-12_145337:720,-0.447906,-0.021332,-0.216583,-0.006639,-0.002535,0.001,-49.18,-18.5,-25.870001000000002,2b
2019-07-12_145337:740,-0.44891400000000004,-0.019318000000000002,-0.216583,-0.006181,-0.0024129999999999998,0.000481,-49.18,-18.5,-25.870001000000002,2b
2019-07-12_145337:760,-0.446899,-0.01828,-0.216583,-0.005845,-0.0024739999999999996,0.001335,-49.18,-18.18,-27.5,2b
2019-07-12_145337:780,-0.447906,-0.017273,-0.21554600000000002,-0.005845,-0.0024739999999999996,0.00161,-49.18,-18.18,-27.5,2b
2019-07-12_145337:800,-0.446899,-0.016266,-0.21606399999999998,-0.005967,-0.001955,0.002037,-49.18,-18.18,-27.5,2b
2019-07-12_145337:820,-0.444855,-0.017792,-0.217072,-0.006181,-0.002078,0.002892,-49.560001,-18.870001000000002,-26.68,2b
2019-07-12_145337:840,-0.44638100000000003,-0.020844,-0.21810900000000003,-0.006425,-0.0024739999999999996,0.002495,-49.560001,-18.870001000000002,-26.68,2b
2019-07-12_145337:860,-0.45043900000000003,-0.022369,-0.21911599999999998,-0.006486,-0.0025960000000000002,0.0019760000000000003,-49.18,-18.870001000000002,-26.68,2b
2019-07-12_145337:880,-0.451477,-0.024902,-0.21606399999999998,-0.005845,-0.002139,0.001549,-49.18,-18.870001000000002,-26.68,2b
2019-07-12_145337:900,-0.44995100000000005,-0.026427999999999997,-0.219635,-0.004685,-0.0018030000000000001,0.0007559999999999999,-49.18,-18.870001000000002,-26.68,2b
2019-07-12_145337:920,-0.449432,-0.021332,-0.21859699999999999,-0.0034649999999999998,-0.00162,0.000878,-49.560001,-18.5,-26.68,2b
2019-07-12_145337:940,-0.449432,-0.017792,-0.21911599999999998,-0.002549,-0.001437,0.0019149999999999998,-49.560001,-18.5,-26.68,2b
2019-07-12_145337:960,-0.44995100000000005,-0.012177,-0.21759,-0.002671,-0.0012230000000000001,0.0038380000000000003,-49.18,-18.870001000000002,-25.5,2b
2019-07-12_145337:980,-0.45196499999999995,-0.009644,-0.21505700000000003,-0.004075,-0.000826,0.005577,-49.18,-18.870001000000002,-25.5,2b
2019-07-12_145338:000,-0.44995100000000005,-0.008636,-0.21606399999999998,-0.006364,-0.00045999999999999996,0.006431999999999999,-49.18,-18.870001000000002,-25.5,2b
2019-07-12_145338:020,-0.44995100000000005,-0.012177,-0.21453899999999998,-0.009415999999999999,-0.00045999999999999996,0.006096,-49.18,-18.5,-26.68,2b
2019-07-12_145338:040,-0.447906,-0.022858,-0.213531,-0.011613,-0.000185,0.004418,-49.18,-18.5,-26.68,2b
2019-07-12_145338:060,-0.444855,-0.028961,-0.21554600000000002,-0.012071,-0.000521,0.0019149999999999998,-49.560001,-17.75,-27.059998999999998,2b
2019-07-12_145338:080,-0.438751,-0.036072,-0.213531,-0.011003,-0.001559,0.000481,-49.560001,-17.75,-27.059998999999998,2b
2019-07-12_145338:100,-0.440796,-0.038635,-0.217072,-0.008348000000000001,-0.002932,0.000634,-49.560001,-17.75,-27.059998999999998,2b
2019-07-12_145338:120,-0.44232200000000005,-0.039124,-0.21759,-0.004807,-0.003725,0.0007559999999999999,-50.0,-17.75,-26.68,2b
2019-07-12_145338:140,-0.444855,-0.035065,-0.217072,-0.0016640000000000001,-0.004122,0.000481,-50.0,-17.75,-26.68,2b
2019-07-12_145338:160,-0.453491,-0.027435,-0.219635,0.0009599999999999999,-0.0037869999999999996,0.0014880000000000002,-50.0,-18.18,-26.68,2b
2019-07-12_145338:180,-0.45654300000000003,-0.021851,-0.21759,0.0020280000000000003,-0.0027489999999999997,0.0029219999999999997,-50.0,-18.18,-26.68,2b
2019-07-12_145338:200,-0.45553599999999994,-0.011687999999999999,-0.21911599999999998,0.0013880000000000001,-0.0015890000000000001,0.0035020000000000003,-50.0,-18.18,-26.68,2b
2019-07-12_145338:220,-0.45401,-0.009644,-0.21606399999999998,-0.00081,-0.000521,0.004113,-49.560001,-18.18,-27.059998999999998,2b
2019-07-12_145338:240,-0.449432,-0.007111,-0.216583,-0.003922,-3.3e-05,0.004235,-49.560001,-18.18,-27.059998999999998,2b
2019-07-12_145338:260,-0.447388,-0.009125,-0.21505700000000003,-0.007156999999999999,-0.000246,0.003624,-50.25,-18.18,-26.25,2b
2019-07-12_145338:280,-0.439758,-0.016753999999999998,-0.212006,-0.010087,-0.0009789999999999998,0.003258,-50.25,-18.18,-26.25,2b
2019-07-12_145338:300,-0.43774399999999997,-0.024384,-0.21554600000000002,-0.011552,-0.0022,0.002526,-50.25,-18.18,-26.25,2b
2019-07-12_145338:320,-0.439758,-0.031006,-0.217072,-0.011796,-0.003878,0.0014880000000000002,-50.0,-18.870001000000002,-27.059998999999998,2b
2019-07-12_145338:340,-0.44433599999999995,-0.034546,-0.217072,-0.010087,-0.004915999999999999,0.00161,-50.0,-18.870001000000002,-27.059998999999998,2b
2019-07-12_145338:360,-0.451477,-0.038635,-0.219635,-0.007615,-0.004915999999999999,0.0016710000000000002,-49.18,-17.370001000000002,-25.870001000000002,2b
2019-07-12_145338:380,-0.45401,-0.036591000000000005,-0.219635,-0.005204,-0.004122,0.000695,-49.18,-17.370001000000002,-25.870001000000002,2b
2019-07-12_145338:400,-0.453491,-0.029968,-0.220123,-0.003007,-0.0024739999999999996,0.001335,-49.18,-17.370001000000002,-25.870001000000002,2b
2019-07-12_145338:420,-0.449432,-0.025421,-0.21859699999999999,-0.001756,-0.001559,0.002373,-50.0,-18.870001000000002,-26.68,2b
2019-07-12_145338:440,-0.444855,-0.019806,-0.219635,-0.002,-0.0010400000000000001,0.002495,-50.0,-18.870001000000002,-26.68,2b
2019-07-12_145338:460,-0.444855,-0.016266,-0.21810900000000003,-0.003221,-0.0011619999999999998,0.002709,-48.75,-17.75,-28.25,2b
2019-07-12_145338:480,-0.44433599999999995,-0.015228,-0.21911599999999998,-0.0049299999999999995,-0.0016809999999999998,0.003228,-48.75,-17.75,-28.25,2b
2019-07-12_145338:500,-0.445374,-0.015747,-0.21911599999999998,-0.006883,-0.002016,0.003258,-48.75,-17.75,-28.25,2b
2019-07-12_145338:520,-0.44891400000000004,-0.022369,-0.220642,-0.008805,-0.002718,0.0029219999999999997,-50.0,-18.18,-26.68,2b
2019-07-12_145338:540,-0.447906,-0.026427999999999997,-0.21810900000000003,-0.009599,-0.0028710000000000003,0.002129,-50.0,-18.18,-26.68,2b
2019-07-12_145338:560,-0.447906,-0.030487,-0.223175,-0.009294,-0.0027489999999999997,0.0016710000000000002,-49.560001,-18.18,-26.25,2b
2019-07-12_145338:580,-0.448425,-0.034546,-0.22216799999999998,-0.007951,-0.002352,0.001152,-49.560001,-18.18,-26.25,2b
2019-07-12_145338:600,-0.447906,-0.031494,-0.220123,-0.006181,-0.002016,0.000603,-49.560001,-18.18,-26.25,2b
2019-07-12_145338:620,-0.44891400000000004,-0.029968,-0.22116100000000002,-0.004746,-0.0016809999999999998,0.000634,-49.560001,-17.75,-26.68,2b
2019-07-12_145338:640,-0.448425,-0.025421,-0.21911599999999998,-0.0038,-0.001437,0.001335,-49.560001,-17.75,-26.68,2b
2019-07-12_145338:660,-0.447906,-0.022369,-0.220123,-0.00316,-0.000918,0.0019149999999999998,-49.18,-17.370001000000002,-26.68,2b
2019-07-12_145338:680,-0.44891400000000004,-0.019318000000000002,-0.217072,-0.003953,-0.0010400000000000001,0.002434,-49.18,-17.370001000000002,-26.68,2b
2019-07-12_145338:700,-0.44638100000000003,-0.018799,-0.217072,-0.005143,-0.0010400000000000001,0.002098,-49.18,-17.370001000000002,-26.68,2b
2019-07-12_145338:720,-0.446899,-0.021332,-0.21911599999999998,-0.006364,-0.001315,0.001152,-48.75,-18.18,-27.059998999999998,2b
2019-07-12_145338:740,-0.447906,-0.020325,-0.220642,-0.0072180000000000005,-0.001559,0.000481,-48.75,-18.18,-27.059998999999998,2b
2019-07-12_145338:760,-0.44384799999999996,-0.024384,-0.21859699999999999,-0.007615,-0.002078,0.0017629999999999998,-50.0,-18.18,-27.5,2b
2019-07-12_145338:780,-0.44384799999999996,-0.026427999999999997,-0.217072,-0.007156999999999999,-0.002016,0.00277,-50.0,-18.18,-27.5,2b
2019-07-12_145338:800,-0.443329,-0.027435,-0.21859699999999999,-0.006761,-0.0022,0.001854,-50.0,-18.18,-27.5,2b
2019-07-12_145338:820,-0.445374,-0.026917,-0.22116100000000002,-0.006364,-0.001955,0.001152,-49.560001,-18.5,-26.68,2b
2019-07-12_145338:840,-0.447906,-0.025908999999999998,-0.217072,-0.0056619999999999995,-0.001864,0.001152,-49.560001,-18.5,-26.68,2b
2019-07-12_145338:860,-0.449432,-0.024902,-0.21911599999999998,-0.005082,-0.001925,0.001335,-49.18,-18.5,-27.5,2b
2019-07-12_145338:880,-0.447906,-0.021851,-0.217072,-0.004991,-0.0015890000000000001,0.00161,-49.18,-18.5,-27.5,2b
2019-07-12_145338:900,-0.447906,-0.022858,-0.21810900000000003,-0.0049299999999999995,-0.0018030000000000001,0.0019760000000000003,-49.18,-18.5,-27.5,2b
2019-07-12_145338:920,-0.44638100000000003,-0.020844,-0.21911599999999998,-0.005265,-0.001925,0.0017629999999999998,-49.18,-17.75,-26.68,2b
2019-07-12_145338:940,-0.44638100000000003,-0.019806,-0.219635,-0.005601,-0.002139,0.002373,-49.18,-17.75,-26.68,2b
2019-07-12_145338:960,-0.44384799999999996,-0.024384,-0.21911599999999998,-0.005967,-0.002139,0.002892,-49.560001,-18.18,-28.25,2b
2019-07-12_145338:980,-0.44027700000000003,-0.025421,-0.220123,-0.006486,-0.002657,0.001335,-49.560001,-18.18,-28.25,2b
2019-07-12_145339:000,-0.44281000000000004,-0.023375999999999997,-0.22164899999999998,-0.0063030000000000004,-0.003146,0.001854,-49.560001,-18.18,-28.25,2b
2019-07-12_145339:020,-0.446899,-0.025908999999999998,-0.22164899999999998,-0.005845,-0.003054,0.003258,-49.560001,-17.75,-27.059998999999998,2b
2019-07-12_145339:040,-0.448425,-0.024902,-0.22216799999999998,-0.0056619999999999995,-0.002932,0.0021899999999999997,-49.560001,-17.75,-27.059998999999998,2b
2019-07-12_145339:060,-0.447906,-0.024384,-0.22116100000000002,-0.005784,-0.002535,0.0019149999999999998,-49.18,-17.75,-27.870001000000002,2b
2019-07-12_145339:080,-0.44891400000000004,-0.023375999999999997,-0.22116100000000002,-0.0054789999999999995,-0.002261,0.002587,-49.18,-17.75,-27.870001000000002,2b
2019-07-12_145339:100,-0.447906,-0.023375999999999997,-0.22216799999999998,-0.006028,-0.0017420000000000003,0.0019760000000000003,-49.18,-17.75,-27.870001000000002,2b
2019-07-12_145339:120,-0.447906,-0.024384,-0.220642,-0.006181,-0.001559,0.0019760000000000003,-50.0,-18.5,-26.25,2b
2019-07-12_145339:140,-0.445374,-0.025908999999999998,-0.219635,-0.005845,-0.001498,0.0021899999999999997,-50.0,-18.5,-26.25,2b
2019-07-12_145339:160,-0.443329,-0.026427999999999997,-0.22116100000000002,-0.005784,-0.0017420000000000003,0.002037,-48.75,-17.370001000000002,-27.870001000000002,2b
2019-07-12_145339:180,-0.44281000000000004,-0.026427999999999997,-0.220123,-0.005326,-0.001955,0.002251,-48.75,-17.370001000000002,-27.870001000000002,2b
2019-07-12_145339:200,-0.444855,-0.025908999999999998,-0.219635,-0.005052,-0.002718,0.002373,-48.75,-17.370001000000002,-27.870001000000002,2b
2019-07-12_145339:220,-0.445862,-0.025421,-0.220123,-0.005052,-0.002657,0.0023120000000000003,-49.560001,-17.75,-26.25,2b
2019-07-12_145339:240,-0.444855,-0.024902,-0.220123,-0.005204,-0.0027489999999999997,0.002587,-49.560001,-17.75,-26.25,2b
2019-07-12_145339:260,-0.445374,-0.024384,-0.222687,-0.005326,-0.0027489999999999997,0.00277,-50.25,-17.75,-27.870001000000002,2b
2019-07-12_145339:280,-0.446899,-0.025421,-0.22216799999999998,-0.005784,-0.002932,0.0023120000000000003,-50.25,-17.75,-27.870001000000002,2b
2019-07-12_145339:300,-0.446899,-0.027435,-0.223694,-0.006028,-0.00281,0.002129,-50.25,-17.75,-27.870001000000002,2b
2019-07-12_145339:320,-0.447906,-0.027435,-0.223175,-0.006028,-0.002535,0.002037,-49.18,-18.18,-26.68,2b
2019-07-12_145339:340,-0.446899,-0.028961,-0.22116100000000002,-0.006028,-0.0024129999999999998,0.0017929999999999999,-49.18,-18.18,-26.68,2b
2019-07-12_145339:360,-0.447388,-0.026917,-0.222687,-0.005967,-0.0016809999999999998,0.001854,-50.0,-18.18,-28.25,2b
2019-07-12_145339:380,-0.443329,-0.028442000000000002,-0.220123,-0.005967,-0.001559,0.0017629999999999998,-50.0,-18.18,-28.25,2b
2019-07-12_145339:400,-0.44232200000000005,-0.029480000000000003,-0.223694,-0.005815,-0.0017420000000000003,0.000817,-50.0,-18.18,-28.25,2b
2019-07-12_145339:420,-0.441803,-0.026917,-0.224701,-0.005784,-0.002718,0.000267,-50.0,-18.18,-28.25,2b
2019-07-12_145339:440,-0.44384799999999996,-0.025908999999999998,-0.22216799999999998,-0.005448,-0.002993,0.0016710000000000002,-50.0,-18.18,-28.25,2b
2019-07-12_145339:460,-0.444855,-0.026917,-0.22421300000000002,-0.005265,-0.00281,0.002434,-49.560001,-18.5,-27.870001000000002,2b
2019-07-12_145339:480,-0.445374,-0.025908999999999998,-0.22216799999999998,-0.005601,-0.001955,0.001152,-49.560001,-18.5,-27.870001000000002,2b
2019-07-12_145339:500,-0.44433599999999995,-0.025421,-0.223694,-0.005815,-0.0018030000000000001,0.000634,-49.560001,-18.5,-27.870001000000002,2b
2019-07-12_145339:520,-0.44433599999999995,-0.026917,-0.22216799999999998,-0.005784,-0.0016809999999999998,0.000817,-50.0,-18.18,-26.68,2b
2019-07-12_145339:540,-0.44638100000000003,-0.025421,-0.22164899999999998,-0.005784,-0.0016809999999999998,0.000695,-50.0,-18.18,-26.68,2b
2019-07-12_145339:560,-0.445862,-0.024384,-0.222687,-0.0056619999999999995,-0.0018030000000000001,0.000878,-49.18,-17.75,-28.25,2b
2019-07-12_145339:580,-0.44384799999999996,-0.024902,-0.22116100000000002,-0.005265,-0.001864,0.001274,-49.18,-17.75,-28.25,2b
2019-07-12_145339:600,-0.44433599999999995,-0.022858,-0.22116100000000002,-0.005448,-0.002078,0.00103,-49.18,-17.75,-28.25,2b
2019-07-12_145339:620,-0.44232200000000005,-0.022858,-0.22216799999999998,-0.005601,-0.0024129999999999998,0.001549,-48.75,-18.18,-27.059998999999998,2b
2019-07-12_145339:640,-0.441803,-0.026427999999999997,-0.22216799999999998,-0.00554,-0.00281,0.001549,-48.75,-18.18,-27.059998999999998,2b
2019-07-12_145339:660,-0.441803,-0.021851,-0.22521999999999998,-0.005784,-0.003268,-3.8e-05,-48.75,-18.5,-27.870001000000002,2b
2019-07-12_145339:680,-0.44638100000000003,-0.021332,-0.22521999999999998,-0.005784,-0.003664,0.001396,-48.75,-18.5,-27.870001000000002,2b
2019-07-12_145339:700,-0.444855,-0.022369,-0.225739,-0.0054789999999999995,-0.00339,0.0029219999999999997,-48.75,-18.5,-27.870001000000002,2b
2019-07-12_145339:720,-0.444855,-0.021332,-0.227264,-0.006028,-0.002993,0.0017929999999999999,-48.75,-17.75,-27.059998999999998,2b
2019-07-12_145339:740,-0.445862,-0.020844,-0.227264,-0.00615,-0.0027489999999999997,0.001549,-48.75,-17.75,-27.059998999999998,2b
2019-07-12_145339:760,-0.445862,-0.024384,-0.227264,-0.006425,-0.0022,0.002129,-48.75,-18.870001000000002,-27.5,2b
2019-07-12_145339:780,-0.44638100000000003,-0.024384,-0.226227,-0.006486,-0.0018030000000000001,0.0019760000000000003,-48.75,-18.870001000000002,-27.5,2b
2019-07-12_145339:800,-0.445862,-0.024384,-0.227753,-0.0063030000000000004,-0.001559,0.0019760000000000003,-48.75,-18.870001000000002,-27.5,2b
2019-07-12_145339:820,-0.444855,-0.025421,-0.228271,-0.005906000000000001,-0.001315,0.002129,-48.060001,-17.75,-27.059998999999998,2b
2019-07-12_145339:840,-0.44433599999999995,-0.024902,-0.226227,-0.005845,-0.001254,0.002037,-48.060001,-17.75,-27.059998999999998,2b
2019-07-12_145339:860,-0.445374,-0.023375999999999997,-0.227264,-0.005723,-0.0012230000000000001,0.0023120000000000003,-49.18,-18.18,-27.5,2b
2019-07-12_145339:880,-0.44384799999999996,-0.024902,-0.224701,-0.005601,-0.001101,0.002526,-49.18,-18.18,-27.5,2b
2019-07-12_145339:900,-0.441803,-0.023895,-0.226227,-0.005845,-0.000857,0.002434,-49.18,-18.18,-27.5,2b
2019-07-12_145339:920,-0.444855,-0.024902,-0.226746,-0.005906000000000001,-0.000918,0.002648,-49.18,-18.18,-27.870001000000002,2b
2019-07-12_145339:940,-0.44433599999999995,-0.024902,-0.226746,-0.006089,-0.000582,0.002526,-49.18,-18.18,-27.870001000000002,2b
2019-07-12_145339:960,-0.44638100000000003,-0.026427999999999997,-0.224701,-0.00615,-0.00036899999999999997,0.002373,-48.75,-18.18,-28.68,2b
2019-07-12_145339:980,-0.447906,-0.026427999999999997,-0.223175,-0.006089,-0.00036899999999999997,0.002495,-48.75,-18.18,-28.68,2b
2019-07-12_145340:000,-0.447906,-0.026917,-0.224701,-0.006089,-0.000185,0.002251,-48.75,-18.18,-28.68,2b
2019-07-12_145340:020,-0.445862,-0.023895,-0.22116100000000002,-0.006089,0.000303,0.002098,-48.060001,-18.18,-27.5,2b
2019-07-12_145340:040,-0.44281000000000004,-0.023895,-0.22216799999999998,-0.0063030000000000004,0.000272,0.002709,-48.060001,-18.18,-27.5,2b
2019-07-12_145340:060,-0.441284,-0.026917,-0.222687,-0.006486,0.000303,0.0019149999999999998,-49.560001,-18.18,-27.5,2b
2019-07-12_145340:080,-0.44027700000000003,-0.025421,-0.222687,-0.006761,-0.000643,0.001,-49.560001,-18.18,-27.5,2b
2019-07-12_145340:100,-0.441803,-0.025908999999999998,-0.222687,-0.006425,-0.001437,0.0019760000000000003,-49.560001,-18.18,-27.5,2b
2019-07-12_145340:120,-0.44433599999999995,-0.026917,-0.22116100000000002,-0.006181,-0.001437,0.003228,-50.0,-18.18,-28.68,2b
2019-07-12_145340:140,-0.445374,-0.026427999999999997,-0.22216799999999998,-0.006242,-0.0015890000000000001,0.0021899999999999997,-50.0,-18.18,-28.68,2b
2019-07-12_145340:160,-0.445374,-0.025908999999999998,-0.22216799999999998,-0.006242,-0.0012230000000000001,0.001274,-48.75,-17.75,-26.25,2b
2019-07-12_145340:180,-0.446899,-0.026917,-0.220123,-0.006181,-0.0011619999999999998,0.001152,-48.75,-17.75,-26.25,2b
2019-07-12_145340:200,-0.447388,-0.026427999999999997,-0.222687,-0.006089,-0.0011619999999999998,0.001091,-48.75,-17.75,-26.25,2b
2019-07-12_145340:220,-0.445374,-0.024902,-0.220123,-0.006028,-0.001254,0.001091,-49.18,-17.75,-27.5,2b
2019-07-12_145340:240,-0.445374,-0.026917,-0.220123,-0.005906000000000001,-0.001254,0.001335,-49.18,-17.75,-27.5,2b
2019-07-12_145340:260,-0.44433599999999995,-0.024902,-0.22164899999999998,-0.005815,-0.00162,0.001335,-49.560001,-18.18,-27.5,2b
2019-07-12_145340:280,-0.44384799999999996,-0.021851,-0.220642,-0.005815,-0.002078,0.0017929999999999999,-49.560001,-18.18,-27.5,2b
2019-07-12_145340:300,-0.44384799999999996,-0.025421,-0.22216799999999998,-0.006242,-0.002139,0.002098,-49.560001,-18.18,-27.5,2b
2019-07-12_145340:320,-0.44232200000000005,-0.025908999999999998,-0.22216799999999998,-0.0065769999999999995,-0.002535,0.000695,-50.25,-18.5,-25.870001000000002,2b
2019-07-12_145340:340,-0.44384799999999996,-0.024902,-0.222687,-0.006639,-0.002657,0.000603,-50.25,-18.5,-25.870001000000002,2b
2019-07-12_145340:360,-0.444855,-0.026917,-0.223694,-0.006242,-0.002718,0.001854,-49.560001,-17.75,-27.5,2b
2019-07-12_145340:380,-0.447906,-0.025908999999999998,-0.222687,-0.005906000000000001,-0.0024739999999999996,0.0016710000000000002,-49.560001,-17.75,-27.5,2b
2019-07-12_145340:400,-0.445374,-0.025421,-0.22421300000000002,-0.005845,-0.002139,0.000817,-49.560001,-17.75,-27.5,2b
2019-07-12_145340:420,-0.444855,-0.023895,-0.22421300000000002,-0.00554,-0.001925,0.001213,-49.560001,-18.18,-27.059998999999998,2b
2019-07-12_145340:440,-0.445862,-0.023895,-0.22421300000000002,-0.0056619999999999995,-0.0018030000000000001,0.001152,-49.560001,-18.18,-27.059998999999998,2b
2019-07-12_145340:460,-0.44433599999999995,-0.021851,-0.224701,-0.005723,-0.0016809999999999998,0.001,-48.75,-18.18,-26.68,2b
2019-07-12_145340:480,-0.444855,-0.021851,-0.223175,-0.0056619999999999995,-0.001437,0.001335,-48.75,-18.18,-26.68,2b
2019-07-12_145340:500,-0.444855,-0.022858,-0.223175,-0.005906000000000001,-0.0016809999999999998,0.001854,-48.75,-18.18,-26.68,2b
2019-07-12_145340:520,-0.44433599999999995,-0.022858,-0.223175,-0.006028,-0.0015890000000000001,0.0019149999999999998,-48.5,-18.5,-28.25,2b
2019-07-12_145340:540,-0.446899,-0.022858,-0.223175,-0.00615,-0.001559,0.001854,-48.5,-18.5,-28.25,2b
2019-07-12_145340:560,-0.445862,-0.022369,-0.223694,-0.006028,-0.001498,0.002129,-48.75,-18.5,-27.5,2b
2019-07-12_145340:580,-0.443329,-0.022858,-0.22216799999999998,-0.006028,-0.001437,0.002495,-48.75,-18.5,-27.5,2b
2019-07-12_145340:600,-0.443329,-0.024902,-0.222687,-0.00615,-0.0015890000000000001,0.0021899999999999997,-48.75,-18.5,-27.5,2b
2019-07-12_145340:620,-0.44281000000000004,-0.024384,-0.223694,-0.005815,-0.001559,0.002098,-49.560001,-18.18,-27.059998999999998,2b
2019-07-12_145340:640,-0.44638100000000003,-0.025421,-0.222687,-0.005723,-0.002016,0.0019760000000000003,-49.560001,-18.18,-27.059998999999998,2b
2019-07-12_145340:660,-0.447906,-0.024384,-0.224701,-0.0056619999999999995,-0.002139,0.002037,-50.0,-17.75,-27.059998999999998,2b
2019-07-12_145340:680,-0.448425,-0.024384,-0.222687,-0.0056619999999999995,-0.001864,0.002526,-50.0,-17.75,-27.059998999999998,2b
2019-07-12_145340:700,-0.445374,-0.022858,-0.22421300000000002,-0.0056619999999999995,-0.001559,0.002648,-50.0,-17.75,-27.059998999999998,2b
2019-07-12_145340:720,-0.44433599999999995,-0.024384,-0.223175,-0.005845,-0.001376,0.002648,-49.560001,-18.18,-27.5,2b
2019-07-12_145340:740,-0.44384799999999996,-0.024902,-0.223175,-0.006181,-0.001315,0.002037,-49.560001,-18.18,-27.5,2b
2019-07-12_145340:760,-0.44232200000000005,-0.026917,-0.225739,-0.0065769999999999995,-0.0016809999999999998,0.001091,-50.0,-18.18,-28.25,2b
2019-07-12_145340:780,-0.44027700000000003,-0.025421,-0.222687,-0.0065769999999999995,-0.002322,0.0014269999999999999,-50.0,-18.18,-28.25,2b
2019-07-12_145340:800,-0.443329,-0.026917,-0.223694,-0.006089,-0.0025960000000000002,0.002892,-50.0,-18.18,-28.25,2b
2019-07-12_145340:820,-0.445374,-0.024902,-0.225739,-0.0056619999999999995,-0.0024129999999999998,0.002526,-48.75,-17.75,-27.5,2b
2019-07-12_145340:840,-0.447388,-0.024902,-0.223175,-0.005601,-0.002078,0.0014269999999999999,-48.75,-17.75,-27.5,2b
2019-07-12_145340:860,-0.447906,-0.023895,-0.223694,-0.0056619999999999995,-0.0018030000000000001,0.001396,-49.560001,-18.5,-27.5,2b
2019-07-12_145340:880,-0.447388,-0.024902,-0.222687,-0.00554,-0.001315,0.001732,-49.560001,-18.5,-27.5,2b
2019-07-12_145340:900,-0.445374,-0.025421,-0.223175,-0.005845,-0.000918,0.001396,-49.560001,-18.5,-27.5,2b
2019-07-12_145340:920,-0.445374,-0.023895,-0.222687,-0.005967,-0.0009789999999999998,0.0017929999999999999,-49.18,-17.370001000000002,-27.870001000000002,2b
2019-07-12_145340:940,-0.44281000000000004,-0.024384,-0.222687,-0.005784,-0.001254,0.002098,-49.18,-17.370001000000002,-27.870001000000002,2b
2019-07-12_145340:960,-0.44384799999999996,-0.021851,-0.22216799999999998,-0.006089,-0.00162,0.001854,-48.75,-18.5,-26.68,2b
2019-07-12_145340:980,-0.44281000000000004,-0.025908999999999998,-0.222687,-0.0063030000000000004,-0.001925,0.0023120000000000003,-48.75,-18.5,-26.68,2b
2019-07-12_145341:000,-0.440796,-0.025908999999999998,-0.224701,-0.006242,-0.002016,0.0019149999999999998,-48.75,-18.5,-26.68,2b
2019-07-12_145341:020,-0.44281000000000004,-0.024384,-0.22421300000000002,-0.006181,-0.002352,0.001,-49.560001,-18.18,-27.5,2b
2019-07-12_145341:040,-0.445374,-0.025421,-0.223694,-0.005845,-0.002352,0.002129,-49.560001,-18.18,-27.5,2b
2019-07-12_145341:060,-0.446899,-0.025421,-0.226746,-0.005601,-0.0024129999999999998,0.002434,-49.18,-18.5,-27.5,2b
2019-07-12_145341:080,-0.446899,-0.022369,-0.22216799999999998,-0.005723,-0.001864,0.001335,-49.18,-18.5,-27.5,2b
2019-07-12_145341:100,-0.445862,-0.021851,-0.225739,-0.005784,-0.0016809999999999998,0.0016710000000000002,-49.18,-18.5,-27.5,2b
2019-07-12_145341:120,-0.444855,-0.024384,-0.22521999999999998,-0.005845,-0.001254,0.0023120000000000003,-48.75,-17.370001000000002,-27.5,2b
2019-07-12_145341:140,-0.44281000000000004,-0.024902,-0.222687,-0.006242,-0.001315,0.0017929999999999999,-48.75,-17.370001000000002,-27.5,2b
2019-07-12_145341:160,-0.44384799999999996,-0.024902,-0.22421300000000002,-0.006089,-0.001437,0.001732,-49.560001,-18.870001000000002,-27.5,2b
2019-07-12_145341:180,-0.44232200000000005,-0.024902,-0.22216799999999998,-0.006028,-0.0016809999999999998,0.002037,-49.560001,-18.870001000000002,-27.5,2b
2019-07-12_145341:200,-0.44433599999999995,-0.024384,-0.224701,-0.005845,-0.001925,0.002373,-49.560001,-18.870001000000002,-27.5,2b
2019-07-12_145341:220,-0.44638100000000003,-0.024384,-0.223694,-0.0054789999999999995,-0.0017420000000000003,0.002373,-49.18,-18.18,-26.68,2b
2019-07-12_145341:240,-0.445862,-0.023375999999999997,-0.223694,-0.005845,-0.0015890000000000001,0.002373,-49.18,-18.18,-26.68,2b
2019-07-12_145341:260,-0.44638100000000003,-0.024384,-0.222687,-0.006089,-0.0015890000000000001,0.002709,-50.0,-17.75,-27.870001000000002,2b
2019-07-12_145341:280,-0.44232200000000005,-0.025908999999999998,-0.22164899999999998,-0.006089,-0.001376,0.002434,-50.0,-17.75,-27.870001000000002,2b
2019-07-12_145341:300,-0.441803,-0.024902,-0.223694,-0.006028,-0.0017420000000000003,0.002037,-50.0,-17.75,-27.870001000000002,2b
2019-07-12_145341:320,-0.44281000000000004,-0.026427999999999997,-0.224701,-0.006028,-0.002139,0.002037,-49.18,-18.18,-27.5,2b
2019-07-12_145341:340,-0.444855,-0.024902,-0.222687,-0.005815,-0.0022,0.002098,-49.18,-18.18,-27.5,2b
2019-07-12_145341:360,-0.445862,-0.025908999999999998,-0.223694,-0.005845,-0.002261,0.0023120000000000003,-49.560001,-17.370001000000002,-28.25,2b
2019-07-12_145341:380,-0.447906,-0.027435,-0.222687,-0.00554,-0.002078,0.002526,-49.560001,-17.370001000000002,-28.25,2b
2019-07-12_145341:400,-0.445862,-0.026917,-0.223175,-0.005723,-0.001864,0.002495,-49.560001,-17.370001000000002,-28.25,2b
2019-07-12_145341:420,-0.44384799999999996,-0.025421,-0.223175,-0.006028,-0.001498,0.0021899999999999997,-48.75,-18.18,-27.5,2b
2019-07-12_145341:440,-0.443329,-0.025908999999999998,-0.223694,-0.006242,-0.00162,0.0014269999999999999,-48.75,-18.18,-27.5,2b
2019-07-12_145341:460,-0.44232200000000005,-0.026427999999999997,-0.224701,-0.0063030000000000004,-0.001864,0.001,-48.75,-18.870001000000002,-28.25,2b
2019-07-12_145341:480,-0.44027700000000003,-0.025908999999999998,-0.223694,-0.006181,-0.002352,0.0017929999999999999,-48.75,-18.870001000000002,-28.25,2b
2019-07-12_145341:500,-0.439758,-0.026427999999999997,-0.225739,-0.005815,-0.0024739999999999996,0.0028309999999999997,-48.75,-18.870001000000002,-28.25,2b
2019-07-12_145341:520,-0.443329,-0.026427999999999997,-0.226227,-0.0056619999999999995,-0.0024129999999999998,0.001854,-48.5,-17.0,-27.059998999999998,2b
2019-07-12_145341:540,-0.44384799999999996,-0.025908999999999998,-0.22421300000000002,-0.005815,-0.002322,0.001,-48.5,-17.0,-27.059998999999998,2b
2019-07-12_145341:560,-0.445862,-0.024902,-0.223694,-0.005784,-0.00162,0.001335,-48.75,-17.75,-27.5,2b
2019-07-12_145341:580,-0.445862,-0.025908999999999998,-0.22421300000000002,-0.005784,-0.001376,0.001549,-48.75,-17.75,-27.5,2b
2019-07-12_145341:600,-0.445862,-0.025421,-0.222687,-0.005815,-0.001254,0.0014880000000000002,-48.75,-17.75,-27.5,2b
2019-07-12_145341:620,-0.44384799999999996,-0.025421,-0.224701,-0.005723,-0.001559,0.002037,-49.18,-18.18,-27.059998999999998,2b
2019-07-12_145341:640,-0.44232200000000005,-0.025421,-0.223694,-0.005723,-0.0016809999999999998,0.0017929999999999999,-49.18,-18.18,-27.059998999999998,2b
2019-07-12_145341:660,-0.445374,-0.023375999999999997,-0.224701,-0.005906000000000001,-0.0022,0.0019149999999999998,-49.560001,-17.75,-27.5,2b
2019-07-12_145341:680,-0.440796,-0.023895,-0.22164899999999998,-0.006028,-0.0022,0.002495,-49.560001,-17.75,-27.5,2b
2019-07-12_145341:700,-0.44027700000000003,-0.026917,-0.225739,-0.006089,-0.0024739999999999996,0.0014269999999999999,-49.560001,-17.75,-27.5,2b
2019-07-12_145341:720,-0.440796,-0.025421,-0.22521999999999998,-0.00615,-0.0028710000000000003,0.00103,-48.75,-18.5,-27.870001000000002,2b
2019-07-12_145341:740,-0.444855,-0.025421,-0.227264,-0.005723,-0.003054,0.002434,-48.75,-18.5,-27.870001000000002,2b
2019-07-12_145341:760,-0.447388,-0.026917,-0.227753,-0.005326,-0.0022,0.0021899999999999997,-49.18,-17.370001000000002,-28.68,2b
2019-07-12_145341:780,-0.445374,-0.023375999999999997,-0.227264,-0.005723,-0.002016,0.0014880000000000002,-49.18,-17.370001000000002,-28.68,2b
2019-07-12_145341:800,-0.444855,-0.023375999999999997,-0.226746,-0.0056619999999999995,-0.001559,0.002098,-49.18,-17.370001000000002,-28.68,2b
2019-07-12_145341:820,-0.44433599999999995,-0.024902,-0.226746,-0.005815,-0.001315,0.002037,-48.5,-17.75,-28.68,2b
2019-07-12_145341:840,-0.44281000000000004,-0.024902,-0.226746,-0.005906000000000001,-0.001315,0.0014880000000000002,-48.5,-17.75,-28.68,2b
2019-07-12_145341:860,-0.443329,-0.024384,-0.225739,-0.005784,-0.0011619999999999998,0.0017929999999999999,-48.060001,-17.75,-28.68,2b
2019-07-12_145341:880,-0.441803,-0.025908999999999998,-0.226227,-0.005601,-0.0011619999999999998,0.002037,-48.060001,-17.75,-28.68,2b
2019-07-12_145341:900,-0.44232200000000005,-0.025421,-0.22521999999999998,-0.005386999999999999,-0.001315,0.0023120000000000003,-48.060001,-17.75,-28.68,2b
2019-07-12_145341:920,-0.44384799999999996,-0.025908999999999998,-0.226227,-0.005386999999999999,-0.001315,0.002495,-48.75,-18.18,-27.5,2b
2019-07-12_145341:940,-0.44433599999999995,-0.023375999999999997,-0.224701,-0.005386999999999999,-0.001315,0.002587,-48.75,-18.18,-27.5,2b
2019-07-12_145341:960,-0.44433599999999995,-0.024902,-0.223175,-0.0054789999999999995,-0.001254,0.002587,-48.5,-18.18,-27.870001000000002,2b
2019-07-12_145341:980,-0.44433599999999995,-0.024384,-0.22116100000000002,-0.005723,-0.001437,0.002526,-48.5,-18.18,-27.870001000000002,2b
2019-07-12_145342:000,-0.441803,-0.025421,-0.22421300000000002,-0.005784,-0.001437,0.002526,-48.5,-18.18,-27.870001000000002,2b
2019-07-12_145342:020,-0.441284,-0.025421,-0.223694,-0.005815,-0.001864,0.002434,-49.560001,-17.370001000000002,-27.5,2b
2019-07-12_145342:040,-0.441803,-0.025421,-0.223694,-0.0056619999999999995,-0.001955,0.002709,-49.560001,-17.370001000000002,-27.5,2b
2019-07-12_145342:060,-0.44281000000000004,-0.025908999999999998,-0.224701,-0.005723,-0.0024129999999999998,0.0030440000000000003,-49.560001,-17.370001000000002,-28.25,2b
2019-07-12_145342:080,-0.443329,-0.026917,-0.223175,-0.005601,-0.0025960000000000002,0.002983,-49.560001,-17.370001000000002,-28.25,2b
2019-07-12_145342:100,-0.446899,-0.027954000000000003,-0.223694,-0.0056619999999999995,-0.002352,0.0030440000000000003,-49.560001,-17.370001000000002,-28.25,2b
2019-07-12_145342:120,-0.444855,-0.025908999999999998,-0.22521999999999998,-0.005967,-0.001925,0.003228,-48.060001,-17.75,-27.059998999999998,2b
2019-07-12_145342:140,-0.44638100000000003,-0.025908999999999998,-0.222687,-0.006089,-0.002016,0.0030440000000000003,-48.060001,-17.75,-27.059998999999998,2b
2019-07-12_145342:160,-0.44027700000000003,-0.028442000000000002,-0.222687,-0.006181,-0.002261,0.0021899999999999997,-50.0,-18.870001000000002,-27.059998999999998,2b
2019-07-12_145342:180,-0.438751,-0.028442000000000002,-0.225739,-0.00615,-0.003054,0.0016710000000000002,-50.0,-18.870001000000002,-27.059998999999998,2b
2019-07-12_145342:200,-0.439758,-0.028442000000000002,-0.226746,-0.005845,-0.003725,0.002709,-50.0,-18.870001000000002,-27.059998999999998,2b
2019-07-12_145342:220,-0.44232200000000005,-0.027435,-0.226746,-0.0056619999999999995,-0.0037869999999999996,0.0035020000000000003,-48.75,-18.18,-29.5,2b
2019-07-12_145342:240,-0.444855,-0.028442000000000002,-0.226746,-0.0054789999999999995,-0.003207,0.0028309999999999997,-48.75,-18.18,-29.5,2b
2019-07-12_145342:260,-0.44433599999999995,-0.028442000000000002,-0.227753,-0.005601,-0.0025960000000000002,0.002098,-48.5,-17.370001000000002,-28.68,2b
2019-07-12_145342:280,-0.443329,-0.027954000000000003,-0.226746,-0.005386999999999999,-0.0024739999999999996,0.002434,-48.5,-17.370001000000002,-28.68,2b
2019-07-12_145342:300,-0.44232200000000005,-0.028442000000000002,-0.226746,-0.0056619999999999995,-0.0022,0.002037,-48.5,-17.370001000000002,-28.68,2b
2019-07-12_145342:320,-0.44433599999999995,-0.027435,-0.227753,-0.0056619999999999995,-0.002261,0.0021899999999999997,-49.18,-17.0,-27.870001000000002,2b
2019-07-12_145342:340,-0.44232200000000005,-0.028442000000000002,-0.226227,-0.005784,-0.002352,0.0029219999999999997,-49.18,-17.0,-27.870001000000002,2b
2019-07-12_145342:360,-0.44433599999999995,-0.029480000000000003,-0.228271,-0.0056619999999999995,-0.002322,0.002587,-49.18,-17.0,-27.870001000000002,2b
2019-07-12_145342:380,-0.44281000000000004,-0.028442000000000002,-0.226746,-0.005784,-0.002535,0.002983,-49.18,-17.0,-27.870001000000002,2b
2019-07-12_145342:400,-0.440796,-0.028961,-0.228271,-0.005723,-0.002657,0.003319,-49.18,-17.0,-27.870001000000002,2b
2019-07-12_145342:420,-0.43927,-0.031006,-0.22879000000000002,-0.005815,-0.002535,0.0021899999999999997,-48.060001,-17.0,-28.25,2b
2019-07-12_145342:440,-0.438751,-0.028442000000000002,-0.228271,-0.005906000000000001,-0.003085,0.002129,-48.060001,-17.0,-28.25,2b
2019-07-12_145342:460,-0.440796,-0.028442000000000002,-0.22979699999999997,-0.005601,-0.0027489999999999997,0.004021,-50.0,-17.75,-27.870001000000002,2b
2019-07-12_145342:480,-0.44027700000000003,-0.031494,-0.230804,-0.005448,-0.002657,0.0033799999999999998,-50.0,-17.75,-27.870001000000002,2b
2019-07-12_145342:500,-0.44433599999999995,-0.030487,-0.230804,-0.005815,-0.0025960000000000002,0.002251,-50.0,-17.75,-27.870001000000002,2b
2019-07-12_145342:520,-0.44281000000000004,-0.028442000000000002,-0.230804,-0.005967,-0.002139,0.002648,-49.18,-16.68,-27.870001000000002,2b
2019-07-12_145342:540,-0.443329,-0.029480000000000003,-0.22927899999999998,-0.00615,-0.00162,0.002709,-49.18,-16.68,-27.870001000000002,2b
2019-07-12_145342:560,-0.441803,-0.031006,-0.230804,-0.00615,-0.001437,0.002434,-49.18,-17.0,-26.68,2b
2019-07-12_145342:580,-0.441803,-0.032532,-0.22879000000000002,-0.005967,-0.001376,0.002495,-49.18,-17.0,-26.68,2b
2019-07-12_145342:600,-0.441803,-0.031494,-0.22979699999999997,-0.005815,-0.001254,0.002709,-49.18,-17.0,-26.68,2b
2019-07-12_145342:620,-0.440796,-0.031494,-0.22927899999999998,-0.00554,-0.0012230000000000001,0.002892,-48.75,-17.370001000000002,-28.68,2b
2019-07-12_145342:640,-0.44027700000000003,-0.031006,-0.227264,-0.00554,-0.001559,0.003167,-48.75,-17.370001000000002,-28.68,2b
2019-07-12_145342:660,-0.441803,-0.030487,-0.226746,-0.00554,-0.001864,0.003105,-49.560001,-17.0,-29.059998999999998,2b
2019-07-12_145342:680,-0.441284,-0.029968,-0.228271,-0.005815,-0.0018030000000000001,0.0030440000000000003,-49.560001,-17.0,-29.059998999999998,2b
2019-07-12_145342:700,-0.43927,-0.030487,-0.227264,-0.005967,-0.0017420000000000003,0.003319,-49.560001,-17.0,-29.059998999999998,2b
2019-07-12_145342:720,-0.439758,-0.032013,-0.22879000000000002,-0.006028,-0.0016809999999999998,0.003319,-48.75,-17.0,-28.25,2b
2019-07-12_145342:740,-0.440796,-0.03302,-0.22879000000000002,-0.006028,-0.0022,0.003228,-48.75,-17.0,-28.25,2b
2019-07-12_145342:760,-0.441803,-0.033539,-0.23028600000000002,-0.006181,-0.002016,0.003319,-49.18,-17.370001000000002,-27.870001000000002,2b
2019-07-12_145342:780,-0.44384799999999996,-0.033539,-0.228271,-0.006028,-0.002016,0.0028309999999999997,-49.18,-17.370001000000002,-27.870001000000002,2b
2019-07-12_145342:800,-0.445862,-0.033539,-0.228271,-0.005845,-0.001498,0.00277,-49.18,-17.370001000000002,-27.870001000000002,2b
2019-07-12_145342:820,-0.441803,-0.033539,-0.22879000000000002,-0.00554,-0.001101,0.003258,-49.560001,-16.68,-27.5,2b
2019-07-12_145342:840,-0.439758,-0.033539,-0.227753,-0.005784,-0.0011619999999999998,0.002892,-49.560001,-16.68,-27.5,2b
2019-07-12_145342:860,-0.43774399999999997,-0.036072,-0.227264,-0.006089,-0.0017420000000000003,0.002037,-48.75,-16.68,-28.25,2b
2019-07-12_145342:880,-0.437225,-0.032532,-0.22927899999999998,-0.00615,-0.002322,0.002495,-48.75,-16.68,-28.25,2b
2019-07-12_145342:900,-0.44027700000000003,-0.032013,-0.23028600000000002,-0.006364,-0.0024739999999999996,0.00396,-48.75,-16.68,-28.25,2b
2019-07-12_145342:920,-0.44232200000000005,-0.035583,-0.23028600000000002,-0.0063030000000000004,-0.002352,0.004021,-49.18,-16.370001000000002,-28.25,2b
2019-07-12_145342:940,-0.44281000000000004,-0.035583,-0.228271,-0.006639,-0.001559,0.0017929999999999999,-49.18,-16.370001000000002,-28.25,2b
2019-07-12_145342:960,-0.44232200000000005,-0.035065,-0.23028600000000002,-0.006242,-0.000918,0.0019149999999999998,-49.560001,-17.0,-27.5,2b
2019-07-12_145342:980,-0.44232200000000005,-0.037108999999999996,-0.22979699999999997,-0.006028,-0.000582,0.002251,-49.560001,-17.0,-27.5,2b
2019-07-12_145343:000,-0.44281000000000004,-0.036591000000000005,-0.22979699999999997,-0.006028,-0.000643,0.001732,-49.560001,-17.0,-27.5,2b
2019-07-12_145343:020,-0.44232200000000005,-0.035583,-0.22927899999999998,-0.0056619999999999995,-0.000246,0.002037,-49.18,-16.68,-27.059998999999998,2b
2019-07-12_145343:040,-0.441284,-0.034546,-0.225739,-0.005601,-0.000582,0.002098,-49.18,-16.68,-27.059998999999998,2b
2019-07-12_145343:060,-0.438751,-0.035065,-0.22879000000000002,-0.005906000000000001,-0.0009789999999999998,0.0019760000000000003,-49.560001,-17.0,-28.68,2b
2019-07-12_145343:080,-0.44027700000000003,-0.031494,-0.22927899999999998,-0.006425,-0.001101,0.00277,-49.560001,-17.0,-28.68,2b
2019-07-12_145343:100,-0.439758,-0.036072,-0.226746,-0.0065769999999999995,-0.001101,0.0016710000000000002,-49.560001,-17.0,-28.68,2b
2019-07-12_145343:120,-0.44027700000000003,-0.037108999999999996,-0.22979699999999997,-0.006883,-0.001254,0.000481,-49.18,-16.68,-29.059998999999998,2b
2019-07-12_145343:140,-0.44027700000000003,-0.034546,-0.227753,-0.0063030000000000004,-0.0011619999999999998,0.002129,-49.18,-16.68,-29.059998999999998,2b
2019-07-12_145343:160,-0.44232200000000005,-0.037108999999999996,-0.22927899999999998,-0.005845,-0.001315,0.0023120000000000003,-50.0,-16.68,-27.5,2b
2019-07-12_145343:180,-0.44384799999999996,-0.036072,-0.22879000000000002,-0.005845,-0.000826,0.001152,-50.0,-16.68,-27.5,2b
2019-07-12_145343:200,-0.44281000000000004,-0.034058,-0.227753,-0.005784,-0.0007650000000000001,0.001335,-50.0,-16.68,-27.5,2b
2019-07-12_145343:220,-0.441803,-0.033539,-0.22927899999999998,-0.005906000000000001,-0.00043,0.0017629999999999998,-49.18,-16.68,-29.059998999999998,2b
2019-07-12_145343:240,-0.44232200000000005,-0.03302,-0.226746,-0.0063030000000000004,-0.00043,0.001152,-49.18,-16.68,-29.059998999999998,2b
2019-07-12_145343:260,-0.441803,-0.032013,-0.226746,-0.0065769999999999995,-0.000582,0.001091,-49.18,-16.68,-27.870001000000002,2b
2019-07-12_145343:280,-0.440796,-0.034546,-0.226746,-0.006547,-0.000582,0.001152,-49.18,-16.68,-27.870001000000002,2b
2019-07-12_145343:300,-0.441284,-0.034546,-0.226227,-0.006364,-0.000704,0.001335,-49.18,-16.68,-27.870001000000002,2b
2019-07-12_145343:320,-0.441284,-0.034546,-0.226227,-0.00615,-0.000826,0.0014880000000000002,-49.18,-17.370001000000002,-28.68,2b
2019-07-12_145343:340,-0.443329,-0.034058,-0.22421300000000002,-0.005967,-0.000857,0.001396,-49.18,-17.370001000000002,-28.68,2b
2019-07-12_145343:360,-0.441284,-0.034058,-0.226227,-0.005784,-0.0007650000000000001,0.001335,-50.0,-17.0,-27.5,2b
2019-07-12_145343:380,-0.44232200000000005,-0.033539,-0.226746,-0.0056619999999999995,-0.000918,0.0014269999999999999,-50.0,-17.0,-27.5,2b
2019-07-12_145343:400,-0.44232200000000005,-0.032013,-0.225739,-0.005723,-0.000857,0.001335,-50.0,-17.0,-27.5,2b
2019-07-12_145343:420,-0.441284,-0.031494,-0.226227,-0.005815,-0.001101,0.001213,-49.18,-17.0,-28.25,2b
2019-07-12_145343:440,-0.44232200000000005,-0.032013,-0.22521999999999998,-0.005845,-0.0012230000000000001,0.0014269999999999999,-49.18,-17.0,-28.25,2b
2019-07-12_145343:460,-0.445374,-0.03302,-0.225739,-0.005784,-0.001101,0.00161,-50.25,-17.0,-27.5,2b
2019-07-12_145343:480,-0.443329,-0.031494,-0.224701,-0.005815,-0.000857,0.0017629999999999998,-50.25,-17.0,-27.5,2b
2019-07-12_145343:500,-0.44281000000000004,-0.032013,-0.224701,-0.005845,-0.000857,0.0019149999999999998,-50.25,-17.0,-27.5,2b
2019-07-12_145343:520,-0.441284,-0.03302,-0.223175,-0.006089,-0.0010400000000000001,0.001213,-50.0,-17.0,-27.870001000000002,2b
2019-07-12_145343:540,-0.441284,-0.03302,-0.224701,-0.006242,-0.0015890000000000001,0.000298,-50.0,-17.0,-27.870001000000002,2b
2019-07-12_145343:560,-0.441284,-0.031006,-0.223694,-0.0063030000000000004,-0.0018030000000000001,0.000481,-50.25,-17.75,-28.25,2b
2019-07-12_145343:580,-0.440796,-0.032532,-0.22521999999999998,-0.005845,-0.0022,0.002373,-50.25,-17.75,-28.25,2b
2019-07-12_145343:600,-0.44232200000000005,-0.03302,-0.224701,-0.005784,-0.002261,0.002373,-50.25,-17.75,-28.25,2b
2019-07-12_145343:620,-0.44281000000000004,-0.032013,-0.22521999999999998,-0.005723,-0.002352,0.001274,-49.560001,-17.370001000000002,-27.5,2b
2019-07-12_145343:640,-0.44384799999999996,-0.031006,-0.224701,-0.005784,-0.001925,0.00103,-49.560001,-17.370001000000002,-27.5,2b
2019-07-12_145343:660,-0.445374,-0.032013,-0.225739,-0.005815,-0.001925,0.0014269999999999999,-49.560001,-17.0,-28.25,2b
2019-07-12_145343:680,-0.44384799999999996,-0.032013,-0.22421300000000002,-0.005784,-0.001925,0.001274,-49.560001,-17.0,-28.25,2b
2019-07-12_145343:700,-0.44281000000000004,-0.031006,-0.22521999999999998,-0.005815,-0.0017420000000000003,0.0017629999999999998,-49.560001,-17.0,-28.25,2b
2019-07-12_145343:720,-0.443329,-0.032013,-0.22521999999999998,-0.005845,-0.0017420000000000003,0.002129,-50.0,-17.370001000000002,-27.870001000000002,2b
2019-07-12_145343:740,-0.44281000000000004,-0.031006,-0.224701,-0.005845,-0.002139,0.0019760000000000003,-50.0,-17.370001000000002,-27.870001000000002,2b
2019-07-12_145343:760,-0.441284,-0.029968,-0.225739,-0.005906000000000001,-0.002078,0.002251,-49.560001,-16.68,-28.25,2b
2019-07-12_145343:780,-0.439758,-0.032013,-0.225739,-0.00615,-0.002352,0.0019149999999999998,-49.560001,-16.68,-28.25,2b
2019-07-12_145343:800,-0.439758,-0.03302,-0.226227,-0.0063030000000000004,-0.0024739999999999996,0.001274,-49.560001,-16.68,-28.25,2b
2019-07-12_145343:820,-0.441803,-0.033539,-0.22879000000000002,-0.006089,-0.003054,0.0014880000000000002,-50.0,-17.0,-27.059998999999998,2b
2019-07-12_145343:840,-0.44433599999999995,-0.032532,-0.226227,-0.005815,-0.003085,0.0028309999999999997,-50.0,-17.0,-27.059998999999998,2b
2019-07-12_145343:860,-0.444855,-0.031494,-0.22927899999999998,-0.005723,-0.002718,0.00161,-49.18,-18.18,-27.059998999999998,2b
2019-07-12_145343:880,-0.445374,-0.031494,-0.231323,-0.005784,-0.002352,0.001549,-49.18,-18.18,-27.059998999999998,2b
2019-07-12_145343:900,-0.44281000000000004,-0.031006,-0.227753,-0.005723,-0.0017420000000000003,0.002251,-49.18,-18.18,-27.059998999999998,2b
2019-07-12_145343:920,-0.44281000000000004,-0.031494,-0.22927899999999998,-0.005906000000000001,-0.00162,0.002037,-50.0,-16.68,-27.870001000000002,2b
2019-07-12_145343:940,-0.44232200000000005,-0.031494,-0.227753,-0.006089,-0.001254,0.0017929999999999999,-50.0,-16.68,-27.870001000000002,2b
2019-07-12_145343:960,-0.440796,-0.03302,-0.227753,-0.005967,-0.001376,0.0019760000000000003,-50.25,-16.370001000000002,-27.870001000000002,2b
2019-07-12_145343:980,-0.441284,-0.032013,-0.226746,-0.005723,-0.001437,0.002526,-50.25,-16.370001000000002,-27.870001000000002,2b
2019-07-12_145344:000,-0.441284,-0.03302,-0.227264,-0.0056619999999999995,-0.001498,0.0023120000000000003,-50.25,-16.370001000000002,-27.870001000000002,2b
2019-07-12_145344:020,-0.44281000000000004,-0.034058,-0.227264,-0.005815,-0.0016809999999999998,0.0023120000000000003,-50.0,-17.0,-28.68,2b
2019-07-12_145344:040,-0.443329,-0.03302,-0.226746,-0.005601,-0.00162,0.002251,-50.0,-17.0,-28.68,2b
2019-07-12_145344:060,-0.441284,-0.03302,-0.226746,-0.0056619999999999995,-0.0015890000000000001,0.002434,-49.560001,-16.370001000000002,-27.5,2b
2019-07-12_145344:080,-0.44027700000000003,-0.034058,-0.227264,-0.005723,-0.001437,0.002129,-49.560001,-16.370001000000002,-27.5,2b
2019-07-12_145344:100,-0.440796,-0.033539,-0.226746,-0.005906000000000001,-0.00162,0.002037,-49.560001,-16.370001000000002,-27.5,2b
2019-07-12_145344:120,-0.440796,-0.03302,-0.228271,-0.005845,-0.0018030000000000001,0.001854,-48.75,-16.68,-27.5,2b
2019-07-12_145344:140,-0.44384799999999996,-0.033539,-0.22521999999999998,-0.005906000000000001,-0.001925,0.0017929999999999999,-48.75,-16.68,-27.5,2b
2019-07-12_145344:160,-0.445862,-0.034058,-0.226746,-0.005845,-0.0018030000000000001,0.0021899999999999997,-48.75,-17.0,-27.870001000000002,2b
2019-07-12_145344:180,-0.44384799999999996,-0.03302,-0.226746,-0.005967,-0.001498,0.0023120000000000003,-48.75,-17.0,-27.870001000000002,2b
2019-07-12_145344:200,-0.443329,-0.032013,-0.226746,-0.005967,-0.0011619999999999998,0.002495,-48.75,-17.0,-27.870001000000002,2b
2019-07-12_145344:220,-0.44232200000000005,-0.033539,-0.226227,-0.0063030000000000004,-0.001101,0.002037,-49.18,-16.68,-27.870001000000002,2b
2019-07-12_145344:240,-0.44027700000000003,-0.034546,-0.226746,-0.006425,-0.001254,0.001,-49.18,-16.68,-27.870001000000002,2b
2019-07-12_145344:260,-0.44027700000000003,-0.033539,-0.226746,-0.006425,-0.0018030000000000001,0.001091,-49.560001,-17.0,-28.25,2b
2019-07-12_145344:280,-0.43927,-0.034546,-0.226746,-0.005845,-0.0022,0.002373,-49.560001,-17.0,-28.25,2b
2019-07-12_145344:300,-0.440796,-0.035583,-0.228271,-0.005723,-0.0017420000000000003,0.0029219999999999997,-49.560001,-17.0,-28.25,2b
2019-07-12_145344:320,-0.44433599999999995,-0.03302,-0.227753,-0.0054789999999999995,-0.0017420000000000003,0.0016710000000000002,-49.560001,-16.370001000000002,-27.870001000000002,2b
2019-07-12_145344:340,-0.44433599999999995,-0.032532,-0.225739,-0.005723,-0.001376,0.00103,-49.560001,-16.370001000000002,-27.870001000000002,2b
2019-07-12_145344:360,-0.44433599999999995,-0.032013,-0.22521999999999998,-0.005815,-0.0010400000000000001,0.001274,-49.18,-17.0,-29.059998999999998,2b
2019-07-12_145344:380,-0.44384799999999996,-0.031494,-0.225739,-0.005784,-0.000826,0.0014269999999999999,-49.18,-17.0,-29.059998999999998,2b
2019-07-12_145344:400,-0.44232200000000005,-0.031006,-0.224701,-0.005723,-0.000857,0.0014880000000000002,-49.18,-17.0,-29.059998999999998,2b
2019-07-12_145344:420,-0.44232200000000005,-0.032532,-0.226227,-0.005967,-0.001254,0.0019149999999999998,-48.75,-17.75,-27.059998999999998,2b
2019-07-12_145344:440,-0.44232200000000005,-0.03302,-0.22421300000000002,-0.005815,-0.0015890000000000001,0.0017629999999999998,-48.75,-17.75,-27.059998999999998,2b
2019-07-12_145344:460,-0.438751,-0.032013,-0.22421300000000002,-0.00615,-0.001864,0.0021899999999999997,-48.75,-17.75,-27.059998999999998,2b
2019-07-12_145344:480,-0.439758,-0.034058,-0.225739,-0.005967,-0.001925,0.0023120000000000003,-48.75,-17.370001000000002,-28.68,2b
2019-07-12_145344:500,-0.439758,-0.032532,-0.226227,-0.006181,-0.0024129999999999998,0.001,-48.75,-17.370001000000002,-28.68,2b
2019-07-12_145344:520,-0.441284,-0.031494,-0.226746,-0.005967,-0.00281,0.001549,-49.560001,-17.370001000000002,-27.059998999999998,2b
2019-07-12_145344:540,-0.44384799999999996,-0.033539,-0.226746,-0.005601,-0.002657,0.002892,-49.560001,-17.370001000000002,-27.059998999999998,2b
2019-07-12_145344:560,-0.444855,-0.032013,-0.22879000000000002,-0.00554,-0.0024129999999999998,0.002037,-49.560001,-17.370001000000002,-27.059998999999998,2b
2019-07-12_145344:580,-0.44281000000000004,-0.032013,-0.23028600000000002,-0.005845,-0.002078,0.00161,-49.18,-17.0,-27.5,2b
2019-07-12_145344:600,-0.44281000000000004,-0.031494,-0.22879000000000002,-0.005845,-0.0017420000000000003,0.002098,-49.18,-17.0,-27.5,2b
2019-07-12_145344:620,-0.44232200000000005,-0.03302,-0.23028600000000002,-0.00615,-0.0016809999999999998,0.002037,-50.0,-17.75,-27.5,2b
2019-07-12_145344:640,-0.44433599999999995,-0.034546,-0.228271,-0.006089,-0.0015890000000000001,0.0016710000000000002,-50.0,-17.75,-27.5,2b
2019-07-12_145344:660,-0.440796,-0.033539,-0.227753,-0.005845,-0.0015890000000000001,0.0017929999999999999,-50.0,-17.75,-27.5,2b
2019-07-12_145344:680,-0.441803,-0.03302,-0.22879000000000002,-0.005723,-0.00162,0.0021899999999999997,-49.560001,-16.68,-28.68,2b
2019-07-12_145344:700,-0.441803,-0.032013,-0.227264,-0.0054789999999999995,-0.0015890000000000001,0.002373,-49.560001,-16.68,-28.68,2b
2019-07-12_145344:720,-0.44232200000000005,-0.03302,-0.227264,-0.005815,-0.0016809999999999998,0.0021899999999999997,-49.560001,-17.0,-27.870001000000002,2b
2019-07-12_145344:740,-0.44384799999999996,-0.032532,-0.226746,-0.005815,-0.00162,0.0021899999999999997,-49.560001,-17.0,-27.870001000000002,2b
2019-07-12_145344:760,-0.440796,-0.032532,-0.226746,-0.006028,-0.001254,0.0023120000000000003,-49.560001,-17.0,-27.870001000000002,2b
2019-07-12_145344:780,-0.43823199999999995,-0.033539,-0.226227,-0.00615,-0.0015890000000000001,0.002129,-49.560001,-16.68,-27.870001000000002,2b
2019-07-12_145344:800,-0.439758,-0.034058,-0.225739,-0.006028,-0.0017420000000000003,0.0017929999999999999,-49.560001,-16.68,-27.870001000000002,2b
2019-07-12_145344:820,-0.44232200000000005,-0.034058,-0.226746,-0.005967,-0.002261,0.001732,-49.18,-17.0,-27.5,2b
2019-07-12_145344:840,-0.441284,-0.035583,-0.226227,-0.005815,-0.001925,0.0019760000000000003,-49.18,-17.0,-27.5,2b
2019-07-12_145344:860,-0.44433599999999995,-0.036591000000000005,-0.227264,-0.005326,-0.0017420000000000003,0.002251,-49.18,-16.68,-27.5,2b
2019-07-12_145344:880,-0.441803,-0.036072,-0.228271,-0.005386999999999999,-0.00162,0.002251,-49.18,-16.68,-27.5,2b
2019-07-12_145344:900,-0.44281000000000004,-0.034546,-0.226746,-0.005326,-0.001437,0.001732,-49.18,-16.68,-27.5,2b
2019-07-12_145344:920,-0.44027700000000003,-0.035065,-0.227753,-0.005326,-0.002078,0.000298,-49.560001,-16.0,-27.870001000000002,2b
2019-07-12_145344:940,-0.440796,-0.034058,-0.228271,-0.005204,-0.002261,-0.000251,-49.560001,-16.0,-27.870001000000002,2b
2019-07-12_145344:960,-0.441284,-0.032532,-0.22927899999999998,-0.005082,-0.002718,0.000695,-49.560001,-16.0,-27.870001000000002,2b
2019-07-12_145344:980,-0.441803,-0.031006,-0.22879000000000002,-0.004991,-0.002322,0.002495,-50.0,-17.370001000000002,-27.870001000000002,2b
2019-07-12_145345:000,-0.44232200000000005,-0.030487,-0.22927899999999998,-0.005448,-0.002139,0.002251,-50.0,-17.370001000000002,-27.870001000000002,2b
2019-07-12_145345:020,-0.441803,-0.029968,-0.228271,-0.006028,-0.001559,0.001549,-49.560001,-17.370001000000002,-28.25,2b
2019-07-12_145345:040,-0.441803,-0.029968,-0.227753,-0.006242,-0.001315,0.00161,-49.560001,-17.370001000000002,-28.25,2b
2019-07-12_145345:060,-0.44232200000000005,-0.032532,-0.22879000000000002,-0.006486,-0.001315,0.0017629999999999998,-49.560001,-17.370001000000002,-28.25,2b
2019-07-12_145345:080,-0.444855,-0.034058,-0.226746,-0.006242,-0.001315,0.00161,-48.75,-16.68,-27.870001000000002,2b
2019-07-12_145345:100,-0.441803,-0.033539,-0.225739,-0.006089,-0.001315,0.002251,-48.75,-16.68,-27.870001000000002,2b
2019-07-12_145345:120,-0.441284,-0.034058,-0.227753,-0.0056619999999999995,-0.0015890000000000001,0.002495,-48.75,-17.0,-29.870001000000002,2b
2019-07-12_145345:140,-0.44232200000000005,-0.032532,-0.225739,-0.005815,-0.001955,0.002251,-48.75,-17.0,-29.870001000000002,2b
2019-07-12_145345:160,-0.438751,-0.031006,-0.226746,-0.005906000000000001,-0.001925,0.0028309999999999997,-48.75,-17.0,-29.870001000000002,2b
2019-07-12_145345:180,-0.438751,-0.035065,-0.228271,-0.005906000000000001,-0.0024129999999999998,0.002129,-49.18,-16.370001000000002,-27.5,2b
2019-07-12_145345:200,-0.43823199999999995,-0.03302,-0.227753,-0.006181,-0.0024739999999999996,0.000878,-49.18,-16.370001000000002,-27.5,2b
2019-07-12_145345:220,-0.43927,-0.032532,-0.22879000000000002,-0.005845,-0.002993,0.002373,-50.25,-17.0,-27.870001000000002,2b
2019-07-12_145345:240,-0.44232200000000005,-0.035583,-0.227753,-0.00554,-0.002993,0.003258,-50.25,-17.0,-27.870001000000002,2b
2019-07-12_145345:260,-0.44281000000000004,-0.034546,-0.22979699999999997,-0.005845,-0.0025960000000000002,0.002037,-50.25,-17.0,-27.870001000000002,2b
2019-07-12_145345:280,-0.44281000000000004,-0.03302,-0.22879000000000002,-0.005845,-0.002322,0.0019760000000000003,-49.560001,-17.0,-27.5,2b
2019-07-12_145345:300,-0.44281000000000004,-0.034058,-0.22927899999999998,-0.006028,-0.002016,0.002373,-49.560001,-17.0,-27.5,2b
2019-07-12_145345:320,-0.441284,-0.035065,-0.230804,-0.006028,-0.00162,0.0017929999999999999,-50.0,-16.68,-27.870001000000002,2b
2019-07-12_145345:340,-0.441284,-0.034546,-0.227753,-0.005845,-0.0017420000000000003,0.0017629999999999998,-50.0,-16.68,-27.870001000000002,2b
2019-07-12_145345:360,-0.439758,-0.035583,-0.22979699999999997,-0.005723,-0.001925,0.0021899999999999997,-50.0,-16.68,-27.870001000000002,2b
2019-07-12_145345:380,-0.44027700000000003,-0.034546,-0.22927899999999998,-0.005601,-0.001955,0.002037,-48.75,-16.68,-27.5,2b
2019-07-12_145345:400,-0.439758,-0.034546,-0.22979699999999997,-0.005265,-0.002078,0.002373,-48.75,-16.68,-27.5,2b
2019-07-12_145345:420,-0.44232200000000005,-0.034058,-0.22979699999999997,-0.005326,-0.002016,0.0023120000000000003,-48.75,-17.0,-27.5,2b
2019-07-12_145345:440,-0.441284,-0.03302,-0.22927899999999998,-0.005448,-0.001955,0.002251,-48.75,-17.0,-27.5,2b
2019-07-12_145345:460,-0.440796,-0.034546,-0.22979699999999997,-0.00554,-0.002078,0.002251,-48.75,-17.0,-27.5,2b
2019-07-12_145345:480,-0.43927,-0.034058,-0.23028600000000002,-0.005815,-0.001955,0.0023120000000000003,-49.18,-17.0,-28.25,2b
2019-07-12_145345:500,-0.43927,-0.034546,-0.228271,-0.005784,-0.001864,0.002251,-49.18,-17.0,-28.25,2b
2019-07-12_145345:520,-0.440796,-0.034546,-0.23028600000000002,-0.0056619999999999995,-0.002078,0.002495,-49.18,-16.370001000000002,-28.25,2b
2019-07-12_145345:540,-0.43927,-0.036591000000000005,-0.22927899999999998,-0.005784,-0.002016,0.002373,-49.18,-16.370001000000002,-28.25,2b
2019-07-12_145345:560,-0.444855,-0.035583,-0.230804,-0.0056619999999999995,-0.001925,0.002037,-49.18,-16.370001000000002,-28.25,2b
2019-07-12_145345:580,-0.444855,-0.035583,-0.22927899999999998,-0.005601,-0.001498,0.002098,-49.560001,-16.370001000000002,-28.68,2b
2019-07-12_145345:600,-0.443329,-0.034546,-0.22879000000000002,-0.00554,-0.001254,0.002434,-49.560001,-16.370001000000002,-28.68,2b
2019-07-12_145345:620,-0.437225,-0.035065,-0.22927899999999998,-0.005815,-0.0009789999999999998,0.002526,-49.560001,-16.370001000000002,-28.25,2b
2019-07-12_145345:640,-0.43670699999999996,-0.035583,-0.22879000000000002,-0.005784,-0.001864,0.0014269999999999999,-49.560001,-16.370001000000002,-28.25,2b
2019-07-12_145345:660,-0.43670699999999996,-0.034058,-0.23028600000000002,-0.005967,-0.0025960000000000002,0.001549,-49.560001,-16.370001000000002,-28.25,2b
2019-07-12_145345:680,-0.439758,-0.036072,-0.23028600000000002,-0.005845,-0.002993,0.003228,-49.560001,-17.0,-28.25,2b
2019-07-12_145345:700,-0.441803,-0.036591000000000005,-0.23028600000000002,-0.005784,-0.0025960000000000002,0.003228,-49.560001,-17.0,-28.25,2b
2019-07-12_145345:720,-0.441284,-0.036072,-0.231812,-0.006181,-0.001925,0.001732,-50.25,-16.68,-28.25,2b
2019-07-12_145345:740,-0.44027700000000003,-0.035065,-0.23028600000000002,-0.00615,-0.001498,0.00161,-50.25,-16.68,-28.25,2b
2019-07-12_145345:760,-0.440796,-0.037598,-0.23028600000000002,-0.006028,-0.001376,0.001854,-50.25,-16.68,-28.25,2b
2019-07-12_145345:780,-0.441284,-0.038116000000000004,-0.23028600000000002,-0.005967,-0.001376,0.0016710000000000002,-48.75,-16.0,-27.870001000000002,2b
2019-07-12_145345:800,-0.440796,-0.035583,-0.22879000000000002,-0.005784,-0.001315,0.001732,-48.75,-16.0,-27.870001000000002,2b
2019-07-12_145345:820,-0.44027700000000003,-0.037108999999999996,-0.22979699999999997,-0.005386999999999999,-0.001254,0.002098,-49.18,-16.370001000000002,-28.25,2b
2019-07-12_145345:840,-0.440796,-0.035065,-0.22927899999999998,-0.0054789999999999995,-0.0016809999999999998,0.001732,-49.18,-16.370001000000002,-28.25,2b
2019-07-12_145345:860,-0.44027700000000003,-0.03302,-0.23028600000000002,-0.0054789999999999995,-0.0017420000000000003,0.002587,-49.18,-16.370001000000002,-28.25,2b
2019-07-12_145345:880,-0.43774399999999997,-0.036072,-0.22979699999999997,-0.005448,-0.001925,0.0019760000000000003,-49.18,-16.68,-28.68,2b
2019-07-12_145345:900,-0.43823199999999995,-0.03302,-0.22927899999999998,-0.005967,-0.0022,0.0009390000000000001,-49.18,-16.68,-28.68,2b
2019-07-12_145345:920,-0.43823199999999995,-0.034058,-0.231812,-0.005906000000000001,-0.0024739999999999996,0.002434,-48.5,-16.68,-28.68,2b
2019-07-12_145345:940,-0.441284,-0.037598,-0.23028600000000002,-0.005784,-0.0024739999999999996,0.003319,-48.5,-16.68,-28.68,2b
2019-07-12_145345:960,-0.441803,-0.036591000000000005,-0.233856,-0.005967,-0.002261,0.001854,-48.5,-16.68,-28.68,2b
2019-07-12_145345:980,-0.44281000000000004,-0.035583,-0.231812,-0.006028,-0.0017420000000000003,0.0017929999999999999,-48.5,-16.68,-28.68,2b
2019-07-12_145346:000,-0.441803,-0.037108999999999996,-0.23233,-0.005967,-0.0012230000000000001,0.002434,-48.5,-16.68,-28.68,2b
2019-07-12_145346:020,-0.44232200000000005,-0.037598,-0.231323,-0.006181,-0.0009789999999999998,0.0017629999999999998,-49.18,-16.370001000000002,-29.059998999999998,2b
2019-07-12_145346:040,-0.439758,-0.037598,-0.231323,-0.005906000000000001,-0.000704,0.001732,-49.18,-16.370001000000002,-29.059998999999998,2b
2019-07-12_145346:060,-0.440796,-0.037108999999999996,-0.230804,-0.0054789999999999995,-0.000643,0.002037,-49.18,-16.370001000000002,-29.059998999999998,2b
2019-07-12_145346:080,-0.439758,-0.036591000000000005,-0.23028600000000002,-0.0054789999999999995,-0.0007650000000000001,0.0019760000000000003,-48.75,-16.68,-27.870001000000002,2b
2019-07-12_145346:100,-0.440796,-0.035583,-0.23028600000000002,-0.004991,-0.000857,0.002526,-48.75,-16.68,-27.870001000000002,2b
2019-07-12_145346:120,-0.440796,-0.036072,-0.230804,-0.005052,-0.000857,0.002892,-49.560001,-16.68,-29.059998999999998,2b
2019-07-12_145346:140,-0.441284,-0.033539,-0.22979699999999997,-0.005723,-0.000521,0.002434,-49.560001,-16.68,-29.059998999999998,2b
2019-07-12_145346:160,-0.438751,-0.035583,-0.228271,-0.006181,-0.000643,0.002587,-49.560001,-16.68,-29.059998999999998,2b
2019-07-12_145346:180,-0.43774399999999997,-0.037598,-0.22979699999999997,-0.0065769999999999995,-0.000704,0.002648,-48.5,-16.68,-28.25,2b
2019-07-12_145346:200,-0.44027700000000003,-0.038635,-0.228271,-0.0065769999999999995,-0.000704,0.002251,-48.5,-16.68,-28.25,2b
2019-07-12_145346:220,-0.441803,-0.040649,-0.22879000000000002,-0.005967,-0.000704,0.002587,-49.560001,-16.68,-28.25,2b
2019-07-12_145346:240,-0.445862,-0.041687,-0.226746,-0.005265,-0.000521,0.002434,-49.560001,-16.68,-28.25,2b
2019-07-12_145346:260,-0.441284,-0.038635,-0.226746,-0.0049299999999999995,-0.00043,0.0019760000000000003,-49.560001,-16.68,-28.25,2b
2019-07-12_145346:280,-0.44232200000000005,-0.034058,-0.227264,-0.004991,-0.000307,0.002587,-49.18,-16.68,-28.25,2b
2019-07-12_145346:300,-0.43621800000000005,-0.036591000000000005,-0.224701,-0.005386999999999999,-0.00036899999999999997,0.002526,-49.18,-16.68,-28.25,2b
2019-07-12_145346:320,-0.437225,-0.035583,-0.22879000000000002,-0.006181,-0.0009789999999999998,0.001274,-50.0,-16.68,-27.870001000000002,2b
2019-07-12_145346:340,-0.438751,-0.035065,-0.226746,-0.006883,-0.001498,0.00161,-50.0,-16.68,-27.870001000000002,2b
2019-07-12_145346:360,-0.439758,-0.039642000000000004,-0.226746,-0.007035,-0.001925,0.003105,-50.0,-16.68,-27.870001000000002,2b
2019-07-12_145346:380,-0.441284,-0.040649,-0.227264,-0.007095999999999999,-0.0018030000000000001,0.002526,-49.18,-17.0,-28.25,2b
2019-07-12_145346:400,-0.440796,-0.040161,-0.228271,-0.006883,-0.001254,0.0016710000000000002,-49.18,-17.0,-28.25,2b
2019-07-12_145346:420,-0.441803,-0.041687,-0.227264,-0.006364,-0.0010400000000000001,0.0014880000000000002,-51.060001,-16.370001000000002,-26.68,2b
2019-07-12_145346:440,-0.44384799999999996,-0.041168,-0.226746,-0.006089,-0.0012230000000000001,0.001274,-51.060001,-16.370001000000002,-26.68,2b
2019-07-12_145346:460,-0.44232200000000005,-0.040161,-0.226746,-0.005784,-0.0009789999999999998,0.00103,-51.060001,-16.370001000000002,-26.68,2b
2019-07-12_145346:480,-0.441284,-0.038635,-0.226227,-0.005601,-0.000918,0.001396,-50.68,-15.56,-28.25,2b
2019-07-12_145346:500,-0.441803,-0.038116000000000004,-0.22521999999999998,-0.005448,-0.0009789999999999998,0.001335,-50.68,-15.56,-28.25,2b
2019-07-12_145346:520,-0.441803,-0.036591000000000005,-0.226746,-0.005784,-0.001498,0.001274,-49.18,-16.0,-28.25,2b
2019-07-12_145346:540,-0.44027700000000003,-0.035065,-0.224701,-0.006028,-0.00162,0.0017629999999999998,-49.18,-16.0,-28.25,2b
2019-07-12_145346:560,-0.43823199999999995,-0.037598,-0.226227,-0.006364,-0.002078,0.0007559999999999999,-49.18,-16.0,-28.25,2b
2019-07-12_145346:580,-0.438751,-0.036072,-0.227753,-0.006883,-0.0024129999999999998,-0.000312,-49.560001,-16.370001000000002,-27.870001000000002,2b
2019-07-12_145346:600,-0.43927,-0.037108999999999996,-0.227264,-0.006639,-0.002535,0.000817,-49.560001,-16.370001000000002,-27.870001000000002,2b
2019-07-12_145346:620,-0.44232200000000005,-0.038116000000000004,-0.227753,-0.006242,-0.002657,0.001549,-50.0,-17.0,-27.870001000000002,2b
2019-07-12_145346:640,-0.44281000000000004,-0.037108999999999996,-0.227753,-0.005906000000000001,-0.002352,0.0007559999999999999,-50.0,-17.0,-27.870001000000002,2b
2019-07-12_145346:660,-0.44232200000000005,-0.035583,-0.227753,-0.005845,-0.0022,0.000603,-50.0,-17.0,-27.870001000000002,2b
2019-07-12_145346:680,-0.44232200000000005,-0.034546,-0.22879000000000002,-0.005784,-0.001864,0.001,-49.560001,-16.68,-27.870001000000002,2b
2019-07-12_145346:700,-0.441803,-0.033539,-0.228271,-0.005815,-0.0018030000000000001,0.0009390000000000001,-49.560001,-16.68,-27.870001000000002,2b
2019-07-12_145346:720,-0.441803,-0.03302,-0.228271,-0.006089,-0.0015890000000000001,0.000634,-48.75,-16.68,-27.870001000000002,2b
2019-07-12_145346:740,-0.439758,-0.033539,-0.22927899999999998,-0.006364,-0.00162,0.00103,-48.75,-16.68,-27.870001000000002,2b
2019-07-12_145346:760,-0.441803,-0.034546,-0.22879000000000002,-0.00615,-0.001864,0.001396,-48.75,-16.68,-27.870001000000002,2b
2019-07-12_145346:780,-0.441803,-0.034546,-0.227753,-0.006028,-0.001955,0.001335,-50.25,-16.370001000000002,-28.68,2b
2019-07-12_145346:800,-0.443329,-0.034546,-0.228271,-0.006181,-0.001955,0.0014880000000000002,-50.25,-16.370001000000002,-28.68,2b
2019-07-12_145346:820,-0.44027700000000003,-0.035065,-0.22879000000000002,-0.006089,-0.00162,0.0017629999999999998,-50.0,-16.68,-27.870001000000002,2b
2019-07-12_145346:840,-0.440796,-0.033539,-0.22879000000000002,-0.006028,-0.0017420000000000003,0.001732,-50.0,-16.68,-27.870001000000002,2b
2019-07-12_145346:860,-0.438751,-0.035065,-0.22979699999999997,-0.006028,-0.001864,0.001732,-50.0,-16.68,-27.870001000000002,2b
2019-07-12_145346:880,-0.44232200000000005,-0.034058,-0.22879000000000002,-0.005845,-0.001955,0.0017929999999999999,-50.0,-17.0,-27.059998999999998,2b
2019-07-12_145346:900,-0.443329,-0.034058,-0.22879000000000002,-0.005815,-0.0016809999999999998,0.001854,-50.0,-17.0,-27.059998999999998,2b
2019-07-12_145346:920,-0.445862,-0.03302,-0.22879000000000002,-0.005601,-0.0015890000000000001,0.002251,-49.18,-17.370001000000002,-28.68,2b
2019-07-12_145346:940,-0.44232200000000005,-0.033539,-0.227264,-0.005784,-0.0011619999999999998,0.002495,-49.18,-17.370001000000002,-28.68,2b
2019-07-12_145346:960,-0.44027700000000003,-0.03302,-0.22879000000000002,-0.005967,-0.0012230000000000001,0.002434,-49.18,-17.370001000000002,-28.68,2b
2019-07-12_145346:980,-0.43927,-0.036072,-0.228271,-0.006364,-0.0010400000000000001,0.0019149999999999998,-50.0,-16.370001000000002,-27.870001000000002,2b
2019-07-12_145347:000,-0.439758,-0.036072,-0.227264,-0.0067,-0.001315,0.001213,-50.0,-16.370001000000002,-27.870001000000002,2b
2019-07-12_145347:020,-0.439758,-0.036591000000000005,-0.22879000000000002,-0.006547,-0.0016809999999999998,0.0014880000000000002,-49.560001,-16.68,-28.25,2b
2019-07-12_145347:040,-0.43927,-0.036591000000000005,-0.227264,-0.006028,-0.001864,0.0029219999999999997,-49.560001,-16.68,-28.25,2b
2019-07-12_145347:060,-0.441803,-0.037598,-0.22979699999999997,-0.005845,-0.001864,0.002983,-49.560001,-16.68,-28.25,2b
2019-07-12_145347:080,-0.441803,-0.036591000000000005,-0.22927899999999998,-0.005723,-0.0015890000000000001,0.0017629999999999998,-50.0,-16.370001000000002,-27.870001000000002,2b
2019-07-12_145347:100,-0.44281000000000004,-0.036072,-0.227264,-0.0056619999999999995,-0.001254,0.0014880000000000002,-50.0,-16.370001000000002,-27.870001000000002,2b
2019-07-12_145347:120,-0.443329,-0.036072,-0.226746,-0.005723,-0.0012230000000000001,0.00161,-49.18,-17.0,-28.25,2b
2019-07-12_145347:140,-0.441803,-0.035583,-0.226227,-0.005815,-0.0009789999999999998,0.0016710000000000002,-49.18,-17.0,-28.25,2b
2019-07-12_145347:160,-0.440796,-0.033539,-0.226746,-0.005967,-0.0011619999999999998,0.0017629999999999998,-49.18,-17.0,-28.25,2b
2019-07-12_145347:180,-0.441803,-0.035583,-0.225739,-0.005845,-0.001315,0.0017929999999999999,-49.18,-17.0,-28.25,2b
2019-07-12_145347:200,-0.443329,-0.034546,-0.227753,-0.006028,-0.0017420000000000003,0.001732,-49.18,-17.0,-28.25,2b
2019-07-12_145347:220,-0.43927,-0.036072,-0.226746,-0.005967,-0.0018030000000000001,0.002251,-50.25,-16.0,-27.870001000000002,2b
2019-07-12_145347:240,-0.43774399999999997,-0.037598,-0.226746,-0.006089,-0.002016,0.0019760000000000003,-50.25,-16.0,-27.870001000000002,2b
2019-07-12_145347:260,-0.438751,-0.034546,-0.22879000000000002,-0.006364,-0.002261,0.000817,-50.25,-16.0,-27.870001000000002,2b
2019-07-12_145347:280,-0.441284,-0.036591000000000005,-0.22927899999999998,-0.006028,-0.0024739999999999996,0.0014269999999999999,-49.560001,-16.68,-27.5,2b
2019-07-12_145347:300,-0.443329,-0.036591000000000005,-0.22979699999999997,-0.005784,-0.002261,0.002251,-49.560001,-16.68,-27.5,2b
2019-07-12_145347:320,-0.44433599999999995,-0.034058,-0.22879000000000002,-0.005723,-0.001955,0.001152,-49.18,-16.370001000000002,-27.870001000000002,2b
2019-07-12_145347:340,-0.44281000000000004,-0.034058,-0.22879000000000002,-0.005723,-0.001437,0.001213,-49.18,-16.370001000000002,-27.870001000000002,2b
2019-07-12_145347:360,-0.441803,-0.034058,-0.22979699999999997,-0.005815,-0.0009789999999999998,0.001549,-49.18,-16.370001000000002,-27.870001000000002,2b
2019-07-12_145347:380,-0.44232200000000005,-0.035065,-0.22927899999999998,-0.006089,-0.0010400000000000001,0.001274,-49.18,-17.0,-27.5,2b
2019-07-12_145347:400,-0.440796,-0.035065,-0.227753,-0.005967,-0.0010400000000000001,0.001213,-49.18,-17.0,-27.5,2b
2019-07-12_145347:420,-0.44027700000000003,-0.034058,-0.227753,-0.005845,-0.0009789999999999998,0.00161,-50.0,-16.370001000000002,-27.870001000000002,2b
2019-07-12_145347:440,-0.440796,-0.035583,-0.226746,-0.005845,-0.0011619999999999998,0.002037,-50.0,-16.370001000000002,-27.870001000000002,2b
2019-07-12_145347:460,-0.443329,-0.033539,-0.227753,-0.005784,-0.001254,0.002098,-50.0,-16.370001000000002,-27.870001000000002,2b
2019-07-12_145347:480,-0.44281000000000004,-0.03302,-0.226746,-0.005906000000000001,-0.000918,0.002098,-49.18,-16.370001000000002,-28.25,2b
2019-07-12_145347:500,-0.44027700000000003,-0.033539,-0.225739,-0.00615,-0.001101,0.002037,-49.18,-16.370001000000002,-28.25,2b
2019-07-12_145347:520,-0.44027700000000003,-0.034058,-0.225739,-0.005967,-0.0011619999999999998,0.0019760000000000003,-49.560001,-16.68,-27.5,2b
2019-07-12_145347:540,-0.441284,-0.035065,-0.226227,-0.006089,-0.001254,0.0019149999999999998,-49.560001,-16.68,-27.5,2b
2019-07-12_145347:560,-0.441803,-0.035583,-0.226746,-0.005845,-0.001498,0.0017629999999999998,-49.560001,-16.68,-27.5,2b
2019-07-12_145347:580,-0.44281000000000004,-0.035065,-0.226746,-0.005815,-0.001559,0.0017629999999999998,-50.25,-17.0,-28.25,2b
2019-07-12_145347:600,-0.445374,-0.035065,-0.226746,-0.0056619999999999995,-0.00162,0.002129,-50.25,-17.0,-28.25,2b
2019-07-12_145347:620,-0.44232200000000005,-0.034546,-0.22879000000000002,-0.00554,-0.0012230000000000001,0.0021899999999999997,-49.18,-17.370001000000002,-27.870001000000002,2b
2019-07-12_145347:640,-0.443329,-0.034058,-0.225739,-0.0056619999999999995,-0.001315,0.002251,-49.18,-17.370001000000002,-27.870001000000002,2b
2019-07-12_145347:660,-0.441284,-0.036072,-0.22521999999999998,-0.006181,-0.0009789999999999998,0.0017629999999999998,-49.18,-17.370001000000002,-27.870001000000002,2b
2019-07-12_145347:680,-0.44027700000000003,-0.035065,-0.226746,-0.0063030000000000004,-0.001101,0.001091,-49.560001,-17.0,-27.870001000000002,2b
2019-07-12_145347:700,-0.439758,-0.034546,-0.226227,-0.0063030000000000004,-0.001437,0.001274,-49.560001,-17.0,-27.870001000000002,2b
2019-07-12_145347:720,-0.43774399999999997,-0.035065,-0.227264,-0.005906000000000001,-0.0018030000000000001,0.002587,-50.0,-16.68,-27.870001000000002,2b
2019-07-12_145347:740,-0.44281000000000004,-0.036591000000000005,-0.224701,-0.0056619999999999995,-0.002016,0.0029219999999999997,-50.0,-16.68,-27.870001000000002,2b
2019-07-12_145347:760,-0.44232200000000005,-0.034058,-0.226746,-0.005723,-0.0018030000000000001,0.001854,-50.0,-16.68,-27.870001000000002,2b
2019-07-12_145347:780,-0.44232200000000005,-0.034058,-0.22521999999999998,-0.005723,-0.00162,0.001335,-50.0,-16.68,-27.870001000000002,2b
2019-07-12_145347:800,-0.44433599999999995,-0.034546,-0.224701,-0.005845,-0.0015890000000000001,0.00161,-50.0,-16.68,-27.870001000000002,2b
2019-07-12_145347:820,-0.44384799999999996,-0.034546,-0.224701,-0.005815,-0.0015890000000000001,0.0014269999999999999,-49.560001,-17.370001000000002,-27.059998999999998,2b
2019-07-12_145347:840,-0.441284,-0.034058,-0.224701,-0.005815,-0.001315,0.00161,-49.560001,-17.370001000000002,-27.059998999999998,2b
2019-07-12_145347:860,-0.44281000000000004,-0.036591000000000005,-0.22521999999999998,-0.005723,-0.001864,0.0019760000000000003,-49.560001,-17.370001000000002,-27.059998999999998,2b
2019-07-12_145347:880,-0.44384799999999996,-0.033539,-0.224701,-0.00554,-0.001864,0.001732,-50.0,-16.68,-28.25,2b
2019-07-12_145347:900,-0.445374,-0.032532,-0.224701,-0.005601,-0.001864,0.002098,-50.0,-16.68,-28.25,2b
2019-07-12_145347:920,-0.44281000000000004,-0.035583,-0.228271,-0.005845,-0.0012230000000000001,0.0019760000000000003,-48.75,-17.0,-28.25,2b
2019-07-12_145347:940,-0.43927,-0.035583,-0.22879000000000002,-0.006089,-0.001254,0.000634,-48.75,-17.0,-28.25,2b
2019-07-12_145347:960,-0.43774399999999997,-0.034546,-0.22927899999999998,-0.005845,-0.001315,0.001091,-48.75,-17.0,-28.25,2b
2019-07-12_145347:980,-0.439758,-0.037108999999999996,-0.228271,-0.005386999999999999,-0.0017420000000000003,0.002434,-49.560001,-16.370001000000002,-27.870001000000002,2b
2019-07-12_145348:000,-0.44027700000000003,-0.034546,-0.230804,-0.005448,-0.002078,0.001732,-49.560001,-16.370001000000002,-27.870001000000002,2b
2019-07-12_145348:020,-0.44232200000000005,-0.03302,-0.22979699999999997,-0.005601,-0.001955,0.001274,-49.560001,-16.68,-28.25,2b
2019-07-12_145348:040,-0.44281000000000004,-0.035065,-0.22879000000000002,-0.00554,-0.001864,0.001854,-49.560001,-16.68,-28.25,2b
2019-07-12_145348:060,-0.44232200000000005,-0.034058,-0.22927899999999998,-0.005815,-0.0017420000000000003,0.001732,-49.560001,-16.68,-28.25,2b
2019-07-12_145348:080,-0.444855,-0.034058,-0.227753,-0.005845,-0.001376,0.001396,-50.25,-16.370001000000002,-28.25,2b
2019-07-12_145348:100,-0.444855,-0.035065,-0.226746,-0.0056619999999999995,-0.001315,0.0016710000000000002,-50.25,-16.370001000000002,-28.25,2b
2019-07-12_145348:120,-0.44384799999999996,-0.033539,-0.228271,-0.005601,-0.0011619999999999998,0.002098,-49.560001,-16.370001000000002,-27.870001000000002,2b
2019-07-12_145348:140,-0.441803,-0.034546,-0.223694,-0.005448,-0.001101,0.002434,-49.560001,-16.370001000000002,-27.870001000000002,2b
2019-07-12_145348:160,-0.441284,-0.033539,-0.225739,-0.005265,-0.001437,0.002373,-49.560001,-16.370001000000002,-27.870001000000002,2b
2019-07-12_145348:180,-0.441803,-0.032532,-0.22421300000000002,-0.005386999999999999,-0.001376,0.002587,-48.5,-16.68,-28.68,2b
2019-07-12_145348:200,-0.439758,-0.034546,-0.223694,-0.005723,-0.0016809999999999998,0.002892,-48.5,-16.68,-28.68,2b
2019-07-12_145348:220,-0.44027700000000003,-0.034546,-0.224701,-0.005906000000000001,-0.001864,0.00277,-48.75,-17.370001000000002,-27.870001000000002,2b
2019-07-12_145348:240,-0.43927,-0.035583,-0.224701,-0.006181,-0.0024129999999999998,0.002434,-48.75,-17.370001000000002,-27.870001000000002,2b
2019-07-12_145348:260,-0.44232200000000005,-0.038116000000000004,-0.22521999999999998,-0.006181,-0.002657,0.002373,-48.75,-17.370001000000002,-27.870001000000002,2b
2019-07-12_145348:280,-0.441803,-0.037598,-0.226746,-0.006028,-0.00281,0.002495,-49.560001,-17.0,-27.870001000000002,2b
2019-07-12_145348:300,-0.445862,-0.038116000000000004,-0.227264,-0.0056619999999999995,-0.0028710000000000003,0.002587,-49.560001,-17.0,-27.870001000000002,2b
2019-07-12_145348:320,-0.44281000000000004,-0.037598,-0.226746,-0.0054789999999999995,-0.002352,0.002495,-48.5,-17.0,-27.870001000000002,2b
2019-07-12_145348:340,-0.44232200000000005,-0.036072,-0.227753,-0.00554,-0.0022,0.002587,-48.5,-17.0,-27.870001000000002,2b
2019-07-12_145348:360,-0.43774399999999997,-0.038116000000000004,-0.226746,-0.005723,-0.001864,0.0023120000000000003,-48.5,-17.0,-27.870001000000002,2b
2019-07-12_145348:380,-0.43823199999999995,-0.038635,-0.228271,-0.005784,-0.002535,0.00161,-49.560001,-17.370001000000002,-27.5,2b
2019-07-12_145348:400,-0.43927,-0.037598,-0.22927899999999998,-0.0056619999999999995,-0.003207,0.001274,-49.560001,-17.370001000000002,-27.5,2b
2019-07-12_145348:420,-0.44027700000000003,-0.036591000000000005,-0.22979699999999997,-0.005386999999999999,-0.00339,0.002892,-49.18,-16.68,-27.5,2b
2019-07-12_145348:440,-0.44384799999999996,-0.037598,-0.22879000000000002,-0.005386999999999999,-0.002932,0.002526,-49.18,-16.68,-27.5,2b
2019-07-12_145348:460,-0.441803,-0.037108999999999996,-0.22927899999999998,-0.005723,-0.002322,0.00161,-49.18,-16.68,-27.5,2b
2019-07-12_145348:480,-0.441803,-0.036591000000000005,-0.231812,-0.005784,-0.00162,0.0016710000000000002,-49.560001,-16.370001000000002,-27.5,2b
2019-07-12_145348:500,-0.44281000000000004,-0.037598,-0.22979699999999997,-0.005815,-0.001315,0.0016710000000000002,-49.560001,-16.370001000000002,-27.5,2b
2019-07-12_145348:520,-0.443329,-0.036591000000000005,-0.22927899999999998,-0.005815,-0.0012230000000000001,0.0014880000000000002,-49.18,-16.370001000000002,-27.5,2b
2019-07-12_145348:540,-0.440796,-0.037108999999999996,-0.226746,-0.0056619999999999995,-0.0010400000000000001,0.002129,-49.18,-16.370001000000002,-27.5,2b
2019-07-12_145348:560,-0.440796,-0.037598,-0.228271,-0.0054789999999999995,-0.001437,0.001854,-49.18,-16.370001000000002,-27.5,2b
2019-07-12_145348:580,-0.44027700000000003,-0.035583,-0.22879000000000002,-0.005723,-0.0017420000000000003,0.001732,-49.560001,-16.68,-27.870001000000002,2b
2019-07-12_145348:600,-0.43927,-0.035065,-0.227753,-0.005784,-0.0017420000000000003,0.002648,-49.560001,-16.68,-27.870001000000002,2b
2019-07-12_145348:620,-0.438751,-0.038635,-0.227753,-0.005723,-0.002139,0.0017929999999999999,-49.18,-16.68,-27.870001000000002,2b
2019-07-12_145348:640,-0.43927,-0.035065,-0.228271,-0.005967,-0.0024129999999999998,0.000634,-49.18,-16.68,-27.870001000000002,2b
2019-07-12_145348:660,-0.440796,-0.034546,-0.22979699999999997,-0.0056619999999999995,-0.0027489999999999997,0.002709,-49.18,-16.68,-27.870001000000002,2b
2019-07-12_145348:680,-0.441284,-0.038635,-0.23028600000000002,-0.005326,-0.0025960000000000002,0.003258,-49.18,-17.0,-28.25,2b
2019-07-12_145348:700,-0.44232200000000005,-0.035583,-0.22979699999999997,-0.005601,-0.0024129999999999998,0.0016710000000000002,-49.18,-17.0,-28.25,2b
2019-07-12_145348:720,-0.443329,-0.035583,-0.22979699999999997,-0.005723,-0.002139,0.0019760000000000003,-49.18,-16.370001000000002,-28.25,2b
2019-07-12_145348:740,-0.441803,-0.036072,-0.22927899999999998,-0.005784,-0.0018030000000000001,0.002526,-49.18,-16.370001000000002,-28.25,2b
2019-07-12_145348:760,-0.44232200000000005,-0.037108999999999996,-0.22979699999999997,-0.006089,-0.00162,0.002037,-49.18,-16.370001000000002,-28.25,2b
2019-07-12_145348:780,-0.440796,-0.037108999999999996,-0.22979699999999997,-0.005967,-0.0015890000000000001,0.002251,-49.560001,-16.68,-27.870001000000002,2b
2019-07-12_145348:800,-0.439758,-0.038116000000000004,-0.22879000000000002,-0.0056619999999999995,-0.0015890000000000001,0.0023120000000000003,-49.560001,-16.68,-27.870001000000002,2b
2019-07-12_145348:820,-0.439758,-0.038635,-0.23028600000000002,-0.005601,-0.0017420000000000003,0.0021899999999999997,-49.560001,-16.68,-29.5,2b
2019-07-12_145348:840,-0.44027700000000003,-0.037598,-0.228271,-0.0054789999999999995,-0.0018030000000000001,0.002892,-49.560001,-16.68,-29.5,2b
2019-07-12_145348:860,-0.44027700000000003,-0.037108999999999996,-0.22879000000000002,-0.0054789999999999995,-0.0017420000000000003,0.002648,-49.560001,-16.68,-29.5,2b
2019-07-12_145348:880,-0.439758,-0.036072,-0.228271,-0.005601,-0.0018030000000000001,0.002373,-49.560001,-16.68,-27.5,2b
2019-07-12_145348:900,-0.438751,-0.036072,-0.22879000000000002,-0.005815,-0.001925,0.002495,-49.560001,-16.68,-27.5,2b
2019-07-12_145348:920,-0.43927,-0.038635,-0.22927899999999998,-0.005906000000000001,-0.001925,0.002526,-49.18,-16.370001000000002,-28.68,2b
2019-07-12_145348:940,-0.440796,-0.038116000000000004,-0.22927899999999998,-0.005906000000000001,-0.001955,0.002587,-49.18,-16.370001000000002,-28.68,2b
2019-07-12_145348:960,-0.441284,-0.039124,-0.22979699999999997,-0.005845,-0.002139,0.002648,-49.18,-16.370001000000002,-28.68,2b
2019-07-12_145348:980,-0.44281000000000004,-0.040161,-0.23028600000000002,-0.005845,-0.002322,0.002373,-49.18,-16.68,-27.870001000000002,2b
2019-07-12_145349:000,-0.444855,-0.038116000000000004,-0.22927899999999998,-0.005784,-0.001864,0.0019760000000000003,-49.18,-16.68,-27.870001000000002,2b
2019-07-12_145349:020,-0.440796,-0.039124,-0.22927899999999998,-0.00554,-0.001376,0.00277,-49.18,-16.370001000000002,-27.870001000000002,2b
2019-07-12_145349:040,-0.43621800000000005,-0.039124,-0.22879000000000002,-0.0056619999999999995,-0.001498,0.002709,-49.18,-16.370001000000002,-27.870001000000002,2b
2019-07-12_145349:060,-0.437225,-0.039642000000000004,-0.228271,-0.005815,-0.001864,0.0017629999999999998,-49.18,-16.370001000000002,-27.870001000000002,2b
2019-07-12_145349:080,-0.43774399999999997,-0.038116000000000004,-0.231812,-0.005845,-0.002718,0.00161,-49.560001,-16.370001000000002,-27.5,2b
2019-07-12_145349:100,-0.439758,-0.039124,-0.231812,-0.005815,-0.002993,0.002983,-49.560001,-16.370001000000002,-27.5,2b
2019-07-12_145349:120,-0.441803,-0.041687,-0.23284899999999997,-0.005784,-0.002657,0.003258,-49.18,-16.0,-28.25,2b
2019-07-12_145349:140,-0.441803,-0.041168,-0.230804,-0.006242,-0.0017420000000000003,0.0017929999999999999,-49.18,-16.0,-28.25,2b
2019-07-12_145349:160,-0.441284,-0.039642000000000004,-0.23233,-0.006242,-0.0010400000000000001,0.001335,-49.18,-16.0,-28.25,2b
2019-07-12_145349:180,-0.441284,-0.040161,-0.23233,-0.00615,-0.000918,0.0019760000000000003,-48.5,-15.56,-27.5,2b
2019-07-12_145349:200,-0.441284,-0.040649,-0.231323,-0.006089,-0.00045999999999999996,0.001396,-48.5,-15.56,-27.5,2b
2019-07-12_145349:220,-0.440796,-0.039124,-0.231323,-0.005967,-0.00036899999999999997,0.001732,-48.75,-16.68,-28.25,2b
2019-07-12_145349:240,-0.439758,-0.039642000000000004,-0.231323,-0.006028,-0.00043,0.002098,-48.75,-16.68,-28.25,2b
2019-07-12_145349:260,-0.437225,-0.039642000000000004,-0.23028600000000002,-0.006242,-0.000643,0.0014880000000000002,-48.75,-16.68,-28.25,2b
2019-07-12_145349:280,-0.44027700000000003,-0.037108999999999996,-0.23028600000000002,-0.006425,-0.000826,0.0019149999999999998,-50.0,-16.68,-26.68,2b
2019-07-12_145349:300,-0.438751,-0.041687,-0.22927899999999998,-0.006425,-0.0007650000000000001,0.0019760000000000003,-50.0,-16.68,-26.68,2b
2019-07-12_145349:320,-0.43927,-0.042694,-0.23028600000000002,-0.006425,-0.000918,8.4e-05,-48.75,-16.0,-27.5,2b
2019-07-12_145349:340,-0.43927,-0.039642000000000004,-0.22927899999999998,-0.006242,-0.0010400000000000001,0.00042,-48.75,-16.0,-27.5,2b
2019-07-12_145349:360,-0.440796,-0.041687,-0.22879000000000002,-0.005601,-0.000857,0.0019760000000000003,-48.75,-16.0,-27.5,2b
2019-07-12_145349:380,-0.443329,-0.040649,-0.22979699999999997,-0.005448,-0.000521,0.001335,-48.75,-16.0,-26.68,2b
2019-07-12_145349:400,-0.44281000000000004,-0.036072,-0.226746,-0.005386999999999999,-9.4e-05,0.00042,-48.75,-16.0,-26.68,2b
2019-07-12_145349:420,-0.44281000000000004,-0.036591000000000005,-0.227264,-0.005601,2.8000000000000003e-05,0.0009390000000000001,-50.0,-16.0,-28.68,2b
2019-07-12_145349:440,-0.441803,-0.036591000000000005,-0.225739,-0.005845,-0.000124,0.000817,-50.0,-16.0,-28.68,2b
2019-07-12_145349:460,-0.441284,-0.037598,-0.225739,-0.006181,-0.000185,0.000817,-50.0,-16.0,-28.68,2b
2019-07-12_145349:480,-0.43927,-0.038635,-0.22521999999999998,-0.006425,-0.000185,0.000878,-50.0,-15.56,-27.870001000000002,2b
2019-07-12_145349:500,-0.44027700000000003,-0.037598,-0.22421300000000002,-0.006242,-0.000826,0.00103,-50.0,-15.56,-27.870001000000002,2b
2019-07-12_145349:520,-0.43927,-0.037598,-0.223694,-0.0063030000000000004,-0.0011619999999999998,0.001274,-49.560001,-16.0,-27.059998999999998,2b
2019-07-12_145349:540,-0.440796,-0.038116000000000004,-0.223694,-0.005845,-0.00162,0.0014269999999999999,-49.560001,-16.0,-27.059998999999998,2b
2019-07-12_145349:560,-0.44027700000000003,-0.037108999999999996,-0.224701,-0.005815,-0.0016809999999999998,0.001335,-49.560001,-16.0,-27.059998999999998,2b
2019-07-12_145349:580,-0.441284,-0.036591000000000005,-0.22521999999999998,-0.005845,-0.001955,0.0014880000000000002,-48.75,-16.68,-28.25,2b
2019-07-12_145349:600,-0.44027700000000003,-0.036591000000000005,-0.224701,-0.005906000000000001,-0.002322,0.001732,-48.75,-16.68,-28.25,2b
2019-07-12_145349:620,-0.44027700000000003,-0.036072,-0.226227,-0.005967,-0.0025960000000000002,0.0014880000000000002,-49.560001,-16.370001000000002,-26.68,2b
2019-07-12_145349:640,-0.440796,-0.036072,-0.226227,-0.006028,-0.0028710000000000003,0.0014880000000000002,-49.560001,-16.370001000000002,-26.68,2b
2019-07-12_145349:660,-0.441284,-0.037108999999999996,-0.227264,-0.005845,-0.003146,0.001854,-49.560001,-16.370001000000002,-26.68,2b
2019-07-12_145349:680,-0.44384799999999996,-0.036591000000000005,-0.22979699999999997,-0.005784,-0.002993,0.002098,-48.75,-16.370001000000002,-27.059998999999998,2b
2019-07-12_145349:700,-0.44384799999999996,-0.037108999999999996,-0.228271,-0.005845,-0.002657,0.002098,-48.75,-16.370001000000002,-27.059998999999998,2b
2019-07-12_145349:720,-0.44384799999999996,-0.036591000000000005,-0.22927899999999998,-0.005967,-0.002322,0.002129,-50.0,-16.68,-27.5,2b
2019-07-12_145349:740,-0.439758,-0.036591000000000005,-0.22927899999999998,-0.00615,-0.002261,0.002098,-50.0,-16.68,-27.5,2b
2019-07-12_145349:760,-0.43927,-0.037598,-0.23028600000000002,-0.006364,-0.002322,0.001213,-50.0,-16.68,-27.5,2b
2019-07-12_145349:780,-0.43927,-0.037108999999999996,-0.231323,-0.0063030000000000004,-0.0024129999999999998,0.001213,-48.75,-16.370001000000002,-28.68,2b
2019-07-12_145349:800,-0.438751,-0.038635,-0.22927899999999998,-0.006181,-0.002718,0.002495,-48.75,-16.370001000000002,-28.68,2b
2019-07-12_145349:820,-0.44027700000000003,-0.039124,-0.23233,-0.005784,-0.0024129999999999998,0.003105,-49.560001,-16.68,-27.5,2b
2019-07-12_145349:840,-0.44281000000000004,-0.037598,-0.22979699999999997,-0.005784,-0.002139,0.001854,-49.560001,-16.68,-27.5,2b
2019-07-12_145349:860,-0.44232200000000005,-0.037598,-0.230804,-0.005815,-0.001498,0.0014269999999999999,-49.560001,-16.68,-27.5,2b
2019-07-12_145349:880,-0.44384799999999996,-0.038116000000000004,-0.230804,-0.005845,-0.0012230000000000001,0.0014269999999999999,-48.5,-16.370001000000002,-28.68,2b
2019-07-12_145349:900,-0.44281000000000004,-0.037108999999999996,-0.22979699999999997,-0.005784,-0.0007650000000000001,0.001549,-48.5,-16.370001000000002,-28.68,2b
2019-07-12_145349:920,-0.440796,-0.037108999999999996,-0.22879000000000002,-0.005815,-0.000704,0.0017929999999999999,-48.75,-17.0,-28.559998999999998,2b
2019-07-12_145349:940,-0.44027700000000003,-0.038635,-0.226746,-0.005784,-0.000826,0.002037,-48.75,-17.0,-28.559998999999998,2b
2019-07-12_145349:960,-0.440796,-0.036591000000000005,-0.227264,-0.005815,-0.001254,0.0016710000000000002,-48.75,-17.0,-28.559998999999998,2b
2019-07-12_145349:980,-0.44232200000000005,-0.037598,-0.227264,-0.005906000000000001,-0.001437,0.0021899999999999997,-50.0,-16.370001000000002,-27.870001000000002,2b
2019-07-12_145350:000,-0.439758,-0.038635,-0.226227,-0.006028,-0.001315,0.002373,-50.0,-16.370001000000002,-27.870001000000002,2b
2019-07-12_145350:020,-0.437225,-0.039124,-0.226746,-0.006181,-0.00162,0.0009390000000000001,-50.25,-16.370001000000002,-28.25,2b
2019-07-12_145350:040,-0.43823199999999995,-0.037108999999999996,-0.227753,-0.006089,-0.001955,0.001091,-50.25,-16.370001000000002,-28.25,2b
2019-07-12_145350:060,-0.43927,-0.038635,-0.227753,-0.005723,-0.0022,0.002495,-50.25,-16.370001000000002,-28.25,2b
2019-07-12_145350:080,-0.441803,-0.038635,-0.230804,-0.005784,-0.0022,0.0016710000000000002,-49.18,-16.370001000000002,-27.059998999999998,2b
2019-07-12_145350:100,-0.44281000000000004,-0.035583,-0.22879000000000002,-0.005815,-0.002078,0.001091,-49.18,-16.370001000000002,-27.059998999999998,2b
2019-07-12_145350:120,-0.441284,-0.035583,-0.22979699999999997,-0.005784,-0.0017420000000000003,0.0017929999999999999,-50.0,-16.68,-28.25,2b
2019-07-12_145350:140,-0.441284,-0.037108999999999996,-0.228271,-0.005967,-0.001498,0.001732,-50.0,-16.68,-28.25,2b
2019-07-12_145350:160,-0.44232200000000005,-0.037108999999999996,-0.22927899999999998,-0.005967,-0.001559,0.0014880000000000002,-50.0,-16.68,-28.25,2b
2019-07-12_145350:180,-0.440796,-0.037108999999999996,-0.227753,-0.00615,-0.001559,0.0014269999999999999,-50.0,-16.68,-28.25,2b
2019-07-12_145350:200,-0.439758,-0.036072,-0.228271,-0.005845,-0.001559,0.0017629999999999998,-50.0,-16.68,-28.25,2b
2019-07-12_145350:220,-0.440796,-0.037108999999999996,-0.22927899999999998,-0.005815,-0.0015890000000000001,0.002251,-50.68,-16.370001000000002,-28.68,2b
2019-07-12_145350:240,-0.44027700000000003,-0.036072,-0.22927899999999998,-0.005723,-0.0017420000000000003,0.002098,-50.68,-16.370001000000002,-28.68,2b
2019-07-12_145350:260,-0.441803,-0.036072,-0.22927899999999998,-0.005815,-0.001498,0.0019149999999999998,-50.68,-16.370001000000002,-28.68,2b
2019-07-12_145350:280,-0.44232200000000005,-0.036072,-0.22879000000000002,-0.005967,-0.00162,0.002037,-49.560001,-16.370001000000002,-28.25,2b
2019-07-12_145350:300,-0.44027700000000003,-0.037598,-0.22927899999999998,-0.006089,-0.001315,0.002037,-49.560001,-16.370001000000002,-28.25,2b
2019-07-12_145350:320,-0.439758,-0.037598,-0.22879000000000002,-0.006028,-0.0012230000000000001,0.0019149999999999998,-49.560001,-16.370001000000002,-27.870001000000002,2b
2019-07-12_145350:340,-0.43823199999999995,-0.038116000000000004,-0.228271,-0.006089,-0.001498,0.0017629999999999998,-49.560001,-16.370001000000002,-27.870001000000002,2b
2019-07-12_145350:360,-0.44027700000000003,-0.038116000000000004,-0.22879000000000002,-0.005784,-0.00162,0.0017929999999999999,-49.560001,-16.370001000000002,-27.870001000000002,2b
2019-07-12_145350:380,-0.441803,-0.038635,-0.23028600000000002,-0.005784,-0.0016809999999999998,0.0017929999999999999,-48.75,-16.68,-27.5,2b
2019-07-12_145350:400,-0.443329,-0.038116000000000004,-0.228271,-0.0056619999999999995,-0.00162,0.0019149999999999998,-48.75,-16.68,-27.5,2b
2019-07-12_145350:420,-0.44433599999999995,-0.036072,-0.22979699999999997,-0.005601,-0.001254,0.0021899999999999997,-49.560001,-16.370001000000002,-28.25,2b
2019-07-12_145350:440,-0.44281000000000004,-0.036591000000000005,-0.227264,-0.005815,-0.0009789999999999998,0.002251,-49.560001,-16.370001000000002,-28.25,2b
2019-07-12_145350:460,-0.43927,-0.036591000000000005,-0.228271,-0.006242,-0.000918,0.002098,-49.560001,-16.370001000000002,-28.25,2b
2019-07-12_145350:480,-0.44027700000000003,-0.037598,-0.226746,-0.006486,-0.000704,0.001335,-49.560001,-16.370001000000002,-27.059998999999998,2b
2019-07-12_145350:500,-0.44027700000000003,-0.038116000000000004,-0.228271,-0.0065769999999999995,-0.001315,0.000634,-49.560001,-16.370001000000002,-27.059998999999998,2b
2019-07-12_145350:520,-0.438751,-0.039124,-0.227753,-0.006242,-0.00162,0.00161,-50.68,-17.0,-28.559998999999998,2b
2019-07-12_145350:540,-0.439758,-0.039124,-0.227264,-0.00554,-0.0017420000000000003,0.002526,-50.68,-17.0,-28.559998999999998,2b
2019-07-12_145350:560,-0.441284,-0.038116000000000004,-0.226746,-0.0054789999999999995,-0.0018030000000000001,0.001854,-50.68,-17.0,-28.559998999999998,2b
2019-07-12_145350:580,-0.44281000000000004,-0.035583,-0.228271,-0.0054789999999999995,-0.001376,0.0009390000000000001,-48.75,-16.370001000000002,-29.059998999999998,2b
2019-07-12_145350:600,-0.44281000000000004,-0.035583,-0.227753,-0.00554,-0.001254,0.001152,-48.75,-16.370001000000002,-29.059998999999998,2b
2019-07-12_145350:620,-0.44232200000000005,-0.036072,-0.226746,-0.005784,-0.0010400000000000001,0.001396,-50.0,-16.68,-29.059998999999998,2b
2019-07-12_145350:640,-0.440796,-0.035065,-0.22521999999999998,-0.005967,-0.0010400000000000001,0.0014269999999999999,-50.0,-16.68,-29.059998999999998,2b
2019-07-12_145350:660,-0.441803,-0.036072,-0.227264,-0.005967,-0.001254,0.001854,-50.0,-16.68,-29.059998999999998,2b
2019-07-12_145350:680,-0.44027700000000003,-0.037108999999999996,-0.226227,-0.006089,-0.00162,0.0017629999999999998,-48.75,-16.370001000000002,-27.5,2b
2019-07-12_145350:700,-0.440796,-0.035065,-0.226746,-0.006181,-0.002016,0.001732,-48.75,-16.370001000000002,-27.5,2b
2019-07-12_145350:720,-0.438751,-0.036591000000000005,-0.227753,-0.005967,-0.001955,0.002709,-49.560001,-16.68,-27.870001000000002,2b
2019-07-12_145350:740,-0.43823199999999995,-0.038635,-0.226746,-0.005967,-0.002535,0.0019149999999999998,-49.560001,-16.68,-27.870001000000002,2b
2019-07-12_145350:760,-0.438751,-0.036591000000000005,-0.22979699999999997,-0.005967,-0.002718,0.000634,-49.560001,-16.68,-27.870001000000002,2b
2019-07-12_145350:780,-0.44232200000000005,-0.038116000000000004,-0.227753,-0.005723,-0.002932,0.0023120000000000003,-50.25,-16.68,-27.870001000000002,2b
2019-07-12_145350:800,-0.443329,-0.036591000000000005,-0.23028600000000002,-0.005386999999999999,-0.002718,0.00277,-50.25,-16.68,-27.870001000000002,2b
2019-07-12_145350:820,-0.44384799999999996,-0.035065,-0.230804,-0.005601,-0.002139,0.001549,-48.75,-16.370001000000002,-27.870001000000002,2b
2019-07-12_145350:840,-0.44232200000000005,-0.035583,-0.22927899999999998,-0.005845,-0.001864,0.001732,-48.75,-16.370001000000002,-27.870001000000002,2b
2019-07-12_145350:860,-0.441284,-0.037108999999999996,-0.230804,-0.005967,-0.001498,0.002129,-48.75,-16.370001000000002,-27.870001000000002,2b
2019-07-12_145350:880,-0.441803,-0.038116000000000004,-0.23028600000000002,-0.006242,-0.001437,0.0016710000000000002,-48.75,-16.68,-27.870001000000002,2b
2019-07-12_145350:900,-0.441284,-0.038635,-0.230804,-0.006089,-0.001437,0.0017629999999999998,-48.75,-16.68,-27.870001000000002,2b
2019-07-12_145350:920,-0.44027700000000003,-0.038635,-0.22927899999999998,-0.005906000000000001,-0.0012230000000000001,0.0019149999999999998,-50.0,-16.68,-28.559998999999998,2b
2019-07-12_145350:940,-0.44232200000000005,-0.037598,-0.22879000000000002,-0.005601,-0.001376,0.002129,-50.0,-16.68,-28.559998999999998,2b
2019-07-12_145350:960,-0.439758,-0.037108999999999996,-0.227264,-0.005601,-0.001254,0.002251,-50.0,-16.68,-28.559998999999998,2b
2019-07-12_145350:980,-0.44232200000000005,-0.036072,-0.226746,-0.00554,-0.001254,0.002129,-49.18,-17.370001000000002,-28.68,2b
2019-07-12_145351:000,-0.44027700000000003,-0.035583,-0.227264,-0.005815,-0.001254,0.002129,-49.18,-17.370001000000002,-28.68,2b
2019-07-12_145351:020,-0.43927,-0.036591000000000005,-0.227264,-0.005906000000000001,-0.0012230000000000001,0.002251,-48.060001,-16.370001000000002,-27.5,2b
2019-07-12_145351:040,-0.43927,-0.037598,-0.226227,-0.00615,-0.001315,0.002098,-48.060001,-16.370001000000002,-27.5,2b
2019-07-12_145351:060,-0.43774399999999997,-0.038116000000000004,-0.226746,-0.006028,-0.00162,0.0019149999999999998,-48.060001,-16.370001000000002,-27.5,2b
2019-07-12_145351:080,-0.43823199999999995,-0.037598,-0.22927899999999998,-0.005845,-0.0016809999999999998,0.001854,-50.25,-16.68,-28.68,2b
2019-07-12_145351:100,-0.44027700000000003,-0.037598,-0.227264,-0.005723,-0.0022,0.0019760000000000003,-50.25,-16.68,-28.68,2b
2019-07-12_145351:120,-0.441284,-0.038635,-0.228271,-0.00554,-0.0024129999999999998,0.0019760000000000003,-50.0,-17.0,-28.25,2b
2019-07-12_145351:140,-0.444855,-0.038635,-0.228271,-0.005448,-0.0022,0.0019760000000000003,-50.0,-17.0,-28.25,2b
2019-07-12_145351:160,-0.44232200000000005,-0.036591000000000005,-0.228271,-0.005386999999999999,-0.0016809999999999998,0.002037,-50.0,-17.0,-28.25,2b
2019-07-12_145351:180,-0.44281000000000004,-0.036591000000000005,-0.22879000000000002,-0.0054789999999999995,-0.001376,0.002526,-48.5,-16.370001000000002,-28.25,2b
2019-07-12_145351:200,-0.43823199999999995,-0.037598,-0.227264,-0.005906000000000001,-0.001315,0.0023120000000000003,-48.5,-16.370001000000002,-28.25,2b
2019-07-12_145351:220,-0.43823199999999995,-0.038635,-0.22927899999999998,-0.006364,-0.0018030000000000001,0.0014269999999999999,-49.18,-16.68,-27.870001000000002,2b
2019-07-12_145351:240,-0.43927,-0.038635,-0.22979699999999997,-0.006486,-0.0022,0.0014880000000000002,-49.18,-16.68,-27.870001000000002,2b
2019-07-12_145351:260,-0.43927,-0.039642000000000004,-0.22927899999999998,-0.005967,-0.0024129999999999998,0.002892,-49.18,-16.68,-27.870001000000002,2b
2019-07-12_145351:280,-0.441284,-0.040161,-0.23028600000000002,-0.005448,-0.002261,0.003228,-50.0,-16.370001000000002,-28.25,2b
2019-07-12_145351:300,-0.44232200000000005,-0.039124,-0.227753,-0.0054789999999999995,-0.00162,0.0019760000000000003,-50.0,-16.370001000000002,-28.25,2b
2019-07-12_145351:320,-0.441803,-0.036591000000000005,-0.22979699999999997,-0.0054789999999999995,-0.000918,0.0014269999999999999,-49.560001,-16.370001000000002,-27.870001000000002,2b
2019-07-12_145351:340,-0.44232200000000005,-0.037108999999999996,-0.227264,-0.00554,-0.000826,0.0017929999999999999,-49.560001,-16.370001000000002,-27.870001000000002,2b
2019-07-12_145351:360,-0.440796,-0.038116000000000004,-0.227264,-0.005845,-0.000918,0.0016710000000000002,-49.560001,-16.370001000000002,-27.870001000000002,2b
2019-07-12_145351:380,-0.440796,-0.036591000000000005,-0.226746,-0.005815,-0.0010400000000000001,0.0019760000000000003,-49.18,-17.0,-29.059998999999998,2b
2019-07-12_145351:400,-0.441803,-0.039642000000000004,-0.226227,-0.005906000000000001,-0.001437,0.002495,-49.18,-17.0,-29.059998999999998,2b
2019-07-12_145351:420,-0.44027700000000003,-0.039124,-0.225739,-0.005967,-0.0016809999999999998,0.001854,-50.0,-16.68,-27.5,2b
2019-07-12_145351:440,-0.441284,-0.036072,-0.225739,-0.006089,-0.002078,0.002251,-50.0,-16.68,-27.5,2b
2019-07-12_145351:460,-0.43823199999999995,-0.041168,-0.226227,-0.005906000000000001,-0.0022,0.00277,-50.0,-16.68,-27.5,2b
2019-07-12_145351:480,-0.437225,-0.041687,-0.227753,-0.005845,-0.0025960000000000002,0.00103,-48.5,-17.0,-27.5,2b
2019-07-12_145351:500,-0.43823199999999995,-0.038116000000000004,-0.226746,-0.0056619999999999995,-0.003085,0.001274,-48.5,-17.0,-27.5,2b
2019-07-12_145351:520,-0.44027700000000003,-0.038116000000000004,-0.228271,-0.005052,-0.003085,0.003167,-50.0,-16.68,-27.5,2b
2019-07-12_145351:540,-0.44232200000000005,-0.038635,-0.22979699999999997,-0.005082,-0.0028710000000000003,0.002587,-50.0,-16.68,-27.5,2b
2019-07-12_145351:560,-0.443329,-0.037108999999999996,-0.22927899999999998,-0.00554,-0.0027489999999999997,0.00161,-50.0,-16.68,-27.5,2b
2019-07-12_145351:580,-0.441803,-0.037598,-0.23028600000000002,-0.005601,-0.002139,0.0021899999999999997,-50.0,-16.370001000000002,-27.059998999999998,2b
2019-07-12_145351:600,-0.441803,-0.038635,-0.22979699999999997,-0.00615,-0.002016,0.0017929999999999999,-50.0,-16.370001000000002,-27.059998999999998,2b
2019-07-12_145351:620,-0.441803,-0.038635,-0.230804,-0.006181,-0.002139,0.0017629999999999998,-50.25,-15.56,-29.059998999999998,2b
2019-07-12_145351:640,-0.439758,-0.038635,-0.230804,-0.005967,-0.001925,0.002129,-50.25,-15.56,-29.059998999999998,2b
2019-07-12_145351:660,-0.438751,-0.041168,-0.230804,-0.005784,-0.002016,0.0019760000000000003,-50.25,-15.56,-29.059998999999998,2b
2019-07-12_145351:680,-0.439758,-0.039642000000000004,-0.230804,-0.005448,-0.001955,0.0023120000000000003,-49.18,-16.0,-28.25,2b
2019-07-12_145351:700,-0.440796,-0.039642000000000004,-0.228271,-0.005265,-0.002016,0.002648,-49.18,-16.0,-28.25,2b
2019-07-12_145351:720,-0.441803,-0.038635,-0.22979699999999997,-0.0054789999999999995,-0.001864,0.002373,-49.18,-16.370001000000002,-27.870001000000002,2b
2019-07-12_145351:740,-0.44027700000000003,-0.038635,-0.22979699999999997,-0.0056619999999999995,-0.00162,0.002373,-49.18,-16.370001000000002,-27.870001000000002,2b
2019-07-12_145351:760,-0.439758,-0.038635,-0.22927899999999998,-0.005784,-0.0016809999999999998,0.002709,-49.18,-16.370001000000002,-27.870001000000002,2b
2019-07-12_145351:780,-0.43927,-0.039642000000000004,-0.231323,-0.006181,-0.0015890000000000001,0.002434,-48.5,-16.68,-27.5,2b
2019-07-12_145351:800,-0.437225,-0.040161,-0.22879000000000002,-0.00615,-0.0018030000000000001,0.002251,-48.5,-16.68,-27.5,2b
2019-07-12_145351:820,-0.440796,-0.042175,-0.231812,-0.005967,-0.002078,0.002251,-49.18,-16.370001000000002,-28.68,2b
2019-07-12_145351:840,-0.440796,-0.043213,-0.23028600000000002,-0.005815,-0.001925,0.0023120000000000003,-49.18,-16.370001000000002,-28.68,2b
2019-07-12_145351:860,-0.44638100000000003,-0.042175,-0.230804,-0.0054789999999999995,-0.001498,0.002098,-49.18,-16.370001000000002,-28.68,2b
2019-07-12_145351:880,-0.440796,-0.041168,-0.228271,-0.005326,-0.0011619999999999998,0.0023120000000000003,-49.18,-16.370001000000002,-28.68,2b
