timestamp,AccX,AccY,AccZ,GyroX,GyroY,GyroZ,MagX,MagY,MagZ,Activity
2019-07-12_114128:420,-0.25827,0.0,-0.41842700000000005,-0.004703,-0.007404000000000001,0.003114,-38.0,5.37,-26.75,3b
2019-07-12_114128:440,-0.258759,0.0,-0.41995200000000005,-0.004642,-0.0076170000000000005,0.0039689999999999994,-37.560001,5.0,-26.75,3b
2019-07-12_114128:460,-0.258759,-0.001007,-0.41995200000000005,-0.004703,-0.0076170000000000005,0.003572,-37.560001,5.0,-26.75,3b
2019-07-12_114128:480,-0.25827,-0.000488,-0.42147799999999996,-0.004703,-0.007801000000000001,0.00345,-37.560001,5.0,-26.75,3b
2019-07-12_114128:500,-0.259796,-0.0030210000000000002,-0.42248500000000005,-0.004459,-0.007739,0.0038159999999999995,-36.869999,4.56,-26.0,3b
2019-07-12_114128:520,-0.259796,-0.0025329999999999997,-0.423004,-0.004337,-0.007739,0.00345,-36.869999,4.56,-26.0,3b
2019-07-12_114128:540,-0.259277,-0.000488,-0.42401099999999997,-0.004123,-0.007281999999999999,0.0032359999999999997,-37.560001,4.56,-26.75,3b
2019-07-12_114128:560,-0.258759,-0.001495,-0.423492,-0.004184,-0.006885,0.003694,-37.560001,4.56,-26.75,3b
2019-07-12_114128:580,-0.257233,0.0,-0.42401099999999997,-0.0042450000000000005,-0.006731999999999999,0.0037549999999999997,-37.560001,4.56,-26.75,3b
2019-07-12_114128:600,-0.257751,-0.000488,-0.42401099999999997,-0.004520000000000001,-0.0066099999999999996,0.0037549999999999997,-38.369999,4.18,-26.0,3b
2019-07-12_114128:620,-0.256226,-0.000488,-0.425018,-0.004337,-0.006336,0.003908,-38.369999,4.18,-26.0,3b
2019-07-12_114128:640,-0.256744,0.0,-0.42401099999999997,-0.004520000000000001,-0.006,0.004182,-37.560001,5.0,-27.18,3b
2019-07-12_114128:660,-0.25827,-0.001495,-0.42248500000000005,-0.004581,-0.006,0.004213000000000001,-37.560001,5.0,-27.18,3b
2019-07-12_114128:680,-0.258759,-0.002014,-0.425018,-0.004398,-0.005695,0.004213000000000001,-37.560001,5.0,-27.18,3b
2019-07-12_114128:700,-0.257233,-0.0030210000000000002,-0.423004,-0.004520000000000001,-0.005451,0.004152,-37.25,5.0,-26.75,3b
2019-07-12_114128:720,-0.25827,-0.0030210000000000002,-0.423492,-0.004398,-0.005298,0.004091,-37.25,5.0,-26.75,3b
2019-07-12_114128:740,-0.258759,-0.002014,-0.42401099999999997,-0.004398,-0.005115,0.004152,-37.560001,4.18,-26.0,3b
2019-07-12_114128:760,-0.259277,-0.0030210000000000002,-0.421967,-0.004001,-0.005054,0.004213000000000001,-37.560001,4.18,-26.0,3b
2019-07-12_114128:780,-0.263336,-0.0025329999999999997,-0.42248500000000005,-0.00394,-0.004961999999999999,0.004335,-37.560001,4.18,-26.0,3b
2019-07-12_114128:800,-0.262848,-0.000488,-0.41943400000000003,-0.004123,-0.004596,0.004609,-38.0,5.37,-26.0,3b
2019-07-12_114128:820,-0.262848,-0.001007,-0.420959,-0.004703,-0.004596,0.004274,-38.0,5.37,-26.0,3b
2019-07-12_114128:840,-0.258759,-0.001495,-0.41995200000000005,-0.005375,-0.004779,0.004091,-37.560001,5.37,-26.25,3b
2019-07-12_114128:860,-0.258759,-0.0030210000000000002,-0.41943400000000003,-0.005497,-0.005054,0.0037549999999999997,-37.560001,5.37,-26.25,3b
2019-07-12_114128:880,-0.259277,-0.004059,-0.41995200000000005,-0.005161,-0.005451,0.0037549999999999997,-37.560001,5.37,-26.25,3b
2019-07-12_114128:900,-0.257233,-0.004547,-0.41943400000000003,-0.004581,-0.0055119999999999995,0.004518,-37.560001,5.0,-26.0,3b
2019-07-12_114128:920,-0.259277,-0.004547,-0.420441,-0.003879,-0.005451,0.004518,-37.560001,5.0,-26.0,3b
2019-07-12_114128:940,-0.258759,-0.001495,-0.420959,-0.004062,-0.0052369999999999995,0.004091,-38.0,5.0,-26.0,3b
2019-07-12_114128:960,-0.259277,0.000488,-0.420959,-0.004520000000000001,-0.005176,0.004274,-38.0,5.0,-26.0,3b
2019-07-12_114128:980,-0.259277,-0.001495,-0.423492,-0.0051,-0.005298,0.004793,-38.0,5.0,-26.0,3b
2019-07-12_114129:000,-0.260284,-0.0035399999999999997,-0.42453,-0.005619,-0.005176,0.004091,-38.0,4.18,-25.559998999999998,3b
2019-07-12_114129:020,-0.26181,-0.004547,-0.423492,-0.005741,-0.00484,0.0037549999999999997,-38.0,4.18,-25.559998999999998,3b
2019-07-12_114129:040,-0.2659,-0.005065999999999999,-0.423004,-0.005375,-0.004321,0.004213000000000001,-38.0,5.0,-26.25,3b
2019-07-12_114129:060,-0.261322,-0.0055850000000000006,-0.420441,-0.004886,-0.003589,0.004213000000000001,-38.0,5.0,-26.25,3b
2019-07-12_114129:080,-0.25827,-0.0035399999999999997,-0.420959,-0.004703,-0.003711,0.003297,-38.0,5.0,-26.25,3b
2019-07-12_114129:100,-0.256744,-0.001007,-0.41943400000000003,-0.004703,-0.0038640000000000002,0.0034189999999999997,-37.560001,4.56,-24.75,3b
2019-07-12_114129:120,-0.256226,-0.001007,-0.417908,-0.004459,-0.00426,0.004396,-37.560001,4.56,-24.75,3b
2019-07-12_114129:140,-0.25827,-0.0025329999999999997,-0.41995200000000005,-0.004612,-0.004657,0.003908,-37.560001,5.0,-26.0,3b
2019-07-12_114129:160,-0.256744,-0.001007,-0.41842700000000005,-0.005161,-0.00484,0.0029620000000000002,-37.560001,5.0,-26.0,3b
2019-07-12_114129:180,-0.260803,-0.000488,-0.41943400000000003,-0.0052829999999999995,-0.00484,0.003694,-37.560001,5.0,-26.0,3b
2019-07-12_114129:200,-0.260284,-0.001495,-0.420441,-0.005222,-0.004657,0.0038469999999999997,-38.369999,4.18,-25.559998999999998,3b
2019-07-12_114129:220,-0.262848,-0.0025329999999999997,-0.420959,-0.005436,-0.0045049999999999995,0.0032359999999999997,-38.369999,4.18,-25.559998999999998,3b
2019-07-12_114129:240,-0.264374,-0.001495,-0.421967,-0.004978,-0.004321,0.003358,-37.25,5.0,-25.559998999999998,3b
2019-07-12_114129:260,-0.265381,-0.0035399999999999997,-0.420959,-0.004703,-0.003833,0.00345,-37.25,5.0,-25.559998999999998,3b
2019-07-12_114129:280,-0.2659,-0.0025329999999999997,-0.41943400000000003,-0.004612,-0.0032530000000000002,0.003053,-37.25,5.0,-25.559998999999998,3b
2019-07-12_114129:300,-0.265381,0.0,-0.41842700000000005,-0.004612,-0.002979,0.0032359999999999997,-37.25,5.0,-25.559998999999998,3b
2019-07-12_114129:320,-0.263855,0.001007,-0.416901,-0.004642,-0.0031309999999999997,0.003633,-37.25,5.0,-25.559998999999998,3b
2019-07-12_114129:340,-0.265381,0.002014,-0.417908,-0.004947,-0.003192,0.0039689999999999994,-38.0,4.56,-26.370001000000002,3b
2019-07-12_114129:360,-0.267914,0.0,-0.417389,-0.005497,-0.0038640000000000002,0.004182,-38.0,4.56,-26.370001000000002,3b
2019-07-12_114129:380,-0.268433,0.0,-0.417908,-0.005832,-0.003589,0.004335,-38.0,4.56,-26.370001000000002,3b
2019-07-12_114129:400,-0.266907,0.0,-0.414337,-0.005954,-0.0035280000000000003,0.004335,-38.369999,4.18,-25.18,3b
2019-07-12_114129:420,-0.265381,-0.0030210000000000002,-0.41232299999999994,-0.0060149999999999995,-0.0035280000000000003,0.004548,-38.369999,4.18,-25.18,3b
2019-07-12_114129:440,-0.262848,-0.001495,-0.41333000000000003,-0.005771,-0.003986,0.004396,-38.369999,4.56,-27.18,3b
2019-07-12_114129:460,-0.261322,-0.0025329999999999997,-0.411804,-0.005619,-0.004444,0.004182,-38.369999,4.56,-27.18,3b
2019-07-12_114129:480,-0.262848,-0.001495,-0.41232299999999994,-0.005436,-0.00484,0.0038469999999999997,-38.369999,4.56,-27.18,3b
2019-07-12_114129:500,-0.262848,-0.0025329999999999997,-0.41586300000000004,-0.0051,-0.005634,0.004091,-38.75,5.0,-25.18,3b
2019-07-12_114129:520,-0.267914,-0.001007,-0.41586300000000004,-0.004825,-0.005878,0.003694,-38.75,5.0,-25.18,3b
2019-07-12_114129:540,-0.270477,0.000488,-0.417389,-0.004886,-0.005451,0.003572,-38.75,4.56,-26.75,3b
2019-07-12_114129:560,-0.270966,0.002014,-0.417389,-0.004886,-0.004961999999999999,0.003908,-38.75,4.56,-26.75,3b
2019-07-12_114129:580,-0.273529,0.002014,-0.41943400000000003,-0.005436,-0.0045049999999999995,0.0037549999999999997,-38.75,4.56,-26.75,3b
2019-07-12_114129:600,-0.268433,0.0025329999999999997,-0.417908,-0.005771,-0.003986,0.003633,-37.25,4.56,-25.559998999999998,3b
2019-07-12_114129:620,-0.267426,0.000488,-0.416901,-0.005741,-0.004108,0.0034189999999999997,-37.25,4.56,-25.559998999999998,3b
2019-07-12_114129:640,-0.268433,-0.000488,-0.415375,-0.005741,-0.00426,0.0039689999999999994,-38.369999,5.0,-25.18,3b
2019-07-12_114129:660,-0.267914,-0.001007,-0.411285,-0.004978,-0.00426,0.004609,-38.369999,5.0,-25.18,3b
2019-07-12_114129:680,-0.266388,-0.000488,-0.412811,-0.004703,-0.004321,0.004548,-38.369999,5.0,-25.18,3b
2019-07-12_114129:700,-0.264374,0.001007,-0.411285,-0.004703,-0.004566,0.004335,-37.25,5.0,-25.18,3b
2019-07-12_114129:720,-0.263855,0.0030210000000000002,-0.412811,-0.005039,-0.004993,0.004793,-37.25,5.0,-25.18,3b
2019-07-12_114129:740,-0.267914,0.000488,-0.416382,-0.005375,-0.005573,0.004945000000000001,-38.75,5.0,-26.0,3b
2019-07-12_114129:760,-0.268433,-0.0025329999999999997,-0.41333000000000003,-0.005497,-0.005695,0.004213000000000001,-38.75,5.0,-26.0,3b
2019-07-12_114129:780,-0.270966,-0.001495,-0.41586300000000004,-0.0052829999999999995,-0.005695,0.00403,-38.75,5.0,-26.0,3b
2019-07-12_114129:800,-0.275543,-0.001495,-0.416382,-0.004520000000000001,-0.005298,0.004518,-38.75,5.0,-24.75,3b
2019-07-12_114129:820,-0.270477,-0.002014,-0.41485600000000006,-0.004398,-0.004901,0.00403,-38.75,5.0,-24.75,3b
2019-07-12_114129:840,-0.270477,0.0,-0.416382,-0.004398,-0.004779,0.0029620000000000002,-38.369999,5.0,-25.18,3b
2019-07-12_114129:860,-0.267914,0.0025329999999999997,-0.41232299999999994,-0.004520000000000001,-0.004657,0.0038159999999999995,-38.369999,5.0,-25.18,3b
2019-07-12_114129:880,-0.268433,0.000488,-0.41586300000000004,-0.004459,-0.004718,0.004732,-38.369999,5.0,-25.18,3b
2019-07-12_114129:900,-0.268433,0.000488,-0.412811,-0.004764,-0.004961999999999999,0.0038159999999999995,-38.0,4.56,-25.18,3b
2019-07-12_114129:920,-0.268433,0.002014,-0.41333000000000003,-0.005222,-0.004901,0.003633,-38.0,4.56,-25.18,3b
2019-07-12_114129:940,-0.268433,0.0,-0.414337,-0.005344,-0.005054,0.004335,-37.560001,3.87,-25.18,3b
2019-07-12_114129:960,-0.268951,-0.001495,-0.41333000000000003,-0.0051,-0.005176,0.003908,-37.560001,3.87,-25.18,3b
2019-07-12_114129:980,-0.269958,-0.000488,-0.41485600000000006,-0.004978,-0.005573,0.003511,-37.560001,3.87,-25.18,3b
2019-07-12_114130:000,-0.270966,0.0,-0.41384899999999997,-0.004703,-0.00539,0.0039689999999999994,-38.75,4.18,-26.0,3b
2019-07-12_114130:020,-0.272003,0.0,-0.41485600000000006,-0.004398,-0.00539,0.0038469999999999997,-38.75,4.18,-26.0,3b
2019-07-12_114130:040,-0.270966,0.000488,-0.416382,-0.004275999999999999,-0.005451,0.003297,-38.0,4.56,-26.75,3b
2019-07-12_114130:060,-0.26944,0.001495,-0.41333000000000003,-0.004275999999999999,-0.005115,0.003511,-38.0,4.56,-26.75,3b
2019-07-12_114130:080,-0.270966,0.001007,-0.414337,-0.004337,-0.005115,0.003572,-38.0,4.56,-26.75,3b
2019-07-12_114130:100,-0.270477,0.001495,-0.414337,-0.004581,-0.005115,0.0032359999999999997,-38.369999,4.18,-26.25,3b
2019-07-12_114130:120,-0.26944,0.002014,-0.41333000000000003,-0.004642,-0.004961999999999999,0.003511,-38.369999,4.18,-26.25,3b
2019-07-12_114130:140,-0.268951,0.001007,-0.41333000000000003,-0.004825,-0.005115,0.0038469999999999997,-38.0,4.18,-26.25,3b
2019-07-12_114130:160,-0.271484,0.000488,-0.41232299999999994,-0.004703,-0.005176,0.003694,-38.0,4.18,-26.25,3b
2019-07-12_114130:180,-0.270477,0.001495,-0.41333000000000003,-0.004764,-0.005298,0.003572,-38.0,4.18,-26.25,3b
2019-07-12_114130:200,-0.270477,0.0025329999999999997,-0.41333000000000003,-0.004642,-0.005115,0.0038469999999999997,-38.369999,4.18,-26.0,3b
2019-07-12_114130:220,-0.270477,0.002014,-0.412811,-0.004642,-0.005451,0.0039689999999999994,-38.369999,4.18,-26.0,3b
2019-07-12_114130:240,-0.268433,0.001007,-0.41384899999999997,-0.004612,-0.00539,0.003908,-39.060001,4.18,-26.0,3b
2019-07-12_114130:260,-0.27301,0.0025329999999999997,-0.41232299999999994,-0.004581,-0.005634,0.003908,-39.060001,4.18,-26.0,3b
2019-07-12_114130:280,-0.272491,0.0030210000000000002,-0.41232299999999994,-0.004520000000000001,-0.005451,0.004182,-39.060001,4.18,-26.0,3b
2019-07-12_114130:300,-0.271484,0.0025329999999999997,-0.41384899999999997,-0.004612,-0.005451,0.004732,-38.369999,4.18,-26.0,3b
2019-07-12_114130:320,-0.270477,0.0035399999999999997,-0.415375,-0.004978,-0.0055119999999999995,0.004091,-38.369999,4.18,-26.0,3b
2019-07-12_114130:340,-0.268951,0.000488,-0.41485600000000006,-0.005344,-0.005573,0.0037549999999999997,-38.369999,4.18,-25.18,3b
2019-07-12_114130:360,-0.269958,0.000488,-0.41333000000000003,-0.005222,-0.005817,0.0037549999999999997,-38.369999,4.18,-25.18,3b
2019-07-12_114130:380,-0.273529,0.000488,-0.41485600000000006,-0.004947,-0.005756,0.004182,-38.369999,4.18,-25.18,3b
2019-07-12_114130:400,-0.272491,0.001007,-0.41333000000000003,-0.004398,-0.005176,0.004457,-37.560001,4.18,-26.0,3b
2019-07-12_114130:420,-0.271484,0.0030210000000000002,-0.412811,-0.004337,-0.004993,0.004274,-37.560001,4.18,-26.0,3b
2019-07-12_114130:440,-0.267914,0.0055850000000000006,-0.41384899999999997,-0.004886,-0.004901,0.004182,-37.560001,4.56,-27.18,3b
2019-07-12_114130:460,-0.265381,0.004059,-0.411804,-0.005344,-0.005176,0.004732,-37.560001,4.56,-27.18,3b
2019-07-12_114130:480,-0.266907,0.000488,-0.414337,-0.005954,-0.005939,0.005006,-37.560001,4.56,-27.18,3b
2019-07-12_114130:500,-0.268433,-0.001495,-0.41485600000000006,-0.006229,-0.006488,0.004671,-38.0,4.18,-26.0,3b
2019-07-12_114130:520,-0.268951,-0.0035399999999999997,-0.416901,-0.005771,-0.006397,0.004548,-38.0,4.18,-26.0,3b
2019-07-12_114130:540,-0.26944,-0.0035399999999999997,-0.41842700000000005,-0.0051,-0.006336,0.004671,-38.369999,4.56,-25.559998999999998,3b
2019-07-12_114130:560,-0.268433,-0.0035399999999999997,-0.41586300000000004,-0.004184,-0.005817,0.003633,-38.369999,4.56,-25.559998999999998,3b
2019-07-12_114130:580,-0.268951,0.0,-0.417389,-0.00394,-0.005451,0.002382,-38.369999,4.56,-25.559998999999998,3b
2019-07-12_114130:600,-0.267426,0.0025329999999999997,-0.41842700000000005,-0.003879,-0.005176,0.0029620000000000002,-38.369999,4.18,-26.0,3b
2019-07-12_114130:620,-0.268433,0.0025329999999999997,-0.418915,-0.004001,-0.005054,0.0038159999999999995,-38.369999,4.18,-26.0,3b
2019-07-12_114130:640,-0.270966,0.005065999999999999,-0.418915,-0.004520000000000001,-0.004779,0.002778,-38.75,4.56,-25.18,3b
2019-07-12_114130:660,-0.275543,0.007599,-0.41485600000000006,-0.0052829999999999995,-0.004169,0.002107,-38.75,4.56,-25.18,3b
2019-07-12_114130:680,-0.274017,0.009644,-0.414337,-0.005832,-0.0035280000000000003,0.003297,-38.75,4.56,-25.18,3b
2019-07-12_114130:700,-0.26944,0.007111,-0.411804,-0.0064730000000000005,-0.0032530000000000002,0.004609,-38.75,4.18,-24.75,3b
2019-07-12_114130:720,-0.264862,0.0035399999999999997,-0.410797,-0.007267,-0.003589,0.00525,-38.75,4.18,-24.75,3b
2019-07-12_114130:740,-0.264374,0.000488,-0.411285,-0.007145,-0.0045049999999999995,0.005403,-38.369999,4.56,-25.559998999999998,3b
2019-07-12_114130:760,-0.266388,-0.0030210000000000002,-0.410797,-0.006168,-0.005054,0.005342,-38.369999,4.56,-25.559998999999998,3b
2019-07-12_114130:780,-0.26944,-0.0035399999999999997,-0.411804,-0.005039,-0.005451,0.004854,-38.369999,4.56,-25.559998999999998,3b
2019-07-12_114130:800,-0.269958,0.000488,-0.410797,-0.004062,-0.005573,0.004945000000000001,-38.0,3.87,-26.0,3b
2019-07-12_114130:820,-0.268951,0.0025329999999999997,-0.412811,-0.0037270000000000003,-0.005573,0.004915,-38.0,3.87,-26.0,3b
2019-07-12_114130:840,-0.268433,0.005065999999999999,-0.41485600000000006,-0.004062,-0.005756,0.004518,-39.060001,4.18,-25.559998999999998,3b
2019-07-12_114130:860,-0.268433,0.004059,-0.41333000000000003,-0.004764,-0.0060609999999999995,0.004335,-39.060001,4.18,-25.559998999999998,3b
2019-07-12_114130:880,-0.269958,0.0025329999999999997,-0.417389,-0.0051,-0.006214,0.004091,-39.060001,4.18,-25.559998999999998,3b
2019-07-12_114130:900,-0.271484,0.000488,-0.417908,-0.005222,-0.005817,0.003694,-38.369999,4.56,-26.0,3b
2019-07-12_114130:920,-0.270966,0.000488,-0.417908,-0.004886,-0.00539,0.0038159999999999995,-38.369999,4.56,-26.0,3b
2019-07-12_114130:940,-0.27301,0.000488,-0.41995200000000005,-0.004337,-0.0052369999999999995,0.0038159999999999995,-38.369999,4.56,-25.559998999999998,3b
2019-07-12_114130:960,-0.272003,0.0035399999999999997,-0.41485600000000006,-0.0037270000000000003,-0.00484,0.004091,-38.369999,4.56,-25.559998999999998,3b
2019-07-12_114130:980,-0.270966,0.004059,-0.41333000000000003,-0.003788,-0.004383,0.004213000000000001,-38.369999,4.56,-25.559998999999998,3b
2019-07-12_114131:000,-0.272003,0.006592,-0.41485600000000006,-0.004062,-0.00426,0.00403,-39.5,3.87,-25.18,3b
2019-07-12_114131:020,-0.269958,0.0055850000000000006,-0.41232299999999994,-0.004642,-0.00426,0.0038159999999999995,-39.5,3.87,-25.18,3b
2019-07-12_114131:040,-0.268951,0.0035399999999999997,-0.41384899999999997,-0.005161,-0.004169,0.00345,-37.25,3.87,-25.559998999999998,3b
2019-07-12_114131:060,-0.272491,0.0030210000000000002,-0.412811,-0.005344,-0.0045049999999999995,0.00345,-37.25,3.87,-25.559998999999998,3b
2019-07-12_114131:080,-0.268951,0.000488,-0.410797,-0.004825,-0.004566,0.004396,-37.25,3.87,-25.559998999999998,3b
2019-07-12_114131:100,-0.270477,0.0030210000000000002,-0.412811,-0.00394,-0.004779,0.005189,-38.369999,4.18,-25.559998999999998,3b
2019-07-12_114131:120,-0.270477,0.004059,-0.411804,-0.0036659999999999996,-0.004961999999999999,0.004609,-38.369999,4.18,-25.559998999999998,3b
2019-07-12_114131:140,-0.271484,0.0055850000000000006,-0.411804,-0.00394,-0.004993,0.005006,-38.369999,4.18,-25.559998999999998,3b
2019-07-12_114131:160,-0.270477,0.0055850000000000006,-0.412811,-0.004581,-0.005115,0.0058,-38.369999,4.18,-25.559998999999998,3b
2019-07-12_114131:180,-0.269958,0.0035399999999999997,-0.412811,-0.005375,-0.0052369999999999995,0.005586,-38.369999,4.18,-25.559998999999998,3b
2019-07-12_114131:200,-0.272491,0.001007,-0.41232299999999994,-0.005771,-0.005298,0.005342,-38.75,4.18,-25.559998999999998,3b
2019-07-12_114131:220,-0.277069,-0.001007,-0.411804,-0.005375,-0.0052369999999999995,0.005525,-38.75,4.18,-25.559998999999998,3b
2019-07-12_114131:240,-0.273529,-0.002014,-0.412811,-0.0051,-0.004779,0.005647,-39.060001,3.87,-25.18,3b
2019-07-12_114131:260,-0.274536,-0.001007,-0.411285,-0.004612,-0.0045049999999999995,0.00525,-39.060001,3.87,-25.18,3b
2019-07-12_114131:280,-0.273529,0.0,-0.41485600000000006,-0.004398,-0.004444,0.004945000000000001,-39.060001,3.87,-25.18,3b
2019-07-12_114131:300,-0.278107,0.001007,-0.41333000000000003,-0.00394,-0.004596,0.005067,-39.060001,3.87,-24.75,3b
2019-07-12_114131:320,-0.28064,0.002014,-0.411285,-0.0042450000000000005,-0.004566,0.004609,-39.060001,3.87,-24.75,3b
2019-07-12_114131:340,-0.279633,0.005065999999999999,-0.409271,-0.004825,-0.004229999999999999,0.004274,-38.369999,4.18,-24.370001000000002,3b
2019-07-12_114131:360,-0.274017,0.0030210000000000002,-0.40823400000000004,-0.005497,-0.004169,0.004518,-38.369999,4.18,-24.370001000000002,3b
2019-07-12_114131:380,-0.266907,0.000488,-0.40570100000000003,-0.006076,-0.0045049999999999995,0.004854,-38.369999,4.18,-24.370001000000002,3b
2019-07-12_114131:400,-0.267426,-0.002014,-0.405212,-0.006076,-0.005695,0.004518,-39.5,4.56,-25.18,3b
2019-07-12_114131:420,-0.26944,-0.004059,-0.40570100000000003,-0.005344,-0.006793,0.004182,-39.5,4.56,-25.18,3b
2019-07-12_114131:440,-0.270966,-0.001007,-0.408752,-0.004275999999999999,-0.007343000000000001,0.0038159999999999995,-39.869999,4.18,-26.25,3b
2019-07-12_114131:460,-0.271484,0.000488,-0.409271,-0.0036659999999999996,-0.007678,0.003694,-39.869999,4.18,-26.25,3b
2019-07-12_114131:480,-0.273529,0.006072999999999999,-0.41384899999999997,-0.0036049999999999997,-0.007923000000000001,0.003511,-39.869999,4.18,-26.25,3b
2019-07-12_114131:500,-0.274536,0.006072999999999999,-0.41485600000000006,-0.004062,-0.007739,0.003358,-38.75,4.18,-25.18,3b
2019-07-12_114131:520,-0.274536,0.006592,-0.416382,-0.004612,-0.007465,0.003572,-38.75,4.18,-25.18,3b
2019-07-12_114131:540,-0.272491,0.006072999999999999,-0.41586300000000004,-0.004947,-0.006854000000000001,0.0037549999999999997,-38.0,4.18,-25.559998999999998,3b
2019-07-12_114131:560,-0.270966,0.006072999999999999,-0.415375,-0.0051,-0.006548999999999999,0.004335,-38.0,4.18,-25.559998999999998,3b
2019-07-12_114131:580,-0.26944,0.0055850000000000006,-0.416382,-0.005344,-0.0060609999999999995,0.004945000000000001,-38.0,4.18,-25.559998999999998,3b
2019-07-12_114131:600,-0.267914,0.004059,-0.415375,-0.004978,-0.005725,0.005586,-38.0,4.18,-24.370001000000002,3b
2019-07-12_114131:620,-0.275055,0.0030210000000000002,-0.415375,-0.004764,-0.005573,0.006379,-38.0,4.18,-24.370001000000002,3b
2019-07-12_114131:640,-0.272491,0.004547,-0.414337,-0.004703,-0.005054,0.007112,-38.75,4.18,-24.370001000000002,3b
2019-07-12_114131:660,-0.268951,0.002014,-0.41333000000000003,-0.004764,-0.004321,0.007844,-38.75,4.18,-24.370001000000002,3b
2019-07-12_114131:680,-0.274017,0.000488,-0.41485600000000006,-0.005436,-0.004229999999999999,0.007783,-38.75,4.18,-24.370001000000002,3b
2019-07-12_114131:700,-0.270477,-0.0035399999999999997,-0.411804,-0.005893,-0.0037719999999999997,0.0076,-38.0,4.56,-26.0,3b
2019-07-12_114131:720,-0.274017,-0.0055850000000000006,-0.41485600000000006,-0.006076,-0.003986,0.007265000000000001,-38.0,4.56,-26.0,3b
2019-07-12_114131:740,-0.277588,-0.007111,-0.416382,-0.005832,-0.00426,0.006868000000000001,-38.75,5.0,-26.0,3b
2019-07-12_114131:760,-0.282166,-0.006592,-0.414337,-0.004886,-0.004169,0.007509,-38.75,5.0,-26.0,3b
2019-07-12_114131:780,-0.282654,-0.004059,-0.41384899999999997,-0.004459,-0.004047,0.00757,-38.75,5.0,-26.0,3b
2019-07-12_114131:800,-0.280121,-0.0030210000000000002,-0.411285,-0.004581,-0.0035280000000000003,0.006318,-38.369999,5.0,-25.18,3b
2019-07-12_114131:820,-0.273529,0.000488,-0.406738,-0.0052829999999999995,-0.0035280000000000003,0.005586,-38.369999,5.0,-25.18,3b
2019-07-12_114131:840,-0.268433,-0.000488,-0.40368699999999996,-0.006076,-0.004169,0.005464,-38.0,5.0,-24.370001000000002,3b
2019-07-12_114131:860,-0.267426,-0.0035399999999999997,-0.401123,-0.006809,-0.005573,0.004945000000000001,-38.0,5.0,-24.370001000000002,3b
2019-07-12_114131:880,-0.26181,-0.0030210000000000002,-0.402161,-0.006687,-0.006214,0.004548,-38.0,5.0,-24.370001000000002,3b
2019-07-12_114131:900,-0.263855,-0.0030210000000000002,-0.404694,-0.005954,-0.007739,0.004854,-37.560001,5.0,-25.559998999999998,3b
2019-07-12_114131:920,-0.263336,-0.004059,-0.406219,-0.0051,-0.00838,0.004945000000000001,-37.560001,5.0,-25.559998999999998,3b
2019-07-12_114131:940,-0.262329,0.000488,-0.410278,-0.004275999999999999,-0.009204,0.00403,-38.369999,5.0,-24.75,3b
2019-07-12_114131:960,-0.264374,0.0035399999999999997,-0.41333000000000003,-0.004062,-0.009662,0.004457,-38.369999,5.0,-24.75,3b
2019-07-12_114131:980,-0.270966,0.0055850000000000006,-0.420441,-0.004337,-0.009448,0.006532,-38.369999,5.0,-24.75,3b
2019-07-12_114132:000,-0.274017,0.0055850000000000006,-0.423004,-0.004642,-0.008808,0.006776000000000001,-38.0,4.56,-25.559998999999998,3b
2019-07-12_114132:020,-0.280121,0.0055850000000000006,-0.426544,-0.0065650000000000005,-0.006854000000000001,0.006868000000000001,-38.0,4.56,-25.559998999999998,3b
2019-07-12_114132:040,-0.282166,0.0035399999999999997,-0.42605600000000005,-0.007358,-0.004779,0.007905,-37.560001,5.06,-24.75,3b
2019-07-12_114132:060,-0.280121,-0.001495,-0.420959,-0.007937999999999999,-0.002704,0.008454999999999999,-37.560001,5.06,-24.75,3b
2019-07-12_114132:080,-0.275543,-0.004059,-0.42147799999999996,-0.007937999999999999,-0.001178,0.008577,-37.560001,5.06,-24.75,3b
2019-07-12_114132:100,-0.274536,-0.006592,-0.417389,-0.007358,-0.000537,0.009248000000000001,-37.560001,5.5,-25.18,3b
2019-07-12_114132:120,-0.275543,-0.008636,-0.41384899999999997,-0.006809,-0.000202,0.009248000000000001,-37.560001,5.5,-25.18,3b
2019-07-12_114132:140,-0.275543,-0.010651,-0.409271,-0.006168,-0.000537,0.008699,-39.060001,5.5,-25.18,3b
2019-07-12_114132:160,-0.274536,-0.010651,-0.40774499999999997,-0.0060149999999999995,-0.0012699999999999999,0.008394,-39.060001,5.5,-25.18,3b
2019-07-12_114132:180,-0.277588,-0.010651,-0.406219,-0.005741,-0.0023989999999999997,0.007905,-39.060001,5.5,-25.18,3b
2019-07-12_114132:200,-0.277069,-0.011687999999999999,-0.405212,-0.005741,-0.003467,0.006654,-38.0,5.0,-25.18,3b
2019-07-12_114132:220,-0.274017,-0.011687999999999999,-0.402161,-0.005771,-0.004321,0.005067,-38.0,5.0,-25.18,3b
2019-07-12_114132:240,-0.270966,-0.011687999999999999,-0.402649,-0.005436,-0.005054,0.0038469999999999997,-38.0,5.0,-26.25,3b
2019-07-12_114132:260,-0.267426,-0.011169,-0.40011599999999997,-0.004886,-0.006214,0.0029,-38.0,5.0,-26.25,3b
2019-07-12_114132:280,-0.265381,-0.009644,-0.40368699999999996,-0.004123,-0.007526000000000001,0.001375,-38.0,5.0,-26.25,3b
2019-07-12_114132:300,-0.26944,-0.004059,-0.402649,-0.0037270000000000003,-0.008014,0.000642,-39.060001,5.37,-25.18,3b
2019-07-12_114132:320,-0.272003,-0.001007,-0.405212,-0.003483,-0.008258,0.000123,-39.060001,5.37,-25.18,3b
2019-07-12_114132:340,-0.277069,0.0055850000000000006,-0.40976,-0.00394,-0.008258,-9e-05,-38.369999,5.37,-26.75,3b
2019-07-12_114132:360,-0.272003,0.008118,-0.408752,-0.004764,-0.007923000000000001,0.0007639999999999999,-38.369999,5.37,-26.75,3b
2019-07-12_114132:380,-0.268433,0.008118,-0.416382,-0.005558,-0.007801000000000001,0.001924,-38.369999,5.37,-26.75,3b
2019-07-12_114132:400,-0.268433,0.006072999999999999,-0.41943400000000003,-0.006168,-0.007801000000000001,0.0029,-37.560001,5.0,-24.0,3b
2019-07-12_114132:420,-0.274017,0.004547,-0.42147799999999996,-0.0061070000000000004,-0.007526000000000001,0.004793,-37.560001,5.0,-24.0,3b
2019-07-12_114132:440,-0.278107,0.0035399999999999997,-0.42147799999999996,-0.005558,-0.006214,0.005922,-38.0,5.37,-24.370001000000002,3b
2019-07-12_114132:460,-0.282654,0.004059,-0.420959,-0.005558,-0.004444,0.006135,-38.0,5.37,-24.370001000000002,3b
2019-07-12_114132:480,-0.282166,0.005065999999999999,-0.42147799999999996,-0.0060149999999999995,-0.002582,0.006868000000000001,-38.0,5.37,-24.370001000000002,3b
2019-07-12_114132:500,-0.280121,0.005065999999999999,-0.41943400000000003,-0.00687,-0.001209,0.00818,-38.75,5.37,-26.0,3b
2019-07-12_114132:520,-0.281647,0.001495,-0.416901,-0.007999,-0.000324,0.008119,-38.75,5.37,-26.0,3b
2019-07-12_114132:540,-0.279633,-0.002014,-0.411804,-0.008487,-4.9e-05,0.007722,-38.369999,4.56,-24.75,3b
2019-07-12_114132:560,-0.283173,-0.006592,-0.411285,-0.008548,-4.9e-05,0.008058,-38.369999,4.56,-24.75,3b
2019-07-12_114132:580,-0.281647,-0.011169,-0.406738,-0.007816,-0.00038500000000000003,0.007051000000000001,-38.369999,4.56,-24.75,3b
2019-07-12_114132:600,-0.280121,-0.011687999999999999,-0.40570100000000003,-0.006962,-0.0009339999999999999,0.005128,-38.75,5.0,-24.0,3b
2019-07-12_114132:620,-0.276581,-0.009125,-0.399597,-0.005679999999999999,-0.001666,0.004793,-38.75,5.0,-24.0,3b
2019-07-12_114132:640,-0.275543,-0.007111,-0.39859,-0.004459,-0.002582,0.004213000000000001,-39.060001,6.37,-24.75,3b
2019-07-12_114132:660,-0.271484,-0.001495,-0.397583,-0.004337,-0.003833,0.0027170000000000002,-39.060001,6.37,-24.75,3b
2019-07-12_114132:680,-0.271484,0.001495,-0.397583,-0.004612,-0.005054,0.001893,-39.060001,6.37,-24.75,3b
2019-07-12_114132:700,-0.268433,0.004059,-0.401642,-0.005222,-0.006336,0.0017100000000000001,-38.369999,5.0,-24.0,3b
2019-07-12_114132:720,-0.272003,0.005065999999999999,-0.40011599999999997,-0.005497,-0.007343000000000001,0.001192,-38.369999,5.0,-24.0,3b
2019-07-12_114132:740,-0.274017,0.006072999999999999,-0.405212,-0.005558,-0.007739,0.001436,-39.060001,4.56,-24.370001000000002,3b
2019-07-12_114132:760,-0.276062,0.006072999999999999,-0.40823400000000004,-0.005161,-0.007984,0.0026260000000000003,-39.060001,4.56,-24.370001000000002,3b
2019-07-12_114132:780,-0.281647,0.007111,-0.41232299999999994,-0.004703,-0.007587000000000001,0.00345,-39.060001,4.56,-24.370001000000002,3b
2019-07-12_114132:800,-0.283173,0.006592,-0.41384899999999997,-0.004520000000000001,-0.007006999999999999,0.004518,-38.369999,5.0,-24.75,3b
2019-07-12_114132:820,-0.285217,0.010162000000000001,-0.415375,-0.004764,-0.0061530000000000005,0.006196,-38.369999,5.0,-24.75,3b
2019-07-12_114132:840,-0.284698,0.009644,-0.415375,-0.005161,-0.005054,0.007509,-38.75,5.0,-23.559998999999998,3b
2019-07-12_114132:860,-0.285706,0.006592,-0.41232299999999994,-0.006076,-0.004047,0.008119,-38.75,5.0,-23.559998999999998,3b
2019-07-12_114132:880,-0.284698,0.0035399999999999997,-0.410797,-0.0065650000000000005,-0.003192,0.007965999999999999,-38.75,5.0,-23.559998999999998,3b
2019-07-12_114132:900,-0.28418000000000004,0.001007,-0.410278,-0.006809,-0.002643,0.007965999999999999,-38.75,5.68,-24.0,3b
2019-07-12_114132:920,-0.277588,-0.005065999999999999,-0.405212,-0.006504,-0.002582,0.007997,-38.75,5.68,-24.0,3b
2019-07-12_114132:940,-0.28064,-0.005065999999999999,-0.404175,-0.005679999999999999,-0.0032530000000000002,0.0076,-39.060001,4.56,-25.18,3b
2019-07-12_114132:960,-0.277588,-0.0055850000000000006,-0.40011599999999997,-0.004947,-0.00365,0.007203,-39.060001,4.56,-25.18,3b
2019-07-12_114132:980,-0.278107,-0.0055850000000000006,-0.402161,-0.004275999999999999,-0.004229999999999999,0.006074,-39.060001,4.56,-25.18,3b
2019-07-12_114133:000,-0.279633,-0.002014,-0.401642,-0.0037270000000000003,-0.004657,0.004518,-38.75,4.56,-24.370001000000002,3b
2019-07-12_114133:020,-0.275543,-0.001495,-0.402649,-0.0036049999999999997,-0.0052369999999999995,0.003694,-38.75,4.56,-24.370001000000002,3b
2019-07-12_114133:040,-0.279114,0.0,-0.405212,-0.003452,-0.0060609999999999995,0.00345,-39.060001,5.37,-24.370001000000002,3b
2019-07-12_114133:060,-0.28112800000000004,0.0,-0.40368699999999996,-0.003452,-0.006336,0.003694,-39.060001,5.37,-24.370001000000002,3b
2019-07-12_114133:080,-0.282166,0.001007,-0.40570100000000003,-0.003452,-0.006336,0.0038159999999999995,-39.060001,5.37,-24.370001000000002,3b
2019-07-12_114133:100,-0.284698,0.0035399999999999997,-0.407227,-0.003544,-0.0060609999999999995,0.0038159999999999995,-38.75,5.37,-25.559998999999998,3b
2019-07-12_114133:120,-0.279114,0.004547,-0.405212,-0.004184,-0.005695,0.004091,-38.75,5.37,-25.559998999999998,3b
2019-07-12_114133:140,-0.278107,0.0030210000000000002,-0.40823400000000004,-0.004825,-0.006336,0.004396,-38.75,5.37,-24.75,3b
2019-07-12_114133:160,-0.280121,0.000488,-0.40570100000000003,-0.005161,-0.006731999999999999,0.004732,-38.75,5.37,-24.75,3b
2019-07-12_114133:180,-0.28369099999999997,-0.001007,-0.408752,-0.0051,-0.0066099999999999996,0.004854,-38.75,5.37,-24.75,3b
2019-07-12_114133:200,-0.285706,-0.000488,-0.40774499999999997,-0.004581,-0.006336,0.005739,-38.75,5.68,-24.370001000000002,3b
2019-07-12_114133:220,-0.282166,-0.001007,-0.408752,-0.004398,-0.005817,0.005922,-38.75,5.68,-24.370001000000002,3b
2019-07-12_114133:240,-0.280121,-0.0030210000000000002,-0.408752,-0.004337,-0.005451,0.004671,-38.75,5.37,-24.75,3b
2019-07-12_114133:260,-0.280121,-0.000488,-0.409271,-0.004275999999999999,-0.005298,0.004518,-38.75,5.37,-24.75,3b
2019-07-12_114133:280,-0.279633,0.0,-0.40976,-0.0042450000000000005,-0.005298,0.005647,-38.75,5.37,-24.75,3b
2019-07-12_114133:300,-0.279633,-0.001495,-0.409271,-0.004337,-0.005054,0.005647,-39.869999,5.37,-24.75,3b
2019-07-12_114133:320,-0.278107,-0.001495,-0.40774499999999997,-0.004703,-0.00484,0.004609,-39.869999,5.37,-24.75,3b
2019-07-12_114133:340,-0.275055,-0.0030210000000000002,-0.408752,-0.005039,-0.004901,0.004518,-38.75,5.37,-24.370001000000002,3b
2019-07-12_114133:360,-0.276581,-0.0030210000000000002,-0.407227,-0.004825,-0.004993,0.004396,-38.75,5.37,-24.370001000000002,3b
2019-07-12_114133:380,-0.279114,-0.004059,-0.408752,-0.004764,-0.004993,0.003572,-38.75,5.37,-24.370001000000002,3b
2019-07-12_114133:400,-0.279633,-0.0055850000000000006,-0.40823400000000004,-0.004398,-0.004779,0.003694,-37.560001,6.06,-25.18,3b
2019-07-12_114133:420,-0.280121,-0.0030210000000000002,-0.409271,-0.003788,-0.004901,0.0037549999999999997,-37.560001,6.06,-25.18,3b
2019-07-12_114133:440,-0.279114,-0.004059,-0.40774499999999997,-0.0036659999999999996,-0.004657,0.003572,-38.75,5.68,-25.18,3b
2019-07-12_114133:460,-0.282654,0.0,-0.40823400000000004,-0.0033909999999999995,-0.004718,0.003633,-38.75,5.68,-25.18,3b
2019-07-12_114133:480,-0.282166,0.0,-0.407227,-0.0036049999999999997,-0.004321,0.00403,-38.75,5.68,-25.18,3b
2019-07-12_114133:500,-0.283173,0.000488,-0.40976,-0.004337,-0.004047,0.004182,-39.060001,5.68,-25.559998999999998,3b
2019-07-12_114133:520,-0.280121,0.000488,-0.40570100000000003,-0.004642,-0.0037719999999999997,0.004213000000000001,-39.060001,5.68,-25.559998999999998,3b
2019-07-12_114133:540,-0.279633,-0.000488,-0.406219,-0.004978,-0.003833,0.004548,-38.75,5.68,-24.370001000000002,3b
2019-07-12_114133:560,-0.276062,-0.0025329999999999997,-0.404694,-0.005161,-0.004444,0.004732,-38.75,5.68,-24.370001000000002,3b
2019-07-12_114133:580,-0.283173,-0.005065999999999999,-0.406738,-0.004886,-0.004901,0.004396,-38.75,5.68,-24.370001000000002,3b
2019-07-12_114133:600,-0.281647,-0.004547,-0.406219,-0.004398,-0.004657,0.004915,-38.75,5.37,-24.370001000000002,3b
2019-07-12_114133:620,-0.284698,-0.0035399999999999997,-0.405212,-0.004062,-0.0045049999999999995,0.004945000000000001,-38.75,5.37,-24.370001000000002,3b
2019-07-12_114133:640,-0.28674299999999997,-0.0025329999999999997,-0.406738,-0.004642,-0.00426,0.004274,-38.75,4.56,-24.370001000000002,3b
2019-07-12_114133:660,-0.280121,-0.004547,-0.404175,-0.004642,-0.004321,0.0038159999999999995,-38.75,4.56,-24.370001000000002,3b
2019-07-12_114133:680,-0.28064,-0.005065999999999999,-0.40570100000000003,-0.004947,-0.004718,0.003694,-38.75,4.56,-24.370001000000002,3b
2019-07-12_114133:700,-0.281647,-0.006072999999999999,-0.40774499999999997,-0.004459,-0.005054,0.004091,-39.5,5.37,-24.75,3b
2019-07-12_114133:720,-0.282654,-0.0055850000000000006,-0.404694,-0.004123,-0.005054,0.004182,-39.5,5.37,-24.75,3b
2019-07-12_114133:740,-0.28418000000000004,-0.005065999999999999,-0.406219,-0.004184,-0.004657,0.0037549999999999997,-39.060001,5.0,-24.75,3b
2019-07-12_114133:760,-0.282166,-0.002014,-0.404694,-0.004337,-0.004383,0.00345,-39.060001,5.0,-24.75,3b
2019-07-12_114133:780,-0.281647,-0.000488,-0.404694,-0.004886,-0.004657,0.003908,-39.060001,5.0,-24.75,3b
2019-07-12_114133:800,-0.28112800000000004,-0.0030210000000000002,-0.40570100000000003,-0.005344,-0.004993,0.003572,-38.75,4.56,-24.370001000000002,3b
2019-07-12_114133:820,-0.283173,-0.004059,-0.404175,-0.005679999999999999,-0.004993,0.003358,-38.75,4.56,-24.370001000000002,3b
2019-07-12_114133:840,-0.282166,-0.0035399999999999997,-0.406738,-0.005619,-0.0052369999999999995,0.003694,-38.0,5.68,-25.18,3b
2019-07-12_114133:860,-0.286224,-0.004547,-0.406738,-0.0052829999999999995,-0.004657,0.0038469999999999997,-38.0,5.68,-25.18,3b
2019-07-12_114133:880,-0.284698,-0.006072999999999999,-0.406219,-0.005039,-0.0045049999999999995,0.002839,-38.0,5.68,-25.18,3b
2019-07-12_114133:900,-0.28369099999999997,-0.005065999999999999,-0.407227,-0.004886,-0.004596,0.002321,-39.5,4.56,-24.75,3b
2019-07-12_114133:920,-0.282654,-0.0030210000000000002,-0.40368699999999996,-0.004459,-0.004321,0.003511,-39.5,4.56,-24.75,3b
2019-07-12_114133:940,-0.282166,-0.0035399999999999997,-0.404175,-0.004275999999999999,-0.00426,0.0037549999999999997,-39.5,5.68,-24.0,3b
2019-07-12_114133:960,-0.282654,-0.000488,-0.40316799999999997,-0.004947,-0.004383,0.0026260000000000003,-39.5,5.68,-24.0,3b
2019-07-12_114133:980,-0.282166,0.000488,-0.40316799999999997,-0.004978,-0.004444,0.003023,-39.5,5.68,-24.0,3b
2019-07-12_114134:000,-0.283173,-0.001007,-0.404694,-0.005344,-0.004779,0.003511,-38.369999,5.37,-24.75,3b
2019-07-12_114134:020,-0.283173,-0.001495,-0.40316799999999997,-0.005679999999999999,-0.00484,0.0032359999999999997,-38.369999,5.37,-24.75,3b
2019-07-12_114134:040,-0.283173,-0.004059,-0.406219,-0.005558,-0.004961999999999999,0.003053,-38.75,6.06,-23.559998999999998,3b
2019-07-12_114134:060,-0.28369099999999997,-0.005065999999999999,-0.406738,-0.005161,-0.004596,0.003053,-38.75,6.06,-23.559998999999998,3b
2019-07-12_114134:080,-0.285706,-0.0035399999999999997,-0.405212,-0.004947,-0.004657,0.002443,-38.75,6.06,-23.559998999999998,3b
2019-07-12_114134:100,-0.287231,-0.001007,-0.404694,-0.005039,-0.0045049999999999995,0.00229,-38.369999,4.56,-23.559998999999998,3b
2019-07-12_114134:120,-0.286224,-0.001007,-0.40368699999999996,-0.004947,-0.004444,0.00229,-38.369999,4.56,-23.559998999999998,3b
2019-07-12_114134:140,-0.285217,0.000488,-0.404175,-0.005161,-0.004169,0.002168,-38.75,5.68,-23.18,3b
2019-07-12_114134:160,-0.28369099999999997,-0.001007,-0.402161,-0.005558,-0.003925,0.0017100000000000001,-38.75,5.68,-23.18,3b
2019-07-12_114134:180,-0.286224,-0.000488,-0.40316799999999997,-0.005497,-0.0037719999999999997,0.001436,-38.75,5.68,-23.18,3b
2019-07-12_114134:200,-0.28369099999999997,-0.002014,-0.404175,-0.005222,-0.004169,0.001314,-38.369999,5.37,-23.18,3b
2019-07-12_114134:220,-0.28927600000000003,0.0,-0.401123,-0.004642,-0.004047,0.001314,-38.369999,5.37,-23.18,3b
2019-07-12_114134:240,-0.285217,0.0025329999999999997,-0.39859,-0.004459,-0.004229999999999999,0.001497,-39.5,5.37,-24.370001000000002,3b
2019-07-12_114134:260,-0.28674299999999997,0.0030210000000000002,-0.40063499999999996,-0.004123,-0.0045049999999999995,0.001832,-39.5,5.37,-24.370001000000002,3b
2019-07-12_114134:280,-0.286224,0.005065999999999999,-0.40011599999999997,-0.004520000000000001,-0.004779,0.001527,-39.5,5.37,-24.370001000000002,3b
2019-07-12_114134:300,-0.285706,0.005065999999999999,-0.399597,-0.004703,-0.005054,0.001253,-39.5,5.37,-23.559998999999998,3b
2019-07-12_114134:320,-0.28875700000000004,0.004547,-0.40063499999999996,-0.004978,-0.005176,0.000642,-39.5,5.37,-23.559998999999998,3b
2019-07-12_114134:340,-0.288269,0.005065999999999999,-0.401123,-0.004886,-0.0052369999999999995,0.000917,-39.060001,4.56,-24.370001000000002,3b
2019-07-12_114134:360,-0.28674299999999997,0.0035399999999999997,-0.40011599999999997,-0.004337,-0.005115,0.002778,-39.060001,4.56,-24.370001000000002,3b
2019-07-12_114134:380,-0.287231,0.0035399999999999997,-0.40011599999999997,-0.004001,-0.005451,0.002443,-39.060001,4.56,-24.370001000000002,3b
2019-07-12_114134:400,-0.28369099999999997,0.0055850000000000006,-0.401642,-0.003879,-0.005451,0.002321,-38.75,5.0,-23.18,3b
2019-07-12_114134:420,-0.284698,0.007111,-0.401123,-0.003849,-0.005939,0.0032359999999999997,-38.75,5.0,-23.18,3b
2019-07-12_114134:440,-0.285706,0.006072999999999999,-0.402161,-0.004184,-0.005817,0.003297,-39.5,4.18,-23.559998999999998,3b
2019-07-12_114134:460,-0.28775,0.005065999999999999,-0.402649,-0.004581,-0.006214,0.003023,-39.5,4.18,-23.559998999999998,3b
2019-07-12_114134:480,-0.287231,0.0055850000000000006,-0.402649,-0.004581,-0.006092,0.003511,-39.5,4.18,-23.559998999999998,3b
2019-07-12_114134:500,-0.288269,0.004547,-0.405212,-0.004459,-0.005725,0.0038469999999999997,-39.5,5.0,-24.370001000000002,3b
2019-07-12_114134:520,-0.288269,0.004547,-0.402649,-0.004398,-0.005451,0.0034189999999999997,-39.5,5.0,-24.370001000000002,3b
2019-07-12_114134:540,-0.28775,0.0055850000000000006,-0.404694,-0.004398,-0.005359,0.003023,-39.060001,5.37,-23.18,3b
2019-07-12_114134:560,-0.28775,0.0055850000000000006,-0.404175,-0.004275999999999999,-0.0052369999999999995,0.0039689999999999994,-39.060001,5.37,-23.18,3b
2019-07-12_114134:580,-0.285706,0.0035399999999999997,-0.40368699999999996,-0.0042450000000000005,-0.005298,0.004396,-39.060001,5.37,-23.18,3b
2019-07-12_114134:600,-0.285217,0.0055850000000000006,-0.402649,-0.004520000000000001,-0.005451,0.0038159999999999995,-38.0,3.87,-23.559998999999998,3b
2019-07-12_114134:620,-0.285706,0.006072999999999999,-0.401642,-0.004581,-0.005359,0.00403,-38.0,3.87,-23.559998999999998,3b
2019-07-12_114134:640,-0.28674299999999997,0.004547,-0.40063499999999996,-0.004520000000000001,-0.00539,0.004457,-39.5,4.18,-24.370001000000002,3b
2019-07-12_114134:660,-0.28418000000000004,0.005065999999999999,-0.401123,-0.004978,-0.0055119999999999995,0.004213000000000001,-39.5,4.18,-24.370001000000002,3b
2019-07-12_114134:680,-0.28418000000000004,0.004059,-0.40011599999999997,-0.005039,-0.005878,0.004182,-39.5,4.18,-24.370001000000002,3b
2019-07-12_114134:700,-0.285217,0.0035399999999999997,-0.40316799999999997,-0.004886,-0.006092,0.004548,-39.060001,4.56,-24.75,3b
2019-07-12_114134:720,-0.287231,0.005065999999999999,-0.402649,-0.004978,-0.006092,0.004548,-39.060001,4.56,-24.75,3b
2019-07-12_114134:740,-0.287231,0.0030210000000000002,-0.404175,-0.004764,-0.005817,0.004457,-39.060001,3.87,-24.75,3b
2019-07-12_114134:760,-0.287231,0.004547,-0.405212,-0.004947,-0.005695,0.004793,-39.060001,3.87,-24.75,3b
2019-07-12_114134:780,-0.287231,0.0055850000000000006,-0.40368699999999996,-0.004947,-0.005756,0.004732,-39.060001,3.87,-24.75,3b
2019-07-12_114134:800,-0.28674299999999997,0.004547,-0.405212,-0.005344,-0.005451,0.004915,-39.5,5.0,-24.75,3b
2019-07-12_114134:820,-0.285706,0.005065999999999999,-0.402649,-0.005344,-0.005451,0.005189,-39.5,5.0,-24.75,3b
2019-07-12_114134:840,-0.28674299999999997,0.0035399999999999997,-0.40368699999999996,-0.005558,-0.005176,0.005189,-39.060001,4.56,-24.0,3b
2019-07-12_114134:860,-0.284698,0.002014,-0.402649,-0.005741,-0.005359,0.005006,-39.060001,4.56,-24.0,3b
2019-07-12_114134:880,-0.284698,0.000488,-0.40368699999999996,-0.005222,-0.005359,0.004915,-39.060001,4.56,-24.0,3b
2019-07-12_114134:900,-0.28875700000000004,0.000488,-0.405212,-0.004947,-0.005573,0.004945000000000001,-39.869999,4.56,-23.559998999999998,3b
2019-07-12_114134:920,-0.285217,0.0025329999999999997,-0.40063499999999996,-0.004764,-0.005176,0.005067,-39.869999,4.56,-23.559998999999998,3b
2019-07-12_114134:940,-0.285217,0.0030210000000000002,-0.402649,-0.004764,-0.005298,0.004793,-40.25,4.18,-24.0,3b
2019-07-12_114134:960,-0.287231,0.004547,-0.402649,-0.005375,-0.005176,0.004396,-40.25,4.18,-24.0,3b
2019-07-12_114134:980,-0.281647,0.0030210000000000002,-0.40011599999999997,-0.005375,-0.005176,0.004091,-40.25,4.18,-24.0,3b
2019-07-12_114135:000,-0.28674299999999997,0.0025329999999999997,-0.406738,-0.005558,-0.005634,0.003511,-38.369999,4.18,-24.0,3b
2019-07-12_114135:020,-0.285706,0.0030210000000000002,-0.40368699999999996,-0.005375,-0.005725,0.0038469999999999997,-38.369999,4.18,-24.0,3b
2019-07-12_114135:040,-0.29232800000000003,0.004059,-0.404694,-0.004703,-0.005817,0.004854,-39.060001,4.56,-24.75,3b
2019-07-12_114135:060,-0.293335,0.006072999999999999,-0.40368699999999996,-0.004703,-0.005115,0.004945000000000001,-39.060001,4.56,-24.75,3b
2019-07-12_114135:080,-0.28674299999999997,0.008636,-0.40011599999999997,-0.005741,-0.003986,0.00525,-39.060001,4.56,-24.75,3b
2019-07-12_114135:100,-0.282654,0.007111,-0.40063499999999996,-0.006076,-0.0038640000000000002,0.005861,-39.060001,5.0,-24.0,3b
2019-07-12_114135:120,-0.28112800000000004,0.0055850000000000006,-0.398071,-0.007206000000000001,-0.004901,0.005983,-39.060001,5.0,-24.0,3b
2019-07-12_114135:140,-0.282166,0.0030210000000000002,-0.399109,-0.007418999999999999,-0.005115,0.005922,-39.060001,5.0,-24.0,3b
2019-07-12_114135:160,-0.290802,0.002014,-0.401123,-0.006962,-0.005573,0.006196,-38.369999,5.0,-23.559998999999998,3b
2019-07-12_114135:180,-0.288269,0.000488,-0.399597,-0.006962,-0.005573,0.006318,-38.369999,5.0,-23.559998999999998,3b
2019-07-12_114135:200,-0.28979499999999997,0.002014,-0.404175,-0.006687,-0.005725,0.00525,-39.5,5.37,-23.559998999999998,3b
2019-07-12_114135:220,-0.291321,0.0055850000000000006,-0.402161,-0.006809,-0.005695,0.004182,-39.5,5.37,-23.559998999999998,3b
2019-07-12_114135:240,-0.291321,0.0030210000000000002,-0.40368699999999996,-0.006626000000000001,-0.005176,0.00525,-39.5,5.37,-23.559998999999998,3b
2019-07-12_114135:260,-0.291321,0.005065999999999999,-0.40063499999999996,-0.00629,-0.004961999999999999,0.005403,-39.060001,4.56,-23.18,3b
2019-07-12_114135:280,-0.290283,0.007599,-0.40063499999999996,-0.0064730000000000005,-0.004444,0.004213000000000001,-39.060001,4.56,-23.18,3b
2019-07-12_114135:300,-0.28875700000000004,0.011169,-0.397583,-0.006626000000000001,-0.0045049999999999995,0.005128,-39.869999,4.18,-25.559998999999998,3b
2019-07-12_114135:320,-0.287231,0.011169,-0.395538,-0.007084,-0.004718,0.005922,-39.869999,4.18,-25.559998999999998,3b
2019-07-12_114135:340,-0.28369099999999997,0.008636,-0.398071,-0.0076939999999999995,-0.005359,0.005861,-39.869999,4.18,-25.559998999999998,3b
2019-07-12_114135:360,-0.285217,0.007111,-0.397064,-0.007755,-0.006397,0.006196,-39.060001,5.0,-24.0,3b
2019-07-12_114135:380,-0.28927600000000003,0.0055850000000000006,-0.398071,-0.007601999999999999,-0.006670999999999999,0.006593000000000001,-39.060001,5.0,-24.0,3b
2019-07-12_114135:400,-0.28979499999999997,0.005065999999999999,-0.401123,-0.007145,-0.006458,0.006654,-39.060001,5.0,-24.0,3b
2019-07-12_114135:420,-0.28979499999999997,0.006072999999999999,-0.402161,-0.007084,-0.006670999999999999,0.006654,-39.060001,5.0,-24.0,3b
2019-07-12_114135:440,-0.288269,0.007599,-0.402649,-0.007084,-0.006793,0.0067150000000000005,-39.060001,5.0,-24.0,3b
2019-07-12_114135:460,-0.288269,0.0055850000000000006,-0.399109,-0.00748,-0.006854000000000001,0.006074,-38.75,4.56,-24.370001000000002,3b
2019-07-12_114135:480,-0.28775,0.007111,-0.401123,-0.007816,-0.006854000000000001,0.005647,-38.75,4.56,-24.370001000000002,3b
2019-07-12_114135:500,-0.28775,0.004547,-0.40368699999999996,-0.0076939999999999995,-0.006854000000000001,0.005861,-39.5,4.56,-24.75,3b
2019-07-12_114135:520,-0.28875700000000004,0.0055850000000000006,-0.402161,-0.007267,-0.006731999999999999,0.005861,-39.5,4.56,-24.75,3b
2019-07-12_114135:540,-0.284698,0.006592,-0.402649,-0.007084,-0.006793,0.005464,-39.5,4.56,-24.75,3b
2019-07-12_114135:560,-0.284698,0.007111,-0.40316799999999997,-0.00687,-0.0066099999999999996,0.00525,-38.369999,4.56,-23.559998999999998,3b
2019-07-12_114135:580,-0.283173,0.008118,-0.404175,-0.0067480000000000005,-0.006793,0.004945000000000001,-38.369999,4.56,-23.559998999999998,3b
2019-07-12_114135:600,-0.281647,0.007111,-0.40368699999999996,-0.0065650000000000005,-0.007129000000000001,0.004609,-38.369999,5.0,-23.18,3b
2019-07-12_114135:620,-0.28875700000000004,0.008118,-0.40570100000000003,-0.006504,-0.007220999999999999,0.004609,-38.369999,5.0,-23.18,3b
2019-07-12_114135:640,-0.28674299999999997,0.009125,-0.405212,-0.006504,-0.007006999999999999,0.005128,-38.369999,5.0,-23.18,3b
2019-07-12_114135:660,-0.28927600000000003,0.010651,-0.406738,-0.006626000000000001,-0.006458,0.004793,-39.5,5.37,-23.18,3b
2019-07-12_114135:680,-0.287231,0.010162000000000001,-0.406219,-0.006809,-0.006275,0.004213000000000001,-39.5,5.37,-23.18,3b
2019-07-12_114135:700,-0.283173,0.007599,-0.405212,-0.00687,-0.006336,0.00403,-39.060001,5.68,-24.370001000000002,3b
2019-07-12_114135:720,-0.283173,0.008118,-0.40368699999999996,-0.006504,-0.006458,0.003511,-39.060001,5.68,-24.370001000000002,3b
2019-07-12_114135:740,-0.28112800000000004,0.006072999999999999,-0.40316799999999997,-0.005619,-0.006458,0.003908,-39.060001,5.68,-24.370001000000002,3b
2019-07-12_114135:760,-0.28112800000000004,0.006072999999999999,-0.40316799999999997,-0.004642,-0.006336,0.004518,-39.060001,5.0,-24.370001000000002,3b
2019-07-12_114135:780,-0.28112800000000004,0.010162000000000001,-0.40316799999999997,-0.004123,-0.006397,0.0039689999999999994,-39.060001,5.0,-24.370001000000002,3b
2019-07-12_114135:800,-0.280121,0.014221000000000001,-0.402649,-0.004275999999999999,-0.006458,0.0034189999999999997,-38.75,5.0,-24.370001000000002,3b
2019-07-12_114135:820,-0.28064,0.018799,-0.402649,-0.004978,-0.006458,0.004213000000000001,-38.75,5.0,-24.370001000000002,3b
2019-07-12_114135:840,-0.28064,0.016753999999999998,-0.405212,-0.005954,-0.006731999999999999,0.004732,-38.75,5.0,-24.370001000000002,3b
2019-07-12_114135:860,-0.283173,0.012177,-0.408752,-0.0069,-0.006945999999999999,0.005128,-39.060001,5.0,-24.370001000000002,3b
2019-07-12_114135:880,-0.285706,0.012177,-0.40823400000000004,-0.007206000000000001,-0.006885,0.006044,-39.060001,5.0,-24.370001000000002,3b
2019-07-12_114135:900,-0.29232800000000003,0.008118,-0.409271,-0.006962,-0.0060609999999999995,0.006929,-39.060001,4.56,-24.370001000000002,3b
2019-07-12_114135:920,-0.29538000000000003,0.008118,-0.408752,-0.0067480000000000005,-0.004657,0.006868000000000001,-39.060001,4.56,-24.370001000000002,3b
2019-07-12_114135:940,-0.290802,0.008118,-0.406219,-0.007023000000000001,-0.003589,0.006837,-39.060001,4.56,-24.370001000000002,3b
2019-07-12_114135:960,-0.28775,0.007599,-0.402649,-0.0067480000000000005,-0.00307,0.007783,-40.25,4.56,-24.0,3b
2019-07-12_114135:980,-0.283173,0.006072999999999999,-0.399597,-0.006504,-0.002918,0.00757,-40.25,4.56,-24.0,3b
2019-07-12_114136:000,-0.28064,0.006072999999999999,-0.396545,-0.0069,-0.0035280000000000003,0.006044,-38.75,4.56,-24.75,3b
2019-07-12_114136:020,-0.277588,0.007111,-0.395538,-0.006809,-0.004779,0.005739,-38.75,4.56,-24.75,3b
2019-07-12_114136:040,-0.279114,0.007111,-0.396545,-0.006626000000000001,-0.0061530000000000005,0.005525,-38.75,4.56,-24.75,3b
2019-07-12_114136:060,-0.283173,0.007599,-0.399109,-0.00687,-0.007220999999999999,0.004335,-39.060001,5.37,-24.0,3b
2019-07-12_114136:080,-0.285706,0.007599,-0.401123,-0.006626000000000001,-0.007587000000000001,0.00403,-39.060001,5.37,-24.0,3b
2019-07-12_114136:100,-0.288269,0.009644,-0.404175,-0.005954,-0.007526000000000001,0.003908,-39.5,4.56,-25.18,3b
2019-07-12_114136:120,-0.290802,0.011169,-0.40570100000000003,-0.005344,-0.007281999999999999,0.003694,-39.5,4.56,-25.18,3b
2019-07-12_114136:140,-0.290283,0.014221000000000001,-0.405212,-0.004642,-0.006793,0.00403,-39.5,4.56,-25.18,3b
2019-07-12_114136:160,-0.28875700000000004,0.016266,-0.405212,-0.004123,-0.005939,0.005189,-39.060001,5.0,-23.559998999999998,3b
2019-07-12_114136:180,-0.284698,0.017792,-0.405212,-0.004062,-0.005878,0.005586,-39.060001,5.0,-23.559998999999998,3b
2019-07-12_114136:200,-0.28369099999999997,0.017792,-0.404175,-0.004123,-0.005878,0.006379,-38.75,5.37,-25.18,3b
2019-07-12_114136:220,-0.285217,0.016266,-0.402649,-0.004520000000000001,-0.0061530000000000005,0.0071730000000000006,-38.75,5.37,-25.18,3b
2019-07-12_114136:240,-0.286224,0.013702,-0.40063499999999996,-0.004886,-0.006,0.007387,-38.75,5.37,-25.18,3b
2019-07-12_114136:260,-0.285706,0.011687999999999999,-0.401123,-0.004764,-0.006,0.007661,-38.75,5.37,-24.370001000000002,3b
2019-07-12_114136:280,-0.282166,0.008118,-0.401123,-0.004642,-0.006275,0.008058,-38.75,5.37,-24.370001000000002,3b
2019-07-12_114136:300,-0.285706,0.005065999999999999,-0.40368699999999996,-0.004398,-0.006885,0.007783,-38.75,5.68,-24.0,3b
2019-07-12_114136:320,-0.285706,0.004059,-0.402161,-0.004062,-0.006885,0.007265000000000001,-38.75,5.68,-24.0,3b
2019-07-12_114136:340,-0.287231,0.004059,-0.40316799999999997,-0.0032689999999999998,-0.007129000000000001,0.00757,-38.75,5.68,-24.0,3b
2019-07-12_114136:360,-0.287231,0.0035399999999999997,-0.40368699999999996,-0.002597,-0.007343000000000001,0.007387,-39.060001,5.37,-23.559998999999998,3b
2019-07-12_114136:380,-0.285217,0.0055850000000000006,-0.402649,-0.002597,-0.007281999999999999,0.007387,-39.060001,5.37,-23.559998999999998,3b
2019-07-12_114136:400,-0.28418000000000004,0.0055850000000000006,-0.40368699999999996,-0.002536,-0.007220999999999999,0.007448000000000001,-39.060001,6.06,-23.559998999999998,3b
2019-07-12_114136:420,-0.28674299999999997,0.006072999999999999,-0.402649,-0.003208,-0.007343000000000001,0.006929,-39.060001,6.06,-23.559998999999998,3b
2019-07-12_114136:440,-0.281647,0.006072999999999999,-0.404175,-0.003788,-0.007465,0.006837,-39.060001,6.06,-23.559998999999998,3b
2019-07-12_114136:460,-0.28064,0.002014,-0.40570100000000003,-0.004184,-0.007923000000000001,0.0067150000000000005,-39.060001,5.68,-24.75,3b
2019-07-12_114136:480,-0.281647,0.0,-0.407227,-0.004123,-0.008136,0.006868000000000001,-39.060001,5.68,-24.75,3b
2019-07-12_114136:500,-0.285706,0.000488,-0.40823400000000004,-0.003483,-0.007923000000000001,0.007112,-38.369999,5.68,-24.0,3b
2019-07-12_114136:520,-0.286224,0.000488,-0.407227,-0.003208,-0.007465,0.006837,-38.369999,5.68,-24.0,3b
2019-07-12_114136:540,-0.28418000000000004,0.0035399999999999997,-0.407227,-0.003849,-0.006670999999999999,0.006196,-38.369999,5.68,-24.0,3b
