timestamp,AccX,AccY,AccZ,GyroX,GyroY,GyroZ,MagX,MagY,MagZ,Activity
2019-07-12_140452:220,-0.492126,-0.001495,-0.08081100000000001,0.003951,-0.007662,-0.008003,-46.369999,6.87,8.06,3a
2019-07-12_140452:240,-0.48706099999999997,-0.001495,-0.0849,0.0033710000000000003,-0.007326999999999999,-0.007667,-46.369999,6.87,8.06,3a
2019-07-12_140452:260,-0.48043800000000003,-0.001007,-0.087952,0.002822,-0.007449,-0.007881,-46.75,6.5,6.5,3a
2019-07-12_140452:280,-0.481476,-0.002014,-0.092529,0.002517,-0.008364,-0.008094,-46.75,6.5,6.5,3a
2019-07-12_140452:300,-0.485016,-0.0025329999999999997,-0.095062,0.002242,-0.009493000000000001,-0.007942,-46.75,6.06,8.37,3a
2019-07-12_140452:320,-0.48706099999999997,-0.001495,-0.09301799999999999,0.001906,-0.009982,-0.0075450000000000005,-46.75,6.06,8.37,3a
2019-07-12_140452:340,-0.489075,-0.000488,-0.097107,0.00151,-0.009921,-0.006233,-46.75,6.06,8.37,3a
2019-07-12_140452:360,-0.490601,0.0,-0.101685,0.0013880000000000001,-0.009829000000000001,-0.004829,-46.369999,5.37,6.87,3a
2019-07-12_140452:380,-0.492126,0.000488,-0.10116599999999999,0.0007769999999999999,-0.009768,-0.003303,-46.369999,5.37,6.87,3a
2019-07-12_140452:400,-0.500793,0.001007,-0.103699,0.000991,-0.009036,-0.0021739999999999997,-46.75,5.37,7.68,3a
2019-07-12_140452:420,-0.496216,0.0035399999999999997,-0.106232,0.000381,-0.008303,-0.001503,-46.75,5.37,7.68,3a
2019-07-12_140452:440,-0.490112,0.004059,-0.105743,-7.7e-05,-0.007174,-9.9e-05,-46.75,5.37,7.68,3a
2019-07-12_140452:460,-0.489075,0.005065999999999999,-0.108795,-0.00081,-0.006503,0.0019760000000000003,-47.060001,5.37,7.25,3a
2019-07-12_140452:480,-0.485016,0.0035399999999999997,-0.10928299999999999,-0.001695,-0.005984000000000001,0.004052,-47.060001,5.37,7.25,3a
2019-07-12_140452:500,-0.489075,0.0,-0.110321,-0.002549,-0.005251,0.004845,-47.060001,5.5,7.68,3a
2019-07-12_140452:520,-0.489075,-0.001007,-0.110321,-0.0034649999999999998,-0.00458,0.004448,-47.060001,5.5,7.68,3a
2019-07-12_140452:540,-0.48754899999999995,-0.0025329999999999997,-0.11080899999999999,-0.003739,-0.003542,0.004174000000000001,-47.060001,5.5,7.68,3a
2019-07-12_140452:560,-0.48654200000000003,-0.004547,-0.110321,-0.004136,-0.002932,0.0035020000000000003,-46.0,5.06,6.5,3a
2019-07-12_140452:580,-0.485016,-0.004059,-0.108276,-0.004197,-0.002322,0.0028309999999999997,-46.0,5.06,6.5,3a
2019-07-12_140452:600,-0.485016,-0.0030210000000000002,-0.108795,-0.00435,-0.001955,0.0028309999999999997,-47.060001,4.68,6.18,3a
2019-07-12_140452:620,-0.48349,-0.002014,-0.10775799999999999,-0.004533,-0.002139,0.002892,-47.060001,4.68,6.18,3a
2019-07-12_140452:640,-0.47995,-0.001495,-0.107269,-0.004685,-0.002078,0.002129,-47.060001,4.68,6.18,3a
2019-07-12_140452:660,-0.481476,-0.0025329999999999997,-0.108276,-0.004991,-0.001955,0.001396,-46.75,4.37,6.5,3a
2019-07-12_140452:680,-0.484009,-0.000488,-0.108795,-0.005265,-0.0022,0.0017629999999999998,-46.75,4.37,6.5,3a
2019-07-12_140452:700,-0.48553500000000005,0.001495,-0.108276,-0.005815,-0.002016,0.002495,-47.060001,5.5,6.5,3a
2019-07-12_140452:720,-0.482483,0.0030210000000000002,-0.107269,-0.006639,-0.002322,0.0019149999999999998,-47.060001,5.5,6.5,3a
2019-07-12_140452:740,-0.484009,0.0055850000000000006,-0.105225,-0.0076760000000000005,-0.002078,0.00161,-47.060001,5.5,6.5,3a
2019-07-12_140452:760,-0.482483,0.0030210000000000002,-0.110321,-0.00908,-0.002016,0.002983,-46.75,4.68,6.18,3a
2019-07-12_140452:780,-0.47689799999999993,-0.004059,-0.106232,-0.009538,-0.001559,0.004418,-46.75,4.68,6.18,3a
2019-07-12_140452:800,-0.477386,-0.005065999999999999,-0.111328,-0.009812000000000001,-0.00281,0.0037159999999999997,-47.5,5.06,6.18,3a
2019-07-12_140452:820,-0.473846,-0.005065999999999999,-0.11233499999999999,-0.009294,-0.003542,0.003228,-47.5,5.06,6.18,3a
2019-07-12_140452:840,-0.471283,-0.006592,-0.11538699999999999,-0.008409,-0.005465,0.004296,-47.5,5.06,6.18,3a
2019-07-12_140452:860,-0.482483,-0.006072999999999999,-0.116425,-0.007431999999999999,-0.0069299999999999995,0.00515,-47.060001,5.5,6.87,3a
2019-07-12_140452:880,-0.486023,-0.0055850000000000006,-0.11691300000000002,-0.006547,-0.007234999999999999,0.005822,-47.060001,5.5,6.87,3a
2019-07-12_140452:900,-0.48706099999999997,-0.006592,-0.116425,-0.005845,-0.0066549999999999995,0.005913,-47.060001,6.18,5.68,3a
2019-07-12_140452:920,-0.48349,-0.0055850000000000006,-0.117432,-0.00554,-0.005526,0.004967,-47.060001,6.18,5.68,3a
2019-07-12_140452:940,-0.477905,-0.0055850000000000006,-0.121002,-0.005386999999999999,-0.004855,0.004845,-47.060001,6.18,5.68,3a
2019-07-12_140452:960,-0.47689799999999993,-0.005065999999999999,-0.12301600000000001,-0.005326,-0.005251,0.005883,-46.369999,5.06,6.18,3a
2019-07-12_140452:980,-0.484009,-0.007111,-0.12301600000000001,-0.005845,-0.0057090000000000005,0.006096,-46.369999,5.06,6.18,3a
2019-07-12_140453:000,-0.49111899999999997,-0.0055850000000000006,-0.12048299999999999,-0.0067,-0.005372999999999999,0.005883,-46.75,5.06,6.18,3a
2019-07-12_140453:020,-0.484009,-0.009125,-0.119476,-0.007095999999999999,-0.004336,0.006371,-46.75,5.06,6.18,3a
2019-07-12_140453:040,-0.484497,-0.012177,-0.12149000000000001,-0.0077069999999999994,-0.003481,0.006554000000000001,-46.75,5.06,6.18,3a
2019-07-12_140453:060,-0.48654200000000003,-0.013702,-0.124054,-0.008225,-0.003146,0.005974,-47.060001,5.5,5.0,3a
2019-07-12_140453:080,-0.484497,-0.014740000000000001,-0.12048299999999999,-0.008683,-0.0024129999999999998,0.005883,-47.060001,5.5,5.0,3a
2019-07-12_140453:100,-0.48706099999999997,-0.018799,-0.12149000000000001,-0.00908,-0.0018030000000000001,0.006218,-46.75,6.18,5.37,3a
2019-07-12_140453:120,-0.485016,-0.024384,-0.119476,-0.009599,-0.000704,0.007103,-46.75,6.18,5.37,3a
2019-07-12_140453:140,-0.478912,-0.027954000000000003,-0.118958,-0.009415999999999999,-9.4e-05,0.007561,-46.75,6.18,5.37,3a
2019-07-12_140453:160,-0.47689799999999993,-0.028961,-0.121002,-0.008683,-0.000185,0.006371,-46.0,5.5,6.5,3a
2019-07-12_140453:180,-0.47842399999999996,-0.029480000000000003,-0.12149000000000001,-0.007279000000000001,-0.0007650000000000001,0.004113,-46.0,5.5,6.5,3a
2019-07-12_140453:200,-0.477905,-0.028442000000000002,-0.12200899999999999,-0.005845,-0.001559,0.001549,-47.5,6.18,6.18,3a
2019-07-12_140453:220,-0.48300200000000004,-0.022858,-0.119476,-0.004472,-0.0025960000000000002,0.000481,-47.5,6.18,6.18,3a
2019-07-12_140453:240,-0.484009,-0.018799,-0.119965,-0.00316,-0.00281,0.0007559999999999999,-47.5,6.18,6.18,3a
2019-07-12_140453:260,-0.47689799999999993,-0.013702,-0.122528,-0.002397,-0.0022,0.001,-47.5,5.87,6.18,3a
2019-07-12_140453:280,-0.472321,-0.013213999999999998,-0.12558,-0.001939,-0.0024739999999999996,0.00042,-47.5,5.87,6.18,3a
2019-07-12_140453:300,-0.472321,-0.012695,-0.12912,-0.00203,-0.0037869999999999996,0.000634,-46.75,6.56,4.56,3a
2019-07-12_140453:320,-0.48043800000000003,-0.013702,-0.129639,-0.0024879999999999998,-0.0049770000000000005,0.002098,-46.75,6.56,4.56,3a
2019-07-12_140453:340,-0.49722299999999997,-0.015747,-0.127594,-0.0029460000000000003,-0.00519,0.0030440000000000003,-46.75,6.56,4.56,3a
2019-07-12_140453:360,-0.503845,-0.015228,-0.119476,-0.003953,-0.00281,0.002983,-47.5,6.18,5.37,3a
2019-07-12_140453:380,-0.502808,-0.016266,-0.118958,-0.004594,0.000822,0.003167,-47.5,6.18,5.37,3a
2019-07-12_140453:400,-0.489075,-0.015228,-0.11795,-0.005326,0.005979,0.00161,-46.369999,6.56,5.0,3a
2019-07-12_140453:420,-0.477386,-0.012695,-0.11843900000000002,-0.005601,0.006742000000000001,0.000267,-46.369999,6.56,5.0,3a
2019-07-12_140453:440,-0.470276,-0.010651,-0.121002,-0.0063030000000000004,0.0054600000000000004,-0.0007700000000000001,-46.369999,6.56,5.0,3a
2019-07-12_140453:460,-0.461639,-0.012177,-0.121002,-0.006486,0.00247,0.0017929999999999999,-47.060001,7.0,4.18,3a
2019-07-12_140453:480,-0.477905,-0.014740000000000001,-0.11795,-0.006425,-9.4e-05,0.002648,-47.060001,7.0,4.18,3a
2019-07-12_140453:500,-0.501801,-0.017273,-0.113373,-0.005815,0.000425,0.002495,-46.75,7.0,6.18,3a
2019-07-12_140453:520,-0.49823,-0.015747,-0.107269,-0.004654999999999999,0.002927,0.002983,-46.75,7.0,6.18,3a
2019-07-12_140453:540,-0.488068,-0.014740000000000001,-0.11080899999999999,-0.004014,0.005186,0.003105,-46.75,7.0,6.18,3a
2019-07-12_140453:560,-0.48043800000000003,-0.011687999999999999,-0.108795,-0.003953,0.006193,0.0030440000000000003,-46.369999,7.0,5.68,3a
2019-07-12_140453:580,-0.474854,-0.010162000000000001,-0.11233499999999999,-0.004533,0.005125,0.004174000000000001,-46.369999,7.0,5.68,3a
2019-07-12_140453:600,-0.475861,-0.008636,-0.11080899999999999,-0.005143,0.003751,0.004753,-47.060001,7.0,6.5,3a
2019-07-12_140453:620,-0.484497,-0.0055850000000000006,-0.10318,-0.0067,0.002866,0.004357,-47.060001,7.0,6.5,3a
2019-07-12_140453:640,-0.48706099999999997,-0.0025329999999999997,-0.102692,-0.008805,0.0034770000000000005,0.005303,-47.060001,7.0,6.5,3a
2019-07-12_140453:660,-0.488068,-0.004547,-0.096069,-0.010879999999999999,0.004942,0.006706999999999999,-47.060001,7.37,7.68,3a
2019-07-12_140453:680,-0.485016,-0.008118,-0.095581,-0.013138999999999998,0.005613,0.006768000000000001,-47.060001,7.37,7.68,3a
2019-07-12_140453:700,-0.477905,-0.012177,-0.095062,-0.014603999999999999,0.0054600000000000004,0.007012000000000001,-46.0,7.0,6.87,3a
2019-07-12_140453:720,-0.47079499999999996,-0.01828,-0.097107,-0.015733,0.0034159999999999998,0.007561,-46.0,7.0,6.87,3a
2019-07-12_140453:740,-0.46823100000000006,-0.021851,-0.09963999999999999,-0.016374,0.00021099999999999998,0.008140999999999999,-46.0,7.0,6.87,3a
2019-07-12_140453:760,-0.470276,-0.024902,-0.09963999999999999,-0.016526,-0.002993,0.007683,-46.369999,7.0,6.87,3a
2019-07-12_140453:780,-0.471283,-0.027435,-0.100159,-0.016648,-0.005862,0.0064930000000000005,-46.369999,7.0,6.87,3a
2019-07-12_140453:800,-0.47332799999999997,-0.030487,-0.104218,-0.016709,-0.007388,0.006035,-45.560001,7.37,6.18,3a
2019-07-12_140453:820,-0.472321,-0.031006,-0.110321,-0.016709,-0.009188,0.006431999999999999,-45.560001,7.37,6.18,3a
2019-07-12_140453:840,-0.48095699999999997,-0.030487,-0.115906,-0.01677,-0.011415999999999999,0.005822,-45.560001,7.37,6.18,3a
2019-07-12_140453:860,-0.49517799999999995,-0.029480000000000003,-0.114899,-0.017044999999999998,-0.012240000000000001,0.00396,-46.75,7.37,7.25,3a
2019-07-12_140453:880,-0.503845,-0.030487,-0.112854,-0.017044999999999998,-0.010775,0.002983,-46.75,7.37,7.25,3a
2019-07-12_140453:900,-0.501282,-0.027954000000000003,-0.113373,-0.016862000000000002,-0.008028,0.0037770000000000004,-46.369999,7.68,6.87,3a
2019-07-12_140453:920,-0.49365200000000004,-0.031494,-0.11795,-0.016252000000000003,-0.0057399999999999994,0.004113,-46.369999,7.68,6.87,3a
2019-07-12_140453:940,-0.495697,-0.028961,-0.119476,-0.015458000000000001,-0.004122,0.004021,-46.369999,7.68,6.87,3a
2019-07-12_140453:960,-0.49468999999999996,-0.027954000000000003,-0.11691300000000002,-0.014146,-0.0025960000000000002,0.00457,-46.0,7.68,5.37,3a
2019-07-12_140453:980,-0.49975600000000003,-0.027954000000000003,-0.109802,-0.012863999999999999,-0.00043,0.004845,-46.0,7.68,5.37,3a
2019-07-12_140454:000,-0.494171,-0.023895,-0.10928299999999999,-0.012345,0.00247,0.005242,-46.0,8.5,5.37,3a
2019-07-12_140454:020,-0.48553500000000005,-0.020844,-0.105225,-0.011734999999999999,0.004331000000000001,0.007073,-46.0,8.5,5.37,3a
2019-07-12_140454:040,-0.47995,-0.022858,-0.10928299999999999,-0.011857,0.00485,0.005699,-46.0,8.5,5.37,3a
2019-07-12_140454:060,-0.477386,-0.021851,-0.108276,-0.012528000000000001,0.004057,0.0037159999999999997,-46.75,8.5,6.18,3a
2019-07-12_140454:080,-0.48095699999999997,-0.023375999999999997,-0.105743,-0.012620000000000001,0.0030800000000000003,0.004235,-46.75,8.5,6.18,3a
2019-07-12_140454:100,-0.474854,-0.023375999999999997,-0.10675,-0.012620000000000001,0.0017980000000000001,0.004113,-47.5,7.37,5.68,3a
2019-07-12_140454:120,-0.477386,-0.024902,-0.104706,-0.012620000000000001,-0.000307,0.002526,-47.5,7.37,5.68,3a
2019-07-12_140454:140,-0.48858599999999996,-0.030487,-0.108795,-0.01146,-0.001376,0.0009390000000000001,-47.5,7.37,5.68,3a
2019-07-12_140454:160,-0.488068,-0.033539,-0.102173,-0.010423,-0.0010400000000000001,0.00161,-46.75,8.5,6.5,3a
2019-07-12_140454:180,-0.48858599999999996,-0.031494,-0.104218,-0.009141,-0.00043,0.004113,-46.75,8.5,6.5,3a
2019-07-12_140454:200,-0.48858599999999996,-0.030487,-0.105225,-0.008409,0.000364,0.003167,-46.369999,9.56,6.5,3a
2019-07-12_140454:220,-0.49316400000000005,-0.025908999999999998,-0.104706,-0.008073,0.001066,-0.000648,-46.369999,9.56,6.5,3a
2019-07-12_140454:240,-0.491638,-0.019318000000000002,-0.100159,-0.007615,0.001615,-0.001442,-46.369999,9.56,6.5,3a
2019-07-12_140454:260,-0.48754899999999995,-0.01828,-0.099121,-0.007156999999999999,0.002866,0.000359,-45.560001,8.5,5.68,3a
2019-07-12_140454:280,-0.47842399999999996,-0.019806,-0.09454299999999999,-0.007279000000000001,0.003751,0.001335,-45.560001,8.5,5.68,3a
2019-07-12_140454:300,-0.476379,-0.017792,-0.09454299999999999,-0.007431999999999999,0.004057,0.001549,-46.75,8.06,6.5,3a
2019-07-12_140454:320,-0.466217,-0.01828,-0.096588,-0.007768000000000001,0.0034159999999999998,0.002098,-46.75,8.06,6.5,3a
2019-07-12_140454:340,-0.465179,-0.020844,-0.09811399999999999,-0.008348000000000001,0.0007610000000000001,0.0019760000000000003,-46.75,8.06,6.5,3a
2019-07-12_140454:360,-0.465179,-0.024902,-0.102692,-0.008836,-0.002993,0.00277,-46.369999,8.5,6.18,3a
2019-07-12_140454:380,-0.46875,-0.028442000000000002,-0.105743,-0.009019,-0.006776999999999999,0.004052,-46.369999,8.5,6.18,3a
2019-07-12_140454:400,-0.47689799999999993,-0.029968,-0.109802,-0.009355,-0.009921,0.003319,-46.75,8.06,5.68,3a
2019-07-12_140454:420,-0.48553500000000005,-0.029968,-0.110321,-0.009629,-0.011507,0.001,-46.75,8.06,5.68,3a
2019-07-12_140454:440,-0.492645,-0.028442000000000002,-0.11233499999999999,-0.009599,-0.010957999999999999,-0.001106,-46.75,8.06,5.68,3a
2019-07-12_140454:460,-0.492126,-0.030487,-0.113373,-0.009477,-0.009921,-0.002052,-46.369999,9.18,6.18,3a
2019-07-12_140454:480,-0.490112,-0.030487,-0.114899,-0.00908,-0.00812,-0.0026320000000000002,-46.369999,9.18,6.18,3a
2019-07-12_140454:500,-0.494171,-0.030487,-0.11538699999999999,-0.0085,-0.006899,-0.00309,-46.75,9.18,5.68,3a
2019-07-12_140454:520,-0.48553500000000005,-0.027435,-0.119476,-0.0076760000000000005,-0.006136,-0.003761,-46.75,9.18,5.68,3a
2019-07-12_140454:540,-0.47995,-0.024384,-0.119476,-0.0063030000000000004,-0.005404,-0.005287,-46.75,9.18,5.68,3a
2019-07-12_140454:560,-0.481476,-0.016753999999999998,-0.124054,-0.005265,-0.005526,-0.00663,-46.369999,8.87,5.37,3a
2019-07-12_140454:580,-0.47995,-0.013213999999999998,-0.12506099999999998,-0.0034649999999999998,-0.005647999999999999,-0.006751999999999999,-46.369999,8.87,5.37,3a
2019-07-12_140454:600,-0.48095699999999997,-0.012695,-0.129639,-0.00203,-0.006106,-0.0058969999999999995,-46.0,8.06,5.68,3a
2019-07-12_140454:620,-0.482483,-0.010162000000000001,-0.128601,-0.000749,-0.006503,-0.004219,-46.0,8.06,5.68,3a
2019-07-12_140454:640,-0.48858599999999996,-0.011169,-0.131165,0.0007160000000000001,-0.005862,-0.0018989999999999999,-46.0,8.06,5.68,3a
2019-07-12_140454:660,-0.488068,-0.010651,-0.133179,0.001754,-0.004915999999999999,-0.000709,-46.75,8.06,5.0,3a
2019-07-12_140454:680,-0.49111899999999997,-0.010162000000000001,-0.133698,0.0031579999999999998,-0.0034509999999999996,-0.000892,-46.75,8.06,5.0,3a
2019-07-12_140454:700,-0.488068,-0.008118,-0.138794,0.00389,-0.002352,-0.002357,-46.369999,7.68,5.68,3a
2019-07-12_140454:720,-0.486023,-0.004059,-0.13623,0.0045,-0.00162,-0.00196,-46.369999,7.68,5.68,3a
2019-07-12_140454:740,-0.485016,-0.005065999999999999,-0.135223,0.004226,-0.00036899999999999997,0.00042,-46.369999,7.68,5.68,3a
2019-07-12_140454:760,-0.497742,-0.007599,-0.12912,0.003768,0.001157,0.002098,-47.060001,7.68,4.56,3a
2019-07-12_140454:780,-0.490601,-0.008636,-0.128113,0.003036,0.003599,0.002037,-47.060001,7.68,4.56,3a
2019-07-12_140454:800,-0.482483,-0.012695,-0.12558,0.002761,0.005215999999999999,0.001213,-46.75,6.18,5.0,3a
2019-07-12_140454:820,-0.485016,-0.014740000000000001,-0.12506099999999998,0.002517,0.005857,0.000206,-46.75,6.18,5.0,3a
2019-07-12_140454:840,-0.48754899999999995,-0.013702,-0.119476,0.002761,0.006254,0.000145,-46.75,6.18,5.0,3a
2019-07-12_140454:860,-0.49316400000000005,-0.012177,-0.116425,0.00328,0.007139,-0.001228,-46.369999,7.0,5.0,3a
2019-07-12_140454:880,-0.492645,-0.009644,-0.10928299999999999,0.003036,0.009061,-0.003303,-46.369999,7.0,5.0,3a
2019-07-12_140454:900,-0.494171,-0.008636,-0.108795,0.002517,0.010251999999999999,-0.00309,-46.75,7.37,6.18,3a
2019-07-12_140454:920,-0.48553500000000005,-0.012177,-0.103699,0.0021809999999999998,0.011045000000000001,-0.001777,-46.75,7.37,6.18,3a
2019-07-12_140454:940,-0.48754899999999995,-0.009125,-0.102173,0.001632,0.011167,-0.003029,-46.75,7.37,6.18,3a
2019-07-12_140454:960,-0.48706099999999997,-0.005065999999999999,-0.095062,0.000258,0.011777,-0.004677000000000001,-46.0,6.56,6.87,3a
2019-07-12_140454:980,-0.488068,-0.004059,-0.09201000000000001,-0.001267,0.012449,-0.004158,-46.0,6.56,6.87,3a
2019-07-12_140455:000,-0.473846,-0.006072999999999999,-0.094055,-0.003068,0.01251,-0.002784,-46.369999,7.0,6.18,3a
2019-07-12_140455:020,-0.46569799999999995,-0.007599,-0.09301799999999999,-0.004472,0.010923,-0.00043499999999999995,-46.369999,7.0,6.18,3a
2019-07-12_140455:040,-0.46569799999999995,-0.013213999999999998,-0.09149199999999999,-0.005204,0.007871,0.002709,-46.369999,7.0,6.18,3a
2019-07-12_140455:060,-0.47079499999999996,-0.016266,-0.08590700000000001,-0.005265,0.005338,0.003105,-46.369999,5.5,8.37,3a
2019-07-12_140455:080,-0.475372,-0.015747,-0.0849,-0.004807,0.003019,0.0007559999999999999,-46.369999,5.5,8.37,3a
2019-07-12_140455:100,-0.478912,-0.015747,-0.08590700000000001,-0.003861,0.001737,2.3e-05,-46.369999,6.18,8.37,3a
2019-07-12_140455:120,-0.482483,-0.018799,-0.0849,-0.0026100000000000003,0.000944,0.00103,-46.369999,6.18,8.37,3a
2019-07-12_140455:140,-0.494171,-0.018799,-0.083862,-0.001542,0.000822,0.001549,-46.369999,6.18,8.37,3a
2019-07-12_140455:160,-0.497742,-0.019318000000000002,-0.079803,-1.6e-05,0.001615,0.0023120000000000003,-45.0,7.0,8.06,3a
2019-07-12_140455:180,-0.511444,-0.017792,-0.078278,0.0015710000000000001,0.002348,0.002709,-45.0,7.0,8.06,3a
2019-07-12_140455:200,-0.512482,-0.017273,-0.082855,0.002486,0.0029579999999999997,0.0017929999999999999,-46.369999,6.56,7.25,3a
2019-07-12_140455:220,-0.491638,-0.015228,-0.07775900000000001,0.003432,0.002195,0.002037,-46.369999,6.56,7.25,3a
2019-07-12_140455:240,-0.48654200000000003,-0.017792,-0.081848,0.004104,0.0007,0.0037770000000000004,-46.369999,6.56,7.25,3a
2019-07-12_140455:260,-0.47689799999999993,-0.020844,-0.081329,0.005294,-0.000857,0.004174000000000001,-47.060001,5.75,9.18,3a
2019-07-12_140455:280,-0.47433500000000006,-0.020844,-0.080322,0.006881,-0.001559,0.0016710000000000002,-47.060001,5.75,9.18,3a
2019-07-12_140455:300,-0.477386,-0.016753999999999998,-0.08590700000000001,0.007949,-0.0028710000000000003,-0.0007700000000000001,-46.75,6.18,9.18,3a
2019-07-12_140455:320,-0.472321,-0.017273,-0.0849,0.009017,-0.004336,-0.001442,-46.75,6.18,9.18,3a
2019-07-12_140455:340,-0.46569799999999995,-0.012177,-0.091003,0.009475,-0.005526,-0.003242,-46.75,6.18,9.18,3a
2019-07-12_140455:360,-0.467743,-0.008118,-0.09454299999999999,0.009414,-0.007326999999999999,-0.00489,-46.0,5.87,8.87,3a
2019-07-12_140455:380,-0.48043800000000003,-0.0025329999999999997,-0.095062,0.009353,-0.008974,-0.005409000000000001,-46.0,5.87,8.87,3a
2019-07-12_140455:400,-0.489075,0.0035399999999999997,-0.097107,0.00859,-0.009370999999999999,-0.006476999999999999,-45.560001,5.06,8.06,3a
2019-07-12_140455:420,-0.48553500000000005,0.012177,-0.09963999999999999,0.007064,-0.009493000000000001,-0.007423000000000001,-45.560001,5.06,8.06,3a
2019-07-12_140455:440,-0.48654200000000003,0.013213999999999998,-0.102692,0.005294,-0.009249,-0.006416,-45.560001,5.06,8.06,3a
2019-07-12_140455:460,-0.48553500000000005,0.014740000000000001,-0.106232,0.003097,-0.009554,-0.005012,-46.0,5.5,8.87,3a
2019-07-12_140455:480,-0.494171,0.014221000000000001,-0.10775799999999999,0.001296,-0.009249,-0.003578,-46.0,5.5,8.87,3a
2019-07-12_140455:500,-0.508911,0.012177,-0.107269,-0.000566,-0.008242,-0.0018989999999999999,-47.5,3.68,8.37,3a
2019-07-12_140455:520,-0.515015,0.010162000000000001,-0.10675,-0.002152,-0.0059229999999999994,-0.000129,-47.5,3.68,8.37,3a
2019-07-12_140455:540,-0.515533,0.004059,-0.105743,-0.003922,-0.003268,0.002587,-47.5,3.68,8.37,3a
2019-07-12_140455:560,-0.51297,-0.002014,-0.104706,-0.004685,-0.0007650000000000001,0.005242,-46.369999,4.0,6.5,3a
2019-07-12_140455:580,-0.510437,-0.007599,-0.098633,-0.004807,0.002225,0.004692,-46.369999,4.0,6.5,3a
2019-07-12_140455:600,-0.508911,-0.006592,-0.09963999999999999,-0.004869,0.0054600000000000004,0.003258,-46.75,4.37,8.87,3a
2019-07-12_140455:620,-0.49823,-0.009125,-0.08843999999999999,-0.004472,0.008451,0.004052,-46.75,4.37,8.87,3a
2019-07-12_140455:640,-0.49316400000000005,-0.010651,-0.086914,-0.0038,0.010892,0.005638000000000001,-46.75,4.37,8.87,3a
2019-07-12_140455:660,-0.489075,-0.015228,-0.0849,-0.003007,0.012693000000000001,0.00515,-46.0,4.37,8.06,3a
2019-07-12_140455:680,-0.481476,-0.016266,-0.080322,-0.001603,0.013638999999999998,0.0035020000000000003,-46.0,4.37,8.06,3a
2019-07-12_140455:700,-0.471283,-0.014221000000000001,-0.075745,-0.00047400000000000003,0.013364,0.002709,-47.5,3.25,8.06,3a
2019-07-12_140455:720,-0.46823100000000006,-0.016266,-0.076752,-7.7e-05,0.011961,0.003167,-47.5,3.25,8.06,3a
2019-07-12_140455:740,-0.46670500000000004,-0.016753999999999998,-0.077271,0.000503,0.009367,0.0037770000000000004,-47.5,3.25,8.06,3a
2019-07-12_140455:760,-0.465179,-0.014740000000000001,-0.078278,0.000625,0.005796,0.002648,-46.0,4.37,9.56,3a
2019-07-12_140455:780,-0.481476,-0.012177,-0.076263,0.000991,0.002134,0.000206,-46.0,4.37,9.56,3a
2019-07-12_140455:800,-0.48654200000000003,-0.011169,-0.077271,0.001174,-0.00043,-0.0022960000000000003,-46.369999,4.37,8.87,3a
2019-07-12_140455:820,-0.502319,-0.004059,-0.071686,0.001113,-0.000826,-0.003578,-46.369999,4.37,8.87,3a
2019-07-12_140455:840,-0.507904,-0.001495,-0.073212,0.0005639999999999999,-0.000124,-0.002357,-46.369999,4.37,8.87,3a
2019-07-12_140455:860,-0.516022,0.0035399999999999997,-0.073212,-0.000749,0.001157,0.000206,-46.0,3.25,11.56,3a
2019-07-12_140455:880,-0.517059,0.005065999999999999,-0.070648,-0.0022129999999999997,0.002805,0.002129,-46.0,3.25,11.56,3a
2019-07-12_140455:900,-0.515533,0.006592,-0.068634,-0.004136,0.004942,0.002983,-45.560001,3.68,10.0,3a
2019-07-12_140455:920,-0.510437,0.004547,-0.061005,-0.006089,0.008237000000000001,0.003228,-45.560001,3.68,10.0,3a
2019-07-12_140455:940,-0.49365200000000004,-0.002014,-0.060486,-0.007829000000000001,0.010251999999999999,0.004845,-45.560001,3.68,10.0,3a
2019-07-12_140455:960,-0.48654200000000003,-0.0055850000000000006,-0.061005,-0.008805,0.010923,0.006431999999999999,-46.0,4.0,11.18,3a
2019-07-12_140455:980,-0.462646,-0.013213999999999998,-0.065582,-0.009294,0.008573,0.005822,-46.0,4.0,11.18,3a
2019-07-12_140456:000,-0.45907600000000004,-0.016266,-0.066589,-0.00908,0.004545,0.004296,-46.369999,4.0,11.18,3a
2019-07-12_140456:020,-0.45654300000000003,-0.020325,-0.067596,-0.008012,-0.00036899999999999997,0.0037159999999999997,-46.369999,4.0,11.18,3a
2019-07-12_140456:040,-0.45654300000000003,-0.021851,-0.069122,-0.006242,-0.005068,0.0029219999999999997,-46.369999,4.0,11.18,3a
2019-07-12_140456:060,-0.46569799999999995,-0.021332,-0.069122,-0.004685,-0.008761,0.000695,-45.25,4.68,10.37,3a
2019-07-12_140456:080,-0.47943100000000005,-0.016266,-0.07016,-0.003556,-0.010622,-0.001259,-45.25,4.68,10.37,3a
2019-07-12_140456:100,-0.496216,-0.012177,-0.0737,-0.002885,-0.010836,-0.001655,-46.0,4.0,10.75,3a
2019-07-12_140456:120,-0.501801,-0.008636,-0.074738,-0.002793,-0.009921,-0.003029,-46.0,4.0,10.75,3a
2019-07-12_140456:140,-0.507904,-0.002014,-0.07421900000000001,-0.003129,-0.008028,-0.0055,-46.0,4.0,10.75,3a
2019-07-12_140456:160,-0.515533,0.005065999999999999,-0.07016,-0.004014,-0.004733,-0.006416,-47.060001,3.25,10.75,3a
2019-07-12_140456:180,-0.523163,0.014740000000000001,-0.067596,-0.005784,-0.000704,-0.005104,-47.060001,3.25,10.75,3a
2019-07-12_140456:200,-0.521637,0.015228,-0.067596,-0.008073,0.003751,-0.004036,-46.0,3.25,9.56,3a
2019-07-12_140456:220,-0.50943,0.014221000000000001,-0.071167,-0.010545,0.0064670000000000005,-0.003547,-46.0,3.25,9.56,3a
2019-07-12_140456:240,-0.508911,0.012177,-0.068115,-0.012589,0.007719,-0.00132,-46.0,3.25,9.56,3a
2019-07-12_140456:260,-0.503845,0.004547,-0.067108,-0.01439,0.007993,0.00161,-46.369999,3.25,10.37,3a
2019-07-12_140456:280,-0.495697,-0.000488,-0.06405599999999999,-0.015275,0.007597,0.004174000000000001,-46.369999,3.25,10.37,3a
2019-07-12_140456:300,-0.47995,-0.007111,-0.070648,-0.015794,0.006132,0.005089,-46.0,3.25,11.18,3a
2019-07-12_140456:320,-0.47433500000000006,-0.011169,-0.068115,-0.015,0.003995,0.003655,-46.0,3.25,11.18,3a
2019-07-12_140456:340,-0.48043800000000003,-0.012695,-0.06253099999999999,-0.013993,0.002348,0.001091,-46.0,3.25,11.18,3a
2019-07-12_140456:360,-0.48553500000000005,-0.011169,-0.061005,-0.012803,0.002348,-0.000831,-45.560001,3.68,10.37,3a
2019-07-12_140456:380,-0.492645,-0.008636,-0.057953,-0.011734999999999999,0.0029579999999999997,-0.001625,-45.560001,3.68,10.37,3a
2019-07-12_140456:400,-0.490112,-0.005065999999999999,-0.057434000000000006,-0.009965,0.003324,-0.0026320000000000002,-46.369999,3.68,10.37,3a
2019-07-12_140456:420,-0.48706099999999997,-0.0025329999999999997,-0.057434000000000006,-0.009233,0.002927,-0.003242,-46.369999,3.68,10.37,3a
2019-07-12_140456:440,-0.48654200000000003,0.000488,-0.059479,-0.007095999999999999,0.001005,-0.003975,-46.369999,3.68,10.37,3a
2019-07-12_140456:460,-0.48553500000000005,0.007111,-0.056915,-0.006425,0.000272,-0.0033640000000000002,-46.0,4.0,10.75,3a
2019-07-12_140456:480,-0.48754899999999995,0.009644,-0.057434000000000006,-0.004411,-0.002322,-0.000648,-46.0,4.0,10.75,3a
2019-07-12_140456:500,-0.49468999999999996,0.013213999999999998,-0.060486,-0.004197,-0.0036030000000000003,0.0030440000000000003,-46.369999,2.87,11.56,3a
2019-07-12_140456:520,-0.49517799999999995,0.014740000000000001,-0.057434000000000006,-0.004533,-0.004672,0.008140999999999999,-46.369999,2.87,11.56,3a
2019-07-12_140456:540,-0.49722299999999997,0.009644,-0.059479,-0.005265,-0.004275,0.009667,-46.369999,2.87,11.56,3a
2019-07-12_140456:560,-0.490601,0.004059,-0.057953,-0.0056619999999999995,-0.003848,0.008537999999999999,-44.560001,3.68,11.56,3a
2019-07-12_140456:580,-0.48043800000000003,0.002014,-0.063538,-0.006364,-0.005251,0.005242,-44.560001,3.68,11.56,3a
2019-07-12_140456:600,-0.47689799999999993,-0.000488,-0.068634,-0.0065769999999999995,-0.006258,0.006035,-45.560001,3.68,11.56,3a
2019-07-12_140456:620,-0.47995,-0.006072999999999999,-0.067596,-0.006822,-0.009706999999999999,0.009331,-45.560001,3.68,11.56,3a
2019-07-12_140456:640,-0.48754899999999995,-0.012695,-0.071167,-0.006944,-0.009890000000000001,0.008934000000000001,-45.560001,3.68,11.56,3a
2019-07-12_140456:660,-0.494171,-0.017273,-0.0737,-0.006761,-0.009890000000000001,0.008355,-45.560001,4.37,11.56,3a
2019-07-12_140456:680,-0.492645,-0.020844,-0.0737,-0.0049299999999999995,-0.009158,0.005364,-45.560001,4.37,11.56,3a
2019-07-12_140456:700,-0.494171,-0.020844,-0.078278,-0.004197,-0.009158,0.004296,-46.369999,4.0,10.37,3a
2019-07-12_140456:720,-0.49722299999999997,-0.019806,-0.080322,-0.002397,-0.008059,0.004052,-46.369999,4.0,10.37,3a
2019-07-12_140456:740,-0.502319,-0.01828,-0.081848,-0.0014199999999999998,-0.007051999999999999,0.0037159999999999997,-46.369999,4.0,10.37,3a
2019-07-12_140456:760,-0.5058590000000001,-0.015228,-0.08081100000000001,-0.001359,-0.005862,0.003105,-46.0,4.68,10.75,3a
2019-07-12_140456:780,-0.504333,-0.007599,-0.07775900000000001,-0.001023,-0.0024739999999999996,0.00277,-46.0,4.68,10.75,3a
2019-07-12_140456:800,-0.500275,-0.007599,-0.076752,-0.001023,-0.001559,0.002526,-46.0,4.68,10.75,3a
2019-07-12_140456:820,-0.500793,-0.0030210000000000002,-0.076263,-0.00203,0.00134,0.001854,-46.75,4.37,10.75,3a
2019-07-12_140456:840,-0.49722299999999997,0.001495,-0.07421900000000001,-0.003129,0.002225,0.0034409999999999996,-46.75,4.37,10.75,3a
2019-07-12_140456:860,-0.49926800000000005,0.004059,-0.07016,-0.0038,0.002561,0.004448,-46.0,4.37,9.56,3a
2019-07-12_140456:880,-0.49975600000000003,0.004547,-0.068115,-0.006761,0.004148,0.006035,-46.0,4.37,9.56,3a
2019-07-12_140456:900,-0.503326,0.0,-0.063019,-0.007768000000000001,0.005215999999999999,0.006096,-47.060001,4.0,10.75,3a
2019-07-12_140456:920,-0.498749,-0.0030210000000000002,-0.05996699999999999,-0.010545,0.006986,0.005089,-47.060001,4.0,10.75,3a
2019-07-12_140456:940,-0.48300200000000004,-0.009644,-0.058441,-0.011734999999999999,0.006528,0.004448,-47.060001,4.0,10.75,3a
2019-07-12_140456:960,-0.477905,-0.014221000000000001,-0.057953,-0.01201,0.0057350000000000005,0.004509,-46.0,4.68,11.18,3a
2019-07-12_140456:980,-0.48706099999999997,-0.01828,-0.057434000000000006,-0.012620000000000001,0.0032020000000000004,0.005883,-46.0,4.68,11.18,3a
2019-07-12_140457:000,-0.488068,-0.022369,-0.057434000000000006,-0.012681,0.002531,0.005761,-46.0,4.68,11.18,3a
2019-07-12_140457:020,-0.47995,-0.023895,-0.055908000000000006,-0.012863999999999999,-0.000124,0.005089,-46.0,4.68,10.37,3a
2019-07-12_140457:040,-0.482483,-0.025421,-0.056915,-0.012284,-0.001925,0.004692,-46.0,4.68,10.37,3a
2019-07-12_140457:060,-0.492126,-0.021332,-0.061005,-0.011949,-0.002657,0.0038380000000000003,-46.369999,5.5,11.56,3a
2019-07-12_140457:080,-0.495697,-0.018799,-0.055908000000000006,-0.012467,-0.00339,0.0009390000000000001,-46.369999,5.5,11.56,3a
2019-07-12_140457:100,-0.504333,-0.014221000000000001,-0.055908000000000006,-0.012681,-0.003054,0.001152,-46.369999,5.5,11.56,3a
2019-07-12_140457:120,-0.49722299999999997,-0.012177,-0.055908000000000006,-0.013535,-0.001864,0.004631000000000001,-46.0,5.06,11.56,3a
2019-07-12_140457:140,-0.48706099999999997,-0.016266,-0.055908000000000006,-0.01381,-0.0017420000000000003,0.00515,-46.0,5.06,11.56,3a
2019-07-12_140457:160,-0.49111899999999997,-0.018799,-0.056915,-0.01378,-0.002261,0.0037159999999999997,-46.0,4.75,11.18,3a
2019-07-12_140457:180,-0.490112,-0.018799,-0.057953,-0.013138999999999998,-0.002993,0.00161,-46.0,4.75,11.18,3a
2019-07-12_140457:200,-0.484009,-0.018799,-0.058960000000000005,-0.011613,-0.003725,0.0016710000000000002,-46.0,5.87,10.75,3a
2019-07-12_140457:220,-0.48858599999999996,-0.018799,-0.05996699999999999,-0.01027,-0.004519,0.0017629999999999998,-46.0,5.87,10.75,3a
2019-07-12_140457:240,-0.49926800000000005,-0.015228,-0.057953,-0.007890000000000001,-0.003664,-0.000892,-46.0,5.87,10.75,3a
2019-07-12_140457:260,-0.503326,-0.013213999999999998,-0.059479,-0.007279000000000001,-0.003054,-0.0021739999999999997,-45.0,5.87,12.37,3a
2019-07-12_140457:280,-0.506378,-0.0055850000000000006,-0.053863999999999995,-0.006822,0.000303,-0.004371,-45.0,5.87,12.37,3a
2019-07-12_140457:300,-0.503326,-0.010162000000000001,-0.050323,-0.0072180000000000005,0.0015539999999999998,-0.004158,-45.0,5.87,12.37,3a
2019-07-12_140457:320,-0.49111899999999997,-0.008636,-0.050842,-0.009202,0.003934,-0.001503,-46.0,6.18,10.75,3a
2019-07-12_140457:340,-0.485016,-0.010651,-0.051849,-0.010026,0.003599,-0.000892,-46.0,6.18,10.75,3a
2019-07-12_140457:360,-0.472321,-0.011687999999999999,-0.057434000000000006,-0.010819,0.0014320000000000001,-3.8e-05,-45.25,5.5,10.75,3a
2019-07-12_140457:380,-0.46670500000000004,-0.016266,-0.05996699999999999,-0.010758,-0.002352,-0.0007700000000000001,-45.25,5.5,10.75,3a
2019-07-12_140457:400,-0.46670500000000004,-0.016266,-0.070648,-0.009934,-0.008059,-0.00251,-45.25,5.5,10.75,3a
2019-07-12_140457:420,-0.461639,-0.014221000000000001,-0.069122,-0.00847,-0.012941999999999999,-0.002784,-46.0,5.87,11.18,3a
2019-07-12_140457:440,-0.46316499999999994,-0.014221000000000001,-0.07421900000000001,-0.0054789999999999995,-0.018649000000000002,-0.001106,-46.0,5.87,11.18,3a
2019-07-12_140457:460,-0.46823100000000006,-0.013213999999999998,-0.076263,-0.004594,-0.019594999999999998,-0.000648,-46.369999,5.06,9.56,3a
2019-07-12_140457:480,-0.477905,-0.009125,-0.077271,-0.0026100000000000003,-0.01993,0.000634,-46.369999,5.06,9.56,3a
2019-07-12_140457:500,-0.48196400000000006,-0.008636,-0.07775900000000001,-0.002275,-0.019412000000000002,0.000817,-46.369999,5.06,9.56,3a
2019-07-12_140457:520,-0.48754899999999995,-0.013702,-0.075745,-0.0012980000000000001,-0.015871,0.0009390000000000001,-46.0,4.68,8.87,3a
2019-07-12_140457:540,-0.492645,-0.017273,-0.071167,-0.001084,-0.013949000000000001,0.0007559999999999999,-46.0,4.68,8.87,3a
2019-07-12_140457:560,-0.49468999999999996,-0.019318000000000002,-0.071686,-0.001023,-0.010378,8.4e-05,-46.0,5.06,9.18,3a
2019-07-12_140457:580,-0.494171,-0.016753999999999998,-0.072693,-0.00022999999999999998,-0.007662,-0.002052,-46.0,5.06,9.18,3a
2019-07-12_140457:600,-0.503845,-0.012695,-0.07775900000000001,-7.7e-05,-0.006442,-0.005562,-46.0,5.06,9.18,3a
2019-07-12_140457:620,-0.504333,-0.010651,-0.08081100000000001,0.000625,-0.006379999999999999,-0.0073620000000000005,-47.5,4.75,9.56,3a
2019-07-12_140457:640,-0.498749,-0.004059,-0.07928500000000001,0.000991,-0.006319,-0.006233,-47.5,4.75,9.56,3a
2019-07-12_140457:660,-0.491638,-0.000488,-0.082336,0.0008990000000000001,-0.006258,-0.003914,-46.75,4.37,8.37,3a
2019-07-12_140457:680,-0.48553500000000005,0.000488,-0.085388,0.000167,-0.0071129999999999995,-0.001106,-46.75,4.37,8.37,3a
2019-07-12_140457:700,-0.485016,-0.000488,-0.08843999999999999,-0.000413,-0.007723000000000001,0.002251,-46.75,4.37,8.37,3a
2019-07-12_140457:720,-0.485016,-0.004059,-0.086914,-0.001023,-0.007234999999999999,0.003167,-46.75,3.68,8.87,3a
2019-07-12_140457:740,-0.484009,-0.004059,-0.088959,-0.001939,-0.005984000000000001,0.002037,-46.75,3.68,8.87,3a
2019-07-12_140457:760,-0.48095699999999997,-0.0025329999999999997,-0.092529,-0.0028239999999999997,-0.004672,0.001549,-46.369999,4.37,9.56,3a
2019-07-12_140457:780,-0.47689799999999993,-0.0035399999999999997,-0.096069,-0.004258,-0.00458,0.001335,-46.369999,4.37,9.56,3a
2019-07-12_140457:800,-0.48196400000000006,-0.0025329999999999997,-0.100159,-0.006089,-0.005647999999999999,0.001213,-46.369999,4.37,9.56,3a
2019-07-12_140457:820,-0.484497,-0.006072999999999999,-0.102173,-0.0074930000000000005,-0.007174,0.0017929999999999999,-46.75,4.68,9.18,3a
2019-07-12_140457:840,-0.492645,-0.011169,-0.099121,-0.008348000000000001,-0.0069299999999999995,0.002037,-46.75,4.68,9.18,3a
2019-07-12_140457:860,-0.496704,-0.012695,-0.09963999999999999,-0.008805,-0.005801,0.000695,-46.369999,4.0,8.06,3a
2019-07-12_140457:880,-0.49468999999999996,-0.012695,-0.094055,-0.008744,-0.003329,0.000359,-46.369999,4.0,8.06,3a
2019-07-12_140457:900,-0.492645,-0.013702,-0.095062,-0.008286,-0.0009789999999999998,0.001274,-46.369999,4.0,8.06,3a
2019-07-12_140457:920,-0.48553500000000005,-0.013702,-0.094055,-0.007554000000000001,0.0007,0.0017629999999999998,-46.75,4.37,7.68,3a
2019-07-12_140457:940,-0.47995,-0.013702,-0.09301799999999999,-0.006883,0.002348,0.002098,-46.75,4.37,7.68,3a
2019-07-12_140457:960,-0.474854,-0.011169,-0.09201000000000001,-0.006089,0.0019510000000000003,0.002526,-47.869999,4.37,7.25,3a
2019-07-12_140457:980,-0.471283,-0.013213999999999998,-0.091003,-0.005601,0.0015539999999999998,0.002587,-47.869999,4.37,7.25,3a
2019-07-12_140458:000,-0.47180200000000005,-0.010651,-0.09454299999999999,-0.00554,2.8000000000000003e-05,0.0016710000000000002,-47.869999,4.37,7.25,3a
2019-07-12_140458:020,-0.473846,-0.008636,-0.09454299999999999,-0.00554,-0.00162,0.0007559999999999999,-47.060001,3.68,8.06,3a
2019-07-12_140458:040,-0.475372,-0.008636,-0.095062,-0.005967,-0.002718,0.000603,-47.060001,3.68,8.06,3a
2019-07-12_140458:060,-0.47943100000000005,-0.007111,-0.095581,-0.006242,-0.003146,-3.8e-05,-47.5,4.0,8.37,3a
2019-07-12_140458:080,-0.48349,-0.004547,-0.09454299999999999,-0.0065769999999999995,-0.003085,-0.001503,-47.5,4.0,8.37,3a
2019-07-12_140458:100,-0.482483,-0.0030210000000000002,-0.096069,-0.006883,-0.002322,-0.002845,-47.5,4.0,8.37,3a
2019-07-12_140458:120,-0.48300200000000004,-0.002014,-0.097107,-0.0072180000000000005,-0.002261,-0.003303,-47.060001,3.25,7.68,3a
2019-07-12_140458:140,-0.484009,-0.0030210000000000002,-0.09353600000000001,-0.007095999999999999,-0.002139,-0.001838,-47.060001,3.25,7.68,3a
2019-07-12_140458:160,-0.48553500000000005,-0.006592,-0.094055,-0.006486,-0.001559,-0.00018999999999999998,-46.75,4.0,8.37,3a
2019-07-12_140458:180,-0.489075,-0.007111,-0.089478,-0.005326,-0.000521,0.000267,-46.75,4.0,8.37,3a
2019-07-12_140458:200,-0.490601,-0.008118,-0.08996599999999999,-0.003282,0.000883,-9.9e-05,-46.75,4.0,8.37,3a
2019-07-12_140458:220,-0.48754899999999995,-0.0055850000000000006,-0.088959,-0.001542,0.002195,-0.0007700000000000001,-47.060001,3.25,8.37,3a
2019-07-12_140458:240,-0.48553500000000005,-0.001495,-0.08843999999999999,-1.6e-05,0.0026219999999999998,2.3e-05,-47.060001,3.25,8.37,3a
2019-07-12_140458:260,-0.485016,0.0,-0.08843999999999999,0.001113,0.00247,0.001335,-46.369999,3.68,8.87,3a
2019-07-12_140458:280,-0.48043800000000003,0.000488,-0.08590700000000001,0.001754,0.002348,0.0009390000000000001,-46.369999,3.68,8.87,3a
2019-07-12_140458:300,-0.478912,0.002014,-0.089478,0.001967,0.0018899999999999998,-0.002113,-46.369999,3.68,8.87,3a
2019-07-12_140458:320,-0.478912,0.008118,-0.086914,0.00209,0.0016760000000000002,-0.005012,-46.369999,3.68,9.18,3a
2019-07-12_140458:340,-0.48043800000000003,0.007599,-0.085388,0.002364,0.001157,-0.0051649999999999995,-46.369999,3.68,9.18,3a
2019-07-12_140458:360,-0.48196400000000006,0.008118,-0.085388,0.002425,0.001066,-0.004768,-47.060001,3.25,8.37,3a
2019-07-12_140458:380,-0.485016,0.010162000000000001,-0.085388,0.002486,0.0007,-0.005806,-47.060001,3.25,8.37,3a
2019-07-12_140458:400,-0.489075,0.012177,-0.085388,0.0027,0.000425,-0.006813,-47.060001,3.25,8.37,3a
2019-07-12_140458:420,-0.489594,0.011687999999999999,-0.0849,0.002913,0.000425,-0.006416,-46.75,2.87,8.37,3a
2019-07-12_140458:440,-0.486023,0.012695,-0.081329,0.002975,0.000883,-0.005409000000000001,-46.75,2.87,8.37,3a
2019-07-12_140458:460,-0.484009,0.014221000000000001,-0.080322,0.0028829999999999997,0.0017980000000000001,-0.004707,-46.369999,2.5,8.06,3a
2019-07-12_140458:480,-0.47995,0.016753999999999998,-0.079803,0.002761,0.002012,-0.0038829999999999997,-46.369999,2.5,8.06,3a
2019-07-12_140458:500,-0.477386,0.017273,-0.081848,0.0021809999999999998,0.001737,-0.002693,-46.369999,2.5,8.06,3a
2019-07-12_140458:520,-0.472321,0.017792,-0.082336,0.001693,0.001005,-0.001564,-46.75,2.18,9.18,3a
2019-07-12_140458:540,-0.472321,0.018799,-0.082855,0.0005639999999999999,2.8000000000000003e-05,-0.00037400000000000004,-46.75,2.18,9.18,3a
2019-07-12_140458:560,-0.473846,0.016753999999999998,-0.08590700000000001,-0.000901,-0.0018030000000000001,0.001396,-46.369999,1.75,9.18,3a
2019-07-12_140458:580,-0.472321,0.014221000000000001,-0.084381,-0.002427,-0.0036030000000000003,0.003258,-46.369999,1.75,9.18,3a
2019-07-12_140458:600,-0.47943100000000005,0.013213999999999998,-0.088959,-0.003861,-0.005251,0.004021,-46.369999,1.75,9.18,3a
2019-07-12_140458:620,-0.48300200000000004,0.011169,-0.08843999999999999,-0.005326,-0.006106,0.004113,-46.369999,1.37,8.37,3a
2019-07-12_140458:640,-0.486023,0.009644,-0.087952,-0.006242,-0.005404,0.005181,-46.369999,1.37,8.37,3a
2019-07-12_140458:660,-0.485016,0.006072999999999999,-0.088959,-0.006883,-0.004183,0.006615,-46.75,1.37,8.87,3a
2019-07-12_140458:680,-0.484009,0.005065999999999999,-0.08843999999999999,-0.007431999999999999,-0.003054,0.007103,-46.75,1.37,8.87,3a
2019-07-12_140458:700,-0.47842399999999996,0.001007,-0.092529,-0.008103,-0.003054,0.007286,-46.75,1.37,8.87,3a
2019-07-12_140458:720,-0.476379,0.000488,-0.09353600000000001,-0.008897,-0.003878,0.007164,-46.0,1.75,9.18,3a
2019-07-12_140458:740,-0.475861,-0.004547,-0.094055,-0.009629,-0.005251,0.006615,-46.0,1.75,9.18,3a
2019-07-12_140458:760,-0.476379,-0.007111,-0.096069,-0.010209000000000001,-0.006136,0.005577,-46.369999,1.75,8.37,3a
2019-07-12_140458:780,-0.47842399999999996,-0.011687999999999999,-0.09454299999999999,-0.010148,-0.0068379999999999995,0.004174000000000001,-46.369999,1.75,8.37,3a
2019-07-12_140458:800,-0.48196400000000006,-0.011169,-0.097595,-0.009477,-0.006716,0.002098,-46.369999,1.75,8.37,3a
2019-07-12_140458:820,-0.488068,-0.010162000000000001,-0.096069,-0.008286,-0.006319,0.000359,-45.560001,2.87,8.37,3a
2019-07-12_140458:840,-0.490601,-0.007599,-0.096069,-0.006822,-0.005007,0.000267,-45.560001,2.87,8.37,3a
2019-07-12_140458:860,-0.492126,-0.004547,-0.096069,-0.005601,-0.0037869999999999996,0.000206,-46.369999,2.87,8.06,3a
2019-07-12_140458:880,-0.48858599999999996,-0.001495,-0.095062,-0.004533,-0.001925,0.000206,-46.369999,2.87,8.06,3a
2019-07-12_140458:900,-0.48553500000000005,0.000488,-0.09353600000000001,-0.0038,-0.000582,0.000817,-46.369999,2.87,8.06,3a
2019-07-12_140458:920,-0.485016,0.0025329999999999997,-0.095581,-0.00316,-0.000185,0.001335,-47.060001,2.18,8.87,3a
2019-07-12_140458:940,-0.48196400000000006,0.006592,-0.091003,-0.003404,0.000669,0.001091,-47.060001,2.18,8.87,3a
2019-07-12_140458:960,-0.478912,0.008636,-0.092529,-0.004014,0.000303,0.000695,-47.060001,2.5,8.37,3a
2019-07-12_140458:980,-0.47332799999999997,0.008118,-0.08996599999999999,-0.004533,-0.000185,0.000267,-47.060001,2.5,8.37,3a
2019-07-12_140459:000,-0.475861,0.009125,-0.09301799999999999,-0.00554,-0.000826,-0.000831,-47.060001,2.5,8.37,3a
2019-07-12_140459:020,-0.475861,0.009644,-0.094055,-0.006181,-0.002322,-0.001228,-46.369999,2.18,8.87,3a
2019-07-12_140459:040,-0.47995,0.008636,-0.09301799999999999,-0.006761,-0.00339,-9.9e-05,-46.369999,2.18,8.87,3a
2019-07-12_140459:060,-0.48654200000000003,0.0055850000000000006,-0.09454299999999999,-0.006883,-0.0037869999999999996,0.000878,-46.0,2.18,9.18,3a
2019-07-12_140459:080,-0.48858599999999996,0.006592,-0.09201000000000001,-0.006639,-0.003054,0.000878,-46.0,2.18,9.18,3a
2019-07-12_140459:100,-0.48654200000000003,0.006072999999999999,-0.09353600000000001,-0.006486,-0.001864,0.000817,-46.0,2.18,9.18,3a
2019-07-12_140459:120,-0.485016,0.006072999999999999,-0.09353600000000001,-0.006089,-0.000918,0.00042,-47.5,1.75,8.06,3a
2019-07-12_140459:140,-0.48349,0.008118,-0.09353600000000001,-0.005845,-0.00045999999999999996,-0.00018999999999999998,-47.5,1.75,8.06,3a
2019-07-12_140459:160,-0.484009,0.009644,-0.092529,-0.005845,-0.00043,0.000145,-47.060001,2.87,8.06,3a
2019-07-12_140459:180,-0.48043800000000003,0.009125,-0.09201000000000001,-0.005967,-0.000246,0.000695,-47.060001,2.87,8.06,3a
2019-07-12_140459:200,-0.476379,0.007599,-0.09149199999999999,-0.006089,0.000303,0.000267,-47.060001,2.87,8.06,3a
2019-07-12_140459:220,-0.474854,0.010651,-0.092529,-0.006089,-0.000124,-0.001564,-46.75,2.18,10.0,3a
2019-07-12_140459:240,-0.47433500000000006,0.011169,-0.09201000000000001,-0.006181,-0.000643,-0.0022960000000000003,-46.75,2.18,10.0,3a
2019-07-12_140459:260,-0.477905,0.011687999999999999,-0.09149199999999999,-0.005845,-0.001315,-0.001106,-46.369999,1.75,8.06,3a
2019-07-12_140459:280,-0.48196400000000006,0.012177,-0.091003,-0.005845,-0.001498,-9.9e-05,-46.369999,1.75,8.06,3a
2019-07-12_140459:300,-0.47995,0.012695,-0.09149199999999999,-0.005967,-0.0009789999999999998,-3.8e-05,-46.369999,1.75,8.06,3a
2019-07-12_140459:320,-0.47689799999999993,0.013702,-0.092529,-0.006028,-0.000704,-0.000709,-46.75,2.5,8.06,3a
2019-07-12_140459:340,-0.477386,0.015228,-0.09149199999999999,-0.006089,-0.0012230000000000001,-0.00043499999999999995,-46.75,2.5,8.06,3a
2019-07-12_140459:360,-0.48196400000000006,0.015228,-0.09301799999999999,-0.006486,-0.00162,0.000267,-47.5,1.75,8.06,3a
2019-07-12_140459:380,-0.48553500000000005,0.015228,-0.09149199999999999,-0.0065769999999999995,-0.001925,0.000481,-47.5,1.75,8.06,3a
2019-07-12_140459:400,-0.48754899999999995,0.016753999999999998,-0.090485,-0.007279000000000001,-0.001315,0.00103,-47.5,1.75,8.06,3a
2019-07-12_140459:420,-0.491638,0.013702,-0.09201000000000001,-0.008073,-3.3e-05,0.002037,-46.369999,1.0,7.25,3a
2019-07-12_140459:440,-0.489075,0.013213999999999998,-0.090485,-0.008225,0.0007610000000000001,0.0016710000000000002,-46.369999,1.0,7.25,3a
2019-07-12_140459:460,-0.49316400000000005,0.011687999999999999,-0.088959,-0.008103,0.0016760000000000002,0.00161,-46.369999,1.75,8.37,3a
2019-07-12_140459:480,-0.494171,0.011687999999999999,-0.086914,-0.007615,0.0029579999999999997,0.001854,-46.369999,1.75,8.37,3a
2019-07-12_140459:500,-0.48858599999999996,0.009644,-0.0849,-0.006973999999999999,0.004057,0.002251,-46.369999,1.75,8.37,3a
2019-07-12_140459:520,-0.48553500000000005,0.008636,-0.082855,-0.0063030000000000004,0.004209,0.002983,-46.369999,1.75,7.0,3a
2019-07-12_140459:540,-0.48300200000000004,0.007111,-0.079803,-0.0054789999999999995,0.004331000000000001,0.003655,-46.369999,1.75,7.0,3a
2019-07-12_140459:560,-0.47943100000000005,0.006072999999999999,-0.078796,-0.004685,0.0040869999999999995,0.003655,-46.75,2.18,9.0,3a
2019-07-12_140459:580,-0.473846,0.006592,-0.07928500000000001,-0.003953,0.003995,0.003563,-46.75,2.18,9.0,3a
2019-07-12_140459:600,-0.47079499999999996,0.006072999999999999,-0.076263,-0.00316,0.0032020000000000004,0.0030440000000000003,-46.75,2.18,9.0,3a
2019-07-12_140459:620,-0.47332799999999997,0.007599,-0.082336,-0.0029460000000000003,0.001279,0.002129,-46.369999,1.0,9.0,3a
2019-07-12_140459:640,-0.46875,0.008636,-0.081848,-0.0026100000000000003,-0.000704,0.001854,-46.369999,1.0,9.0,3a
2019-07-12_140459:660,-0.474854,0.008636,-0.081329,-0.0024879999999999998,-0.0025960000000000002,0.0019149999999999998,-46.0,1.75,8.18,3a
2019-07-12_140459:680,-0.481476,0.009644,-0.081848,-0.002732,-0.003329,0.001854,-46.0,1.75,8.18,3a
2019-07-12_140459:700,-0.48706099999999997,0.010162000000000001,-0.081848,-0.002885,-0.002718,0.001213,-46.0,1.75,8.18,3a
2019-07-12_140459:720,-0.489075,0.009644,-0.081848,-0.003282,-0.001559,0.00103,-47.5,1.0,9.0,3a
2019-07-12_140459:740,-0.490601,0.010651,-0.081329,-0.0034649999999999998,-0.000643,0.001091,-47.5,1.0,9.0,3a
2019-07-12_140459:760,-0.49365200000000004,0.010651,-0.081329,-0.003953,2.8000000000000003e-05,0.001213,-47.060001,1.0,9.25,3a
2019-07-12_140459:780,-0.49468999999999996,0.010651,-0.07775900000000001,-0.004136,0.000669,0.001549,-47.060001,1.0,9.25,3a
2019-07-12_140459:800,-0.494171,0.009125,-0.07775900000000001,-0.003861,0.001401,0.001732,-47.060001,1.0,9.25,3a
2019-07-12_140459:820,-0.489075,0.006592,-0.07421900000000001,-0.00316,0.002073,0.000298,-47.060001,1.0,10.5,3a
2019-07-12_140459:840,-0.485016,0.008118,-0.077271,-0.002336,0.001737,-0.000648,-47.060001,1.0,10.5,3a
2019-07-12_140459:860,-0.476379,0.009125,-0.076263,-0.001206,0.001005,-0.000251,-46.0,1.0,9.56,3a
2019-07-12_140459:880,-0.473846,0.010162000000000001,-0.07421900000000001,-1.6e-05,-0.000124,0.000817,-46.0,1.0,9.56,3a
2019-07-12_140459:900,-0.47280900000000003,0.010651,-0.075226,0.000991,-0.001315,0.001,-46.0,1.0,9.56,3a
2019-07-12_140459:920,-0.47079499999999996,0.011169,-0.076263,0.0018449999999999999,-0.0024129999999999998,0.0016710000000000002,-47.060001,1.37,10.5,3a
2019-07-12_140459:940,-0.470276,0.013702,-0.07775900000000001,0.0020280000000000003,-0.0037869999999999996,0.0017929999999999999,-47.060001,1.37,10.5,3a
2019-07-12_140459:960,-0.47180200000000005,0.016753999999999998,-0.08081100000000001,0.001235,-0.005251,0.00161,-46.369999,1.37,9.18,3a
2019-07-12_140459:980,-0.47433500000000006,0.016266,-0.082855,-0.000291,-0.006899,0.00161,-46.369999,1.37,9.18,3a
2019-07-12_140500:000,-0.475861,0.016266,-0.087952,-0.001695,-0.00812,0.0017629999999999998,-46.369999,1.37,9.18,3a
2019-07-12_140500:020,-0.481476,0.016266,-0.087952,-0.003404,-0.008912999999999999,0.001213,-46.75,2.18,8.87,3a
2019-07-12_140500:040,-0.488068,0.016753999999999998,-0.089478,-0.004807,-0.008578,0.000603,-46.75,2.18,8.87,3a
2019-07-12_140500:060,-0.490601,0.015747,-0.09149199999999999,-0.006028,-0.007631999999999999,0.000817,-47.869999,1.75,8.37,3a
2019-07-12_140500:080,-0.495697,0.014740000000000001,-0.08843999999999999,-0.0072180000000000005,-0.006045,0.0014880000000000002,-47.869999,1.75,8.37,3a
2019-07-12_140500:100,-0.49722299999999997,0.014221000000000001,-0.08996599999999999,-0.008225,-0.003939,0.002587,-47.869999,1.75,8.37,3a
2019-07-12_140500:120,-0.500793,0.012695,-0.086426,-0.008958,-0.001559,0.003899,-47.060001,1.37,9.56,3a
2019-07-12_140500:140,-0.501801,0.009644,-0.084381,-0.009355,0.000669,0.005303,-47.060001,1.37,9.56,3a
2019-07-12_140500:160,-0.500793,0.006592,-0.081329,-0.009294,0.002744,0.006035,-46.369999,1.0,7.68,3a
2019-07-12_140500:180,-0.496704,0.006072999999999999,-0.07421900000000001,-0.009477,0.004453,0.006706999999999999,-46.369999,1.0,7.68,3a
2019-07-12_140500:200,-0.48754899999999995,0.0025329999999999997,-0.072174,-0.009202,0.005918,0.006615,-46.369999,1.0,7.68,3a
2019-07-12_140500:220,-0.47995,0.001495,-0.07016,-0.008103,0.006803,0.004967,-46.369999,1.37,9.18,3a
2019-07-12_140500:240,-0.46670500000000004,0.0055850000000000006,-0.071686,-0.0074930000000000005,0.0057350000000000005,0.002495,-46.369999,1.37,9.18,3a
2019-07-12_140500:260,-0.45806899999999995,0.008118,-0.07421900000000001,-0.006547,0.002805,0.001335,-46.369999,1.75,9.18,3a
2019-07-12_140500:280,-0.454529,0.010162000000000001,-0.074738,-0.005906000000000001,-0.0018030000000000001,0.0014269999999999999,-46.369999,1.75,9.18,3a
2019-07-12_140500:300,-0.460114,0.011687999999999999,-0.07775900000000001,-0.005967,-0.006197,0.001396,-46.369999,1.75,9.18,3a
2019-07-12_140500:320,-0.467224,0.012695,-0.078796,-0.006486,-0.009309999999999999,0.0019760000000000003,-46.75,1.37,10.37,3a
2019-07-12_140500:340,-0.476379,0.013213999999999998,-0.081329,-0.00731,-0.011355,0.002892,-46.75,1.37,10.37,3a
2019-07-12_140500:360,-0.484497,0.013702,-0.085388,-0.008348000000000001,-0.011843000000000001,0.003167,-46.75,2.18,9.56,3a
2019-07-12_140500:380,-0.48754899999999995,0.013702,-0.08590700000000001,-0.009415999999999999,-0.011691,0.003655,-46.75,2.18,9.56,3a
2019-07-12_140500:400,-0.496704,0.012695,-0.08996599999999999,-0.010423,-0.010836,0.004296,-46.75,2.18,9.56,3a
2019-07-12_140500:420,-0.498749,0.012695,-0.090485,-0.011613,-0.009036,0.004357,-46.75,1.37,8.87,3a
2019-07-12_140500:440,-0.496704,0.012177,-0.08843999999999999,-0.012528000000000001,-0.006594,0.004052,-46.75,1.37,8.87,3a
2019-07-12_140500:460,-0.495697,0.012177,-0.092529,-0.013261000000000002,-0.004458,0.0035020000000000003,-47.060001,2.5,7.25,3a
2019-07-12_140500:480,-0.48553500000000005,0.009644,-0.09201000000000001,-0.014115,-0.003085,0.0037770000000000004,-47.060001,2.5,7.25,3a
2019-07-12_140500:500,-0.486023,0.001007,-0.09201000000000001,-0.013535,-0.002718,0.004784,-47.060001,2.5,7.25,3a
2019-07-12_140500:520,-0.48553500000000005,-0.007599,-0.091003,-0.012467,-0.001559,0.004021,-46.369999,2.18,7.25,3a
2019-07-12_140500:540,-0.478912,-0.009644,-0.091003,-0.010545,-0.000643,0.003319,-46.369999,2.18,7.25,3a
2019-07-12_140500:560,-0.470276,-0.009644,-0.09201000000000001,-0.008409,-0.000643,0.00396,-46.369999,2.87,7.25,3a
2019-07-12_140500:580,-0.46670500000000004,-0.010651,-0.092529,-0.006639,-0.001864,0.004845,-46.369999,2.87,7.25,3a
2019-07-12_140500:600,-0.47079499999999996,-0.008636,-0.09454299999999999,-0.005204,-0.003939,0.005699,-46.369999,2.87,7.25,3a
2019-07-12_140500:620,-0.473846,-0.006592,-0.09454299999999999,-0.004411,-0.0059229999999999994,0.006829000000000001,-46.75,2.18,8.87,3a
2019-07-12_140500:640,-0.47943100000000005,-0.007599,-0.096069,-0.003739,-0.006716,0.006768000000000001,-46.75,2.18,8.87,3a
2019-07-12_140500:660,-0.484009,-0.008118,-0.097107,-0.003953,-0.006899,0.006035,-46.369999,2.87,8.37,3a
2019-07-12_140500:680,-0.490601,-0.009644,-0.096069,-0.004014,-0.006503,0.005913,-46.369999,2.87,8.37,3a
2019-07-12_140500:700,-0.490601,-0.011169,-0.097595,-0.004014,-0.00519,0.005577,-46.369999,2.87,8.37,3a
2019-07-12_140500:720,-0.48706099999999997,-0.010651,-0.099121,-0.004197,-0.003664,0.004448,-47.869999,2.87,8.87,3a
2019-07-12_140500:740,-0.484009,-0.010162000000000001,-0.09963999999999999,-0.004197,-0.0027489999999999997,0.003105,-47.869999,2.87,8.87,3a
2019-07-12_140500:760,-0.485016,-0.010651,-0.098633,-0.004472,-0.002322,0.002129,-46.75,2.5,7.25,3a
2019-07-12_140500:780,-0.48706099999999997,-0.009125,-0.09811399999999999,-0.004533,-0.001955,0.0014269999999999999,-46.75,2.5,7.25,3a
2019-07-12_140500:800,-0.485016,-0.006592,-0.09301799999999999,-0.004472,-0.0009789999999999998,0.0007559999999999999,-46.75,2.5,7.25,3a
2019-07-12_140500:820,-0.482483,-0.006072999999999999,-0.095062,-0.004197,-0.00036899999999999997,0.000481,-46.75,2.5,7.68,3a
2019-07-12_140500:840,-0.47180200000000005,-0.0035399999999999997,-0.095062,-0.003861,-0.00043,2.3e-05,-46.75,2.5,7.68,3a
2019-07-12_140500:860,-0.474854,-0.001495,-0.097107,-0.003953,-0.0016809999999999998,-0.00132,-47.5,1.37,7.68,3a
2019-07-12_140500:880,-0.477386,0.000488,-0.09811399999999999,-0.004075,-0.0027489999999999997,-0.0021739999999999997,-47.5,1.37,7.68,3a
2019-07-12_140500:900,-0.477386,0.000488,-0.097595,-0.00435,-0.0037869999999999996,-0.00132,-47.5,1.37,7.68,3a
2019-07-12_140500:920,-0.477386,0.0,-0.100159,-0.003739,-0.004061,-0.001106,-47.060001,2.5,7.68,3a
2019-07-12_140500:940,-0.47943100000000005,0.002014,-0.098633,-0.003617,-0.004,-0.001838,-47.060001,2.5,7.68,3a
2019-07-12_140500:960,-0.48349,0.0055850000000000006,-0.09963999999999999,-0.003221,-0.003725,-0.001777,-47.5,2.5,6.87,3a
2019-07-12_140500:980,-0.485016,0.005065999999999999,-0.09963999999999999,-0.002732,-0.002932,-0.000709,-47.5,2.5,6.87,3a
2019-07-12_140501:000,-0.485016,0.006072999999999999,-0.098633,-0.0024879999999999998,-0.002139,-0.000526,-47.5,2.5,6.87,3a
2019-07-12_140501:020,-0.481476,0.0055850000000000006,-0.100159,-0.002671,-0.0017420000000000003,-0.000892,-47.060001,2.5,8.06,3a
2019-07-12_140501:040,-0.482483,0.005065999999999999,-0.097595,-0.002549,-0.0012230000000000001,-0.00018999999999999998,-47.060001,2.5,8.06,3a
2019-07-12_140501:060,-0.477905,0.004059,-0.097595,-0.002091,-0.000582,0.000359,-46.75,2.18,8.06,3a
2019-07-12_140501:080,-0.47842399999999996,0.005065999999999999,-0.097595,-0.001542,-0.00045999999999999996,-0.00037400000000000004,-46.75,2.18,8.06,3a
2019-07-12_140501:100,-0.47433500000000006,0.007599,-0.099121,-0.0008710000000000001,-0.0010400000000000001,-0.001167,-46.75,2.18,8.06,3a
2019-07-12_140501:120,-0.472321,0.011169,-0.099121,-0.000566,-0.001955,-0.001442,-47.060001,2.18,7.25,3a
2019-07-12_140501:140,-0.475372,0.012177,-0.100159,-0.001267,-0.0036030000000000003,-0.001045,-47.060001,2.18,7.25,3a
2019-07-12_140501:160,-0.47943100000000005,0.013213999999999998,-0.099121,-0.001939,-0.004458,-0.000648,-47.060001,1.75,7.68,3a
2019-07-12_140501:180,-0.48043800000000003,0.013213999999999998,-0.09963999999999999,-0.003129,-0.004336,-0.000251,-47.060001,1.75,7.68,3a
2019-07-12_140501:200,-0.482483,0.012177,-0.100647,-0.003953,-0.004122,-0.000312,-47.060001,1.75,7.68,3a
2019-07-12_140501:220,-0.485016,0.012177,-0.100647,-0.004746,-0.003268,-0.00018999999999999998,-46.75,1.75,8.37,3a
2019-07-12_140501:240,-0.48196400000000006,0.011687999999999999,-0.10116599999999999,-0.004991,-0.0027489999999999997,0.000359,-46.75,1.75,8.37,3a
2019-07-12_140501:260,-0.482483,0.010162000000000001,-0.10116599999999999,-0.004807,-0.0025960000000000002,0.001,-47.869999,1.37,8.37,3a
2019-07-12_140501:280,-0.47943100000000005,0.009644,-0.099121,-0.004685,-0.002261,0.001,-47.869999,1.37,8.37,3a
2019-07-12_140501:300,-0.475372,0.011169,-0.09963999999999999,-0.004319,-0.002139,0.00103,-47.869999,1.37,8.37,3a
2019-07-12_140501:320,-0.47842399999999996,0.010651,-0.104218,-0.004472,-0.00281,0.001396,-46.75,1.0,7.25,3a
2019-07-12_140501:340,-0.476379,0.010651,-0.103699,-0.004807,-0.003054,0.0017929999999999999,-46.75,1.0,7.25,3a
2019-07-12_140501:360,-0.474854,0.009125,-0.105225,-0.005082,-0.003664,0.002129,-46.75,1.37,6.5,3a
2019-07-12_140501:380,-0.48300200000000004,0.008118,-0.106232,-0.005326,-0.003939,0.0023120000000000003,-46.75,1.37,6.5,3a
2019-07-12_140501:400,-0.48095699999999997,0.008118,-0.105743,-0.005265,-0.003664,0.002373,-46.75,1.37,6.5,3a
2019-07-12_140501:420,-0.47943100000000005,0.008636,-0.107269,-0.005448,-0.00339,0.002098,-47.060001,1.75,7.25,3a
2019-07-12_140501:440,-0.47842399999999996,0.010162000000000001,-0.110321,-0.005906000000000001,-0.0028710000000000003,0.0017629999999999998,-47.060001,1.75,7.25,3a
2019-07-12_140501:460,-0.482483,0.008636,-0.107269,-0.006547,-0.002535,0.00161,-47.869999,1.75,7.68,3a
2019-07-12_140501:480,-0.48349,0.007599,-0.105225,-0.007279000000000001,-0.001498,0.0017929999999999999,-47.869999,1.75,7.68,3a
2019-07-12_140501:500,-0.47943100000000005,0.0035399999999999997,-0.10318,-0.007615,-0.000582,0.00161,-47.869999,1.75,7.68,3a
2019-07-12_140501:520,-0.484009,0.001495,-0.103699,-0.007370999999999999,-3.3e-05,0.0009390000000000001,-46.369999,1.75,6.5,3a
2019-07-12_140501:540,-0.475861,0.0035399999999999997,-0.104218,-0.006944,0.000272,-0.00018999999999999998,-46.369999,1.75,6.5,3a
2019-07-12_140501:560,-0.471283,0.0035399999999999997,-0.104218,-0.006089,-0.000246,0.000206,-46.75,1.75,7.68,3a
2019-07-12_140501:580,-0.476379,0.0055850000000000006,-0.10318,-0.005204,-0.001376,0.001335,-46.75,1.75,7.68,3a
2019-07-12_140501:600,-0.475372,0.007111,-0.104218,-0.0054789999999999995,-0.002322,0.0014880000000000002,-46.75,1.75,7.68,3a
2019-07-12_140501:620,-0.477905,0.009125,-0.104706,-0.005784,-0.0024739999999999996,0.000817,-47.060001,2.5,7.25,3a
2019-07-12_140501:640,-0.47689799999999993,0.006592,-0.104706,-0.0065769999999999995,-0.0025960000000000002,0.000298,-47.060001,2.5,7.25,3a
2019-07-12_140501:660,-0.478912,0.0035399999999999997,-0.10775799999999999,-0.006822,-0.002261,-9.9e-05,-47.060001,2.18,6.5,3a
2019-07-12_140501:680,-0.48196400000000006,0.0030210000000000002,-0.10775799999999999,-0.006486,-0.0024129999999999998,-0.000496,-47.060001,2.18,6.5,3a
2019-07-12_140501:700,-0.48654200000000003,0.004059,-0.10775799999999999,-0.0056619999999999995,-0.002078,-0.00018999999999999998,-47.060001,2.18,6.5,3a
2019-07-12_140501:720,-0.484009,0.006592,-0.10675,-0.004991,-0.001376,0.000634,-46.369999,1.37,7.68,3a
2019-07-12_140501:740,-0.48349,0.0055850000000000006,-0.105743,-0.004533,-0.000185,0.000878,-46.369999,1.37,7.68,3a
2019-07-12_140501:760,-0.48349,0.006592,-0.107269,-0.004411,0.000547,-0.000648,-46.75,2.18,6.87,3a
2019-07-12_140501:780,-0.47943100000000005,0.009644,-0.102173,-0.004014,0.001279,-0.001228,-46.75,2.18,6.87,3a
2019-07-12_140501:800,-0.48300200000000004,0.010162000000000001,-0.103699,-0.002885,0.001401,8.4e-05,-46.75,2.18,6.87,3a
2019-07-12_140501:820,-0.48043800000000003,0.010651,-0.098633,-0.001756,0.002073,0.001,-47.5,1.37,6.87,3a
2019-07-12_140501:840,-0.477905,0.013213999999999998,-0.099121,-0.000901,0.002561,0.001396,-47.5,1.37,6.87,3a
2019-07-12_140501:860,-0.47180200000000005,0.016266,-0.099121,0.000167,0.0026219999999999998,0.002434,-47.869999,1.75,7.68,3a
2019-07-12_140501:880,-0.47332799999999997,0.017792,-0.097595,0.00022799999999999999,0.0016760000000000002,0.002434,-47.869999,1.75,7.68,3a
2019-07-12_140501:900,-0.47433500000000006,0.023375999999999997,-0.097595,-0.00081,0.000669,0.002648,-47.869999,1.75,7.68,3a
2019-07-12_140501:920,-0.47332799999999997,0.021851,-0.09811399999999999,-0.0026100000000000003,-0.00043,0.0038380000000000003,-46.369999,1.75,7.25,3a
2019-07-12_140501:940,-0.474854,0.021851,-0.098633,-0.005326,-0.001376,0.003563,-46.369999,1.75,7.25,3a
2019-07-12_140501:960,-0.47689799999999993,0.020844,-0.098633,-0.008103,-0.0017420000000000003,0.002373,-48.25,2.18,7.25,3a
2019-07-12_140501:980,-0.475372,0.017273,-0.095581,-0.010423,-0.002261,0.001549,-48.25,2.18,7.25,3a
2019-07-12_140502:000,-0.477386,0.014740000000000001,-0.09811399999999999,-0.012528000000000001,-0.002535,0.001732,-48.25,2.18,7.25,3a
2019-07-12_140502:020,-0.48043800000000003,0.011169,-0.100159,-0.013322,-0.002932,0.0021899999999999997,-46.75,1.37,8.37,3a
2019-07-12_140502:040,-0.477386,0.010162000000000001,-0.097595,-0.013383,-0.0025960000000000002,0.002709,-46.75,1.37,8.37,3a
2019-07-12_140502:060,-0.476379,0.008636,-0.103699,-0.012863999999999999,-0.0027489999999999997,0.0033799999999999998,-47.5,1.37,7.25,3a
2019-07-12_140502:080,-0.477905,0.007111,-0.103699,-0.011734999999999999,-0.003725,0.0035020000000000003,-47.5,1.37,7.25,3a
2019-07-12_140502:100,-0.484009,0.0055850000000000006,-0.106232,-0.010606,-0.00458,0.003655,-47.5,1.37,7.25,3a
2019-07-12_140502:120,-0.48300200000000004,0.004059,-0.10775799999999999,-0.008897,-0.004855,0.004174000000000001,-47.5,1.75,6.87,3a
2019-07-12_140502:140,-0.481476,0.005065999999999999,-0.10775799999999999,-0.006973999999999999,-0.004336,0.004052,-47.5,1.75,6.87,3a
2019-07-12_140502:160,-0.485016,0.007599,-0.108795,-0.005815,-0.003878,0.0037770000000000004,-47.060001,1.37,7.25,3a
2019-07-12_140502:180,-0.48706099999999997,0.007111,-0.10775799999999999,-0.004869,-0.0027489999999999997,0.005364,-47.060001,1.37,7.25,3a
2019-07-12_140502:200,-0.490112,0.007111,-0.10116599999999999,-0.004411,-0.000826,0.007286,-47.060001,1.37,7.25,3a
2019-07-12_140502:220,-0.48553500000000005,0.007599,-0.10116599999999999,-0.004807,0.001279,0.006768000000000001,-48.560001,1.75,8.37,3a
2019-07-12_140502:240,-0.47332799999999997,0.007111,-0.10116599999999999,-0.005265,0.002225,0.005822,-48.560001,1.75,8.37,3a
2019-07-12_140502:260,-0.470276,0.0055850000000000006,-0.09963999999999999,-0.00554,0.00134,0.005089,-47.869999,2.5,7.68,3a
2019-07-12_140502:280,-0.481476,0.0025329999999999997,-0.096069,-0.005906000000000001,0.000303,0.004509,-47.869999,2.5,7.68,3a
2019-07-12_140502:300,-0.48095699999999997,0.000488,-0.09454299999999999,-0.006364,0.000303,0.004448,-47.869999,2.5,7.68,3a
2019-07-12_140502:320,-0.47689799999999993,-0.001007,-0.092529,-0.006181,0.000547,0.004296,-47.060001,2.5,8.06,3a
2019-07-12_140502:340,-0.471283,-0.0030210000000000002,-0.096069,-0.006242,-0.00036899999999999997,0.0035020000000000003,-47.060001,2.5,8.06,3a
2019-07-12_140502:360,-0.46823100000000006,-0.0035399999999999997,-0.097107,-0.005845,-0.002352,0.004113,-47.060001,2.18,7.68,3a
2019-07-12_140502:380,-0.473846,-0.006592,-0.09963999999999999,-0.005326,-0.003085,0.004418,-47.060001,2.18,7.68,3a
2019-07-12_140502:400,-0.48043800000000003,-0.008118,-0.10116599999999999,-0.004654999999999999,-0.004122,0.004692,-47.060001,2.18,7.68,3a
2019-07-12_140502:420,-0.48095699999999997,-0.010651,-0.100159,-0.003922,-0.004183,0.004113,-47.5,1.75,8.06,3a
2019-07-12_140502:440,-0.48754899999999995,-0.008636,-0.102692,-0.0036780000000000003,-0.003878,0.00277,-47.5,1.75,8.06,3a
2019-07-12_140502:460,-0.48754899999999995,-0.009125,-0.10318,-0.0034649999999999998,-0.0025960000000000002,0.003319,-46.369999,1.75,7.25,3a
2019-07-12_140502:480,-0.48706099999999997,-0.009644,-0.099121,-0.0035259999999999996,-0.001101,0.002587,-46.369999,1.75,7.25,3a
2019-07-12_140502:500,-0.48196400000000006,-0.007599,-0.09963999999999999,-0.003343,8.9e-05,0.000206,-46.369999,1.75,7.25,3a
2019-07-12_140502:520,-0.47280900000000003,-0.004547,-0.100647,-0.003221,-0.000307,-0.00251,-47.5,1.75,8.06,3a
2019-07-12_140502:540,-0.47280900000000003,0.0,-0.100159,-0.003221,-0.001498,-0.003303,-47.5,1.75,8.06,3a
2019-07-12_140502:560,-0.475372,0.0025329999999999997,-0.100647,-0.003404,-0.002535,-0.0021739999999999997,-47.060001,2.5,7.68,3a
2019-07-12_140502:580,-0.478912,0.006072999999999999,-0.099121,-0.003739,-0.0028710000000000003,-0.000892,-47.060001,2.5,7.68,3a
2019-07-12_140502:600,-0.48095699999999997,0.007599,-0.098633,-0.004654999999999999,-0.002657,-0.001167,-47.060001,2.5,7.68,3a
2019-07-12_140502:620,-0.47943100000000005,0.009125,-0.100159,-0.005052,-0.002718,-0.00196,-46.75,2.5,7.68,3a
2019-07-12_140502:640,-0.477386,0.009644,-0.100159,-0.005967,-0.003207,-0.0020210000000000002,-46.75,2.5,7.68,3a
2019-07-12_140502:660,-0.477905,0.011169,-0.101685,-0.006242,-0.003725,-0.000923,-46.369999,1.75,8.06,3a
2019-07-12_140502:680,-0.478912,0.010651,-0.102173,-0.006944,-0.0042439999999999995,8.4e-05,-46.369999,1.75,8.06,3a
2019-07-12_140502:700,-0.47943100000000005,0.008118,-0.104706,-0.007279000000000001,-0.004458,0.000603,-46.369999,1.75,8.06,3a
2019-07-12_140502:720,-0.478912,0.006592,-0.104706,-0.007279000000000001,-0.004275,0.0007559999999999999,-47.5,2.18,8.37,3a
2019-07-12_140502:740,-0.48196400000000006,0.006592,-0.104706,-0.006973999999999999,-0.003939,0.001274,-47.5,2.18,8.37,3a
2019-07-12_140502:760,-0.484009,0.007111,-0.105225,-0.006883,-0.00339,0.001854,-47.060001,2.18,6.87,3a
2019-07-12_140502:780,-0.47842399999999996,0.007599,-0.103699,-0.007279000000000001,-0.002993,0.0019149999999999998,-47.060001,2.18,6.87,3a
2019-07-12_140502:800,-0.47842399999999996,0.008118,-0.105225,-0.007554000000000001,-0.002932,0.001732,-47.060001,2.18,6.87,3a
2019-07-12_140502:820,-0.48349,0.007111,-0.105225,-0.008286,-0.0025960000000000002,0.001549,-47.869999,2.5,7.68,3a
2019-07-12_140502:840,-0.48043800000000003,0.007111,-0.10318,-0.008836,-0.0024739999999999996,0.001274,-47.869999,2.5,7.68,3a
2019-07-12_140502:860,-0.477386,0.005065999999999999,-0.104706,-0.008744,-0.001864,0.000878,-47.5,2.18,6.87,3a
2019-07-12_140502:880,-0.478912,0.0035399999999999997,-0.103699,-0.0085,-0.002261,-0.000587,-47.5,2.18,6.87,3a
2019-07-12_140502:900,-0.475372,0.0055850000000000006,-0.10675,-0.008012,-0.002932,-0.000984,-47.5,2.18,6.87,3a
2019-07-12_140502:920,-0.47280900000000003,0.006592,-0.10675,-0.0076760000000000005,-0.004061,0.000481,-47.060001,2.5,7.25,3a
2019-07-12_140502:940,-0.474854,0.008118,-0.107269,-0.007156999999999999,-0.004336,0.001152,-47.060001,2.5,7.25,3a
2019-07-12_140502:960,-0.478912,0.008118,-0.107269,-0.00731,-0.003878,0.000481,-47.060001,1.0,7.68,3a
2019-07-12_140502:980,-0.478912,0.009644,-0.10775799999999999,-0.007370999999999999,-0.0034509999999999996,0.000359,-47.060001,1.0,7.68,3a
2019-07-12_140503:000,-0.47995,0.009644,-0.105743,-0.007431999999999999,-0.00281,0.001335,-47.060001,1.0,7.68,3a
2019-07-12_140503:020,-0.48043800000000003,0.007111,-0.108276,-0.007431999999999999,-0.0025960000000000002,0.0017929999999999999,-47.060001,1.37,6.87,3a
2019-07-12_140503:040,-0.477905,0.006592,-0.106232,-0.007554000000000001,-0.0027489999999999997,0.0016710000000000002,-47.060001,1.37,6.87,3a
2019-07-12_140503:060,-0.478912,0.005065999999999999,-0.10928299999999999,-0.007615,-0.0027489999999999997,0.0014269999999999999,-47.5,1.37,6.18,3a
2019-07-12_140503:080,-0.477386,0.0055850000000000006,-0.110321,-0.0072180000000000005,-0.002932,0.000359,-47.5,1.37,6.18,3a
2019-07-12_140503:100,-0.475372,0.0030210000000000002,-0.107269,-0.0067,-0.0034509999999999996,-0.00132,-47.5,1.37,6.18,3a
2019-07-12_140503:120,-0.47689799999999993,0.0055850000000000006,-0.109802,-0.006089,-0.003329,-0.00251,-47.5,1.0,7.25,3a
2019-07-12_140503:140,-0.47433500000000006,0.007111,-0.105743,-0.004869,-0.003848,-0.0018989999999999999,-47.5,1.0,7.25,3a
2019-07-12_140503:160,-0.475861,0.009644,-0.10928299999999999,-0.004197,-0.0037869999999999996,-0.001442,-47.5,1.75,7.25,3a
2019-07-12_140503:180,-0.475861,0.011169,-0.109802,-0.002793,-0.0034509999999999996,-0.002235,-47.5,1.75,7.25,3a
2019-07-12_140503:200,-0.475861,0.014740000000000001,-0.10928299999999999,-0.002275,-0.003146,-0.001655,-47.5,1.75,7.25,3a
2019-07-12_140503:220,-0.47842399999999996,0.016753999999999998,-0.11080899999999999,-0.001939,-0.003054,-0.000892,-47.060001,1.37,5.37,3a
2019-07-12_140503:240,-0.477905,0.019318000000000002,-0.110321,-0.00203,-0.003085,0.000267,-47.060001,1.37,5.37,3a
2019-07-12_140503:260,-0.47689799999999993,0.021332,-0.11233499999999999,-0.002397,-0.003268,0.00042,-47.5,1.0,6.18,3a
2019-07-12_140503:280,-0.477905,0.020844,-0.111847,-0.003129,-0.002993,0.00103,-47.5,1.0,6.18,3a
2019-07-12_140503:300,-0.477905,0.020844,-0.111328,-0.0038,-0.003054,0.00161,-47.5,1.0,6.18,3a
2019-07-12_140503:320,-0.47842399999999996,0.017273,-0.113373,-0.003861,-0.002932,0.0016710000000000002,-47.060001,1.37,6.5,3a
2019-07-12_140503:340,-0.475861,0.017792,-0.110321,-0.004197,-0.002993,0.0017929999999999999,-47.060001,1.37,6.5,3a
2019-07-12_140503:360,-0.477386,0.017273,-0.112854,-0.004258,-0.0028710000000000003,0.002434,-47.869999,1.0,6.18,3a
2019-07-12_140503:380,-0.47689799999999993,0.015747,-0.113373,-0.00435,-0.002718,0.003624,-47.869999,1.0,6.18,3a
2019-07-12_140503:400,-0.47842399999999996,0.016266,-0.11080899999999999,-0.004533,-0.0022,0.004052,-47.869999,1.0,6.18,3a
2019-07-12_140503:420,-0.477386,0.015228,-0.11233499999999999,-0.004594,-0.002139,0.004174000000000001,-47.5,1.37,6.87,3a
2019-07-12_140503:440,-0.47842399999999996,0.014740000000000001,-0.109802,-0.004991,-0.001254,0.0054859999999999996,-47.5,1.37,6.87,3a
2019-07-12_140503:460,-0.47180200000000005,0.013213999999999998,-0.111847,-0.005052,-0.000857,0.005699,-47.5,1.37,6.87,3a
2019-07-12_140503:480,-0.467224,0.013213999999999998,-0.11233499999999999,-0.004411,-0.001101,0.004357,-47.869999,1.37,6.5,3a
2019-07-12_140503:500,-0.47842399999999996,0.013213999999999998,-0.109802,-0.004075,-0.0017420000000000003,0.004052,-47.869999,1.37,6.5,3a
2019-07-12_140503:520,-0.477386,0.012695,-0.112854,-0.004075,-0.0022,0.005242,-47.5,1.75,6.87,3a
2019-07-12_140503:540,-0.475372,0.011169,-0.109802,-0.003617,-0.002993,0.009606,-47.5,1.75,6.87,3a
2019-07-12_140503:560,-0.48196400000000006,0.008636,-0.11438,-0.0038,-0.002932,0.009758,-47.5,1.75,6.87,3a
2019-07-12_140503:580,-0.47842399999999996,0.008118,-0.11386099999999999,-0.004685,-0.002718,0.009606,-47.869999,1.37,6.18,3a
2019-07-12_140503:600,-0.481476,0.001495,-0.11233499999999999,-0.0049299999999999995,-0.002535,0.009758,-47.869999,1.37,6.18,3a
2019-07-12_140503:620,-0.485016,-0.001495,-0.113373,-0.005082,-0.001437,0.009026000000000001,-47.869999,1.75,6.87,3a
2019-07-12_140503:640,-0.48043800000000003,-0.0025329999999999997,-0.10928299999999999,-0.005143,0.000272,0.006951000000000001,-47.869999,1.75,6.87,3a
2019-07-12_140503:660,-0.478912,-0.005065999999999999,-0.109802,-0.005143,0.001157,0.005761,-47.869999,1.75,6.87,3a
2019-07-12_140503:680,-0.47433500000000006,-0.004059,-0.11080899999999999,-0.005082,0.000883,0.004967,-47.060001,1.75,7.25,3a
2019-07-12_140503:700,-0.474854,-0.005065999999999999,-0.10928299999999999,-0.005052,0.00015,0.004052,-47.060001,1.75,7.25,3a
2019-07-12_140503:720,-0.477386,-0.004059,-0.10775799999999999,-0.0049299999999999995,-0.000124,0.004021,-48.25,2.87,5.37,3a
2019-07-12_140503:740,-0.48196400000000006,-0.0035399999999999997,-0.10775799999999999,-0.004991,-0.0007650000000000001,0.0037159999999999997,-48.25,2.87,5.37,3a
2019-07-12_140503:760,-0.475372,-0.004547,-0.10675,-0.004991,-0.00045999999999999996,0.0034409999999999996,-47.060001,2.5,6.5,3a
2019-07-12_140503:780,-0.47689799999999993,-0.002014,-0.110321,-0.005601,-0.000857,0.001854,-47.060001,2.5,6.5,3a
2019-07-12_140503:800,-0.475372,0.0,-0.108276,-0.005784,-0.0009789999999999998,0.002037,-47.060001,2.5,6.5,3a
2019-07-12_140503:820,-0.476379,-0.001007,-0.108276,-0.005967,-0.0012230000000000001,0.003563,-46.75,2.5,5.68,3a
2019-07-12_140503:840,-0.47995,-0.0035399999999999997,-0.10775799999999999,-0.0065769999999999995,-0.0018030000000000001,0.004052,-46.75,2.5,5.68,3a
2019-07-12_140503:860,-0.477905,-0.004059,-0.10928299999999999,-0.007035,-0.001437,0.004418,-46.75,2.5,5.68,3a
2019-07-12_140503:880,-0.475861,-0.009125,-0.108795,-0.0072180000000000005,-0.001376,0.00457,-46.369999,2.18,5.68,3a
2019-07-12_140503:900,-0.475861,-0.010651,-0.108795,-0.007156999999999999,-0.0017420000000000003,0.0033799999999999998,-46.369999,2.18,5.68,3a
2019-07-12_140503:920,-0.47689799999999993,-0.011687999999999999,-0.110321,-0.006883,-0.0016809999999999998,0.0033799999999999998,-46.369999,2.5,6.5,3a
2019-07-12_140503:940,-0.478912,-0.013213999999999998,-0.10928299999999999,-0.006028,-0.001498,0.0035020000000000003,-46.369999,2.5,6.5,3a
2019-07-12_140503:960,-0.48095699999999997,-0.014221000000000001,-0.111847,-0.0056619999999999995,-0.001559,0.003105,-47.5,2.5,6.18,3a
2019-07-12_140503:980,-0.47995,-0.012177,-0.10928299999999999,-0.004411,-0.000857,0.002495,-47.5,2.5,6.18,3a
2019-07-12_140504:000,-0.47995,-0.011687999999999999,-0.110321,-0.00435,-0.0010400000000000001,0.002434,-47.5,2.5,6.18,3a
2019-07-12_140504:020,-0.47943100000000005,-0.010651,-0.109802,-0.0036780000000000003,-0.000643,0.002129,-47.060001,2.18,6.18,3a
2019-07-12_140504:040,-0.477386,-0.007111,-0.10775799999999999,-0.0036780000000000003,-0.000582,0.0014269999999999999,-47.060001,2.18,6.18,3a
2019-07-12_140504:060,-0.475861,-0.007599,-0.111328,-0.004075,-0.000918,0.001213,-47.060001,2.18,6.18,3a
2019-07-12_140504:080,-0.47689799999999993,-0.008118,-0.110321,-0.004258,-0.001101,0.001091,-47.869999,2.87,6.87,3a
2019-07-12_140504:100,-0.478912,-0.008636,-0.108276,-0.004411,-0.001101,0.000878,-47.869999,2.87,6.87,3a
2019-07-12_140504:120,-0.47842399999999996,-0.008636,-0.110321,-0.004258,-0.0012230000000000001,0.000817,-46.369999,2.18,6.5,3a
2019-07-12_140504:140,-0.477386,-0.007111,-0.106232,-0.004136,-0.0007650000000000001,0.0007559999999999999,-46.369999,2.18,6.5,3a
2019-07-12_140504:160,-0.477386,-0.0055850000000000006,-0.110321,-0.004411,-0.0011619999999999998,0.00103,-46.369999,2.18,6.5,3a
2019-07-12_140504:180,-0.472321,-0.006592,-0.109802,-0.004594,-0.001376,0.001152,-47.060001,2.87,7.25,3a
2019-07-12_140504:200,-0.47943100000000005,-0.004547,-0.11080899999999999,-0.0049299999999999995,-0.00162,8.4e-05,-47.060001,2.87,7.25,3a
2019-07-12_140504:220,-0.478912,-0.004547,-0.111847,-0.005204,-0.001925,-0.00037400000000000004,-47.5,1.75,7.25,3a
2019-07-12_140504:240,-0.477386,-0.006592,-0.10928299999999999,-0.005326,-0.002261,0.00103,-47.5,1.75,7.25,3a
2019-07-12_140504:260,-0.48300200000000004,-0.006072999999999999,-0.111328,-0.005143,-0.0024129999999999998,0.0017929999999999999,-47.060001,2.5,6.5,3a
2019-07-12_140504:280,-0.48300200000000004,-0.006592,-0.108795,-0.005386999999999999,-0.0018030000000000001,0.0014880000000000002,-47.060001,2.5,6.5,3a
2019-07-12_140504:300,-0.48095699999999997,-0.007111,-0.108276,-0.0054789999999999995,-0.000857,0.00161,-47.060001,2.5,6.5,3a
2019-07-12_140504:320,-0.47842399999999996,-0.008636,-0.10928299999999999,-0.005723,-0.00045999999999999996,0.0017629999999999998,-46.75,1.75,6.5,3a
2019-07-12_140504:340,-0.476379,-0.008636,-0.107269,-0.006028,-0.000582,0.001335,-46.75,1.75,6.5,3a
2019-07-12_140504:360,-0.473846,-0.009125,-0.10775799999999999,-0.006028,-0.000826,0.0007559999999999999,-47.869999,2.5,6.5,3a
2019-07-12_140504:380,-0.475861,-0.010162000000000001,-0.10775799999999999,-0.005723,-0.00162,0.000695,-47.869999,2.5,6.5,3a
2019-07-12_140504:400,-0.471283,-0.009644,-0.10675,-0.005386999999999999,-0.002322,0.000817,-47.869999,2.5,6.5,3a
2019-07-12_140504:420,-0.47332799999999997,-0.008636,-0.10928299999999999,-0.005143,-0.00281,0.000145,-47.060001,2.5,6.18,3a
2019-07-12_140504:440,-0.475372,-0.0055850000000000006,-0.110321,-0.005326,-0.00339,-0.00043499999999999995,-47.060001,2.5,6.18,3a
2019-07-12_140504:460,-0.474854,-0.0055850000000000006,-0.111847,-0.005204,-0.003939,-0.000251,-47.060001,2.5,6.18,3a
2019-07-12_140504:480,-0.47842399999999996,-0.0025329999999999997,-0.11233499999999999,-0.005448,-0.004061,-0.000709,-47.060001,1.75,7.25,3a
2019-07-12_140504:500,-0.477386,-0.000488,-0.11233499999999999,-0.005448,-0.003939,-0.00132,-47.060001,1.75,7.25,3a
2019-07-12_140504:520,-0.474854,0.0,-0.113373,-0.005784,-0.0036030000000000003,-0.00132,-47.060001,2.18,7.25,3a
2019-07-12_140504:540,-0.47433500000000006,0.001007,-0.11438,-0.006242,-0.0034509999999999996,-0.00132,-47.060001,2.18,7.25,3a
2019-07-12_140504:560,-0.47433500000000006,0.004547,-0.115906,-0.0067,-0.00339,-0.001655,-47.060001,2.18,7.25,3a
2019-07-12_140504:580,-0.476379,0.004547,-0.117432,-0.006973999999999999,-0.003725,-0.001716,-46.75,1.75,7.25,3a
2019-07-12_140504:600,-0.47943100000000005,0.006072999999999999,-0.117432,-0.007431999999999999,-0.003725,-0.001503,-46.75,1.75,7.25,3a
2019-07-12_140504:620,-0.48095699999999997,0.0055850000000000006,-0.11691300000000002,-0.007156999999999999,-0.003146,-0.001259,-47.060001,1.75,7.25,3a
2019-07-12_140504:640,-0.485016,0.006592,-0.116425,-0.007156999999999999,-0.0022,-0.001106,-47.060001,1.75,7.25,3a
2019-07-12_140504:660,-0.48196400000000006,0.008118,-0.115906,-0.007156999999999999,-0.001101,-0.000587,-47.060001,1.75,7.25,3a
2019-07-12_140504:680,-0.48349,0.007599,-0.11538699999999999,-0.006944,-0.00045999999999999996,0.000359,-47.060001,1.37,5.68,3a
2019-07-12_140504:700,-0.481476,0.007111,-0.112854,-0.006883,0.000364,0.001091,-47.060001,1.37,5.68,3a
2019-07-12_140504:720,-0.477386,0.006592,-0.111847,-0.006944,0.000883,0.00103,-47.060001,1.75,6.87,3a
2019-07-12_140504:740,-0.47433500000000006,0.0055850000000000006,-0.108795,-0.0065769999999999995,0.001157,0.001,-47.060001,1.75,6.87,3a
2019-07-12_140504:760,-0.47332799999999997,0.0055850000000000006,-0.108795,-0.00615,0.0007,0.001274,-47.060001,1.75,6.87,3a
2019-07-12_140504:780,-0.47079499999999996,0.006072999999999999,-0.10775799999999999,-0.005784,0.000425,0.0019149999999999998,-48.25,1.37,6.87,3a
2019-07-12_140504:800,-0.46670500000000004,0.006072999999999999,-0.111847,-0.005204,-0.000643,0.0028309999999999997,-48.25,1.37,6.87,3a
2019-07-12_140504:820,-0.46569799999999995,0.006592,-0.109802,-0.004807,-0.0017420000000000003,0.003167,-47.369999,2.18,6.5,3a
2019-07-12_140504:840,-0.47280900000000003,0.007111,-0.11233499999999999,-0.004746,-0.003054,0.0023120000000000003,-47.369999,2.18,6.5,3a
2019-07-12_140504:860,-0.475372,0.008636,-0.11386099999999999,-0.005204,-0.003848,0.001854,-47.369999,2.18,6.5,3a
2019-07-12_140504:880,-0.478912,0.007111,-0.11438,-0.00554,-0.004061,0.003319,-47.0,1.37,6.5,3a
2019-07-12_140504:900,-0.484497,0.006072999999999999,-0.114899,-0.005906000000000001,-0.0034509999999999996,0.003899,-47.0,1.37,6.5,3a
2019-07-12_140504:920,-0.486023,0.004059,-0.11538699999999999,-0.006639,-0.001955,0.0030440000000000003,-46.25,1.37,6.87,3a
2019-07-12_140504:940,-0.484009,0.0055850000000000006,-0.11438,-0.0072180000000000005,-0.00043,0.003105,-46.25,1.37,6.87,3a
2019-07-12_140504:960,-0.48349,0.0025329999999999997,-0.112854,-0.007615,0.001005,0.0037159999999999997,-46.25,1.37,6.87,3a
2019-07-12_140504:980,-0.484009,0.001007,-0.111847,-0.007951,0.001737,0.003258,-47.060001,1.75,6.18,3a
2019-07-12_140505:000,-0.485016,0.0,-0.108276,-0.008286,0.002225,0.002648,-47.060001,1.75,6.18,3a
2019-07-12_140505:020,-0.48754899999999995,-0.001007,-0.107269,-0.008073,0.002744,0.002648,-47.869999,1.75,6.18,3a
2019-07-12_140505:040,-0.48349,-0.000488,-0.101685,-0.0076760000000000005,0.003721,0.0019760000000000003,-47.869999,1.75,6.18,3a
2019-07-12_140505:060,-0.48043800000000003,0.000488,-0.10318,-0.007370999999999999,0.0038729999999999997,0.0007559999999999999,-47.869999,1.75,6.18,3a
2019-07-12_140505:080,-0.47689799999999993,0.0035399999999999997,-0.100159,-0.006761,0.003934,-9.9e-05,-46.68,2.18,6.87,3a
2019-07-12_140505:100,-0.472321,0.005065999999999999,-0.096588,-0.006089,0.0034159999999999998,-3.8e-05,-46.68,2.18,6.87,3a
2019-07-12_140505:120,-0.470276,0.006072999999999999,-0.097107,-0.005326,0.002805,0.000206,-47.0,1.75,5.37,3a
2019-07-12_140505:140,-0.466217,0.008118,-0.095581,-0.0049299999999999995,0.0014320000000000001,8.4e-05,-47.0,1.75,5.37,3a
2019-07-12_140505:160,-0.465179,0.009644,-0.098633,-0.004654999999999999,-9.4e-05,0.000878,-47.0,1.75,5.37,3a
2019-07-12_140505:180,-0.467743,0.009644,-0.098633,-0.004654999999999999,-0.001925,0.001213,-46.68,2.18,7.25,3a
2019-07-12_140505:200,-0.47079499999999996,0.011169,-0.100159,-0.004807,-0.003481,0.001091,-46.68,2.18,7.25,3a
2019-07-12_140505:220,-0.474854,0.011169,-0.102173,-0.0049299999999999995,-0.004336,0.0014269999999999999,-47.369999,1.37,8.37,3a
2019-07-12_140505:240,-0.477905,0.011169,-0.103699,-0.0054789999999999995,-0.005068,0.002129,-47.369999,1.37,8.37,3a
2019-07-12_140505:260,-0.48196400000000006,0.011169,-0.105743,-0.006089,-0.005372999999999999,0.00277,-47.369999,1.37,8.37,3a
2019-07-12_140505:280,-0.485016,0.009644,-0.105225,-0.006425,-0.005129,0.003105,-46.75,2.18,7.25,3a
2019-07-12_140505:300,-0.489594,0.007599,-0.10318,-0.007035,-0.0042439999999999995,0.0034409999999999996,-46.75,2.18,7.25,3a
2019-07-12_140505:320,-0.492126,0.006072999999999999,-0.104706,-0.007279000000000001,-0.0028710000000000003,0.003899,-47.5,1.37,6.87,3a
2019-07-12_140505:340,-0.488068,0.0025329999999999997,-0.100647,-0.007095999999999999,-0.000918,0.00396,-47.5,1.37,6.87,3a
2019-07-12_140505:360,-0.48196400000000006,0.001495,-0.10116599999999999,-0.0065769999999999995,0.000303,0.004052,-47.5,1.37,6.87,3a
2019-07-12_140505:380,-0.473846,0.0025329999999999997,-0.098633,-0.005723,0.000547,0.004845,-47.869999,2.18,6.5,3a
2019-07-12_140505:400,-0.467743,0.0,-0.100647,-0.0049299999999999995,-9.4e-05,0.005883,-47.869999,2.18,6.5,3a
2019-07-12_140505:420,-0.471283,-0.000488,-0.102173,-0.00435,-0.00281,0.007164,-47.369999,2.87,6.5,3a
2019-07-12_140505:440,-0.471283,-0.000488,-0.099121,-0.004472,-0.0034509999999999996,0.007439,-47.369999,2.87,6.5,3a
2019-07-12_140505:460,-0.469757,-0.0055850000000000006,-0.10318,-0.0049299999999999995,-0.004915999999999999,0.008140999999999999,-47.369999,2.87,6.5,3a
2019-07-12_140505:480,-0.47180200000000005,-0.008118,-0.102692,-0.0056619999999999995,-0.005801,0.007744,-45.869999,2.5,7.25,3a
2019-07-12_140505:500,-0.47433500000000006,-0.010651,-0.111328,-0.006761,-0.007449,0.005089,-45.869999,2.5,7.25,3a
2019-07-12_140505:520,-0.47332799999999997,-0.012177,-0.112854,-0.007279000000000001,-0.008364,0.004784,-47.060001,2.18,6.87,3a
2019-07-12_140505:540,-0.475861,-0.015747,-0.115906,-0.007279000000000001,-0.009158,0.005547,-47.060001,2.18,6.87,3a
2019-07-12_140505:560,-0.481476,-0.017792,-0.11691300000000002,-0.006883,-0.008517,0.004448,-47.060001,2.18,6.87,3a
2019-07-12_140505:580,-0.48553500000000005,-0.017273,-0.11691300000000002,-0.006486,-0.0071129999999999995,0.002648,-47.869999,1.75,6.87,3a
2019-07-12_140505:600,-0.484497,-0.016753999999999998,-0.11843900000000002,-0.005784,-0.005372999999999999,0.002373,-47.869999,1.75,6.87,3a
2019-07-12_140505:620,-0.47943100000000005,-0.016266,-0.121002,-0.004807,-0.004458,0.002526,-47.75,2.18,6.18,3a
2019-07-12_140505:640,-0.477905,-0.014740000000000001,-0.11843900000000002,-0.004014,-0.003725,0.002098,-47.75,2.18,6.18,3a
2019-07-12_140505:660,-0.478912,-0.012695,-0.12200899999999999,-0.003404,-0.003268,0.0019149999999999998,-47.75,2.18,6.18,3a
2019-07-12_140505:680,-0.47943100000000005,-0.010651,-0.121002,-0.002793,-0.0027489999999999997,0.001854,-47.369999,2.5,5.68,3a
2019-07-12_140505:700,-0.478912,-0.009125,-0.119476,-0.002397,-0.0024129999999999998,0.001213,-47.369999,2.5,5.68,3a
2019-07-12_140505:720,-0.476379,-0.008636,-0.12200899999999999,-0.002336,-0.0018030000000000001,-0.000129,-47.369999,2.87,6.5,3a
2019-07-12_140505:740,-0.472321,-0.004059,-0.11795,-0.002275,-0.002139,-0.000312,-47.369999,2.87,6.5,3a
2019-07-12_140505:760,-0.47332799999999997,-0.004059,-0.119965,-0.0018780000000000001,-0.002322,0.000359,-47.369999,2.87,6.5,3a
2019-07-12_140505:780,-0.47433500000000006,0.0,-0.11843900000000002,-0.002,-0.0024739999999999996,0.000542,-47.0,2.5,5.68,3a
2019-07-12_140505:800,-0.47180200000000005,0.0,-0.11795,-0.0022129999999999997,-0.002261,0.001274,-47.0,2.5,5.68,3a
2019-07-12_140505:820,-0.47180200000000005,0.002014,-0.119476,-0.0024879999999999998,-0.00281,0.0019760000000000003,-46.25,2.18,5.37,3a
2019-07-12_140505:840,-0.471283,0.0025329999999999997,-0.12200899999999999,-0.0034649999999999998,-0.0034509999999999996,0.002251,-46.25,2.18,5.37,3a
2019-07-12_140505:860,-0.474854,0.0,-0.122528,-0.004472,-0.003542,0.00277,-46.25,2.18,5.37,3a
2019-07-12_140505:880,-0.477905,-0.001495,-0.122528,-0.005265,-0.003725,0.0034409999999999996,-48.869999,1.37,5.68,3a
2019-07-12_140505:900,-0.48095699999999997,-0.0055850000000000006,-0.12200899999999999,-0.00554,-0.002932,0.003319,-48.869999,1.37,5.68,3a
2019-07-12_140505:920,-0.48043800000000003,-0.007599,-0.12149000000000001,-0.0056619999999999995,-0.0018030000000000001,0.0033799999999999998,-47.0,2.5,5.0,3a
2019-07-12_140505:940,-0.474854,-0.008118,-0.12048299999999999,-0.005448,-0.001437,0.004174000000000001,-47.0,2.5,5.0,3a
2019-07-12_140505:960,-0.47433500000000006,-0.011169,-0.12353499999999999,-0.0054789999999999995,-0.001437,0.004845,-47.0,2.5,5.0,3a
2019-07-12_140505:980,-0.47689799999999993,-0.011687999999999999,-0.121002,-0.0054789999999999995,-0.001559,0.004753,-46.25,2.87,5.68,3a
2019-07-12_140506:000,-0.477905,-0.014221000000000001,-0.121002,-0.005906000000000001,-0.001315,0.004296,-46.25,2.87,5.68,3a
2019-07-12_140506:020,-0.47943100000000005,-0.016753999999999998,-0.12048299999999999,-0.00615,-0.000704,0.003899,-46.68,2.87,5.68,3a
2019-07-12_140506:040,-0.47943100000000005,-0.017792,-0.11843900000000002,-0.006425,2.8000000000000003e-05,0.003167,-46.68,2.87,5.68,3a
2019-07-12_140506:060,-0.474854,-0.01828,-0.117432,-0.0063030000000000004,0.000303,0.0021899999999999997,-46.68,2.87,5.68,3a
2019-07-12_140506:080,-0.47280900000000003,-0.017792,-0.119965,-0.006181,-3.3e-05,0.001213,-47.0,2.5,6.5,3a
2019-07-12_140506:100,-0.475372,-0.016266,-0.116425,-0.006028,-0.000643,0.0007559999999999999,-47.0,2.5,6.5,3a
2019-07-12_140506:120,-0.47280900000000003,-0.015228,-0.11538699999999999,-0.00615,-0.000857,-3.8e-05,-46.68,2.87,6.18,3a
2019-07-12_140506:140,-0.471283,-0.013702,-0.117432,-0.006242,-0.0012230000000000001,-0.00037400000000000004,-46.68,2.87,6.18,3a
2019-07-12_140506:160,-0.47280900000000003,-0.013213999999999998,-0.115906,-0.006028,-0.0017420000000000003,-0.000892,-46.68,2.87,6.18,3a
2019-07-12_140506:180,-0.473846,-0.010162000000000001,-0.119476,-0.006181,-0.002261,-0.0018989999999999999,-46.25,3.25,6.18,3a
2019-07-12_140506:200,-0.473846,-0.008118,-0.117432,-0.005967,-0.003054,-0.001381,-46.25,3.25,6.18,3a
2019-07-12_140506:220,-0.477905,-0.007599,-0.117432,-0.005448,-0.003085,0.000145,-47.869999,3.25,5.68,3a
2019-07-12_140506:240,-0.47995,-0.0055850000000000006,-0.116425,-0.005448,-0.0024739999999999996,0.000298,-47.869999,3.25,5.68,3a
2019-07-12_140506:260,-0.47689799999999993,-0.004547,-0.11691300000000002,-0.005601,-0.001437,0.000145,-47.869999,3.25,5.68,3a
2019-07-12_140506:280,-0.47280900000000003,-0.0035399999999999997,-0.117432,-0.005448,-0.001254,0.0007559999999999999,-47.75,2.5,6.18,3a
2019-07-12_140506:300,-0.470276,-0.004547,-0.118958,-0.0056619999999999995,-0.001925,0.0007559999999999999,-47.75,2.5,6.18,3a
2019-07-12_140506:320,-0.47180200000000005,-0.004547,-0.121002,-0.00615,-0.002718,0.000634,-47.369999,2.5,5.68,3a
2019-07-12_140506:340,-0.47689799999999993,-0.007111,-0.11843900000000002,-0.005967,-0.003268,0.001091,-47.369999,2.5,5.68,3a
2019-07-12_140506:360,-0.474854,-0.008636,-0.12149000000000001,-0.00554,-0.002718,0.001213,-47.369999,2.5,5.68,3a
2019-07-12_140506:380,-0.477905,-0.007599,-0.118958,-0.004746,-0.002139,0.000634,-47.75,2.18,5.37,3a
2019-07-12_140506:400,-0.47995,-0.006072999999999999,-0.12048299999999999,-0.004136,-0.001955,0.000267,-47.75,2.18,5.37,3a
2019-07-12_140506:420,-0.477905,-0.005065999999999999,-0.119965,-0.0036780000000000003,-0.0012230000000000001,0.001396,-46.68,2.5,6.18,3a
2019-07-12_140506:440,-0.475372,-0.002014,-0.118958,-0.003343,-0.0010400000000000001,0.0019149999999999998,-46.68,2.5,6.18,3a
2019-07-12_140506:460,-0.474854,-0.002014,-0.118958,-0.003922,-0.0007650000000000001,0.001396,-46.68,2.5,6.18,3a
2019-07-12_140506:480,-0.47689799999999993,-0.0025329999999999997,-0.117432,-0.004472,-0.0007650000000000001,0.001335,-47.369999,2.18,5.68,3a
2019-07-12_140506:500,-0.475861,-0.004059,-0.11795,-0.005265,-0.000643,0.00161,-47.369999,2.18,5.68,3a
2019-07-12_140506:520,-0.473846,-0.004547,-0.11691300000000002,-0.005906000000000001,-0.000704,0.001213,-47.0,1.75,5.68,3a
2019-07-12_140506:540,-0.474854,-0.0055850000000000006,-0.116425,-0.006089,-0.0010400000000000001,0.001,-47.0,1.75,5.68,3a
2019-07-12_140506:560,-0.474854,-0.007111,-0.116425,-0.005815,-0.001254,0.0014269999999999999,-47.0,1.75,5.68,3a
2019-07-12_140506:580,-0.47433500000000006,-0.006072999999999999,-0.116425,-0.005815,-0.001101,0.0017629999999999998,-47.369999,2.18,6.87,3a
2019-07-12_140506:600,-0.475861,-0.005065999999999999,-0.116425,-0.005601,-0.0011619999999999998,0.0017629999999999998,-47.369999,2.18,6.87,3a
2019-07-12_140506:620,-0.47842399999999996,-0.004059,-0.11538699999999999,-0.0056619999999999995,-0.000857,0.002251,-46.25,2.5,5.37,3a
2019-07-12_140506:640,-0.476379,-0.004547,-0.11538699999999999,-0.005845,-0.00045999999999999996,0.002373,-46.25,2.5,5.37,3a
2019-07-12_140506:660,-0.475372,-0.0025329999999999997,-0.11438,-0.006547,-0.00043,0.002129,-46.25,2.5,5.37,3a
2019-07-12_140506:680,-0.47332799999999997,-0.0025329999999999997,-0.115906,-0.00731,-0.000521,0.001854,-47.0,1.75,5.68,3a
2019-07-12_140506:700,-0.474854,-0.0035399999999999997,-0.11438,-0.008012,-0.000643,0.0017629999999999998,-47.0,1.75,5.68,3a
2019-07-12_140506:720,-0.475372,-0.007111,-0.115906,-0.008286,-0.0011619999999999998,0.001549,-47.0,2.5,6.18,3a
2019-07-12_140506:740,-0.477905,-0.007111,-0.112854,-0.008073,-0.001254,0.00161,-47.0,2.5,6.18,3a
2019-07-12_140506:760,-0.48095699999999997,-0.007111,-0.113373,-0.0074930000000000005,-0.001376,0.0017629999999999998,-47.0,2.5,6.18,3a
2019-07-12_140506:780,-0.477386,-0.0055850000000000006,-0.11080899999999999,-0.007035,-0.00045999999999999996,0.0017929999999999999,-47.369999,2.18,6.18,3a
2019-07-12_140506:800,-0.474854,-0.0025329999999999997,-0.11233499999999999,-0.006973999999999999,-0.00036899999999999997,0.0016710000000000002,-47.369999,2.18,6.18,3a
2019-07-12_140506:820,-0.469757,-0.002014,-0.11080899999999999,-0.006944,-0.000704,0.0016710000000000002,-47.75,1.75,6.87,3a
2019-07-12_140506:840,-0.47280900000000003,-0.000488,-0.113373,-0.00731,-0.0015890000000000001,0.001274,-47.75,1.75,6.87,3a
2019-07-12_140506:860,-0.47079499999999996,0.0,-0.11386099999999999,-0.007951,-0.0024739999999999996,0.0014269999999999999,-47.75,1.75,6.87,3a
2019-07-12_140506:880,-0.477386,-0.002014,-0.114899,-0.008409,-0.003481,0.002373,-47.0,2.5,6.18,3a
2019-07-12_140506:900,-0.48043800000000003,-0.0055850000000000006,-0.11691300000000002,-0.008805,-0.00339,0.0029219999999999997,-47.0,2.5,6.18,3a
2019-07-12_140506:920,-0.477386,-0.006072999999999999,-0.11438,-0.00908,-0.002535,0.002373,-47.75,2.18,6.18,3a
2019-07-12_140506:940,-0.477386,-0.008636,-0.11538699999999999,-0.008836,-0.001925,0.002129,-47.75,2.18,6.18,3a
2019-07-12_140506:960,-0.477905,-0.009644,-0.11795,-0.008409,-0.0018030000000000001,0.002037,-47.75,2.18,6.18,3a
2019-07-12_140506:980,-0.476379,-0.009644,-0.115906,-0.007951,-0.0016809999999999998,0.001549,-47.75,2.5,6.18,3a
2019-07-12_140507:000,-0.478912,-0.010162000000000001,-0.11538699999999999,-0.007279000000000001,-0.00162,0.001152,-47.75,2.5,6.18,3a
2019-07-12_140507:020,-0.481476,-0.010162000000000001,-0.11795,-0.0065769999999999995,-0.001559,0.001152,-46.68,1.0,5.68,3a
2019-07-12_140507:040,-0.476379,-0.008118,-0.11233499999999999,-0.005815,-0.000826,0.001396,-46.68,1.0,5.68,3a
2019-07-12_140507:060,-0.474854,-0.005065999999999999,-0.11538699999999999,-0.005815,-0.000826,0.000878,-46.68,1.0,5.68,3a
2019-07-12_140507:080,-0.47280900000000003,-0.0030210000000000002,-0.112854,-0.005784,-0.000918,0.000817,-47.75,2.5,5.37,3a
2019-07-12_140507:100,-0.47180200000000005,-0.004059,-0.11386099999999999,-0.006028,-0.0015890000000000001,0.001549,-47.75,2.5,5.37,3a
2019-07-12_140507:120,-0.475861,-0.007111,-0.113373,-0.006364,-0.002139,0.001732,-47.0,2.18,6.18,3a
2019-07-12_140507:140,-0.476379,-0.006592,-0.113373,-0.006181,-0.0022,0.0016710000000000002,-47.0,2.18,6.18,3a
2019-07-12_140507:160,-0.474854,-0.008118,-0.112854,-0.005906000000000001,-0.0022,0.001854,-47.0,2.18,6.18,3a
2019-07-12_140507:180,-0.475372,-0.008118,-0.114899,-0.005723,-0.002139,0.002037,-47.0,2.5,5.68,3a
2019-07-12_140507:200,-0.475372,-0.006072999999999999,-0.115906,-0.005723,-0.002322,0.0017629999999999998,-47.0,2.5,5.68,3a
2019-07-12_140507:220,-0.476379,-0.006592,-0.11691300000000002,-0.005845,-0.0027489999999999997,0.001213,-47.369999,2.18,5.0,3a
2019-07-12_140507:240,-0.477905,-0.0055850000000000006,-0.114899,-0.006242,-0.0028710000000000003,0.000695,-47.369999,2.18,5.0,3a
2019-07-12_140507:260,-0.47842399999999996,-0.005065999999999999,-0.116425,-0.00615,-0.002535,8.4e-05,-47.369999,2.18,5.0,3a
2019-07-12_140507:280,-0.477905,-0.006592,-0.114899,-0.006181,-0.0022,0.000206,-45.869999,2.5,6.5,3a
2019-07-12_140507:300,-0.476379,-0.007111,-0.11438,-0.005723,-0.002261,0.000817,-45.869999,2.5,6.5,3a
2019-07-12_140507:320,-0.473846,-0.007111,-0.115906,-0.005082,-0.002322,0.0009390000000000001,-47.0,2.18,5.37,3a
2019-07-12_140507:340,-0.47332799999999997,-0.006072999999999999,-0.11538699999999999,-0.004472,-0.002535,0.00103,-47.0,2.18,5.37,3a
2019-07-12_140507:360,-0.47433500000000006,-0.006072999999999999,-0.117432,-0.004014,-0.002535,0.000878,-47.0,2.18,5.37,3a
2019-07-12_140507:380,-0.475372,-0.0025329999999999997,-0.117432,-0.003922,-0.00281,0.0007559999999999999,-47.369999,2.87,6.87,3a
2019-07-12_140507:400,-0.47280900000000003,-0.002014,-0.11843900000000002,-0.003617,-0.00339,0.000878,-47.369999,2.87,6.87,3a
2019-07-12_140507:420,-0.473846,-0.002014,-0.12149000000000001,-0.003861,-0.004183,0.001549,-47.0,1.0,5.37,3a
2019-07-12_140507:440,-0.47689799999999993,-0.002014,-0.12048299999999999,-0.004014,-0.00458,0.0016710000000000002,-47.0,1.0,5.37,3a
2019-07-12_140507:460,-0.473846,-0.0055850000000000006,-0.12048299999999999,-0.004594,-0.0042439999999999995,0.0016710000000000002,-47.0,1.0,5.37,3a
2019-07-12_140507:480,-0.474854,-0.004547,-0.12454200000000001,-0.004746,-0.004275,0.001091,-47.75,1.75,7.25,3a
2019-07-12_140507:500,-0.46823100000000006,-0.004547,-0.12149000000000001,-0.004869,-0.004183,0.000298,-47.75,1.75,7.25,3a
2019-07-12_140507:520,-0.47180200000000005,-0.0035399999999999997,-0.127594,-0.005204,-0.004855,-0.000526,-47.75,1.75,6.87,3a
2019-07-12_140507:540,-0.47280900000000003,-0.0030210000000000002,-0.128601,-0.005326,-0.005372999999999999,-0.001045,-47.75,1.75,6.87,3a
2019-07-12_140507:560,-0.47433500000000006,-0.005065999999999999,-0.12912,-0.005386999999999999,-0.005526,-0.000587,-47.75,1.75,6.87,3a
2019-07-12_140507:580,-0.478912,-0.004547,-0.128113,-0.005386999999999999,-0.004915999999999999,-0.000923,-46.68,2.18,5.37,3a
2019-07-12_140507:600,-0.47943100000000005,-0.001495,-0.12558,-0.005265,-0.003268,-0.001655,-46.68,2.18,5.37,3a
2019-07-12_140507:620,-0.47943100000000005,0.002014,-0.127594,-0.005204,-0.002016,-0.001716,-47.369999,2.5,4.56,3a
2019-07-12_140507:640,-0.47280900000000003,0.0035399999999999997,-0.12454200000000001,-0.005386999999999999,-0.001498,-0.000984,-47.369999,2.5,4.56,3a
2019-07-12_140507:660,-0.47332799999999997,0.0035399999999999997,-0.12558,-0.005601,-0.001437,-0.000648,-47.369999,2.5,4.56,3a
2019-07-12_140507:680,-0.477386,0.004059,-0.12353499999999999,-0.005723,-0.0009789999999999998,-0.000984,-47.0,1.75,5.37,3a
2019-07-12_140507:700,-0.48095699999999997,0.004059,-0.12353499999999999,-0.005448,-0.000307,-0.000892,-47.0,1.75,5.37,3a
2019-07-12_140507:720,-0.470276,0.006072999999999999,-0.12149000000000001,-0.004685,0.000303,-0.001106,-47.0,2.18,4.56,3a
2019-07-12_140507:740,-0.46875,0.009644,-0.12353499999999999,-0.004258,-0.000307,-0.001259,-47.0,2.18,4.56,3a
2019-07-12_140507:760,-0.46875,0.011687999999999999,-0.12454200000000001,-0.004594,-0.0015890000000000001,2.3e-05,-47.0,2.18,4.56,3a
2019-07-12_140507:780,-0.475861,0.010651,-0.12200899999999999,-0.005386999999999999,-0.0025960000000000002,0.0019760000000000003,-47.5,0.25,6.5,3a
2019-07-12_140507:800,-0.477386,0.010162000000000001,-0.124054,-0.006425,-0.0024739999999999996,0.0019760000000000003,-47.5,0.25,6.5,3a
2019-07-12_140507:820,-0.47842399999999996,0.009125,-0.12506099999999998,-0.007554000000000001,-0.0016809999999999998,0.001091,-47.5,1.37,4.56,3a
2019-07-12_140507:840,-0.478912,0.006592,-0.12353499999999999,-0.008012,-0.001101,0.000481,-47.5,1.37,4.56,3a
2019-07-12_140507:860,-0.476379,0.007111,-0.12301600000000001,-0.008164,-0.000704,-3.8e-05,-47.5,1.37,4.56,3a
2019-07-12_140507:880,-0.475372,0.008636,-0.124054,-0.007829000000000001,-9.4e-05,-0.000587,-46.75,2.18,5.68,3a
2019-07-12_140507:900,-0.47280900000000003,0.009644,-0.12301600000000001,-0.007370999999999999,0.000303,-0.00018999999999999998,-46.75,2.18,5.68,3a
2019-07-12_140507:920,-0.47433500000000006,0.010651,-0.12301600000000001,-0.006883,-9.4e-05,0.000542,-47.5,2.18,5.68,3a
2019-07-12_140507:940,-0.474854,0.011169,-0.118958,-0.006973999999999999,-0.000246,0.00103,-47.5,2.18,5.68,3a
2019-07-12_140507:960,-0.475372,0.012177,-0.121002,-0.007035,-0.000124,0.001549,-47.5,2.18,5.68,3a
2019-07-12_140507:980,-0.475372,0.011169,-0.12048299999999999,-0.0074930000000000005,-0.000124,0.002251,-48.18,1.0,4.56,3a
2019-07-12_140508:000,-0.473846,0.011169,-0.119965,-0.007768000000000001,-0.000185,0.002129,-48.18,1.0,4.56,3a
2019-07-12_140508:020,-0.47332799999999997,0.010162000000000001,-0.119965,-0.008225,8.9e-05,0.001732,-47.0,1.37,6.5,3a
2019-07-12_140508:040,-0.47332799999999997,0.008636,-0.118958,-0.0085,8.9e-05,0.0017929999999999999,-47.0,1.37,6.5,3a
2019-07-12_140508:060,-0.473846,0.007599,-0.119965,-0.008164,0.00015,0.002037,-47.0,1.37,6.5,3a
2019-07-12_140508:080,-0.473846,0.006072999999999999,-0.118958,-0.007554000000000001,0.000272,0.002373,-47.369999,2.18,5.37,3a
2019-07-12_140508:100,-0.477386,0.006592,-0.11843900000000002,-0.006822,-9.4e-05,0.0028309999999999997,-47.369999,2.18,5.37,3a
2019-07-12_140508:120,-0.475861,0.009125,-0.11691300000000002,-0.006242,0.000547,0.0029219999999999997,-47.0,1.37,5.68,3a
2019-07-12_140508:140,-0.478912,0.008118,-0.115906,-0.0063030000000000004,0.0007,0.003167,-47.0,1.37,5.68,3a
2019-07-12_140508:160,-0.47079499999999996,0.007599,-0.11386099999999999,-0.006181,0.001279,0.002709,-47.0,1.37,5.68,3a
2019-07-12_140508:180,-0.47332799999999997,0.009125,-0.11538699999999999,-0.006639,0.000883,0.001274,-47.369999,1.0,5.37,3a
2019-07-12_140508:200,-0.47079499999999996,0.011169,-0.115906,-0.007095999999999999,-0.000124,0.00103,-47.369999,1.0,5.37,3a
2019-07-12_140508:220,-0.46823100000000006,0.008118,-0.117432,-0.006944,-0.001437,0.002495,-46.68,1.75,6.18,3a
2019-07-12_140508:240,-0.475372,0.010651,-0.116425,-0.007279000000000001,-0.0024739999999999996,0.002709,-46.68,1.75,6.18,3a
2019-07-12_140508:260,-0.47433500000000006,0.009644,-0.11438,-0.007554000000000001,-0.002261,0.002434,-46.68,1.75,6.18,3a
2019-07-12_140508:280,-0.475372,0.008118,-0.116425,-0.007615,-0.0022,0.003258,-47.75,0.68,5.37,3a
2019-07-12_140508:300,-0.47842399999999996,0.005065999999999999,-0.117432,-0.007615,-0.002078,0.003899,-47.75,0.68,5.37,3a
2019-07-12_140508:320,-0.47689799999999993,0.0035399999999999997,-0.11538699999999999,-0.007554000000000001,-0.002078,0.004021,-47.0,1.37,5.68,3a
2019-07-12_140508:340,-0.476379,0.002014,-0.115906,-0.007035,-0.001955,0.004021,-47.0,1.37,5.68,3a
2019-07-12_140508:360,-0.47995,0.001007,-0.117432,-0.006822,-0.0018030000000000001,0.004113,-47.0,1.37,5.68,3a
2019-07-12_140508:380,-0.471283,0.001495,-0.11538699999999999,-0.0065769999999999995,-0.0017420000000000003,0.0037159999999999997,-47.75,1.75,6.87,3a
2019-07-12_140508:400,-0.475861,0.002014,-0.117432,-0.006486,-0.001864,0.002587,-47.75,1.75,6.87,3a
2019-07-12_140508:420,-0.475861,0.001495,-0.11843900000000002,-0.006547,-0.002322,0.0019760000000000003,-47.369999,1.75,6.5,3a
2019-07-12_140508:440,-0.476379,0.000488,-0.11691300000000002,-0.006089,-0.002322,0.002495,-47.369999,1.75,6.5,3a
2019-07-12_140508:460,-0.477386,0.0,-0.11843900000000002,-0.005723,-0.0016809999999999998,0.0017629999999999998,-47.369999,1.75,6.5,3a
2019-07-12_140508:480,-0.476379,0.001495,-0.117432,-0.005082,-0.001498,0.001091,-47.369999,1.37,6.18,3a
2019-07-12_140508:500,-0.474854,0.001495,-0.11691300000000002,-0.004533,-0.0011619999999999998,0.001549,-47.369999,1.37,6.18,3a
2019-07-12_140508:520,-0.47433500000000006,0.0025329999999999997,-0.11843900000000002,-0.004014,-0.0009789999999999998,0.0021899999999999997,-46.25,1.37,6.18,3a
2019-07-12_140508:540,-0.474854,0.004059,-0.11538699999999999,-0.003861,-0.001498,0.002495,-46.25,1.37,6.18,3a
2019-07-12_140508:560,-0.475372,0.0025329999999999997,-0.117432,-0.003861,-0.001437,0.0028309999999999997,-46.25,1.37,6.18,3a
2019-07-12_140508:580,-0.475372,0.0025329999999999997,-0.11538699999999999,-0.00435,-0.0015890000000000001,0.003105,-47.369999,2.5,6.18,3a
2019-07-12_140508:600,-0.475372,0.0,-0.11438,-0.004685,-0.0018030000000000001,0.003258,-47.369999,2.5,6.18,3a
2019-07-12_140508:620,-0.475372,-0.002014,-0.11538699999999999,-0.004807,-0.001864,0.002709,-47.869999,1.37,6.18,3a
2019-07-12_140508:640,-0.474854,-0.0030210000000000002,-0.11438,-0.004807,-0.002139,0.0016710000000000002,-47.869999,1.37,6.18,3a
2019-07-12_140508:660,-0.47180200000000005,-0.002014,-0.115906,-0.004533,-0.002322,-0.000312,-47.869999,1.37,6.18,3a
2019-07-12_140508:680,-0.469757,0.001495,-0.11538699999999999,-0.0038,-0.0024739999999999996,-0.001777,-47.060001,2.18,5.68,3a
2019-07-12_140508:700,-0.472321,0.0055850000000000006,-0.11691300000000002,-0.0034649999999999998,-0.002932,-0.001777,-47.060001,2.18,5.68,3a
2019-07-12_140508:720,-0.47280900000000003,0.006592,-0.116425,-0.003007,-0.003207,-0.000923,-46.75,1.0,5.0,3a
2019-07-12_140508:740,-0.48196400000000006,0.011687999999999999,-0.116425,-0.002885,-0.002993,0.000267,-46.75,1.0,5.0,3a
2019-07-12_140508:760,-0.478912,0.011169,-0.11538699999999999,-0.0035259999999999996,-0.002535,0.001549,-46.75,1.0,5.0,3a
2019-07-12_140508:780,-0.48349,0.012695,-0.11843900000000002,-0.004594,-0.0022,0.002587,-47.869999,1.75,5.37,3a
2019-07-12_140508:800,-0.475861,0.012177,-0.11538699999999999,-0.005723,-0.0017420000000000003,0.002892,-47.869999,1.75,5.37,3a
2019-07-12_140508:820,-0.47433500000000006,0.007599,-0.117432,-0.006944,-0.0022,0.002129,-47.0,1.37,5.0,3a
2019-07-12_140508:840,-0.47433500000000006,0.006072999999999999,-0.117432,-0.007370999999999999,-0.002535,0.0021899999999999997,-47.0,1.37,5.0,3a
2019-07-12_140508:860,-0.470276,0.0,-0.116425,-0.006973999999999999,-0.00339,0.0028309999999999997,-47.0,1.37,5.0,3a
2019-07-12_140508:880,-0.47079499999999996,-0.0025329999999999997,-0.117432,-0.006181,-0.003542,0.002251,-47.0,2.18,5.0,3a
2019-07-12_140508:900,-0.470276,-0.000488,-0.11795,-0.005265,-0.0037869999999999996,0.001396,-47.0,2.18,5.0,3a
2019-07-12_140508:920,-0.469757,0.0,-0.118958,-0.004472,-0.004183,0.001732,-47.869999,1.0,6.18,3a
2019-07-12_140508:940,-0.47280900000000003,0.004059,-0.12200899999999999,-0.004075,-0.00458,0.0017629999999999998,-47.869999,1.0,6.18,3a
2019-07-12_140508:960,-0.47433500000000006,0.006072999999999999,-0.12301600000000001,-0.004411,-0.00519,0.001274,-47.869999,1.0,6.18,3a
2019-07-12_140508:980,-0.47842399999999996,0.0055850000000000006,-0.124054,-0.004685,-0.004672,0.0009390000000000001,-47.0,1.37,6.87,3a
2019-07-12_140509:000,-0.47995,0.005065999999999999,-0.124054,-0.005082,-0.004,0.000878,-47.0,1.37,6.87,3a
2019-07-12_140509:020,-0.475861,0.005065999999999999,-0.124054,-0.005204,-0.003268,0.000542,-48.18,2.5,5.37,3a
2019-07-12_140509:040,-0.475861,0.0035399999999999997,-0.12506099999999998,-0.005448,-0.0028710000000000003,2.3e-05,-48.18,2.5,5.37,3a
2019-07-12_140509:060,-0.474854,0.004059,-0.126068,-0.005204,-0.0024739999999999996,-9.9e-05,-48.18,2.5,5.37,3a
2019-07-12_140509:080,-0.474854,0.0035399999999999997,-0.124054,-0.0049299999999999995,-0.0022,0.00042,-46.25,1.75,5.0,3a
2019-07-12_140509:100,-0.47332799999999997,0.004059,-0.12301600000000001,-0.004319,-0.0018030000000000001,0.000359,-46.25,1.75,5.0,3a
2019-07-12_140509:120,-0.47180200000000005,0.004059,-0.12454200000000001,-0.003861,-0.002016,0.000359,-47.0,0.68,5.68,3a
2019-07-12_140509:140,-0.47180200000000005,0.007111,-0.12301600000000001,-0.0036780000000000003,-0.0024129999999999998,0.000695,-47.0,0.68,5.68,3a
2019-07-12_140509:160,-0.473846,0.009644,-0.12301600000000001,-0.004075,-0.0025960000000000002,0.00103,-47.0,0.68,5.68,3a
2019-07-12_140509:180,-0.474854,0.009644,-0.12506099999999998,-0.004594,-0.0027489999999999997,0.000878,-47.0,2.18,5.37,3a
2019-07-12_140509:200,-0.47433500000000006,0.010651,-0.122528,-0.005082,-0.0024739999999999996,0.000695,-47.0,2.18,5.37,3a
2019-07-12_140509:220,-0.470276,0.010651,-0.12454200000000001,-0.0054789999999999995,-0.002993,0.000817,-47.369999,1.0,4.18,3a
2019-07-12_140509:240,-0.47180200000000005,0.010162000000000001,-0.12506099999999998,-0.005967,-0.003207,0.0014880000000000002,-47.369999,1.0,4.18,3a
2019-07-12_140509:260,-0.473846,0.008636,-0.124054,-0.005967,-0.00339,0.0021899999999999997,-47.369999,1.0,4.18,3a
2019-07-12_140509:280,-0.47180200000000005,0.006592,-0.124054,-0.006181,-0.003664,0.002129,-47.869999,1.75,5.68,3a
2019-07-12_140509:300,-0.47180200000000005,0.006072999999999999,-0.12558,-0.006425,-0.003939,0.0019760000000000003,-47.869999,1.75,5.68,3a
2019-07-12_140509:320,-0.469757,0.0055850000000000006,-0.128601,-0.006944,-0.004519,0.0017629999999999998,-48.18,1.75,5.37,3a
2019-07-12_140509:340,-0.470276,0.0055850000000000006,-0.12912,-0.0072180000000000005,-0.004672,0.0014880000000000002,-48.18,1.75,5.37,3a
2019-07-12_140509:360,-0.470276,0.005065999999999999,-0.130127,-0.007554000000000001,-0.005007,0.0014269999999999999,-48.18,1.75,5.37,3a
2019-07-12_140509:380,-0.47180200000000005,0.002014,-0.130646,-0.007370999999999999,-0.005129,0.0014880000000000002,-47.369999,1.75,5.37,3a
2019-07-12_140509:400,-0.47433500000000006,0.001495,-0.132172,-0.007035,-0.004855,0.00161,-47.369999,1.75,5.37,3a
2019-07-12_140509:420,-0.47280900000000003,0.005065999999999999,-0.131165,-0.0067,-0.004458,0.0019760000000000003,-47.369999,1.75,4.56,3a
2019-07-12_140509:440,-0.47332799999999997,0.0025329999999999997,-0.133698,-0.006639,-0.004275,0.002373,-47.369999,1.75,4.56,3a
2019-07-12_140509:460,-0.46875,0.004059,-0.132172,-0.0067,-0.004275,0.002251,-47.369999,1.75,4.56,3a
2019-07-12_140509:480,-0.47433500000000006,0.0030210000000000002,-0.134705,-0.006761,-0.0042439999999999995,0.001732,-46.68,1.75,5.37,3a
2019-07-12_140509:500,-0.477386,0.001495,-0.134705,-0.006242,-0.0036030000000000003,0.002037,-46.68,1.75,5.37,3a
2019-07-12_140509:520,-0.476379,0.001007,-0.133698,-0.005601,-0.003054,0.002709,-47.75,1.37,4.18,3a
2019-07-12_140509:540,-0.47689799999999993,0.000488,-0.133698,-0.004807,-0.002078,0.002709,-47.75,1.37,4.18,3a
2019-07-12_140509:560,-0.47079499999999996,0.0,-0.130646,-0.004014,-0.001315,0.002983,-47.75,1.37,4.18,3a
2019-07-12_140509:580,-0.467743,0.0,-0.13269,-0.0035259999999999996,-0.001498,0.003167,-47.75,1.75,4.18,3a
2019-07-12_140509:600,-0.46670500000000004,0.0,-0.130646,-0.003404,-0.001925,0.002373,-47.75,1.75,4.18,3a
2019-07-12_140509:620,-0.465179,0.002014,-0.134216,-0.003343,-0.002261,0.0019149999999999998,-47.75,1.37,4.18,3a
2019-07-12_140509:640,-0.466217,0.0025329999999999997,-0.135742,-0.003617,-0.0037869999999999996,0.001213,-47.75,1.37,4.18,3a
2019-07-12_140509:660,-0.47079499999999996,0.0035399999999999997,-0.138275,-0.003953,-0.0042439999999999995,0.00103,-47.75,1.37,4.18,3a
2019-07-12_140509:680,-0.465179,0.004547,-0.138275,-0.003861,-0.0042439999999999995,0.000634,-48.18,1.0,4.56,3a
2019-07-12_140509:700,-0.47079499999999996,0.0035399999999999997,-0.139282,-0.004075,-0.00458,-0.000831,-48.18,1.0,4.56,3a
2019-07-12_140509:720,-0.47433500000000006,0.006592,-0.140808,-0.003922,-0.004397,-0.0007700000000000001,-48.18,1.37,4.18,3a
2019-07-12_140509:740,-0.474854,0.004059,-0.139801,-0.003068,-0.003085,-3.8e-05,-48.18,1.37,4.18,3a
2019-07-12_140509:760,-0.477386,0.005065999999999999,-0.139801,-0.002549,-0.002016,-0.000312,-48.18,1.37,4.18,3a
2019-07-12_140509:780,-0.47995,0.0055850000000000006,-0.136749,-0.002152,-0.0011619999999999998,-0.000526,-47.0,1.75,5.0,3a
2019-07-12_140509:800,-0.475372,0.008118,-0.133698,-0.000901,0.000822,8.4e-05,-47.0,1.75,5.0,3a
2019-07-12_140509:820,-0.470276,0.009644,-0.135223,-0.000352,0.0010960000000000002,0.000359,-48.18,1.75,5.68,3a
2019-07-12_140509:840,-0.462646,0.010162000000000001,-0.135742,0.0008380000000000001,0.0007,-0.00037400000000000004,-48.18,1.75,5.68,3a
2019-07-12_140509:860,-0.46060200000000007,0.009125,-0.134705,0.0020280000000000003,-0.000521,-9.9e-05,-48.18,1.75,5.68,3a
2019-07-12_140509:880,-0.467224,0.011687999999999999,-0.138794,0.002578,-0.0011619999999999998,0.001152,-47.75,1.75,5.68,3a
2019-07-12_140509:900,-0.477905,0.012177,-0.130127,0.004226,-0.000582,0.007225,-47.75,1.75,5.68,3a
2019-07-12_140509:920,-0.47433500000000006,0.012177,-0.131653,0.004683,0.000547,0.0075,-47.75,2.18,4.18,3a
2019-07-12_140509:940,-0.49111899999999997,0.011687999999999999,-0.119965,0.006301,0.005582,0.0034409999999999996,-47.75,2.18,4.18,3a
2019-07-12_140509:960,-0.502319,0.014740000000000001,-0.112854,0.007094,0.008573,0.011986,-47.75,2.18,4.18,3a
2019-07-12_140509:980,-0.474854,0.009125,-0.12149000000000001,0.007094,0.008176000000000001,0.017907,-47.75,1.75,5.0,3a
2019-07-12_140510:000,-0.45401,0.001007,-0.122528,0.002364,0.0032020000000000004,0.025016999999999998,-47.75,1.75,5.0,3a
2019-07-12_140510:020,-0.44027700000000003,-0.006592,-0.12912,-0.000291,0.000944,0.024224000000000002,-47.369999,1.75,5.68,3a
2019-07-12_140510:040,-0.453003,-0.013213999999999998,-0.128601,-0.007095999999999999,-0.005251,0.018364,-47.369999,1.75,5.68,3a
2019-07-12_140510:060,-0.467743,-0.014740000000000001,-0.131653,-0.00969,-0.006594,0.014518999999999999,-47.369999,1.75,5.68,3a
2019-07-12_140510:080,-0.47433500000000006,-0.017792,-0.12912,-0.015061000000000001,-0.007449,0.004845,-47.0,1.75,5.37,3a
2019-07-12_140510:100,-0.472321,-0.019806,-0.131165,-0.019517,-0.007388,-0.0033640000000000002,-47.0,1.75,5.37,3a
2019-07-12_140510:120,-0.465179,-0.020325,-0.13623,-0.021897,-0.007234999999999999,-0.007484,-47.0,1.75,5.37,3a
2019-07-12_140510:140,-0.46875,-0.022369,-0.140808,-0.022111000000000002,-0.008181,-0.009346,-47.369999,2.87,4.18,3a
2019-07-12_140510:160,-0.474854,-0.020325,-0.141327,-0.020982,-0.008456,-0.011451000000000001,-47.369999,2.87,4.18,3a
2019-07-12_140510:180,-0.48095699999999997,-0.01828,-0.139801,-0.019913999999999998,-0.008028,-0.010749,-47.369999,2.18,5.37,3a
2019-07-12_140510:200,-0.488068,-0.015228,-0.137268,-0.015733,-0.00458,-0.007881,-47.369999,2.18,5.37,3a
2019-07-12_140510:220,-0.485016,-0.013702,-0.137268,-0.014543,-0.002993,-0.007423000000000001,-47.369999,2.18,5.37,3a
2019-07-12_140510:240,-0.47689799999999993,-0.008636,-0.134705,-0.009965,0.000944,-0.006202,-47.75,2.18,4.18,3a
2019-07-12_140510:260,-0.474854,-0.0030210000000000002,-0.135223,-0.00847,0.0017980000000000001,-0.005745,-47.75,2.18,4.18,3a
2019-07-12_140510:280,-0.46823100000000006,0.0055850000000000006,-0.134705,-0.006181,0.002195,-0.0053479999999999995,-47.369999,1.37,5.0,3a
2019-07-12_140510:300,-0.467743,0.011169,-0.130646,-0.005143,0.002012,-0.00489,-47.369999,1.37,5.0,3a
2019-07-12_140510:320,-0.469757,0.013702,-0.133179,-0.005082,0.001066,-0.003761,-47.369999,1.0,4.56,3a
2019-07-12_140510:340,-0.46417200000000003,0.016266,-0.129639,-0.0056619999999999995,0.000303,-0.002693,-47.369999,1.0,4.56,3a
2019-07-12_140510:360,-0.467743,0.01828,-0.13269,-0.007554000000000001,-0.000857,-0.002968,-47.369999,1.0,4.56,3a
2019-07-12_140510:380,-0.46569799999999995,0.01828,-0.133698,-0.008103,-0.001437,-0.002754,-47.75,1.37,4.56,3a
2019-07-12_140510:400,-0.467224,0.017792,-0.131165,-0.009751000000000001,-0.0027489999999999997,-0.001259,-47.75,1.37,4.56,3a
2019-07-12_140510:420,-0.46926899999999994,0.016753999999999998,-0.133698,-0.010087,-0.0028710000000000003,-0.001045,-47.75,1.37,4.56,3a
2019-07-12_140510:440,-0.47280900000000003,0.014740000000000001,-0.134216,-0.010819,-0.00281,-0.000312,-48.5,1.37,3.75,3a
2019-07-12_140510:460,-0.470276,0.012177,-0.13623,-0.010667,-0.002657,2.3e-05,-48.5,1.37,3.75,3a
2019-07-12_140510:480,-0.46875,0.010162000000000001,-0.135223,-0.009934,-0.0024129999999999998,0.00042,-48.18,1.37,4.56,3a
2019-07-12_140510:500,-0.46823100000000006,0.010651,-0.134705,-0.009141,-0.0024739999999999996,0.000298,-48.18,1.37,4.56,3a
2019-07-12_140510:520,-0.467743,0.011169,-0.137756,-0.008012,-0.002078,8.4e-05,-48.18,1.37,4.56,3a
2019-07-12_140510:540,-0.467743,0.011687999999999999,-0.138794,-0.007095999999999999,-0.002139,0.000481,-47.369999,1.37,4.56,3a
2019-07-12_140510:560,-0.469757,0.013213999999999998,-0.139801,-0.0063030000000000004,-0.002078,0.000359,-47.369999,1.37,4.56,3a
2019-07-12_140510:580,-0.47332799999999997,0.014740000000000001,-0.140808,-0.006181,-0.001864,8.4e-05,-47.0,-0.06,3.75,3a
2019-07-12_140510:600,-0.474854,0.016266,-0.139801,-0.006028,-0.0012230000000000001,0.000145,-47.0,-0.06,3.75,3a
2019-07-12_140510:620,-0.475861,0.016753999999999998,-0.139282,-0.005967,-0.000185,-9.9e-05,-47.0,-0.06,3.75,3a
2019-07-12_140510:640,-0.475861,0.017792,-0.138275,-0.005967,0.00048600000000000005,-0.000526,-47.75,-0.06,5.0,3a
2019-07-12_140510:660,-0.474854,0.017792,-0.137268,-0.005906000000000001,0.000883,-0.000587,-47.75,-0.06,5.0,3a
2019-07-12_140510:680,-0.47280900000000003,0.016753999999999998,-0.135742,-0.005815,0.0016760000000000002,2.3e-05,-47.75,0.25,5.0,3a
2019-07-12_140510:700,-0.47079499999999996,0.016753999999999998,-0.133179,-0.005386999999999999,0.002134,0.000817,-47.75,0.25,5.0,3a
2019-07-12_140510:720,-0.473846,0.015747,-0.13269,-0.004991,0.0019510000000000003,0.0014269999999999999,-47.75,0.25,5.0,3a
2019-07-12_140510:740,-0.469757,0.014740000000000001,-0.130127,-0.004472,0.002225,0.0019760000000000003,-47.369999,-0.5,4.56,3a
2019-07-12_140510:760,-0.466217,0.014221000000000001,-0.131165,-0.003922,0.002073,0.002434,-47.369999,-0.5,4.56,3a
2019-07-12_140510:780,-0.46469099999999997,0.012695,-0.12912,-0.0035259999999999996,0.0018899999999999998,0.002373,-47.0,-0.06,4.56,3a
2019-07-12_140510:800,-0.463654,0.013213999999999998,-0.130646,-0.00316,0.0010960000000000002,0.001549,-47.0,-0.06,4.56,3a
2019-07-12_140510:820,-0.463654,0.013213999999999998,-0.131165,-0.002732,0.000272,0.001549,-47.0,-0.06,4.56,3a
2019-07-12_140510:840,-0.46670500000000004,0.013213999999999998,-0.132172,-0.002397,-0.000582,0.0023120000000000003,-47.369999,0.68,5.37,3a
2019-07-12_140510:860,-0.46926899999999994,0.014740000000000001,-0.131165,-0.001939,-0.0011619999999999998,0.0023120000000000003,-47.369999,0.68,5.37,3a
2019-07-12_140510:880,-0.47180200000000005,0.016266,-0.130646,-0.002091,-0.000918,0.001335,-47.369999,0.68,4.56,3a
2019-07-12_140510:900,-0.47280900000000003,0.016753999999999998,-0.130646,-0.002732,-0.000704,0.001335,-47.369999,0.68,4.56,3a
2019-07-12_140510:920,-0.472321,0.01828,-0.130646,-0.003221,-0.00045999999999999996,0.001732,-47.369999,0.68,4.56,3a
2019-07-12_140510:940,-0.471283,0.017792,-0.131653,-0.003861,-0.000307,0.001732,-48.5,0.68,6.5,3a
2019-07-12_140510:960,-0.475372,0.017273,-0.12912,-0.004594,-9.4e-05,0.0019149999999999998,-48.5,0.68,6.5,3a
2019-07-12_140510:980,-0.476379,0.016753999999999998,-0.131165,-0.005052,8.9e-05,0.002587,-47.75,1.0,5.68,3a
2019-07-12_140511:000,-0.475861,0.014740000000000001,-0.127594,-0.005386999999999999,0.000883,0.003167,-47.75,1.0,5.68,3a
2019-07-12_140511:020,-0.475861,0.013702,-0.127594,-0.005723,0.0014320000000000001,0.0029219999999999997,-47.75,1.0,5.68,3a
2019-07-12_140511:040,-0.473846,0.011687999999999999,-0.12454200000000001,-0.0056619999999999995,0.002134,0.003258,-47.369999,1.0,6.18,3a
2019-07-12_140511:060,-0.475372,0.011687999999999999,-0.12353499999999999,-0.005448,0.002012,0.0037159999999999997,-47.369999,1.0,6.18,3a
2019-07-12_140511:080,-0.476379,0.010162000000000001,-0.12149000000000001,-0.004869,0.0019510000000000003,0.004021,-47.369999,0.68,6.18,3a
2019-07-12_140511:100,-0.475861,0.011169,-0.119476,-0.004654999999999999,0.001829,0.00396,-47.369999,0.68,6.18,3a
2019-07-12_140511:120,-0.47180200000000005,0.010651,-0.11843900000000002,-0.004319,0.002225,0.004113,-47.369999,0.68,6.18,3a
2019-07-12_140511:140,-0.47332799999999997,0.011169,-0.11795,-0.004594,0.002012,0.004235,-47.75,0.25,5.37,3a
2019-07-12_140511:160,-0.47332799999999997,0.011169,-0.117432,-0.004991,0.0016760000000000002,0.004235,-47.75,0.25,5.37,3a
2019-07-12_140511:180,-0.471283,0.011169,-0.11691300000000002,-0.005784,0.000944,0.0034409999999999996,-47.0,1.0,6.18,3a
2019-07-12_140511:200,-0.471283,0.009644,-0.116425,-0.00615,0.000364,0.003624,-47.0,1.0,6.18,3a
2019-07-12_140511:220,-0.47280900000000003,0.009644,-0.118958,-0.006364,-3.3e-05,0.003563,-47.0,1.0,6.18,3a
2019-07-12_140511:240,-0.473846,0.009644,-0.11691300000000002,-0.006822,-0.00043,0.0030440000000000003,-47.369999,1.0,6.5,3a
2019-07-12_140511:260,-0.475372,0.011169,-0.115906,-0.006883,-0.000643,0.003319,-47.369999,1.0,6.5,3a
2019-07-12_140511:280,-0.47332799999999997,0.010651,-0.11843900000000002,-0.0072180000000000005,-0.000521,0.003563,-47.0,0.25,5.0,3a
2019-07-12_140511:300,-0.473846,0.011169,-0.11386099999999999,-0.007370999999999999,-0.000643,0.0037770000000000004,-47.0,0.25,5.0,3a
2019-07-12_140511:320,-0.47433500000000006,0.009125,-0.11538699999999999,-0.0074930000000000005,-0.0009789999999999998,0.003899,-47.0,0.25,5.0,3a
2019-07-12_140511:340,-0.47433500000000006,0.008636,-0.117432,-0.0077069999999999994,-0.001559,0.004052,-47.369999,0.68,7.25,3a
2019-07-12_140511:360,-0.477905,0.007599,-0.11843900000000002,-0.007554000000000001,-0.001864,0.004235,-47.369999,0.68,7.25,3a
2019-07-12_140511:380,-0.475372,0.008636,-0.11538699999999999,-0.007829000000000001,-0.0012230000000000001,0.004296,-47.0,1.0,6.18,3a
2019-07-12_140511:400,-0.475372,0.0055850000000000006,-0.117432,-0.007829000000000001,-0.0012230000000000001,0.004631000000000001,-47.0,1.0,6.18,3a
2019-07-12_140511:420,-0.471283,0.0025329999999999997,-0.11691300000000002,-0.007554000000000001,-0.001101,0.003655,-47.0,1.0,6.18,3a
2019-07-12_140511:440,-0.471283,0.0035399999999999997,-0.12048299999999999,-0.007431999999999999,-0.001498,0.002648,-47.369999,1.0,5.37,3a
2019-07-12_140511:460,-0.471283,0.004547,-0.119476,-0.006639,-0.002535,0.002037,-47.369999,1.0,5.37,3a
2019-07-12_140511:480,-0.472321,0.004547,-0.121002,-0.005967,-0.002932,0.0029219999999999997,-47.369999,1.0,6.18,3a
2019-07-12_140511:500,-0.47689799999999993,0.004059,-0.12149000000000001,-0.0054789999999999995,-0.0024129999999999998,0.00277,-47.369999,1.0,6.18,3a
2019-07-12_140511:520,-0.474854,0.006072999999999999,-0.119476,-0.005265,-0.001925,0.002037,-47.369999,1.0,6.18,3a
2019-07-12_140511:540,-0.475861,0.007111,-0.121002,-0.005052,-0.0015890000000000001,0.002251,-47.0,0.68,5.37,3a
2019-07-12_140511:560,-0.474854,0.007599,-0.121002,-0.005082,-0.001376,0.002098,-47.0,0.68,5.37,3a
2019-07-12_140511:580,-0.474854,0.009125,-0.12149000000000001,-0.005265,-0.001376,0.00161,-48.5,1.75,5.0,3a
2019-07-12_140511:600,-0.474854,0.010162000000000001,-0.118958,-0.005265,-0.0016809999999999998,0.0016710000000000002,-48.5,1.75,5.0,3a
2019-07-12_140511:620,-0.477905,0.008636,-0.12048299999999999,-0.005448,-0.0017420000000000003,0.0023120000000000003,-48.5,1.75,5.0,3a
2019-07-12_140511:640,-0.473846,0.007111,-0.121002,-0.005082,-0.001101,0.001854,-47.0,0.68,5.37,3a
2019-07-12_140511:660,-0.476379,0.008636,-0.12048299999999999,-0.005143,-0.0009789999999999998,0.000634,-47.0,0.68,5.37,3a
2019-07-12_140511:680,-0.47332799999999997,0.009125,-0.121002,-0.004869,-0.0007650000000000001,0.001335,-47.369999,1.75,5.0,3a
2019-07-12_140511:700,-0.474854,0.007599,-0.11795,-0.004685,-0.000826,0.002129,-47.369999,1.75,5.0,3a
2019-07-12_140511:720,-0.47689799999999993,0.009644,-0.119965,-0.004746,-0.000582,0.0017629999999999998,-47.369999,1.75,5.0,3a
2019-07-12_140511:740,-0.47689799999999993,0.011169,-0.11691300000000002,-0.0049299999999999995,-0.000521,0.0016710000000000002,-47.75,1.75,5.37,3a
2019-07-12_140511:760,-0.476379,0.010651,-0.116425,-0.004869,8.9e-05,0.0017929999999999999,-47.75,1.75,5.37,3a
2019-07-12_140511:780,-0.475861,0.010162000000000001,-0.117432,-0.005386999999999999,-3.3e-05,0.001213,-46.25,1.37,5.37,3a
2019-07-12_140511:800,-0.473846,0.010651,-0.114899,-0.005601,-0.000246,0.001274,-46.25,1.37,5.37,3a
