timestamp,AccX,AccY,AccZ,GyroX,GyroY,GyroZ,MagX,MagY,MagZ,Activity
2019-07-12_114043:500,-0.279114,0.010651,-0.408752,-0.004275999999999999,-0.005939,0.002839,-38.25,8.68,-26.0,3b
2019-07-12_114043:520,-0.279114,0.010162000000000001,-0.408752,-0.004184,-0.005695,0.003053,-38.25,8.68,-26.0,3b
2019-07-12_114043:540,-0.279114,0.010651,-0.408752,-0.003879,-0.005634,0.0034189999999999997,-36.75,9.06,-26.25,3b
2019-07-12_114043:560,-0.280121,0.010651,-0.40774499999999997,-0.003849,-0.005573,0.0038159999999999995,-36.75,9.06,-26.25,3b
2019-07-12_114043:580,-0.279633,0.010651,-0.409271,-0.00394,-0.005451,0.004182,-37.18,8.68,-25.5,3b
2019-07-12_114043:600,-0.278107,0.011169,-0.40823400000000004,-0.004184,-0.005573,0.004548,-37.18,8.68,-25.5,3b
2019-07-12_114043:620,-0.277588,0.011169,-0.40774499999999997,-0.004398,-0.005725,0.004793,-37.18,8.68,-25.5,3b
2019-07-12_114043:640,-0.278107,0.009644,-0.40823400000000004,-0.004581,-0.005695,0.00525,-37.869999,9.37,-26.68,3b
2019-07-12_114043:660,-0.277588,0.008118,-0.407227,-0.004886,-0.005939,0.005403,-37.869999,9.37,-26.68,3b
2019-07-12_114043:680,-0.277588,0.006592,-0.40823400000000004,-0.004886,-0.005939,0.005311,-37.869999,8.68,-26.0,3b
2019-07-12_114043:700,-0.276062,0.0055850000000000006,-0.409271,-0.004703,-0.005817,0.005525,-37.869999,8.68,-26.0,3b
2019-07-12_114043:720,-0.278595,0.004547,-0.409271,-0.004275999999999999,-0.006,0.005647,-37.869999,8.68,-26.0,3b
2019-07-12_114043:740,-0.279114,0.004547,-0.410278,-0.0042450000000000005,-0.0061530000000000005,0.005464,-37.18,9.06,-25.5,3b
2019-07-12_114043:760,-0.279633,0.0055850000000000006,-0.409271,-0.004001,-0.005573,0.005006,-37.18,9.06,-25.5,3b
2019-07-12_114043:780,-0.28418000000000004,0.008636,-0.410278,-0.004459,-0.005054,0.004518,-37.18,9.06,-25.18,3b
2019-07-12_114043:800,-0.281647,0.008636,-0.40823400000000004,-0.004886,-0.004657,0.004396,-37.18,9.06,-25.18,3b
2019-07-12_114043:820,-0.279114,0.007599,-0.408752,-0.0052829999999999995,-0.004566,0.004182,-37.18,9.06,-25.18,3b
2019-07-12_114043:840,-0.278595,0.007599,-0.411285,-0.005344,-0.004718,0.004396,-37.18,9.06,-24.75,3b
2019-07-12_114043:860,-0.279114,0.007111,-0.404175,-0.005039,-0.004718,0.005067,-37.18,9.06,-24.75,3b
2019-07-12_114043:880,-0.282654,0.006072999999999999,-0.40774499999999997,-0.004612,-0.004657,0.00525,-39.0,9.37,-26.0,3b
2019-07-12_114043:900,-0.28064,0.007599,-0.405212,-0.004764,-0.004108,0.005006,-39.0,9.37,-26.0,3b
2019-07-12_114043:920,-0.279114,0.008118,-0.40368699999999996,-0.004947,-0.004229999999999999,0.005586,-39.0,9.37,-26.0,3b
2019-07-12_114043:940,-0.277069,0.005065999999999999,-0.406738,-0.005344,-0.004657,0.005647,-37.18,9.06,-26.68,3b
2019-07-12_114043:960,-0.278107,0.004547,-0.40570100000000003,-0.005375,-0.00539,0.005189,-37.18,9.06,-26.68,3b
2019-07-12_114043:980,-0.279633,0.0030210000000000002,-0.407227,-0.0051,-0.005451,0.005067,-38.25,9.06,-25.18,3b
2019-07-12_114044:000,-0.283173,0.0030210000000000002,-0.407227,-0.004520000000000001,-0.005176,0.005311,-38.25,9.06,-25.18,3b
2019-07-12_114044:020,-0.28112800000000004,0.0025329999999999997,-0.404175,-0.004123,-0.004993,0.004671,-38.25,9.06,-25.18,3b
2019-07-12_114044:040,-0.28064,0.005065999999999999,-0.407227,-0.004275999999999999,-0.00539,0.003633,-37.5,9.37,-26.0,3b
2019-07-12_114044:060,-0.279114,0.004547,-0.406219,-0.0042450000000000005,-0.005573,0.003908,-37.5,9.37,-26.0,3b
2019-07-12_114044:080,-0.279114,0.005065999999999999,-0.406738,-0.004337,-0.0055119999999999995,0.004182,-37.18,9.37,-25.18,3b
2019-07-12_114044:100,-0.280121,0.0055850000000000006,-0.406738,-0.004520000000000001,-0.005756,0.003694,-37.18,9.37,-25.18,3b
2019-07-12_114044:120,-0.28064,0.0055850000000000006,-0.407227,-0.004612,-0.005817,0.00345,-37.18,9.37,-25.18,3b
2019-07-12_114044:140,-0.28112800000000004,0.006072999999999999,-0.40774499999999997,-0.004703,-0.005939,0.0038159999999999995,-37.5,9.06,-26.68,3b
2019-07-12_114044:160,-0.283173,0.0055850000000000006,-0.40570100000000003,-0.004520000000000001,-0.005878,0.00403,-37.5,9.06,-26.68,3b
2019-07-12_114044:180,-0.282166,0.004059,-0.406738,-0.004612,-0.0055119999999999995,0.004091,-38.25,8.68,-25.5,3b
2019-07-12_114044:200,-0.28064,0.0055850000000000006,-0.407227,-0.004612,-0.005573,0.004152,-38.25,8.68,-25.5,3b
2019-07-12_114044:220,-0.278595,0.004059,-0.40570100000000003,-0.004398,-0.005756,0.004182,-38.25,8.68,-25.5,3b
2019-07-12_114044:240,-0.280121,0.004059,-0.405212,-0.0042450000000000005,-0.005939,0.003908,-37.869999,9.06,-25.5,3b
2019-07-12_114044:260,-0.279633,0.004547,-0.40570100000000003,-0.004184,-0.005939,0.004335,-37.869999,9.06,-25.5,3b
2019-07-12_114044:280,-0.280121,0.004547,-0.408752,-0.004001,-0.0060609999999999995,0.004518,-37.5,9.06,-25.18,3b
2019-07-12_114044:300,-0.280121,0.005065999999999999,-0.40774499999999997,-0.004184,-0.005939,0.004609,-37.5,9.06,-25.18,3b
2019-07-12_114044:320,-0.281647,0.0055850000000000006,-0.408752,-0.004062,-0.005756,0.004548,-37.5,9.06,-25.18,3b
2019-07-12_114044:340,-0.28112800000000004,0.0055850000000000006,-0.40774499999999997,-0.004398,-0.00539,0.004396,-36.369999,8.68,-26.25,3b
2019-07-12_114044:360,-0.28112800000000004,0.004059,-0.407227,-0.004520000000000001,-0.005298,0.004274,-36.369999,8.68,-26.25,3b
2019-07-12_114044:380,-0.278595,0.004547,-0.408752,-0.004703,-0.00539,0.004182,-36.75,9.06,-25.18,3b
2019-07-12_114044:400,-0.274536,0.0025329999999999997,-0.407227,-0.004825,-0.005359,0.004671,-36.75,9.06,-25.18,3b
2019-07-12_114044:420,-0.28064,0.001007,-0.408752,-0.00394,-0.005878,0.004854,-36.75,9.06,-25.18,3b
2019-07-12_114044:440,-0.279114,0.000488,-0.408752,-0.003879,-0.005725,0.004945000000000001,-37.5,9.06,-26.25,3b
2019-07-12_114044:460,-0.278595,0.001007,-0.407227,-0.0036659999999999996,-0.005725,0.004396,-37.5,9.06,-26.25,3b
2019-07-12_114044:480,-0.279633,0.002014,-0.410797,-0.0036659999999999996,-0.005634,0.004274,-37.18,9.37,-26.0,3b
2019-07-12_114044:500,-0.275543,0.002014,-0.408752,-0.0036049999999999997,-0.005756,0.003297,-37.18,9.37,-26.0,3b
2019-07-12_114044:520,-0.28064,0.0030210000000000002,-0.410797,-0.0036049999999999997,-0.005695,0.002778,-37.18,9.37,-26.0,3b
2019-07-12_114044:540,-0.280121,0.004547,-0.40976,-0.003544,-0.005725,0.0029,-37.18,9.06,-24.0,3b
2019-07-12_114044:560,-0.279114,0.004547,-0.407227,-0.0032689999999999998,-0.005451,0.0038469999999999997,-37.18,9.06,-24.0,3b
2019-07-12_114044:580,-0.279633,0.005065999999999999,-0.40976,-0.003055,-0.005115,0.004335,-37.18,9.06,-24.0,3b
2019-07-12_114044:600,-0.276062,0.006592,-0.40823400000000004,-0.003544,-0.004993,0.004152,-36.060001,9.06,-26.0,3b
2019-07-12_114044:620,-0.276581,0.007599,-0.40823400000000004,-0.004642,-0.005451,0.00525,-36.060001,9.06,-26.0,3b
2019-07-12_114044:640,-0.276581,0.004547,-0.40976,-0.004703,-0.005634,0.005311,-37.18,9.75,-25.18,3b
2019-07-12_114044:660,-0.28112800000000004,0.001495,-0.408752,-0.004703,-0.0052369999999999995,0.004396,-37.18,9.75,-25.18,3b
2019-07-12_114044:680,-0.28112800000000004,0.001495,-0.409271,-0.004612,-0.004961999999999999,0.004518,-37.18,9.75,-25.18,3b
2019-07-12_114044:700,-0.282654,0.0025329999999999997,-0.408752,-0.003849,-0.004321,0.0058,-37.869999,9.75,-24.75,3b
2019-07-12_114044:720,-0.279633,0.000488,-0.408752,-0.003788,-0.004566,0.005678,-37.869999,9.75,-24.75,3b
2019-07-12_114044:740,-0.278107,0.002014,-0.409271,-0.0037270000000000003,-0.004566,0.005006,-36.75,8.68,-24.75,3b
2019-07-12_114044:760,-0.279114,0.001495,-0.40823400000000004,-0.0036659999999999996,-0.004657,0.005342,-36.75,8.68,-24.75,3b
2019-07-12_114044:780,-0.281647,0.002014,-0.409271,-0.0036659999999999996,-0.004566,0.005922,-36.75,8.68,-24.75,3b
2019-07-12_114044:800,-0.283173,0.001007,-0.408752,-0.003788,-0.00426,0.005739,-37.5,9.75,-25.18,3b
2019-07-12_114044:820,-0.281647,0.001495,-0.40823400000000004,-0.0042450000000000005,-0.003925,0.005403,-37.5,9.75,-25.18,3b
2019-07-12_114044:840,-0.282166,0.000488,-0.40774499999999997,-0.004520000000000001,-0.003925,0.0058,-36.369999,9.37,-26.0,3b
2019-07-12_114044:860,-0.28369099999999997,0.000488,-0.406219,-0.004703,-0.004169,0.0058,-36.369999,9.37,-26.0,3b
2019-07-12_114044:880,-0.285217,0.0,-0.40570100000000003,-0.004703,-0.003711,0.005342,-36.369999,9.37,-26.0,3b
2019-07-12_114044:900,-0.286224,0.0,-0.406219,-0.004520000000000001,-0.0035280000000000003,0.005922,-36.75,9.75,-25.5,3b
2019-07-12_114044:920,-0.286224,0.001495,-0.40368699999999996,-0.004459,-0.003192,0.006318,-36.75,9.75,-25.5,3b
2019-07-12_114044:940,-0.285706,0.0025329999999999997,-0.402649,-0.004703,-0.0032530000000000002,0.006654,-37.18,9.75,-25.5,3b
2019-07-12_114044:960,-0.28418000000000004,0.001495,-0.399109,-0.005497,-0.003467,0.007112,-37.18,9.75,-25.5,3b
2019-07-12_114044:980,-0.282654,0.000488,-0.399597,-0.006076,-0.004108,0.00757,-37.18,9.75,-25.5,3b
2019-07-12_114045:000,-0.281647,-0.001495,-0.398071,-0.0064730000000000005,-0.004657,0.007448000000000001,-37.5,10.18,-24.0,3b
2019-07-12_114045:020,-0.282166,-0.002014,-0.399597,-0.006809,-0.005115,0.007203,-37.5,10.18,-24.0,3b
2019-07-12_114045:040,-0.281647,-0.0035399999999999997,-0.39859,-0.0065650000000000005,-0.005634,0.007051000000000001,-37.869999,9.37,-24.75,3b
2019-07-12_114045:060,-0.280121,-0.0035399999999999997,-0.397583,-0.0064730000000000005,-0.006336,0.006532,-37.869999,9.37,-24.75,3b
2019-07-12_114045:080,-0.28064,-0.005065999999999999,-0.401642,-0.006229,-0.006885,0.006257,-37.869999,9.37,-24.75,3b
2019-07-12_114045:100,-0.28112800000000004,-0.004059,-0.40316799999999997,-0.005954,-0.007281999999999999,0.006135,-37.5,10.18,-25.18,3b
2019-07-12_114045:120,-0.28674299999999997,-0.0035399999999999997,-0.407227,-0.005497,-0.007739,0.006044,-37.5,10.18,-25.18,3b
2019-07-12_114045:140,-0.28927600000000003,-0.001007,-0.407227,-0.005497,-0.007220999999999999,0.006044,-37.5,10.18,-25.5,3b
2019-07-12_114045:160,-0.288269,0.000488,-0.406738,-0.005619,-0.006458,0.006318,-37.5,10.18,-25.5,3b
2019-07-12_114045:180,-0.291321,0.000488,-0.410278,-0.00629,-0.005817,0.006074,-37.5,10.18,-25.5,3b
2019-07-12_114045:200,-0.28369099999999997,0.001007,-0.40570100000000003,-0.006809,-0.005176,0.005739,-37.18,10.18,-24.75,3b
2019-07-12_114045:220,-0.28418000000000004,-0.001007,-0.405212,-0.007084,-0.005298,0.005586,-37.18,10.18,-24.75,3b
2019-07-12_114045:240,-0.281647,-0.001495,-0.404175,-0.006809,-0.005298,0.005678,-37.5,10.18,-25.18,3b
2019-07-12_114045:260,-0.28064,-0.0025329999999999997,-0.40316799999999997,-0.0064730000000000005,-0.005451,0.006837,-37.5,10.18,-25.18,3b
2019-07-12_114045:280,-0.280121,-0.0030210000000000002,-0.404694,-0.0060149999999999995,-0.005817,0.007722,-37.5,10.18,-25.18,3b
2019-07-12_114045:300,-0.279114,-0.001007,-0.405212,-0.006076,-0.006092,0.006837,-37.18,9.75,-24.75,3b
2019-07-12_114045:320,-0.28064,-0.001495,-0.40316799999999997,-0.006412,-0.006275,0.006074,-37.18,9.75,-24.75,3b
2019-07-12_114045:340,-0.282654,-0.001007,-0.406738,-0.006504,-0.006488,0.006196,-37.5,10.87,-24.25,3b
2019-07-12_114045:360,-0.284698,-0.0025329999999999997,-0.404175,-0.006809,-0.006548999999999999,0.005678,-37.5,10.87,-24.25,3b
2019-07-12_114045:380,-0.282654,-0.004059,-0.40570100000000003,-0.0067480000000000005,-0.0066099999999999996,0.005403,-37.5,10.87,-24.25,3b
2019-07-12_114045:400,-0.285706,-0.002014,-0.408752,-0.006351,-0.006548999999999999,0.006135,-36.75,10.56,-25.18,3b
2019-07-12_114045:420,-0.283173,-0.004059,-0.40570100000000003,-0.006076,-0.0060609999999999995,0.005861,-36.75,10.56,-25.18,3b
2019-07-12_114045:440,-0.282166,-0.001495,-0.40570100000000003,-0.005558,-0.006275,0.004335,-36.060001,10.18,-25.18,3b
2019-07-12_114045:460,-0.283173,0.000488,-0.40570100000000003,-0.005558,-0.006275,0.004457,-36.060001,10.18,-25.18,3b
2019-07-12_114045:480,-0.283173,0.000488,-0.40570100000000003,-0.0052829999999999995,-0.006275,0.005739,-36.060001,10.18,-25.18,3b
2019-07-12_114045:500,-0.282166,0.001495,-0.404694,-0.005375,-0.006214,0.0058,-36.75,9.75,-25.5,3b
2019-07-12_114045:520,-0.281647,0.0025329999999999997,-0.404694,-0.005893,-0.006336,0.005403,-36.75,9.75,-25.5,3b
2019-07-12_114045:540,-0.279114,0.0,-0.405212,-0.006229,-0.006397,0.005739,-36.75,9.06,-26.0,3b
2019-07-12_114045:560,-0.279114,-0.001007,-0.406219,-0.006168,-0.006336,0.006044,-36.75,9.06,-26.0,3b
2019-07-12_114045:580,-0.280121,-0.002014,-0.40774499999999997,-0.006504,-0.006670999999999999,0.005342,-36.75,9.06,-26.0,3b
2019-07-12_114045:600,-0.283173,-0.0035399999999999997,-0.40774499999999997,-0.0060149999999999995,-0.0066099999999999996,0.005464,-37.18,10.18,-24.75,3b
2019-07-12_114045:620,-0.282654,-0.004059,-0.40823400000000004,-0.005344,-0.006336,0.005586,-37.18,10.18,-24.75,3b
2019-07-12_114045:640,-0.281647,-0.0025329999999999997,-0.408752,-0.004978,-0.005817,0.005403,-37.5,9.75,-26.0,3b
2019-07-12_114045:660,-0.282166,0.0,-0.407227,-0.004825,-0.0055119999999999995,0.005342,-37.5,9.75,-26.0,3b
2019-07-12_114045:680,-0.282166,0.0,-0.40774499999999997,-0.004978,-0.005298,0.005128,-37.5,9.75,-26.0,3b
2019-07-12_114045:700,-0.28369099999999997,0.0,-0.406219,-0.005039,-0.004993,0.004518,-37.5,10.56,-25.5,3b
2019-07-12_114045:720,-0.28418000000000004,0.0,-0.406219,-0.005497,-0.004779,0.004396,-37.5,10.56,-25.5,3b
2019-07-12_114045:740,-0.281647,-0.001007,-0.405212,-0.005619,-0.004321,0.004609,-36.75,10.56,-25.5,3b
2019-07-12_114045:760,-0.28064,-0.0030210000000000002,-0.404694,-0.005497,-0.004383,0.004091,-36.75,10.56,-25.5,3b
2019-07-12_114045:780,-0.28064,-0.0035399999999999997,-0.405212,-0.0052829999999999995,-0.004779,0.003633,-36.75,10.56,-25.5,3b
2019-07-12_114045:800,-0.278595,-0.0035399999999999997,-0.40316799999999997,-0.004703,-0.004901,0.003908,-36.369999,10.56,-25.5,3b
2019-07-12_114045:820,-0.287231,-0.001007,-0.406219,-0.004123,-0.005054,0.0038159999999999995,-36.369999,10.56,-25.5,3b
2019-07-12_114045:840,-0.284698,0.0,-0.40368699999999996,-0.004184,-0.004901,0.003297,-37.5,10.56,-25.5,3b
2019-07-12_114045:860,-0.28369099999999997,0.001007,-0.40368699999999996,-0.004275999999999999,-0.004779,0.00345,-37.5,10.56,-25.5,3b
2019-07-12_114045:880,-0.284698,-0.000488,-0.40570100000000003,-0.004825,-0.005115,0.003053,-37.5,10.56,-25.5,3b
2019-07-12_114045:900,-0.279633,-0.0030210000000000002,-0.40368699999999996,-0.004886,-0.00539,0.002046,-36.369999,10.56,-25.18,3b
2019-07-12_114045:920,-0.282654,-0.001495,-0.40570100000000003,-0.004764,-0.005878,0.000642,-36.369999,10.56,-25.18,3b
2019-07-12_114045:940,-0.285217,-0.000488,-0.406219,-0.003849,-0.0061530000000000005,0.001161,-37.869999,9.75,-25.18,3b
2019-07-12_114045:960,-0.284698,-0.0035399999999999997,-0.404175,-0.0027199999999999998,-0.005725,0.002687,-37.869999,9.75,-25.18,3b
2019-07-12_114045:980,-0.281647,-0.0025329999999999997,-0.407227,-0.0018039999999999998,-0.005359,0.003175,-37.869999,9.75,-25.18,3b
2019-07-12_114046:000,-0.279633,0.0,-0.408752,-0.001285,-0.0052369999999999995,0.0026260000000000003,-37.5,10.56,-25.5,3b
2019-07-12_114046:020,-0.280121,0.000488,-0.405212,-0.001285,-0.005298,0.002443,-37.5,10.56,-25.5,3b
2019-07-12_114046:040,-0.282166,0.001007,-0.405212,-0.001407,-0.005359,0.0029620000000000002,-36.75,10.18,-26.25,3b
2019-07-12_114046:060,-0.28418000000000004,-0.000488,-0.404175,-0.002018,-0.00539,0.003175,-36.75,10.18,-26.25,3b
2019-07-12_114046:080,-0.28112800000000004,-0.000488,-0.404175,-0.002475,-0.0052369999999999995,0.003572,-36.75,10.18,-26.25,3b
2019-07-12_114046:100,-0.28064,-0.004059,-0.404694,-0.00275,-0.005573,0.004274,-37.869999,9.37,-25.18,3b
2019-07-12_114046:120,-0.28112800000000004,-0.005065999999999999,-0.40316799999999997,-0.00275,-0.00539,0.0038469999999999997,-37.869999,9.37,-25.18,3b
2019-07-12_114046:140,-0.285217,-0.004547,-0.406738,-0.002994,-0.005725,0.002565,-36.75,9.75,-25.5,3b
2019-07-12_114046:160,-0.283173,-0.004547,-0.40368699999999996,-0.00275,-0.005451,0.003297,-36.75,9.75,-25.5,3b
2019-07-12_114046:180,-0.284698,-0.005065999999999999,-0.404694,-0.00275,-0.00539,0.004213000000000001,-36.75,9.75,-25.5,3b
2019-07-12_114046:200,-0.282166,-0.0035399999999999997,-0.40570100000000003,-0.002994,-0.00539,0.0034189999999999997,-36.75,10.18,-24.0,3b
2019-07-12_114046:220,-0.28064,-0.002014,-0.40368699999999996,-0.003483,-0.005451,0.0027170000000000002,-36.75,10.18,-24.0,3b
2019-07-12_114046:240,-0.279633,-0.0035399999999999997,-0.40368699999999996,-0.00394,-0.005695,0.003358,-37.5,10.18,-25.18,3b
2019-07-12_114046:260,-0.280121,-0.005065999999999999,-0.40368699999999996,-0.004275999999999999,-0.006,0.003694,-37.5,10.18,-25.18,3b
2019-07-12_114046:280,-0.282654,-0.004547,-0.404694,-0.004275999999999999,-0.006214,0.0032359999999999997,-37.5,10.18,-25.18,3b
2019-07-12_114046:300,-0.281647,-0.005065999999999999,-0.40570100000000003,-0.00394,-0.0060609999999999995,0.003694,-37.18,10.18,-26.68,3b
2019-07-12_114046:320,-0.282166,-0.004547,-0.40570100000000003,-0.003788,-0.0060609999999999995,0.004091,-37.18,10.18,-26.68,3b
2019-07-12_114046:340,-0.279633,-0.0035399999999999997,-0.406738,-0.003879,-0.0060609999999999995,0.004335,-37.5,9.37,-25.5,3b
2019-07-12_114046:360,-0.28064,-0.001495,-0.40570100000000003,-0.0042450000000000005,-0.006397,0.004396,-37.5,9.37,-25.5,3b
2019-07-12_114046:380,-0.28418000000000004,-0.002014,-0.40774499999999997,-0.004459,-0.006336,0.004548,-37.5,9.37,-25.5,3b
2019-07-12_114046:400,-0.282166,-0.004059,-0.406738,-0.005039,-0.005817,0.004396,-36.060001,10.18,-26.25,3b
2019-07-12_114046:420,-0.279633,-0.0035399999999999997,-0.40570100000000003,-0.005375,-0.005725,0.004518,-36.060001,10.18,-26.25,3b
2019-07-12_114046:440,-0.279633,-0.004547,-0.406738,-0.005558,-0.005939,0.004396,-37.869999,10.56,-26.25,3b
2019-07-12_114046:460,-0.279114,-0.0035399999999999997,-0.40570100000000003,-0.005619,-0.005695,0.004335,-37.869999,10.56,-26.25,3b
2019-07-12_114046:480,-0.279633,-0.005065999999999999,-0.407227,-0.005619,-0.006,0.004518,-37.869999,10.56,-26.25,3b
2019-07-12_114046:500,-0.28369099999999997,-0.0030210000000000002,-0.408752,-0.005344,-0.006092,0.004213000000000001,-36.369999,10.18,-26.68,3b
2019-07-12_114046:520,-0.28369099999999997,-0.001495,-0.404694,-0.005375,-0.005695,0.004396,-36.369999,10.18,-26.68,3b
2019-07-12_114046:540,-0.285706,-0.002014,-0.406219,-0.005558,-0.0052369999999999995,0.004854,-37.18,10.56,-25.18,3b
2019-07-12_114046:560,-0.282654,-0.001495,-0.406219,-0.00629,-0.005176,0.004335,-37.18,10.56,-25.18,3b
2019-07-12_114046:580,-0.278595,-0.004059,-0.406738,-0.0065650000000000005,-0.005176,0.0037549999999999997,-37.18,10.56,-25.18,3b
2019-07-12_114046:600,-0.282166,-0.0030210000000000002,-0.408752,-0.006351,-0.005573,0.003358,-37.18,9.75,-25.5,3b
2019-07-12_114046:620,-0.28369099999999997,-0.005065999999999999,-0.405212,-0.005893,-0.0055119999999999995,0.00345,-37.18,9.75,-25.5,3b
2019-07-12_114046:640,-0.282654,-0.002014,-0.405212,-0.005375,-0.0052369999999999995,0.004091,-37.18,10.18,-26.25,3b
2019-07-12_114046:660,-0.282654,-0.001007,-0.405212,-0.004947,-0.00484,0.004335,-37.18,10.18,-26.25,3b
2019-07-12_114046:680,-0.277069,0.000488,-0.404175,-0.005222,-0.004718,0.003908,-37.18,10.18,-26.25,3b
2019-07-12_114046:700,-0.277588,0.000488,-0.406219,-0.005619,-0.0052369999999999995,0.0037549999999999997,-37.5,10.18,-25.18,3b
2019-07-12_114046:720,-0.282166,-0.001007,-0.406738,-0.0060149999999999995,-0.005695,0.0037549999999999997,-37.5,10.18,-25.18,3b
2019-07-12_114046:740,-0.279633,-0.002014,-0.406219,-0.006168,-0.005634,0.003175,-37.5,9.75,-25.5,3b
2019-07-12_114046:760,-0.286224,-0.001007,-0.406219,-0.006076,-0.005817,0.003358,-37.5,9.75,-25.5,3b
2019-07-12_114046:780,-0.281647,-0.002014,-0.406219,-0.005558,-0.005756,0.0038469999999999997,-37.5,9.75,-25.5,3b
2019-07-12_114046:800,-0.282654,-0.001007,-0.406738,-0.0052829999999999995,-0.005451,0.003053,-36.369999,9.37,-25.5,3b
2019-07-12_114046:820,-0.282166,0.001495,-0.407227,-0.005161,-0.00539,0.002168,-36.369999,9.37,-25.5,3b
2019-07-12_114046:840,-0.280121,-0.000488,-0.408752,-0.005039,-0.0052369999999999995,0.003023,-36.75,10.18,-26.0,3b
2019-07-12_114046:860,-0.28064,0.0,-0.405212,-0.005039,-0.005115,0.003297,-36.75,10.18,-26.0,3b
2019-07-12_114046:880,-0.279114,0.002014,-0.407227,-0.005161,-0.005115,0.0029,-36.75,10.18,-26.0,3b
2019-07-12_114046:900,-0.279633,0.0030210000000000002,-0.406219,-0.0052829999999999995,-0.0052369999999999995,0.0029,-36.369999,9.75,-25.18,3b
2019-07-12_114046:920,-0.28064,0.001007,-0.406738,-0.0052829999999999995,-0.005451,0.003114,-36.369999,9.75,-25.18,3b
2019-07-12_114046:940,-0.282166,0.002014,-0.40774499999999997,-0.005436,-0.005725,0.0029620000000000002,-36.75,9.75,-25.5,3b
2019-07-12_114046:960,-0.282166,0.001495,-0.406738,-0.005436,-0.0052369999999999995,0.0027170000000000002,-36.75,9.75,-25.5,3b
2019-07-12_114046:980,-0.282654,0.001495,-0.407227,-0.005222,-0.0052369999999999995,0.003023,-36.75,9.75,-25.5,3b
2019-07-12_114047:000,-0.282166,0.001007,-0.406738,-0.005039,-0.00484,0.003053,-37.869999,10.18,-25.18,3b
2019-07-12_114047:020,-0.28064,0.0025329999999999997,-0.40774499999999997,-0.004703,-0.004993,0.0029620000000000002,-37.869999,10.18,-25.18,3b
2019-07-12_114047:040,-0.280121,0.002014,-0.407227,-0.004459,-0.005115,0.003023,-36.75,10.56,-25.5,3b
2019-07-12_114047:060,-0.279633,0.0030210000000000002,-0.406738,-0.004275999999999999,-0.005176,0.0029620000000000002,-36.75,10.56,-25.5,3b
2019-07-12_114047:080,-0.279633,0.004547,-0.406738,-0.004123,-0.005054,0.002565,-36.75,10.56,-25.5,3b
2019-07-12_114047:100,-0.282166,0.006072999999999999,-0.406219,-0.004062,-0.005176,0.002046,-36.369999,9.75,-24.75,3b
2019-07-12_114047:120,-0.278595,0.007599,-0.404694,-0.004184,-0.00484,0.002321,-36.369999,9.75,-24.75,3b
2019-07-12_114047:140,-0.275543,0.006072999999999999,-0.40570100000000003,-0.004520000000000001,-0.004993,0.003114,-37.18,9.75,-24.0,3b
2019-07-12_114047:160,-0.277069,0.004059,-0.406738,-0.004642,-0.005451,0.003572,-37.18,9.75,-24.0,3b
2019-07-12_114047:180,-0.281647,0.0035399999999999997,-0.405212,-0.004581,-0.005634,0.0034189999999999997,-37.18,9.75,-24.0,3b
2019-07-12_114047:200,-0.28875700000000004,0.004059,-0.408752,-0.004275999999999999,-0.005695,0.00345,-37.5,9.06,-25.5,3b
2019-07-12_114047:220,-0.285706,0.0030210000000000002,-0.407227,-0.004184,-0.004961999999999999,0.0034189999999999997,-37.5,9.06,-25.5,3b
2019-07-12_114047:240,-0.28418000000000004,0.002014,-0.408752,-0.004123,-0.004444,0.0034189999999999997,-37.869999,9.75,-25.5,3b
2019-07-12_114047:260,-0.285217,0.002014,-0.40823400000000004,-0.003879,-0.004169,0.00345,-37.869999,9.75,-25.5,3b
2019-07-12_114047:280,-0.282166,-0.000488,-0.40774499999999997,-0.0036659999999999996,-0.004383,0.0038159999999999995,-37.869999,9.75,-25.5,3b
2019-07-12_114047:300,-0.281647,-0.000488,-0.405212,-0.002933,-0.00426,0.004671,-37.869999,9.75,-25.559998999999998,3b
2019-07-12_114047:320,-0.279633,-0.000488,-0.40570100000000003,-0.002323,-0.004047,0.004854,-37.869999,9.75,-25.559998999999998,3b
2019-07-12_114047:340,-0.279114,0.000488,-0.402649,-0.002353,-0.004169,0.00403,-37.5,9.06,-26.25,3b
2019-07-12_114047:360,-0.282166,0.000488,-0.402161,-0.002536,-0.004321,0.0039689999999999994,-37.5,9.06,-26.25,3b
2019-07-12_114047:380,-0.28418000000000004,0.0,-0.404175,-0.002933,-0.004596,0.0037549999999999997,-37.5,9.06,-26.25,3b
2019-07-12_114047:400,-0.282654,-0.001495,-0.40368699999999996,-0.0033299999999999996,-0.004596,0.003175,-37.18,9.75,-24.75,3b
2019-07-12_114047:420,-0.286224,-0.002014,-0.404694,-0.0032689999999999998,-0.005176,0.003175,-37.18,9.75,-24.75,3b
2019-07-12_114047:440,-0.285217,-0.0025329999999999997,-0.402649,-0.002933,-0.005115,0.003175,-37.5,10.56,-25.5,3b
2019-07-12_114047:460,-0.285706,-0.002014,-0.40316799999999997,-0.0027199999999999998,-0.005054,0.0027170000000000002,-37.5,10.56,-25.5,3b
2019-07-12_114047:480,-0.28674299999999997,0.000488,-0.40316799999999997,-0.002659,-0.00484,0.0032359999999999997,-37.5,10.56,-25.5,3b
2019-07-12_114047:500,-0.284698,0.000488,-0.402649,-0.002811,-0.005115,0.004091,-37.18,9.75,-25.18,3b
2019-07-12_114047:520,-0.282654,0.0,-0.40368699999999996,-0.003116,-0.005054,0.004274,-37.18,9.75,-25.18,3b
2019-07-12_114047:540,-0.283173,0.0,-0.40368699999999996,-0.0036049999999999997,-0.005359,0.004274,-37.869999,9.37,-24.25,3b
2019-07-12_114047:560,-0.282166,-0.000488,-0.402161,-0.003849,-0.005634,0.004793,-37.869999,9.37,-24.25,3b
2019-07-12_114047:580,-0.281647,-0.0030210000000000002,-0.402161,-0.004062,-0.005756,0.00525,-37.869999,9.37,-24.25,3b
2019-07-12_114047:600,-0.28064,-0.006072999999999999,-0.404694,-0.004184,-0.0060609999999999995,0.005067,-37.5,9.75,-24.0,3b
2019-07-12_114047:620,-0.282166,-0.0055850000000000006,-0.404694,-0.00394,-0.006275,0.004915,-37.5,9.75,-24.0,3b
2019-07-12_114047:640,-0.285706,-0.0055850000000000006,-0.40570100000000003,-0.003788,-0.0060609999999999995,0.004793,-36.369999,9.37,-25.18,3b
2019-07-12_114047:660,-0.285217,-0.0055850000000000006,-0.406219,-0.003879,-0.005695,0.004518,-36.369999,9.37,-25.18,3b
2019-07-12_114047:680,-0.286224,-0.004059,-0.40774499999999997,-0.004062,-0.005359,0.004335,-36.369999,9.37,-25.18,3b
2019-07-12_114047:700,-0.285706,-0.004059,-0.409271,-0.004337,-0.004993,0.004091,-37.18,9.37,-24.25,3b
2019-07-12_114047:720,-0.286224,-0.004547,-0.40774499999999997,-0.004703,-0.004596,0.003908,-37.18,9.37,-24.25,3b
2019-07-12_114047:740,-0.285706,-0.001495,-0.406738,-0.004825,-0.00426,0.00345,-37.18,10.56,-25.18,3b
2019-07-12_114047:760,-0.286224,0.0,-0.40368699999999996,-0.0051,-0.004169,0.003511,-37.18,10.56,-25.18,3b
2019-07-12_114047:780,-0.285706,0.000488,-0.404175,-0.005619,-0.003833,0.004152,-37.18,10.56,-25.18,3b
2019-07-12_114047:800,-0.277069,-0.000488,-0.402161,-0.006168,-0.004047,0.004854,-37.869999,9.37,-25.18,3b
2019-07-12_114047:820,-0.276062,-0.0030210000000000002,-0.40316799999999997,-0.006351,-0.004961999999999999,0.004671,-37.869999,9.37,-25.18,3b
2019-07-12_114047:840,-0.28674299999999997,-0.0035399999999999997,-0.40368699999999996,-0.006076,-0.005359,0.003694,-37.869999,9.37,-24.75,3b
2019-07-12_114047:860,-0.285217,-0.0035399999999999997,-0.402161,-0.005771,-0.004596,0.0034189999999999997,-37.869999,9.37,-24.75,3b
2019-07-12_114047:880,-0.286224,-0.0030210000000000002,-0.40368699999999996,-0.005741,-0.004321,0.0037549999999999997,-37.869999,9.37,-24.75,3b
2019-07-12_114047:900,-0.277069,-0.005065999999999999,-0.40316799999999997,-0.005436,-0.004566,0.003908,-36.75,10.18,-24.0,3b
2019-07-12_114047:920,-0.273529,-0.010162000000000001,-0.40823400000000004,-0.004703,-0.005878,0.002382,-36.75,10.18,-24.0,3b
2019-07-12_114047:940,-0.279114,-0.012177,-0.411804,-0.0033299999999999996,-0.006731999999999999,0.0008560000000000001,-37.5,9.75,-26.0,3b
2019-07-12_114047:960,-0.285217,-0.011687999999999999,-0.411285,-0.001621,-0.005939,0.000306,-37.5,9.75,-26.0,3b
2019-07-12_114047:980,-0.290802,-0.008118,-0.411285,-0.000156,-0.004657,-0.000365,-37.5,9.75,-26.0,3b
2019-07-12_114048:000,-0.29232800000000003,-0.001007,-0.411285,0.000332,-0.002979,-0.0016769999999999999,-37.869999,9.75,-23.559998999999998,3b
2019-07-12_114048:020,-0.28927600000000003,0.0030210000000000002,-0.407227,-0.000156,-0.00185,-0.002806,-37.869999,9.75,-23.559998999999998,3b
2019-07-12_114048:040,-0.28979499999999997,0.007111,-0.405212,-0.0013460000000000002,-0.0013310000000000002,-0.002684,-37.18,9.37,-24.25,3b
2019-07-12_114048:060,-0.28979499999999997,0.008118,-0.402649,-0.00275,-0.0009339999999999999,-0.002135,-37.18,9.37,-24.25,3b
2019-07-12_114048:080,-0.28979499999999997,0.009125,-0.401123,-0.003879,-0.0008730000000000001,-0.001464,-37.18,9.37,-24.25,3b
2019-07-12_114048:100,-0.28927600000000003,0.006592,-0.39859,-0.004703,-0.000781,-0.000609,-37.869999,10.18,-24.75,3b
2019-07-12_114048:120,-0.287231,0.002014,-0.395538,-0.004764,-0.0008730000000000001,0.000917,-37.869999,10.18,-24.75,3b
2019-07-12_114048:140,-0.287231,-0.001007,-0.395538,-0.004337,-0.00185,0.001039,-37.18,9.06,-23.559998999999998,3b
2019-07-12_114048:160,-0.28875700000000004,-0.001007,-0.393494,-0.0033909999999999995,-0.0025210000000000002,0.001253,-37.18,9.06,-23.559998999999998,3b
2019-07-12_114048:180,-0.290802,-0.000488,-0.394531,-0.0022010000000000003,-0.0030399999999999997,0.002046,-37.18,9.06,-23.559998999999998,3b
2019-07-12_114048:200,-0.28979499999999997,0.0025329999999999997,-0.393005,-0.001529,-0.0032530000000000002,0.002778,-38.25,9.06,-24.75,3b
2019-07-12_114048:220,-0.285706,0.005065999999999999,-0.394012,-0.0019260000000000002,-0.003711,0.003053,-38.25,9.06,-24.75,3b
2019-07-12_114048:240,-0.284698,0.004547,-0.396545,-0.00275,-0.004657,0.003694,-38.25,9.06,-24.25,3b
2019-07-12_114048:260,-0.290802,0.000488,-0.397064,-0.0037270000000000003,-0.005725,0.003694,-38.25,9.06,-24.25,3b
2019-07-12_114048:280,-0.29486100000000004,0.000488,-0.39859,-0.004275999999999999,-0.006,0.003023,-38.25,9.06,-24.25,3b
2019-07-12_114048:300,-0.29742399999999997,0.000488,-0.397064,-0.004703,-0.0055119999999999995,0.002778,-37.5,9.06,-23.559998999999998,3b
2019-07-12_114048:320,-0.296906,-0.001495,-0.39859,-0.004612,-0.004993,0.003572,-37.5,9.06,-23.559998999999998,3b
2019-07-12_114048:340,-0.294373,-0.001495,-0.399109,-0.004520000000000001,-0.004566,0.0032359999999999997,-37.869999,8.25,-24.25,3b
2019-07-12_114048:360,-0.29486100000000004,-0.001495,-0.397064,-0.004520000000000001,-0.004718,0.0027170000000000002,-37.869999,8.25,-24.25,3b
2019-07-12_114048:380,-0.293854,-0.000488,-0.396545,-0.004275999999999999,-0.004657,0.002687,-37.869999,8.25,-24.25,3b
2019-07-12_114048:400,-0.29180900000000004,-0.002014,-0.397064,-0.0042450000000000005,-0.004901,0.002443,-37.869999,8.68,-22.75,3b
2019-07-12_114048:420,-0.29232800000000003,-0.001007,-0.397064,-0.004123,-0.005176,0.002168,-37.869999,8.68,-22.75,3b
2019-07-12_114048:440,-0.290802,-0.001007,-0.397583,-0.003483,-0.005115,0.001832,-37.869999,8.68,-23.18,3b
2019-07-12_114048:460,-0.29486100000000004,0.001495,-0.397583,-0.0033909999999999995,-0.005359,0.001527,-37.869999,8.68,-23.18,3b
2019-07-12_114048:480,-0.296387,0.0030210000000000002,-0.39502,-0.0033299999999999996,-0.005359,0.001771,-37.869999,8.68,-23.18,3b
2019-07-12_114048:500,-0.298431,0.004547,-0.39502,-0.003483,-0.004993,0.002229,-38.68,9.06,-24.75,3b
2019-07-12_114048:520,-0.296387,0.005065999999999999,-0.395538,-0.00394,-0.004596,0.002778,-38.68,9.06,-24.75,3b
2019-07-12_114048:540,-0.29486100000000004,0.0035399999999999997,-0.394012,-0.004581,-0.004901,0.003297,-38.25,8.68,-23.18,3b
2019-07-12_114048:560,-0.298431,0.0030210000000000002,-0.393494,-0.005161,-0.005115,0.003114,-38.25,8.68,-23.18,3b
2019-07-12_114048:580,-0.29284699999999997,0.001007,-0.391479,-0.005161,-0.0055119999999999995,0.0032359999999999997,-38.25,8.68,-23.18,3b
2019-07-12_114048:600,-0.293335,0.0,-0.392487,-0.004825,-0.005878,0.003114,-37.5,8.68,-24.370001000000002,3b
2019-07-12_114048:620,-0.291321,-0.001007,-0.394012,-0.004764,-0.006458,0.0032359999999999997,-37.5,8.68,-24.370001000000002,3b
2019-07-12_114048:640,-0.290802,-0.002014,-0.394531,-0.004398,-0.007220999999999999,0.0037549999999999997,-39.0,8.68,-24.25,3b
2019-07-12_114048:660,-0.29538000000000003,-0.0030210000000000002,-0.393005,-0.003544,-0.007343000000000001,0.003511,-39.0,8.68,-24.25,3b
2019-07-12_114048:680,-0.29284699999999997,0.0,-0.39502,-0.0036659999999999996,-0.00719,0.0026260000000000003,-39.0,8.68,-24.25,3b
2019-07-12_114048:700,-0.288269,-0.002014,-0.399597,-0.004275999999999999,-0.007465,0.0029,-39.0,9.06,-24.75,3b
2019-07-12_114048:720,-0.287231,-0.007599,-0.402161,-0.004703,-0.00838,0.003694,-39.0,9.06,-24.75,3b
2019-07-12_114048:740,-0.29284699999999997,-0.015747,-0.404694,-0.004398,-0.008716,0.002778,-38.68,9.75,-22.75,3b
2019-07-12_114048:760,-0.291321,-0.016753999999999998,-0.40368699999999996,-0.0037270000000000003,-0.007801000000000001,0.001588,-38.68,9.75,-22.75,3b
2019-07-12_114048:780,-0.29538000000000003,-0.016753999999999998,-0.410797,-0.002872,-0.007220999999999999,0.003023,-38.68,9.75,-22.75,3b
2019-07-12_114048:800,-0.28927600000000003,-0.018799,-0.410278,-0.002475,-0.005939,0.004609,-38.25,7.87,-24.25,3b
2019-07-12_114048:820,-0.282166,-0.012177,-0.410278,-0.003544,-0.005298,0.003633,-38.25,7.87,-24.25,3b
2019-07-12_114048:840,-0.284698,-0.016266,-0.412811,-0.006412,-0.004596,0.004274,-38.68,8.68,-24.0,3b
2019-07-12_114048:860,-0.28927600000000003,-0.024902,-0.408752,-0.008029999999999999,-0.003711,0.006776000000000001,-38.68,8.68,-24.0,3b
2019-07-12_114048:880,-0.29232800000000003,-0.031494,-0.408752,-0.009403,-0.002307,0.005128,-38.68,8.68,-24.0,3b
2019-07-12_114048:900,-0.29232800000000003,-0.035583,-0.40368699999999996,-0.010532,-0.000781,0.000642,-38.25,9.06,-24.25,3b
2019-07-12_114048:920,-0.28775,-0.037598,-0.40063499999999996,-0.010348999999999999,7.3e-05,-0.001616,-38.25,9.06,-24.25,3b
2019-07-12_114048:940,-0.285217,-0.039642000000000004,-0.396057,-0.009281000000000001,0.000134,-0.003783,-38.25,8.68,-24.25,3b
2019-07-12_114048:960,-0.281647,-0.037598,-0.391479,-0.008029999999999999,-0.0008730000000000001,-0.00659,-38.25,8.68,-24.25,3b
2019-07-12_114048:980,-0.28064,-0.033539,-0.390442,-0.006168,-0.00185,-0.008237999999999999,-38.25,8.68,-24.25,3b
2019-07-12_114049:000,-0.280121,-0.028961,-0.388916,-0.0042450000000000005,-0.00365,-0.009459,-38.68,8.25,-24.0,3b
2019-07-12_114049:020,-0.28369099999999997,-0.01828,-0.386902,-0.002536,-0.00539,-0.011168,-38.68,8.25,-24.0,3b
2019-07-12_114049:040,-0.28775,-0.011169,-0.38739,-0.0016820000000000001,-0.006670999999999999,-0.011901,-38.25,7.56,-23.559998999999998,3b
2019-07-12_114049:060,-0.28775,0.0025329999999999997,-0.382324,-0.00214,-0.007923000000000001,-0.012297,-38.25,7.56,-23.559998999999998,3b
2019-07-12_114049:080,-0.285217,0.008118,-0.385376,-0.00394,-0.00893,-0.011443,-38.25,7.56,-23.559998999999998,3b
2019-07-12_114049:100,-0.28775,0.013213999999999998,-0.389435,-0.0060149999999999995,-0.010578,-0.010039,-38.25,7.56,-23.18,3b
2019-07-12_114049:120,-0.291321,0.015747,-0.38739,-0.008274,-0.011646,-0.009429,-38.25,7.56,-23.18,3b
2019-07-12_114049:140,-0.29284699999999997,0.016266,-0.387909,-0.009861,-0.01192,-0.008237999999999999,-39.369999,6.75,-23.18,3b
2019-07-12_114049:160,-0.294373,0.016266,-0.384857,-0.010654,-0.012103000000000001,-0.006712999999999999,-39.369999,6.75,-23.18,3b
2019-07-12_114049:180,-0.278595,0.015747,-0.38385,-0.011264,-0.011859,-0.004729,-39.369999,6.75,-23.18,3b
2019-07-12_114049:200,-0.273529,0.017792,-0.386902,-0.011326000000000001,-0.013568,-0.003264,-38.68,6.5,-24.25,3b
2019-07-12_114049:220,-0.262329,0.019806,-0.389954,-0.011387000000000001,-0.015491,-0.002135,-38.68,6.5,-24.25,3b
2019-07-12_114049:240,-0.263336,0.019806,-0.392487,-0.011081,-0.017902,-0.00128,-38.25,5.75,-25.18,3b
2019-07-12_114049:260,-0.277069,0.025908999999999998,-0.404175,-0.01099,-0.020069,-0.001616,-38.25,5.75,-25.18,3b
2019-07-12_114049:280,-0.285217,0.029480000000000003,-0.40976,-0.010654,-0.020862000000000002,-0.002532,-38.25,5.75,-25.18,3b
2019-07-12_114049:300,-0.29538000000000003,0.035065,-0.417389,-0.010013,-0.019611,-0.0038130000000000004,-38.68,5.0,-25.18,3b
2019-07-12_114049:320,-0.302002,0.039124,-0.420441,-0.009159,-0.017230000000000002,-0.005248,-38.68,5.0,-25.18,3b
2019-07-12_114049:340,-0.304535,0.048279,-0.415375,-0.00867,-0.013507,-0.0061329999999999996,-37.5,4.56,-25.5,3b
2019-07-12_114049:360,-0.29742399999999997,0.05438200000000001,-0.41232299999999994,-0.008487,-0.010333,-0.005187,-37.5,4.56,-25.5,3b
2019-07-12_114049:380,-0.28418000000000004,0.06149299999999999,-0.406219,-0.007816,-0.009052,-0.004850999999999999,-37.5,4.56,-25.5,3b
2019-07-12_114049:400,-0.279114,0.067596,-0.404175,-0.007755,-0.009845,-0.007201000000000001,-36.75,3.87,-25.18,3b
2019-07-12_114049:420,-0.269958,0.077271,-0.40063499999999996,-0.0076939999999999995,-0.011524,-0.008452,-36.75,3.87,-25.18,3b
2019-07-12_114049:440,-0.268433,0.081329,-0.40063499999999996,-0.007541,-0.013904,-0.007598000000000001,-37.18,3.87,-26.0,3b
2019-07-12_114049:460,-0.26944,0.085388,-0.401642,-0.007297,-0.015643999999999998,-0.006926000000000001,-37.18,3.87,-26.0,3b
2019-07-12_114049:480,-0.276581,0.088959,-0.40823400000000004,-0.007084,-0.017230000000000002,-0.0058579999999999995,-37.18,3.87,-26.0,3b
2019-07-12_114049:500,-0.275055,0.088959,-0.40774499999999997,-0.006687,-0.017688,-0.004118999999999999,-38.25,3.06,-27.18,3b
2019-07-12_114049:520,-0.268951,0.09353600000000001,-0.411285,-0.005771,-0.01781,-0.003325,-38.25,3.06,-27.18,3b
2019-07-12_114049:540,-0.2659,0.097595,-0.415375,-0.005039,-0.017230000000000002,-0.002471,-37.18,3.5,-26.25,3b
2019-07-12_114049:560,-0.265381,0.100159,-0.416382,-0.004612,-0.016895,-9e-05,-37.18,3.5,-26.25,3b
2019-07-12_114049:580,-0.265381,0.102173,-0.41842700000000005,-0.004337,-0.016345,0.002168,-37.18,3.5,-26.25,3b
2019-07-12_114049:600,-0.2659,0.100647,-0.423492,-0.004581,-0.015033000000000001,0.002321,-36.75,2.75,-27.18,3b
2019-07-12_114049:620,-0.265381,0.10116599999999999,-0.429108,-0.004520000000000001,-0.014240000000000001,0.000398,-36.75,2.75,-27.18,3b
2019-07-12_114049:640,-0.267914,0.102692,-0.431641,-0.004062,-0.012927000000000001,-0.002013,-36.369999,1.56,-27.870001000000002,3b
2019-07-12_114049:660,-0.269958,0.104218,-0.425537,-0.003147,-0.010517,-0.003935,-36.369999,1.56,-27.870001000000002,3b
2019-07-12_114049:680,-0.264862,0.104706,-0.420441,-0.001743,-0.006548999999999999,-0.005004,-36.369999,1.56,-27.870001000000002,3b
2019-07-12_114049:700,-0.249115,0.104218,-0.416382,-0.000156,-0.0025210000000000002,-0.007781000000000001,-36.369999,2.37,-27.5,3b
2019-07-12_114049:720,-0.233337,0.10675,-0.41333000000000003,0.00256,-8e-05,-0.011504,-36.369999,2.37,-27.5,3b
2019-07-12_114049:740,-0.234375,0.108795,-0.41384899999999997,0.0060079999999999995,0.000989,-0.015074,-36.369999,1.56,-27.5,3b
2019-07-12_114049:760,-0.252686,0.11843900000000002,-0.434692,0.009335,-0.0014529999999999999,-0.017272,-36.369999,1.56,-27.5,3b
2019-07-12_114049:780,-0.268433,0.12200899999999999,-0.444855,0.012326,-0.004993,-0.017424000000000002,-36.369999,1.56,-27.5,3b
2019-07-12_114049:800,-0.279633,0.12506099999999998,-0.449432,0.014065000000000001,-0.007404000000000001,-0.014281,-36.75,1.25,-26.68,3b
2019-07-12_114049:820,-0.281647,0.119965,-0.44281000000000004,0.014797999999999999,-0.005878,-0.007109000000000001,-36.75,1.25,-26.68,3b
2019-07-12_114049:840,-0.268951,0.102173,-0.435699,0.01434,-0.00185,0.001588,-37.18,1.56,-27.18,3b
2019-07-12_114049:860,-0.257751,0.089478,-0.429108,0.013058000000000002,0.001263,0.0069900000000000006,-37.18,1.56,-27.18,3b
2019-07-12_114049:880,-0.251648,0.075226,-0.41842700000000005,0.01199,0.001721,0.00992,-37.18,1.56,-27.18,3b
2019-07-12_114049:900,-0.245056,0.063538,-0.410797,0.011319,0.001843,0.013032,-36.75,2.0,-26.68,3b
2019-07-12_114049:920,-0.25012199999999996,0.045226999999999996,-0.410278,0.010464,0.000348,0.014894,-36.75,2.0,-26.68,3b
2019-07-12_114049:940,-0.255707,0.036072,-0.412811,0.009091,-0.0017280000000000002,0.01468,-37.18,2.75,-27.5,3b
2019-07-12_114049:960,-0.253693,0.027435,-0.40570100000000003,0.0077480000000000005,-0.002582,0.014833,-37.18,2.75,-27.5,3b
2019-07-12_114049:980,-0.2547,0.019806,-0.408752,0.006679999999999999,-0.003467,0.014802000000000001,-37.18,2.75,-27.5,3b
2019-07-12_114050:000,-0.24353000000000002,0.010651,-0.407227,0.005093,-0.004779,0.013093,-37.18,2.75,-26.68,3b
2019-07-12_114050:020,-0.238434,0.007111,-0.40774499999999997,0.003689,-0.006488,0.010988,-37.18,2.75,-26.68,3b
2019-07-12_114050:040,-0.242004,0.004059,-0.408752,0.002163,-0.007984,0.009309,-36.369999,3.5,-26.25,3b
2019-07-12_114050:060,-0.246063,-0.0030210000000000002,-0.40823400000000004,0.000973,-0.007587000000000001,0.0076,-36.369999,3.5,-26.25,3b
2019-07-12_114050:080,-0.239441,-0.010162000000000001,-0.402161,0.000241,-0.006214,0.006379,-36.369999,3.5,-26.25,3b
2019-07-12_114050:100,-0.234375,-0.012177,-0.40011599999999997,-6.500000000000001e-05,-0.005115,0.0058,-36.75,5.0,-27.5,3b
2019-07-12_114050:120,-0.21759,-0.015747,-0.408752,5.7999999999999994e-05,-0.005695,0.00525,-36.75,5.0,-27.5,3b
2019-07-12_114050:140,-0.213531,-0.013702,-0.414337,0.000698,-0.009265,0.005678,-37.18,4.56,-26.25,3b
2019-07-12_114050:160,-0.226227,-0.017273,-0.429596,0.001248,-0.013721,0.0069900000000000006,-37.18,4.56,-26.25,3b
2019-07-12_114050:180,-0.233856,-0.017792,-0.434174,0.00198,-0.016712,0.008058,-37.18,4.56,-26.25,3b
2019-07-12_114050:200,-0.255707,-0.017792,-0.44638100000000003,0.002255,-0.017414,0.008729,-37.18,5.0,-26.25,3b
2019-07-12_114050:220,-0.263336,-0.016266,-0.44891400000000004,0.002194,-0.015430000000000001,0.00937,-37.18,5.0,-26.25,3b
2019-07-12_114050:240,-0.263855,-0.015228,-0.45196499999999995,0.001431,-0.011706999999999999,0.009584,-36.75,5.75,-26.68,3b
2019-07-12_114050:260,-0.266388,-0.016266,-0.45196499999999995,0.000302,-0.007862000000000001,0.008912,-36.75,5.75,-26.68,3b
2019-07-12_114050:280,-0.262329,-0.01828,-0.446899,-0.0008269999999999999,-0.004566,0.007661,-36.75,5.75,-26.68,3b
2019-07-12_114050:300,-0.257751,-0.01828,-0.441284,-0.001285,-0.0017280000000000002,0.005983,-37.18,5.37,-26.68,3b
2019-07-12_114050:320,-0.248596,-0.020844,-0.431122,-0.001468,-0.000202,0.005128,-37.18,5.37,-26.68,3b
2019-07-12_114050:340,-0.244019,-0.023375999999999997,-0.427063,-0.00095,0.000134,0.004854,-36.75,5.75,-26.25,3b
2019-07-12_114050:360,-0.245544,-0.022369,-0.421967,-6.500000000000001e-05,-0.000598,0.004457,-36.75,5.75,-26.25,3b
2019-07-12_114050:380,-0.252686,-0.021851,-0.42147799999999996,0.000973,-0.0015140000000000002,0.003633,-36.75,5.75,-26.25,3b
2019-07-12_114050:400,-0.25216700000000003,-0.016266,-0.41943400000000003,0.002041,-0.002124,0.002839,-35.68,6.06,-26.68,3b
2019-07-12_114050:420,-0.2547,-0.012695,-0.41842700000000005,0.002438,-0.003192,0.002778,-35.68,6.06,-26.68,3b
2019-07-12_114050:440,-0.255707,-0.005065999999999999,-0.416901,0.002102,-0.004566,0.0039689999999999994,-36.369999,6.06,-26.25,3b
2019-07-12_114050:460,-0.25116,-0.002014,-0.41485600000000006,0.0009119999999999999,-0.005817,0.005403,-36.369999,6.06,-26.25,3b
2019-07-12_114050:480,-0.251648,0.0,-0.412811,-0.000889,-0.006793,0.006379,-36.369999,6.06,-26.25,3b
2019-07-12_114050:500,-0.24658200000000002,0.002014,-0.41586300000000004,-0.002872,-0.007984,0.008119,-35.68,6.5,-26.68,3b
2019-07-12_114050:520,-0.246063,0.001007,-0.416382,-0.004703,-0.009601,0.010835,-35.68,6.5,-26.68,3b
2019-07-12_114050:540,-0.245544,-0.001007,-0.420959,-0.00687,-0.010517,0.013032,-36.75,5.75,-26.68,3b
2019-07-12_114050:560,-0.256744,-0.006072999999999999,-0.42605600000000005,-0.008548,-0.011127,0.013947999999999999,-36.75,5.75,-26.68,3b
2019-07-12_114050:580,-0.25827,-0.008636,-0.42758199999999996,-0.0098,-0.010181,0.014344999999999998,-36.75,5.75,-26.68,3b
2019-07-12_114050:600,-0.260803,-0.015747,-0.431641,-0.010685,-0.008594,0.014497,-36.369999,6.5,-27.18,3b
2019-07-12_114050:620,-0.262848,-0.017792,-0.433655,-0.011081,-0.007587000000000001,0.0141,-36.369999,6.5,-27.18,3b
2019-07-12_114050:640,-0.25521900000000003,-0.022369,-0.43518100000000004,-0.010409999999999999,-0.006548999999999999,0.011842,-37.18,6.06,-26.25,3b
2019-07-12_114050:660,-0.256226,-0.023375999999999997,-0.434174,-0.010013,-0.006458,0.01056,-37.18,6.06,-26.25,3b
2019-07-12_114050:680,-0.257751,-0.020325,-0.434174,-0.008395999999999999,-0.0060609999999999995,0.007783,-37.18,6.06,-26.25,3b
2019-07-12_114050:700,-0.25317399999999995,-0.016266,-0.431641,-0.007358,-0.005817,0.007051000000000001,-37.18,6.75,-25.559998999999998,3b
2019-07-12_114050:720,-0.25317399999999995,-0.009644,-0.431122,-0.007023000000000001,-0.005756,0.006196,-37.18,6.75,-25.559998999999998,3b
2019-07-12_114050:740,-0.248596,-0.004059,-0.42858900000000005,-0.007023000000000001,-0.005725,0.005525,-36.060001,6.75,-27.870001000000002,3b
2019-07-12_114050:760,-0.245056,0.0025329999999999997,-0.423004,-0.008548,-0.005939,0.004945000000000001,-36.060001,6.75,-27.870001000000002,3b
2019-07-12_114050:780,-0.246063,0.0035399999999999997,-0.423004,-0.009556,-0.0061530000000000005,0.004732,-36.060001,6.75,-27.870001000000002,3b
2019-07-12_114050:800,-0.244019,0.004059,-0.42248500000000005,-0.010256999999999999,-0.006548999999999999,0.004609,-36.75,7.18,-27.18,3b
2019-07-12_114050:820,-0.24096700000000001,0.0030210000000000002,-0.423004,-0.010256999999999999,-0.0070680000000000005,0.005189,-36.75,7.18,-27.18,3b
2019-07-12_114050:840,-0.246063,0.002014,-0.423492,-0.0098,-0.00719,0.0058,-36.060001,6.75,-27.870001000000002,3b
2019-07-12_114050:860,-0.245056,0.000488,-0.42605600000000005,-0.009067,-0.00719,0.005311,-36.060001,6.75,-27.870001000000002,3b
2019-07-12_114050:880,-0.24758899999999998,0.000488,-0.425537,-0.008152,-0.006885,0.004457,-36.060001,6.75,-27.870001000000002,3b
2019-07-12_114050:900,-0.24758899999999998,0.0030210000000000002,-0.425537,-0.007816,-0.006731999999999999,0.004518,-36.060001,7.56,-27.18,3b
2019-07-12_114050:920,-0.245544,0.004547,-0.42858900000000005,-0.006504,-0.006670999999999999,0.005983,-36.060001,7.56,-27.18,3b
2019-07-12_114050:940,-0.246063,0.005065999999999999,-0.429108,-0.006351,-0.006945999999999999,0.006074,-35.68,6.75,-26.75,3b
2019-07-12_114050:960,-0.24963400000000002,0.008636,-0.432159,-0.006626000000000001,-0.0066099999999999996,0.005861,-35.68,6.75,-26.75,3b
2019-07-12_114050:980,-0.25012199999999996,0.009644,-0.430634,-0.007267,-0.006,0.005586,-35.68,6.75,-26.75,3b
2019-07-12_114051:000,-0.246063,0.011169,-0.429108,-0.00748,-0.005939,0.005464,-36.060001,7.18,-26.68,3b
2019-07-12_114051:020,-0.245056,0.008118,-0.427063,-0.007937999999999999,-0.0052369999999999995,0.004915,-36.060001,7.18,-26.68,3b
2019-07-12_114051:040,-0.246063,0.009644,-0.427063,-0.008152,-0.0052369999999999995,0.004854,-36.75,6.06,-27.5,3b
2019-07-12_114051:060,-0.24758899999999998,0.009125,-0.42605600000000005,-0.008152,-0.004566,0.005128,-36.75,6.06,-27.5,3b
2019-07-12_114051:080,-0.241486,0.010162000000000001,-0.427063,-0.008029999999999999,-0.004901,0.00525,-36.75,6.06,-27.5,3b
2019-07-12_114051:100,-0.23995999999999998,0.010651,-0.427063,-0.008152,-0.0055119999999999995,0.005342,-35.68,6.5,-26.68,3b
2019-07-12_114051:120,-0.241486,0.011169,-0.431641,-0.008334999999999999,-0.006854000000000001,0.004915,-35.68,6.5,-26.68,3b
2019-07-12_114051:140,-0.249115,0.010162000000000001,-0.431641,-0.008426000000000001,-0.006670999999999999,0.004457,-36.060001,6.06,-27.5,3b
2019-07-12_114051:160,-0.260284,0.011687999999999999,-0.433167,-0.008213,-0.004993,0.003633,-36.060001,6.06,-27.5,3b
2019-07-12_114051:180,-0.259277,0.010651,-0.43011499999999997,-0.00748,-0.00365,0.0038159999999999995,-36.060001,6.06,-27.5,3b
2019-07-12_114051:200,-0.250641,0.008636,-0.42758199999999996,-0.007023000000000001,-0.003436,0.004152,-35.68,6.06,-28.68,3b
2019-07-12_114051:220,-0.24658200000000002,0.011169,-0.426544,-0.005679999999999999,-0.003711,0.00525,-35.68,6.06,-28.68,3b
2019-07-12_114051:240,-0.246063,0.011687999999999999,-0.42758199999999996,-0.005344,-0.004321,0.005464,-36.75,6.75,-28.68,3b
2019-07-12_114051:260,-0.25116,0.014221000000000001,-0.429108,-0.005039,-0.004779,0.006135,-36.75,6.75,-28.68,3b
2019-07-12_114051:280,-0.248108,0.015228,-0.425018,-0.005375,-0.004779,0.006593000000000001,-36.75,6.75,-28.68,3b
2019-07-12_114051:300,-0.24963400000000002,0.013702,-0.427063,-0.005619,-0.005115,0.006654,-36.060001,6.5,-28.25,3b
2019-07-12_114051:320,-0.246063,0.011687999999999999,-0.426544,-0.0065650000000000005,-0.005817,0.006318,-36.060001,6.5,-28.25,3b
2019-07-12_114051:340,-0.248596,0.009125,-0.426544,-0.0064730000000000005,-0.005939,0.006044,-36.75,5.75,-28.25,3b
2019-07-12_114051:360,-0.25216700000000003,0.006072999999999999,-0.431641,-0.006412,-0.0060609999999999995,0.005067,-36.75,5.75,-28.25,3b
2019-07-12_114051:380,-0.248596,0.0035399999999999997,-0.431122,-0.005222,-0.005939,0.005403,-36.75,5.75,-28.25,3b
2019-07-12_114051:400,-0.24706999999999998,0.0030210000000000002,-0.433655,-0.004520000000000001,-0.006092,0.005403,-36.060001,6.75,-27.870001000000002,3b
2019-07-12_114051:420,-0.242493,0.004547,-0.433167,-0.003544,-0.006092,0.005006,-36.060001,6.75,-27.870001000000002,3b
2019-07-12_114051:440,-0.238434,0.008118,-0.434692,-0.003483,-0.006397,0.005189,-36.060001,6.75,-27.870001000000002,3b
2019-07-12_114051:460,-0.239441,0.008118,-0.435699,-0.004001,-0.006397,0.005861,-35.68,6.06,-27.5,3b
2019-07-12_114051:480,-0.24096700000000001,0.008636,-0.434174,-0.004886,-0.005939,0.00525,-35.68,6.06,-27.5,3b
2019-07-12_114051:500,-0.24453699999999998,0.006592,-0.435699,-0.005436,-0.005298,0.005403,-36.369999,6.75,-27.5,3b
2019-07-12_114051:520,-0.243011,0.0035399999999999997,-0.435699,-0.005619,-0.004566,0.006318,-36.369999,6.75,-27.5,3b
2019-07-12_114051:540,-0.242004,0.000488,-0.437225,-0.005619,-0.004047,0.006532,-36.060001,6.06,-27.870001000000002,3b
2019-07-12_114051:560,-0.23995999999999998,-0.0035399999999999997,-0.434692,-0.005497,-0.00365,0.004457,-36.060001,6.06,-27.870001000000002,3b
2019-07-12_114051:580,-0.24353000000000002,-0.0025329999999999997,-0.43518100000000004,-0.004947,-0.003375,0.004091,-36.060001,6.06,-27.870001000000002,3b
2019-07-12_114051:600,-0.24658200000000002,-0.0030210000000000002,-0.434174,-0.004520000000000001,-0.0035280000000000003,0.004274,-36.75,6.75,-27.5,3b
2019-07-12_114051:620,-0.248108,-0.0030210000000000002,-0.433167,-0.0033909999999999995,-0.00246,0.004182,-36.75,6.75,-27.5,3b
2019-07-12_114051:640,-0.24658200000000002,-0.000488,-0.430634,-0.0033909999999999995,-0.002307,0.003908,-36.75,6.75,-27.5,3b
2019-07-12_114051:660,-0.245056,0.001007,-0.429108,-0.003208,-0.0023989999999999997,0.003511,-36.369999,6.75,-27.5,3b
2019-07-12_114051:680,-0.245056,0.001495,-0.425537,-0.0036659999999999996,-0.002857,0.0034189999999999997,-36.369999,6.75,-27.5,3b
2019-07-12_114051:700,-0.24706999999999998,0.001495,-0.423004,-0.00394,-0.00307,0.003023,-35.68,6.06,-27.870001000000002,3b
2019-07-12_114051:720,-0.248108,0.0,-0.42147799999999996,-0.004001,-0.0035280000000000003,0.002382,-35.68,6.06,-27.870001000000002,3b
2019-07-12_114051:740,-0.246063,0.0,-0.42147799999999996,-0.00394,-0.0037719999999999997,0.0027170000000000002,-35.68,6.06,-27.870001000000002,3b
2019-07-12_114051:760,-0.245056,-0.0035399999999999997,-0.423004,-0.0033299999999999996,-0.005176,0.00229,-36.369999,7.18,-27.5,3b
2019-07-12_114051:780,-0.245056,-0.001495,-0.42453,-0.002872,-0.005817,0.001832,-36.369999,7.18,-27.5,3b
2019-07-12_114051:800,-0.24758899999999998,0.0,-0.425018,-0.002353,-0.006670999999999999,0.001253,-35.68,6.5,-26.68,3b
2019-07-12_114051:820,-0.251648,0.001495,-0.42758199999999996,-0.00214,-0.007404000000000001,0.001253,-35.68,6.5,-26.68,3b
2019-07-12_114051:840,-0.255707,0.002014,-0.42858900000000005,-0.002079,-0.007404000000000001,0.000917,-35.68,6.5,-26.68,3b
2019-07-12_114051:860,-0.255707,0.0055850000000000006,-0.429108,-0.002475,-0.007006999999999999,0.000642,-36.75,6.5,-27.5,3b
2019-07-12_114051:880,-0.256226,0.006592,-0.42758199999999996,-0.003208,-0.006,0.000917,-36.75,6.5,-27.5,3b
2019-07-12_114051:900,-0.256226,0.007111,-0.427063,-0.003544,-0.005573,0.0007639999999999999,-36.060001,6.06,-27.870001000000002,3b
2019-07-12_114051:920,-0.25521900000000003,0.008118,-0.420959,-0.004184,-0.004321,0.001314,-36.060001,6.06,-27.870001000000002,3b
2019-07-12_114051:940,-0.24706999999999998,0.010162000000000001,-0.41943400000000003,-0.004398,-0.00426,0.001832,-36.060001,6.06,-27.870001000000002,3b
2019-07-12_114051:960,-0.24706999999999998,0.010162000000000001,-0.416901,-0.004886,-0.005054,0.003908,-36.369999,6.5,-27.870001000000002,3b
2019-07-12_114051:980,-0.242004,0.010162000000000001,-0.417908,-0.004978,-0.005817,0.004396,-36.369999,6.5,-27.870001000000002,3b
2019-07-12_114052:000,-0.241486,0.009644,-0.417389,-0.005436,-0.007006999999999999,0.005647,-35.68,6.75,-27.18,3b
2019-07-12_114052:020,-0.245056,0.007599,-0.421967,-0.006351,-0.00838,0.006135,-35.68,6.75,-27.18,3b
2019-07-12_114052:040,-0.244019,0.004059,-0.423492,-0.006962,-0.009601,0.005983,-35.68,6.75,-27.18,3b
2019-07-12_114052:060,-0.25216700000000003,0.001495,-0.431122,-0.007084,-0.010333,0.005128,-35.68,6.5,-27.5,3b
2019-07-12_114052:080,-0.254211,0.000488,-0.431641,-0.006504,-0.009876000000000001,0.005189,-35.68,6.5,-27.5,3b
2019-07-12_114052:100,-0.254211,0.0,-0.433655,-0.005954,-0.009509,0.005189,-35.369999,6.5,-28.0,3b
2019-07-12_114052:120,-0.252686,0.0,-0.434692,-0.004459,-0.007801000000000001,0.004213000000000001,-35.369999,6.5,-28.0,3b
2019-07-12_114052:140,-0.24758899999999998,0.0030210000000000002,-0.434692,-0.004398,-0.007343000000000001,0.0038469999999999997,-35.369999,6.5,-28.0,3b
2019-07-12_114052:160,-0.24706999999999998,0.004059,-0.433655,-0.003483,-0.006397,0.00345,-36.060001,6.75,-27.18,3b
2019-07-12_114052:180,-0.24453699999999998,0.004547,-0.432159,-0.0033299999999999996,-0.0060609999999999995,0.003175,-36.060001,6.75,-27.18,3b
2019-07-12_114052:200,-0.244019,0.006072999999999999,-0.432159,-0.0032689999999999998,-0.005695,0.002778,-35.369999,6.06,-28.25,3b
2019-07-12_114052:220,-0.24096700000000001,0.007111,-0.431122,-0.002872,-0.005725,0.003023,-35.369999,6.06,-28.25,3b
2019-07-12_114052:240,-0.24453699999999998,0.008636,-0.431122,-0.002872,-0.005634,0.0038469999999999997,-35.369999,6.06,-28.25,3b
2019-07-12_114052:260,-0.24453699999999998,0.007599,-0.431641,-0.002933,-0.005817,0.004396,-35.369999,5.75,-27.5,3b
2019-07-12_114052:280,-0.246063,0.007111,-0.432159,-0.0033299999999999996,-0.005939,0.004274,-35.369999,5.75,-27.5,3b
2019-07-12_114052:300,-0.245544,0.010651,-0.432648,-0.0037270000000000003,-0.006,0.004609,-36.060001,6.75,-28.25,3b
2019-07-12_114052:320,-0.24706999999999998,0.007111,-0.430634,-0.003788,-0.005756,0.006135,-36.060001,6.75,-28.25,3b
2019-07-12_114052:340,-0.246063,0.006072999999999999,-0.431122,-0.004123,-0.0055119999999999995,0.006379,-36.060001,6.75,-28.25,3b
2019-07-12_114052:360,-0.24353000000000002,0.007111,-0.43011499999999997,-0.004703,-0.004993,0.005922,-36.369999,6.06,-28.25,3b
2019-07-12_114052:380,-0.24453699999999998,0.004547,-0.431122,-0.005161,-0.004961999999999999,0.006135,-36.369999,6.06,-28.25,3b
2019-07-12_114052:400,-0.244019,0.0025329999999999997,-0.431122,-0.0052829999999999995,-0.004566,0.006135,-36.369999,7.18,-28.0,3b
2019-07-12_114052:420,-0.245056,0.0,-0.429108,-0.005344,-0.004229999999999999,0.005739,-36.369999,7.18,-28.0,3b
2019-07-12_114052:440,-0.24658200000000002,-0.001007,-0.430634,-0.004612,-0.0038640000000000002,0.005647,-36.369999,7.18,-28.0,3b
2019-07-12_114052:460,-0.24453699999999998,-0.000488,-0.42858900000000005,-0.0036659999999999996,-0.00365,0.0058,-35.369999,6.75,-26.68,3b
2019-07-12_114052:480,-0.243011,0.0035399999999999997,-0.42807,-0.0033909999999999995,-0.003833,0.0058,-35.369999,6.75,-26.68,3b
2019-07-12_114052:500,-0.24353000000000002,0.006072999999999999,-0.431641,-0.0036659999999999996,-0.004444,0.006379,-36.060001,7.18,-27.5,3b
2019-07-12_114052:520,-0.245056,0.005065999999999999,-0.429108,-0.004459,-0.00484,0.007326000000000001,-36.060001,7.18,-27.5,3b
2019-07-12_114052:540,-0.248108,0.0035399999999999997,-0.434174,-0.005741,-0.004779,0.007203,-36.060001,7.18,-27.5,3b
2019-07-12_114052:560,-0.25116,0.0030210000000000002,-0.43670699999999996,-0.0064730000000000005,-0.00484,0.006532,-35.68,6.75,-27.5,3b
2019-07-12_114052:580,-0.257233,0.001007,-0.43670699999999996,-0.007206000000000001,-0.004383,0.005983,-35.68,6.75,-27.5,3b
2019-07-12_114052:600,-0.259796,0.000488,-0.43823199999999995,-0.00748,-0.003436,0.005525,-36.369999,7.18,-28.25,3b
2019-07-12_114052:620,-0.262329,-0.000488,-0.434692,-0.007418999999999999,-0.001789,0.004915,-36.369999,7.18,-28.25,3b
2019-07-12_114052:640,-0.263855,-0.002014,-0.432159,-0.0069,-0.00038500000000000003,0.003694,-36.369999,7.18,-28.25,3b
2019-07-12_114052:660,-0.261322,-0.000488,-0.425018,-0.006076,0.000989,0.00229,-36.060001,6.5,-28.25,3b
2019-07-12_114052:680,-0.261322,0.001007,-0.41842700000000005,-0.004978,0.0016600000000000002,0.000917,-36.060001,6.5,-28.25,3b
2019-07-12_114052:700,-0.251648,0.006592,-0.409271,-0.00394,0.001935,0.0005809999999999999,-36.369999,7.18,-28.25,3b
2019-07-12_114052:720,-0.248108,0.007111,-0.405212,-0.003116,0.000989,0.0007639999999999999,-36.369999,7.18,-28.25,3b
2019-07-12_114052:740,-0.23995999999999998,0.011169,-0.40570100000000003,-0.002933,-0.0015140000000000002,0.001161,-36.369999,7.18,-28.25,3b
2019-07-12_114052:760,-0.236389,0.012695,-0.406219,-0.003055,-0.004321,0.000917,-36.369999,6.75,-27.18,3b
2019-07-12_114052:780,-0.242493,0.014221000000000001,-0.409271,-0.003483,-0.007526000000000001,0.0005809999999999999,-36.369999,6.75,-27.18,3b
2019-07-12_114052:800,-0.24658200000000002,0.016266,-0.411285,-0.00394,-0.009509,0.001192,-36.75,6.5,-26.68,3b
2019-07-12_114052:820,-0.25216700000000003,0.016266,-0.414337,-0.004184,-0.010517,0.002382,-36.75,6.5,-26.68,3b
2019-07-12_114052:840,-0.25216700000000003,0.014740000000000001,-0.420441,-0.004703,-0.010578,0.0029,-36.75,6.5,-26.68,3b
2019-07-12_114052:860,-0.25216700000000003,0.014740000000000001,-0.425537,-0.004886,-0.010669,0.003023,-36.75,6.06,-27.5,3b
2019-07-12_114052:880,-0.255707,0.010651,-0.429596,-0.004581,-0.010578,0.003908,-36.75,6.06,-27.5,3b
2019-07-12_114052:900,-0.25827,0.008118,-0.434692,-0.00394,-0.009723,0.004457,-36.060001,6.5,-27.18,3b
2019-07-12_114052:920,-0.257233,0.008636,-0.433167,-0.003483,-0.008869,0.005311,-36.060001,6.5,-27.18,3b
2019-07-12_114052:940,-0.25216700000000003,0.008636,-0.432648,-0.003055,-0.007678,0.006470999999999999,-36.060001,6.5,-27.18,3b
2019-07-12_114052:960,-0.254211,0.010162000000000001,-0.432159,-0.0033909999999999995,-0.007129000000000001,0.0071730000000000006,-36.369999,6.5,-27.18,3b
2019-07-12_114052:980,-0.24963400000000002,0.010162000000000001,-0.431641,-0.004123,-0.0070680000000000005,0.007387,-36.369999,6.5,-27.18,3b
2019-07-12_114053:000,-0.25116,0.008636,-0.430634,-0.004825,-0.006945999999999999,0.007112,-36.060001,6.75,-27.18,3b
2019-07-12_114053:020,-0.253693,0.006072999999999999,-0.42758199999999996,-0.005832,-0.0066099999999999996,0.007265000000000001,-36.060001,6.75,-27.18,3b
2019-07-12_114053:040,-0.25317399999999995,0.0030210000000000002,-0.42758199999999996,-0.0061070000000000004,-0.006,0.007965999999999999,-36.060001,6.75,-27.18,3b
2019-07-12_114053:060,-0.251648,0.000488,-0.421967,-0.006076,-0.005451,0.00818,-36.369999,7.87,-27.870001000000002,3b
2019-07-12_114053:080,-0.24758899999999998,-0.001495,-0.421967,-0.005497,-0.005451,0.007722,-36.369999,7.87,-27.870001000000002,3b
2019-07-12_114053:100,-0.244019,0.000488,-0.41943400000000003,-0.004947,-0.006092,0.007997,-36.75,6.75,-27.18,3b
2019-07-12_114053:120,-0.24353000000000002,0.0,-0.418915,-0.004520000000000001,-0.00719,0.008241,-36.75,6.75,-27.18,3b
2019-07-12_114053:140,-0.246063,0.001495,-0.418915,-0.004520000000000001,-0.008258,0.007722,-36.75,6.75,-27.18,3b
2019-07-12_114053:160,-0.245056,0.001007,-0.41842700000000005,-0.004642,-0.009265,0.007509,-36.060001,6.75,-26.68,3b
2019-07-12_114053:180,-0.245056,0.0,-0.41995200000000005,-0.004764,-0.010272,0.00757,-36.060001,6.75,-26.68,3b
2019-07-12_114053:200,-0.241486,-0.001495,-0.423492,-0.004978,-0.010669,0.007326000000000001,-36.369999,6.75,-27.18,3b
2019-07-12_114053:220,-0.23895300000000003,-0.002014,-0.423492,-0.004764,-0.011585,0.007387,-36.369999,6.75,-27.18,3b
2019-07-12_114053:240,-0.23690799999999998,-0.002014,-0.430634,-0.004581,-0.0125,0.007661,-36.369999,6.75,-27.18,3b
2019-07-12_114053:260,-0.240479,-0.001495,-0.432648,-0.004337,-0.013507,0.007448000000000001,-35.369999,7.56,-27.18,3b
2019-07-12_114053:280,-0.24758899999999998,-0.000488,-0.43927,-0.004459,-0.014025999999999999,0.006868000000000001,-35.369999,7.56,-27.18,3b
2019-07-12_114053:300,-0.250641,0.0,-0.441284,-0.004520000000000001,-0.013324,0.006929,-36.060001,7.87,-28.68,3b
2019-07-12_114053:320,-0.24963400000000002,0.000488,-0.44232200000000005,-0.004642,-0.011798000000000001,0.007203,-36.060001,7.87,-28.68,3b
2019-07-12_114053:340,-0.245056,0.000488,-0.44232200000000005,-0.004886,-0.009876000000000001,0.007203,-36.060001,7.87,-28.68,3b
2019-07-12_114053:360,-0.238434,-0.0025329999999999997,-0.43823199999999995,-0.004978,-0.008136,0.007326000000000001,-35.68,7.18,-28.68,3b
2019-07-12_114053:380,-0.242493,-0.0030210000000000002,-0.43823199999999995,-0.004947,-0.006945999999999999,0.0069900000000000006,-35.68,7.18,-28.68,3b
2019-07-12_114053:400,-0.239441,-0.0030210000000000002,-0.433167,-0.004642,-0.006092,0.0069900000000000006,-35.0,7.56,-28.68,3b
2019-07-12_114053:420,-0.235382,-0.004547,-0.42807,-0.004337,-0.00539,0.007448000000000001,-35.0,7.56,-28.68,3b
2019-07-12_114053:440,-0.231812,-0.006592,-0.429596,-0.004275999999999999,-0.00539,0.007203,-35.0,7.56,-28.68,3b
2019-07-12_114053:460,-0.225739,-0.008636,-0.429596,-0.004062,-0.006214,0.0067150000000000005,-34.560001,7.56,-28.68,3b
2019-07-12_114053:480,-0.231323,-0.009125,-0.435699,-0.0037270000000000003,-0.0076170000000000005,0.005983,-34.560001,7.56,-28.68,3b
2019-07-12_114053:500,-0.233337,-0.007599,-0.437225,-0.0033909999999999995,-0.009265,0.005403,-35.68,7.56,-29.870001000000002,3b
2019-07-12_114053:520,-0.231323,-0.006592,-0.43823199999999995,-0.002872,-0.009998,0.005342,-35.68,7.56,-29.870001000000002,3b
2019-07-12_114053:540,-0.233337,-0.005065999999999999,-0.445374,-0.002597,-0.010456,0.004945000000000001,-35.68,7.56,-29.870001000000002,3b
2019-07-12_114053:560,-0.23233,-0.0035399999999999997,-0.45095799999999997,-0.002536,-0.010578,0.003633,-35.369999,8.25,-29.5,3b
2019-07-12_114053:580,-0.238434,-0.0025329999999999997,-0.454529,-0.002659,-0.009876000000000001,0.002778,-35.369999,8.25,-29.5,3b
2019-07-12_114053:600,-0.244019,-0.0035399999999999997,-0.45654300000000003,-0.00214,-0.007739,0.002382,-35.060001,8.25,-28.25,3b
2019-07-12_114053:620,-0.23995999999999998,-0.001007,-0.454529,-0.0013460000000000002,-0.004718,0.001893,-35.060001,8.25,-28.25,3b
2019-07-12_114053:640,-0.239441,0.000488,-0.451477,0.00018,-0.0017280000000000002,0.00229,-35.060001,8.25,-28.25,3b
2019-07-12_114053:660,-0.233337,0.000488,-0.443329,0.0017050000000000001,0.000866,0.003633,-35.0,8.68,-29.18,3b
2019-07-12_114053:680,-0.227753,0.0030210000000000002,-0.437225,0.0027129999999999997,0.002179,0.005464,-35.0,8.68,-29.18,3b
2019-07-12_114053:700,-0.227753,0.0035399999999999997,-0.434174,0.002957,0.0027890000000000002,0.006654,-35.060001,7.56,-29.18,3b
2019-07-12_114053:720,-0.22879000000000002,0.004547,-0.431122,0.002102,0.00224,0.007051000000000001,-35.060001,7.56,-29.18,3b
2019-07-12_114053:740,-0.230804,0.002014,-0.431122,0.000637,0.0009279999999999999,0.007783,-35.060001,7.56,-29.18,3b
2019-07-12_114053:760,-0.234375,-0.0030210000000000002,-0.429596,-0.001224,-0.000202,0.009126,-35.5,9.37,-28.25,3b
2019-07-12_114053:780,-0.23791500000000002,-0.006592,-0.430634,-0.003116,-0.000995,0.009096,-35.5,9.37,-28.25,3b
2019-07-12_114053:800,-0.24096700000000001,-0.014221000000000001,-0.430634,-0.004459,-0.001209,0.008241,-35.75,8.25,-28.25,3b
2019-07-12_114053:820,-0.23995999999999998,-0.017792,-0.42807,-0.0051,-0.001392,0.007448000000000001,-35.75,8.25,-28.25,3b
2019-07-12_114053:840,-0.23995999999999998,-0.023895,-0.42858900000000005,-0.0051,-0.0013310000000000002,0.006196,-35.75,8.25,-28.25,3b
2019-07-12_114053:860,-0.23791500000000002,-0.023375999999999997,-0.426544,-0.004459,-0.001178,0.005006,-35.75,9.37,-28.68,3b
2019-07-12_114053:880,-0.23995999999999998,-0.024384,-0.42605600000000005,-0.003116,-0.001392,0.004457,-35.75,9.37,-28.68,3b
2019-07-12_114053:900,-0.23995999999999998,-0.023375999999999997,-0.42605600000000005,-0.001865,-0.0014529999999999999,0.004457,-35.5,8.68,-26.68,3b
2019-07-12_114053:920,-0.23995999999999998,-0.020844,-0.423492,-0.000889,-0.00185,0.004091,-35.5,8.68,-26.68,3b
2019-07-12_114053:940,-0.23895300000000003,-0.017273,-0.425018,-0.000339,-0.0021850000000000003,0.003908,-35.5,8.68,-26.68,3b
2019-07-12_114053:960,-0.238434,-0.013702,-0.425537,-0.0008269999999999999,-0.002796,0.004213000000000001,-35.5,9.37,-28.0,3b
2019-07-12_114053:980,-0.238434,-0.014740000000000001,-0.426544,-0.0018039999999999998,-0.003711,0.004854,-35.5,9.37,-28.0,3b
2019-07-12_114054:000,-0.24453699999999998,-0.013702,-0.43011499999999997,-0.004001,-0.004961999999999999,0.004793,-35.75,9.06,-28.25,3b
2019-07-12_114054:020,-0.249115,-0.015228,-0.431641,-0.004764,-0.004993,0.004854,-35.75,9.06,-28.25,3b
2019-07-12_114054:040,-0.24706999999999998,-0.01828,-0.433167,-0.005954,-0.004961999999999999,0.005067,-35.75,9.06,-28.25,3b
2019-07-12_114054:060,-0.248108,-0.021332,-0.434174,-0.006504,-0.004718,0.005128,-36.18,9.75,-27.5,3b
2019-07-12_114054:080,-0.25116,-0.026917,-0.434174,-0.006076,-0.00426,0.004182,-36.18,9.75,-27.5,3b
2019-07-12_114054:100,-0.25521900000000003,-0.026917,-0.43670699999999996,-0.004947,-0.003314,0.003572,-36.18,9.06,-27.5,3b
2019-07-12_114054:120,-0.255707,-0.025421,-0.429108,-0.003879,-0.001941,0.003297,-36.18,9.06,-27.5,3b
2019-07-12_114054:140,-0.253693,-0.023375999999999997,-0.42858900000000005,-0.002872,-0.001056,0.002839,-36.18,9.06,-27.5,3b
2019-07-12_114054:160,-0.248596,-0.020844,-0.425537,-0.002536,-0.00038500000000000003,0.002168,-36.5,9.06,-26.25,3b
2019-07-12_114054:180,-0.245056,-0.01828,-0.42248500000000005,-0.00214,-0.000598,0.0016489999999999999,-36.5,9.06,-26.25,3b
2019-07-12_114054:200,-0.245056,-0.016266,-0.42147799999999996,-0.002414,-0.001789,0.001588,-35.75,9.37,-26.0,3b
2019-07-12_114054:220,-0.242004,-0.014740000000000001,-0.41943400000000003,-0.002536,-0.002796,0.002443,-35.75,9.37,-26.0,3b
2019-07-12_114054:240,-0.245056,-0.01828,-0.421967,-0.002659,-0.0038640000000000002,0.003297,-35.75,9.37,-26.0,3b
2019-07-12_114054:260,-0.250641,-0.01828,-0.421967,-0.002872,-0.004779,0.003511,-37.25,9.75,-26.25,3b
2019-07-12_114054:280,-0.25012199999999996,-0.01828,-0.420959,-0.003055,-0.005054,0.003694,-37.25,9.75,-26.25,3b
2019-07-12_114054:300,-0.252686,-0.018799,-0.421967,-0.0032689999999999998,-0.005176,0.004274,-36.18,8.68,-26.75,3b
2019-07-12_114054:320,-0.248596,-0.021332,-0.42453,-0.0036659999999999996,-0.005451,0.004457,-36.18,8.68,-26.75,3b
2019-07-12_114054:340,-0.249115,-0.022369,-0.42605600000000005,-0.003788,-0.00539,0.00403,-36.18,8.68,-26.75,3b
2019-07-12_114054:360,-0.251648,-0.024384,-0.42758199999999996,-0.0036049999999999997,-0.005573,0.003572,-35.5,9.37,-26.059998999999998,3b
2019-07-12_114054:380,-0.256744,-0.024902,-0.426544,-0.003452,-0.004961999999999999,0.003694,-35.5,9.37,-26.059998999999998,3b
2019-07-12_114054:400,-0.251648,-0.023895,-0.42605600000000005,-0.003208,-0.004108,0.003511,-36.5,8.25,-27.559998999999998,3b
2019-07-12_114054:420,-0.25116,-0.024384,-0.427063,-0.0032689999999999998,-0.00365,0.002839,-36.5,8.25,-27.559998999999998,3b
2019-07-12_114054:440,-0.251648,-0.022369,-0.42758199999999996,-0.0036659999999999996,-0.00365,0.002687,-36.5,8.25,-27.559998999999998,3b
2019-07-12_114054:460,-0.251648,-0.022369,-0.42758199999999996,-0.0036659999999999996,-0.00365,0.0032359999999999997,-35.75,9.37,-27.5,3b
2019-07-12_114054:480,-0.255707,-0.022369,-0.426544,-0.00394,-0.003436,0.003053,-35.75,9.37,-27.5,3b
2019-07-12_114054:500,-0.25216700000000003,-0.022369,-0.42401099999999997,-0.0042450000000000005,-0.0030399999999999997,0.0026260000000000003,-35.5,9.75,-27.18,3b
2019-07-12_114054:520,-0.2547,-0.022369,-0.421967,-0.004459,-0.002918,0.0029,-35.5,9.75,-27.18,3b
2019-07-12_114054:540,-0.254211,-0.023375999999999997,-0.42248500000000005,-0.004642,-0.0031309999999999997,0.0029620000000000002,-35.5,9.75,-27.18,3b
2019-07-12_114054:560,-0.253693,-0.021332,-0.420959,-0.004764,-0.003375,0.0029,-36.18,9.37,-26.25,3b
2019-07-12_114054:580,-0.25317399999999995,-0.021332,-0.41995200000000005,-0.004825,-0.003833,0.0032359999999999997,-36.18,9.37,-26.25,3b
2019-07-12_114054:600,-0.254211,-0.022369,-0.42147799999999996,-0.004703,-0.004108,0.0032359999999999997,-36.5,9.75,-26.25,3b
2019-07-12_114054:620,-0.2547,-0.022369,-0.42147799999999996,-0.004825,-0.004383,0.003114,-36.5,9.75,-26.25,3b
2019-07-12_114054:640,-0.256744,-0.021332,-0.420959,-0.004612,-0.004229999999999999,0.003114,-36.5,9.75,-26.25,3b
2019-07-12_114054:660,-0.256744,-0.020844,-0.418915,-0.004520000000000001,-0.004047,0.003114,-35.75,9.06,-26.75,3b
2019-07-12_114054:680,-0.256744,-0.019318000000000002,-0.418915,-0.004459,-0.004108,0.003053,-35.75,9.06,-26.75,3b
2019-07-12_114054:700,-0.255707,-0.017273,-0.41842700000000005,-0.004520000000000001,-0.00426,0.003358,-36.869999,8.25,-26.25,3b
2019-07-12_114054:720,-0.2547,-0.016753999999999998,-0.417389,-0.004642,-0.004961999999999999,0.003694,-36.869999,8.25,-26.25,3b
2019-07-12_114054:740,-0.254211,-0.017792,-0.41995200000000005,-0.005039,-0.005451,0.0039689999999999994,-36.869999,8.25,-26.25,3b
2019-07-12_114054:760,-0.256744,-0.016266,-0.42147799999999996,-0.005619,-0.005725,0.0037549999999999997,-36.5,9.37,-25.559998999999998,3b
2019-07-12_114054:780,-0.258759,-0.018799,-0.42147799999999996,-0.005893,-0.005817,0.00345,-36.5,9.37,-25.559998999999998,3b
2019-07-12_114054:800,-0.260284,-0.019806,-0.42248500000000005,-0.005893,-0.005725,0.00345,-36.18,9.06,-26.68,3b
2019-07-12_114054:820,-0.265381,-0.021332,-0.421967,-0.005558,-0.0052369999999999995,0.0037549999999999997,-36.18,9.06,-26.68,3b
2019-07-12_114054:840,-0.265381,-0.021332,-0.421967,-0.004978,-0.004657,0.003694,-36.18,9.06,-26.68,3b
2019-07-12_114054:860,-0.26181,-0.021332,-0.418915,-0.004612,-0.004383,0.003908,-36.869999,9.37,-25.5,3b
2019-07-12_114054:880,-0.261322,-0.019806,-0.418915,-0.004520000000000001,-0.004321,0.003053,-36.869999,9.37,-25.5,3b
2019-07-12_114054:900,-0.258759,-0.018799,-0.418915,-0.004703,-0.004718,0.0019850000000000002,-35.75,9.37,-25.18,3b
2019-07-12_114054:920,-0.260284,-0.020325,-0.41384899999999997,-0.004825,-0.005359,0.0008560000000000001,-35.75,9.37,-25.18,3b
2019-07-12_114054:940,-0.259277,-0.020325,-0.411804,-0.004764,-0.005817,0.000123,-35.75,9.37,-25.18,3b
2019-07-12_114054:960,-0.254211,-0.018799,-0.40774499999999997,-0.004398,-0.006670999999999999,0.000184,-36.18,9.06,-27.18,3b
2019-07-12_114054:980,-0.25116,-0.01828,-0.406738,-0.0036049999999999997,-0.007587000000000001,0.000795,-36.18,9.06,-27.18,3b
2019-07-12_114055:000,-0.242493,-0.013702,-0.40774499999999997,-0.0033909999999999995,-0.00954,0.0005809999999999999,-35.75,9.06,-27.18,3b
2019-07-12_114055:020,-0.239441,-0.009125,-0.410278,-0.00394,-0.012103000000000001,0.0007639999999999999,-35.75,9.06,-27.18,3b
2019-07-12_114055:040,-0.242004,-0.008636,-0.415375,-0.004642,-0.014240000000000001,0.001436,-35.75,9.06,-27.18,3b
2019-07-12_114055:060,-0.245544,-0.006592,-0.41943400000000003,-0.005619,-0.015430000000000001,0.0019850000000000002,-35.75,9.37,-26.0,3b
2019-07-12_114055:080,-0.24758899999999998,-0.0055850000000000006,-0.425018,-0.0067480000000000005,-0.016284,0.002565,-35.75,9.37,-26.0,3b
2019-07-12_114055:100,-0.250641,-0.006592,-0.434174,-0.007418999999999999,-0.015979,0.003511,-36.18,9.06,-27.5,3b
2019-07-12_114055:120,-0.258759,-0.008636,-0.43670699999999996,-0.007877,-0.015308,0.004548,-36.18,9.06,-27.5,3b
2019-07-12_114055:140,-0.262329,-0.010162000000000001,-0.444855,-0.008091,-0.013324,0.005128,-36.18,9.06,-27.5,3b
2019-07-12_114055:160,-0.26181,-0.010162000000000001,-0.447906,-0.008274,-0.011371,0.004793,-36.18,9.06,-26.0,3b
2019-07-12_114055:180,-0.260803,-0.012695,-0.445862,-0.008091,-0.008594,0.005189,-36.18,9.06,-26.0,3b
2019-07-12_114055:200,-0.254211,-0.014221000000000001,-0.441803,-0.007601999999999999,-0.006275,0.006257,-36.18,9.06,-27.5,3b
2019-07-12_114055:220,-0.249115,-0.015228,-0.435699,-0.006687,-0.004779,0.006135,-36.18,9.06,-27.5,3b
2019-07-12_114055:240,-0.243011,-0.015228,-0.430634,-0.00629,-0.003986,0.005586,-36.18,9.06,-27.5,3b
2019-07-12_114055:260,-0.23791500000000002,-0.012695,-0.42453,-0.005893,-0.004229999999999999,0.005464,-35.060001,9.06,-28.25,3b
2019-07-12_114055:280,-0.23486300000000002,-0.011687999999999999,-0.425018,-0.005893,-0.005176,0.005647,-35.060001,9.06,-28.25,3b
2019-07-12_114055:300,-0.234375,-0.012177,-0.42605600000000005,-0.005832,-0.006214,0.005403,-35.75,8.68,-27.18,3b
2019-07-12_114055:320,-0.237427,-0.012177,-0.425537,-0.005741,-0.0076170000000000005,0.005067,-35.75,8.68,-27.18,3b
2019-07-12_114055:340,-0.24096700000000001,-0.013213999999999998,-0.42807,-0.005375,-0.008075,0.005403,-35.75,8.68,-27.18,3b
2019-07-12_114055:360,-0.242493,-0.011687999999999999,-0.430634,-0.005222,-0.008258,0.00525,-35.75,8.68,-28.0,3b
2019-07-12_114055:380,-0.246063,-0.011169,-0.434174,-0.004764,-0.008136,0.005342,-35.75,8.68,-28.0,3b
2019-07-12_114055:400,-0.248108,-0.012177,-0.435699,-0.004459,-0.007678,0.005586,-36.5,9.06,-28.0,3b
2019-07-12_114055:420,-0.25216700000000003,-0.011169,-0.43621800000000005,-0.004337,-0.006458,0.005678,-36.5,9.06,-28.0,3b
2019-07-12_114055:440,-0.250641,-0.010651,-0.43621800000000005,-0.004123,-0.005176,0.006074,-36.5,9.06,-28.0,3b
2019-07-12_114055:460,-0.24453699999999998,-0.012177,-0.434692,-0.004275999999999999,-0.004229999999999999,0.006776000000000001,-35.75,8.68,-27.18,3b
2019-07-12_114055:480,-0.241486,-0.012177,-0.433655,-0.004520000000000001,-0.003833,0.007203,-35.75,8.68,-27.18,3b
2019-07-12_114055:500,-0.23895300000000003,-0.014740000000000001,-0.431641,-0.004642,-0.003986,0.0069900000000000006,-35.75,8.25,-27.18,3b
2019-07-12_114055:520,-0.239441,-0.016266,-0.431122,-0.005161,-0.004321,0.006837,-35.75,8.25,-27.18,3b
2019-07-12_114055:540,-0.245544,-0.01828,-0.432648,-0.004886,-0.004383,0.006654,-35.75,8.25,-27.18,3b
2019-07-12_114055:560,-0.24706999999999998,-0.017273,-0.432159,-0.004764,-0.00426,0.006593000000000001,-36.18,9.06,-26.25,3b
2019-07-12_114055:580,-0.24758899999999998,-0.018799,-0.43011499999999997,-0.004520000000000001,-0.004108,0.0067150000000000005,-36.18,9.06,-26.25,3b
2019-07-12_114055:600,-0.248596,-0.016753999999999998,-0.431641,-0.004612,-0.0038640000000000002,0.006654,-34.560001,9.37,-27.18,3b
2019-07-12_114055:620,-0.24353000000000002,-0.017273,-0.42605600000000005,-0.004612,-0.003589,0.006441,-34.560001,9.37,-27.18,3b
2019-07-12_114055:640,-0.24453699999999998,-0.01828,-0.42758199999999996,-0.004947,-0.0035280000000000003,0.006257,-34.560001,9.37,-27.18,3b
2019-07-12_114055:660,-0.24096700000000001,-0.019318000000000002,-0.42758199999999996,-0.004978,-0.003925,0.005861,-35.5,9.75,-27.5,3b
2019-07-12_114055:680,-0.244019,-0.019318000000000002,-0.42758199999999996,-0.005161,-0.004596,0.005067,-35.5,9.75,-27.5,3b
2019-07-12_114055:700,-0.24706999999999998,-0.020325,-0.429596,-0.0051,-0.004901,0.004609,-35.75,9.75,-26.25,3b
2019-07-12_114055:720,-0.245544,-0.020844,-0.42858900000000005,-0.004764,-0.004657,0.004915,-35.75,9.75,-26.25,3b
2019-07-12_114055:740,-0.24758899999999998,-0.019806,-0.432648,-0.004337,-0.004321,0.004854,-35.75,9.75,-26.25,3b
2019-07-12_114055:760,-0.248108,-0.017792,-0.430634,-0.004184,-0.004229999999999999,0.004182,-35.060001,9.06,-26.0,3b
2019-07-12_114055:780,-0.250641,-0.014740000000000001,-0.43011499999999997,-0.004520000000000001,-0.003467,0.0038469999999999997,-35.060001,9.06,-26.0,3b
2019-07-12_114055:800,-0.24963400000000002,-0.015747,-0.429108,-0.004612,-0.002735,0.004182,-35.75,9.37,-28.0,3b
2019-07-12_114055:820,-0.24658200000000002,-0.016266,-0.42605600000000005,-0.004947,-0.002704,0.004091,-35.75,9.37,-28.0,3b
2019-07-12_114055:840,-0.248108,-0.015747,-0.42605600000000005,-0.005161,-0.002979,0.00403,-35.75,9.37,-28.0,3b
2019-07-12_114055:860,-0.244019,-0.014740000000000001,-0.42605600000000005,-0.005161,-0.0031309999999999997,0.004609,-36.18,8.25,-26.75,3b
2019-07-12_114055:880,-0.24758899999999998,-0.016753999999999998,-0.42453,-0.005161,-0.003436,0.005525,-36.18,8.25,-26.75,3b
2019-07-12_114055:900,-0.245056,-0.019318000000000002,-0.423004,-0.005497,-0.004229999999999999,0.005128,-36.18,9.75,-27.5,3b
2019-07-12_114055:920,-0.24658200000000002,-0.019318000000000002,-0.42453,-0.005344,-0.004779,0.004152,-36.18,9.75,-27.5,3b
2019-07-12_114055:940,-0.245544,-0.01828,-0.42605600000000005,-0.0051,-0.00539,0.004182,-36.18,9.75,-27.5,3b
2019-07-12_114055:960,-0.246063,-0.019318000000000002,-0.42605600000000005,-0.004947,-0.005634,0.004548,-35.68,9.06,-27.18,3b
2019-07-12_114055:980,-0.24658200000000002,-0.016266,-0.429596,-0.004764,-0.005817,0.003908,-35.68,9.06,-27.18,3b
2019-07-12_114056:000,-0.24706999999999998,-0.015228,-0.429108,-0.004978,-0.005756,0.003358,-35.369999,9.06,-27.5,3b
2019-07-12_114056:020,-0.24706999999999998,-0.015228,-0.42858900000000005,-0.005222,-0.005451,0.003633,-35.369999,9.06,-27.5,3b
2019-07-12_114056:040,-0.24963400000000002,-0.016266,-0.42858900000000005,-0.005344,-0.0052369999999999995,0.0037549999999999997,-35.369999,9.06,-27.5,3b
2019-07-12_114056:060,-0.24658200000000002,-0.015228,-0.429596,-0.005497,-0.00484,0.003511,-36.060001,9.06,-28.25,3b
2019-07-12_114056:080,-0.245544,-0.016266,-0.42758199999999996,-0.0052829999999999995,-0.004718,0.003572,-36.060001,9.06,-28.25,3b
2019-07-12_114056:100,-0.248108,-0.016266,-0.42858900000000005,-0.004764,-0.00484,0.0039689999999999994,-36.060001,8.68,-27.5,3b
2019-07-12_114056:120,-0.245056,-0.015228,-0.42758199999999996,-0.004581,-0.00484,0.004091,-36.060001,8.68,-27.5,3b
2019-07-12_114056:140,-0.245544,-0.014740000000000001,-0.42858900000000005,-0.004398,-0.004718,0.004457,-36.060001,8.68,-27.5,3b
2019-07-12_114056:160,-0.24758899999999998,-0.014221000000000001,-0.42807,-0.0042450000000000005,-0.00484,0.004732,-35.68,8.68,-26.68,3b
2019-07-12_114056:180,-0.249115,-0.013702,-0.429108,-0.004398,-0.004993,0.004548,-35.68,8.68,-26.68,3b
2019-07-12_114056:200,-0.249115,-0.015228,-0.42758199999999996,-0.004581,-0.004596,0.005006,-36.75,9.37,-27.870001000000002,3b
2019-07-12_114056:220,-0.248108,-0.015747,-0.42605600000000005,-0.004612,-0.00426,0.005128,-36.75,9.37,-27.870001000000002,3b
2019-07-12_114056:240,-0.248596,-0.015228,-0.42605600000000005,-0.004764,-0.00484,0.004793,-36.75,9.37,-27.870001000000002,3b
2019-07-12_114056:260,-0.24963400000000002,-0.015747,-0.425537,-0.004978,-0.004779,0.004793,-36.369999,9.37,-27.5,3b
2019-07-12_114056:280,-0.25012199999999996,-0.016753999999999998,-0.42401099999999997,-0.004825,-0.004444,0.004915,-36.369999,9.37,-27.5,3b
2019-07-12_114056:300,-0.24963400000000002,-0.016753999999999998,-0.423492,-0.004978,-0.004596,0.004609,-36.060001,8.68,-27.870001000000002,3b
2019-07-12_114056:320,-0.24963400000000002,-0.015747,-0.421967,-0.004703,-0.004596,0.004457,-36.060001,8.68,-27.870001000000002,3b
2019-07-12_114056:340,-0.24658200000000002,-0.016266,-0.421967,-0.004459,-0.004779,0.004793,-36.060001,8.68,-27.870001000000002,3b
2019-07-12_114056:360,-0.25012199999999996,-0.015228,-0.41943400000000003,-0.004398,-0.005298,0.004915,-36.060001,9.06,-27.5,3b
2019-07-12_114056:380,-0.248596,-0.013702,-0.421967,-0.004581,-0.005939,0.005006,-36.060001,9.06,-27.5,3b
2019-07-12_114056:400,-0.24706999999999998,-0.015747,-0.421967,-0.004947,-0.006214,0.005342,-35.68,8.68,-27.5,3b
2019-07-12_114056:420,-0.25216700000000003,-0.016266,-0.42401099999999997,-0.005558,-0.006731999999999999,0.004854,-35.68,8.68,-27.5,3b
2019-07-12_114056:440,-0.24758899999999998,-0.020325,-0.42758199999999996,-0.006351,-0.006854000000000001,0.004335,-35.68,8.68,-27.5,3b
2019-07-12_114056:460,-0.25216700000000003,-0.019318000000000002,-0.431641,-0.006076,-0.007343000000000001,0.003511,-36.060001,9.06,-26.68,3b
2019-07-12_114056:480,-0.25827,-0.021851,-0.433655,-0.005497,-0.007281999999999999,0.002839,-36.060001,9.06,-26.68,3b
2019-07-12_114056:500,-0.258759,-0.020325,-0.433167,-0.004581,-0.0061530000000000005,0.002778,-35.0,9.37,-26.0,3b
2019-07-12_114056:520,-0.25827,-0.017273,-0.431122,-0.0036049999999999997,-0.004993,0.002778,-35.0,9.37,-26.0,3b
2019-07-12_114056:540,-0.25317399999999995,-0.012177,-0.42858900000000005,-0.0033299999999999996,-0.003711,0.002168,-35.0,9.37,-26.0,3b
2019-07-12_114056:560,-0.25116,-0.009125,-0.42605600000000005,-0.003483,-0.003192,0.0019850000000000002,-36.369999,8.25,-26.25,3b
2019-07-12_114056:580,-0.25012199999999996,-0.009125,-0.421967,-0.004398,-0.0030399999999999997,0.002565,-36.369999,8.25,-26.25,3b
2019-07-12_114056:600,-0.24706999999999998,-0.009644,-0.42147799999999996,-0.005161,-0.003314,0.002687,-35.68,9.06,-27.18,3b
2019-07-12_114056:620,-0.248596,-0.012695,-0.41995200000000005,-0.005619,-0.004108,0.0029620000000000002,-35.68,9.06,-27.18,3b
2019-07-12_114056:640,-0.25216700000000003,-0.012177,-0.420441,-0.005497,-0.004901,0.0039689999999999994,-35.68,9.06,-27.18,3b
2019-07-12_114056:660,-0.25012199999999996,-0.012177,-0.41995200000000005,-0.005497,-0.005176,0.004732,-36.369999,8.68,-26.68,3b
2019-07-12_114056:680,-0.25116,-0.013702,-0.420959,-0.005558,-0.005634,0.004213000000000001,-36.369999,8.68,-26.68,3b
2019-07-12_114056:700,-0.25216700000000003,-0.013213999999999998,-0.421967,-0.005679999999999999,-0.006397,0.0034189999999999997,-36.369999,8.68,-27.5,3b
2019-07-12_114056:720,-0.254211,-0.014740000000000001,-0.42248500000000005,-0.005679999999999999,-0.006793,0.004091,-36.369999,8.68,-27.5,3b
2019-07-12_114056:740,-0.255707,-0.015228,-0.425018,-0.0052829999999999995,-0.006854000000000001,0.004793,-36.369999,8.68,-27.5,3b
2019-07-12_114056:760,-0.25317399999999995,-0.012695,-0.423492,-0.004978,-0.006793,0.004213000000000001,-36.060001,8.68,-26.68,3b
2019-07-12_114056:780,-0.25116,-0.011687999999999999,-0.42401099999999997,-0.004825,-0.006488,0.0038469999999999997,-36.060001,8.68,-26.68,3b
2019-07-12_114056:800,-0.25012199999999996,-0.010651,-0.42453,-0.004886,-0.006793,0.004609,-37.18,8.68,-26.68,3b
2019-07-12_114056:820,-0.25116,-0.011687999999999999,-0.42401099999999997,-0.0051,-0.006548999999999999,0.004854,-37.18,8.68,-26.68,3b
2019-07-12_114056:840,-0.253693,-0.010651,-0.425537,-0.005344,-0.0066099999999999996,0.004548,-37.18,8.68,-26.68,3b
2019-07-12_114056:860,-0.253693,-0.011169,-0.42605600000000005,-0.005375,-0.006092,0.005128,-36.060001,8.68,-27.18,3b
2019-07-12_114056:880,-0.25216700000000003,-0.012695,-0.426544,-0.005497,-0.006,0.0058,-36.060001,8.68,-27.18,3b
2019-07-12_114056:900,-0.25012199999999996,-0.012695,-0.427063,-0.005558,-0.006092,0.005739,-36.060001,9.06,-26.68,3b
2019-07-12_114056:920,-0.252686,-0.012695,-0.425537,-0.005832,-0.006092,0.005983,-36.060001,9.06,-26.68,3b
2019-07-12_114056:940,-0.252686,-0.013213999999999998,-0.42605600000000005,-0.005832,-0.006092,0.006379,-36.060001,9.06,-26.68,3b
2019-07-12_114056:960,-0.25116,-0.014221000000000001,-0.425018,-0.005954,-0.0060609999999999995,0.006318,-35.68,9.37,-27.5,3b
2019-07-12_114056:980,-0.249115,-0.014740000000000001,-0.42453,-0.005954,-0.0060609999999999995,0.006470999999999999,-35.68,9.37,-27.5,3b
2019-07-12_114057:000,-0.249115,-0.016266,-0.425537,-0.005771,-0.006214,0.006074,-36.060001,9.06,-27.870001000000002,3b
2019-07-12_114057:020,-0.249115,-0.016266,-0.42453,-0.005832,-0.006458,0.0058,-36.060001,9.06,-27.870001000000002,3b
2019-07-12_114057:040,-0.248108,-0.017273,-0.425018,-0.005558,-0.006670999999999999,0.005525,-36.060001,9.06,-27.870001000000002,3b
2019-07-12_114057:060,-0.249115,-0.016753999999999998,-0.42758199999999996,-0.005161,-0.006670999999999999,0.005189,-36.060001,8.25,-26.0,3b
2019-07-12_114057:080,-0.24963400000000002,-0.016266,-0.42605600000000005,-0.004764,-0.006670999999999999,0.005067,-36.060001,8.25,-26.0,3b
2019-07-12_114057:100,-0.248108,-0.015228,-0.425537,-0.004520000000000001,-0.006458,0.005464,-36.369999,9.06,-27.5,3b
2019-07-12_114057:120,-0.249115,-0.013702,-0.426544,-0.0042450000000000005,-0.006275,0.005525,-36.369999,9.06,-27.5,3b
2019-07-12_114057:140,-0.248596,-0.013702,-0.42605600000000005,-0.004581,-0.006336,0.005861,-36.369999,9.06,-27.5,3b
2019-07-12_114057:160,-0.249115,-0.012695,-0.427063,-0.004703,-0.0060609999999999995,0.005983,-36.060001,9.06,-27.5,3b
2019-07-12_114057:180,-0.24706999999999998,-0.012695,-0.429108,-0.0060149999999999995,-0.0061530000000000005,0.005739,-36.060001,9.06,-27.5,3b
2019-07-12_114057:200,-0.245056,-0.015747,-0.42807,-0.007297,-0.006092,0.005647,-36.060001,9.37,-27.5,3b
2019-07-12_114057:220,-0.248108,-0.015747,-0.429596,-0.008152,-0.0066099999999999996,0.004793,-36.060001,9.37,-27.5,3b
2019-07-12_114057:240,-0.24706999999999998,-0.01828,-0.429596,-0.008823000000000001,-0.006945999999999999,0.004548,-36.060001,9.37,-27.5,3b
2019-07-12_114057:260,-0.25012199999999996,-0.020325,-0.431641,-0.008732,-0.006548999999999999,0.004945000000000001,-36.060001,9.06,-26.25,3b
2019-07-12_114057:280,-0.251648,-0.017273,-0.429108,-0.008091,-0.006092,0.004335,-36.060001,9.06,-26.25,3b
2019-07-12_114057:300,-0.248108,-0.017273,-0.429596,-0.007633,-0.005451,0.0038159999999999995,-36.060001,9.06,-27.5,3b
2019-07-12_114057:320,-0.249115,-0.013702,-0.429108,-0.007358,-0.004901,0.004091,-36.060001,9.06,-27.5,3b
2019-07-12_114057:340,-0.24706999999999998,-0.011687999999999999,-0.429108,-0.007297,-0.004779,0.004335,-36.060001,9.06,-27.5,3b
2019-07-12_114057:360,-0.249115,-0.012177,-0.42858900000000005,-0.007418999999999999,-0.004657,0.004152,-36.060001,8.25,-27.870001000000002,3b
2019-07-12_114057:380,-0.24658200000000002,-0.011169,-0.429108,-0.007633,-0.004779,0.004182,-36.060001,8.25,-27.870001000000002,3b
2019-07-12_114057:400,-0.25317399999999995,-0.010651,-0.43011499999999997,-0.0076939999999999995,-0.004901,0.004457,-36.060001,9.06,-27.5,3b
2019-07-12_114057:420,-0.24963400000000002,-0.012695,-0.42807,-0.007877,-0.004383,0.004335,-36.060001,9.06,-27.5,3b
2019-07-12_114057:440,-0.25012199999999996,-0.011169,-0.431122,-0.007601999999999999,-0.004383,0.003053,-36.060001,9.06,-27.5,3b
2019-07-12_114057:460,-0.24963400000000002,-0.010162000000000001,-0.431641,-0.007145,-0.003925,0.0037549999999999997,-35.68,9.06,-26.68,3b
2019-07-12_114057:480,-0.250641,-0.011169,-0.42807,-0.006076,-0.003925,0.0039689999999999994,-35.68,9.06,-26.68,3b
2019-07-12_114057:500,-0.252686,-0.011169,-0.43011499999999997,-0.005558,-0.0032530000000000002,0.0029620000000000002,-36.060001,8.68,-26.75,3b
2019-07-12_114057:520,-0.252686,-0.0055850000000000006,-0.42605600000000005,-0.005039,-0.002796,0.002565,-36.060001,8.68,-26.75,3b
2019-07-12_114057:540,-0.253693,-0.0030210000000000002,-0.42807,-0.004825,-0.002124,0.0032359999999999997,-36.060001,8.68,-26.75,3b
2019-07-12_114057:560,-0.24758899999999998,-0.0025329999999999997,-0.423492,-0.005161,-0.001941,0.00345,-36.75,9.06,-27.870001000000002,3b
2019-07-12_114057:580,-0.249115,-0.001007,-0.421967,-0.005832,-0.002338,0.003511,-36.75,9.06,-27.870001000000002,3b
2019-07-12_114057:600,-0.248596,-0.001007,-0.423004,-0.006229,-0.0030399999999999997,0.0039689999999999994,-36.060001,8.68,-26.68,3b
2019-07-12_114057:620,-0.248108,-0.0035399999999999997,-0.421967,-0.0064730000000000005,-0.003589,0.004274,-36.060001,8.68,-26.68,3b
2019-07-12_114057:640,-0.2547,-0.006072999999999999,-0.425018,-0.0060149999999999995,-0.004047,0.004182,-36.060001,8.68,-26.68,3b
2019-07-12_114057:660,-0.258759,-0.006072999999999999,-0.420959,-0.005558,-0.003986,0.00403,-36.060001,8.25,-27.18,3b
2019-07-12_114057:680,-0.256226,-0.0055850000000000006,-0.420959,-0.004764,-0.003711,0.004274,-36.060001,8.25,-27.18,3b
2019-07-12_114057:700,-0.248596,-0.0035399999999999997,-0.420959,-0.004581,-0.003436,0.005006,-35.369999,8.68,-27.870001000000002,3b
2019-07-12_114057:720,-0.241486,-0.0025329999999999997,-0.41943400000000003,-0.004459,-0.004047,0.005983,-35.369999,8.68,-27.870001000000002,3b
2019-07-12_114057:740,-0.24353000000000002,-0.007599,-0.423004,-0.004581,-0.005451,0.005983,-35.369999,8.68,-27.870001000000002,3b
2019-07-12_114057:760,-0.24658200000000002,-0.007599,-0.423492,-0.004886,-0.006397,0.004671,-36.060001,8.68,-27.5,3b
2019-07-12_114057:780,-0.25216700000000003,-0.006072999999999999,-0.42453,-0.0051,-0.006548999999999999,0.004213000000000001,-36.060001,8.68,-27.5,3b
2019-07-12_114057:800,-0.24963400000000002,-0.007599,-0.42605600000000005,-0.005222,-0.006214,0.004854,-36.369999,8.25,-27.5,3b
2019-07-12_114057:820,-0.246063,-0.008118,-0.426544,-0.005558,-0.006336,0.004457,-36.369999,8.25,-27.5,3b
2019-07-12_114057:840,-0.252686,-0.009125,-0.431641,-0.005832,-0.006793,0.003572,-36.369999,8.25,-27.5,3b
2019-07-12_114057:860,-0.255707,-0.009125,-0.431122,-0.005832,-0.0061530000000000005,0.003633,-36.75,7.87,-26.25,3b
2019-07-12_114057:880,-0.257751,-0.009125,-0.431122,-0.005954,-0.005298,0.003511,-36.75,7.87,-26.25,3b
2019-07-12_114057:900,-0.257751,-0.009644,-0.431641,-0.005771,-0.004229999999999999,0.003023,-35.68,8.25,-27.18,3b
2019-07-12_114057:920,-0.248596,-0.010651,-0.43011499999999997,-0.005497,-0.003436,0.0029620000000000002,-35.68,8.25,-27.18,3b
2019-07-12_114057:940,-0.251648,-0.011687999999999999,-0.429596,-0.004703,-0.003436,0.0029,-35.68,8.25,-27.18,3b
2019-07-12_114057:960,-0.2547,-0.011169,-0.42758199999999996,-0.00394,-0.0032530000000000002,0.002839,-36.060001,8.68,-27.18,3b
2019-07-12_114057:980,-0.253693,-0.010651,-0.42605600000000005,-0.0033299999999999996,-0.002979,0.00345,-36.060001,8.68,-27.18,3b
2019-07-12_114058:000,-0.255707,-0.007599,-0.42453,-0.003055,-0.0021850000000000003,0.003572,-36.060001,7.87,-27.5,3b
2019-07-12_114058:020,-0.251648,-0.004547,-0.420959,-0.003544,-0.001941,0.003358,-36.060001,7.87,-27.5,3b
2019-07-12_114058:040,-0.254211,-0.0055850000000000006,-0.420441,-0.004123,-0.002246,0.0037549999999999997,-36.060001,7.87,-27.5,3b
2019-07-12_114058:060,-0.25521900000000003,-0.007599,-0.41943400000000003,-0.004947,-0.002857,0.004213000000000001,-36.75,9.06,-27.5,3b
2019-07-12_114058:080,-0.25521900000000003,-0.009644,-0.41943400000000003,-0.005161,-0.0030399999999999997,0.004274,-36.75,9.06,-27.5,3b
2019-07-12_114058:100,-0.256226,-0.010651,-0.41943400000000003,-0.004947,-0.0035280000000000003,0.004548,-36.060001,8.68,-25.5,3b
2019-07-12_114058:120,-0.257751,-0.012177,-0.418915,-0.004886,-0.004047,0.004793,-36.060001,8.68,-25.5,3b
2019-07-12_114058:140,-0.257233,-0.012177,-0.42147799999999996,-0.004337,-0.004383,0.004457,-36.060001,8.68,-25.5,3b
2019-07-12_114058:160,-0.260803,-0.012695,-0.420959,-0.004001,-0.004383,0.0034189999999999997,-36.369999,8.25,-25.5,3b
2019-07-12_114058:180,-0.260803,-0.008118,-0.41995200000000005,-0.004062,-0.004444,0.0029620000000000002,-36.369999,8.25,-25.5,3b
2019-07-12_114058:200,-0.258759,-0.006072999999999999,-0.41995200000000005,-0.004337,-0.004108,0.0038469999999999997,-36.369999,9.06,-26.68,3b
2019-07-12_114058:220,-0.256226,-0.006072999999999999,-0.416382,-0.004947,-0.004383,0.003694,-36.369999,9.06,-26.68,3b
2019-07-12_114058:240,-0.25317399999999995,-0.005065999999999999,-0.41842700000000005,-0.0060149999999999995,-0.004901,0.002443,-36.369999,9.06,-26.68,3b
2019-07-12_114058:260,-0.251648,-0.005065999999999999,-0.418915,-0.0064730000000000005,-0.005573,0.0025039999999999997,-37.18,8.68,-26.0,3b
2019-07-12_114058:280,-0.252686,-0.007111,-0.416382,-0.006809,-0.0060609999999999995,0.0029620000000000002,-37.18,8.68,-26.0,3b
2019-07-12_114058:300,-0.25317399999999995,-0.008118,-0.41943400000000003,-0.0069,-0.006670999999999999,0.002382,-37.18,8.68,-26.25,3b
2019-07-12_114058:320,-0.258759,-0.008118,-0.420959,-0.006351,-0.006731999999999999,0.002046,-37.18,8.68,-26.25,3b
2019-07-12_114058:340,-0.26181,-0.006072999999999999,-0.423004,-0.005679999999999999,-0.006458,0.002046,-37.18,8.68,-26.25,3b
2019-07-12_114058:360,-0.260803,-0.007599,-0.423492,-0.0052829999999999995,-0.006214,0.001832,-37.18,8.25,-26.25,3b
2019-07-12_114058:380,-0.261322,-0.0035399999999999997,-0.423492,-0.005161,-0.006092,0.001253,-37.18,8.25,-26.25,3b
2019-07-12_114058:400,-0.262848,-0.0025329999999999997,-0.42248500000000005,-0.004825,-0.005878,0.001588,-36.369999,8.25,-26.0,3b
2019-07-12_114058:420,-0.262329,-0.001495,-0.42147799999999996,-0.005039,-0.005573,0.001527,-36.369999,8.25,-26.0,3b
2019-07-12_114058:440,-0.262329,-0.001007,-0.42147799999999996,-0.005039,-0.0052369999999999995,0.001527,-36.369999,8.25,-26.0,3b
2019-07-12_114058:460,-0.262848,-0.001007,-0.420959,-0.004978,-0.005176,0.0017100000000000001,-37.18,8.25,-26.68,3b
2019-07-12_114058:480,-0.262329,-0.000488,-0.41842700000000005,-0.004947,-0.0052369999999999995,0.001771,-37.18,8.25,-26.68,3b
2019-07-12_114058:500,-0.260284,-0.000488,-0.41586300000000004,-0.004978,-0.005451,0.0017100000000000001,-36.369999,8.68,-25.18,3b
2019-07-12_114058:520,-0.257751,0.0,-0.414337,-0.004978,-0.005725,0.002229,-36.369999,8.68,-25.18,3b
2019-07-12_114058:540,-0.258759,0.000488,-0.415375,-0.004947,-0.006885,0.002565,-36.369999,8.68,-25.18,3b
2019-07-12_114058:560,-0.25827,0.0,-0.417908,-0.004947,-0.007343000000000001,0.003053,-36.369999,7.18,-26.25,3b
2019-07-12_114058:580,-0.254211,0.000488,-0.418915,-0.004947,-0.007923000000000001,0.0038159999999999995,-36.369999,7.18,-26.25,3b
2019-07-12_114058:600,-0.25521900000000003,0.0,-0.41943400000000003,-0.0051,-0.008655,0.003694,-36.75,7.18,-26.75,3b
2019-07-12_114058:620,-0.255707,0.000488,-0.420441,-0.005436,-0.008869,0.003053,-36.75,7.18,-26.75,3b
2019-07-12_114058:640,-0.256744,0.0,-0.42248500000000005,-0.005619,-0.009113,0.002321,-36.75,7.18,-26.75,3b
2019-07-12_114058:660,-0.260284,0.0,-0.42758199999999996,-0.005436,-0.009052,0.00229,-36.5,7.56,-25.5,3b
2019-07-12_114058:680,-0.260803,-0.002014,-0.42605600000000005,-0.004886,-0.008258,0.0027170000000000002,-36.5,7.56,-25.5,3b
2019-07-12_114058:700,-0.259277,-0.001495,-0.425537,-0.004123,-0.007465,0.0029,-37.25,7.18,-26.75,3b
2019-07-12_114058:720,-0.256744,0.0,-0.425537,-0.003788,-0.006945999999999999,0.0026260000000000003,-37.25,7.18,-26.75,3b
2019-07-12_114058:740,-0.25116,0.004547,-0.421967,-0.003544,-0.006885,0.002778,-37.25,7.18,-26.75,3b
2019-07-12_114058:760,-0.249115,0.005065999999999999,-0.423004,-0.003879,-0.007281999999999999,0.003114,-36.5,7.18,-26.75,3b
2019-07-12_114058:780,-0.24658200000000002,0.004547,-0.42248500000000005,-0.004337,-0.007587000000000001,0.0032359999999999997,-36.5,7.18,-26.75,3b
2019-07-12_114058:800,-0.246063,0.0025329999999999997,-0.42401099999999997,-0.004612,-0.007801000000000001,0.003572,-36.5,7.87,-26.75,3b
2019-07-12_114058:820,-0.246063,0.001495,-0.425537,-0.004612,-0.00838,0.004152,-36.5,7.87,-26.75,3b
2019-07-12_114058:840,-0.2547,0.001495,-0.42858900000000005,-0.004459,-0.008075,0.004457,-36.5,7.87,-26.75,3b
2019-07-12_114058:860,-0.253693,0.0,-0.429596,-0.004337,-0.007739,0.004396,-36.5,7.18,-28.0,3b
2019-07-12_114058:880,-0.253693,0.001007,-0.430634,-0.004184,-0.006885,0.0037549999999999997,-36.5,7.18,-28.0,3b
2019-07-12_114058:900,-0.25521900000000003,0.0030210000000000002,-0.431641,-0.00394,-0.006214,0.004213000000000001,-35.75,7.56,-27.18,3b
2019-07-12_114058:920,-0.253693,0.0035399999999999997,-0.431641,-0.004612,-0.005817,0.004945000000000001,-35.75,7.56,-27.18,3b
2019-07-12_114058:940,-0.251648,0.0030210000000000002,-0.429108,-0.0051,-0.005573,0.004854,-35.75,7.56,-27.18,3b
2019-07-12_114058:960,-0.250641,0.001007,-0.42807,-0.005497,-0.0055119999999999995,0.004915,-36.869999,7.18,-26.25,3b
2019-07-12_114058:980,-0.251648,0.0,-0.427063,-0.005619,-0.005115,0.005128,-36.869999,7.18,-26.25,3b
2019-07-12_114059:000,-0.25216700000000003,-0.000488,-0.425537,-0.005344,-0.004901,0.005403,-36.5,7.87,-26.68,3b
2019-07-12_114059:020,-0.25116,0.0,-0.42453,-0.005344,-0.004657,0.005586,-36.5,7.87,-26.68,3b
2019-07-12_114059:040,-0.25012199999999996,0.0,-0.423004,-0.0051,-0.004961999999999999,0.005861,-36.5,7.87,-26.68,3b
2019-07-12_114059:060,-0.24758899999999998,-0.001495,-0.42401099999999997,-0.005222,-0.005176,0.005678,-37.560001,6.5,-26.25,3b
2019-07-12_114059:080,-0.248108,-0.002014,-0.421967,-0.005344,-0.005878,0.004945000000000001,-37.560001,6.5,-26.25,3b
2019-07-12_114059:100,-0.251648,-0.0025329999999999997,-0.423004,-0.0052829999999999995,-0.006275,0.005067,-36.18,7.87,-27.18,3b
2019-07-12_114059:120,-0.256744,-0.001495,-0.425018,-0.005222,-0.006336,0.005647,-36.18,7.87,-27.18,3b
2019-07-12_114059:140,-0.256744,-0.000488,-0.42401099999999997,-0.005497,-0.006458,0.005922,-36.18,7.87,-27.18,3b
2019-07-12_114059:160,-0.2547,0.000488,-0.42401099999999997,-0.0060149999999999995,-0.006548999999999999,0.005861,-36.18,7.56,-26.68,3b
2019-07-12_114059:180,-0.25116,0.001495,-0.42147799999999996,-0.006962,-0.006793,0.005525,-36.18,7.56,-26.68,3b
2019-07-12_114059:200,-0.251648,0.0030210000000000002,-0.41995200000000005,-0.007633,-0.006793,0.005586,-36.18,7.56,-27.18,3b
2019-07-12_114059:220,-0.25317399999999995,0.001007,-0.417908,-0.008213,-0.006670999999999999,0.00525,-36.18,7.56,-27.18,3b
2019-07-12_114059:240,-0.25116,0.000488,-0.417389,-0.008334999999999999,-0.007006999999999999,0.004609,-36.18,7.56,-27.18,3b
2019-07-12_114059:260,-0.24096700000000001,-0.001495,-0.41943400000000003,-0.008274,-0.007281999999999999,0.004518,-36.18,8.25,-27.5,3b
2019-07-12_114059:280,-0.24658200000000002,-0.002014,-0.420441,-0.0069,-0.008655,0.003175,-36.18,8.25,-27.5,3b
2019-07-12_114059:300,-0.244019,-0.001495,-0.423004,-0.006412,-0.009113,0.0027170000000000002,-36.18,7.18,-27.18,3b
2019-07-12_114059:320,-0.246063,0.0,-0.429108,-0.004978,-0.009723,0.002839,-36.18,7.18,-27.18,3b
2019-07-12_114059:340,-0.256226,0.0,-0.437225,-0.004275999999999999,-0.009509,0.0029,-36.18,7.18,-27.18,3b
2019-07-12_114059:360,-0.259277,-0.001007,-0.43823199999999995,-0.004062,-0.008990999999999999,0.002687,-35.75,7.56,-27.5,3b
2019-07-12_114059:380,-0.268951,0.0,-0.44027700000000003,-0.00275,-0.006731999999999999,0.002107,-35.75,7.56,-27.5,3b
2019-07-12_114059:400,-0.2659,-0.001007,-0.43823199999999995,-0.002262,-0.005695,0.0025039999999999997,-35.75,7.56,-27.5,3b
2019-07-12_114059:420,-0.258759,0.000488,-0.434174,-0.000797,-0.003314,0.004671,-36.5,7.56,-27.18,3b
2019-07-12_114059:440,-0.250641,0.002014,-0.42807,-0.000675,-0.0025210000000000002,0.005128,-36.5,7.56,-27.18,3b
2019-07-12_114059:460,-0.241486,0.008118,-0.423004,-0.001194,-0.002643,0.00525,-35.75,7.56,-27.870001000000002,3b
2019-07-12_114059:480,-0.23895300000000003,0.008636,-0.41943400000000003,-0.0032689999999999998,-0.0038640000000000002,0.006196,-35.75,7.56,-27.870001000000002,3b
2019-07-12_114059:500,-0.23895300000000003,0.006072999999999999,-0.41995200000000005,-0.004062,-0.004596,0.006441,-35.5,7.56,-25.559998999999998,3b
2019-07-12_114059:520,-0.238434,0.0030210000000000002,-0.41943400000000003,-0.006076,-0.006488,0.006776000000000001,-35.5,7.56,-25.559998999999998,3b
2019-07-12_114059:540,-0.24353000000000002,-0.0025329999999999997,-0.425018,-0.00629,-0.007129000000000001,0.007326000000000001,-35.5,7.56,-25.559998999999998,3b
2019-07-12_114059:560,-0.249115,-0.0055850000000000006,-0.427063,-0.005954,-0.007404000000000001,0.007661,-35.75,7.56,-28.0,3b
2019-07-12_114059:580,-0.24963400000000002,-0.008118,-0.426544,-0.0051,-0.006945999999999999,0.0069900000000000006,-35.75,7.56,-28.0,3b
2019-07-12_114059:600,-0.25116,-0.008118,-0.433167,-0.004703,-0.007006999999999999,0.006379,-35.75,7.56,-28.0,3b
2019-07-12_114059:620,-0.251648,-0.005065999999999999,-0.432648,-0.004459,-0.006458,0.006318,-35.75,7.56,-27.5,3b
2019-07-12_114059:640,-0.25116,-0.005065999999999999,-0.432648,-0.004275999999999999,-0.005695,0.006654,-35.75,7.56,-27.5,3b
2019-07-12_114059:660,-0.25116,-0.005065999999999999,-0.433167,-0.0042450000000000005,-0.00539,0.006379,-35.75,7.56,-28.25,3b
2019-07-12_114059:680,-0.251648,-0.002014,-0.43011499999999997,-0.004978,-0.004321,0.005861,-35.75,7.56,-28.25,3b
2019-07-12_114059:700,-0.24963400000000002,-0.002014,-0.43011499999999997,-0.004947,-0.0038640000000000002,0.006318,-36.18,8.25,-28.0,3b
2019-07-12_114059:720,-0.245544,-0.0030210000000000002,-0.429108,-0.005497,-0.003711,0.00757,-36.18,8.25,-28.0,3b
2019-07-12_114059:740,-0.248108,-0.005065999999999999,-0.42758199999999996,-0.005741,-0.004108,0.007387,-36.18,8.25,-28.0,3b
2019-07-12_114059:760,-0.249115,-0.009644,-0.42807,-0.0060149999999999995,-0.004444,0.007203,-35.75,8.68,-26.68,3b
2019-07-12_114059:780,-0.251648,-0.009125,-0.42758199999999996,-0.005832,-0.004657,0.007326000000000001,-35.75,8.68,-26.68,3b
2019-07-12_114059:800,-0.2547,-0.008636,-0.42758199999999996,-0.005741,-0.004444,0.007387,-35.75,8.68,-26.68,3b
2019-07-12_114059:820,-0.25317399999999995,-0.009125,-0.42605600000000005,-0.005558,-0.004229999999999999,0.007265000000000001,-36.18,7.87,-28.25,3b
2019-07-12_114059:840,-0.252686,-0.009125,-0.42858900000000005,-0.005893,-0.004444,0.006776000000000001,-36.18,7.87,-28.25,3b
2019-07-12_114059:860,-0.252686,-0.009125,-0.42807,-0.005741,-0.004229999999999999,0.006379,-35.75,7.56,-27.18,3b
2019-07-12_114059:880,-0.25521900000000003,-0.009644,-0.42605600000000005,-0.005832,-0.0037719999999999997,0.005464,-35.75,7.56,-27.18,3b
2019-07-12_114059:900,-0.25521900000000003,-0.008118,-0.42605600000000005,-0.005558,-0.003436,0.005403,-35.75,7.56,-27.18,3b
2019-07-12_114059:920,-0.25116,-0.007599,-0.421967,-0.004947,-0.003436,0.005525,-35.75,8.25,-27.18,3b
2019-07-12_114059:940,-0.248108,-0.006072999999999999,-0.42401099999999997,-0.004825,-0.00365,0.00525,-35.75,8.25,-27.18,3b
2019-07-12_114059:960,-0.246063,-0.005065999999999999,-0.42453,-0.004612,-0.004047,0.004793,-36.18,8.25,-26.75,3b
2019-07-12_114059:980,-0.24706999999999998,-0.0055850000000000006,-0.423004,-0.004520000000000001,-0.004383,0.004793,-36.18,8.25,-26.75,3b
2019-07-12_114100:000,-0.253693,-0.0035399999999999997,-0.425018,-0.004398,-0.004993,0.004854,-36.18,9.06,-26.25,3b
2019-07-12_114100:020,-0.25216700000000003,-0.004059,-0.42453,-0.004398,-0.004657,0.005464,-36.18,9.06,-26.25,3b
2019-07-12_114100:040,-0.253693,-0.004547,-0.42758199999999996,-0.0042450000000000005,-0.005054,0.005678,-36.18,9.06,-26.25,3b
2019-07-12_114100:060,-0.25116,-0.005065999999999999,-0.429596,-0.004275999999999999,-0.004901,0.0058,-36.5,7.87,-27.18,3b
2019-07-12_114100:080,-0.25521900000000003,-0.007599,-0.429596,-0.0037270000000000003,-0.005054,0.0058,-36.5,7.87,-27.18,3b
2019-07-12_114100:100,-0.260803,-0.007599,-0.432159,-0.0037270000000000003,-0.004961999999999999,0.005983,-36.5,7.87,-27.18,3b
2019-07-12_114100:120,-0.261322,-0.009644,-0.43011499999999997,-0.003208,-0.003589,0.0076,-36.18,8.25,-26.75,3b
2019-07-12_114100:140,-0.262848,-0.010651,-0.43011499999999997,-0.003116,-0.002979,0.008119,-36.18,8.25,-26.75,3b
2019-07-12_114100:160,-0.257751,-0.010162000000000001,-0.427063,-0.003116,-0.002124,0.007661,-35.5,9.37,-27.870001000000002,3b
2019-07-12_114100:180,-0.255707,-0.010162000000000001,-0.423004,-0.003879,-0.001392,0.007112,-35.5,9.37,-27.870001000000002,3b
2019-07-12_114100:200,-0.2547,-0.013702,-0.42147799999999996,-0.004398,-0.001178,0.0071730000000000006,-36.18,9.37,-27.5,3b
2019-07-12_114100:220,-0.252686,-0.017273,-0.41995200000000005,-0.004825,-0.0013310000000000002,0.007051000000000001,-36.18,9.37,-27.5,3b
2019-07-12_114100:240,-0.25521900000000003,-0.020844,-0.41842700000000005,-0.004642,-0.001911,0.006470999999999999,-36.18,9.37,-27.5,3b
2019-07-12_114100:260,-0.253693,-0.020325,-0.41943400000000003,-0.003879,-0.002582,0.006318,-36.5,9.06,-27.18,3b
2019-07-12_114100:280,-0.260803,-0.020325,-0.420959,-0.003147,-0.003436,0.0067150000000000005,-36.5,9.06,-27.18,3b
2019-07-12_114100:300,-0.263336,-0.019806,-0.420441,-0.0027199999999999998,-0.0037719999999999997,0.006318,-36.5,9.06,-27.18,3b
2019-07-12_114100:320,-0.265381,-0.014740000000000001,-0.420441,-0.002872,-0.003833,0.005647,-36.5,9.06,-26.0,3b
2019-07-12_114100:340,-0.265381,-0.017792,-0.41943400000000003,-0.003544,-0.0037719999999999997,0.005525,-36.5,9.06,-26.0,3b
2019-07-12_114100:360,-0.262848,-0.017273,-0.41586300000000004,-0.004184,-0.003436,0.006441,-36.5,9.37,-26.25,3b
2019-07-12_114100:380,-0.262329,-0.015747,-0.41333000000000003,-0.005039,-0.003711,0.006196,-36.5,9.37,-26.25,3b
2019-07-12_114100:400,-0.25521900000000003,-0.017273,-0.407227,-0.005771,-0.004229999999999999,0.005739,-36.5,9.37,-26.25,3b
2019-07-12_114100:420,-0.25116,-0.018799,-0.409271,-0.00629,-0.00539,0.006257,-36.18,9.75,-25.18,3b
2019-07-12_114100:440,-0.249115,-0.021851,-0.41333000000000003,-0.0065650000000000005,-0.007678,0.006593000000000001,-36.18,9.75,-25.18,3b
2019-07-12_114100:460,-0.25216700000000003,-0.022369,-0.414337,-0.0069,-0.010272,0.006074,-37.25,9.06,-26.25,3b
2019-07-12_114100:480,-0.257751,-0.023375999999999997,-0.41995200000000005,-0.007084,-0.012165,0.005189,-37.25,9.06,-26.25,3b
2019-07-12_114100:500,-0.259796,-0.021851,-0.427063,-0.007145,-0.013233000000000002,0.004152,-37.25,9.06,-26.25,3b
2019-07-12_114100:520,-0.258759,-0.020325,-0.429596,-0.007206000000000001,-0.012714,0.0029,-35.75,9.06,-26.0,3b
2019-07-12_114100:540,-0.254211,-0.019806,-0.431122,-0.007145,-0.012042,0.0019850000000000002,-35.75,9.06,-26.0,3b
2019-07-12_114100:560,-0.244019,-0.017792,-0.433167,-0.006504,-0.010669,0.001527,-36.5,9.37,-27.5,3b
2019-07-12_114100:580,-0.24353000000000002,-0.018799,-0.43670699999999996,-0.006412,-0.010181,0.001314,-36.5,9.37,-27.5,3b
2019-07-12_114100:600,-0.24963400000000002,-0.020325,-0.44281000000000004,-0.005741,-0.009784000000000001,0.0007639999999999999,-36.5,9.37,-27.5,3b
2019-07-12_114100:620,-0.25317399999999995,-0.018799,-0.44232200000000005,-0.004825,-0.008747,-0.000212,-36.18,9.06,-27.18,3b
2019-07-12_114100:640,-0.256744,-0.014221000000000001,-0.440796,-0.00394,-0.006854000000000001,-0.000884,-36.18,9.06,-27.18,3b
2019-07-12_114100:660,-0.25317399999999995,-0.012177,-0.43823199999999995,-0.003116,-0.005054,-0.0009449999999999999,-35.75,8.25,-26.25,3b
2019-07-12_114100:680,-0.24353000000000002,-0.006592,-0.430634,-0.002536,-0.0038640000000000002,-0.001158,-35.75,8.25,-26.25,3b
2019-07-12_114100:700,-0.24453699999999998,-0.0035399999999999997,-0.42807,-0.002475,-0.003925,-0.001006,-35.75,8.25,-26.25,3b
2019-07-12_114100:720,-0.24453699999999998,0.000488,-0.423492,-0.0027199999999999998,-0.004169,-0.000487,-35.75,8.25,-27.5,3b
2019-07-12_114100:740,-0.24353000000000002,0.001007,-0.420441,-0.0036049999999999997,-0.004596,0.0008560000000000001,-35.75,8.25,-27.5,3b
2019-07-12_114100:760,-0.24758899999999998,0.0030210000000000002,-0.42248500000000005,-0.004886,-0.0052369999999999995,0.001375,-35.75,9.37,-26.68,3b
2019-07-12_114100:780,-0.243011,0.0025329999999999997,-0.420441,-0.005741,-0.0052369999999999995,0.0017100000000000001,-35.75,9.37,-26.68,3b
2019-07-12_114100:800,-0.24453699999999998,0.000488,-0.42147799999999996,-0.0064730000000000005,-0.005725,0.001375,-35.75,9.37,-26.68,3b
2019-07-12_114100:820,-0.244019,0.001007,-0.42248500000000005,-0.0064730000000000005,-0.006336,0.001893,-35.75,8.68,-28.25,3b
2019-07-12_114100:840,-0.24096700000000001,0.000488,-0.41995200000000005,-0.005893,-0.006336,0.003175,-35.75,8.68,-28.25,3b
2019-07-12_114100:860,-0.239441,-0.001007,-0.423004,-0.005222,-0.0066099999999999996,0.003175,-36.5,7.87,-28.25,3b
2019-07-12_114100:880,-0.23791500000000002,0.000488,-0.42453,-0.0051,-0.006885,0.002321,-36.5,7.87,-28.25,3b
2019-07-12_114100:900,-0.240479,0.004547,-0.42807,-0.004886,-0.007220999999999999,0.0025039999999999997,-36.5,7.87,-28.25,3b
2019-07-12_114100:920,-0.245056,0.0055850000000000006,-0.431122,-0.004978,-0.006854000000000001,0.0037549999999999997,-35.5,7.56,-27.18,3b
2019-07-12_114100:940,-0.243011,0.006072999999999999,-0.429108,-0.005771,-0.006458,0.004152,-35.5,7.56,-27.18,3b
2019-07-12_114100:960,-0.24453699999999998,0.006072999999999999,-0.431122,-0.0064730000000000005,-0.005878,0.004732,-36.5,8.68,-27.18,3b
2019-07-12_114100:980,-0.245544,0.006592,-0.430634,-0.007206000000000001,-0.005817,0.005861,-36.5,8.68,-27.18,3b
2019-07-12_114101:000,-0.245056,0.006072999999999999,-0.429596,-0.007999,-0.004657,0.006257,-36.5,8.68,-27.18,3b
2019-07-12_114101:020,-0.24658200000000002,0.004059,-0.42453,-0.00867,-0.003192,0.006044,-36.18,8.25,-27.5,3b
2019-07-12_114101:040,-0.23995999999999998,0.004547,-0.42758199999999996,-0.009128,-0.002979,0.006379,-36.18,8.25,-27.5,3b
2019-07-12_114101:060,-0.23690799999999998,0.0030210000000000002,-0.42858900000000005,-0.009342,-0.003436,0.007448000000000001,-35.5,7.56,-28.0,3b
2019-07-12_114101:080,-0.245056,0.000488,-0.42858900000000005,-0.00922,-0.004383,0.007661,-35.5,7.56,-28.0,3b
2019-07-12_114101:100,-0.25317399999999995,0.001007,-0.432159,-0.009067,-0.003986,0.007051000000000001,-35.5,7.56,-28.0,3b
2019-07-12_114101:120,-0.259277,0.001007,-0.431641,-0.008548,-0.00307,0.0071730000000000006,-36.5,7.87,-27.5,3b
2019-07-12_114101:140,-0.264374,0.001007,-0.432648,-0.007816,-0.0021850000000000003,0.007326000000000001,-36.5,7.87,-27.5,3b
2019-07-12_114101:160,-0.259277,0.001007,-0.431122,-0.0076939999999999995,-0.001911,0.0071730000000000006,-35.5,7.56,-27.5,3b
2019-07-12_114101:180,-0.260803,0.0025329999999999997,-0.426544,-0.007633,-0.001911,0.0069900000000000006,-35.5,7.56,-27.5,3b
2019-07-12_114101:200,-0.257233,0.0030210000000000002,-0.423492,-0.007541,-0.0021850000000000003,0.006593000000000001,-35.5,7.56,-27.5,3b
2019-07-12_114101:220,-0.256744,0.0025329999999999997,-0.42248500000000005,-0.00748,-0.002735,0.005586,-36.18,8.25,-26.68,3b
2019-07-12_114101:240,-0.25116,0.0030210000000000002,-0.41586300000000004,-0.007297,-0.003192,0.004548,-36.18,8.25,-26.68,3b
2019-07-12_114101:260,-0.246063,0.0025329999999999997,-0.415375,-0.006687,-0.004169,0.003694,-36.18,8.68,-28.25,3b
2019-07-12_114101:280,-0.24353000000000002,0.0035399999999999997,-0.41333000000000003,-0.0061070000000000004,-0.005115,0.0029,-36.18,8.68,-28.25,3b
2019-07-12_114101:300,-0.241486,0.005065999999999999,-0.41485600000000006,-0.005436,-0.006,0.0019850000000000002,-36.18,8.68,-28.25,3b
2019-07-12_114101:320,-0.244019,0.0055850000000000006,-0.417389,-0.004978,-0.007006999999999999,0.000642,-36.5,7.87,-26.0,3b
2019-07-12_114101:340,-0.24963400000000002,0.007111,-0.421967,-0.004612,-0.007801000000000001,-0.000151,-36.5,7.87,-26.0,3b
2019-07-12_114101:360,-0.256744,0.007599,-0.42858900000000005,-0.0042450000000000005,-0.008411,-0.000334,-35.75,7.87,-26.75,3b
2019-07-12_114101:380,-0.262848,0.006072999999999999,-0.42858900000000005,-0.004062,-0.007984,-0.000426,-35.75,7.87,-26.75,3b
2019-07-12_114101:400,-0.266388,0.006072999999999999,-0.431122,-0.003544,-0.006854000000000001,-0.001219,-35.75,7.87,-26.75,3b
2019-07-12_114101:420,-0.263855,0.009125,-0.431122,-0.0032689999999999998,-0.005451,-0.002349,-36.18,8.25,-27.18,3b
2019-07-12_114101:440,-0.252686,0.012695,-0.425537,-0.0027199999999999998,-0.004108,-0.002532,-36.18,8.25,-27.18,3b
2019-07-12_114101:460,-0.25012199999999996,0.019318000000000002,-0.426544,-0.003208,-0.004321,-0.00128,-36.5,7.87,-27.5,3b
2019-07-12_114101:480,-0.244019,0.019318000000000002,-0.42401099999999997,-0.004520000000000001,-0.004993,-2.8999999999999997e-05,-36.5,7.87,-27.5,3b
2019-07-12_114101:500,-0.244019,0.018799,-0.42453,-0.006076,-0.005695,0.000368,-36.5,7.87,-27.5,3b
2019-07-12_114101:520,-0.252686,0.017273,-0.427063,-0.007937999999999999,-0.006458,0.000184,-36.18,7.18,-26.25,3b
2019-07-12_114101:540,-0.256744,0.008636,-0.423492,-0.00867,-0.006275,0.000184,-36.18,7.18,-26.25,3b
2019-07-12_114101:560,-0.257751,0.0035399999999999997,-0.423492,-0.008426000000000001,-0.005939,-9e-05,-37.25,7.18,-27.5,3b
2019-07-12_114101:580,-0.253693,0.004547,-0.423492,-0.007541,-0.005634,-0.001464,-37.25,7.18,-27.5,3b
2019-07-12_114101:600,-0.24963400000000002,0.0055850000000000006,-0.42248500000000005,-0.005832,-0.005451,-0.002288,-37.25,7.18,-27.5,3b
2019-07-12_114101:620,-0.251648,0.012177,-0.425018,-0.004520000000000001,-0.006214,-0.002471,-36.18,6.5,-27.18,3b
2019-07-12_114101:640,-0.255707,0.016266,-0.42248500000000005,-0.004398,-0.006488,-0.002593,-36.18,6.5,-27.18,3b
2019-07-12_114101:660,-0.256744,0.020325,-0.423492,-0.005039,-0.006488,-0.002135,-36.18,6.5,-27.5,3b
2019-07-12_114101:680,-0.25827,0.021851,-0.42147799999999996,-0.006351,-0.006458,-0.00128,-36.18,6.5,-27.5,3b
2019-07-12_114101:700,-0.260284,0.018799,-0.425018,-0.007755,-0.006214,-0.0008230000000000001,-36.18,6.5,-27.5,3b
2019-07-12_114101:720,-0.258759,0.012695,-0.421967,-0.008274,-0.0055119999999999995,-0.001219,-36.18,6.5,-27.5,3b
2019-07-12_114101:740,-0.25521900000000003,0.010162000000000001,-0.423004,-0.007937999999999999,-0.005451,-0.002745,-36.18,6.5,-27.5,3b
2019-07-12_114101:760,-0.250641,0.010162000000000001,-0.423004,-0.006412,-0.005115,-0.003081,-36.18,6.5,-27.5,3b
2019-07-12_114101:780,-0.248596,0.012177,-0.420959,-0.004459,-0.00539,-0.002623,-36.18,6.5,-27.5,3b
2019-07-12_114101:800,-0.251648,0.016266,-0.423492,-0.002536,-0.0060609999999999995,-0.003081,-36.18,6.5,-27.5,3b
2019-07-12_114101:820,-0.256744,0.024902,-0.42401099999999997,-0.001865,-0.006458,-0.003783,-36.5,6.06,-27.18,3b
2019-07-12_114101:840,-0.257233,0.027954000000000003,-0.42248500000000005,-0.00159,-0.006458,-0.003539,-36.5,6.06,-27.18,3b
2019-07-12_114101:860,-0.262329,0.032532,-0.42605600000000005,-0.0022010000000000003,-0.006397,-0.003264,-36.5,5.75,-26.75,3b
2019-07-12_114101:880,-0.25827,0.03302,-0.42401099999999997,-0.0033299999999999996,-0.005573,-0.002867,-36.5,5.75,-26.75,3b
2019-07-12_114101:900,-0.25521900000000003,0.031006,-0.423492,-0.004123,-0.005176,-0.00186,-36.5,5.75,-26.75,3b
2019-07-12_114101:920,-0.252686,0.029480000000000003,-0.421967,-0.004764,-0.0052369999999999995,-0.001006,-36.869999,5.0,-28.0,3b
2019-07-12_114101:940,-0.25012199999999996,0.025908999999999998,-0.420441,-0.005039,-0.0055119999999999995,-0.000426,-36.869999,5.0,-28.0,3b
2019-07-12_114101:960,-0.254211,0.022858,-0.423004,-0.004703,-0.006,6.2e-05,-36.869999,5.75,-28.0,3b
2019-07-12_114101:980,-0.258759,0.020325,-0.42248500000000005,-0.0042450000000000005,-0.006275,6.2e-05,-36.869999,5.75,-28.0,3b
2019-07-12_114102:000,-0.257751,0.019318000000000002,-0.42248500000000005,-0.003452,-0.006,-0.000731,-36.869999,5.75,-28.0,3b
2019-07-12_114102:020,-0.25521900000000003,0.023375999999999997,-0.420441,-0.002597,-0.005725,-0.002471,-36.869999,5.75,-27.18,3b
2019-07-12_114102:040,-0.2547,0.026917,-0.42248500000000005,-0.001957,-0.005878,-0.002806,-36.869999,5.75,-27.18,3b
2019-07-12_114102:060,-0.25012199999999996,0.029480000000000003,-0.420959,-0.001743,-0.006458,-0.001464,-35.75,5.0,-27.18,3b
2019-07-12_114102:080,-0.251648,0.030487,-0.421967,-0.001743,-0.007006999999999999,-0.000884,-35.75,5.0,-27.18,3b
2019-07-12_114102:100,-0.25216700000000003,0.033539,-0.42401099999999997,-0.002597,-0.007343000000000001,-0.001402,-35.75,5.0,-27.18,3b
2019-07-12_114102:120,-0.252686,0.03302,-0.425018,-0.0033909999999999995,-0.007281999999999999,-0.0005480000000000001,-36.18,4.56,-27.5,3b
2019-07-12_114102:140,-0.258759,0.028442000000000002,-0.42758199999999996,-0.003879,-0.007006999999999999,6.2e-05,-36.18,4.56,-27.5,3b
2019-07-12_114102:160,-0.2547,0.026917,-0.426544,-0.003879,-0.006548999999999999,-2.8999999999999997e-05,-36.18,4.25,-28.25,3b
2019-07-12_114102:180,-0.253693,0.022858,-0.42605600000000005,-0.002597,-0.0060609999999999995,-0.000487,-36.18,4.25,-28.25,3b
2019-07-12_114102:200,-0.25116,0.023895,-0.42605600000000005,-0.001011,-0.005939,-0.000426,-36.18,4.25,-28.25,3b
2019-07-12_114102:220,-0.248108,0.026917,-0.42605600000000005,0.000393,-0.006214,0.000917,-35.75,4.56,-27.18,3b
2019-07-12_114102:240,-0.24963400000000002,0.028961,-0.426544,0.001248,-0.006336,0.002168,-35.75,4.56,-27.18,3b
2019-07-12_114102:260,-0.24963400000000002,0.031494,-0.42858900000000005,0.0009119999999999999,-0.006275,0.002229,-35.060001,5.0,-26.68,3b
2019-07-12_114102:280,-0.24758899999999998,0.031494,-0.429596,-0.0004,-0.006092,0.002839,-35.060001,5.0,-26.68,3b
2019-07-12_114102:300,-0.248596,0.028961,-0.431641,-0.0016820000000000001,-0.005878,0.004152,-35.060001,5.0,-26.68,3b
2019-07-12_114102:320,-0.246063,0.024384,-0.432159,-0.003055,-0.005451,0.005189,-36.5,5.0,-26.75,3b
2019-07-12_114102:340,-0.24658200000000002,0.01828,-0.431122,-0.003788,-0.005054,0.005983,-36.5,5.0,-26.75,3b
2019-07-12_114102:360,-0.245056,0.015228,-0.432648,-0.004062,-0.004718,0.007203,-36.18,4.25,-27.5,3b
2019-07-12_114102:380,-0.24658200000000002,0.010162000000000001,-0.432159,-0.003849,-0.0038640000000000002,0.007661,-36.18,4.25,-27.5,3b
2019-07-12_114102:400,-0.248108,0.007111,-0.430634,-0.003452,-0.003375,0.006593000000000001,-36.18,4.25,-27.5,3b
2019-07-12_114102:420,-0.248108,0.009644,-0.431122,-0.003116,-0.002735,0.005678,-36.869999,4.25,-27.5,3b
2019-07-12_114102:440,-0.24758899999999998,0.009644,-0.429108,-0.002872,-0.002796,0.006074,-36.869999,4.25,-27.5,3b
2019-07-12_114102:460,-0.251648,0.008118,-0.42758199999999996,-0.003055,-0.0025210000000000002,0.006837,-36.5,5.37,-27.18,3b
2019-07-12_114102:480,-0.25216700000000003,0.006592,-0.42401099999999997,-0.003055,-0.00246,0.006379,-36.5,5.37,-27.18,3b
2019-07-12_114102:500,-0.2547,0.004059,-0.425018,-0.002811,-0.002338,0.004671,-36.5,5.37,-27.18,3b
2019-07-12_114102:520,-0.252686,0.0030210000000000002,-0.423004,-0.0019260000000000002,-0.001941,0.0026260000000000003,-36.18,5.0,-27.5,3b
2019-07-12_114102:540,-0.25116,0.0055850000000000006,-0.421967,-0.0004,-0.001941,0.000795,-36.18,5.0,-27.5,3b
2019-07-12_114102:560,-0.25116,0.007599,-0.42401099999999997,0.001309,-0.0023989999999999997,-0.000151,-36.5,5.37,-27.18,3b
2019-07-12_114102:580,-0.24963400000000002,0.012695,-0.420959,0.002499,-0.002735,-0.0008230000000000001,-36.5,5.37,-27.18,3b
2019-07-12_114102:600,-0.249115,0.019806,-0.42147799999999996,0.002987,-0.002979,-0.00128,-36.5,5.37,-27.18,3b
2019-07-12_114102:620,-0.245056,0.028442000000000002,-0.425018,0.0032310000000000004,-0.003314,-0.00067,-37.560001,5.0,-27.18,3b
2019-07-12_114102:640,-0.246063,0.03302,-0.427063,0.0028350000000000003,-0.003589,0.001161,-37.560001,5.0,-27.18,3b
2019-07-12_114102:660,-0.248108,0.034546,-0.430634,0.001126,-0.003925,0.003633,-37.25,5.37,-27.5,3b
2019-07-12_114102:680,-0.255707,0.031006,-0.430634,-0.0011330000000000001,-0.004169,0.006654,-37.25,5.37,-27.5,3b
2019-07-12_114102:700,-0.256744,0.025421,-0.433655,-0.002811,-0.003375,0.009706000000000001,-37.25,5.37,-27.5,3b
2019-07-12_114102:720,-0.261322,0.021332,-0.431641,-0.003879,-0.002918,0.01291,-36.5,5.0,-26.0,3b
2019-07-12_114102:740,-0.261322,0.015747,-0.42858900000000005,-0.005771,-0.001911,0.015625999999999998,-36.5,5.0,-26.0,3b
2019-07-12_114102:760,-0.265381,0.008636,-0.429108,-0.007601999999999999,-0.001117,0.017061,-37.25,5.75,-26.25,3b
2019-07-12_114102:780,-0.263855,0.0,-0.423004,-0.009159,-0.00038500000000000003,0.01642,-37.25,5.75,-26.25,3b
2019-07-12_114102:800,-0.263336,-0.008118,-0.42147799999999996,-0.009403,1.2e-05,0.014955000000000001,-37.25,5.75,-26.25,3b
2019-07-12_114102:820,-0.263855,-0.010651,-0.41943400000000003,-0.008609,0.00047000000000000004,0.0123,-35.75,6.06,-26.0,3b
2019-07-12_114102:840,-0.255707,-0.010651,-0.41485600000000006,-0.007358,0.000531,0.009187,-35.75,6.06,-26.0,3b
2019-07-12_114102:860,-0.255707,-0.006072999999999999,-0.414337,-0.005619,-0.000202,0.006868000000000001,-37.560001,6.06,-26.25,3b
2019-07-12_114102:880,-0.255707,-0.001007,-0.41232299999999994,-0.003849,-0.001605,0.0058,-37.560001,6.06,-26.25,3b
2019-07-12_114102:900,-0.257233,0.004059,-0.41232299999999994,-0.002659,-0.002796,0.005983,-37.560001,6.06,-26.25,3b
2019-07-12_114102:920,-0.262329,0.012177,-0.41232299999999994,-0.002353,-0.003711,0.006441,-37.560001,6.5,-26.0,3b
2019-07-12_114102:940,-0.264374,0.014740000000000001,-0.41384899999999997,-0.003116,-0.004047,0.0071730000000000006,-37.560001,6.5,-26.0,3b
2019-07-12_114102:960,-0.264374,0.016753999999999998,-0.41333000000000003,-0.004612,-0.004383,0.008333,-36.869999,6.06,-25.559998999999998,3b
2019-07-12_114102:980,-0.2659,0.015228,-0.41333000000000003,-0.006687,-0.005054,0.009523,-36.869999,6.06,-25.559998999999998,3b
2019-07-12_114103:000,-0.2659,0.009644,-0.41384899999999997,-0.008395999999999999,-0.005359,0.010376999999999999,-36.869999,6.06,-25.559998999999998,3b
2019-07-12_114103:020,-0.268951,0.004059,-0.41586300000000004,-0.009861,-0.0055119999999999995,0.011506,-37.25,6.75,-26.0,3b
2019-07-12_114103:040,-0.269958,-0.0025329999999999997,-0.416382,-0.010471,-0.005573,0.012086,-37.25,6.75,-26.0,3b
2019-07-12_114103:060,-0.264374,-0.007111,-0.415375,-0.010256999999999999,-0.005695,0.011445,-36.869999,6.75,-26.25,3b
2019-07-12_114103:080,-0.263336,-0.010651,-0.416382,-0.00922,-0.006,0.009767,-36.869999,6.75,-26.25,3b
2019-07-12_114103:100,-0.263336,-0.010651,-0.417908,-0.007755,-0.006214,0.008119,-36.869999,6.75,-26.25,3b
2019-07-12_114103:120,-0.262329,-0.009125,-0.417389,-0.006168,-0.006488,0.0069900000000000006,-36.869999,6.5,-26.0,3b
2019-07-12_114103:140,-0.264374,-0.007599,-0.416901,-0.004581,-0.006548999999999999,0.006257,-36.869999,6.5,-26.0,3b
