timestamp,AccX,AccY,AccZ,GyroX,GyroY,GyroZ,MagX,MagY,MagZ,Activity
2019-07-12_144651:060,-0.49111899999999997,0.013702,-0.064545,-0.0074930000000000005,-0.00045999999999999996,0.002434,-45.68,2.25,11.37,3a
2019-07-12_144651:080,-0.496216,0.010651,-0.066071,-0.0076760000000000005,-0.000643,0.002129,-45.68,2.25,10.56,3a
2019-07-12_144651:100,-0.48654200000000003,0.012177,-0.069641,-0.007890000000000001,-0.0018030000000000001,0.001396,-45.68,2.25,10.56,3a
2019-07-12_144651:120,-0.481476,0.012695,-0.069122,-0.008225,-0.003268,0.002434,-45.68,2.25,10.56,3a
2019-07-12_144651:140,-0.490112,0.010162000000000001,-0.070648,-0.008286,-0.003848,0.0030440000000000003,-44.869999,2.68,12.18,3a
2019-07-12_144651:160,-0.49517799999999995,0.010162000000000001,-0.07016,-0.008286,-0.0037869999999999996,0.0028309999999999997,-44.869999,2.68,12.18,3a
2019-07-12_144651:180,-0.496704,0.009125,-0.068634,-0.00847,-0.00339,0.002434,-46.060001,1.87,11.0,3a
2019-07-12_144651:200,-0.497742,0.009125,-0.067108,-0.008286,-0.001955,0.002892,-46.060001,1.87,11.0,3a
2019-07-12_144651:220,-0.500275,0.007111,-0.07016,-0.008286,-0.0011619999999999998,0.002983,-46.060001,1.87,11.0,3a
2019-07-12_144651:240,-0.49975600000000003,0.007111,-0.068634,-0.008348000000000001,-0.0007650000000000001,0.0035020000000000003,-45.25,1.56,9.37,3a
2019-07-12_144651:260,-0.495697,0.007599,-0.06405599999999999,-0.008409,-0.000246,0.004692,-45.25,1.56,9.37,3a
2019-07-12_144651:280,-0.49722299999999997,0.004059,-0.067596,-0.0085,2.8000000000000003e-05,0.004296,-46.369999,2.25,11.0,3a
2019-07-12_144651:300,-0.494171,0.0035399999999999997,-0.065582,-0.008805,-0.000246,0.0034409999999999996,-46.369999,2.25,11.0,3a
2019-07-12_144651:320,-0.492645,0.004547,-0.066071,-0.008683,-0.000582,0.003655,-46.369999,2.25,11.0,3a
2019-07-12_144651:340,-0.49316400000000005,0.0030210000000000002,-0.066071,-0.008744,-0.000521,0.003899,-45.68,2.68,10.56,3a
2019-07-12_144651:360,-0.494171,0.0035399999999999997,-0.065063,-0.008561,-0.001498,0.002983,-45.68,2.68,10.56,3a
2019-07-12_144651:380,-0.49365200000000004,0.0025329999999999997,-0.065582,-0.008409,-0.001437,0.0029219999999999997,-45.25,2.68,10.18,3a
2019-07-12_144651:400,-0.495697,0.002014,-0.068115,-0.008012,-0.0015890000000000001,0.003258,-45.25,2.68,10.18,3a
2019-07-12_144651:420,-0.49722299999999997,0.001495,-0.069122,-0.007890000000000001,-0.001315,0.003258,-45.25,2.68,10.18,3a
2019-07-12_144651:440,-0.492126,0.000488,-0.067108,-0.007615,-0.001376,0.002983,-45.68,3.06,11.75,3a
2019-07-12_144651:460,-0.49316400000000005,0.000488,-0.068115,-0.0072180000000000005,-0.001254,0.0028309999999999997,-45.68,3.06,11.75,3a
2019-07-12_144651:480,-0.492126,0.001007,-0.066589,-0.006364,-0.001315,0.0028309999999999997,-46.060001,3.06,10.56,3a
2019-07-12_144651:500,-0.492126,0.001007,-0.068634,-0.005784,-0.001437,0.002495,-46.060001,3.06,10.56,3a
2019-07-12_144651:520,-0.503845,0.000488,-0.064545,-0.005448,-0.000918,0.0030440000000000003,-46.060001,3.06,10.56,3a
2019-07-12_144651:540,-0.492126,0.001495,-0.067596,-0.005326,-0.00043,0.0038380000000000003,-45.25,3.37,10.18,3a
2019-07-12_144651:560,-0.49365200000000004,-0.000488,-0.068115,-0.004411,-0.0011619999999999998,0.003258,-45.25,3.37,10.18,3a
2019-07-12_144651:580,-0.488068,0.000488,-0.070648,-0.00435,-0.0016809999999999998,0.0023120000000000003,-46.060001,3.06,11.37,3a
2019-07-12_144651:600,-0.489075,0.001495,-0.071167,-0.004197,-0.004183,0.0034409999999999996,-46.060001,3.06,11.37,3a
2019-07-12_144651:620,-0.490601,-0.001007,-0.072174,-0.003922,-0.00458,0.0037159999999999997,-46.060001,3.06,11.37,3a
2019-07-12_144651:640,-0.49722299999999997,-0.001007,-0.07016,-0.004014,-0.004519,0.003167,-44.869999,3.06,10.56,3a
2019-07-12_144651:660,-0.49823,-0.000488,-0.07016,-0.003922,-0.002718,0.0023120000000000003,-44.869999,3.06,10.56,3a
2019-07-12_144651:680,-0.49926800000000005,-0.0025329999999999997,-0.072174,-0.004014,-0.002352,0.002373,-44.869999,3.06,10.56,3a
2019-07-12_144651:700,-0.49722299999999997,-0.0025329999999999997,-0.073212,-0.003617,-0.001254,0.001,-45.25,3.06,11.37,3a
2019-07-12_144651:720,-0.498749,-0.001495,-0.071167,-0.003617,-0.000857,0.000634,-45.25,3.06,11.37,3a
2019-07-12_144651:740,-0.49823,0.0,-0.071686,-0.003404,-0.000826,0.0009390000000000001,-45.25,3.37,10.56,3a
2019-07-12_144651:760,-0.49975600000000003,0.000488,-0.07016,-0.003282,-9.4e-05,0.000634,-45.25,3.37,10.56,3a
2019-07-12_144651:780,-0.49722299999999997,0.002014,-0.068634,-0.003404,0.00015,0.000481,-46.060001,2.68,11.75,3a
2019-07-12_144651:800,-0.49365200000000004,0.004059,-0.068634,-0.003739,0.000669,0.0017629999999999998,-46.060001,2.68,11.75,3a
2019-07-12_144651:820,-0.494171,0.0035399999999999997,-0.067108,-0.004075,0.000547,0.001549,-46.060001,2.68,11.75,3a
2019-07-12_144651:840,-0.491638,0.004059,-0.065582,-0.004594,0.000547,0.001213,-45.68,3.37,11.75,3a
2019-07-12_144651:860,-0.49316400000000005,0.006072999999999999,-0.06405599999999999,-0.005204,0.00021099999999999998,0.001396,-45.68,3.37,11.75,3a
2019-07-12_144651:880,-0.49111899999999997,0.005065999999999999,-0.064545,-0.00554,2.8000000000000003e-05,0.0014269999999999999,-45.68,3.37,11.75,3a
2019-07-12_144651:900,-0.49111899999999997,0.005065999999999999,-0.065063,-0.006242,-0.001101,0.0014880000000000002,-46.060001,2.25,11.75,3a
2019-07-12_144651:920,-0.492126,0.0055850000000000006,-0.06405599999999999,-0.006639,-0.001498,0.001549,-46.060001,2.25,11.75,3a
2019-07-12_144651:940,-0.49468999999999996,0.004547,-0.064545,-0.006883,-0.0018030000000000001,0.00161,-45.68,2.68,11.0,3a
2019-07-12_144651:960,-0.496704,0.004059,-0.06149299999999999,-0.006883,-0.0017420000000000003,0.0021899999999999997,-45.68,2.68,11.0,3a
2019-07-12_144651:980,-0.496216,0.0030210000000000002,-0.065582,-0.006883,-0.0015890000000000001,0.002526,-45.68,3.06,11.37,3a
2019-07-12_144652:000,-0.502808,0.004059,-0.06149299999999999,-0.007156999999999999,-0.000582,0.003167,-45.68,3.06,11.37,3a
2019-07-12_144652:020,-0.492645,0.004547,-0.06253099999999999,-0.007279000000000001,-0.000185,0.004113,-45.68,3.06,11.37,3a
2019-07-12_144652:040,-0.49517799999999995,0.000488,-0.065063,-0.006944,-0.000643,0.0037770000000000004,-46.060001,2.68,11.37,3a
2019-07-12_144652:060,-0.48858599999999996,0.001495,-0.066589,-0.007279000000000001,-0.001498,0.0017629999999999998,-46.060001,2.68,11.37,3a
2019-07-12_144652:080,-0.48754899999999995,0.0030210000000000002,-0.065582,-0.007431999999999999,-0.003329,0.002098,-46.369999,2.68,11.75,3a
2019-07-12_144652:100,-0.49468999999999996,0.001007,-0.067108,-0.007279000000000001,-0.004336,0.0037159999999999997,-46.369999,2.68,11.75,3a
2019-07-12_144652:120,-0.49722299999999997,0.001007,-0.065582,-0.007615,-0.003329,0.002983,-46.369999,2.68,11.75,3a
2019-07-12_144652:140,-0.496704,0.001007,-0.065582,-0.007768000000000001,-0.002718,0.002983,-45.68,3.75,11.75,3a
2019-07-12_144652:160,-0.49517799999999995,-0.001007,-0.066071,-0.008012,-0.002078,0.003624,-45.68,3.75,11.75,3a
2019-07-12_144652:180,-0.496704,-0.000488,-0.066589,-0.008012,-0.002078,0.003624,-45.68,3.75,11.75,3a
2019-07-12_144652:200,-0.496216,-0.002014,-0.068634,-0.008225,-0.002016,0.003228,-46.060001,3.06,12.18,3a
2019-07-12_144652:220,-0.496704,-0.0025329999999999997,-0.065582,-0.008164,-0.002139,0.003319,-46.060001,3.06,12.18,3a
2019-07-12_144652:240,-0.496704,-0.0030210000000000002,-0.067596,-0.007768000000000001,-0.001864,0.00277,-45.68,2.68,10.18,3a
2019-07-12_144652:260,-0.49468999999999996,-0.0025329999999999997,-0.066071,-0.007554000000000001,-0.0016809999999999998,0.002251,-45.68,2.68,10.18,3a
2019-07-12_144652:280,-0.494171,-0.004059,-0.067596,-0.006944,-0.0018030000000000001,0.002892,-46.060001,2.68,11.0,3a
2019-07-12_144652:300,-0.491638,-0.004547,-0.066589,-0.0067,-0.0016809999999999998,0.002983,-46.060001,2.68,11.0,3a
2019-07-12_144652:320,-0.49316400000000005,-0.0035399999999999997,-0.066071,-0.006425,-0.001864,0.002098,-46.060001,2.68,11.0,3a
2019-07-12_144652:340,-0.495697,-0.002014,-0.066589,-0.0063030000000000004,-0.00162,0.0019760000000000003,-46.060001,3.37,10.56,3a
2019-07-12_144652:360,-0.492645,-0.001495,-0.064545,-0.0063030000000000004,-0.0015890000000000001,0.002037,-46.060001,3.37,10.56,3a
2019-07-12_144652:380,-0.49316400000000005,-0.0030210000000000002,-0.065063,-0.0063030000000000004,-0.0018030000000000001,0.0019760000000000003,-46.060001,3.75,10.18,3a
2019-07-12_144652:400,-0.49316400000000005,0.0,-0.065582,-0.006425,-0.0027489999999999997,0.001732,-46.060001,3.75,10.18,3a
2019-07-12_144652:420,-0.494171,-0.001495,-0.067596,-0.006181,-0.002932,0.001732,-46.060001,3.75,10.18,3a
2019-07-12_144652:440,-0.49722299999999997,-0.000488,-0.065582,-0.006028,-0.002932,0.0017629999999999998,-46.369999,3.06,11.37,3a
2019-07-12_144652:460,-0.49926800000000005,-0.001495,-0.067108,-0.005845,-0.0024739999999999996,0.001732,-46.369999,3.06,11.37,3a
2019-07-12_144652:480,-0.498749,0.0,-0.06405599999999999,-0.005967,-0.0009789999999999998,0.002892,-45.25,3.37,11.75,3a
2019-07-12_144652:500,-0.489075,0.0,-0.065063,-0.00615,-0.000826,0.003167,-45.25,3.37,11.75,3a
2019-07-12_144652:520,-0.491638,-0.0025329999999999997,-0.07016,-0.006089,-0.0015890000000000001,0.00042,-45.25,3.37,11.75,3a
2019-07-12_144652:540,-0.48754899999999995,0.001495,-0.068634,-0.006425,-0.002261,-0.000129,-45.68,3.37,11.37,3a
2019-07-12_144652:560,-0.48706099999999997,0.001007,-0.068634,-0.006242,-0.004061,0.001732,-45.68,3.37,11.37,3a
2019-07-12_144652:580,-0.495697,-0.001007,-0.069641,-0.006028,-0.004733,0.0035020000000000003,-45.68,3.37,11.37,3a
2019-07-12_144652:600,-0.496704,-0.001007,-0.068634,-0.006242,-0.003542,0.002495,-45.68,2.68,12.18,3a
2019-07-12_144652:620,-0.49823,0.0,-0.068115,-0.006486,-0.0025960000000000002,0.002098,-45.68,2.68,12.18,3a
2019-07-12_144652:640,-0.49468999999999996,-0.001495,-0.071167,-0.0063030000000000004,-0.002078,0.002983,-44.560001,2.25,12.18,3a
2019-07-12_144652:660,-0.494171,-0.001495,-0.07016,-0.006883,-0.002016,0.0029219999999999997,-44.560001,2.25,12.18,3a
2019-07-12_144652:680,-0.495697,-0.0030210000000000002,-0.071686,-0.007095999999999999,-0.002139,0.0030440000000000003,-44.560001,2.25,12.18,3a
2019-07-12_144652:700,-0.496216,-0.004059,-0.068634,-0.006822,-0.0018030000000000001,0.002983,-44.869999,3.75,11.37,3a
2019-07-12_144652:720,-0.495697,-0.004059,-0.071686,-0.006944,-0.002016,0.002251,-44.869999,3.75,11.37,3a
2019-07-12_144652:740,-0.492126,-0.0035399999999999997,-0.072174,-0.0067,-0.002352,0.002098,-46.369999,3.37,11.37,3a
2019-07-12_144652:760,-0.494171,-0.004059,-0.071167,-0.00615,-0.002261,0.003105,-46.369999,3.37,11.37,3a
2019-07-12_144652:780,-0.49722299999999997,-0.0035399999999999997,-0.071167,-0.006181,-0.001955,0.002892,-46.060001,2.68,10.56,3a
2019-07-12_144652:800,-0.496216,-0.0035399999999999997,-0.07016,-0.006242,-0.001101,0.0023120000000000003,-46.060001,2.68,10.56,3a
2019-07-12_144652:820,-0.49823,-0.0025329999999999997,-0.07016,-0.006181,-0.000704,0.002129,-46.060001,2.68,10.56,3a
2019-07-12_144652:840,-0.49468999999999996,-0.0035399999999999997,-0.069641,-0.0063030000000000004,-0.000582,0.002251,-45.68,3.37,9.75,3a
2019-07-12_144652:860,-0.494171,-0.004059,-0.067596,-0.006425,-0.00043,0.0017929999999999999,-45.68,3.37,9.75,3a
2019-07-12_144652:880,-0.494171,-0.004059,-0.067596,-0.006181,-0.000521,0.0016710000000000002,-44.869999,4.56,11.0,3a
2019-07-12_144652:900,-0.492645,-0.0035399999999999997,-0.066071,-0.006028,-0.000643,0.00161,-44.869999,4.56,11.0,3a
2019-07-12_144652:920,-0.494171,-0.0030210000000000002,-0.066071,-0.005815,-0.000704,0.0019760000000000003,-44.869999,4.56,11.0,3a
2019-07-12_144652:940,-0.501282,-0.001007,-0.066071,-0.005723,-0.000857,0.002129,-45.25,3.75,9.37,3a
2019-07-12_144652:960,-0.49468999999999996,-0.002014,-0.066071,-0.006089,-9.4e-05,0.002983,-45.25,3.75,9.37,3a
2019-07-12_144652:980,-0.49517799999999995,-0.006072999999999999,-0.064545,-0.00615,0.00015,0.0034409999999999996,-45.25,3.75,9.37,3a
2019-07-12_144653:000,-0.492645,-0.004059,-0.07016,-0.006242,-0.000643,0.001274,-46.060001,3.75,10.56,3a
2019-07-12_144653:020,-0.48654200000000003,-0.001495,-0.067108,-0.006761,-0.0016809999999999998,0.000145,-46.060001,3.75,10.56,3a
2019-07-12_144653:040,-0.494171,-0.004059,-0.067596,-0.0067,-0.003054,0.002098,-45.68,4.56,11.37,3a
2019-07-12_144653:060,-0.497742,-0.0055850000000000006,-0.06405599999999999,-0.006181,-0.002718,0.002983,-45.68,4.56,11.37,3a
2019-07-12_144653:080,-0.496704,-0.0030210000000000002,-0.066589,-0.006547,-0.0016809999999999998,0.001732,-46.060001,3.75,11.37,3a
2019-07-12_144653:100,-0.494171,-0.004059,-0.069641,-0.0063030000000000004,-0.001101,0.0019149999999999998,-46.060001,3.75,11.37,3a
2019-07-12_144653:120,-0.494171,-0.005065999999999999,-0.066589,-0.006028,-0.000918,0.002526,-46.060001,3.75,11.37,3a
2019-07-12_144653:140,-0.49517799999999995,-0.004547,-0.068115,-0.0065769999999999995,-0.0011619999999999998,0.0019149999999999998,-45.68,3.75,10.56,3a
2019-07-12_144653:160,-0.49365200000000004,-0.0055850000000000006,-0.064545,-0.006486,-0.001254,0.0017929999999999999,-45.68,3.75,10.56,3a
2019-07-12_144653:180,-0.49468999999999996,-0.0055850000000000006,-0.067596,-0.006364,-0.0015890000000000001,0.0016710000000000002,-45.68,3.75,10.56,3a
2019-07-12_144653:200,-0.492126,-0.004059,-0.068115,-0.00615,-0.0018030000000000001,0.001,-45.25,3.37,9.75,3a
2019-07-12_144653:220,-0.49316400000000005,-0.0035399999999999997,-0.069122,-0.005845,-0.002322,0.001274,-45.25,3.37,9.75,3a
2019-07-12_144653:240,-0.49365200000000004,-0.004547,-0.068115,-0.0054789999999999995,-0.002322,0.0019760000000000003,-45.68,3.75,10.56,3a
2019-07-12_144653:260,-0.49365200000000004,-0.0030210000000000002,-0.065582,-0.005448,-0.001925,0.001549,-45.68,3.75,10.56,3a
2019-07-12_144653:280,-0.49517799999999995,-0.002014,-0.067596,-0.0056619999999999995,-0.0018030000000000001,0.001549,-46.369999,4.56,10.18,3a
2019-07-12_144653:300,-0.49316400000000005,-0.002014,-0.067108,-0.005723,-0.0017420000000000003,0.001396,-46.369999,4.56,10.18,3a
2019-07-12_144653:320,-0.49365200000000004,-0.0030210000000000002,-0.067108,-0.006028,-0.0017420000000000003,0.0009390000000000001,-46.369999,4.56,10.18,3a
2019-07-12_144653:340,-0.494171,-0.001495,-0.069122,-0.005967,-0.001955,0.0009390000000000001,-45.25,3.37,11.0,3a
2019-07-12_144653:360,-0.49365200000000004,-0.001495,-0.067596,-0.005784,-0.002016,0.001091,-45.25,3.37,11.0,3a
2019-07-12_144653:380,-0.492645,-0.001007,-0.068115,-0.005784,-0.002078,0.0014269999999999999,-45.25,3.37,11.0,3a
2019-07-12_144653:400,-0.495697,-0.002014,-0.070648,-0.005265,-0.0022,0.0016710000000000002,-45.68,4.18,10.18,3a
2019-07-12_144653:420,-0.500793,-0.000488,-0.065582,-0.005326,-0.0017420000000000003,0.0019149999999999998,-45.68,4.18,10.18,3a
2019-07-12_144653:440,-0.494171,-0.001495,-0.068115,-0.00554,-0.001315,0.0029219999999999997,-44.869999,3.06,10.18,3a
2019-07-12_144653:460,-0.496704,-0.0055850000000000006,-0.066071,-0.005723,-0.000643,0.0035020000000000003,-44.869999,3.06,10.18,3a
2019-07-12_144653:480,-0.492126,-0.0025329999999999997,-0.071167,-0.005723,-0.001254,0.0009390000000000001,-44.869999,3.06,10.18,3a
2019-07-12_144653:500,-0.486023,0.0,-0.069641,-0.006364,-0.002322,-3.8e-05,-45.68,3.75,11.37,3a
2019-07-12_144653:520,-0.494171,-0.0025329999999999997,-0.068634,-0.005967,-0.003207,0.002495,-45.68,3.75,11.37,3a
2019-07-12_144653:540,-0.49823,-0.0025329999999999997,-0.068115,-0.005601,-0.0027489999999999997,0.003228,-45.25,3.06,9.75,3a
2019-07-12_144653:560,-0.497742,-0.001495,-0.068115,-0.005906000000000001,-0.0016809999999999998,0.00161,-45.25,3.06,9.75,3a
2019-07-12_144653:580,-0.494171,0.0,-0.069641,-0.005906000000000001,-0.000826,0.002129,-45.25,3.06,9.75,3a
2019-07-12_144653:600,-0.49468999999999996,-0.0030210000000000002,-0.068115,-0.005967,-0.0007650000000000001,0.0029219999999999997,-46.060001,3.75,11.37,3a
2019-07-12_144653:620,-0.495697,-0.002014,-0.07016,-0.006547,-0.001101,0.002129,-46.060001,3.75,11.37,3a
2019-07-12_144653:640,-0.492645,-0.0035399999999999997,-0.066589,-0.006486,-0.000918,0.002251,-46.060001,3.06,9.75,3a
2019-07-12_144653:660,-0.49365200000000004,-0.004059,-0.069122,-0.006364,-0.001498,0.0017929999999999999,-46.060001,3.06,9.75,3a
2019-07-12_144653:680,-0.491638,-0.004059,-0.069122,-0.006242,-0.001864,0.001549,-46.060001,3.06,9.75,3a
2019-07-12_144653:700,-0.49365200000000004,-0.004547,-0.067596,-0.005784,-0.001864,0.002587,-45.25,4.56,12.18,3a
2019-07-12_144653:720,-0.496216,-0.004547,-0.069122,-0.005601,-0.001559,0.002709,-45.25,4.56,12.18,3a
2019-07-12_144653:740,-0.495697,-0.0025329999999999997,-0.066071,-0.005784,-0.001101,0.001854,-45.25,4.18,10.56,3a
2019-07-12_144653:760,-0.49517799999999995,-0.001007,-0.067108,-0.00615,-0.0009789999999999998,0.0019760000000000003,-45.25,4.18,10.56,3a
2019-07-12_144653:780,-0.49365200000000004,-0.0030210000000000002,-0.068634,-0.0065769999999999995,-0.000826,0.002098,-45.25,4.18,10.56,3a
2019-07-12_144653:800,-0.49517799999999995,-0.0035399999999999997,-0.068115,-0.006822,-0.001101,0.0017629999999999998,-46.060001,3.37,10.18,3a
2019-07-12_144653:820,-0.494171,-0.004059,-0.068115,-0.006973999999999999,-0.001315,0.00161,-46.060001,3.37,10.18,3a
2019-07-12_144653:840,-0.49517799999999995,-0.005065999999999999,-0.067596,-0.006639,-0.0012230000000000001,0.0014880000000000002,-45.25,4.18,11.37,3a
2019-07-12_144653:860,-0.49365200000000004,-0.005065999999999999,-0.06405599999999999,-0.006486,-0.0009789999999999998,0.001549,-45.25,4.18,11.37,3a
2019-07-12_144653:880,-0.492645,-0.004547,-0.065063,-0.00615,-0.000826,0.0017929999999999999,-45.25,4.18,11.37,3a
2019-07-12_144653:900,-0.49468999999999996,-0.004059,-0.066589,-0.005723,-0.0010400000000000001,0.001854,-46.369999,3.37,11.0,3a
2019-07-12_144653:920,-0.49975600000000003,-0.002014,-0.062012,-0.005845,-0.000704,0.00277,-46.369999,3.37,11.0,3a
2019-07-12_144653:940,-0.48706099999999997,-0.004059,-0.063538,-0.005815,-0.000521,0.003319,-45.68,3.75,11.0,3a
2019-07-12_144653:960,-0.495697,-0.006072999999999999,-0.066071,-0.005845,-0.001254,0.001,-45.68,3.75,11.0,3a
2019-07-12_144653:980,-0.488068,-0.001495,-0.067108,-0.006486,-0.001864,-0.00037400000000000004,-45.68,3.75,11.0,3a
2019-07-12_144654:000,-0.48553500000000005,-0.000488,-0.067596,-0.006364,-0.003146,0.002251,-45.25,3.75,10.56,3a
2019-07-12_144654:020,-0.49517799999999995,-0.0055850000000000006,-0.07016,-0.006089,-0.003664,0.003563,-45.25,3.75,10.56,3a
2019-07-12_144654:040,-0.49517799999999995,-0.0055850000000000006,-0.067108,-0.006242,-0.003207,0.001854,-45.25,3.75,11.0,3a
2019-07-12_144654:060,-0.49823,-0.0030210000000000002,-0.066589,-0.006364,-0.002078,0.0019760000000000003,-45.25,3.75,11.0,3a
2019-07-12_144654:080,-0.49517799999999995,-0.0030210000000000002,-0.066589,-0.006181,-0.001498,0.002983,-45.25,3.75,11.0,3a
2019-07-12_144654:100,-0.49823,-0.0055850000000000006,-0.071167,-0.007035,-0.001498,0.002251,-46.060001,3.06,11.37,3a
2019-07-12_144654:120,-0.49823,-0.0055850000000000006,-0.072174,-0.006973999999999999,-0.000857,0.001732,-46.060001,3.06,11.37,3a
2019-07-12_144654:140,-0.494171,-0.0055850000000000006,-0.07016,-0.0067,-0.0011619999999999998,0.002098,-45.68,4.87,10.18,3a
2019-07-12_144654:160,-0.49722299999999997,-0.0055850000000000006,-0.071167,-0.006364,-0.000857,0.001335,-45.68,4.87,10.18,3a
2019-07-12_144654:180,-0.492126,-0.004547,-0.065582,-0.006089,-0.0007650000000000001,0.001213,-45.68,4.87,10.18,3a
2019-07-12_144654:200,-0.49365200000000004,-0.005065999999999999,-0.069641,-0.005723,-0.0010400000000000001,0.0017629999999999998,-44.869999,3.75,11.37,3a
2019-07-12_144654:220,-0.495697,-0.004059,-0.068634,-0.005723,-0.00045999999999999996,0.0017629999999999998,-44.869999,3.75,11.37,3a
2019-07-12_144654:240,-0.49316400000000005,-0.002014,-0.067596,-0.005906000000000001,-0.00036899999999999997,0.00161,-46.060001,4.18,11.0,3a
2019-07-12_144654:260,-0.49316400000000005,-0.001495,-0.065582,-0.006547,-0.000521,0.0017629999999999998,-46.060001,4.18,11.0,3a
2019-07-12_144654:280,-0.49316400000000005,-0.0030210000000000002,-0.067596,-0.006973999999999999,-0.00045999999999999996,0.0014269999999999999,-46.060001,4.18,11.0,3a
2019-07-12_144654:300,-0.494171,-0.004059,-0.067596,-0.0072180000000000005,-0.000826,0.001,-45.25,3.75,11.37,3a
2019-07-12_144654:320,-0.49468999999999996,-0.0035399999999999997,-0.065063,-0.007035,-0.000857,0.001213,-45.25,3.75,11.37,3a
2019-07-12_144654:340,-0.496704,-0.005065999999999999,-0.065582,-0.006547,-0.00045999999999999996,0.001549,-46.060001,3.75,11.75,3a
2019-07-12_144654:360,-0.494171,-0.004059,-0.064545,-0.006242,-0.00036899999999999997,0.0014880000000000002,-46.060001,3.75,11.75,3a
2019-07-12_144654:380,-0.492645,-0.0035399999999999997,-0.065063,-0.0056619999999999995,-3.3e-05,0.001732,-46.060001,3.75,11.75,3a
2019-07-12_144654:400,-0.49468999999999996,-0.0030210000000000002,-0.065582,-0.005204,-0.00043,0.002037,-45.68,4.18,10.18,3a
2019-07-12_144654:420,-0.49975600000000003,-0.0025329999999999997,-0.063019,-0.005723,-0.00045999999999999996,0.002495,-45.68,4.18,10.18,3a
2019-07-12_144654:440,-0.48706099999999997,-0.0030210000000000002,-0.06149299999999999,-0.005784,-9.4e-05,0.0030440000000000003,-45.68,4.18,11.75,3a
2019-07-12_144654:460,-0.498749,-0.004547,-0.064545,-0.005784,-0.00045999999999999996,0.001549,-45.68,4.18,11.75,3a
2019-07-12_144654:480,-0.490112,-0.000488,-0.065063,-0.006639,-0.000704,-0.000587,-45.68,4.18,11.75,3a
2019-07-12_144654:500,-0.48654200000000003,0.0,-0.065582,-0.006547,-0.0016809999999999998,0.001335,-45.25,4.18,11.0,3a
2019-07-12_144654:520,-0.49722299999999997,-0.004059,-0.067108,-0.006181,-0.0024739999999999996,0.003258,-45.25,4.18,11.0,3a
2019-07-12_144654:540,-0.497742,-0.004547,-0.065063,-0.006486,-0.001925,0.002098,-46.060001,4.87,10.18,3a
2019-07-12_144654:560,-0.49722299999999997,-0.002014,-0.06405599999999999,-0.006486,-0.001315,0.001335,-46.060001,4.87,10.18,3a
2019-07-12_144654:580,-0.49468999999999996,-0.0025329999999999997,-0.065063,-0.006089,-0.000307,0.002434,-46.060001,4.87,10.18,3a
2019-07-12_144654:600,-0.496704,-0.0030210000000000002,-0.06405599999999999,-0.006089,2.8000000000000003e-05,0.002129,-44.18,4.18,10.56,3a
2019-07-12_144654:620,-0.495697,-0.0025329999999999997,-0.06405599999999999,-0.0063030000000000004,-0.000124,0.0016710000000000002,-44.18,4.18,10.56,3a
2019-07-12_144654:640,-0.495697,-0.0035399999999999997,-0.06405599999999999,-0.00615,-0.00045999999999999996,0.0019760000000000003,-45.68,3.75,11.37,3a
2019-07-12_144654:660,-0.494171,-0.0030210000000000002,-0.06405599999999999,-0.006089,-0.00036899999999999997,0.0017929999999999999,-45.68,3.75,11.37,3a
2019-07-12_144654:680,-0.49468999999999996,-0.0025329999999999997,-0.063538,-0.00615,-0.00043,0.001732,-45.68,3.75,11.37,3a
2019-07-12_144654:700,-0.497742,-0.0035399999999999997,-0.063538,-0.006028,-0.00036899999999999997,0.0019760000000000003,-46.060001,3.75,10.56,3a
2019-07-12_144654:720,-0.496704,-0.000488,-0.062012,-0.006364,-0.000246,0.0017629999999999998,-46.060001,3.75,10.56,3a
2019-07-12_144654:740,-0.496704,-0.002014,-0.06149299999999999,-0.0065769999999999995,0.000303,0.001549,-45.25,4.87,11.0,3a
2019-07-12_144654:760,-0.494171,-0.0030210000000000002,-0.05996699999999999,-0.0067,0.00048600000000000005,0.001091,-45.25,4.87,11.0,3a
2019-07-12_144654:780,-0.494171,-0.002014,-0.060486,-0.0065769999999999995,0.0007610000000000001,0.00103,-45.25,4.87,11.0,3a
2019-07-12_144654:800,-0.49365200000000004,-0.001007,-0.059479,-0.0065769999999999995,0.000608,0.001152,-45.25,3.75,11.37,3a
2019-07-12_144654:820,-0.494171,-0.0025329999999999997,-0.059479,-0.0063030000000000004,8.9e-05,0.0014880000000000002,-45.25,3.75,11.37,3a
2019-07-12_144654:840,-0.49365200000000004,-0.000488,-0.05996699999999999,-0.006242,-0.000246,0.0017929999999999999,-45.25,4.18,12.18,3a
2019-07-12_144654:860,-0.495697,-0.001007,-0.057434000000000006,-0.005967,-0.00045999999999999996,0.001732,-45.25,4.18,12.18,3a
2019-07-12_144654:880,-0.49365200000000004,-0.000488,-0.058441,-0.005967,-0.000521,0.001732,-45.25,4.18,12.18,3a
2019-07-12_144654:900,-0.495697,0.0,-0.057434000000000006,-0.005967,-0.00036899999999999997,0.002129,-45.25,4.18,11.75,3a
2019-07-12_144654:920,-0.49926800000000005,-0.001007,-0.056915,-0.006089,-0.000307,0.002526,-45.25,4.18,11.75,3a
2019-07-12_144654:940,-0.49722299999999997,-0.002014,-0.057434000000000006,-0.006425,-9.4e-05,0.003167,-44.869999,4.18,11.37,3a
2019-07-12_144654:960,-0.49517799999999995,-0.004059,-0.053375,-0.006181,-0.000124,0.003624,-44.869999,4.18,11.37,3a
2019-07-12_144654:980,-0.496704,-0.0030210000000000002,-0.060486,-0.006242,-0.000582,0.0019149999999999998,-44.869999,4.18,11.37,3a
2019-07-12_144655:000,-0.489075,-0.002014,-0.056915,-0.0067,-0.0011619999999999998,0.001213,-45.68,4.56,11.37,3a
2019-07-12_144655:020,-0.490112,-0.0030210000000000002,-0.05996699999999999,-0.006822,-0.0022,0.003167,-45.68,4.56,11.37,3a
2019-07-12_144655:040,-0.49517799999999995,-0.005065999999999999,-0.057953,-0.006547,-0.0024129999999999998,0.003624,-45.25,3.37,10.18,3a
2019-07-12_144655:060,-0.49722299999999997,-0.004547,-0.057434000000000006,-0.006761,-0.002078,0.002892,-45.25,3.37,10.18,3a
2019-07-12_144655:080,-0.494171,-0.005065999999999999,-0.057953,-0.0067,-0.00162,0.003105,-45.25,3.37,10.18,3a
2019-07-12_144655:100,-0.49365200000000004,-0.005065999999999999,-0.058441,-0.006639,-0.001315,0.0033799999999999998,-45.25,3.75,11.0,3a
2019-07-12_144655:120,-0.49316400000000005,-0.0055850000000000006,-0.057953,-0.0067,-0.0015890000000000001,0.0030440000000000003,-45.25,3.75,11.0,3a
2019-07-12_144655:140,-0.49365200000000004,-0.006592,-0.056915,-0.006547,-0.001864,0.002648,-46.060001,4.18,12.56,3a
2019-07-12_144655:160,-0.494171,-0.008118,-0.059479,-0.006364,-0.002322,0.00277,-46.060001,4.18,12.56,3a
2019-07-12_144655:180,-0.494171,-0.007111,-0.059479,-0.006181,-0.002718,0.002495,-46.060001,4.18,12.56,3a
2019-07-12_144655:200,-0.495697,-0.0055850000000000006,-0.059479,-0.006028,-0.0028710000000000003,0.002373,-45.25,4.87,11.37,3a
2019-07-12_144655:220,-0.497742,-0.005065999999999999,-0.058441,-0.005784,-0.0027489999999999997,0.0028309999999999997,-45.25,4.87,11.37,3a
2019-07-12_144655:240,-0.498749,-0.004059,-0.058960000000000005,-0.005906000000000001,-0.0017420000000000003,0.003319,-45.68,4.56,11.75,3a
2019-07-12_144655:260,-0.495697,-0.0030210000000000002,-0.054901,-0.006364,-0.0011619999999999998,0.003655,-45.68,4.56,11.75,3a
2019-07-12_144655:280,-0.492645,-0.0055850000000000006,-0.057434000000000006,-0.007035,-0.001437,0.0037770000000000004,-45.68,4.56,11.75,3a
2019-07-12_144655:300,-0.490112,-0.006592,-0.058960000000000005,-0.0076760000000000005,-0.002078,0.003655,-45.68,4.56,11.0,3a
2019-07-12_144655:320,-0.492645,-0.008636,-0.057953,-0.007829000000000001,-0.003054,0.003624,-45.68,4.56,11.0,3a
2019-07-12_144655:340,-0.49365200000000004,-0.010162000000000001,-0.057953,-0.0076760000000000005,-0.003481,0.003563,-46.060001,3.75,12.18,3a
2019-07-12_144655:360,-0.49468999999999996,-0.011687999999999999,-0.058960000000000005,-0.007156999999999999,-0.003939,0.0033799999999999998,-46.060001,3.75,12.18,3a
2019-07-12_144655:380,-0.495697,-0.012177,-0.058441,-0.0065769999999999995,-0.003848,0.003258,-46.060001,3.75,12.18,3a
2019-07-12_144655:400,-0.494171,-0.013213999999999998,-0.058960000000000005,-0.006089,-0.0037869999999999996,0.003258,-45.25,5.25,11.0,3a
2019-07-12_144655:420,-0.496704,-0.009644,-0.061005,-0.00554,-0.004,0.003258,-45.25,5.25,11.0,3a
2019-07-12_144655:440,-0.500275,-0.009644,-0.058441,-0.005386999999999999,-0.003329,0.003167,-46.060001,4.87,11.37,3a
2019-07-12_144655:460,-0.489075,-0.009644,-0.058441,-0.005448,-0.00281,0.003258,-46.060001,4.87,11.37,3a
2019-07-12_144655:480,-0.49722299999999997,-0.011687999999999999,-0.06405599999999999,-0.005448,-0.0036030000000000003,0.0028309999999999997,-46.060001,4.87,11.37,3a
2019-07-12_144655:500,-0.49111899999999997,-0.009644,-0.065582,-0.005784,-0.003848,0.001213,-45.25,5.25,11.37,3a
2019-07-12_144655:520,-0.488068,-0.009644,-0.065063,-0.00615,-0.005068,0.001152,-45.25,5.25,11.37,3a
2019-07-12_144655:540,-0.490601,-0.011169,-0.067596,-0.005906000000000001,-0.005984000000000001,0.0021899999999999997,-45.25,4.87,12.18,3a
2019-07-12_144655:560,-0.497742,-0.012177,-0.06405599999999999,-0.005815,-0.0057090000000000005,0.0019149999999999998,-45.25,4.87,12.18,3a
2019-07-12_144655:580,-0.496704,-0.009644,-0.065063,-0.005784,-0.00461,0.0014880000000000002,-45.25,4.87,12.18,3a
2019-07-12_144655:600,-0.495697,-0.009644,-0.066589,-0.0054789999999999995,-0.003939,0.0023120000000000003,-46.060001,5.25,11.75,3a
2019-07-12_144655:620,-0.496216,-0.010651,-0.066589,-0.005448,-0.00339,0.002526,-46.060001,5.25,11.75,3a
2019-07-12_144655:640,-0.49365200000000004,-0.010162000000000001,-0.068115,-0.005448,-0.003268,0.0019149999999999998,-46.060001,4.87,11.0,3a
2019-07-12_144655:660,-0.49365200000000004,-0.010651,-0.067108,-0.005326,-0.003542,0.0019760000000000003,-46.060001,4.87,11.0,3a
2019-07-12_144655:680,-0.49517799999999995,-0.010651,-0.07016,-0.005326,-0.003664,0.002129,-46.060001,4.87,11.0,3a
2019-07-12_144655:700,-0.496704,-0.011169,-0.068634,-0.005204,-0.0034509999999999996,0.001854,-45.68,4.18,11.75,3a
2019-07-12_144655:720,-0.496216,-0.011687999999999999,-0.069641,-0.005143,-0.0034509999999999996,0.0019760000000000003,-45.68,4.18,11.75,3a
2019-07-12_144655:740,-0.49468999999999996,-0.010651,-0.070648,-0.004746,-0.0028710000000000003,0.002434,-44.869999,4.87,11.75,3a
2019-07-12_144655:760,-0.496704,-0.010162000000000001,-0.067596,-0.004991,-0.002261,0.002129,-44.869999,4.87,11.75,3a
2019-07-12_144655:780,-0.49365200000000004,-0.010651,-0.067108,-0.005052,-0.00162,0.0017929999999999999,-44.869999,4.87,11.75,3a
2019-07-12_144655:800,-0.49316400000000005,-0.010162000000000001,-0.068115,-0.005143,-0.001498,0.001854,-45.25,5.25,11.37,3a
2019-07-12_144655:820,-0.492126,-0.010651,-0.068115,-0.005386999999999999,-0.001864,0.0014880000000000002,-45.25,5.25,11.37,3a
2019-07-12_144655:840,-0.49365200000000004,-0.011169,-0.067596,-0.005386999999999999,-0.002139,0.001335,-46.060001,4.87,10.56,3a
2019-07-12_144655:860,-0.49365200000000004,-0.010651,-0.066589,-0.005082,-0.0022,0.001213,-46.060001,4.87,10.56,3a
2019-07-12_144655:880,-0.49316400000000005,-0.009644,-0.067108,-0.005082,-0.0022,0.0009390000000000001,-46.060001,4.87,10.56,3a
2019-07-12_144655:900,-0.49365200000000004,-0.009125,-0.065582,-0.004869,-0.0022,0.000817,-45.25,4.56,9.75,3a
2019-07-12_144655:920,-0.495697,-0.009644,-0.067596,-0.004807,-0.002352,0.00103,-45.25,4.56,9.75,3a
2019-07-12_144655:940,-0.501282,-0.007111,-0.065582,-0.004869,-0.001955,0.001152,-45.68,4.56,11.0,3a
2019-07-12_144655:960,-0.492126,-0.006592,-0.065063,-0.005448,-0.001559,0.0009390000000000001,-45.68,4.56,11.0,3a
2019-07-12_144655:980,-0.49468999999999996,-0.009644,-0.066071,-0.005784,-0.001437,0.00103,-45.68,4.56,11.0,3a
2019-07-12_144656:000,-0.489594,-0.008118,-0.069122,-0.005906000000000001,-0.001955,-0.00043499999999999995,-45.68,3.75,10.56,3a
2019-07-12_144656:020,-0.484009,-0.009125,-0.067596,-0.00615,-0.00339,-0.001106,-45.68,3.75,10.56,3a
2019-07-12_144656:040,-0.48858599999999996,-0.010162000000000001,-0.069641,-0.0056619999999999995,-0.00458,0.00042,-46.060001,4.87,10.18,3a
2019-07-12_144656:060,-0.49365200000000004,-0.010162000000000001,-0.071167,-0.004685,-0.0049770000000000005,0.000878,-46.060001,4.87,10.18,3a
2019-07-12_144656:080,-0.49517799999999995,-0.009125,-0.071167,-0.004197,-0.004458,-3.8e-05,-46.060001,4.87,10.18,3a
2019-07-12_144656:100,-0.494171,-0.0055850000000000006,-0.068115,-0.0036780000000000003,-0.003664,0.000206,-46.060001,3.75,11.37,3a
2019-07-12_144656:120,-0.496704,-0.005065999999999999,-0.071686,-0.003404,-0.0028710000000000003,0.000878,-46.060001,3.75,11.37,3a
2019-07-12_144656:140,-0.491638,-0.0035399999999999997,-0.071167,-0.0035259999999999996,-0.0028710000000000003,0.00042,-45.25,3.75,11.37,3a
2019-07-12_144656:160,-0.491638,-0.0025329999999999997,-0.069641,-0.003861,-0.003146,0.000359,-45.25,3.75,11.37,3a
2019-07-12_144656:180,-0.492645,-0.0030210000000000002,-0.072174,-0.003953,-0.003878,0.000695,-45.25,3.75,11.37,3a
2019-07-12_144656:200,-0.491638,-0.0025329999999999997,-0.072174,-0.004319,-0.004275,0.000634,-46.369999,3.75,11.0,3a
2019-07-12_144656:220,-0.49365200000000004,-0.001495,-0.0737,-0.004411,-0.004458,0.00042,-46.369999,3.75,11.0,3a
2019-07-12_144656:240,-0.494171,-0.002014,-0.07421900000000001,-0.004533,-0.004275,0.000695,-45.25,4.56,9.75,3a
2019-07-12_144656:260,-0.49468999999999996,-0.002014,-0.073212,-0.004807,-0.004275,0.0016710000000000002,-45.25,4.56,9.75,3a
2019-07-12_144656:280,-0.495697,-0.0035399999999999997,-0.074738,-0.0049299999999999995,-0.004183,0.002251,-45.25,4.56,9.75,3a
2019-07-12_144656:300,-0.49316400000000005,-0.004059,-0.077271,-0.004991,-0.004122,0.002495,-46.060001,4.18,10.56,3a
2019-07-12_144656:320,-0.49468999999999996,-0.005065999999999999,-0.07775900000000001,-0.005143,-0.004122,0.002251,-46.060001,4.18,10.56,3a
2019-07-12_144656:340,-0.494171,-0.006592,-0.07775900000000001,-0.005204,-0.0042439999999999995,0.002129,-46.060001,4.87,10.18,3a
2019-07-12_144656:360,-0.494171,-0.007111,-0.077271,-0.005143,-0.0036030000000000003,0.002373,-46.060001,4.87,10.18,3a
2019-07-12_144656:380,-0.490601,-0.007599,-0.07775900000000001,-0.005143,-0.0034509999999999996,0.002098,-46.060001,4.87,10.18,3a
2019-07-12_144656:400,-0.48858599999999996,-0.007111,-0.078278,-0.005082,-0.003329,0.001732,-46.369999,4.56,10.18,3a
2019-07-12_144656:420,-0.48858599999999996,-0.006592,-0.07928500000000001,-0.0049299999999999995,-0.003268,0.001335,-46.369999,4.56,10.18,3a
2019-07-12_144656:440,-0.492126,-0.006592,-0.078796,-0.004654999999999999,-0.0034509999999999996,0.000817,-46.060001,5.25,9.37,3a
2019-07-12_144656:460,-0.48858599999999996,-0.0055850000000000006,-0.080322,-0.005082,-0.003085,0.001335,-46.060001,5.25,9.37,3a
2019-07-12_144656:480,-0.48706099999999997,-0.007111,-0.077271,-0.004869,-0.003146,0.002251,-46.060001,5.25,9.37,3a
2019-07-12_144656:500,-0.491638,-0.006072999999999999,-0.083374,-0.004594,-0.0037869999999999996,0.00042,-45.68,3.75,11.0,3a
2019-07-12_144656:520,-0.491638,-0.0025329999999999997,-0.082336,-0.004869,-0.004,-0.00132,-45.68,3.75,11.0,3a
2019-07-12_144656:540,-0.496216,-0.004059,-0.086426,-0.0049299999999999995,-0.00461,0.000298,-45.68,4.18,11.0,3a
2019-07-12_144656:560,-0.49722299999999997,-0.0055850000000000006,-0.084381,-0.004746,-0.004,0.0009390000000000001,-45.68,4.18,11.0,3a
2019-07-12_144656:580,-0.49722299999999997,-0.004059,-0.083374,-0.005143,-0.0028710000000000003,-9.9e-05,-45.68,4.18,11.0,3a
2019-07-12_144656:600,-0.49517799999999995,-0.004547,-0.083374,-0.005052,-0.001559,0.000817,-46.060001,4.18,9.75,3a
2019-07-12_144656:620,-0.494171,-0.008636,-0.082855,-0.004533,-0.0009789999999999998,0.001732,-46.060001,4.18,9.75,3a
2019-07-12_144656:640,-0.495697,-0.008118,-0.0849,-0.00435,-0.0011619999999999998,0.001091,-45.25,4.18,10.18,3a
2019-07-12_144656:660,-0.492645,-0.007111,-0.081848,-0.003922,-0.001437,0.00042,-45.25,4.18,10.18,3a
2019-07-12_144656:680,-0.492126,-0.006072999999999999,-0.082855,-0.00316,-0.002139,0.00103,-45.25,4.18,10.18,3a
2019-07-12_144656:700,-0.492645,-0.0055850000000000006,-0.082336,-0.002793,-0.002078,0.001,-45.68,4.18,10.56,3a
2019-07-12_144656:720,-0.48858599999999996,-0.0030210000000000002,-0.08081100000000001,-0.002427,-0.001955,0.000542,-45.68,4.18,10.56,3a
2019-07-12_144656:740,-0.48553500000000005,0.001007,-0.081329,-0.002732,-0.001925,0.000695,-46.369999,3.75,9.37,3a
2019-07-12_144656:760,-0.48706099999999997,0.001495,-0.085388,-0.0034649999999999998,-0.002322,0.001,-46.369999,3.75,9.37,3a
2019-07-12_144656:780,-0.489594,0.004059,-0.083374,-0.004807,-0.0022,0.0009390000000000001,-46.369999,3.75,9.37,3a
2019-07-12_144656:800,-0.48754899999999995,0.006072999999999999,-0.0849,-0.006028,-0.0022,0.000695,-45.68,4.56,10.18,3a
2019-07-12_144656:820,-0.48858599999999996,0.004547,-0.084381,-0.007829000000000001,-0.002261,0.001335,-45.68,4.56,10.18,3a
2019-07-12_144656:840,-0.488068,0.0035399999999999997,-0.087952,-0.009415999999999999,-0.0024739999999999996,0.002129,-46.060001,3.06,10.18,3a
2019-07-12_144656:860,-0.492645,0.0,-0.08743300000000001,-0.011003,-0.0025960000000000002,0.0029219999999999997,-46.060001,3.06,10.18,3a
2019-07-12_144656:880,-0.496216,-0.000488,-0.08743300000000001,-0.011949,-0.0024129999999999998,0.003228,-46.060001,3.06,10.18,3a
2019-07-12_144656:900,-0.503326,-0.004059,-0.084381,-0.012467,-0.001559,0.003624,-46.75,3.75,9.75,3a
2019-07-12_144656:920,-0.5058590000000001,-0.006592,-0.084381,-0.012528000000000001,-9.4e-05,0.00457,-46.75,3.75,9.75,3a
2019-07-12_144656:940,-0.50943,-0.009644,-0.079803,-0.011949,0.001615,0.004967,-46.060001,3.37,9.37,3a
2019-07-12_144656:960,-0.507904,-0.013213999999999998,-0.075745,-0.011857,0.0034159999999999998,0.006431999999999999,-46.060001,3.37,9.37,3a
2019-07-12_144656:980,-0.503326,-0.016753999999999998,-0.0737,-0.010362,0.0052770000000000004,0.007225,-46.060001,3.37,9.37,3a
2019-07-12_144657:000,-0.497742,-0.017273,-0.075745,-0.009477,0.006132,0.005181,-45.25,4.18,10.18,3a
2019-07-12_144657:020,-0.485016,-0.014221000000000001,-0.071167,-0.008164,0.0064670000000000005,0.003655,-45.25,4.18,10.18,3a
2019-07-12_144657:040,-0.48095699999999997,-0.015228,-0.071686,-0.005845,0.004942,0.005242,-46.369999,3.75,10.56,3a
2019-07-12_144657:060,-0.48349,-0.013702,-0.065582,-0.004258,0.0034770000000000005,0.004418,-46.369999,3.75,10.56,3a
2019-07-12_144657:080,-0.486023,-0.012177,-0.065063,-0.003068,0.002561,0.0029219999999999997,-46.369999,3.75,10.56,3a
2019-07-12_144657:100,-0.48754899999999995,-0.007599,-0.063538,-0.002091,0.002073,0.0023120000000000003,-45.68,4.18,11.37,3a
2019-07-12_144657:120,-0.488068,-0.004547,-0.063538,-0.002,0.000364,0.001549,-45.68,4.18,11.37,3a
2019-07-12_144657:140,-0.486023,0.0,-0.067596,-0.0026100000000000003,-0.001315,0.001274,-45.25,4.18,11.0,3a
2019-07-12_144657:160,-0.484009,0.001007,-0.065063,-0.004014,-0.0028710000000000003,0.001732,-45.25,4.18,11.0,3a
2019-07-12_144657:180,-0.485016,0.0025329999999999997,-0.071686,-0.006089,-0.004336,0.0023120000000000003,-45.25,4.18,11.0,3a
2019-07-12_144657:200,-0.490112,0.004547,-0.07016,-0.008286,-0.004915999999999999,0.0030440000000000003,-45.68,4.56,11.0,3a
2019-07-12_144657:220,-0.49111899999999997,0.0055850000000000006,-0.071167,-0.011155,-0.0049770000000000005,0.0038380000000000003,-45.68,4.56,11.0,3a
2019-07-12_144657:240,-0.492126,0.002014,-0.074738,-0.013932,-0.005251,0.004845,-46.369999,4.18,10.56,3a
2019-07-12_144657:260,-0.496216,-0.001495,-0.075745,-0.016374,-0.005251,0.005974,-46.369999,4.18,10.56,3a
2019-07-12_144657:280,-0.506378,-0.009125,-0.074738,-0.018052000000000002,-0.004275,0.0066760000000000005,-46.369999,4.18,10.56,3a
2019-07-12_144657:300,-0.511444,-0.014221000000000001,-0.077271,-0.01909,-0.003268,0.007286,-45.68,4.87,10.18,3a
2019-07-12_144657:320,-0.505371,-0.022858,-0.075745,-0.018785,-0.002352,0.007836,-45.68,4.87,10.18,3a
2019-07-12_144657:340,-0.49975600000000003,-0.026427999999999997,-0.074738,-0.017594,-0.0015890000000000001,0.007164,-46.75,4.87,10.18,3a
2019-07-12_144657:360,-0.49111899999999997,-0.032532,-0.075226,-0.015794,-0.001376,0.005974,-46.75,4.87,10.18,3a
2019-07-12_144657:380,-0.486023,-0.034058,-0.075745,-0.013016999999999999,-0.001101,0.004784,-46.75,4.87,10.18,3a
2019-07-12_144657:400,-0.48095699999999997,-0.036072,-0.074738,-0.009812000000000001,-0.001376,0.003228,-45.68,4.87,9.75,3a
2019-07-12_144657:420,-0.48095699999999997,-0.034058,-0.074738,-0.0063030000000000004,-0.001254,0.002037,-45.68,4.87,9.75,3a
2019-07-12_144657:440,-0.47842399999999996,-0.031494,-0.075226,-0.002671,-0.001376,0.001854,-45.68,5.68,9.37,3a
2019-07-12_144657:460,-0.474854,-0.028442000000000002,-0.07421900000000001,0.000991,-0.002078,0.0014880000000000002,-45.68,5.68,9.37,3a
2019-07-12_144657:480,-0.489594,-0.019806,-0.079803,0.004104,-0.002718,-0.00132,-45.68,5.68,9.37,3a
2019-07-12_144657:500,-0.497742,-0.009644,-0.077271,0.005416,-0.003542,-0.002052,-45.68,6.06,10.56,3a
2019-07-12_144657:520,-0.515533,-0.0035399999999999997,-0.078278,0.00563,-0.004,0.000298,-45.68,6.06,10.56,3a
2019-07-12_144657:540,-0.5211180000000001,0.0,-0.077271,0.005019,-0.003085,0.000878,-45.25,5.25,10.56,3a
2019-07-12_144657:560,-0.5119630000000001,0.004547,-0.07016,0.002517,-0.000857,0.000206,-45.25,5.25,10.56,3a
2019-07-12_144657:580,-0.5048520000000001,0.008118,-0.071167,-0.000413,0.001279,0.0019149999999999998,-45.25,5.25,10.56,3a
2019-07-12_144657:600,-0.494171,0.007599,-0.072693,-0.004319,0.002073,0.004448,-46.060001,5.68,10.18,3a
2019-07-12_144657:620,-0.488068,0.006592,-0.07421900000000001,-0.00847,0.001493,0.005425,-46.060001,5.68,10.18,3a
2019-07-12_144657:640,-0.48858599999999996,0.001007,-0.071167,-0.012589,0.000822,0.005699,-45.68,5.25,10.56,3a
2019-07-12_144657:660,-0.48754899999999995,-0.007111,-0.072693,-0.015580000000000002,0.00021099999999999998,0.0054859999999999996,-45.68,5.25,10.56,3a
2019-07-12_144657:680,-0.48095699999999997,-0.014740000000000001,-0.071167,-0.016801,-0.000582,0.004784,-45.68,5.25,10.56,3a
2019-07-12_144657:700,-0.475372,-0.021332,-0.0737,-0.016374,-0.001955,0.005028,-45.25,5.25,9.75,3a
2019-07-12_144657:720,-0.47180200000000005,-0.028961,-0.077271,-0.014787,-0.004458,0.005822,-45.25,5.25,9.75,3a
2019-07-12_144657:740,-0.474854,-0.03302,-0.076752,-0.012193,-0.0068379999999999995,0.005638000000000001,-45.68,4.87,10.56,3a
2019-07-12_144657:760,-0.482483,-0.036591000000000005,-0.07775900000000001,-0.009202,-0.007967,0.005089,-45.68,4.87,10.56,3a
2019-07-12_144657:780,-0.488068,-0.035065,-0.078796,-0.005723,-0.008028,0.005089,-45.68,4.87,10.56,3a
2019-07-12_144657:800,-0.494171,-0.031494,-0.08081100000000001,-0.003007,-0.007449,0.004692,-45.25,6.37,10.56,3a
2019-07-12_144657:820,-0.49722299999999997,-0.026917,-0.082855,-0.001206,-0.006442,0.0037159999999999997,-45.25,6.37,10.56,3a
2019-07-12_144657:840,-0.503845,-0.017273,-0.084381,-0.000291,-0.0057090000000000005,0.0028309999999999997,-45.68,6.06,9.75,3a
2019-07-12_144657:860,-0.508911,-0.013213999999999998,-0.082336,-0.000504,-0.004519,0.001335,-45.68,6.06,9.75,3a
2019-07-12_144657:880,-0.516541,-0.0055850000000000006,-0.08081100000000001,-0.0016640000000000001,-0.0024739999999999996,-0.000251,-45.68,6.06,9.75,3a
2019-07-12_144657:900,-0.516022,-0.0025329999999999997,-0.078278,-0.003343,-3.3e-05,-0.001106,-46.060001,6.06,9.75,3a
2019-07-12_144657:920,-0.503326,0.001007,-0.076263,-0.005815,0.002348,-0.000709,-46.060001,6.06,9.75,3a
2019-07-12_144657:940,-0.494171,0.0,-0.07421900000000001,-0.007951,0.003934,0.000145,-44.869999,6.06,9.75,3a
2019-07-12_144657:960,-0.481476,0.0,-0.07928500000000001,-0.010026,0.002866,-0.000587,-44.869999,6.06,9.75,3a
2019-07-12_144657:980,-0.475372,-0.0025329999999999997,-0.073212,-0.011857,0.0014320000000000001,0.000878,-44.869999,6.06,9.75,3a
2019-07-12_144658:000,-0.478912,-0.009644,-0.0737,-0.012863999999999999,-0.00043,0.004448,-46.060001,5.68,10.18,3a
2019-07-12_144658:020,-0.48196400000000006,-0.015228,-0.072174,-0.013413,-0.000918,0.006035,-46.060001,5.68,10.18,3a
2019-07-12_144658:040,-0.48043800000000003,-0.019318000000000002,-0.075226,-0.013413,-0.0018030000000000001,0.0054859999999999996,-45.68,6.37,11.0,3a
2019-07-12_144658:060,-0.48300200000000004,-0.023895,-0.076263,-0.012681,-0.00339,0.005242,-45.68,6.37,11.0,3a
2019-07-12_144658:080,-0.49468999999999996,-0.025908999999999998,-0.076263,-0.011613,-0.0042439999999999995,0.004784,-45.68,6.37,11.0,3a
2019-07-12_144658:100,-0.49517799999999995,-0.027954000000000003,-0.076752,-0.010484,-0.004397,0.00396,-45.68,5.68,11.0,3a
2019-07-12_144658:120,-0.501801,-0.029480000000000003,-0.077271,-0.008958,-0.003848,0.003167,-45.68,5.68,11.0,3a
2019-07-12_144658:140,-0.498749,-0.027435,-0.07775900000000001,-0.007431999999999999,-0.002657,0.002648,-45.68,6.75,9.0,3a
2019-07-12_144658:160,-0.490112,-0.023895,-0.07928500000000001,-0.0065769999999999995,-0.002718,0.0023120000000000003,-45.68,6.75,9.0,3a
2019-07-12_144658:180,-0.485016,-0.021851,-0.081848,-0.006181,-0.0034509999999999996,0.002373,-45.68,6.75,9.0,3a
2019-07-12_144658:200,-0.48754899999999995,-0.01828,-0.080322,-0.006364,-0.0042439999999999995,0.002251,-45.25,6.75,10.18,3a
2019-07-12_144658:220,-0.49111899999999997,-0.018799,-0.08081100000000001,-0.006973999999999999,-0.004122,0.002129,-45.25,6.75,10.18,3a
2019-07-12_144658:240,-0.48858599999999996,-0.017273,-0.08081100000000001,-0.0076760000000000005,-0.004122,0.001854,-46.060001,6.37,9.75,3a
2019-07-12_144658:260,-0.485016,-0.01828,-0.082855,-0.008409,-0.004275,0.002373,-46.060001,6.37,9.75,3a
2019-07-12_144658:280,-0.486023,-0.020844,-0.086914,-0.008836,-0.005007,0.003167,-46.060001,6.37,9.75,3a
2019-07-12_144658:300,-0.486023,-0.023895,-0.085388,-0.008683,-0.005465,0.003624,-45.68,7.5,9.37,3a
2019-07-12_144658:320,-0.49316400000000005,-0.025908999999999998,-0.083862,-0.008561,-0.005801,0.004113,-45.68,7.5,9.37,3a
2019-07-12_144658:340,-0.492645,-0.028442000000000002,-0.083862,-0.007829000000000001,-0.00519,0.004174000000000001,-44.560001,6.37,9.0,3a
2019-07-12_144658:360,-0.49468999999999996,-0.028442000000000002,-0.085388,-0.007279000000000001,-0.00519,0.004235,-44.560001,6.37,9.0,3a
2019-07-12_144658:380,-0.494171,-0.029968,-0.084381,-0.0065769999999999995,-0.004794,0.004021,-44.560001,6.37,9.0,3a
2019-07-12_144658:400,-0.489594,-0.029480000000000003,-0.09201000000000001,-0.006364,-0.00519,0.00457,-45.68,7.18,9.75,3a
2019-07-12_144658:420,-0.492126,-0.03302,-0.094055,-0.005845,-0.006594,0.0035020000000000003,-45.68,7.18,9.75,3a
2019-07-12_144658:440,-0.49468999999999996,-0.029968,-0.09301799999999999,-0.005723,-0.0069299999999999995,0.000878,-46.060001,7.06,8.56,3a
2019-07-12_144658:460,-0.491638,-0.029480000000000003,-0.09201000000000001,-0.005204,-0.006716,0.000542,-46.060001,7.06,8.56,3a
2019-07-12_144658:480,-0.490601,-0.028442000000000002,-0.08996599999999999,-0.004869,-0.005984000000000001,0.001274,-46.060001,7.06,8.56,3a
2019-07-12_144658:500,-0.49517799999999995,-0.027435,-0.09149199999999999,-0.004533,-0.005068,0.000603,-45.68,6.75,10.18,3a
2019-07-12_144658:520,-0.49517799999999995,-0.025421,-0.09149199999999999,-0.00435,-0.0042439999999999995,-3.8e-05,-45.68,6.75,10.18,3a
2019-07-12_144658:540,-0.49468999999999996,-0.025908999999999998,-0.09149199999999999,-0.004136,-0.00339,0.0009390000000000001,-46.75,6.06,9.0,3a
2019-07-12_144658:560,-0.500275,-0.026427999999999997,-0.08996599999999999,-0.004014,-0.002261,0.001396,-46.75,6.06,9.0,3a
2019-07-12_144658:580,-0.49517799999999995,-0.026427999999999997,-0.087952,-0.003739,-0.000307,0.0014269999999999999,-46.75,6.06,9.0,3a
2019-07-12_144658:600,-0.492126,-0.026427999999999997,-0.08843999999999999,-0.003282,0.0007,0.001091,-44.869999,7.5,9.0,3a
2019-07-12_144658:620,-0.48349,-0.024384,-0.08996599999999999,-0.002885,0.000822,0.001335,-44.869999,7.5,9.0,3a
2019-07-12_144658:640,-0.482483,-0.024384,-0.088959,-0.002427,0.001066,0.001732,-45.68,6.37,7.75,3a
2019-07-12_144658:660,-0.477905,-0.021332,-0.087952,-0.002397,0.00021099999999999998,0.0021899999999999997,-45.68,6.37,7.75,3a
2019-07-12_144658:680,-0.477905,-0.022369,-0.087952,-0.003221,-0.000826,0.002526,-45.68,6.37,7.75,3a
2019-07-12_144658:700,-0.47689799999999993,-0.020844,-0.08843999999999999,-0.004136,-0.003054,0.0029219999999999997,-45.25,7.5,8.56,3a
2019-07-12_144658:720,-0.477386,-0.021332,-0.088959,-0.005204,-0.005068,0.0028309999999999997,-45.25,7.5,8.56,3a
2019-07-12_144658:740,-0.503326,-0.028442000000000002,-0.08590700000000001,-0.006425,-0.006379999999999999,0.002251,-46.369999,6.37,7.75,3a
2019-07-12_144658:760,-0.5058590000000001,-0.03302,-0.08590700000000001,-0.0065769999999999995,-0.005129,0.00103,-46.369999,6.37,7.75,3a
2019-07-12_144658:780,-0.498749,-0.034546,-0.085388,-0.004654999999999999,-0.0022,-0.000831,-46.369999,6.37,7.75,3a
2019-07-12_144658:800,-0.49975600000000003,-0.034546,-0.082855,-0.0029460000000000003,0.000944,-0.0022960000000000003,-46.060001,6.75,9.0,3a
2019-07-12_144658:820,-0.49722299999999997,-0.023375999999999997,-0.082336,-0.001359,0.003019,-0.002571,-46.060001,6.75,9.0,3a
2019-07-12_144658:840,-0.48654200000000003,-0.023375999999999997,-0.089478,-0.000901,0.0032020000000000004,-0.000831,-45.68,7.18,8.56,3a
2019-07-12_144658:860,-0.47689799999999993,-0.014740000000000001,-0.09353600000000001,-0.0014199999999999998,0.0017980000000000001,0.000298,-45.68,7.18,8.56,3a
2019-07-12_144658:880,-0.475372,-0.013702,-0.091003,-0.002336,8.9e-05,0.000695,-45.68,7.18,8.56,3a
2019-07-12_144658:900,-0.48300200000000004,-0.011169,-0.091003,-0.0034649999999999998,-0.0024739999999999996,-0.00018999999999999998,-46.369999,6.75,10.18,3a
2019-07-12_144658:920,-0.461639,-0.010651,-0.09811399999999999,-0.005265,-0.005587,0.0009390000000000001,-46.369999,6.75,10.18,3a
2019-07-12_144658:940,-0.489075,-0.011169,-0.099121,-0.006761,-0.008578,0.003258,-46.060001,6.75,9.0,3a
2019-07-12_144658:960,-0.492645,-0.013213999999999998,-0.096069,-0.008225,-0.008364,0.0037770000000000004,-46.060001,6.75,9.0,3a
2019-07-12_144658:980,-0.495697,-0.015228,-0.09811399999999999,-0.009599,-0.006991,0.002587,-46.060001,6.75,9.0,3a
2019-07-12_144659:000,-0.494171,-0.015228,-0.09811399999999999,-0.010148,-0.005068,0.0023120000000000003,-45.68,6.75,9.0,3a
2019-07-12_144659:020,-0.490112,-0.019318000000000002,-0.09963999999999999,-0.010148,-0.003878,0.0029219999999999997,-45.68,6.75,9.0,3a
2019-07-12_144659:040,-0.489075,-0.019806,-0.100159,-0.01027,-0.004061,0.003167,-46.369999,6.06,7.75,3a
2019-07-12_144659:060,-0.48654200000000003,-0.019806,-0.102173,-0.009873,-0.00461,0.0033799999999999998,-46.369999,6.06,7.75,3a
2019-07-12_144659:080,-0.485016,-0.021851,-0.101685,-0.009477,-0.005251,0.003167,-46.369999,6.06,7.75,3a
2019-07-12_144659:100,-0.48553500000000005,-0.020325,-0.097107,-0.009233,-0.005526,0.002129,-46.060001,6.06,8.56,3a
2019-07-12_144659:120,-0.484009,-0.020844,-0.09353600000000001,-0.009233,-0.006258,0.0016710000000000002,-46.060001,6.06,8.56,3a
2019-07-12_144659:140,-0.48095699999999997,-0.019318000000000002,-0.09454299999999999,-0.008897,-0.007234999999999999,0.001152,-46.369999,6.06,9.37,3a
2019-07-12_144659:160,-0.48754899999999995,-0.018799,-0.095062,-0.008805,-0.007326999999999999,-9.9e-05,-46.369999,6.06,9.37,3a
2019-07-12_144659:180,-0.494171,-0.015228,-0.08843999999999999,-0.009294,-0.005984000000000001,-0.000923,-46.369999,6.06,9.37,3a
2019-07-12_144659:200,-0.507904,0.007599,-0.098633,-0.013138999999999998,-0.003878,0.000298,-46.369999,6.06,7.75,3a
2019-07-12_144659:220,-0.495697,0.021851,-0.098633,-0.019975,-0.0022,0.001854,-46.369999,6.06,7.75,3a
2019-07-12_144659:240,-0.497742,0.019806,-0.101685,-0.028398000000000003,-0.001254,0.00277,-47.18,6.06,7.37,3a
2019-07-12_144659:260,-0.490601,0.022369,-0.104706,-0.03563,8.9e-05,0.002526,-47.18,6.06,7.37,3a
2019-07-12_144659:280,-0.49111899999999997,0.019318000000000002,-0.103699,-0.042222,0.0007610000000000001,0.0021899999999999997,-47.18,6.06,7.37,3a
2019-07-12_144659:300,-0.49975600000000003,0.01828,-0.105225,-0.045182,0.001493,0.0023120000000000003,-46.369999,6.37,8.18,3a
2019-07-12_144659:320,-0.491638,0.013702,-0.101685,-0.052964,0.003355,0.005425,-46.369999,6.37,8.18,3a
2019-07-12_144659:340,-0.488068,0.001495,-0.10928299999999999,-0.056138,0.004484,0.0078049999999999994,-46.060001,6.75,8.18,3a
2019-07-12_144659:360,-0.489075,-0.006072999999999999,-0.105743,-0.057420000000000006,0.00488,0.007683,-46.060001,6.75,8.18,3a
2019-07-12_144659:380,-0.49111899999999997,-0.016753999999999998,-0.10775799999999999,-0.056535,0.004331000000000001,0.005974,-46.060001,6.75,8.18,3a
2019-07-12_144659:400,-0.484497,-0.022369,-0.104218,-0.054092999999999995,0.003995,0.006035,-46.369999,8.25,7.37,3a
2019-07-12_144659:420,-0.494171,-0.029480000000000003,-0.099121,-0.050584,0.004209,0.007347,-46.369999,8.25,7.37,3a
2019-07-12_144659:440,-0.496704,-0.035065,-0.100647,-0.046006,0.00485,0.008355,-46.369999,8.25,7.75,3a
2019-07-12_144659:460,-0.49468999999999996,-0.039642000000000004,-0.094055,-0.040695999999999996,0.005613,0.007958,-46.369999,8.25,7.75,3a
2019-07-12_144659:480,-0.49316400000000005,-0.039124,-0.09301799999999999,-0.035447,0.006314999999999999,0.007164,-46.369999,8.25,7.75,3a
2019-07-12_144659:500,-0.48300200000000004,-0.037108999999999996,-0.089478,-0.032731,0.006589,0.006768000000000001,-46.060001,9.37,7.75,3a
2019-07-12_144659:520,-0.48654200000000003,-0.035583,-0.08843999999999999,-0.025559000000000002,0.006132,0.005638000000000001,-46.060001,9.37,7.75,3a
2019-07-12_144659:540,-0.48349,-0.034058,-0.086426,-0.02324,0.005857,0.005242,-46.75,9.68,8.56,3a
2019-07-12_144659:560,-0.481476,-0.033539,-0.085388,-0.01677,0.0030800000000000003,0.0033799999999999998,-46.75,9.68,8.56,3a
2019-07-12_144659:580,-0.482483,-0.030487,-0.08743300000000001,-0.0132,0.001157,0.002037,-46.75,9.68,8.56,3a
2019-07-12_144659:600,-0.48300200000000004,-0.027954000000000003,-0.087952,-0.011155,0.00021099999999999998,0.0017929999999999999,-45.68,10.0,7.75,3a
2019-07-12_144659:620,-0.48858599999999996,-0.026427999999999997,-0.083374,-0.00615,-0.001437,0.0014880000000000002,-45.68,10.0,7.75,3a
2019-07-12_144659:640,-0.489594,-0.023375999999999997,-0.083374,-0.0049299999999999995,-0.0016809999999999998,0.001274,-46.060001,9.25,6.56,3a
2019-07-12_144659:660,-0.489075,-0.01828,-0.081848,-0.0018170000000000003,-0.001955,0.0014880000000000002,-46.060001,9.25,6.56,3a
2019-07-12_144659:680,-0.490112,-0.016753999999999998,-0.082855,-0.000504,-0.0024129999999999998,0.001732,-46.060001,9.25,6.56,3a
2019-07-12_144659:700,-0.492126,-0.015228,-0.083862,0.000106,-0.00281,0.001396,-46.060001,9.75,7.75,3a
2019-07-12_144659:720,-0.495697,-0.012177,-0.083374,0.0009599999999999999,-0.00281,0.000695,-46.060001,9.75,7.75,3a
2019-07-12_144659:740,-0.492645,-0.009644,-0.082855,0.000991,-0.0024129999999999998,0.000603,-46.060001,10.0,8.56,3a
2019-07-12_144659:760,-0.492645,-0.008636,-0.083374,-1.6e-05,-0.0009789999999999998,8.4e-05,-46.060001,10.0,8.56,3a
2019-07-12_144659:780,-0.490112,-0.006592,-0.0849,-0.00047400000000000003,-0.000857,0.000145,-46.060001,10.0,8.56,3a
2019-07-12_144659:800,-0.494171,-0.007111,-0.082855,-0.000504,-0.0009789999999999998,0.000267,-45.25,10.0,8.18,3a
2019-07-12_144659:820,-0.491638,-0.006072999999999999,-0.081329,-0.001206,-0.001498,0.001854,-45.25,10.0,8.18,3a
2019-07-12_144659:840,-0.503326,-0.011687999999999999,-0.083862,-0.001267,-0.0010400000000000001,0.0016710000000000002,-46.060001,10.0,8.18,3a
2019-07-12_144659:860,-0.494171,-0.009644,-0.087952,-0.0016640000000000001,8.9e-05,-0.000251,-46.060001,10.0,8.18,3a
2019-07-12_144659:880,-0.48706099999999997,-0.008636,-0.083862,-0.001206,0.0007,0.001,-46.060001,10.0,8.18,3a
2019-07-12_144659:900,-0.492126,-0.012695,-0.08843999999999999,-0.001145,0.000364,0.0016710000000000002,-46.060001,9.25,7.75,3a
2019-07-12_144659:920,-0.49517799999999995,-0.014740000000000001,-0.082855,-0.000138,0.00015,0.002495,-46.060001,9.25,7.75,3a
2019-07-12_144659:940,-0.494171,-0.016266,-0.082336,0.000381,0.000364,0.002648,-45.68,8.87,7.75,3a
2019-07-12_144659:960,-0.494171,-0.017273,-0.082855,0.001906,0.0014320000000000001,0.003105,-45.68,8.87,7.75,3a
2019-07-12_144659:980,-0.490112,-0.023895,-0.078278,0.003646,0.001829,0.002892,-45.68,8.87,7.75,3a
2019-07-12_144700:000,-0.489594,-0.025421,-0.080322,0.0045,0.0016760000000000002,0.00277,-46.060001,9.68,7.75,3a
2019-07-12_144700:020,-0.489594,-0.034058,-0.07928500000000001,0.008864,0.0007,0.0017929999999999999,-46.060001,9.68,7.75,3a
2019-07-12_144700:040,-0.490112,-0.036591000000000005,-0.081848,0.010482,0.000272,0.0014269999999999999,-45.25,9.25,8.56,3a
2019-07-12_144700:060,-0.48754899999999995,-0.038635,-0.07928500000000001,0.016891,-0.000918,0.000145,-45.25,9.25,8.56,3a
2019-07-12_144700:080,-0.48654200000000003,-0.039124,-0.08081100000000001,0.021285,-0.001559,-0.000892,-45.25,9.25,8.56,3a
2019-07-12_144700:100,-0.490112,-0.035583,-0.08081100000000001,0.02333,-0.00162,-0.001564,-45.68,9.25,8.56,3a
2019-07-12_144700:120,-0.49316400000000005,-0.032013,-0.077271,0.028914,-0.001559,-0.003761,-45.68,9.25,8.56,3a
2019-07-12_144700:140,-0.49111899999999997,-0.022858,-0.079803,0.030226999999999997,-0.001376,-0.004158,-45.68,9.25,8.56,3a
2019-07-12_144700:160,-0.492645,-0.013702,-0.079803,0.031783,-0.001254,-0.004768,-45.25,8.18,9.0,3a
2019-07-12_144700:180,-0.489594,-0.0055850000000000006,-0.082336,0.031386000000000004,-0.0015890000000000001,-0.004707,-45.25,8.18,9.0,3a
2019-07-12_144700:200,-0.488068,-0.002014,-0.082855,0.030105,-0.0022,-0.004768,-44.869999,7.75,10.18,3a
2019-07-12_144700:220,-0.49111899999999997,0.004059,-0.081848,0.026473000000000003,-0.003085,-0.005287,-44.869999,7.75,10.18,3a
2019-07-12_144700:240,-0.49468999999999996,0.006072999999999999,-0.081329,0.024947,-0.003085,-0.0053479999999999995,-45.68,7.18,9.75,3a
2019-07-12_144700:260,-0.494171,0.006592,-0.07928500000000001,0.021346,-0.003054,-0.00489,-45.68,7.18,9.75,3a
2019-07-12_144700:280,-0.49517799999999995,0.008636,-0.081329,0.015792,-0.002078,-0.003242,-45.68,7.18,9.75,3a
2019-07-12_144700:300,-0.492645,0.005065999999999999,-0.078796,0.014236000000000002,-0.0016809999999999998,-0.0022960000000000003,-46.060001,7.18,9.5,3a
2019-07-12_144700:320,-0.496704,0.005065999999999999,-0.08081100000000001,0.00981,-0.001437,-0.002357,-46.060001,7.18,9.5,3a
2019-07-12_144700:340,-0.48858599999999996,0.007111,-0.080322,0.008131999999999999,-0.0010400000000000001,-0.0029059999999999997,-46.060001,7.18,9.5,3a
2019-07-12_144700:360,-0.48706099999999997,0.004547,-0.08081100000000001,0.004104,-0.0016809999999999998,-0.001259,-45.68,6.25,10.25,3a
2019-07-12_144700:380,-0.49365200000000004,0.001007,-0.081329,0.0032189999999999996,-0.001925,-0.00037400000000000004,-45.68,6.25,10.25,3a
2019-07-12_144700:400,-0.492645,0.0,-0.080322,0.000106,-0.001498,0.000206,-46.060001,6.75,9.06,3a
2019-07-12_144700:420,-0.494171,-0.000488,-0.078278,-0.000749,-0.0011619999999999998,-9.9e-05,-46.060001,6.75,9.06,3a
2019-07-12_144700:440,-0.497742,-0.000488,-0.081329,-0.001939,-0.000124,-3.8e-05,-46.060001,6.75,9.06,3a
2019-07-12_144700:460,-0.496216,-0.0035399999999999997,-0.07775900000000001,-0.002,0.000303,-3.8e-05,-46.060001,5.56,10.56,3a
2019-07-12_144700:480,-0.495697,-0.0030210000000000002,-0.078796,-0.002336,0.001218,-0.00043499999999999995,-46.060001,5.56,10.56,3a
2019-07-12_144700:500,-0.49365200000000004,-0.002014,-0.07928500000000001,-0.001939,0.0014320000000000001,0.000145,-45.25,5.18,10.68,3a
2019-07-12_144700:520,-0.492126,-0.001495,-0.076752,-0.0018170000000000003,0.00134,0.000695,-45.25,5.18,10.68,3a
2019-07-12_144700:540,-0.491638,0.0,-0.078278,-0.0018170000000000003,0.001157,0.000817,-45.25,5.18,10.68,3a
2019-07-12_144700:560,-0.48858599999999996,0.0,-0.076752,-0.00203,0.000944,0.0014880000000000002,-45.68,4.87,9.87,3a
2019-07-12_144700:580,-0.492645,-0.001007,-0.075226,-0.0024879999999999998,0.000944,0.002495,-45.68,4.87,9.87,3a
2019-07-12_144700:600,-0.492126,-0.001007,-0.0737,-0.00316,0.000944,0.002709,-45.68,5.25,9.06,3a
2019-07-12_144700:620,-0.494171,-0.002014,-0.070648,-0.003922,0.0010960000000000002,0.0030440000000000003,-45.68,5.25,9.06,3a
2019-07-12_144700:640,-0.49316400000000005,-0.0030210000000000002,-0.072693,-0.004472,0.000883,0.003319,-45.68,5.25,9.06,3a
2019-07-12_144700:660,-0.48654200000000003,-0.005065999999999999,-0.069641,-0.005082,0.000364,0.003624,-46.060001,5.18,10.25,3a
2019-07-12_144700:680,-0.485016,-0.009125,-0.070648,-0.005448,-0.000826,0.003319,-46.060001,5.18,10.25,3a
2019-07-12_144700:700,-0.48706099999999997,-0.009644,-0.067596,-0.005386999999999999,-0.0024129999999999998,0.0029219999999999997,-45.68,4.75,11.5,3a
2019-07-12_144700:720,-0.48300200000000004,-0.008636,-0.07016,-0.0054789999999999995,-0.0042439999999999995,0.002648,-45.68,4.75,11.5,3a
2019-07-12_144700:740,-0.48553500000000005,-0.011687999999999999,-0.068634,-0.005723,-0.006136,0.00277,-45.68,4.75,11.5,3a
2019-07-12_144700:760,-0.47943100000000005,-0.011687999999999999,-0.070648,-0.0054789999999999995,-0.007967,0.003167,-45.68,5.18,10.68,3a
2019-07-12_144700:780,-0.494171,-0.014740000000000001,-0.072174,-0.005326,-0.009188,0.0028309999999999997,-45.68,5.18,10.68,3a
2019-07-12_144700:800,-0.490601,-0.013213999999999998,-0.075226,-0.005082,-0.009585,0.001549,-45.25,4.75,9.06,3a
2019-07-12_144700:820,-0.48858599999999996,-0.012177,-0.075745,-0.004991,-0.009921,0.0014269999999999999,-45.25,4.75,9.06,3a
2019-07-12_144700:840,-0.49316400000000005,-0.013213999999999998,-0.082336,-0.004472,-0.010104,0.0021899999999999997,-45.25,4.75,9.06,3a
2019-07-12_144700:860,-0.492645,-0.012177,-0.083374,-0.004197,-0.009829000000000001,0.002373,-45.25,6.25,9.06,3a
2019-07-12_144700:880,-0.49468999999999996,-0.011687999999999999,-0.0849,-0.003953,-0.009188,0.002495,-45.25,6.25,9.06,3a
2019-07-12_144700:900,-0.495697,-0.011687999999999999,-0.086914,-0.003953,-0.008578,0.003105,-45.68,6.0,9.06,3a
2019-07-12_144700:920,-0.49365200000000004,-0.011169,-0.088959,-0.003953,-0.00812,0.003624,-45.68,6.0,9.06,3a
2019-07-12_144700:940,-0.49468999999999996,-0.011687999999999999,-0.09149199999999999,-0.004319,-0.007509999999999999,0.0037159999999999997,-45.68,6.0,9.06,3a
2019-07-12_144700:960,-0.496216,-0.011687999999999999,-0.09149199999999999,-0.004654999999999999,-0.006991,0.0037159999999999997,-45.25,5.56,9.06,3a
2019-07-12_144700:980,-0.496704,-0.011687999999999999,-0.09454299999999999,-0.004685,-0.006197,0.0037159999999999997,-45.25,5.56,9.06,3a
2019-07-12_144701:000,-0.496216,-0.011687999999999999,-0.09454299999999999,-0.004991,-0.004855,0.003624,-46.060001,6.0,9.5,3a
2019-07-12_144701:020,-0.49517799999999995,-0.013702,-0.092529,-0.005386999999999999,-0.003939,0.0035020000000000003,-46.060001,6.0,9.5,3a
2019-07-12_144701:040,-0.492126,-0.013702,-0.09353600000000001,-0.005601,-0.0028710000000000003,0.003655,-46.060001,6.0,9.5,3a
2019-07-12_144701:060,-0.490601,-0.015747,-0.09353600000000001,-0.005784,-0.002657,0.003655,-46.060001,5.56,8.68,3a
2019-07-12_144701:080,-0.49111899999999997,-0.016753999999999998,-0.09201000000000001,-0.006181,-0.0025960000000000002,0.003105,-46.060001,5.56,8.68,3a
2019-07-12_144701:100,-0.489594,-0.017792,-0.09201000000000001,-0.0063030000000000004,-0.002322,0.00277,-45.25,6.25,8.25,3a
2019-07-12_144701:120,-0.489594,-0.016266,-0.091003,-0.0063030000000000004,-0.002352,0.002587,-45.25,6.25,8.25,3a
2019-07-12_144701:140,-0.486023,-0.01828,-0.092529,-0.006425,-0.002718,0.0019760000000000003,-45.25,6.25,8.25,3a
2019-07-12_144701:160,-0.484497,-0.016753999999999998,-0.09149199999999999,-0.006181,-0.00339,0.0017629999999999998,-45.25,5.56,8.68,3a
2019-07-12_144701:180,-0.486023,-0.017792,-0.09201000000000001,-0.006028,-0.004672,0.002251,-45.25,5.56,8.68,3a
2019-07-12_144701:200,-0.49111899999999997,-0.019318000000000002,-0.090485,-0.005906000000000001,-0.005068,0.0017929999999999999,-46.060001,5.56,9.06,3a
2019-07-12_144701:220,-0.48754899999999995,-0.015747,-0.09201000000000001,-0.005448,-0.00519,0.0016710000000000002,-46.060001,5.56,9.06,3a
2019-07-12_144701:240,-0.49468999999999996,-0.017792,-0.094055,-0.005204,-0.004733,0.002129,-46.060001,5.56,9.06,3a
2019-07-12_144701:260,-0.490601,-0.017273,-0.097595,-0.005052,-0.00458,0.001091,-45.68,6.0,9.06,3a
2019-07-12_144701:280,-0.48706099999999997,-0.014740000000000001,-0.09811399999999999,-0.005326,-0.004061,0.000603,-45.68,6.0,9.06,3a
2019-07-12_144701:300,-0.49111899999999997,-0.014221000000000001,-0.102173,-0.005143,-0.004397,0.0017929999999999999,-46.369999,6.0,8.25,3a
2019-07-12_144701:320,-0.490601,-0.013702,-0.09811399999999999,-0.005326,-0.003848,0.002098,-46.369999,6.0,8.25,3a
2019-07-12_144701:340,-0.490112,-0.013213999999999998,-0.09963999999999999,-0.005845,-0.003085,0.00161,-46.369999,6.0,8.25,3a
2019-07-12_144701:360,-0.48858599999999996,-0.013213999999999998,-0.09963999999999999,-0.00615,-0.002352,0.0019149999999999998,-46.369999,6.25,8.68,3a
2019-07-12_144701:380,-0.48858599999999996,-0.013213999999999998,-0.098633,-0.0065769999999999995,-0.002352,0.002037,-46.369999,6.25,8.68,3a
2019-07-12_144701:400,-0.48654200000000003,-0.017792,-0.09963999999999999,-0.007035,-0.0024739999999999996,0.001549,-45.68,5.56,8.25,3a
2019-07-12_144701:420,-0.490601,-0.016266,-0.097595,-0.006883,-0.0028710000000000003,0.001274,-45.68,5.56,8.25,3a
2019-07-12_144701:440,-0.494171,-0.017273,-0.100159,-0.006486,-0.0024129999999999998,0.001335,-45.68,5.56,8.25,3a
2019-07-12_144701:460,-0.49365200000000004,-0.01828,-0.099121,-0.006181,-0.001559,0.001,-46.369999,6.0,8.25,3a
2019-07-12_144701:480,-0.492126,-0.015747,-0.098633,-0.005601,-0.000643,0.001213,-46.369999,6.0,8.25,3a
2019-07-12_144701:500,-0.494171,-0.014740000000000001,-0.096588,-0.005082,-9.4e-05,0.0017929999999999999,-46.369999,6.0,7.87,3a
2019-07-12_144701:520,-0.49316400000000005,-0.013213999999999998,-0.095581,-0.004991,0.0007610000000000001,0.0017629999999999998,-46.369999,6.0,7.87,3a
2019-07-12_144701:540,-0.49365200000000004,-0.012177,-0.09454299999999999,-0.005143,0.001737,0.002587,-46.369999,6.0,7.87,3a
2019-07-12_144701:560,-0.490601,-0.012177,-0.09454299999999999,-0.005326,0.002531,0.0029219999999999997,-46.369999,5.56,8.68,3a
2019-07-12_144701:580,-0.489594,-0.013702,-0.092529,-0.005723,0.003019,0.002129,-46.369999,5.56,8.68,3a
2019-07-12_144701:600,-0.488068,-0.011169,-0.095062,-0.006089,0.002927,0.001549,-46.060001,6.25,7.87,3a
2019-07-12_144701:620,-0.482483,-0.013702,-0.092529,-0.005967,0.0026219999999999998,0.001091,-46.060001,6.25,7.87,3a
2019-07-12_144701:640,-0.488068,-0.012695,-0.092529,-0.006425,0.001615,0.0009390000000000001,-46.060001,6.25,7.87,3a
2019-07-12_144701:660,-0.48300200000000004,-0.013213999999999998,-0.09149199999999999,-0.006242,0.000883,0.0017929999999999999,-45.68,6.0,8.25,3a
2019-07-12_144701:680,-0.476379,-0.012695,-0.09149199999999999,-0.00615,2.8000000000000003e-05,0.002434,-45.68,6.0,8.25,3a
2019-07-12_144701:700,-0.476379,-0.013702,-0.086914,-0.006242,-0.001559,0.0021899999999999997,-46.060001,6.0,8.68,3a
2019-07-12_144701:720,-0.481476,-0.013213999999999998,-0.089478,-0.006364,-0.0034509999999999996,0.0014880000000000002,-46.060001,6.0,8.68,3a
2019-07-12_144701:740,-0.47689799999999993,-0.011687999999999999,-0.086426,-0.006547,-0.00519,0.001335,-46.060001,6.0,8.68,3a
2019-07-12_144701:760,-0.481476,-0.012695,-0.091003,-0.0065769999999999995,-0.007174,0.0017629999999999998,-46.369999,6.25,7.5,3a
2019-07-12_144701:780,-0.48654200000000003,-0.011687999999999999,-0.086426,-0.0072180000000000005,-0.007234999999999999,0.002526,-46.369999,6.25,7.5,3a
2019-07-12_144701:800,-0.49517799999999995,-0.009125,-0.08996599999999999,-0.0085,-0.007266,0.004052,-46.369999,6.0,7.87,3a
2019-07-12_144701:820,-0.490112,-0.011687999999999999,-0.092529,-0.009477,-0.006379999999999999,0.003563,-46.369999,6.0,7.87,3a
2019-07-12_144701:840,-0.488068,-0.016266,-0.094055,-0.011155,-0.006258,0.000481,-46.369999,6.0,7.87,3a
2019-07-12_144701:860,-0.492126,-0.016266,-0.097595,-0.011613,-0.006594,-0.001106,-45.68,6.0,9.87,3a
2019-07-12_144701:880,-0.496704,-0.018799,-0.096588,-0.010758,-0.006442,-3.8e-05,-45.68,6.0,9.87,3a
2019-07-12_144701:900,-0.502808,-0.019318000000000002,-0.097107,-0.010148,-0.005465,-0.00043499999999999995,-46.060001,6.25,8.68,3a
2019-07-12_144701:920,-0.505371,-0.013702,-0.10116599999999999,-0.00908,-0.002993,-0.000496,-46.060001,6.25,8.68,3a
2019-07-12_144701:940,-0.500275,-0.011687999999999999,-0.103699,-0.008836,-3.3e-05,0.001549,-46.060001,6.25,8.68,3a
2019-07-12_144701:960,-0.491638,-0.013702,-0.106232,-0.008286,0.0016760000000000002,0.003624,-46.369999,6.25,8.25,3a
2019-07-12_144701:980,-0.49111899999999997,-0.013702,-0.102173,-0.008409,0.00247,0.003899,-46.369999,6.25,8.25,3a
2019-07-12_144702:000,-0.489594,-0.014740000000000001,-0.10318,-0.008073,0.002561,0.004296,-45.68,6.0,8.25,3a
2019-07-12_144702:020,-0.48706099999999997,-0.015747,-0.100159,-0.0076760000000000005,0.002409,0.004692,-45.68,6.0,8.25,3a
2019-07-12_144702:040,-0.48349,-0.016266,-0.097107,-0.0072180000000000005,0.001279,0.004418,-45.68,6.0,8.25,3a
2019-07-12_144702:060,-0.484009,-0.017273,-0.10318,-0.0065769999999999995,0.00021099999999999998,0.0037159999999999997,-46.369999,6.25,8.25,3a
2019-07-12_144702:080,-0.482483,-0.020325,-0.09301799999999999,-0.005723,-0.0010400000000000001,0.0028309999999999997,-46.369999,6.25,8.25,3a
2019-07-12_144702:100,-0.489594,-0.019806,-0.096588,-0.004685,-0.0018030000000000001,0.0019149999999999998,-46.060001,6.25,9.06,3a
2019-07-12_144702:120,-0.490601,-0.017273,-0.094055,-0.003953,-0.001437,0.001549,-46.060001,6.25,9.06,3a
2019-07-12_144702:140,-0.48349,-0.014221000000000001,-0.095581,-0.0034649999999999998,-0.001376,0.002495,-46.060001,6.25,9.06,3a
2019-07-12_144702:160,-0.486023,-0.017273,-0.096069,-0.003129,-0.002078,0.002983,-46.060001,6.0,9.5,3a
2019-07-12_144702:180,-0.48349,-0.015747,-0.09811399999999999,-0.00316,-0.0028710000000000003,0.001274,-46.060001,6.0,9.5,3a
2019-07-12_144702:200,-0.47995,-0.014221000000000001,-0.097107,-0.003556,-0.004183,0.000481,-46.369999,6.0,7.87,3a
2019-07-12_144702:220,-0.48754899999999995,-0.015228,-0.100159,-0.003556,-0.005465,0.001396,-46.369999,6.0,7.87,3a
2019-07-12_144702:240,-0.490601,-0.015747,-0.098633,-0.0036780000000000003,-0.005068,0.001152,-46.369999,6.0,7.87,3a
2019-07-12_144702:260,-0.49111899999999997,-0.015228,-0.100159,-0.003739,-0.004397,0.000634,-45.68,6.25,8.68,3a
2019-07-12_144702:280,-0.48858599999999996,-0.013702,-0.099121,-0.0038,-0.003481,0.00103,-45.68,6.25,8.68,3a
2019-07-12_144702:300,-0.484009,-0.013213999999999998,-0.101685,-0.003861,-0.003268,0.000542,-45.68,6.68,7.5,3a
2019-07-12_144702:320,-0.48300200000000004,-0.013213999999999998,-0.10116599999999999,-0.004136,-0.003542,-0.000251,-45.68,6.68,7.5,3a
2019-07-12_144702:340,-0.484009,-0.011687999999999999,-0.100647,-0.004258,-0.0042439999999999995,-0.00043499999999999995,-45.68,6.68,7.5,3a
2019-07-12_144702:360,-0.48300200000000004,-0.011169,-0.101685,-0.004594,-0.005372999999999999,-0.0007700000000000001,-46.369999,5.18,7.87,3a
2019-07-12_144702:380,-0.48349,-0.009644,-0.100159,-0.005143,-0.006503,-0.001259,-46.369999,5.18,7.87,3a
2019-07-12_144702:400,-0.489075,-0.009125,-0.100159,-0.005784,-0.006776999999999999,-0.000984,-46.060001,5.56,7.06,3a
2019-07-12_144702:420,-0.488068,-0.010651,-0.100647,-0.006028,-0.006716,0.000206,-46.060001,5.56,7.06,3a
2019-07-12_144702:440,-0.492126,-0.011687999999999999,-0.101685,-0.006181,-0.006594,0.0009390000000000001,-46.060001,5.56,7.06,3a
2019-07-12_144702:460,-0.497742,-0.013213999999999998,-0.103699,-0.0063030000000000004,-0.0057399999999999994,0.001549,-46.75,5.56,7.06,3a
2019-07-12_144702:480,-0.492645,-0.013702,-0.105743,-0.005967,-0.004336,0.002037,-46.75,5.56,7.06,3a
2019-07-12_144702:500,-0.495697,-0.015228,-0.106232,-0.005601,-0.0027489999999999997,0.002251,-46.75,5.18,7.06,3a
2019-07-12_144702:520,-0.49468999999999996,-0.016753999999999998,-0.108276,-0.005143,-0.001376,0.002526,-46.75,5.18,7.06,3a
2019-07-12_144702:540,-0.489075,-0.015228,-0.104706,-0.004807,-0.00045999999999999996,0.002434,-46.75,5.18,7.06,3a
2019-07-12_144702:560,-0.491638,-0.015228,-0.10675,-0.004472,-0.000307,0.0023120000000000003,-46.75,5.56,7.06,3a
2019-07-12_144702:580,-0.49365200000000004,-0.015747,-0.102692,-0.003953,0.000272,0.002373,-46.75,5.56,7.06,3a
2019-07-12_144702:600,-0.48043800000000003,-0.015228,-0.105743,-0.003922,0.00048600000000000005,0.0023120000000000003,-46.75,5.56,7.06,3a
2019-07-12_144702:620,-0.490112,-0.014221000000000001,-0.100647,-0.0035259999999999996,0.000425,0.002098,-46.75,5.56,7.06,3a
2019-07-12_144702:640,-0.484009,-0.014221000000000001,-0.106232,-0.003617,-0.000246,0.001213,-46.75,5.56,7.06,3a
2019-07-12_144702:660,-0.47995,-0.010162000000000001,-0.101685,-0.0036780000000000003,-0.000918,0.000481,-46.060001,5.56,7.87,3a
2019-07-12_144702:680,-0.484497,-0.012177,-0.105225,-0.003953,-0.001955,0.000878,-46.060001,5.56,7.87,3a
2019-07-12_144702:700,-0.48706099999999997,-0.010651,-0.101685,-0.003953,-0.002078,0.001,-46.75,5.56,7.06,3a
2019-07-12_144702:720,-0.486023,-0.011169,-0.10116599999999999,-0.004533,-0.002139,0.0009390000000000001,-46.75,5.56,7.06,3a
2019-07-12_144702:740,-0.484009,-0.011169,-0.100647,-0.004594,-0.002261,0.0009390000000000001,-46.75,5.56,7.06,3a
2019-07-12_144702:760,-0.485016,-0.009644,-0.102692,-0.005052,-0.00281,0.00103,-46.369999,6.0,7.5,3a
2019-07-12_144702:780,-0.48553500000000005,-0.009125,-0.104706,-0.005265,-0.0034509999999999996,0.0007559999999999999,-46.369999,6.0,7.5,3a
2019-07-12_144702:800,-0.490112,-0.009644,-0.106232,-0.00554,-0.004275,0.000603,-46.369999,5.18,7.5,3a
2019-07-12_144702:820,-0.49111899999999997,-0.010651,-0.105225,-0.005906000000000001,-0.004397,0.000542,-46.369999,5.18,7.5,3a
2019-07-12_144702:840,-0.49111899999999997,-0.011169,-0.10675,-0.005815,-0.004275,0.000603,-46.369999,5.18,7.5,3a
2019-07-12_144702:860,-0.48706099999999997,-0.009644,-0.108276,-0.005601,-0.004275,0.000267,-45.68,5.56,7.06,3a
2019-07-12_144702:880,-0.48553500000000005,-0.008118,-0.10775799999999999,-0.005601,-0.003848,8.4e-05,-45.68,5.56,7.06,3a
2019-07-12_144702:900,-0.486023,-0.008118,-0.11080899999999999,-0.005723,-0.003939,0.000817,-46.060001,5.18,7.5,3a
2019-07-12_144702:920,-0.48095699999999997,-0.008118,-0.10675,-0.0056619999999999995,-0.003878,0.001549,-46.060001,5.18,7.5,3a
2019-07-12_144702:940,-0.47995,-0.009125,-0.111847,-0.006089,-0.003939,0.001549,-46.060001,5.18,7.5,3a
2019-07-12_144702:960,-0.48043800000000003,-0.008118,-0.111847,-0.0063030000000000004,-0.004672,0.001396,-46.75,6.25,8.25,3a
2019-07-12_144702:980,-0.47842399999999996,-0.010162000000000001,-0.11386099999999999,-0.006181,-0.005526,0.001091,-46.75,6.25,8.25,3a
2019-07-12_144703:000,-0.48349,-0.010651,-0.11438,-0.0063030000000000004,-0.005801,0.001274,-45.68,5.56,7.5,3a
2019-07-12_144703:020,-0.489594,-0.012177,-0.116425,-0.005967,-0.006379999999999999,0.001335,-45.68,5.56,7.5,3a
2019-07-12_144703:040,-0.490601,-0.012695,-0.11386099999999999,-0.005326,-0.005312,0.0014880000000000002,-45.68,5.56,7.5,3a
2019-07-12_144703:060,-0.48553500000000005,-0.011687999999999999,-0.116425,-0.005143,-0.00461,0.001732,-46.369999,5.18,8.68,3a
2019-07-12_144703:080,-0.49823,-0.012177,-0.117432,-0.004197,-0.004336,0.0017929999999999999,-46.369999,5.18,8.68,3a
2019-07-12_144703:100,-0.489075,-0.009125,-0.11691300000000002,-0.003953,-0.003725,0.000878,-46.75,5.56,6.68,3a
2019-07-12_144703:120,-0.48858599999999996,-0.008118,-0.117432,-0.003861,-0.0036030000000000003,0.000878,-46.75,5.56,6.68,3a
2019-07-12_144703:140,-0.490112,-0.008636,-0.11691300000000002,-0.003556,-0.003085,0.0019149999999999998,-46.75,5.56,6.68,3a
2019-07-12_144703:160,-0.488068,-0.007599,-0.11538699999999999,-0.003739,-0.002078,0.002098,-46.369999,4.75,5.87,3a
2019-07-12_144703:180,-0.481476,-0.005065999999999999,-0.115906,-0.004136,-0.001437,0.002037,-46.369999,4.75,5.87,3a
2019-07-12_144703:200,-0.477905,-0.006072999999999999,-0.11691300000000002,-0.004654999999999999,-0.001376,0.002373,-46.369999,5.56,7.06,3a
2019-07-12_144703:220,-0.477386,-0.008118,-0.119476,-0.005204,-0.00162,0.002373,-46.369999,5.56,7.06,3a
2019-07-12_144703:240,-0.47689799999999993,-0.007599,-0.119965,-0.0054789999999999995,-0.002352,0.001854,-46.369999,5.56,7.06,3a
2019-07-12_144703:260,-0.482483,-0.009125,-0.12200899999999999,-0.005326,-0.0027489999999999997,0.0023120000000000003,-46.75,5.56,7.5,3a
2019-07-12_144703:280,-0.48300200000000004,-0.009644,-0.12048299999999999,-0.005448,-0.0028710000000000003,0.002892,-46.75,5.56,7.5,3a
2019-07-12_144703:300,-0.486023,-0.009125,-0.12200899999999999,-0.005265,-0.0028710000000000003,0.002892,-46.060001,5.56,6.25,3a
2019-07-12_144703:320,-0.488068,-0.010651,-0.121002,-0.005082,-0.002535,0.003167,-46.060001,5.56,6.25,3a
2019-07-12_144703:340,-0.489594,-0.009644,-0.12048299999999999,-0.004991,-0.001559,0.003167,-46.060001,5.56,6.25,3a
2019-07-12_144703:360,-0.49111899999999997,-0.010651,-0.119476,-0.005265,-0.000826,0.003319,-46.75,5.56,5.87,3a
2019-07-12_144703:380,-0.491638,-0.011687999999999999,-0.115906,-0.005326,0.00048600000000000005,0.0038380000000000003,-46.75,5.56,5.87,3a
2019-07-12_144703:400,-0.490112,-0.011687999999999999,-0.11438,-0.00554,0.0014320000000000001,0.003624,-46.75,6.0,6.68,3a
2019-07-12_144703:420,-0.484009,-0.013213999999999998,-0.113373,-0.005845,0.002225,0.003105,-46.75,6.0,6.68,3a
2019-07-12_144703:440,-0.47943100000000005,-0.014221000000000001,-0.11080899999999999,-0.0056619999999999995,0.002073,0.002983,-46.75,6.0,6.68,3a
2019-07-12_144703:460,-0.48095699999999997,-0.015228,-0.112854,-0.005601,0.001218,0.0034409999999999996,-46.75,5.18,7.5,3a
2019-07-12_144703:480,-0.47943100000000005,-0.015747,-0.10775799999999999,-0.005448,0.000303,0.0035020000000000003,-46.75,5.18,7.5,3a
2019-07-12_144703:500,-0.472321,-0.015747,-0.108795,-0.0054789999999999995,-0.00036899999999999997,0.003563,-46.369999,5.56,6.68,3a
2019-07-12_144703:520,-0.47842399999999996,-0.017273,-0.10675,-0.005448,-0.001559,0.003899,-46.369999,5.56,6.68,3a
2019-07-12_144703:540,-0.477386,-0.017792,-0.11386099999999999,-0.0054789999999999995,-0.003207,0.003105,-46.369999,5.56,6.68,3a
2019-07-12_144703:560,-0.477386,-0.017792,-0.11233499999999999,-0.00554,-0.00461,0.001213,-46.369999,6.0,7.06,3a
2019-07-12_144703:580,-0.48553500000000005,-0.015747,-0.11386099999999999,-0.005448,-0.0059229999999999994,0.000481,-46.369999,6.0,7.06,3a
2019-07-12_144703:600,-0.488068,-0.017792,-0.11386099999999999,-0.005326,-0.006045,0.000542,-46.75,5.56,6.68,3a
2019-07-12_144703:620,-0.492645,-0.015747,-0.116425,-0.005265,-0.0049770000000000005,0.000359,-46.75,5.56,6.68,3a
2019-07-12_144703:640,-0.49111899999999997,-0.013213999999999998,-0.115906,-0.005448,-0.0034509999999999996,0.000542,-46.75,5.56,6.68,3a
2019-07-12_144703:660,-0.494171,-0.014221000000000001,-0.117432,-0.005386999999999999,-0.0024739999999999996,0.000634,-46.75,5.56,7.06,3a
2019-07-12_144703:680,-0.489075,-0.014221000000000001,-0.118958,-0.005386999999999999,-0.001437,8.4e-05,-46.75,5.56,7.06,3a
2019-07-12_144703:700,-0.48858599999999996,-0.014740000000000001,-0.114899,-0.005204,-0.000521,8.4e-05,-46.75,5.56,6.25,3a
2019-07-12_144703:720,-0.488068,-0.011687999999999999,-0.11438,-0.005052,-0.00036899999999999997,0.00103,-46.75,5.56,6.25,3a
2019-07-12_144703:740,-0.485016,-0.012695,-0.112854,-0.004869,-0.000185,0.001732,-46.75,5.56,6.25,3a
2019-07-12_144703:760,-0.486023,-0.012695,-0.11386099999999999,-0.005052,-0.000185,0.001549,-47.18,5.56,7.5,3a
2019-07-12_144703:780,-0.486023,-0.010651,-0.111847,-0.005143,-3.3e-05,0.0014269999999999999,-47.18,5.56,7.5,3a
2019-07-12_144703:800,-0.484009,-0.011687999999999999,-0.111328,-0.005265,0.00015,0.0019149999999999998,-45.68,6.25,7.5,3a
2019-07-12_144703:820,-0.485016,-0.012695,-0.10928299999999999,-0.005326,2.8000000000000003e-05,0.002129,-45.68,6.25,7.5,3a
2019-07-12_144703:840,-0.484497,-0.013213999999999998,-0.11080899999999999,-0.005601,0.00015,0.0021899999999999997,-45.68,6.25,7.5,3a
2019-07-12_144703:860,-0.48553500000000005,-0.013213999999999998,-0.108795,-0.005265,-9.4e-05,0.0017629999999999998,-46.75,5.56,7.5,3a
2019-07-12_144703:880,-0.481476,-0.013213999999999998,-0.108276,-0.005326,-3.3e-05,0.0019149999999999998,-46.75,5.56,7.5,3a
2019-07-12_144703:900,-0.48706099999999997,-0.012695,-0.108276,-0.0049299999999999995,-0.000582,0.0021899999999999997,-46.75,5.18,5.5,3a
2019-07-12_144703:920,-0.48706099999999997,-0.012177,-0.106232,-0.005082,-0.001101,0.002251,-46.75,5.18,5.5,3a
2019-07-12_144703:940,-0.48654200000000003,-0.010651,-0.108795,-0.005143,-0.000643,0.0019760000000000003,-46.75,5.18,5.5,3a
2019-07-12_144703:960,-0.48654200000000003,-0.012177,-0.10775799999999999,-0.005448,-0.0007650000000000001,0.002587,-46.369999,5.56,6.68,3a
2019-07-12_144703:980,-0.485016,-0.011687999999999999,-0.11233499999999999,-0.005845,-0.001559,0.001732,-46.369999,5.56,6.68,3a
2019-07-12_144704:000,-0.481476,-0.010162000000000001,-0.10928299999999999,-0.006547,-0.0022,0.0017929999999999999,-46.369999,6.0,5.87,3a
2019-07-12_144704:020,-0.48349,-0.013702,-0.111328,-0.006425,-0.002993,0.003319,-46.369999,6.0,5.87,3a
2019-07-12_144704:040,-0.490112,-0.015747,-0.11233499999999999,-0.0065769999999999995,-0.0024739999999999996,0.0030440000000000003,-46.369999,6.0,5.87,3a
2019-07-12_144704:060,-0.490601,-0.014740000000000001,-0.11080899999999999,-0.0067,-0.001437,0.002373,-46.369999,4.5,7.06,3a
2019-07-12_144704:080,-0.486023,-0.015747,-0.109802,-0.006639,-0.00043,0.003167,-46.369999,4.5,7.06,3a
2019-07-12_144704:100,-0.48654200000000003,-0.016753999999999998,-0.111328,-0.0067,-0.000521,0.002892,-47.18,5.56,6.68,3a
2019-07-12_144704:120,-0.48706099999999997,-0.016266,-0.111328,-0.006547,-0.000857,0.0014269999999999999,-47.18,5.56,6.68,3a
2019-07-12_144704:140,-0.489594,-0.016266,-0.110321,-0.0063030000000000004,-0.0010400000000000001,0.000634,-47.18,5.56,6.68,3a
2019-07-12_144704:160,-0.490601,-0.014221000000000001,-0.10928299999999999,-0.005906000000000001,-0.00045999999999999996,0.001213,-46.060001,5.56,6.25,3a
2019-07-12_144704:180,-0.48654200000000003,-0.014740000000000001,-0.108276,-0.005448,0.00015,0.001335,-46.060001,5.56,6.25,3a
2019-07-12_144704:200,-0.484009,-0.011687999999999999,-0.108795,-0.005082,2.8000000000000003e-05,0.000878,-46.369999,5.56,7.5,3a
2019-07-12_144704:220,-0.485016,-0.009125,-0.105743,-0.004685,-3.3e-05,0.001,-46.369999,5.56,7.5,3a
2019-07-12_144704:240,-0.48654200000000003,-0.007599,-0.104218,-0.0049299999999999995,-0.00045999999999999996,0.001396,-46.369999,5.56,7.5,3a
2019-07-12_144704:260,-0.48553500000000005,-0.006592,-0.104218,-0.005326,-0.000582,0.002037,-46.369999,5.56,7.06,3a
2019-07-12_144704:280,-0.48095699999999997,-0.008636,-0.104706,-0.005784,-0.0010400000000000001,0.002434,-46.369999,5.56,7.06,3a
2019-07-12_144704:300,-0.48095699999999997,-0.009125,-0.105743,-0.006242,-0.001864,0.0023120000000000003,-45.68,5.56,7.06,3a
2019-07-12_144704:320,-0.477905,-0.008636,-0.103699,-0.006822,-0.00281,0.0029219999999999997,-45.68,5.56,7.06,3a
2019-07-12_144704:340,-0.481476,-0.012177,-0.106232,-0.0072180000000000005,-0.003939,0.004448,-45.68,5.56,7.06,3a
2019-07-12_144704:360,-0.486023,-0.015747,-0.108276,-0.007768000000000001,-0.00458,0.004784,-46.060001,4.75,6.68,3a
2019-07-12_144704:380,-0.48754899999999995,-0.016753999999999998,-0.107269,-0.0085,-0.004733,0.005974,-46.060001,4.75,6.68,3a
2019-07-12_144704:400,-0.484497,-0.024384,-0.109802,-0.0085,-0.00458,0.006768000000000001,-46.369999,6.25,7.06,3a
2019-07-12_144704:420,-0.49111899999999997,-0.028961,-0.11233499999999999,-0.00847,-0.004519,0.004845,-46.369999,6.25,7.06,3a
2019-07-12_144704:440,-0.485016,-0.028442000000000002,-0.112854,-0.008225,-0.004855,0.003319,-46.369999,6.25,7.06,3a
2019-07-12_144704:460,-0.486023,-0.027435,-0.115906,-0.0072180000000000005,-0.00458,0.004021,-46.369999,6.0,6.68,3a
2019-07-12_144704:480,-0.489075,-0.031494,-0.111847,-0.00615,-0.0036030000000000003,0.0037159999999999997,-46.369999,6.0,6.68,3a
2019-07-12_144704:500,-0.488068,-0.029480000000000003,-0.11438,-0.005265,-0.002657,0.0019149999999999998,-46.060001,5.56,7.87,3a
2019-07-12_144704:520,-0.484497,-0.024902,-0.11233499999999999,-0.004472,-0.001925,0.001213,-46.060001,5.56,7.87,3a
2019-07-12_144704:540,-0.486023,-0.024384,-0.11386099999999999,-0.003953,-0.001864,0.0009390000000000001,-46.060001,5.56,7.87,3a
2019-07-12_144704:560,-0.489594,-0.021332,-0.111847,-0.003861,-0.001864,0.000359,-46.369999,6.25,6.25,3a
2019-07-12_144704:580,-0.48858599999999996,-0.020844,-0.109802,-0.003404,-0.001376,0.000542,-46.369999,6.25,6.25,3a
2019-07-12_144704:600,-0.490601,-0.019806,-0.111328,-0.002671,-0.0009789999999999998,0.001152,-46.369999,7.37,6.68,3a
2019-07-12_144704:620,-0.489594,-0.016266,-0.108795,-0.001939,-0.000521,0.000542,-46.369999,7.37,6.68,3a
2019-07-12_144704:640,-0.48196400000000006,-0.007599,-0.113373,-0.001084,-0.000643,-0.001045,-46.369999,7.37,6.68,3a
2019-07-12_144704:660,-0.475372,-0.001495,-0.11233499999999999,-0.0018780000000000001,-0.0016809999999999998,-0.001716,-46.060001,6.25,7.06,3a
2019-07-12_144704:680,-0.48043800000000003,0.0030210000000000002,-0.112854,-0.003221,-0.003848,-3.8e-05,-46.060001,6.25,7.06,3a
2019-07-12_144704:700,-0.48300200000000004,0.004059,-0.115906,-0.005143,-0.005068,0.002129,-46.75,6.0,6.68,3a
2019-07-12_144704:720,-0.490112,0.0,-0.114899,-0.007829000000000001,-0.004855,0.003655,-46.75,6.0,6.68,3a
2019-07-12_144704:740,-0.494171,-0.001007,-0.119476,-0.009812000000000001,-0.0034509999999999996,0.00457,-46.75,6.0,6.68,3a
2019-07-12_144704:760,-0.490601,-0.008118,-0.119965,-0.01201,-0.002352,0.005547,-46.369999,6.25,6.68,3a
2019-07-12_144704:780,-0.488068,-0.012695,-0.11795,-0.012986000000000001,-0.000857,0.006096,-46.369999,6.25,6.68,3a
2019-07-12_144704:800,-0.488068,-0.019318000000000002,-0.11795,-0.013138999999999998,-0.000521,0.005425,-46.369999,5.18,6.25,3a
2019-07-12_144704:820,-0.48706099999999997,-0.022369,-0.11538699999999999,-0.012589,0.000303,0.004631000000000001,-46.369999,5.18,6.25,3a
2019-07-12_144704:840,-0.471283,-0.022858,-0.117432,-0.011125,-9.4e-05,0.004967,-46.369999,5.18,6.25,3a
2019-07-12_144704:860,-0.48300200000000004,-0.025908999999999998,-0.11691300000000002,-0.009599,-0.001437,0.004631000000000001,-46.75,7.06,5.87,3a
2019-07-12_144704:880,-0.475861,-0.024384,-0.119476,-0.008622,-0.0024739999999999996,0.003319,-46.75,7.06,5.87,3a
2019-07-12_144704:900,-0.47433500000000006,-0.026917,-0.12048299999999999,-0.008073,-0.0042439999999999995,0.003105,-46.369999,6.0,6.25,3a
2019-07-12_144704:920,-0.49111899999999997,-0.029968,-0.115906,-0.007829000000000001,-0.004336,0.004052,-46.369999,6.0,6.25,3a
2019-07-12_144704:940,-0.49316400000000005,-0.032013,-0.111847,-0.007035,-0.003054,0.004418,-46.369999,6.0,6.25,3a
2019-07-12_144704:960,-0.47995,-0.034058,-0.108795,-0.005723,-0.002078,0.0029219999999999997,-47.560001,6.25,7.06,3a
2019-07-12_144704:980,-0.47180200000000005,-0.032013,-0.108276,-0.004533,-0.0028710000000000003,0.000695,-47.560001,6.25,7.06,3a
2019-07-12_144705:000,-0.461639,-0.027954000000000003,-0.11080899999999999,-0.003922,-0.005465,-9.9e-05,-46.369999,6.68,6.68,3a
2019-07-12_144705:020,-0.46417200000000003,-0.024384,-0.11080899999999999,-0.003129,-0.008517,-3.8e-05,-46.369999,6.68,6.68,3a
2019-07-12_144705:040,-0.47079499999999996,-0.020844,-0.11233499999999999,-0.002671,-0.010836,-0.00037400000000000004,-46.369999,6.68,6.68,3a
2019-07-12_144705:060,-0.477386,-0.01828,-0.111847,-0.002671,-0.012423,-0.001106,-46.75,7.06,5.5,3a
2019-07-12_144705:080,-0.48196400000000006,-0.013702,-0.11233499999999999,-0.00203,-0.013368999999999999,-0.001106,-46.75,7.06,5.5,3a
2019-07-12_144705:100,-0.477386,-0.011169,-0.116425,-0.0018170000000000003,-0.013613,0.00042,-46.369999,5.56,5.06,3a
2019-07-12_144705:120,-0.478912,-0.008636,-0.12558,-0.001756,-0.014468,0.001396,-46.369999,5.56,5.06,3a
2019-07-12_144705:140,-0.484497,-0.010162000000000001,-0.129639,-0.0018170000000000003,-0.015231,0.0016710000000000002,-46.369999,5.56,5.06,3a
2019-07-12_144705:160,-0.49517799999999995,-0.009644,-0.133698,-0.002,-0.014681,0.002037,-46.369999,6.0,5.5,3a
2019-07-12_144705:180,-0.497742,-0.009644,-0.139282,-0.0024879999999999998,-0.012759,0.003624,-46.369999,6.0,5.5,3a
2019-07-12_144705:200,-0.491638,-0.012695,-0.150482,-0.003007,-0.010439,0.004448,-46.369999,6.0,4.68,3a
2019-07-12_144705:220,-0.489075,-0.012695,-0.15506,-0.004136,-0.009249,0.0037770000000000004,-46.369999,6.0,4.68,3a
2019-07-12_144705:240,-0.49365200000000004,-0.014740000000000001,-0.156586,-0.004807,-0.007509999999999999,0.0037159999999999997,-46.369999,6.0,4.68,3a
2019-07-12_144705:260,-0.49722299999999997,-0.016753999999999998,-0.153534,-0.00554,-0.004519,0.004357,-46.75,6.25,5.87,3a
2019-07-12_144705:280,-0.49468999999999996,-0.018799,-0.149475,-0.006181,-0.0009789999999999998,0.004845,-46.75,6.25,5.87,3a
2019-07-12_144705:300,-0.488068,-0.022369,-0.145386,-0.007156999999999999,0.0019510000000000003,0.005181,-45.68,6.68,5.06,3a
2019-07-12_144705:320,-0.484497,-0.023375999999999997,-0.145905,-0.007279000000000001,0.003751,0.004052,-45.68,6.68,5.06,3a
2019-07-12_144705:340,-0.47689799999999993,-0.024384,-0.137756,-0.007829000000000001,0.00485,0.002983,-45.68,6.68,5.06,3a
2019-07-12_144705:360,-0.47433500000000006,-0.026427999999999997,-0.136749,-0.0074930000000000005,0.004545,0.004448,-46.75,6.25,5.06,3a
2019-07-12_144705:380,-0.476379,-0.028961,-0.135742,-0.006944,0.0040869999999999995,0.005913,-46.75,6.25,5.06,3a
2019-07-12_144705:400,-0.474854,-0.031006,-0.131653,-0.0067,0.003995,0.005364,-47.18,5.56,4.25,3a
2019-07-12_144705:420,-0.469757,-0.029968,-0.128601,-0.006486,0.0035380000000000003,0.004631000000000001,-47.18,5.56,4.25,3a
2019-07-12_144705:440,-0.47079499999999996,-0.031006,-0.129639,-0.00615,0.002531,0.00515,-47.18,5.56,4.25,3a
2019-07-12_144705:460,-0.46823100000000006,-0.033539,-0.13269,-0.005784,0.000608,0.004784,-46.75,7.06,5.5,3a
2019-07-12_144705:480,-0.47079499999999996,-0.036072,-0.132172,-0.005601,-0.000857,0.004235,-46.75,7.06,5.5,3a
2019-07-12_144705:500,-0.47689799999999993,-0.035583,-0.135742,-0.005082,-0.001955,0.0038380000000000003,-46.060001,6.68,6.25,3a
2019-07-12_144705:520,-0.48095699999999997,-0.036072,-0.134216,-0.004533,-0.002261,0.003319,-46.060001,6.68,6.25,3a
2019-07-12_144705:540,-0.48300200000000004,-0.038116000000000004,-0.134216,-0.004197,-0.0017420000000000003,0.002434,-46.060001,6.68,6.25,3a
2019-07-12_144705:560,-0.492126,-0.036591000000000005,-0.133179,-0.0038,-0.00045999999999999996,0.0017629999999999998,-46.369999,7.0,5.5,3a
2019-07-12_144705:580,-0.49316400000000005,-0.037598,-0.130127,-0.003404,0.0014320000000000001,0.001091,-46.369999,7.0,5.5,3a
2019-07-12_144705:600,-0.48553500000000005,-0.032532,-0.128601,-0.0029460000000000003,0.0029579999999999997,0.00042,-46.369999,7.06,5.5,3a
2019-07-12_144705:620,-0.478912,-0.028442000000000002,-0.128601,-0.0028239999999999997,0.00366,0.000695,-46.369999,7.06,5.5,3a
2019-07-12_144705:640,-0.475861,-0.026917,-0.12658699999999998,-0.003404,0.0035380000000000003,0.001335,-46.369999,7.06,5.5,3a
2019-07-12_144705:660,-0.474854,-0.026917,-0.126068,-0.00435,0.0029579999999999997,0.00161,-47.18,6.25,5.06,3a
2019-07-12_144705:680,-0.476379,-0.026917,-0.12353499999999999,-0.005386999999999999,0.002134,0.00161,-47.18,6.25,5.06,3a
2019-07-12_144705:700,-0.48095699999999997,-0.027954000000000003,-0.12353499999999999,-0.0063030000000000004,0.0019510000000000003,0.0014880000000000002,-47.18,6.68,5.06,3a
2019-07-12_144705:720,-0.48654200000000003,-0.028961,-0.12301600000000001,-0.0072180000000000005,0.0015539999999999998,0.001091,-47.18,6.68,5.06,3a
2019-07-12_144705:740,-0.488068,-0.032013,-0.12149000000000001,-0.0076760000000000005,0.001615,0.0014269999999999999,-47.18,6.68,5.06,3a
2019-07-12_144705:760,-0.477386,-0.031006,-0.12149000000000001,-0.007768000000000001,0.002286,0.001732,-46.75,6.68,5.5,3a
2019-07-12_144705:780,-0.48754899999999995,-0.03302,-0.122528,-0.007279000000000001,0.002134,0.001213,-46.75,6.68,5.5,3a
2019-07-12_144705:800,-0.482483,-0.031494,-0.12506099999999998,-0.0067,0.001493,-0.00018999999999999998,-46.75,7.0,5.87,3a
2019-07-12_144705:820,-0.47689799999999993,-0.030487,-0.12149000000000001,-0.0065769999999999995,0.0007610000000000001,-0.000251,-46.75,7.0,5.87,3a
2019-07-12_144705:840,-0.48196400000000006,-0.031494,-0.122528,-0.005845,-0.000185,0.000542,-46.75,7.0,5.87,3a
2019-07-12_144705:860,-0.48196400000000006,-0.034058,-0.12048299999999999,-0.004807,-0.000307,0.00042,-46.369999,7.06,6.25,3a
2019-07-12_144705:880,-0.481476,-0.032013,-0.12301600000000001,-0.003221,-0.000704,-0.000709,-46.369999,7.06,6.25,3a
2019-07-12_144705:900,-0.47943100000000005,-0.030487,-0.119965,-0.0018780000000000001,-0.00036899999999999997,-0.000648,-46.369999,6.68,6.25,3a
2019-07-12_144705:920,-0.47943100000000005,-0.027435,-0.11843900000000002,-0.000688,-0.000643,-0.000587,-46.369999,6.68,6.25,3a
2019-07-12_144705:940,-0.481476,-0.023895,-0.12200899999999999,-0.00047400000000000003,-0.001254,-0.000709,-46.369999,6.68,6.25,3a
2019-07-12_144705:960,-0.47842399999999996,-0.021332,-0.12301600000000001,-0.000901,-0.001437,-0.000831,-46.75,6.25,7.5,3a
2019-07-12_144705:980,-0.476379,-0.01828,-0.12301600000000001,-0.0016640000000000001,-0.0017420000000000003,-0.001228,-46.75,6.25,7.5,3a
2019-07-12_144706:000,-0.475372,-0.016266,-0.122528,-0.002793,-0.002718,-0.002235,-46.369999,7.06,6.68,3a
2019-07-12_144706:020,-0.47689799999999993,-0.015228,-0.12454200000000001,-0.003861,-0.003268,-0.002449,-46.369999,7.06,6.68,3a
2019-07-12_144706:040,-0.47689799999999993,-0.014221000000000001,-0.12558,-0.004746,-0.004061,-0.0018989999999999999,-46.369999,7.06,6.68,3a
2019-07-12_144706:060,-0.47943100000000005,-0.014221000000000001,-0.12506099999999998,-0.005386999999999999,-0.004336,-0.001381,-46.75,6.25,5.87,3a
2019-07-12_144706:080,-0.48043800000000003,-0.014740000000000001,-0.12454200000000001,-0.005845,-0.004336,-0.00043499999999999995,-46.75,6.25,5.87,3a
2019-07-12_144706:100,-0.48300200000000004,-0.016753999999999998,-0.127106,-0.005967,-0.004,0.0007559999999999999,-45.68,5.56,6.25,3a
2019-07-12_144706:120,-0.48654200000000003,-0.016753999999999998,-0.12658699999999998,-0.00615,-0.0036030000000000003,0.002037,-45.68,5.56,6.25,3a
2019-07-12_144706:140,-0.490112,-0.018799,-0.127594,-0.006242,-0.00281,0.002648,-45.68,5.56,6.25,3a
2019-07-12_144706:160,-0.490112,-0.019806,-0.127594,-0.0063030000000000004,-0.001864,0.0035020000000000003,-46.369999,6.68,5.87,3a
2019-07-12_144706:180,-0.494171,-0.021332,-0.12454200000000001,-0.006181,-0.0011619999999999998,0.004448,-46.369999,6.68,5.87,3a
2019-07-12_144706:200,-0.49517799999999995,-0.022858,-0.124054,-0.0063030000000000004,-3.3e-05,0.004448,-46.060001,6.0,5.87,3a
2019-07-12_144706:220,-0.490601,-0.022858,-0.117432,-0.0065769999999999995,0.0010960000000000002,0.003258,-46.060001,6.0,5.87,3a
2019-07-12_144706:240,-0.477386,-0.022369,-0.11843900000000002,-0.006883,0.001737,0.003228,-46.060001,6.0,5.87,3a
2019-07-12_144706:260,-0.482483,-0.025421,-0.11843900000000002,-0.006425,0.00134,0.00396,-46.369999,6.25,5.87,3a
2019-07-12_144706:280,-0.47280900000000003,-0.025421,-0.119476,-0.006364,8.9e-05,0.002251,-46.369999,6.25,5.87,3a
2019-07-12_144706:300,-0.467224,-0.022858,-0.11795,-0.0063030000000000004,-0.001315,0.001396,-46.369999,6.68,7.5,3a
2019-07-12_144706:320,-0.47332799999999997,-0.023375999999999997,-0.121002,-0.006181,-0.003146,0.002373,-46.369999,6.68,7.5,3a
2019-07-12_144706:340,-0.47280900000000003,-0.022858,-0.12048299999999999,-0.00615,-0.004336,0.002892,-46.369999,6.68,7.5,3a
2019-07-12_144706:360,-0.474854,-0.021332,-0.121002,-0.006639,-0.005129,0.002495,-46.75,5.56,5.06,3a
2019-07-12_144706:380,-0.48095699999999997,-0.021332,-0.12301600000000001,-0.0072180000000000005,-0.0057399999999999994,0.002526,-46.75,5.56,5.06,3a
2019-07-12_144706:400,-0.48196400000000006,-0.022858,-0.12353499999999999,-0.007554000000000001,-0.005984000000000001,0.0023120000000000003,-46.369999,6.68,5.5,3a
2019-07-12_144706:420,-0.485016,-0.022858,-0.12454200000000001,-0.008073,-0.006197,0.0017629999999999998,-46.369999,6.68,5.5,3a
2019-07-12_144706:440,-0.48858599999999996,-0.025421,-0.12558,-0.007951,-0.006045,0.002098,-46.369999,6.68,5.5,3a
2019-07-12_144706:460,-0.489075,-0.027954000000000003,-0.128601,-0.007615,-0.0049770000000000005,0.002648,-46.369999,6.25,6.25,3a
2019-07-12_144706:480,-0.489594,-0.026917,-0.127106,-0.006973999999999999,-0.003878,0.0021899999999999997,-46.369999,6.25,6.25,3a
2019-07-12_144706:500,-0.48654200000000003,-0.026427999999999997,-0.128113,-0.0065769999999999995,-0.0027489999999999997,0.0019149999999999998,-46.369999,6.0,5.87,3a
2019-07-12_144706:520,-0.48553500000000005,-0.026427999999999997,-0.127594,-0.006181,-0.0016809999999999998,0.002373,-46.369999,6.0,5.87,3a
2019-07-12_144706:540,-0.481476,-0.025908999999999998,-0.128601,-0.006028,-0.001315,0.002434,-46.369999,6.0,5.87,3a
2019-07-12_144706:560,-0.48196400000000006,-0.023895,-0.127594,-0.00615,-0.0007650000000000001,0.0017929999999999999,-46.75,6.25,5.87,3a
2019-07-12_144706:580,-0.48196400000000006,-0.023375999999999997,-0.126068,-0.006242,-0.0009789999999999998,0.0014880000000000002,-46.75,6.25,5.87,3a
2019-07-12_144706:600,-0.482483,-0.024384,-0.12506099999999998,-0.0065769999999999995,-0.001254,0.001549,-46.060001,6.25,5.06,3a
2019-07-12_144706:620,-0.48349,-0.023895,-0.122528,-0.0067,-0.0012230000000000001,0.001396,-46.060001,6.25,5.06,3a
2019-07-12_144706:640,-0.48349,-0.025421,-0.12558,-0.006639,-0.0010400000000000001,0.000695,-46.060001,6.25,5.06,3a
2019-07-12_144706:660,-0.481476,-0.024902,-0.124054,-0.0063030000000000004,-0.0007650000000000001,0.000298,-46.060001,6.68,5.06,3a
2019-07-12_144706:680,-0.482483,-0.024902,-0.12200899999999999,-0.005906000000000001,-0.000521,0.000267,-46.060001,6.68,5.06,3a
2019-07-12_144706:700,-0.48300200000000004,-0.022858,-0.12149000000000001,-0.005326,-0.000643,0.00042,-47.18,6.68,5.5,3a
2019-07-12_144706:720,-0.482483,-0.022858,-0.118958,-0.005326,-0.000307,0.000695,-47.18,6.68,5.5,3a
2019-07-12_144706:740,-0.47842399999999996,-0.022369,-0.119965,-0.004746,-0.0009789999999999998,0.001549,-47.18,6.68,5.5,3a
2019-07-12_144706:760,-0.475861,-0.021332,-0.12454200000000001,-0.004807,-0.0018030000000000001,0.000206,-46.369999,6.0,6.25,3a
2019-07-12_144706:780,-0.474854,-0.016753999999999998,-0.12301600000000001,-0.005052,-0.003207,-0.001381,-46.369999,6.0,6.25,3a
2019-07-12_144706:800,-0.47332799999999997,-0.017273,-0.12301600000000001,-0.00554,-0.004336,0.000145,-46.75,6.0,5.5,3a
2019-07-12_144706:820,-0.47943100000000005,-0.019806,-0.12506099999999998,-0.005448,-0.004733,0.0014880000000000002,-46.75,6.0,5.5,3a
2019-07-12_144706:840,-0.478912,-0.01828,-0.126068,-0.005601,-0.004855,0.001213,-46.75,6.0,5.5,3a
2019-07-12_144706:860,-0.47995,-0.018799,-0.127594,-0.0056619999999999995,-0.00461,0.001732,-46.75,6.25,6.68,3a
2019-07-12_144706:880,-0.47943100000000005,-0.021332,-0.12912,-0.005815,-0.00458,0.002526,-46.75,6.25,6.68,3a
2019-07-12_144706:900,-0.481476,-0.021332,-0.13269,-0.006425,-0.004855,0.002251,-47.18,6.0,5.5,3a
2019-07-12_144706:920,-0.48095699999999997,-0.021332,-0.131165,-0.007156999999999999,-0.004855,0.002129,-47.18,6.0,5.5,3a
2019-07-12_144706:940,-0.482483,-0.023895,-0.133179,-0.007615,-0.005068,0.002251,-47.18,6.0,5.5,3a
2019-07-12_144706:960,-0.48300200000000004,-0.026427999999999997,-0.133698,-0.0076760000000000005,-0.004855,0.000817,-46.75,6.0,5.06,3a
2019-07-12_144706:980,-0.48196400000000006,-0.025908999999999998,-0.132172,-0.0074930000000000005,-0.004275,-0.000526,-46.75,6.0,5.06,3a
2019-07-12_144707:000,-0.48196400000000006,-0.025908999999999998,-0.134705,-0.006822,-0.003848,-0.000129,-46.75,5.56,5.06,3a
2019-07-12_144707:020,-0.48043800000000003,-0.023895,-0.13269,-0.00615,-0.003268,-0.000251,-46.75,5.56,5.06,3a
2019-07-12_144707:040,-0.47943100000000005,-0.022858,-0.134216,-0.00554,-0.00281,-0.00043499999999999995,-46.75,5.56,5.06,3a
2019-07-12_144707:060,-0.477386,-0.020325,-0.134705,-0.005082,-0.00281,-0.000129,-47.18,6.25,5.06,3a
2019-07-12_144707:080,-0.47689799999999993,-0.017273,-0.134705,-0.004685,-0.003268,-9.9e-05,-47.18,6.25,5.06,3a
2019-07-12_144707:100,-0.47842399999999996,-0.016266,-0.133698,-0.004991,-0.003542,-9.9e-05,-47.18,7.0,5.5,3a
2019-07-12_144707:120,-0.478912,-0.015228,-0.134705,-0.005143,-0.004,2.3e-05,-47.18,7.0,5.5,3a
2019-07-12_144707:140,-0.47943100000000005,-0.016266,-0.134216,-0.005448,-0.0042439999999999995,0.000817,-47.18,7.0,5.5,3a
2019-07-12_144707:160,-0.484009,-0.017273,-0.134705,-0.005386999999999999,-0.003939,0.001549,-46.060001,5.56,5.5,3a
2019-07-12_144707:180,-0.484497,-0.015747,-0.134216,-0.005265,-0.003939,0.0019149999999999998,-46.060001,5.56,5.5,3a
2019-07-12_144707:200,-0.48349,-0.017273,-0.13269,-0.005143,-0.002718,0.002526,-47.18,6.0,5.06,3a
2019-07-12_144707:220,-0.478912,-0.015747,-0.134705,-0.005386999999999999,-0.001955,0.0037770000000000004,-47.18,6.0,5.06,3a
2019-07-12_144707:240,-0.476379,-0.017792,-0.135742,-0.005265,-0.002261,0.003899,-47.18,6.0,5.06,3a
2019-07-12_144707:260,-0.47280900000000003,-0.016266,-0.137268,-0.005815,-0.002993,0.0019760000000000003,-47.18,6.0,3.87,3a
2019-07-12_144707:280,-0.47433500000000006,-0.016753999999999998,-0.137756,-0.006425,-0.004275,0.003258,-47.18,6.0,3.87,3a
2019-07-12_144707:300,-0.478912,-0.01828,-0.13623,-0.006547,-0.00458,0.005303,-46.75,6.0,3.87,3a
2019-07-12_144707:320,-0.47995,-0.021332,-0.135223,-0.007156999999999999,-0.004,0.00457,-46.75,6.0,3.87,3a
2019-07-12_144707:340,-0.477905,-0.020844,-0.135742,-0.00731,-0.003268,0.0038380000000000003,-46.75,6.0,3.87,3a
2019-07-12_144707:360,-0.475861,-0.022858,-0.139801,-0.00731,-0.003207,0.004509,-46.75,6.25,4.68,3a
2019-07-12_144707:380,-0.477386,-0.024902,-0.139282,-0.0072180000000000005,-0.0036030000000000003,0.004448,-46.75,6.25,4.68,3a
2019-07-12_144707:400,-0.47842399999999996,-0.024902,-0.140808,-0.007035,-0.0042439999999999995,0.00396,-47.560001,6.25,4.25,3a
2019-07-12_144707:420,-0.482483,-0.027435,-0.141846,-0.0067,-0.0042439999999999995,0.003655,-47.560001,6.25,4.25,3a
2019-07-12_144707:440,-0.482483,-0.025421,-0.14386,-0.005967,-0.0034509999999999996,0.002892,-47.560001,6.25,4.25,3a
2019-07-12_144707:460,-0.48196400000000006,-0.026427999999999997,-0.143372,-0.005784,-0.0027489999999999997,0.002709,-47.18,6.0,4.25,3a
2019-07-12_144707:480,-0.481476,-0.025908999999999998,-0.141846,-0.005448,-0.0018030000000000001,0.00277,-47.18,6.0,4.25,3a
2019-07-12_144707:500,-0.482483,-0.026427999999999997,-0.140808,-0.005448,-0.000704,0.0023120000000000003,-46.75,6.68,4.68,3a
2019-07-12_144707:520,-0.47943100000000005,-0.024384,-0.136749,-0.005386999999999999,-0.00036899999999999997,0.0017929999999999999,-46.75,6.68,4.68,3a
2019-07-12_144707:540,-0.477905,-0.021851,-0.139801,-0.005723,-0.000582,0.0019760000000000003,-46.75,6.68,4.68,3a
2019-07-12_144707:560,-0.47433500000000006,-0.023375999999999997,-0.139282,-0.006028,-0.000857,0.0016710000000000002,-46.75,7.06,3.5,3a
2019-07-12_144707:580,-0.475861,-0.021851,-0.13623,-0.006242,-0.001254,0.001549,-46.75,7.06,3.5,3a
2019-07-12_144707:600,-0.475372,-0.021332,-0.139282,-0.0063030000000000004,-0.001376,0.0017629999999999998,-46.369999,6.68,4.25,3a
2019-07-12_144707:620,-0.475372,-0.021851,-0.13623,-0.006822,-0.001559,0.002037,-46.369999,6.68,4.25,3a
2019-07-12_144707:640,-0.476379,-0.021332,-0.13623,-0.006944,-0.002139,0.002495,-46.369999,6.68,4.25,3a
2019-07-12_144707:660,-0.48043800000000003,-0.020844,-0.137756,-0.007156999999999999,-0.002016,0.002648,-46.369999,5.56,4.25,3a
2019-07-12_144707:680,-0.481476,-0.020844,-0.133179,-0.007890000000000001,-0.001925,0.0034409999999999996,-46.369999,5.56,4.25,3a
2019-07-12_144707:700,-0.47433500000000006,-0.020325,-0.137756,-0.007951,-0.001955,0.003899,-46.75,6.25,4.25,3a
2019-07-12_144707:720,-0.48043800000000003,-0.025421,-0.138794,-0.008683,-0.002078,0.0017629999999999998,-46.75,6.25,4.25,3a
2019-07-12_144707:740,-0.47842399999999996,-0.022858,-0.139282,-0.009355,-0.002535,0.002037,-46.75,6.25,4.25,3a
2019-07-12_144707:760,-0.477905,-0.023375999999999997,-0.138794,-0.009141,-0.002535,0.003319,-46.369999,7.37,4.68,3a
2019-07-12_144707:780,-0.484497,-0.028442000000000002,-0.13623,-0.008805,-0.001559,0.003319,-46.369999,7.37,4.68,3a
2019-07-12_144707:800,-0.48043800000000003,-0.027954000000000003,-0.135742,-0.008836,-0.000918,0.002434,-46.75,6.25,4.25,3a
2019-07-12_144707:820,-0.47943100000000005,-0.026917,-0.134705,-0.008409,-9.4e-05,0.0030440000000000003,-46.75,6.25,4.25,3a
2019-07-12_144707:840,-0.475372,-0.027954000000000003,-0.134216,-0.007768000000000001,-0.000521,0.003105,-46.75,6.25,4.25,3a
2019-07-12_144707:860,-0.471283,-0.028442000000000002,-0.133179,-0.008012,-0.0011619999999999998,0.002434,-46.75,7.37,3.06,3a
2019-07-12_144707:880,-0.470276,-0.025421,-0.135223,-0.0076760000000000005,-0.002535,0.0028309999999999997,-46.75,7.37,3.06,3a
2019-07-12_144707:900,-0.47180200000000005,-0.026917,-0.133179,-0.0072180000000000005,-0.00339,0.003319,-46.060001,7.37,4.68,3a
2019-07-12_144707:920,-0.46926899999999994,-0.026917,-0.135742,-0.007615,-0.004122,0.0034409999999999996,-46.060001,7.37,4.68,3a
2019-07-12_144707:940,-0.47433500000000006,-0.025908999999999998,-0.136749,-0.0076760000000000005,-0.004672,0.00396,-46.060001,7.37,4.68,3a
2019-07-12_144707:960,-0.475372,-0.026427999999999997,-0.141846,-0.007951,-0.004915999999999999,0.004174000000000001,-46.369999,6.25,4.25,3a
2019-07-12_144707:980,-0.478912,-0.026917,-0.141327,-0.008622,-0.0049770000000000005,0.0038380000000000003,-46.369999,6.25,4.25,3a
2019-07-12_144708:000,-0.48196400000000006,-0.026917,-0.144897,-0.009202,-0.004397,0.004235,-46.75,7.0,3.06,3a
2019-07-12_144708:020,-0.484009,-0.027435,-0.145905,-0.00969,-0.003848,0.004052,-46.75,7.0,3.06,3a
2019-07-12_144708:040,-0.486023,-0.030487,-0.14743,-0.010026,-0.003146,0.0030440000000000003,-46.75,7.0,3.06,3a
2019-07-12_144708:060,-0.48706099999999997,-0.031494,-0.14843800000000001,-0.010148,-0.00281,0.002495,-46.75,7.0,4.25,3a
2019-07-12_144708:080,-0.486023,-0.031006,-0.144897,-0.009141,-0.001376,0.001732,-46.75,7.0,4.25,3a
2019-07-12_144708:100,-0.484009,-0.032532,-0.145905,-0.008561,-0.000826,0.001732,-46.75,7.0,5.06,3a
2019-07-12_144708:120,-0.48553500000000005,-0.028961,-0.144897,-0.007370999999999999,0.000303,0.001732,-46.75,7.0,5.06,3a
2019-07-12_144708:140,-0.48300200000000004,-0.027435,-0.144897,-0.006883,0.0015539999999999998,0.001396,-46.75,7.0,5.06,3a
2019-07-12_144708:160,-0.47689799999999993,-0.023375999999999997,-0.14032,-0.007095999999999999,0.001493,0.001396,-47.18,7.0,3.5,3a
2019-07-12_144708:180,-0.47079499999999996,-0.021332,-0.137756,-0.007035,0.000883,0.000603,-47.18,7.0,3.5,3a
2019-07-12_144708:200,-0.477386,-0.019318000000000002,-0.139801,-0.00731,0.000547,-0.000984,-46.75,7.37,5.06,3a
2019-07-12_144708:220,-0.46823100000000006,-0.014221000000000001,-0.139801,-0.008805,-0.000826,-0.000251,-46.75,7.37,5.06,3a
2019-07-12_144708:240,-0.46823100000000006,-0.014221000000000001,-0.139801,-0.008958,-0.002078,0.003563,-46.75,7.37,5.06,3a
2019-07-12_144708:260,-0.471283,-0.017792,-0.143372,-0.009415999999999999,-0.002657,0.004296,-46.060001,7.37,4.68,3a
2019-07-12_144708:280,-0.476379,-0.019318000000000002,-0.142334,-0.010148,-0.003481,0.0033799999999999998,-46.060001,7.37,4.68,3a
2019-07-12_144708:300,-0.47842399999999996,-0.018799,-0.144379,-0.01027,-0.003481,0.003563,-46.75,7.0,4.68,3a
2019-07-12_144708:320,-0.477905,-0.021851,-0.145905,-0.009934,-0.00281,0.003624,-46.75,7.0,4.68,3a
2019-07-12_144708:340,-0.481476,-0.021851,-0.146423,-0.009751000000000001,-0.002016,0.0023120000000000003,-46.75,7.0,4.68,3a
2019-07-12_144708:360,-0.478912,-0.019806,-0.145386,-0.009629,-0.001437,0.0021899999999999997,-46.060001,7.75,3.5,3a
2019-07-12_144708:380,-0.47842399999999996,-0.019806,-0.142334,-0.009294,-0.000582,0.0029219999999999997,-46.060001,7.75,3.5,3a
2019-07-12_144708:400,-0.473846,-0.021332,-0.143372,-0.009019,-0.000582,0.002709,-46.060001,7.37,3.87,3a
2019-07-12_144708:420,-0.471283,-0.021332,-0.14386,-0.008103,-0.00162,0.003167,-46.060001,7.37,3.87,3a
2019-07-12_144708:440,-0.472321,-0.022369,-0.142334,-0.007431999999999999,-0.0024129999999999998,0.003655,-46.060001,7.37,3.87,3a
2019-07-12_144708:460,-0.469757,-0.022369,-0.143372,-0.007279000000000001,-0.002718,0.00396,-46.75,7.75,4.68,3a
2019-07-12_144708:480,-0.47433500000000006,-0.022369,-0.142853,-0.006944,-0.003085,0.00515,-46.75,7.75,4.68,3a
2019-07-12_144708:500,-0.47842399999999996,-0.022858,-0.144897,-0.006883,-0.0027489999999999997,0.005547,-46.369999,7.75,3.5,3a
2019-07-12_144708:520,-0.478912,-0.025421,-0.145386,-0.007554000000000001,-0.0024129999999999998,0.005242,-46.369999,7.75,3.5,3a
2019-07-12_144708:540,-0.48043800000000003,-0.027435,-0.145905,-0.0077069999999999994,-0.002352,0.0054859999999999996,-46.369999,7.75,3.5,3a
2019-07-12_144708:560,-0.477905,-0.03302,-0.145905,-0.0077069999999999994,-0.001925,0.005547,-47.18,7.75,3.06,3a
2019-07-12_144708:580,-0.477386,-0.035065,-0.145905,-0.006973999999999999,-0.001559,0.005303,-47.18,7.75,3.06,3a
2019-07-12_144708:600,-0.477386,-0.039124,-0.146912,-0.006364,-0.00162,0.005425,-46.75,7.75,4.25,3a
2019-07-12_144708:620,-0.477905,-0.041687,-0.147949,-0.004197,-0.0010400000000000001,0.005364,-46.75,7.75,4.25,3a
2019-07-12_144708:640,-0.477386,-0.038635,-0.146423,-0.0035259999999999996,-0.000918,0.005761,-46.75,7.75,4.25,3a
2019-07-12_144708:660,-0.472321,-0.038635,-0.145386,-0.002793,-0.000857,0.005638000000000001,-46.060001,7.75,4.25,3a
2019-07-12_144708:680,-0.48043800000000003,-0.036591000000000005,-0.14743,-0.002885,-0.000521,0.001152,-46.060001,7.75,4.25,3a
2019-07-12_144708:700,-0.477386,-0.029968,-0.143372,-0.00316,-0.00043,0.000298,-47.18,7.75,5.06,3a
2019-07-12_144708:720,-0.47689799999999993,-0.030487,-0.144897,-0.003404,-0.000185,0.001335,-47.18,7.75,5.06,3a
2019-07-12_144708:740,-0.48043800000000003,-0.031494,-0.142334,-0.0036780000000000003,0.000303,0.000206,-47.18,7.75,5.06,3a
2019-07-12_144708:760,-0.47689799999999993,-0.028442000000000002,-0.141327,-0.003861,0.000608,-0.000251,-46.369999,7.75,3.87,3a
2019-07-12_144708:780,-0.476379,-0.026917,-0.139282,-0.003282,0.0010960000000000002,0.001,-46.369999,7.75,3.87,3a
2019-07-12_144708:800,-0.47332799999999997,-0.026427999999999997,-0.139282,-0.003343,0.000822,0.0014880000000000002,-46.369999,7.75,3.87,3a
2019-07-12_144708:820,-0.475861,-0.024902,-0.139801,-0.0035259999999999996,-0.000124,0.002098,-46.060001,8.5,4.25,3a
2019-07-12_144708:840,-0.47689799999999993,-0.024384,-0.138275,-0.003953,-0.00045999999999999996,0.003624,-46.060001,8.5,4.25,3a
2019-07-12_144708:860,-0.477386,-0.025421,-0.139282,-0.004319,-0.000643,0.004052,-46.060001,8.18,4.25,3a
2019-07-12_144708:880,-0.47995,-0.027954000000000003,-0.139282,-0.005601,-0.000704,0.003563,-46.060001,8.18,4.25,3a
2019-07-12_144708:900,-0.481476,-0.029968,-0.139801,-0.005906000000000001,-0.000643,0.003624,-46.369999,8.18,5.5,3a
2019-07-12_144708:920,-0.47995,-0.03302,-0.137268,-0.006242,-9.4e-05,0.003899,-46.369999,8.18,5.5,3a
2019-07-12_144708:940,-0.482483,-0.035583,-0.13623,-0.006181,0.00048600000000000005,0.0033799999999999998,-46.369999,8.18,5.5,3a
2019-07-12_144708:960,-0.481476,-0.036072,-0.135742,-0.006089,0.0007610000000000001,0.003105,-47.18,7.75,3.87,3a
2019-07-12_144708:980,-0.48196400000000006,-0.035065,-0.132172,-0.005448,0.001401,0.002587,-47.18,7.75,3.87,3a
2019-07-12_144709:000,-0.48095699999999997,-0.033539,-0.13269,-0.005265,0.001493,0.002373,-47.18,7.75,3.87,3a
2019-07-12_144709:020,-0.481476,-0.032013,-0.130127,-0.005204,0.0016760000000000002,0.002037,-46.75,8.5,5.06,3a
2019-07-12_144709:040,-0.477905,-0.029968,-0.128601,-0.0054789999999999995,0.001615,0.0021899999999999997,-46.75,8.5,5.06,3a
2019-07-12_144709:060,-0.47280900000000003,-0.030487,-0.127594,-0.005815,0.000944,0.0021899999999999997,-45.68,7.75,3.87,3a
2019-07-12_144709:080,-0.47079499999999996,-0.030487,-0.128113,-0.0065769999999999995,-0.000521,0.002434,-45.68,7.75,3.87,3a
2019-07-12_144709:100,-0.475372,-0.031494,-0.130646,-0.0067,-0.001376,0.002587,-46.75,7.75,5.06,3a
2019-07-12_144709:120,-0.47995,-0.032013,-0.128601,-0.007554000000000001,-0.002261,0.003319,-46.75,7.75,5.06,3a
2019-07-12_144709:140,-0.46823100000000006,-0.033539,-0.12912,-0.007829000000000001,-0.0022,0.0037770000000000004,-46.75,7.75,5.06,3a
2019-07-12_144709:160,-0.482483,-0.037108999999999996,-0.131653,-0.0077069999999999994,-0.0027489999999999997,0.002892,-46.060001,8.18,3.87,3a
2019-07-12_144709:180,-0.475861,-0.034058,-0.133698,-0.008348000000000001,-0.0034509999999999996,0.000695,-46.060001,8.18,3.87,3a
2019-07-12_144709:200,-0.473846,-0.03302,-0.133698,-0.00847,-0.0036030000000000003,0.0017629999999999998,-46.75,7.75,5.06,3a
2019-07-12_144709:220,-0.48349,-0.039642000000000004,-0.13623,-0.008012,-0.003848,0.003655,-46.75,7.75,5.06,3a
2019-07-12_144709:240,-0.48196400000000006,-0.039124,-0.133698,-0.00731,-0.0024739999999999996,0.0014880000000000002,-46.75,7.75,5.06,3a
2019-07-12_144709:260,-0.48349,-0.035065,-0.135223,-0.006973999999999999,-0.001955,0.001152,-46.369999,8.18,4.25,3a
2019-07-12_144709:280,-0.48300200000000004,-0.032532,-0.131165,-0.006486,-0.00036899999999999997,0.002098,-46.369999,8.18,4.25,3a
2019-07-12_144709:300,-0.48095699999999997,-0.030487,-0.130646,-0.006425,-0.00036899999999999997,0.0019760000000000003,-46.369999,8.18,4.25,3a
2019-07-12_144709:320,-0.47689799999999993,-0.028442000000000002,-0.130646,-0.008012,-0.001101,0.002129,-46.75,8.5,4.68,3a
2019-07-12_144709:340,-0.473846,-0.030487,-0.130127,-0.008225,-0.001315,0.0029219999999999997,-46.75,8.5,4.68,3a
2019-07-12_144709:360,-0.47280900000000003,-0.034058,-0.131165,-0.008958,-0.002535,0.0038380000000000003,-47.18,8.87,4.25,3a
2019-07-12_144709:380,-0.47280900000000003,-0.037598,-0.130127,-0.009141,-0.00339,0.0034409999999999996,-47.18,8.87,4.25,3a
2019-07-12_144709:400,-0.473846,-0.040649,-0.132172,-0.008683,-0.004,0.003624,-47.18,8.87,4.25,3a
2019-07-12_144709:420,-0.47433500000000006,-0.043701,-0.134216,-0.0077069999999999994,-0.004794,0.003655,-45.68,8.5,5.06,3a
2019-07-12_144709:440,-0.47689799999999993,-0.043213,-0.134705,-0.005906000000000001,-0.005007,0.002495,-45.68,8.5,5.06,3a
2019-07-12_144709:460,-0.481476,-0.042175,-0.135742,-0.005448,-0.004733,0.002434,-46.369999,8.5,4.25,3a
2019-07-12_144709:480,-0.47943100000000005,-0.042175,-0.134705,-0.00435,-0.004183,0.002098,-46.369999,8.5,4.25,3a
2019-07-12_144709:500,-0.477386,-0.038635,-0.139282,-0.003953,-0.0042439999999999995,0.001396,-46.369999,8.5,4.25,3a
2019-07-12_144709:520,-0.477386,-0.036591000000000005,-0.139282,-0.003617,-0.00461,-9.9e-05,-46.369999,8.87,4.68,3a
2019-07-12_144709:540,-0.48196400000000006,-0.032532,-0.14032,-0.003556,-0.004672,-0.000251,-46.369999,8.87,4.68,3a
2019-07-12_144709:560,-0.484497,-0.032532,-0.141327,-0.0038,-0.004061,-0.000526,-46.369999,8.5,3.06,3a
2019-07-12_144709:580,-0.481476,-0.029968,-0.139282,-0.004319,-0.002993,-0.000709,-46.369999,8.5,3.06,3a
2019-07-12_144709:600,-0.47943100000000005,-0.029480000000000003,-0.14386,-0.004869,-0.002932,8.4e-05,-46.369999,8.5,3.06,3a
2019-07-12_144709:620,-0.48196400000000006,-0.029968,-0.145905,-0.00554,-0.003054,0.001091,-46.75,8.5,4.25,3a
2019-07-12_144709:640,-0.47079499999999996,-0.032532,-0.146423,-0.006028,-0.003146,0.0023120000000000003,-46.75,8.5,4.25,3a
2019-07-12_144709:660,-0.486023,-0.03302,-0.150482,-0.0065769999999999995,-0.0034509999999999996,0.00161,-46.369999,8.18,4.68,3a
2019-07-12_144709:680,-0.48196400000000006,-0.032013,-0.145386,-0.008103,-0.002718,0.000145,-46.369999,8.18,4.68,3a
2019-07-12_144709:700,-0.477905,-0.035065,-0.148956,-0.008958,-0.00162,0.001091,-46.369999,8.18,4.68,3a
2019-07-12_144709:720,-0.481476,-0.038635,-0.147949,-0.009294,-0.001254,0.001213,-45.25,8.18,3.87,3a
2019-07-12_144709:740,-0.48196400000000006,-0.034546,-0.144897,-0.009934,-0.00043,-0.0007700000000000001,-45.25,8.18,3.87,3a
2019-07-12_144709:760,-0.48043800000000003,-0.03302,-0.14032,-0.010148,0.000822,-0.001503,-45.68,8.5,4.68,3a
2019-07-12_144709:780,-0.475861,-0.030487,-0.137756,-0.010087,0.0018899999999999998,-0.001381,-45.68,8.5,4.68,3a
2019-07-12_144709:800,-0.474854,-0.029480000000000003,-0.134705,-0.010423,0.002012,-0.000831,-45.68,8.5,4.68,3a
2019-07-12_144709:820,-0.46875,-0.03302,-0.134705,-0.011064000000000001,0.000944,0.000695,-46.75,8.18,3.87,3a
2019-07-12_144709:840,-0.46670500000000004,-0.036072,-0.134705,-0.011276999999999999,-0.00036899999999999997,0.002892,-46.75,8.18,3.87,3a
2019-07-12_144709:860,-0.47079499999999996,-0.044219999999999995,-0.135742,-0.011337999999999999,-0.0018030000000000001,0.0028309999999999997,-46.060001,7.37,4.68,3a
2019-07-12_144709:880,-0.473846,-0.046265,-0.13623,-0.010942,-0.0028710000000000003,0.001213,-46.060001,7.37,4.68,3a
2019-07-12_144709:900,-0.477905,-0.047791,-0.137756,-0.009294,-0.003146,-0.000587,-46.060001,7.37,4.68,3a
2019-07-12_144709:920,-0.476379,-0.045745999999999995,-0.137756,-0.006973999999999999,-0.0027489999999999997,-0.003029,-46.369999,8.18,3.5,3a
2019-07-12_144709:940,-0.467743,-0.036072,-0.140808,-0.004654999999999999,-0.0024129999999999998,-0.004951,-46.369999,8.18,3.5,3a
2019-07-12_144709:960,-0.459595,-0.031494,-0.14386,-0.002,-0.003146,-0.00489,-46.060001,7.37,3.5,3a
2019-07-12_144709:980,-0.45654300000000003,-0.024902,-0.148956,0.000319,-0.005068,-0.005439,-46.060001,7.37,3.5,3a
2019-07-12_144710:000,-0.46469099999999997,-0.020844,-0.151489,0.0021809999999999998,-0.007631999999999999,-0.0060799999999999995,-46.060001,7.37,3.5,3a
2019-07-12_144710:020,-0.47180200000000005,-0.014221000000000001,-0.149475,0.004287,-0.009097,-0.004707,-46.060001,7.75,3.06,3a
2019-07-12_144710:040,-0.473846,-0.010651,-0.151489,0.005935,-0.009158,-0.003486,-46.060001,7.75,3.06,3a
2019-07-12_144710:060,-0.474854,-0.002014,-0.152527,0.006362,-0.008181,-0.00309,-46.369999,7.37,3.87,3a
2019-07-12_144710:080,-0.477905,0.001007,-0.152008,0.005752,-0.007234999999999999,-0.001838,-46.369999,7.37,3.87,3a
2019-07-12_144710:100,-0.48858599999999996,0.005065999999999999,-0.151489,0.0045,-0.006503,-9.9e-05,-46.369999,7.37,3.87,3a
2019-07-12_144710:120,-0.497742,0.004059,-0.14843800000000001,0.00151,-0.004458,0.001213,-46.75,7.75,3.87,3a
2019-07-12_144710:140,-0.47180200000000005,0.0,-0.14743,-0.001939,-0.002139,0.002373,-46.75,7.75,3.87,3a
2019-07-12_144710:160,-0.477905,-0.008636,-0.155548,-0.004746,-0.002078,0.002495,-46.369999,6.68,3.06,3a
2019-07-12_144710:180,-0.46316499999999994,-0.021332,-0.161163,-0.0063030000000000004,-0.003329,0.002129,-46.369999,6.68,3.06,3a
2019-07-12_144710:200,-0.46926899999999994,-0.028961,-0.165741,-0.00554,-0.006319,0.0037770000000000004,-46.369999,6.68,3.06,3a
2019-07-12_144710:220,-0.48300200000000004,-0.038635,-0.167755,-0.003861,-0.0068379999999999995,0.00515,-46.75,7.0,3.87,3a
2019-07-12_144710:240,-0.484497,-0.040649,-0.163177,-0.001939,-0.004794,0.005303,-46.75,7.0,3.87,3a
2019-07-12_144710:260,-0.49468999999999996,-0.040161,-0.163696,0.00022799999999999999,-0.001864,0.005181,-46.75,6.68,3.5,3a
2019-07-12_144710:280,-0.492645,-0.039124,-0.159119,0.0020280000000000003,0.001401,0.0035020000000000003,-46.75,6.68,3.5,3a
2019-07-12_144710:300,-0.488068,-0.035583,-0.156067,0.003036,0.003599,0.000542,-46.75,6.68,3.5,3a
2019-07-12_144710:320,-0.482483,-0.030487,-0.153015,0.004226,0.005215999999999999,-0.001503,-46.75,7.06,3.06,3a
2019-07-12_144710:340,-0.475372,-0.022858,-0.146912,0.0045,0.006314999999999999,-0.000892,-46.75,7.06,3.06,3a
2019-07-12_144710:360,-0.47180200000000005,-0.021332,-0.146423,0.004409000000000001,0.007108,0.00042,-46.369999,7.0,2.25,3a
2019-07-12_144710:380,-0.47433500000000006,-0.016753999999999998,-0.140808,0.003036,0.006376,0.001,-46.369999,7.0,2.25,3a
2019-07-12_144710:400,-0.47689799999999993,-0.013702,-0.139801,0.001632,0.005857,0.0019760000000000003,-46.369999,7.0,2.25,3a
2019-07-12_144710:420,-0.47689799999999993,-0.015747,-0.13623,-0.0008710000000000001,0.0054600000000000004,0.003624,-47.18,7.06,4.68,3a
2019-07-12_144710:440,-0.47689799999999993,-0.016753999999999998,-0.134216,-0.003556,0.005064,0.005242,-47.18,7.06,4.68,3a
2019-07-12_144710:460,-0.473846,-0.021851,-0.131653,-0.00615,0.004728,0.006157,-46.369999,6.68,5.06,3a
2019-07-12_144710:480,-0.473846,-0.025908999999999998,-0.131165,-0.008622,0.003812,0.006829000000000001,-46.369999,6.68,5.06,3a
2019-07-12_144710:500,-0.46926899999999994,-0.032013,-0.130646,-0.010148,0.002744,0.007164,-46.369999,6.68,5.06,3a
2019-07-12_144710:520,-0.467224,-0.037598,-0.131653,-0.011125,0.001066,0.007012000000000001,-46.369999,7.0,5.06,3a
2019-07-12_144710:540,-0.466217,-0.043213,-0.131653,-0.011125,0.00021099999999999998,0.006371,-46.369999,7.0,5.06,3a
2019-07-12_144710:560,-0.461121,-0.047272,-0.13623,-0.010606,-0.000826,0.005822,-46.75,7.37,5.87,3a
2019-07-12_144710:580,-0.46316499999999994,-0.047272,-0.138794,-0.009538,-0.001925,0.004967,-46.75,7.37,5.87,3a
2019-07-12_144710:600,-0.472321,-0.045226999999999996,-0.144897,-0.008103,-0.003878,0.004052,-46.75,7.37,5.87,3a
2019-07-12_144710:620,-0.48095699999999997,-0.043213,-0.144897,-0.00731,-0.005372999999999999,0.0028309999999999997,-46.369999,7.37,4.68,3a
