timestamp,AccX,AccY,AccZ,GyroX,GyroY,GyroZ,MagX,MagY,MagZ,Activity
2019-07-12_112631:240,-0.490112,0.013213999999999998,-0.060486,-0.010288,-0.005054,0.010103000000000001,-45.369999,3.25,10.56,3a
2019-07-12_112631:260,-0.503845,0.010651,-0.06253099999999999,-0.0116,-0.005176,0.008729,-46.060001,3.56,10.18,3a
2019-07-12_112631:280,-0.5048520000000001,0.011169,-0.064545,-0.01218,-0.004961999999999999,0.006654,-46.060001,3.56,10.18,3a
2019-07-12_112631:300,-0.49111899999999997,0.010162000000000001,-0.063538,-0.011326000000000001,-0.005939,0.004335,-45.369999,4.68,10.18,3a
2019-07-12_112631:320,-0.48706099999999997,0.009644,-0.06405599999999999,-0.009951999999999999,-0.007281999999999999,0.002046,-45.369999,4.68,10.18,3a
2019-07-12_112631:340,-0.486023,0.011169,-0.066589,-0.007633,-0.008472,0.000642,-45.369999,4.68,10.18,3a
2019-07-12_112631:360,-0.49111899999999997,0.013213999999999998,-0.068115,-0.005619,-0.008594,0.001314,-45.369999,4.25,10.56,3a
2019-07-12_112631:380,-0.5048520000000001,0.017273,-0.066071,-0.004123,-0.008014,0.003511,-45.369999,4.25,10.56,3a
2019-07-12_112631:400,-0.508911,0.019806,-0.067596,-0.0032689999999999998,-0.006731999999999999,0.005189,-45.68,4.68,10.56,3a
2019-07-12_112631:420,-0.512482,0.023375999999999997,-0.066589,-0.003116,-0.005176,0.006044,-45.68,4.68,10.56,3a
2019-07-12_112631:440,-0.50943,0.023375999999999997,-0.068634,-0.0033299999999999996,-0.004169,0.005922,-45.68,4.68,10.56,3a
2019-07-12_112631:460,-0.505371,0.020844,-0.067108,-0.003147,-0.003436,0.005311,-45.369999,4.68,10.18,3a
2019-07-12_112631:480,-0.49722299999999997,0.019318000000000002,-0.066071,-0.002475,-0.0031309999999999997,0.004854,-45.369999,4.68,10.18,3a
2019-07-12_112631:500,-0.489075,0.019806,-0.068634,-0.000797,-0.003833,0.004854,-45.68,4.68,10.18,3a
2019-07-12_112631:520,-0.486023,0.019318000000000002,-0.068634,0.001034,-0.004718,0.004213000000000001,-45.68,4.68,10.18,3a
2019-07-12_112631:540,-0.484009,0.024384,-0.066589,0.002652,-0.005298,0.0039689999999999994,-45.68,4.68,10.18,3a
2019-07-12_112631:560,-0.47943100000000005,0.026917,-0.066589,0.003353,-0.006092,0.006257,-46.369999,4.25,10.56,3a
2019-07-12_112631:580,-0.478912,0.027435,-0.07016,0.002987,-0.007220999999999999,0.00937,-46.369999,4.25,10.56,3a
2019-07-12_112631:600,-0.48043800000000003,0.024902,-0.072174,0.0017670000000000001,-0.008869,0.010164,-45.68,4.25,10.18,3a
2019-07-12_112631:620,-0.48553500000000005,0.024384,-0.075745,-0.000675,-0.010791,0.010376999999999999,-45.68,4.25,10.18,3a
2019-07-12_112631:640,-0.48858599999999996,0.020844,-0.079803,-0.0027199999999999998,-0.012927000000000001,0.011629,-45.68,4.25,10.18,3a
2019-07-12_112631:660,-0.496704,0.015228,-0.081329,-0.005222,-0.014178999999999999,0.011964,-45.68,4.0,11.37,3a
2019-07-12_112631:680,-0.500275,0.010651,-0.080322,-0.007633,-0.014118,0.010621,-45.68,4.0,11.37,3a
2019-07-12_112631:700,-0.506378,0.008636,-0.080322,-0.009617,-0.012927000000000001,0.008454999999999999,-45.68,5.5,9.68,3a
2019-07-12_112631:720,-0.503326,0.005065999999999999,-0.082336,-0.010471,-0.011249,0.005983,-45.68,5.5,9.68,3a
2019-07-12_112631:740,-0.503326,0.0030210000000000002,-0.083374,-0.010471,-0.009723,0.002565,-45.68,5.5,9.68,3a
2019-07-12_112631:760,-0.502319,0.004547,-0.083862,-0.009922,-0.008258,0.000368,-45.0,4.68,10.18,3a
2019-07-12_112631:780,-0.496704,0.006072999999999999,-0.081848,-0.008732,-0.006854000000000001,0.000306,-45.0,4.68,10.18,3a
2019-07-12_112631:800,-0.496216,0.005065999999999999,-0.081848,-0.007145,-0.005756,0.000459,-46.060001,5.06,10.18,3a
2019-07-12_112631:820,-0.492645,0.008118,-0.082855,-0.005741,-0.005359,0.000795,-46.060001,5.06,10.18,3a
2019-07-12_112631:840,-0.489594,0.010651,-0.083862,-0.004337,-0.005359,0.00229,-46.060001,5.06,10.18,3a
2019-07-12_112631:860,-0.490601,0.010162000000000001,-0.083374,-0.002994,-0.005695,0.0037549999999999997,-45.68,4.68,10.56,3a
2019-07-12_112631:880,-0.49111899999999997,0.012695,-0.08081100000000001,-0.002353,-0.005939,0.004152,-45.68,4.68,10.56,3a
2019-07-12_112631:900,-0.494171,0.013702,-0.082336,-0.002079,-0.0061530000000000005,0.004274,-46.369999,5.06,8.18,3a
2019-07-12_112631:920,-0.49365200000000004,0.014740000000000001,-0.081848,-0.002353,-0.0060609999999999995,0.004854,-46.369999,5.06,8.18,3a
2019-07-12_112631:940,-0.49365200000000004,0.015228,-0.083374,-0.002811,-0.0060609999999999995,0.004854,-46.369999,5.06,8.18,3a
2019-07-12_112631:960,-0.496216,0.015228,-0.081329,-0.0036049999999999997,-0.006092,0.004732,-46.060001,5.06,9.68,3a
2019-07-12_112631:980,-0.49365200000000004,0.015228,-0.079803,-0.004062,-0.005756,0.004793,-46.060001,5.06,9.68,3a
2019-07-12_112632:000,-0.497742,0.014221000000000001,-0.07928500000000001,-0.004459,-0.00539,0.005067,-45.68,5.5,10.18,3a
2019-07-12_112632:020,-0.496216,0.013213999999999998,-0.07775900000000001,-0.004642,-0.004657,0.00525,-45.68,5.5,10.18,3a
2019-07-12_112632:040,-0.492645,0.010651,-0.078796,-0.0051,-0.004383,0.005739,-45.68,5.5,10.18,3a
2019-07-12_112632:060,-0.49517799999999995,0.010162000000000001,-0.078278,-0.004947,-0.004383,0.005739,-45.369999,5.5,9.37,3a
2019-07-12_112632:080,-0.49316400000000005,0.009125,-0.078278,-0.004947,-0.004444,0.005403,-45.369999,5.5,9.37,3a
2019-07-12_112632:100,-0.49365200000000004,0.008118,-0.076752,-0.004642,-0.004657,0.005464,-46.060001,5.06,9.37,3a
2019-07-12_112632:120,-0.495697,0.007599,-0.07775900000000001,-0.004398,-0.005054,0.005464,-46.060001,5.06,9.37,3a
2019-07-12_112632:140,-0.495697,0.007599,-0.076752,-0.004184,-0.004718,0.005311,-46.060001,5.06,9.37,3a
2019-07-12_112632:160,-0.490601,0.007111,-0.076263,-0.003879,-0.004993,0.00525,-45.68,4.68,10.87,3a
2019-07-12_112632:180,-0.492645,0.006592,-0.076752,-0.003483,-0.005451,0.005128,-45.68,4.68,10.87,3a
2019-07-12_112632:200,-0.49365200000000004,0.005065999999999999,-0.076263,-0.002994,-0.005634,0.004457,-45.68,4.25,9.0,3a
2019-07-12_112632:220,-0.49517799999999995,0.005065999999999999,-0.076263,-0.002536,-0.005634,0.003053,-45.68,4.25,9.0,3a
2019-07-12_112632:240,-0.491638,0.007599,-0.077271,-0.002018,-0.0060609999999999995,0.002382,-45.68,4.25,9.0,3a
2019-07-12_112632:260,-0.490601,0.009125,-0.078796,-0.0013460000000000002,-0.006458,0.0032359999999999997,-46.369999,5.06,9.68,3a
2019-07-12_112632:280,-0.49316400000000005,0.011169,-0.078796,-0.000889,-0.006670999999999999,0.003694,-46.369999,5.06,9.68,3a
2019-07-12_112632:300,-0.49365200000000004,0.012177,-0.080322,-0.000675,-0.006793,0.003358,-45.369999,5.06,9.37,3a
2019-07-12_112632:320,-0.494171,0.012695,-0.076752,-0.001072,-0.006275,0.003633,-45.369999,5.06,9.37,3a
2019-07-12_112632:340,-0.49517799999999995,0.015228,-0.07928500000000001,-0.001529,-0.005939,0.004518,-45.369999,5.06,9.37,3a
2019-07-12_112632:360,-0.494171,0.013702,-0.07775900000000001,-0.00214,-0.006092,0.004671,-45.369999,5.06,9.68,3a
2019-07-12_112632:380,-0.495697,0.012695,-0.079803,-0.003116,-0.006336,0.00525,-45.369999,5.06,9.68,3a
2019-07-12_112632:400,-0.492645,0.010162000000000001,-0.078278,-0.0037270000000000003,-0.006397,0.005983,-45.369999,4.68,8.56,3a
2019-07-12_112632:420,-0.494171,0.008636,-0.079803,-0.004398,-0.006731999999999999,0.005586,-45.369999,4.68,8.56,3a
2019-07-12_112632:440,-0.495697,0.008118,-0.079803,-0.004947,-0.007006999999999999,0.005128,-45.369999,4.68,8.56,3a
2019-07-12_112632:460,-0.49365200000000004,0.006592,-0.080322,-0.004947,-0.00719,0.005464,-45.68,5.06,10.18,3a
2019-07-12_112632:480,-0.49517799999999995,0.0055850000000000006,-0.079803,-0.005039,-0.007220999999999999,0.005403,-45.68,5.06,10.18,3a
2019-07-12_112632:500,-0.496216,0.004547,-0.081848,-0.004886,-0.006731999999999999,0.004671,-46.060001,5.75,10.18,3a
2019-07-12_112632:520,-0.49722299999999997,0.005065999999999999,-0.080322,-0.004612,-0.006275,0.004335,-46.060001,5.75,10.18,3a
2019-07-12_112632:540,-0.49722299999999997,0.006072999999999999,-0.08081100000000001,-0.0042450000000000005,-0.005817,0.004335,-46.060001,5.75,10.18,3a
2019-07-12_112632:560,-0.49517799999999995,0.007111,-0.07928500000000001,-0.004123,-0.005054,0.004152,-45.68,5.06,9.68,3a
2019-07-12_112632:580,-0.49468999999999996,0.007599,-0.079803,-0.004123,-0.004657,0.00403,-45.68,5.06,9.68,3a
2019-07-12_112632:600,-0.496216,0.008636,-0.078278,-0.004123,-0.004566,0.003908,-45.369999,4.68,9.0,3a
2019-07-12_112632:620,-0.492645,0.010651,-0.07775900000000001,-0.004398,-0.004566,0.003511,-45.369999,4.68,9.0,3a
2019-07-12_112632:640,-0.49316400000000005,0.010162000000000001,-0.078796,-0.004612,-0.004596,0.00345,-45.369999,4.68,9.0,3a
2019-07-12_112632:660,-0.491638,0.010651,-0.07775900000000001,-0.004703,-0.004566,0.00345,-46.060001,5.06,8.56,3a
2019-07-12_112632:680,-0.489075,0.010651,-0.076752,-0.004978,-0.004779,0.003633,-46.060001,5.06,8.56,3a
2019-07-12_112632:700,-0.489594,0.011687999999999999,-0.076263,-0.0051,-0.005359,0.003572,-46.369999,4.68,9.37,3a
2019-07-12_112632:720,-0.49365200000000004,0.011169,-0.077271,-0.005161,-0.0061530000000000005,0.003908,-46.369999,4.68,9.37,3a
2019-07-12_112632:740,-0.49468999999999996,0.011169,-0.078796,-0.005222,-0.006458,0.00403,-46.369999,4.68,9.37,3a
2019-07-12_112632:760,-0.49365200000000004,0.010162000000000001,-0.077271,-0.005344,-0.006397,0.004671,-46.060001,5.5,9.68,3a
2019-07-12_112632:780,-0.495697,0.009125,-0.078796,-0.005222,-0.0066099999999999996,0.005128,-46.060001,5.5,9.68,3a
2019-07-12_112632:800,-0.49316400000000005,0.008636,-0.07928500000000001,-0.005344,-0.006214,0.004213000000000001,-45.369999,4.68,10.18,3a
2019-07-12_112632:820,-0.492126,0.010162000000000001,-0.078796,-0.005558,-0.0066099999999999996,0.0029620000000000002,-45.369999,4.68,10.18,3a
2019-07-12_112632:840,-0.49316400000000005,0.010651,-0.082336,-0.005558,-0.007220999999999999,0.00345,-45.369999,4.68,10.18,3a
2019-07-12_112632:860,-0.494171,0.009125,-0.082336,-0.004978,-0.007678,0.004457,-45.68,5.06,10.56,3a
2019-07-12_112632:880,-0.49823,0.009125,-0.081848,-0.004886,-0.007129000000000001,0.004152,-45.68,5.06,10.56,3a
2019-07-12_112632:900,-0.497742,0.009644,-0.08081100000000001,-0.004764,-0.006336,0.003633,-46.369999,4.68,10.18,3a
2019-07-12_112632:920,-0.49722299999999997,0.013213999999999998,-0.078796,-0.004612,-0.005359,0.003908,-46.369999,4.68,10.18,3a
2019-07-12_112632:940,-0.49517799999999995,0.012695,-0.079803,-0.004947,-0.004961999999999999,0.004091,-46.369999,4.68,10.18,3a
2019-07-12_112632:960,-0.49722299999999997,0.014221000000000001,-0.078796,-0.005436,-0.004718,0.0039689999999999994,-45.68,4.25,9.37,3a
2019-07-12_112632:980,-0.49517799999999995,0.013702,-0.078278,-0.005954,-0.004596,0.004091,-45.68,4.25,9.37,3a
2019-07-12_112633:000,-0.49365200000000004,0.011169,-0.076752,-0.006229,-0.0045049999999999995,0.004182,-46.060001,5.06,8.56,3a
2019-07-12_112633:020,-0.49517799999999995,0.011169,-0.076752,-0.0064730000000000005,-0.004718,0.003511,-46.060001,5.06,8.56,3a
2019-07-12_112633:040,-0.490601,0.012695,-0.075745,-0.0067480000000000005,-0.005298,0.003572,-46.060001,5.06,8.56,3a
2019-07-12_112633:060,-0.490601,0.012177,-0.076752,-0.006626000000000001,-0.005634,0.004457,-45.68,4.68,10.18,3a
2019-07-12_112633:080,-0.492645,0.012695,-0.076263,-0.006687,-0.005939,0.005006,-45.68,4.68,10.18,3a
2019-07-12_112633:100,-0.489594,0.012695,-0.077271,-0.007084,-0.006336,0.004854,-45.68,4.68,9.37,3a
2019-07-12_112633:120,-0.49111899999999997,0.013213999999999998,-0.077271,-0.007358,-0.0066099999999999996,0.005128,-45.68,4.68,9.37,3a
2019-07-12_112633:140,-0.490601,0.012177,-0.07928500000000001,-0.007633,-0.006945999999999999,0.005739,-45.68,4.68,9.37,3a
2019-07-12_112633:160,-0.491638,0.010162000000000001,-0.07928500000000001,-0.007999,-0.007220999999999999,0.0058,-46.369999,4.25,9.0,3a
2019-07-12_112633:180,-0.49316400000000005,0.009125,-0.079803,-0.008213,-0.007587000000000001,0.005586,-46.369999,4.25,9.0,3a
2019-07-12_112633:200,-0.495697,0.008636,-0.081329,-0.008152,-0.0076170000000000005,0.0058,-45.369999,4.68,10.18,3a
2019-07-12_112633:220,-0.49722299999999997,0.006592,-0.08081100000000001,-0.007755,-0.007465,0.005922,-45.369999,4.68,10.18,3a
2019-07-12_112633:240,-0.495697,0.005065999999999999,-0.082855,-0.00748,-0.007281999999999999,0.005647,-45.369999,4.68,10.18,3a
2019-07-12_112633:260,-0.495697,0.005065999999999999,-0.082855,-0.007145,-0.0066099999999999996,0.005464,-46.75,5.06,9.0,3a
2019-07-12_112633:280,-0.49365200000000004,0.005065999999999999,-0.081848,-0.006504,-0.006670999999999999,0.00525,-46.75,5.06,9.0,3a
2019-07-12_112633:300,-0.492126,0.006072999999999999,-0.082336,-0.0061070000000000004,-0.006397,0.005006,-45.68,5.5,9.37,3a
2019-07-12_112633:320,-0.494171,0.006072999999999999,-0.082336,-0.005771,-0.006214,0.004945000000000001,-45.68,5.5,9.37,3a
2019-07-12_112633:340,-0.49517799999999995,0.006072999999999999,-0.082336,-0.005436,-0.006214,0.004854,-45.68,5.5,9.37,3a
2019-07-12_112633:360,-0.49316400000000005,0.006592,-0.083374,-0.005375,-0.006214,0.005067,-45.68,5.06,9.0,3a
2019-07-12_112633:380,-0.49316400000000005,0.006072999999999999,-0.082855,-0.005375,-0.006336,0.005311,-45.68,5.06,9.0,3a
2019-07-12_112633:400,-0.492126,0.004547,-0.082336,-0.005161,-0.006488,0.004396,-46.369999,5.06,9.0,3a
2019-07-12_112633:420,-0.492645,0.005065999999999999,-0.084381,-0.0051,-0.006793,0.003694,-46.369999,5.06,9.0,3a
2019-07-12_112633:440,-0.49111899999999997,0.004547,-0.08590700000000001,-0.004459,-0.007343000000000001,0.004182,-46.369999,5.06,9.0,3a
2019-07-12_112633:460,-0.492126,0.004059,-0.0849,-0.0036049999999999997,-0.007587000000000001,0.005189,-46.060001,4.68,9.0,3a
2019-07-12_112633:480,-0.49316400000000005,0.006072999999999999,-0.085388,-0.003055,-0.007465,0.005067,-46.060001,4.68,9.0,3a
2019-07-12_112633:500,-0.492126,0.005065999999999999,-0.08590700000000001,-0.003147,-0.0070680000000000005,0.004671,-46.060001,5.5,10.18,3a
2019-07-12_112633:520,-0.492645,0.0055850000000000006,-0.085388,-0.0027199999999999998,-0.0066099999999999996,0.005128,-46.060001,5.5,10.18,3a
2019-07-12_112633:540,-0.491638,0.005065999999999999,-0.087952,-0.003055,-0.006793,0.005006,-46.060001,5.5,10.18,3a
2019-07-12_112633:560,-0.49111899999999997,0.004059,-0.087952,-0.003208,-0.006731999999999999,0.004335,-46.060001,5.06,8.18,3a
2019-07-12_112633:580,-0.49365200000000004,0.004059,-0.088959,-0.003208,-0.007006999999999999,0.004213000000000001,-46.060001,5.06,8.18,3a
2019-07-12_112633:600,-0.492126,0.001495,-0.089478,-0.0027199999999999998,-0.006731999999999999,0.004457,-46.369999,4.68,9.0,3a
2019-07-12_112633:620,-0.496216,0.0030210000000000002,-0.09201000000000001,-0.002262,-0.006793,0.003572,-46.369999,4.68,9.0,3a
2019-07-12_112633:640,-0.494171,0.004547,-0.089478,-0.001621,-0.006275,0.003114,-46.369999,4.68,9.0,3a
2019-07-12_112633:660,-0.491638,0.004059,-0.090485,-0.001285,-0.005878,0.003572,-46.060001,5.75,9.0,3a
2019-07-12_112633:680,-0.49468999999999996,0.006072999999999999,-0.090485,-0.000889,-0.0055119999999999995,0.003694,-46.060001,5.75,9.0,3a
2019-07-12_112633:700,-0.49365200000000004,0.007599,-0.089478,-0.0008269999999999999,-0.00539,0.003023,-45.369999,5.06,9.0,3a
2019-07-12_112633:720,-0.492645,0.009125,-0.089478,-0.001011,-0.004993,0.003053,-45.369999,5.06,9.0,3a
2019-07-12_112633:740,-0.49468999999999996,0.007599,-0.08843999999999999,-0.001072,-0.00484,0.003511,-45.369999,5.06,9.0,3a
2019-07-12_112633:760,-0.49365200000000004,0.009125,-0.088959,-0.001407,-0.004566,0.003297,-45.68,4.68,8.56,3a
2019-07-12_112633:780,-0.494171,0.008636,-0.08743300000000001,-0.0016820000000000001,-0.0045049999999999995,0.0034189999999999997,-45.68,4.68,8.56,3a
2019-07-12_112633:800,-0.494171,0.007599,-0.08996599999999999,-0.0016820000000000001,-0.0045049999999999995,0.003572,-46.369999,4.68,10.18,3a
2019-07-12_112633:820,-0.492645,0.010162000000000001,-0.086914,-0.0019260000000000002,-0.004229999999999999,0.0038469999999999997,-46.369999,4.68,10.18,3a
2019-07-12_112633:840,-0.490112,0.009125,-0.08590700000000001,-0.0022010000000000003,-0.004229999999999999,0.004091,-46.369999,4.68,10.18,3a
2019-07-12_112633:860,-0.489594,0.008636,-0.085388,-0.002262,-0.00426,0.004457,-46.060001,5.75,8.56,3a
2019-07-12_112633:880,-0.489075,0.008636,-0.0849,-0.002536,-0.004444,0.004396,-46.060001,5.75,8.56,3a
2019-07-12_112633:900,-0.489075,0.008118,-0.085388,-0.002994,-0.0052369999999999995,0.004274,-46.369999,4.68,9.68,3a
2019-07-12_112633:920,-0.492126,0.008118,-0.085388,-0.0032689999999999998,-0.0055119999999999995,0.004457,-46.369999,4.68,9.68,3a
2019-07-12_112633:940,-0.49316400000000005,0.008636,-0.085388,-0.003544,-0.0060609999999999995,0.004457,-46.369999,4.68,9.68,3a
2019-07-12_112633:960,-0.49111899999999997,0.007599,-0.08590700000000001,-0.004123,-0.005817,0.004793,-46.369999,5.06,10.56,3a
2019-07-12_112633:980,-0.491638,0.006072999999999999,-0.086914,-0.004337,-0.0061530000000000005,0.005464,-46.369999,5.06,10.56,3a
2019-07-12_112634:000,-0.492645,0.004059,-0.085388,-0.004459,-0.005939,0.004854,-46.369999,5.06,8.56,3a
2019-07-12_112634:020,-0.492645,0.006592,-0.087952,-0.004978,-0.006214,0.003633,-46.369999,5.06,8.56,3a
2019-07-12_112634:040,-0.49365200000000004,0.006072999999999999,-0.08843999999999999,-0.005161,-0.006275,0.0037549999999999997,-46.369999,5.06,8.56,3a
2019-07-12_112634:060,-0.49365200000000004,0.005065999999999999,-0.087952,-0.005039,-0.006458,0.005311,-45.68,5.06,9.0,3a
2019-07-12_112634:080,-0.496704,0.0055850000000000006,-0.087952,-0.005161,-0.006,0.005128,-45.68,5.06,9.0,3a
2019-07-12_112634:100,-0.49316400000000005,0.0055850000000000006,-0.08843999999999999,-0.005344,-0.0055119999999999995,0.004396,-46.369999,5.75,9.0,3a
2019-07-12_112634:120,-0.49316400000000005,0.007599,-0.08590700000000001,-0.005679999999999999,-0.004718,0.005006,-46.369999,5.75,9.0,3a
2019-07-12_112634:140,-0.492645,0.005065999999999999,-0.087952,-0.006351,-0.004901,0.00525,-46.369999,5.75,9.0,3a
2019-07-12_112634:160,-0.49111899999999997,0.0030210000000000002,-0.087952,-0.0069,-0.0052369999999999995,0.004732,-46.369999,5.06,9.68,3a
2019-07-12_112634:180,-0.492126,0.0025329999999999997,-0.0849,-0.007267,-0.005695,0.004915,-46.369999,5.06,9.68,3a
2019-07-12_112634:200,-0.491638,0.002014,-0.086426,-0.007023000000000001,-0.005939,0.005128,-45.68,5.06,9.0,3a
2019-07-12_112634:220,-0.494171,0.0,-0.087952,-0.0065650000000000005,-0.005817,0.004671,-45.68,5.06,9.0,3a
2019-07-12_112634:240,-0.49316400000000005,0.001495,-0.08843999999999999,-0.00629,-0.005695,0.0038469999999999997,-45.68,5.06,9.0,3a
2019-07-12_112634:260,-0.49365200000000004,0.001495,-0.086426,-0.005832,-0.005573,0.004182,-45.68,5.5,7.75,3a
2019-07-12_112634:280,-0.49517799999999995,0.002014,-0.086914,-0.005497,-0.005451,0.004945000000000001,-45.68,5.5,7.75,3a
2019-07-12_112634:300,-0.492126,0.0030210000000000002,-0.0849,-0.005375,-0.005176,0.004152,-45.68,5.06,9.68,3a
2019-07-12_112634:320,-0.491638,0.004547,-0.085388,-0.005679999999999999,-0.004901,0.003694,-45.68,5.06,9.68,3a
2019-07-12_112634:340,-0.492645,0.0030210000000000002,-0.085388,-0.005771,-0.004993,0.0039689999999999994,-45.68,5.06,9.68,3a
2019-07-12_112634:360,-0.491638,0.002014,-0.084381,-0.005771,-0.005115,0.003908,-45.68,5.06,8.56,3a
2019-07-12_112634:380,-0.492645,0.002014,-0.083374,-0.005771,-0.0052369999999999995,0.003297,-45.68,5.06,8.56,3a
2019-07-12_112634:400,-0.49111899999999997,0.0030210000000000002,-0.082855,-0.0052829999999999995,-0.005054,0.00345,-45.68,5.06,9.37,3a
2019-07-12_112634:420,-0.489594,0.0030210000000000002,-0.081329,-0.004886,-0.005176,0.0034189999999999997,-45.68,5.06,9.37,3a
2019-07-12_112634:440,-0.491638,0.0035399999999999997,-0.081329,-0.004459,-0.005298,0.00345,-45.68,5.06,9.37,3a
2019-07-12_112634:460,-0.489075,0.006592,-0.082855,-0.004062,-0.005817,0.00345,-46.369999,5.5,10.56,3a
2019-07-12_112634:480,-0.489594,0.007111,-0.083862,-0.004123,-0.006336,0.00345,-46.369999,5.5,10.56,3a
2019-07-12_112634:500,-0.489075,0.008118,-0.084381,-0.004398,-0.006793,0.003175,-46.060001,5.5,8.18,3a
2019-07-12_112634:520,-0.48706099999999997,0.006072999999999999,-0.082855,-0.004703,-0.007404000000000001,0.0034189999999999997,-46.060001,5.5,8.18,3a
2019-07-12_112634:540,-0.492126,0.007111,-0.086914,-0.004398,-0.008014,0.0034189999999999997,-46.060001,5.5,8.18,3a
2019-07-12_112634:560,-0.491638,0.007599,-0.086914,-0.004520000000000001,-0.007862000000000001,0.003633,-45.369999,5.75,8.56,3a
2019-07-12_112634:580,-0.494171,0.006592,-0.086426,-0.004184,-0.0076170000000000005,0.004335,-45.369999,5.75,8.56,3a
2019-07-12_112634:600,-0.495697,0.0055850000000000006,-0.087952,-0.00394,-0.007404000000000001,0.004548,-46.060001,5.06,9.37,3a
2019-07-12_112634:620,-0.49517799999999995,0.004059,-0.08743300000000001,-0.003849,-0.007129000000000001,0.00345,-46.060001,5.06,9.37,3a
2019-07-12_112634:640,-0.494171,0.007111,-0.091003,-0.004184,-0.006885,0.002321,-46.060001,5.06,9.37,3a
2019-07-12_112634:660,-0.49111899999999997,0.007111,-0.089478,-0.004001,-0.007220999999999999,0.0032359999999999997,-46.369999,5.06,9.0,3a
2019-07-12_112634:680,-0.49111899999999997,0.007111,-0.088959,-0.0033909999999999995,-0.007220999999999999,0.004396,-46.369999,5.06,9.0,3a
2019-07-12_112634:700,-0.49316400000000005,0.008118,-0.08843999999999999,-0.0033299999999999996,-0.006885,0.003694,-45.68,5.06,8.18,3a
2019-07-12_112634:720,-0.491638,0.010162000000000001,-0.08843999999999999,-0.003483,-0.006214,0.003175,-45.68,5.06,8.18,3a
2019-07-12_112634:740,-0.491638,0.010651,-0.08843999999999999,-0.003879,-0.006,0.0038159999999999995,-45.68,5.06,8.18,3a
2019-07-12_112634:760,-0.492126,0.010162000000000001,-0.088959,-0.004459,-0.006336,0.003908,-46.369999,5.5,9.0,3a
2019-07-12_112634:780,-0.490112,0.009125,-0.08996599999999999,-0.004886,-0.006670999999999999,0.00345,-46.369999,5.5,9.0,3a
2019-07-12_112634:800,-0.489075,0.010162000000000001,-0.088959,-0.005039,-0.006885,0.0038469999999999997,-45.68,4.0,9.68,3a
2019-07-12_112634:820,-0.495697,0.007599,-0.091003,-0.004978,-0.006488,0.004548,-45.68,4.0,9.68,3a
2019-07-12_112634:840,-0.49365200000000004,0.004547,-0.08843999999999999,-0.004703,-0.006458,0.003908,-45.68,4.0,9.68,3a
2019-07-12_112634:860,-0.49468999999999996,0.007111,-0.091003,-0.004520000000000001,-0.006275,0.003297,-46.060001,4.68,7.75,3a
2019-07-12_112634:880,-0.491638,0.008118,-0.090485,-0.004275999999999999,-0.0060609999999999995,0.00403,-46.060001,4.68,7.75,3a
2019-07-12_112634:900,-0.490112,0.007111,-0.08996599999999999,-0.004062,-0.005939,0.004396,-45.68,4.68,8.18,3a
2019-07-12_112634:920,-0.492645,0.007599,-0.08843999999999999,-0.0042450000000000005,-0.0060609999999999995,0.003358,-45.68,4.68,8.18,3a
2019-07-12_112634:940,-0.491638,0.009644,-0.091003,-0.004520000000000001,-0.006,0.003511,-45.68,4.68,8.18,3a
2019-07-12_112634:960,-0.492126,0.009125,-0.089478,-0.004581,-0.005939,0.004152,-46.369999,4.25,7.75,3a
2019-07-12_112634:980,-0.492126,0.009125,-0.09149199999999999,-0.004825,-0.006,0.003633,-46.369999,4.25,7.75,3a
2019-07-12_112635:000,-0.492645,0.008118,-0.090485,-0.004886,-0.005939,0.003358,-46.369999,4.25,8.18,3a
2019-07-12_112635:020,-0.490601,0.009125,-0.089478,-0.004520000000000001,-0.006092,0.0038469999999999997,-46.369999,4.25,8.18,3a
2019-07-12_112635:040,-0.490601,0.007111,-0.091003,-0.004398,-0.0060609999999999995,0.0038159999999999995,-46.369999,4.25,8.18,3a
2019-07-12_112635:060,-0.489075,0.008636,-0.09149199999999999,-0.004184,-0.006397,0.0039689999999999994,-46.369999,4.68,8.56,3a
2019-07-12_112635:080,-0.489594,0.010162000000000001,-0.09149199999999999,-0.00394,-0.006885,0.004274,-46.369999,4.68,8.56,3a
2019-07-12_112635:100,-0.488068,0.008636,-0.09149199999999999,-0.004062,-0.0070680000000000005,0.004152,-46.75,4.68,8.18,3a
2019-07-12_112635:120,-0.489075,0.010651,-0.09201000000000001,-0.0042450000000000005,-0.007465,0.004091,-46.75,4.68,8.18,3a
2019-07-12_112635:140,-0.48858599999999996,0.010162000000000001,-0.094055,-0.004275999999999999,-0.0076170000000000005,0.00403,-46.75,4.68,8.18,3a
2019-07-12_112635:160,-0.489075,0.009125,-0.095062,-0.004581,-0.007587000000000001,0.004274,-46.060001,5.5,8.56,3a
2019-07-12_112635:180,-0.492126,0.009125,-0.095581,-0.004337,-0.008136,0.004396,-46.060001,5.5,8.56,3a
2019-07-12_112635:200,-0.49468999999999996,0.009125,-0.098633,-0.004398,-0.007678,0.004732,-46.060001,4.68,9.37,3a
2019-07-12_112635:220,-0.491638,0.009125,-0.095062,-0.004520000000000001,-0.007404000000000001,0.005189,-46.060001,4.68,9.37,3a
2019-07-12_112635:240,-0.494171,0.007599,-0.097107,-0.004581,-0.006731999999999999,0.005464,-46.060001,4.68,9.37,3a
2019-07-12_112635:260,-0.491638,0.006072999999999999,-0.097107,-0.004703,-0.006670999999999999,0.004457,-46.060001,4.25,9.37,3a
2019-07-12_112635:280,-0.492126,0.007111,-0.095581,-0.005039,-0.006854000000000001,0.0038469999999999997,-46.060001,4.25,9.37,3a
2019-07-12_112635:300,-0.490112,0.008118,-0.098633,-0.005436,-0.006854000000000001,0.005311,-47.18,4.68,7.75,3a
2019-07-12_112635:320,-0.48858599999999996,0.007599,-0.097107,-0.005161,-0.0070680000000000005,0.006441,-47.18,4.68,7.75,3a
2019-07-12_112635:340,-0.492645,0.006592,-0.097107,-0.005497,-0.006548999999999999,0.005739,-47.18,4.68,7.75,3a
2019-07-12_112635:360,-0.491638,0.007599,-0.095581,-0.005832,-0.006336,0.005678,-45.68,5.06,7.75,3a
2019-07-12_112635:380,-0.489075,0.006592,-0.094055,-0.006687,-0.005878,0.006654,-45.68,5.06,7.75,3a
2019-07-12_112635:400,-0.49111899999999997,0.004547,-0.097107,-0.006962,-0.005939,0.006776000000000001,-46.369999,5.5,8.56,3a
2019-07-12_112635:420,-0.489594,0.001495,-0.097107,-0.007541,-0.006397,0.005739,-46.369999,5.5,8.56,3a
2019-07-12_112635:440,-0.489594,0.001007,-0.09301799999999999,-0.007297,-0.006945999999999999,0.005586,-46.369999,5.5,8.56,3a
2019-07-12_112635:460,-0.49468999999999996,-0.002014,-0.096588,-0.007084,-0.006731999999999999,0.005678,-46.369999,5.06,7.75,3a
2019-07-12_112635:480,-0.490601,-0.002014,-0.09353600000000001,-0.005954,-0.006214,0.004335,-46.369999,5.06,7.75,3a
2019-07-12_112635:500,-0.490601,0.0,-0.095581,-0.0052829999999999995,-0.006336,0.003633,-46.060001,5.5,7.0,3a
2019-07-12_112635:520,-0.489594,0.0030210000000000002,-0.095581,-0.004825,-0.006458,0.004396,-46.060001,5.5,7.0,3a
2019-07-12_112635:540,-0.48754899999999995,0.004059,-0.095062,-0.004520000000000001,-0.0066099999999999996,0.004396,-46.060001,5.5,7.0,3a
2019-07-12_112635:560,-0.489594,0.004547,-0.095581,-0.004764,-0.006793,0.0037549999999999997,-46.060001,5.06,8.56,3a
2019-07-12_112635:580,-0.48654200000000003,0.007599,-0.094055,-0.005039,-0.006945999999999999,0.0039689999999999994,-46.060001,5.06,8.56,3a
2019-07-12_112635:600,-0.48654200000000003,0.008118,-0.095062,-0.005344,-0.007220999999999999,0.004182,-46.369999,5.5,8.18,3a
2019-07-12_112635:620,-0.48754899999999995,0.007599,-0.096588,-0.0060149999999999995,-0.007739,0.0038469999999999997,-46.369999,5.5,8.18,3a
2019-07-12_112635:640,-0.489075,0.007111,-0.095581,-0.00629,-0.008258,0.00403,-46.369999,5.5,8.18,3a
2019-07-12_112635:660,-0.492126,0.008636,-0.096588,-0.006351,-0.008136,0.004609,-46.369999,5.5,7.75,3a
2019-07-12_112635:680,-0.494171,0.009644,-0.095581,-0.006962,-0.007801000000000001,0.004548,-46.369999,5.5,7.75,3a
2019-07-12_112635:700,-0.489594,0.008636,-0.095062,-0.007267,-0.0076170000000000005,0.004945000000000001,-46.060001,5.06,7.0,3a
2019-07-12_112635:720,-0.486023,0.007111,-0.097595,-0.007267,-0.008258,0.005464,-46.060001,5.06,7.0,3a
2019-07-12_112635:740,-0.48196400000000006,0.0035399999999999997,-0.09811399999999999,-0.007145,-0.009326000000000001,0.005647,-46.060001,5.06,7.0,3a
2019-07-12_112635:760,-0.482483,0.001495,-0.100647,-0.0067480000000000005,-0.009784000000000001,0.005678,-46.75,5.5,7.0,3a
2019-07-12_112635:780,-0.481476,-0.002014,-0.102173,-0.005436,-0.011463,0.006044,-46.75,5.5,7.0,3a
2019-07-12_112635:800,-0.47995,-0.005065999999999999,-0.104706,-0.004764,-0.012103000000000001,0.005861,-46.75,5.75,8.18,3a
2019-07-12_112635:820,-0.484009,-0.006072999999999999,-0.10928299999999999,-0.003544,-0.012927000000000001,0.004457,-46.75,5.75,8.18,3a
2019-07-12_112635:840,-0.48349,-0.004059,-0.11080899999999999,-0.002933,-0.01369,0.003694,-46.75,5.75,8.18,3a
2019-07-12_112635:860,-0.492645,-0.0030210000000000002,-0.115906,-0.0027199999999999998,-0.013843000000000001,0.003297,-46.369999,5.5,7.0,3a
2019-07-12_112635:880,-0.49468999999999996,-0.000488,-0.116425,-0.002079,-0.0125,0.001253,-46.369999,5.5,7.0,3a
2019-07-12_112635:900,-0.494171,0.001007,-0.11691300000000002,-0.001621,-0.011798000000000001,0.000795,-46.369999,5.5,7.0,3a
2019-07-12_112635:920,-0.49468999999999996,0.002014,-0.118958,-0.001011,-0.010181,0.0008560000000000001,-46.75,5.75,7.0,3a
2019-07-12_112635:940,-0.49316400000000005,0.004059,-0.11795,-0.000553,-0.009326000000000001,0.000306,-46.75,5.75,7.0,3a
2019-07-12_112635:960,-0.489594,0.006592,-0.122528,-0.000553,-0.009052,0.000368,-46.369999,5.75,6.56,3a
2019-07-12_112635:980,-0.490601,0.007599,-0.12200899999999999,5.7999999999999994e-05,-0.008411,0.002565,-46.369999,5.75,6.56,3a
2019-07-12_112636:000,-0.49111899999999997,0.006592,-0.12149000000000001,5.7999999999999994e-05,-0.007984,0.0032359999999999997,-46.75,5.5,7.37,3a
2019-07-12_112636:020,-0.495697,0.008636,-0.119965,-0.000217,-0.005634,0.003511,-46.75,5.5,7.37,3a
2019-07-12_112636:040,-0.494171,0.010651,-0.117432,-0.00095,-0.004047,0.003694,-46.75,5.5,7.37,3a
2019-07-12_112636:060,-0.492645,0.010651,-0.116425,-0.00159,-0.0032530000000000002,0.0038159999999999995,-46.75,5.06,6.56,3a
2019-07-12_112636:080,-0.48706099999999997,0.010651,-0.11438,-0.0032689999999999998,-0.002307,0.003053,-46.75,5.06,6.56,3a
2019-07-12_112636:100,-0.48349,0.010162000000000001,-0.113373,-0.003788,-0.0025210000000000002,0.002565,-46.75,5.06,7.0,3a
2019-07-12_112636:120,-0.48754899999999995,0.010162000000000001,-0.113373,-0.004764,-0.00307,0.001832,-46.75,5.06,7.0,3a
2019-07-12_112636:140,-0.484009,0.011687999999999999,-0.113373,-0.004642,-0.00307,0.002229,-46.75,5.06,7.0,3a
2019-07-12_112636:160,-0.48553500000000005,0.010162000000000001,-0.11080899999999999,-0.004337,-0.0030399999999999997,0.00229,-47.18,4.25,7.0,3a
2019-07-12_112636:180,-0.489594,0.013702,-0.11080899999999999,-0.004001,-0.0032530000000000002,0.003175,-47.18,4.25,7.0,3a
2019-07-12_112636:200,-0.48553500000000005,0.013213999999999998,-0.108276,-0.003879,-0.002918,0.004213000000000001,-46.369999,4.68,7.0,3a
2019-07-12_112636:220,-0.48553500000000005,0.010651,-0.109802,-0.0036049999999999997,-0.0035280000000000003,0.006196,-46.369999,4.68,7.0,3a
2019-07-12_112636:240,-0.48858599999999996,0.011169,-0.10775799999999999,-0.003849,-0.003467,0.006074,-46.369999,4.68,7.0,3a
2019-07-12_112636:260,-0.48706099999999997,0.012695,-0.10675,-0.004459,-0.003589,0.005678,-46.060001,5.5,6.18,3a
2019-07-12_112636:280,-0.48858599999999996,0.011169,-0.10675,-0.005436,-0.0035280000000000003,0.006135,-46.060001,5.5,6.18,3a
2019-07-12_112636:300,-0.481476,0.008118,-0.106232,-0.006412,-0.0038640000000000002,0.005525,-46.369999,4.0,7.37,3a
2019-07-12_112636:320,-0.48043800000000003,0.008118,-0.105225,-0.007297,-0.004444,0.004274,-46.369999,4.0,7.37,3a
2019-07-12_112636:340,-0.48095699999999997,0.006072999999999999,-0.107269,-0.00748,-0.005939,0.003694,-46.369999,4.0,7.37,3a
2019-07-12_112636:360,-0.48300200000000004,0.0055850000000000006,-0.108276,-0.007206000000000001,-0.006336,0.0038159999999999995,-46.369999,4.68,6.18,3a
2019-07-12_112636:380,-0.485016,0.005065999999999999,-0.10675,-0.0064730000000000005,-0.007281999999999999,0.004457,-46.369999,4.68,6.18,3a
2019-07-12_112636:400,-0.48754899999999995,0.0030210000000000002,-0.10775799999999999,-0.006076,-0.007404000000000001,0.005189,-46.369999,4.68,6.18,3a
2019-07-12_112636:420,-0.48754899999999995,0.001495,-0.110321,-0.005222,-0.007404000000000001,0.006135,-46.060001,5.06,6.18,3a
2019-07-12_112636:440,-0.486023,0.0,-0.111847,-0.004825,-0.007343000000000001,0.005983,-46.060001,5.06,6.18,3a
2019-07-12_112636:460,-0.48706099999999997,0.001007,-0.111328,-0.004642,-0.007281999999999999,0.005128,-46.060001,4.0,7.0,3a
2019-07-12_112636:480,-0.48754899999999995,0.001495,-0.11233499999999999,-0.004275999999999999,-0.007526000000000001,0.004548,-46.060001,4.0,7.0,3a
2019-07-12_112636:500,-0.486023,0.0025329999999999997,-0.113373,-0.00394,-0.007465,0.003694,-46.060001,4.68,7.0,3a
2019-07-12_112636:520,-0.484009,0.006072999999999999,-0.11438,-0.004184,-0.007220999999999999,0.002839,-46.060001,4.68,7.0,3a
2019-07-12_112636:540,-0.485016,0.006592,-0.11438,-0.00394,-0.007587000000000001,0.0027170000000000002,-46.060001,4.68,7.0,3a
2019-07-12_112636:560,-0.48754899999999995,0.008636,-0.11691300000000002,-0.004184,-0.007739,0.002839,-45.68,5.5,7.75,3a
2019-07-12_112636:580,-0.488068,0.009644,-0.11438,-0.004275999999999999,-0.007862000000000001,0.0034189999999999997,-45.68,5.5,7.75,3a
2019-07-12_112636:600,-0.49111899999999997,0.010162000000000001,-0.11795,-0.004337,-0.007587000000000001,0.00403,-45.68,5.5,7.75,3a
2019-07-12_112636:620,-0.492645,0.009125,-0.11691300000000002,-0.004612,-0.006397,0.005311,-46.75,5.06,6.56,3a
2019-07-12_112636:640,-0.490112,0.005065999999999999,-0.117432,-0.004642,-0.006275,0.00525,-46.75,5.06,6.56,3a
2019-07-12_112636:660,-0.49111899999999997,0.005065999999999999,-0.11843900000000002,-0.004978,-0.0055119999999999995,0.00525,-47.18,5.06,6.18,3a
2019-07-12_112636:680,-0.48754899999999995,0.0025329999999999997,-0.11795,-0.004886,-0.005359,0.005739,-47.18,5.06,6.18,3a
2019-07-12_112636:700,-0.48858599999999996,0.001495,-0.116425,-0.004520000000000001,-0.005054,0.006532,-47.18,5.06,6.18,3a
2019-07-12_112636:720,-0.488068,0.001495,-0.11538699999999999,-0.004398,-0.004383,0.005342,-46.060001,5.06,6.56,3a
2019-07-12_112636:740,-0.48754899999999995,0.0035399999999999997,-0.11386099999999999,-0.0042450000000000005,-0.003436,0.004213000000000001,-46.060001,5.06,6.56,3a
2019-07-12_112636:760,-0.48654200000000003,0.006072999999999999,-0.114899,-0.004337,-0.00307,0.004091,-46.369999,5.75,6.18,3a
2019-07-12_112636:780,-0.485016,0.0055850000000000006,-0.11233499999999999,-0.004612,-0.0035280000000000003,0.004213000000000001,-46.369999,5.75,6.18,3a
2019-07-12_112636:800,-0.48553500000000005,0.006072999999999999,-0.111328,-0.004825,-0.003711,0.004152,-46.369999,5.75,6.18,3a
2019-07-12_112636:820,-0.488068,0.006072999999999999,-0.11233499999999999,-0.005222,-0.004047,0.004548,-46.75,5.75,6.56,3a
2019-07-12_112636:840,-0.486023,0.004547,-0.109802,-0.005222,-0.004444,0.005525,-46.75,5.75,6.56,3a
2019-07-12_112636:860,-0.48706099999999997,0.0025329999999999997,-0.111328,-0.005161,-0.004444,0.005311,-46.75,4.68,6.56,3a
2019-07-12_112636:880,-0.48858599999999996,0.0030210000000000002,-0.10928299999999999,-0.005375,-0.004229999999999999,0.004609,-46.75,4.68,6.56,3a
2019-07-12_112636:900,-0.48654200000000003,0.001007,-0.109802,-0.005161,-0.003925,0.005586,-46.75,4.68,6.56,3a
2019-07-12_112636:920,-0.48754899999999995,-0.000488,-0.110321,-0.004764,-0.003711,0.006044,-47.18,4.68,7.37,3a
2019-07-12_112636:940,-0.489075,0.000488,-0.108795,-0.004764,-0.0038640000000000002,0.004671,-47.18,4.68,7.37,3a
2019-07-12_112636:960,-0.488068,0.0,-0.108276,-0.004337,-0.0037719999999999997,0.004152,-47.18,5.75,7.37,3a
2019-07-12_112636:980,-0.489594,0.001495,-0.106232,-0.00394,-0.0035280000000000003,0.004091,-47.18,5.75,7.37,3a
2019-07-12_112637:000,-0.490601,0.0025329999999999997,-0.105225,-0.003849,-0.003375,0.0032359999999999997,-47.18,5.75,7.37,3a
2019-07-12_112637:020,-0.489594,0.0055850000000000006,-0.104706,-0.003879,-0.0032530000000000002,0.003023,-45.68,5.06,7.75,3a
2019-07-12_112637:040,-0.488068,0.006592,-0.102692,-0.0036049999999999997,-0.00307,0.0038159999999999995,-45.68,5.06,7.75,3a
2019-07-12_112637:060,-0.48706099999999997,0.0055850000000000006,-0.101685,-0.003452,-0.0031309999999999997,0.004213000000000001,-47.18,4.68,7.0,3a
2019-07-12_112637:080,-0.48553500000000005,0.007111,-0.100159,-0.003483,-0.003314,0.004396,-47.18,4.68,7.0,3a
2019-07-12_112637:100,-0.48300200000000004,0.006072999999999999,-0.09963999999999999,-0.0032689999999999998,-0.003986,0.004671,-47.18,4.68,7.0,3a
2019-07-12_112637:120,-0.482483,0.006072999999999999,-0.098633,-0.0033909999999999995,-0.004596,0.004945000000000001,-45.369999,5.06,7.0,3a
2019-07-12_112637:140,-0.48095699999999997,0.007599,-0.10116599999999999,-0.0036659999999999996,-0.005725,0.005189,-45.369999,5.06,7.0,3a
2019-07-12_112637:160,-0.48196400000000006,0.006072999999999999,-0.102692,-0.003879,-0.006793,0.005342,-46.060001,5.5,7.0,3a
2019-07-12_112637:180,-0.484497,0.006592,-0.104218,-0.004520000000000001,-0.007465,0.005311,-46.060001,5.5,7.0,3a
2019-07-12_112637:200,-0.486023,0.006592,-0.106232,-0.004886,-0.008197,0.004945000000000001,-46.060001,5.5,7.0,3a
2019-07-12_112637:220,-0.488068,0.007111,-0.108276,-0.004947,-0.008472,0.004732,-46.369999,5.75,6.56,3a
2019-07-12_112637:240,-0.48858599999999996,0.007599,-0.108795,-0.005161,-0.008747,0.005067,-46.369999,5.75,6.56,3a
2019-07-12_112637:260,-0.49316400000000005,0.007599,-0.112854,-0.005222,-0.008808,0.006257,-45.68,5.75,7.37,3a
2019-07-12_112637:280,-0.49316400000000005,0.007599,-0.10928299999999999,-0.005954,-0.008258,0.007265000000000001,-45.68,5.75,7.37,3a
2019-07-12_112637:300,-0.490601,0.0055850000000000006,-0.11080899999999999,-0.0067480000000000005,-0.007129000000000001,0.007905,-45.68,5.75,7.37,3a
2019-07-12_112637:320,-0.492645,0.0025329999999999997,-0.11438,-0.007145,-0.006336,0.008241,-46.75,5.5,7.37,3a
2019-07-12_112637:340,-0.48858599999999996,0.0,-0.111328,-0.007877,-0.005634,0.007661,-46.75,5.5,7.37,3a
2019-07-12_112637:360,-0.490601,0.0,-0.11386099999999999,-0.007999,-0.0052369999999999995,0.006441,-46.060001,5.5,7.0,3a
2019-07-12_112637:380,-0.488068,-0.0025329999999999997,-0.111328,-0.007937999999999999,-0.005115,0.006532,-46.060001,5.5,7.0,3a
2019-07-12_112637:400,-0.48754899999999995,-0.004547,-0.11233499999999999,-0.007358,-0.005176,0.007722,-46.060001,5.5,7.0,3a
2019-07-12_112637:420,-0.490112,-0.0055850000000000006,-0.11233499999999999,-0.006962,-0.004779,0.007448000000000001,-47.560001,5.5,6.18,3a
2019-07-12_112637:440,-0.489594,-0.001495,-0.10928299999999999,-0.0069,-0.00426,0.006257,-47.560001,5.5,6.18,3a
2019-07-12_112637:460,-0.48654200000000003,-0.002014,-0.108276,-0.007206000000000001,-0.003589,0.006470999999999999,-46.369999,5.75,5.87,3a
2019-07-12_112637:480,-0.486023,-0.0035399999999999997,-0.108795,-0.007601999999999999,-0.0035280000000000003,0.006929,-46.369999,5.75,5.87,3a
2019-07-12_112637:500,-0.48858599999999996,-0.004059,-0.109802,-0.008274,-0.004047,0.006654,-46.369999,5.75,5.87,3a
2019-07-12_112637:520,-0.489594,-0.008118,-0.108276,-0.008487,-0.004047,0.006257,-46.369999,5.5,7.75,3a
2019-07-12_112637:540,-0.48706099999999997,-0.010651,-0.10775799999999999,-0.008487,-0.004108,0.006379,-46.369999,5.5,7.75,3a
2019-07-12_112637:560,-0.491638,-0.012177,-0.10928299999999999,-0.007755,-0.0038640000000000002,0.005739,-46.369999,6.56,7.75,3a
2019-07-12_112637:580,-0.48754899999999995,-0.010651,-0.106232,-0.007023000000000001,-0.0035280000000000003,0.004457,-46.369999,6.56,7.75,3a
2019-07-12_112637:600,-0.48553500000000005,-0.010651,-0.106232,-0.006076,-0.003925,0.004182,-46.369999,6.56,7.75,3a
2019-07-12_112637:620,-0.489075,-0.008636,-0.106232,-0.005375,-0.003925,0.004548,-46.369999,7.25,7.75,3a
2019-07-12_112637:640,-0.48858599999999996,-0.006592,-0.106232,-0.005222,-0.004047,0.0038159999999999995,-46.369999,7.25,7.75,3a
2019-07-12_112637:660,-0.488068,-0.004547,-0.106232,-0.0051,-0.0038640000000000002,0.002839,-46.060001,6.18,7.75,3a
2019-07-12_112637:680,-0.48754899999999995,-0.006592,-0.104218,-0.004978,-0.003986,0.003053,-46.060001,6.18,7.75,3a
2019-07-12_112637:700,-0.48706099999999997,-0.0055850000000000006,-0.105743,-0.004978,-0.003833,0.0027170000000000002,-46.060001,6.18,7.75,3a
2019-07-12_112637:720,-0.48858599999999996,-0.006072999999999999,-0.105743,-0.004764,-0.003986,0.002229,-46.060001,7.0,8.18,3a
2019-07-12_112637:740,-0.48754899999999995,-0.005065999999999999,-0.106232,-0.004337,-0.00426,0.002229,-46.060001,7.0,8.18,3a
2019-07-12_112637:760,-0.48858599999999996,-0.004547,-0.105225,-0.003788,-0.004229999999999999,0.002229,-46.060001,5.5,7.0,3a
2019-07-12_112637:780,-0.48858599999999996,-0.0025329999999999997,-0.106232,-0.0032689999999999998,-0.004383,0.002107,-46.060001,5.5,7.0,3a
2019-07-12_112637:800,-0.48858599999999996,-0.001007,-0.104706,-0.002811,-0.0045049999999999995,0.0025039999999999997,-46.060001,5.5,7.0,3a
2019-07-12_112637:820,-0.490601,-0.001007,-0.104706,-0.002659,-0.004229999999999999,0.002565,-47.18,5.75,7.75,3a
2019-07-12_112637:840,-0.489594,-0.000488,-0.10318,-0.002659,-0.003925,0.002443,-47.18,5.75,7.75,3a
2019-07-12_112637:860,-0.488068,0.0,-0.105225,-0.002475,-0.0037719999999999997,0.002107,-46.060001,7.0,5.87,3a
2019-07-12_112637:880,-0.48858599999999996,-0.000488,-0.10318,-0.002414,-0.003986,0.002168,-46.060001,7.0,5.87,3a
2019-07-12_112637:900,-0.488068,0.0,-0.104706,-0.002353,-0.003925,0.00229,-46.060001,7.0,5.87,3a
2019-07-12_112637:920,-0.488068,0.001007,-0.102692,-0.001865,-0.003925,0.0025039999999999997,-45.68,5.5,7.0,3a
2019-07-12_112637:940,-0.48858599999999996,0.001495,-0.10318,-0.001957,-0.003925,0.00229,-45.68,5.5,7.0,3a
2019-07-12_112637:960,-0.48858599999999996,0.0025329999999999997,-0.102692,-0.0018039999999999998,-0.003711,0.0025039999999999997,-46.369999,5.75,7.37,3a
2019-07-12_112637:980,-0.489594,0.0035399999999999997,-0.101685,-0.00214,-0.003711,0.002778,-46.369999,5.75,7.37,3a
2019-07-12_112638:000,-0.491638,0.005065999999999999,-0.10318,-0.00214,-0.003833,0.003175,-46.369999,5.75,7.37,3a
2019-07-12_112638:020,-0.490601,0.005065999999999999,-0.099121,-0.002475,-0.003314,0.003572,-46.369999,5.5,7.75,3a
2019-07-12_112638:040,-0.492126,0.004547,-0.100647,-0.002933,-0.002918,0.00403,-46.369999,5.5,7.75,3a
2019-07-12_112638:060,-0.48858599999999996,0.0030210000000000002,-0.100159,-0.0036049999999999997,-0.002735,0.003572,-46.75,5.75,9.0,3a
2019-07-12_112638:080,-0.48654200000000003,0.0030210000000000002,-0.09811399999999999,-0.00394,-0.0032530000000000002,0.002839,-46.75,5.75,9.0,3a
2019-07-12_112638:100,-0.48553500000000005,0.004547,-0.10116599999999999,-0.004123,-0.004596,0.0029,-46.75,5.75,9.0,3a
2019-07-12_112638:120,-0.48300200000000004,0.004059,-0.100159,-0.004275999999999999,-0.00539,0.004152,-46.369999,5.06,9.0,3a
2019-07-12_112638:140,-0.489075,0.004547,-0.10116599999999999,-0.004581,-0.006,0.004671,-46.369999,5.06,9.0,3a
2019-07-12_112638:160,-0.49111899999999997,0.0025329999999999997,-0.100159,-0.005222,-0.005573,0.004396,-46.369999,5.5,8.18,3a
2019-07-12_112638:180,-0.494171,0.0025329999999999997,-0.100159,-0.005832,-0.004901,0.004671,-46.369999,5.5,8.18,3a
2019-07-12_112638:200,-0.494171,0.0,-0.102692,-0.006504,-0.003925,0.004793,-46.369999,5.5,8.18,3a
2019-07-12_112638:220,-0.49468999999999996,-0.0030210000000000002,-0.102173,-0.006809,-0.003711,0.004518,-46.369999,5.5,7.75,3a
2019-07-12_112638:240,-0.494171,-0.006592,-0.100647,-0.006229,-0.00307,0.00403,-46.369999,5.5,7.75,3a
2019-07-12_112638:260,-0.494171,-0.006592,-0.098633,-0.005558,-0.002704,0.003511,-45.369999,5.06,8.18,3a
2019-07-12_112638:280,-0.491638,-0.0055850000000000006,-0.09811399999999999,-0.004764,-0.001911,0.0032359999999999997,-45.369999,5.06,8.18,3a
2019-07-12_112638:300,-0.49111899999999997,-0.002014,-0.09811399999999999,-0.004001,-0.0017280000000000002,0.002382,-45.369999,5.06,8.18,3a
2019-07-12_112638:320,-0.489594,-0.002014,-0.097107,-0.003788,-0.001666,0.0017100000000000001,-45.68,5.75,8.56,3a
2019-07-12_112638:340,-0.488068,0.001495,-0.094055,-0.003452,-0.00185,0.002046,-45.68,5.75,8.56,3a
2019-07-12_112638:360,-0.488068,0.0035399999999999997,-0.095062,-0.003544,-0.002246,0.002168,-46.369999,5.75,8.56,3a
2019-07-12_112638:380,-0.48654200000000003,0.004059,-0.09301799999999999,-0.004123,-0.002643,0.001832,-46.369999,5.75,8.56,3a
2019-07-12_112638:400,-0.48754899999999995,0.004059,-0.09353600000000001,-0.004459,-0.002979,0.002046,-46.369999,5.75,8.56,3a
2019-07-12_112638:420,-0.48553500000000005,0.0030210000000000002,-0.092529,-0.004459,-0.003711,0.002321,-46.060001,4.25,7.75,3a
2019-07-12_112638:440,-0.48754899999999995,0.0030210000000000002,-0.091003,-0.004459,-0.00426,0.002168,-46.060001,4.25,7.75,3a
2019-07-12_112638:460,-0.48706099999999997,0.007599,-0.092529,-0.004275999999999999,-0.004566,0.001924,-46.060001,5.5,7.75,3a
2019-07-12_112638:480,-0.489594,0.006592,-0.089478,-0.004581,-0.005176,0.0017100000000000001,-46.060001,5.5,7.75,3a
2019-07-12_112638:500,-0.489594,0.008636,-0.09201000000000001,-0.004612,-0.005176,0.001893,-46.060001,5.5,7.75,3a
2019-07-12_112638:520,-0.489594,0.009125,-0.09149199999999999,-0.004642,-0.0055119999999999995,0.002046,-46.369999,5.5,8.18,3a
2019-07-12_112638:540,-0.49111899999999997,0.009644,-0.092529,-0.004764,-0.0052369999999999995,0.002229,-46.369999,5.5,8.18,3a
2019-07-12_112638:560,-0.492645,0.011169,-0.09301799999999999,-0.004642,-0.004961999999999999,0.002443,-45.68,4.0,8.18,3a
2019-07-12_112638:580,-0.492645,0.012695,-0.08996599999999999,-0.004581,-0.004779,0.003175,-45.68,4.0,8.18,3a
2019-07-12_112638:600,-0.489594,0.014221000000000001,-0.09301799999999999,-0.004459,-0.004718,0.0037549999999999997,-45.68,4.0,8.18,3a
2019-07-12_112638:620,-0.490601,0.012177,-0.09149199999999999,-0.004947,-0.004657,0.004152,-46.369999,4.68,7.75,3a
2019-07-12_112638:640,-0.49365200000000004,0.013213999999999998,-0.088959,-0.0051,-0.005054,0.004732,-46.369999,4.68,7.75,3a
2019-07-12_112638:660,-0.491638,0.013213999999999998,-0.08996599999999999,-0.005375,-0.004383,0.00525,-46.060001,4.0,8.56,3a
2019-07-12_112638:680,-0.49111899999999997,0.009644,-0.090485,-0.005954,-0.004779,0.004915,-46.060001,4.0,8.56,3a
2019-07-12_112638:700,-0.49111899999999997,0.010651,-0.087952,-0.006168,-0.004993,0.004915,-46.060001,4.0,8.56,3a
2019-07-12_112638:720,-0.49517799999999995,0.010651,-0.08843999999999999,-0.0061070000000000004,-0.005176,0.00525,-45.369999,4.68,8.56,3a
2019-07-12_112638:740,-0.49111899999999997,0.013702,-0.087952,-0.006229,-0.004566,0.005525,-45.369999,4.68,8.56,3a
2019-07-12_112638:760,-0.491638,0.008636,-0.086426,-0.007206000000000001,-0.004596,0.005739,-45.68,5.5,8.56,3a
2019-07-12_112638:780,-0.491638,0.008636,-0.086914,-0.007418999999999999,-0.004993,0.006044,-45.68,5.5,8.56,3a
2019-07-12_112638:800,-0.49111899999999997,0.0055850000000000006,-0.084381,-0.007755,-0.004657,0.00525,-45.68,5.5,8.56,3a
2019-07-12_112638:820,-0.490112,0.0055850000000000006,-0.08996599999999999,-0.007999,-0.00539,0.004182,-45.68,5.06,9.37,3a
2019-07-12_112638:840,-0.496216,0.005065999999999999,-0.08743300000000001,-0.007601999999999999,-0.005634,0.005525,-45.68,5.06,9.37,3a
2019-07-12_112638:860,-0.49517799999999995,0.004059,-0.089478,-0.007297,-0.005359,0.006318,-45.68,5.5,8.18,3a
2019-07-12_112638:880,-0.494171,0.0035399999999999997,-0.089478,-0.007297,-0.00484,0.005525,-45.68,5.5,8.18,3a
2019-07-12_112638:900,-0.492126,0.004059,-0.086426,-0.007023000000000001,-0.004169,0.0058,-45.68,5.5,8.18,3a
2019-07-12_112638:920,-0.492126,0.005065999999999999,-0.08743300000000001,-0.007084,-0.0038640000000000002,0.006654,-46.060001,5.5,9.68,3a
2019-07-12_112638:940,-0.48754899999999995,0.001495,-0.085388,-0.007633,-0.004169,0.006470999999999999,-46.060001,5.5,9.68,3a
2019-07-12_112638:960,-0.491638,0.005065999999999999,-0.0849,-0.007755,-0.004961999999999999,0.006257,-45.68,5.06,8.18,3a
2019-07-12_112638:980,-0.49316400000000005,0.0030210000000000002,-0.08743300000000001,-0.008274,-0.00484,0.006379,-45.68,5.06,8.18,3a
2019-07-12_112639:000,-0.491638,0.0,-0.090485,-0.008395999999999999,-0.004657,0.006074,-45.68,5.06,8.18,3a
2019-07-12_112639:020,-0.489075,-0.001495,-0.086914,-0.007999,-0.00484,0.006379,-45.68,5.06,9.0,3a
2019-07-12_112639:040,-0.48754899999999995,-0.006072999999999999,-0.088959,-0.007418999999999999,-0.0055119999999999995,0.005647,-45.68,5.06,9.0,3a
2019-07-12_112639:060,-0.48706099999999997,-0.0025329999999999997,-0.08843999999999999,-0.006962,-0.006092,0.004854,-45.68,5.5,7.75,3a
2019-07-12_112639:080,-0.490112,0.0,-0.086914,-0.0061070000000000004,-0.006731999999999999,0.004915,-45.68,5.5,7.75,3a
2019-07-12_112639:100,-0.496704,0.002014,-0.088959,-0.005954,-0.006548999999999999,0.0039689999999999994,-45.68,5.5,7.75,3a
2019-07-12_112639:120,-0.49316400000000005,0.0025329999999999997,-0.091003,-0.00629,-0.006092,0.0034189999999999997,-45.68,5.75,8.56,3a
2019-07-12_112639:140,-0.48553500000000005,0.004059,-0.088959,-0.005679999999999999,-0.0060609999999999995,0.004091,-45.68,5.75,8.56,3a
2019-07-12_112639:160,-0.48300200000000004,0.005065999999999999,-0.09149199999999999,-0.005893,-0.006670999999999999,0.004182,-46.369999,5.5,8.18,3a
2019-07-12_112639:180,-0.510437,0.002014,-0.088959,-0.005954,-0.006793,0.003358,-46.369999,5.5,8.18,3a
2019-07-12_112639:200,-0.49926800000000005,0.001495,-0.086426,-0.006229,-0.006397,0.0038159999999999995,-46.369999,5.5,8.18,3a
2019-07-12_112639:220,-0.49468999999999996,0.001007,-0.09353600000000001,-0.005344,-0.005939,0.004671,-45.68,5.75,9.0,3a
2019-07-12_112639:240,-0.49365200000000004,0.001007,-0.090485,-0.005222,-0.0055119999999999995,0.0038469999999999997,-45.68,5.75,9.0,3a
2019-07-12_112639:260,-0.496704,0.0035399999999999997,-0.092529,-0.004703,-0.004993,0.003053,-46.75,6.18,8.56,3a
2019-07-12_112639:280,-0.49316400000000005,0.001495,-0.090485,-0.004459,-0.004444,0.0038159999999999995,-46.75,6.18,8.56,3a
2019-07-12_112639:300,-0.490601,0.002014,-0.091003,-0.004001,-0.004047,0.003908,-46.75,6.18,8.56,3a
2019-07-12_112639:320,-0.49111899999999997,0.0035399999999999997,-0.090485,-0.003483,-0.004108,0.004274,-45.0,5.75,8.56,3a
2019-07-12_112639:340,-0.49111899999999997,0.0035399999999999997,-0.089478,-0.003452,-0.00426,0.004457,-45.0,5.75,8.56,3a
2019-07-12_112639:360,-0.491638,0.004059,-0.090485,-0.0037270000000000003,-0.004321,0.003694,-46.369999,5.5,8.18,3a
2019-07-12_112639:380,-0.49111899999999997,0.0055850000000000006,-0.08996599999999999,-0.003879,-0.004566,0.003572,-46.369999,5.5,8.18,3a
2019-07-12_112639:400,-0.489075,0.004059,-0.087952,-0.004001,-0.004444,0.004213000000000001,-46.369999,5.5,8.18,3a
2019-07-12_112639:420,-0.492645,0.0035399999999999997,-0.092529,-0.0042450000000000005,-0.00539,0.004091,-46.060001,5.5,9.0,3a
2019-07-12_112639:440,-0.489594,0.004059,-0.087952,-0.004520000000000001,-0.004961999999999999,0.0038159999999999995,-46.060001,5.5,9.0,3a
2019-07-12_112639:460,-0.494171,0.004059,-0.08590700000000001,-0.004398,-0.004657,0.004335,-44.560001,5.5,8.56,3a
2019-07-12_112639:480,-0.490601,0.002014,-0.088959,-0.004398,-0.004596,0.004548,-44.560001,5.5,8.56,3a
2019-07-12_112639:500,-0.489594,0.002014,-0.08590700000000001,-0.004123,-0.004444,0.003694,-44.560001,5.5,8.56,3a
2019-07-12_112639:520,-0.492126,0.0030210000000000002,-0.090485,-0.004184,-0.005298,0.002443,-46.060001,5.5,7.37,3a
2019-07-12_112639:540,-0.491638,0.0025329999999999997,-0.09149199999999999,-0.003849,-0.005756,0.003053,-46.060001,5.5,7.37,3a
2019-07-12_112639:560,-0.492645,0.001495,-0.089478,-0.003208,-0.005756,0.00403,-45.369999,5.75,8.56,3a
2019-07-12_112639:580,-0.49316400000000005,0.0035399999999999997,-0.090485,-0.003116,-0.005817,0.003297,-45.369999,5.75,8.56,3a
2019-07-12_112639:600,-0.491638,0.0055850000000000006,-0.088959,-0.003116,-0.00539,0.003114,-45.369999,5.75,8.56,3a
2019-07-12_112639:620,-0.49365200000000004,0.005065999999999999,-0.08996599999999999,-0.0032689999999999998,-0.005359,0.003633,-46.060001,5.75,7.75,3a
2019-07-12_112639:640,-0.49365200000000004,0.005065999999999999,-0.088959,-0.003544,-0.005176,0.00345,-46.060001,5.75,7.75,3a
2019-07-12_112639:660,-0.492645,0.0055850000000000006,-0.091003,-0.003788,-0.005634,0.003175,-46.060001,5.5,9.68,3a
2019-07-12_112639:680,-0.497742,0.0055850000000000006,-0.08743300000000001,-0.004001,-0.00539,0.00345,-46.060001,5.5,9.68,3a
2019-07-12_112639:700,-0.494171,0.0055850000000000006,-0.089478,-0.0042450000000000005,-0.005176,0.003572,-46.060001,5.5,9.68,3a
2019-07-12_112639:720,-0.492126,0.004059,-0.08843999999999999,-0.004062,-0.004993,0.003297,-46.060001,5.5,10.56,3a
2019-07-12_112639:740,-0.49365200000000004,0.005065999999999999,-0.08743300000000001,-0.004062,-0.004779,0.002382,-46.060001,5.5,10.56,3a
2019-07-12_112639:760,-0.492645,0.005065999999999999,-0.08743300000000001,-0.00394,-0.004657,0.0029620000000000002,-45.68,5.5,8.56,3a
2019-07-12_112639:780,-0.49365200000000004,0.0055850000000000006,-0.08743300000000001,-0.0033909999999999995,-0.004993,0.004335,-45.68,5.5,8.56,3a
2019-07-12_112639:800,-0.492645,0.005065999999999999,-0.085388,-0.003055,-0.004718,0.004396,-45.68,5.5,8.56,3a
2019-07-12_112639:820,-0.490601,0.006592,-0.085388,-0.002994,-0.004901,0.00403,-46.75,5.5,9.68,3a
2019-07-12_112639:840,-0.49365200000000004,0.006072999999999999,-0.086426,-0.002994,-0.004901,0.004518,-46.75,5.5,9.68,3a
2019-07-12_112639:860,-0.494171,0.007599,-0.0849,-0.0033299999999999996,-0.004718,0.004335,-46.060001,5.5,9.0,3a
2019-07-12_112639:880,-0.49111899999999997,0.006592,-0.085388,-0.003849,-0.00484,0.004671,-46.060001,5.5,9.0,3a
2019-07-12_112639:900,-0.49111899999999997,0.007599,-0.0849,-0.00394,-0.004901,0.004854,-46.060001,5.5,9.0,3a
2019-07-12_112639:920,-0.489594,0.0055850000000000006,-0.086914,-0.004520000000000001,-0.005176,0.005128,-45.68,4.68,9.68,3a
2019-07-12_112639:940,-0.494171,0.0055850000000000006,-0.083862,-0.004612,-0.005359,0.005006,-45.68,4.68,9.68,3a
2019-07-12_112639:960,-0.49517799999999995,0.004547,-0.08590700000000001,-0.004947,-0.005451,0.005128,-45.369999,5.75,9.0,3a
2019-07-12_112639:980,-0.495697,0.0035399999999999997,-0.08590700000000001,-0.004825,-0.00539,0.005311,-45.369999,5.75,9.0,3a
2019-07-12_112640:000,-0.496704,0.0025329999999999997,-0.086914,-0.004947,-0.005115,0.005342,-45.369999,5.75,9.0,3a
2019-07-12_112640:020,-0.49823,0.0025329999999999997,-0.086426,-0.004947,-0.004718,0.00525,-46.060001,5.75,9.37,3a
2019-07-12_112640:040,-0.495697,0.002014,-0.0849,-0.0051,-0.004229999999999999,0.005067,-46.060001,5.75,9.37,3a
2019-07-12_112640:060,-0.490601,0.0025329999999999997,-0.082855,-0.0052829999999999995,-0.004047,0.004671,-46.369999,5.75,9.37,3a
2019-07-12_112640:080,-0.488068,0.0025329999999999997,-0.080322,-0.005375,-0.0045049999999999995,0.004671,-46.369999,5.75,9.37,3a
2019-07-12_112640:100,-0.489075,0.004059,-0.081329,-0.005619,-0.005054,0.004793,-46.369999,5.75,9.37,3a
2019-07-12_112640:120,-0.48553500000000005,0.0025329999999999997,-0.078796,-0.0061070000000000004,-0.004961999999999999,0.004732,-45.369999,5.06,9.37,3a
2019-07-12_112640:140,-0.48196400000000006,0.0025329999999999997,-0.07928500000000001,-0.006504,-0.0055119999999999995,0.005311,-45.369999,5.06,9.37,3a
2019-07-12_112640:160,-0.484497,0.0,-0.083374,-0.0064730000000000005,-0.006397,0.00525,-46.060001,4.68,8.18,3a
2019-07-12_112640:180,-0.48553500000000005,0.0,-0.081848,-0.006076,-0.0070680000000000005,0.004518,-46.060001,4.68,8.18,3a
2019-07-12_112640:200,-0.492126,-0.001007,-0.090485,-0.005497,-0.008533,0.003114,-46.060001,4.68,8.18,3a
2019-07-12_112640:220,-0.492645,-0.001007,-0.092529,-0.004764,-0.009387000000000001,0.003175,-45.369999,5.75,9.0,3a
2019-07-12_112640:240,-0.500275,-0.004059,-0.095581,-0.003452,-0.010181,0.0039689999999999994,-45.369999,5.75,9.0,3a
2019-07-12_112640:260,-0.508911,-0.004059,-0.097595,-0.002597,-0.009662,0.002778,-46.369999,6.18,9.0,3a
2019-07-12_112640:280,-0.50943,0.0025329999999999997,-0.091003,-0.0022010000000000003,-0.007404000000000001,0.001192,-46.369999,6.18,9.0,3a
2019-07-12_112640:300,-0.5048520000000001,0.0055850000000000006,-0.088959,-0.002414,-0.005054,0.000917,-46.369999,6.18,9.0,3a
2019-07-12_112640:320,-0.49722299999999997,0.010162000000000001,-0.0849,-0.002994,-0.0030399999999999997,0.001497,-46.369999,5.75,9.0,3a
2019-07-12_112640:340,-0.492645,0.010162000000000001,-0.08081100000000001,-0.003879,-0.001941,0.001497,-46.369999,5.75,9.0,3a
2019-07-12_112640:360,-0.49316400000000005,0.012695,-0.079803,-0.004642,-0.001941,0.001832,-46.060001,5.5,9.37,3a
2019-07-12_112640:380,-0.491638,0.012177,-0.077271,-0.005497,-0.0023989999999999997,0.002565,-46.060001,5.5,9.37,3a
2019-07-12_112640:400,-0.489075,0.012177,-0.076263,-0.006168,-0.0021850000000000003,0.002107,-46.060001,5.5,9.37,3a
2019-07-12_112640:420,-0.491638,0.012177,-0.078278,-0.0067480000000000005,-0.002704,0.001375,-45.68,5.06,9.68,3a
2019-07-12_112640:440,-0.48858599999999996,0.011169,-0.07928500000000001,-0.006687,-0.0030399999999999997,0.001832,-45.68,5.06,9.68,3a
2019-07-12_112640:460,-0.488068,0.009644,-0.078278,-0.0064730000000000005,-0.0037719999999999997,0.002321,-46.369999,5.06,9.0,3a
2019-07-12_112640:480,-0.49111899999999997,0.010162000000000001,-0.079803,-0.005954,-0.0038640000000000002,0.0029,-46.369999,5.06,9.0,3a
2019-07-12_112640:500,-0.489594,0.011169,-0.078796,-0.005558,-0.003925,0.003633,-46.369999,5.06,9.0,3a
2019-07-12_112640:520,-0.48754899999999995,0.012695,-0.08081100000000001,-0.0052829999999999995,-0.00426,0.004671,-45.0,5.06,9.68,3a
2019-07-12_112640:540,-0.489594,0.010651,-0.081848,-0.005344,-0.004718,0.005464,-45.0,5.06,9.68,3a
2019-07-12_112640:560,-0.49365200000000004,0.010651,-0.082855,-0.0052829999999999995,-0.005298,0.005739,-45.68,5.06,9.68,3a
2019-07-12_112640:580,-0.49316400000000005,0.011687999999999999,-0.080322,-0.005679999999999999,-0.005298,0.005983,-45.68,5.06,9.68,3a
2019-07-12_112640:600,-0.490601,0.011687999999999999,-0.082855,-0.005832,-0.005359,0.005922,-45.68,5.06,9.68,3a
2019-07-12_112640:620,-0.492126,0.009644,-0.081848,-0.0064730000000000005,-0.005634,0.005983,-45.68,5.06,10.18,3a
2019-07-12_112640:640,-0.490112,0.009125,-0.081848,-0.007145,-0.005939,0.006044,-45.68,5.06,10.18,3a
2019-07-12_112640:660,-0.490112,0.006072999999999999,-0.082336,-0.00748,-0.006214,0.0058,-46.060001,4.68,9.68,3a
2019-07-12_112640:680,-0.49722299999999997,0.004547,-0.083374,-0.007755,-0.006548999999999999,0.005067,-46.060001,4.68,9.68,3a
2019-07-12_112640:700,-0.49468999999999996,0.004059,-0.083862,-0.00748,-0.006548999999999999,0.004732,-46.060001,4.68,9.68,3a
2019-07-12_112640:720,-0.49316400000000005,0.0030210000000000002,-0.083862,-0.006962,-0.0060609999999999995,0.004732,-46.060001,5.06,9.68,3a
2019-07-12_112640:740,-0.488068,0.0035399999999999997,-0.0849,-0.006229,-0.005756,0.004915,-46.060001,5.06,9.68,3a
2019-07-12_112640:760,-0.49111899999999997,0.004059,-0.08590700000000001,-0.005558,-0.006214,0.005128,-46.060001,5.06,9.68,3a
2019-07-12_112640:780,-0.491638,0.005065999999999999,-0.083374,-0.005039,-0.006548999999999999,0.005525,-46.060001,5.06,9.68,3a
2019-07-12_112640:800,-0.491638,0.0055850000000000006,-0.0849,-0.004978,-0.006458,0.005983,-46.060001,5.06,9.68,3a
2019-07-12_112640:820,-0.498749,0.0035399999999999997,-0.085388,-0.004825,-0.006214,0.0067150000000000005,-45.68,5.06,9.37,3a
2019-07-12_112640:840,-0.49517799999999995,0.0035399999999999997,-0.084381,-0.004947,-0.005756,0.006441,-45.68,5.06,9.37,3a
2019-07-12_112640:860,-0.49517799999999995,0.002014,-0.08590700000000001,-0.004886,-0.0055119999999999995,0.005922,-46.369999,5.06,9.0,3a
2019-07-12_112640:880,-0.49316400000000005,0.0030210000000000002,-0.085388,-0.004978,-0.006,0.005311,-46.369999,5.06,9.0,3a
2019-07-12_112640:900,-0.490601,0.001007,-0.085388,-0.004886,-0.006336,0.005678,-46.369999,5.06,9.0,3a
2019-07-12_112640:920,-0.492126,0.001495,-0.0849,-0.004764,-0.006458,0.006379,-46.060001,5.75,9.68,3a
2019-07-12_112640:940,-0.490112,0.001007,-0.0849,-0.0051,-0.006275,0.006318,-46.060001,5.75,9.68,3a
2019-07-12_112640:960,-0.48754899999999995,-0.000488,-0.083374,-0.005161,-0.006,0.006044,-46.060001,5.5,9.37,3a
2019-07-12_112640:980,-0.484497,0.0,-0.084381,-0.005161,-0.006397,0.0058,-46.060001,5.5,9.37,3a
2019-07-12_112641:000,-0.484497,0.0,-0.086914,-0.005344,-0.007343000000000001,0.005189,-46.060001,5.5,9.37,3a
2019-07-12_112641:020,-0.48754899999999995,-0.000488,-0.08743300000000001,-0.005558,-0.008808,0.005067,-45.0,5.75,9.0,3a
2019-07-12_112641:040,-0.49316400000000005,-0.001007,-0.087952,-0.005679999999999999,-0.009998,0.005586,-45.0,5.75,9.0,3a
2019-07-12_112641:060,-0.49365200000000004,-0.002014,-0.086426,-0.005436,-0.010059,0.005983,-46.060001,5.75,8.56,3a
2019-07-12_112641:080,-0.494171,-0.001495,-0.088959,-0.0052829999999999995,-0.009937,0.005128,-46.060001,5.75,8.56,3a
2019-07-12_112641:100,-0.49517799999999995,-0.0025329999999999997,-0.09201000000000001,-0.005375,-0.009204,0.004182,-46.060001,5.75,8.56,3a
2019-07-12_112641:120,-0.49365200000000004,0.0,-0.09301799999999999,-0.005039,-0.00893,0.00403,-45.68,5.75,9.68,3a
2019-07-12_112641:140,-0.495697,0.000488,-0.09201000000000001,-0.005039,-0.008258,0.004091,-45.68,5.75,9.68,3a
2019-07-12_112641:160,-0.495697,0.002014,-0.09201000000000001,-0.005039,-0.006885,0.003633,-46.060001,5.75,9.0,3a
2019-07-12_112641:180,-0.49316400000000005,0.0035399999999999997,-0.092529,-0.005161,-0.006397,0.003511,-46.060001,5.75,9.0,3a
2019-07-12_112641:200,-0.490601,0.004547,-0.09353600000000001,-0.005619,-0.005634,0.00403,-46.060001,5.75,9.0,3a
2019-07-12_112641:220,-0.489594,0.0035399999999999997,-0.096069,-0.0060149999999999995,-0.0055119999999999995,0.003633,-46.060001,7.0,10.18,3a
2019-07-12_112641:240,-0.489594,0.004059,-0.095062,-0.006168,-0.005817,0.004091,-46.060001,7.0,10.18,3a
2019-07-12_112641:260,-0.49468999999999996,0.002014,-0.096588,-0.0065650000000000005,-0.005725,0.004396,-46.060001,5.75,7.75,3a
2019-07-12_112641:280,-0.49926800000000005,0.002014,-0.095581,-0.006626000000000001,-0.005054,0.003694,-46.060001,5.75,7.75,3a
2019-07-12_112641:300,-0.500793,0.002014,-0.095062,-0.006504,-0.004047,0.0038159999999999995,-46.060001,5.75,7.75,3a
2019-07-12_112641:320,-0.49823,0.002014,-0.09301799999999999,-0.0060149999999999995,-0.002735,0.004152,-46.060001,5.75,9.0,3a
2019-07-12_112641:340,-0.495697,0.0025329999999999997,-0.091003,-0.005619,-0.002002,0.004335,-46.060001,5.75,9.0,3a
2019-07-12_112641:360,-0.48858599999999996,0.002014,-0.090485,-0.005344,-0.0017280000000000002,0.004213000000000001,-46.060001,5.5,8.18,3a
2019-07-12_112641:380,-0.48196400000000006,0.004059,-0.085388,-0.004764,-0.0023989999999999997,0.004182,-46.060001,5.5,8.18,3a
2019-07-12_112641:400,-0.47943100000000005,0.004547,-0.084381,-0.004642,-0.003986,0.004609,-46.060001,5.5,8.18,3a
2019-07-12_112641:420,-0.475372,0.005065999999999999,-0.081848,-0.004947,-0.006548999999999999,0.004945000000000001,-45.68,5.75,8.18,3a
2019-07-12_112641:440,-0.48196400000000006,0.005065999999999999,-0.083862,-0.005375,-0.008655,0.004732,-45.68,5.75,8.18,3a
2019-07-12_112641:460,-0.48858599999999996,0.0025329999999999997,-0.0849,-0.005832,-0.009723,0.004732,-46.060001,5.75,8.18,3a
2019-07-12_112641:480,-0.49823,0.0025329999999999997,-0.08743300000000001,-0.005771,-0.009937,0.004915,-46.060001,5.75,8.18,3a
2019-07-12_112641:500,-0.496704,0.0025329999999999997,-0.09149199999999999,-0.005771,-0.009113,0.004609,-46.060001,5.75,8.18,3a
2019-07-12_112641:520,-0.495697,0.0035399999999999997,-0.09353600000000001,-0.005771,-0.009448,0.004396,-46.75,5.75,8.56,3a
2019-07-12_112641:540,-0.492126,0.0030210000000000002,-0.097107,-0.005893,-0.009326000000000001,0.004793,-46.75,5.75,8.56,3a
2019-07-12_112641:560,-0.49111899999999997,0.002014,-0.097107,-0.005893,-0.009113,0.005342,-45.68,6.18,8.18,3a
2019-07-12_112641:580,-0.49517799999999995,0.0025329999999999997,-0.097107,-0.006076,-0.008747,0.005311,-45.68,6.18,8.18,3a
2019-07-12_112641:600,-0.494171,0.0035399999999999997,-0.09963999999999999,-0.00629,-0.007923000000000001,0.004915,-45.68,6.18,8.18,3a
2019-07-12_112641:620,-0.490112,0.0030210000000000002,-0.099121,-0.006626000000000001,-0.007220999999999999,0.005189,-46.060001,5.5,8.18,3a
2019-07-12_112641:640,-0.491638,0.0030210000000000002,-0.09811399999999999,-0.007084,-0.006793,0.005739,-46.060001,5.5,8.18,3a
2019-07-12_112641:660,-0.492126,0.0030210000000000002,-0.09963999999999999,-0.007816,-0.006548999999999999,0.005983,-46.060001,6.56,7.75,3a
2019-07-12_112641:680,-0.49365200000000004,0.001007,-0.097595,-0.008213,-0.006214,0.005861,-46.060001,6.56,7.75,3a
2019-07-12_112641:700,-0.49722299999999997,-0.000488,-0.10116599999999999,-0.008609,-0.006,0.006044,-46.060001,6.56,7.75,3a
2019-07-12_112641:720,-0.49722299999999997,-0.0035399999999999997,-0.098633,-0.008334999999999999,-0.005176,0.0058,-46.060001,6.56,7.75,3a
2019-07-12_112641:740,-0.49468999999999996,-0.006072999999999999,-0.099121,-0.007999,-0.004169,0.004548,-46.060001,6.56,7.75,3a
2019-07-12_112641:760,-0.49468999999999996,-0.006072999999999999,-0.098633,-0.007145,-0.003711,0.00403,-46.060001,6.56,7.75,3a
2019-07-12_112641:780,-0.491638,-0.006072999999999999,-0.095062,-0.006229,-0.002979,0.004793,-46.060001,6.56,7.75,3a
2019-07-12_112641:800,-0.492126,-0.005065999999999999,-0.094055,-0.005222,-0.002796,0.004548,-46.060001,6.56,7.75,3a
2019-07-12_112641:820,-0.49111899999999997,-0.0025329999999999997,-0.09149199999999999,-0.004886,-0.00246,0.003694,-45.68,5.5,8.56,3a
2019-07-12_112641:840,-0.48858599999999996,-0.002014,-0.090485,-0.004459,-0.002704,0.0039689999999999994,-45.68,5.5,8.56,3a
2019-07-12_112641:860,-0.490112,-0.001007,-0.091003,-0.0042450000000000005,-0.0032530000000000002,0.004213000000000001,-46.369999,6.18,7.75,3a
2019-07-12_112641:880,-0.490112,-0.000488,-0.08843999999999999,-0.004275999999999999,-0.003467,0.003633,-46.369999,6.18,7.75,3a
2019-07-12_112641:900,-0.489075,-0.000488,-0.08743300000000001,-0.004520000000000001,-0.003711,0.003908,-46.369999,6.18,7.75,3a
2019-07-12_112641:920,-0.490112,-0.001007,-0.08743300000000001,-0.004184,-0.004321,0.0039689999999999994,-46.060001,6.56,8.56,3a
2019-07-12_112641:940,-0.490601,-0.001495,-0.08743300000000001,-0.004398,-0.005054,0.003633,-46.060001,6.56,8.56,3a
2019-07-12_112641:960,-0.492126,0.0,-0.087952,-0.004123,-0.005298,0.003572,-45.68,7.0,8.56,3a
2019-07-12_112641:980,-0.490601,-0.001007,-0.085388,-0.004062,-0.005359,0.0034189999999999997,-45.68,7.0,8.56,3a
2019-07-12_112642:000,-0.490112,0.000488,-0.086914,-0.00394,-0.0052369999999999995,0.003633,-45.68,7.0,8.56,3a
2019-07-12_112642:020,-0.489075,0.001007,-0.08743300000000001,-0.004123,-0.005573,0.003572,-46.369999,7.0,8.18,3a
2019-07-12_112642:040,-0.48754899999999995,0.001007,-0.087952,-0.0042450000000000005,-0.005939,0.003694,-46.369999,7.0,8.18,3a
2019-07-12_112642:060,-0.489075,0.0,-0.08996599999999999,-0.004459,-0.006854000000000001,0.003511,-46.060001,5.75,8.18,3a
2019-07-12_112642:080,-0.488068,0.000488,-0.089478,-0.004642,-0.007006999999999999,0.0034189999999999997,-46.060001,5.75,8.18,3a
2019-07-12_112642:100,-0.496216,0.000488,-0.089478,-0.004764,-0.006945999999999999,0.0038159999999999995,-46.060001,5.75,8.18,3a
2019-07-12_112642:120,-0.497742,0.0,-0.094055,-0.004886,-0.006793,0.003572,-45.369999,6.56,7.75,3a
2019-07-12_112642:140,-0.48754899999999995,0.0,-0.09301799999999999,-0.004886,-0.006670999999999999,0.0034189999999999997,-45.369999,6.56,7.75,3a
2019-07-12_112642:160,-0.489075,0.0,-0.09454299999999999,-0.004886,-0.00719,0.00345,-45.68,6.18,9.0,3a
2019-07-12_112642:180,-0.489075,0.000488,-0.096069,-0.004947,-0.007923000000000001,0.0038469999999999997,-45.68,6.18,9.0,3a
2019-07-12_112642:200,-0.489594,0.001495,-0.096588,-0.004886,-0.007923000000000001,0.004335,-45.68,6.18,9.0,3a
2019-07-12_112642:220,-0.49517799999999995,0.001007,-0.097107,-0.0051,-0.007281999999999999,0.004152,-46.369999,6.18,9.37,3a
2019-07-12_112642:240,-0.49517799999999995,0.002014,-0.094055,-0.005161,-0.006336,0.003633,-46.369999,6.18,9.37,3a
2019-07-12_112642:260,-0.495697,0.002014,-0.095062,-0.0052829999999999995,-0.0055119999999999995,0.003694,-46.369999,6.18,8.18,3a
2019-07-12_112642:280,-0.49316400000000005,0.002014,-0.09353600000000001,-0.005222,-0.004961999999999999,0.0039689999999999994,-46.369999,6.18,8.18,3a
2019-07-12_112642:300,-0.490601,0.002014,-0.09301799999999999,-0.005344,-0.0052369999999999995,0.004152,-46.369999,6.18,8.18,3a
2019-07-12_112642:320,-0.48754899999999995,0.002014,-0.092529,-0.005344,-0.005451,0.004548,-45.68,6.18,7.37,3a
2019-07-12_112642:340,-0.482483,0.001495,-0.08996599999999999,-0.005161,-0.005939,0.005464,-45.68,6.18,7.37,3a
2019-07-12_112642:360,-0.48300200000000004,0.0,-0.08996599999999999,-0.0051,-0.007343000000000001,0.004732,-46.060001,7.0,7.75,3a
2019-07-12_112642:380,-0.48553500000000005,0.001495,-0.090485,-0.005039,-0.008533,0.004335,-46.060001,7.0,7.75,3a
2019-07-12_112642:400,-0.486023,0.001495,-0.091003,-0.004764,-0.009204,0.00525,-46.060001,7.0,7.75,3a
2019-07-12_112642:420,-0.492645,0.000488,-0.09353600000000001,-0.004520000000000001,-0.009662,0.0058,-45.68,5.75,7.75,3a
2019-07-12_112642:440,-0.49468999999999996,0.000488,-0.092529,-0.004703,-0.009204,0.005311,-45.68,5.75,7.75,3a
2019-07-12_112642:460,-0.49365200000000004,0.001007,-0.096588,-0.004520000000000001,-0.008594,0.005586,-46.060001,5.75,6.18,3a
2019-07-12_112642:480,-0.49316400000000005,0.0,-0.096069,-0.004520000000000001,-0.008136,0.005525,-46.060001,5.75,6.18,3a
2019-07-12_112642:500,-0.489594,0.0,-0.099121,-0.004398,-0.008136,0.005189,-46.060001,5.75,6.18,3a
2019-07-12_112642:520,-0.488068,0.0,-0.09963999999999999,-0.004459,-0.008319,0.005006,-45.68,6.56,7.75,3a
2019-07-12_112642:540,-0.489594,-0.000488,-0.102173,-0.004520000000000001,-0.008472,0.004915,-45.68,6.56,7.75,3a
2019-07-12_112642:560,-0.490112,0.0,-0.102692,-0.004703,-0.008258,0.004793,-46.060001,6.56,8.18,3a
2019-07-12_112642:580,-0.49468999999999996,-0.001495,-0.102173,-0.004703,-0.007801000000000001,0.004793,-46.060001,6.56,8.18,3a
2019-07-12_112642:600,-0.49517799999999995,-0.002014,-0.102692,-0.004459,-0.0070680000000000005,0.004793,-46.060001,6.56,8.18,3a
2019-07-12_112642:620,-0.49316400000000005,-0.0030210000000000002,-0.10318,-0.004581,-0.006336,0.004457,-46.060001,7.0,7.75,3a
2019-07-12_112642:640,-0.491638,-0.0025329999999999997,-0.10116599999999999,-0.004337,-0.005817,0.003694,-46.060001,7.0,7.75,3a
2019-07-12_112642:660,-0.492645,-0.001007,-0.100647,-0.003788,-0.0052369999999999995,0.003358,-46.060001,6.18,7.0,3a
2019-07-12_112642:680,-0.49316400000000005,-0.000488,-0.100159,-0.003544,-0.004961999999999999,0.003297,-46.060001,6.18,7.0,3a
2019-07-12_112642:700,-0.489594,0.002014,-0.098633,-0.003849,-0.004444,0.003694,-46.060001,6.18,7.0,3a
2019-07-12_112642:720,-0.48706099999999997,0.0035399999999999997,-0.096588,-0.004001,-0.004383,0.004152,-46.369999,6.56,7.0,3a
2019-07-12_112642:740,-0.491638,0.0030210000000000002,-0.097595,-0.004764,-0.00484,0.00403,-46.369999,6.56,7.0,3a
2019-07-12_112642:760,-0.490112,0.0030210000000000002,-0.100159,-0.005436,-0.004961999999999999,0.0037549999999999997,-46.369999,6.18,7.75,3a
2019-07-12_112642:780,-0.489594,0.0025329999999999997,-0.097107,-0.006351,-0.00539,0.003358,-46.369999,6.18,7.75,3a
2019-07-12_112642:800,-0.491638,0.0025329999999999997,-0.100159,-0.00687,-0.005634,0.0038469999999999997,-46.369999,6.18,7.75,3a
2019-07-12_112642:820,-0.48553500000000005,0.001007,-0.098633,-0.006687,-0.005878,0.004945000000000001,-45.68,6.18,6.18,3a
2019-07-12_112642:840,-0.48654200000000003,-0.000488,-0.098633,-0.0065650000000000005,-0.005939,0.004854,-45.68,6.18,6.18,3a
2019-07-12_112642:860,-0.48706099999999997,-0.001495,-0.097107,-0.006412,-0.005725,0.004518,-45.68,6.56,7.37,3a
2019-07-12_112642:880,-0.490112,-0.000488,-0.096588,-0.006076,-0.006,0.004915,-45.68,6.56,7.37,3a
2019-07-12_112642:900,-0.49365200000000004,-0.001495,-0.09963999999999999,-0.0060149999999999995,-0.005573,0.005006,-45.68,6.56,7.37,3a
2019-07-12_112642:920,-0.494171,-0.000488,-0.097107,-0.006229,-0.005115,0.004457,-46.060001,6.18,8.56,3a
2019-07-12_112642:940,-0.49111899999999997,0.0,-0.09811399999999999,-0.0061070000000000004,-0.004779,0.003694,-46.060001,6.18,8.56,3a
2019-07-12_112642:960,-0.491638,0.0,-0.097595,-0.0061070000000000004,-0.004718,0.00403,-46.369999,6.56,8.18,3a
2019-07-12_112642:980,-0.49111899999999997,0.0,-0.09963999999999999,-0.005771,-0.00426,0.004213000000000001,-46.369999,6.56,8.18,3a
2019-07-12_112643:000,-0.492645,-0.0030210000000000002,-0.096069,-0.0052829999999999995,-0.003986,0.003694,-46.369999,6.56,8.18,3a
2019-07-12_112643:020,-0.491638,-0.000488,-0.097595,-0.004825,-0.0038640000000000002,0.00345,-46.060001,5.75,7.37,3a
2019-07-12_112643:040,-0.488068,0.0,-0.09454299999999999,-0.004275999999999999,-0.004108,0.004548,-46.060001,5.75,7.37,3a
2019-07-12_112643:060,-0.48706099999999997,-0.002014,-0.095581,-0.00394,-0.00484,0.004671,-46.060001,7.25,7.0,3a
2019-07-12_112643:080,-0.48654200000000003,0.0,-0.095062,-0.003788,-0.0052369999999999995,0.004152,-46.060001,7.25,7.0,3a
2019-07-12_112643:100,-0.489594,0.0,-0.09353600000000001,-0.0037270000000000003,-0.005451,0.004213000000000001,-46.060001,7.25,7.0,3a
2019-07-12_112643:120,-0.490601,0.0,-0.095581,-0.0036049999999999997,-0.00539,0.004091,-46.369999,7.25,7.37,3a
2019-07-12_112643:140,-0.489594,-0.000488,-0.09353600000000001,-0.0036659999999999996,-0.00539,0.003694,-46.369999,7.25,7.37,3a
2019-07-12_112643:160,-0.48858599999999996,-0.000488,-0.095581,-0.0032689999999999998,-0.005634,0.003633,-46.060001,5.75,7.75,3a
2019-07-12_112643:180,-0.489075,-0.000488,-0.095581,-0.002811,-0.0060609999999999995,0.00403,-46.060001,5.75,7.75,3a
2019-07-12_112643:200,-0.48706099999999997,0.0,-0.097107,-0.002536,-0.006548999999999999,0.003908,-46.060001,5.75,7.75,3a
2019-07-12_112643:220,-0.485016,0.001495,-0.09811399999999999,-0.002475,-0.007220999999999999,0.0039689999999999994,-46.369999,7.0,7.75,3a
2019-07-12_112643:240,-0.490112,0.001495,-0.09963999999999999,-0.002475,-0.007801000000000001,0.004152,-46.369999,7.0,7.75,3a
2019-07-12_112643:260,-0.489075,0.002014,-0.09963999999999999,-0.002597,-0.007739,0.004213000000000001,-46.369999,6.18,7.75,3a
2019-07-12_112643:280,-0.490112,0.002014,-0.102692,-0.003055,-0.007587000000000001,0.003908,-46.369999,6.18,7.75,3a
2019-07-12_112643:300,-0.489075,0.001495,-0.10318,-0.003208,-0.007343000000000001,0.0038159999999999995,-46.369999,6.18,7.75,3a
2019-07-12_112643:320,-0.492126,0.002014,-0.104706,-0.003452,-0.007343000000000001,0.004091,-46.060001,6.56,7.75,3a
2019-07-12_112643:340,-0.49468999999999996,0.0025329999999999997,-0.105743,-0.003849,-0.006731999999999999,0.004213000000000001,-46.060001,6.56,7.75,3a
2019-07-12_112643:360,-0.49316400000000005,0.004059,-0.102692,-0.004337,-0.0055119999999999995,0.004671,-45.68,5.75,7.0,3a
2019-07-12_112643:380,-0.49316400000000005,0.0025329999999999997,-0.102173,-0.004703,-0.004779,0.004854,-45.68,5.75,7.0,3a
2019-07-12_112643:400,-0.489594,0.0030210000000000002,-0.10318,-0.004978,-0.004229999999999999,0.004548,-45.68,5.75,7.0,3a
2019-07-12_112643:420,-0.484497,0.002014,-0.09963999999999999,-0.0051,-0.004321,0.004671,-46.060001,6.18,7.0,3a
2019-07-12_112643:440,-0.488068,0.0025329999999999997,-0.102692,-0.005679999999999999,-0.005756,0.004335,-46.060001,6.18,7.0,3a
2019-07-12_112643:460,-0.48654200000000003,0.001007,-0.101685,-0.005679999999999999,-0.0060609999999999995,0.005189,-46.060001,7.25,7.37,3a
2019-07-12_112643:480,-0.492126,0.0,-0.10116599999999999,-0.005436,-0.0060609999999999995,0.005861,-46.060001,7.25,7.37,3a
2019-07-12_112643:500,-0.491638,0.0,-0.098633,-0.005619,-0.0052369999999999995,0.005128,-46.060001,7.25,7.37,3a
2019-07-12_112643:520,-0.48654200000000003,0.0,-0.099121,-0.005679999999999999,-0.0052369999999999995,0.005342,-46.060001,5.75,7.37,3a
2019-07-12_112643:540,-0.48858599999999996,-0.001007,-0.09811399999999999,-0.005954,-0.005573,0.006044,-46.060001,5.75,7.37,3a
2019-07-12_112643:560,-0.489594,-0.002014,-0.100159,-0.006076,-0.005817,0.005983,-45.68,6.56,7.75,3a
2019-07-12_112643:580,-0.488068,-0.004059,-0.099121,-0.006626000000000001,-0.0060609999999999995,0.005525,-45.68,6.56,7.75,3a
2019-07-12_112643:600,-0.489594,-0.004059,-0.100159,-0.006504,-0.006275,0.005189,-45.68,6.56,7.75,3a
2019-07-12_112643:620,-0.49316400000000005,-0.006072999999999999,-0.101685,-0.006504,-0.0066099999999999996,0.005006,-46.060001,7.25,7.37,3a
2019-07-12_112643:640,-0.489075,-0.008118,-0.098633,-0.005832,-0.005878,0.005128,-46.060001,7.25,7.37,3a
2019-07-12_112643:660,-0.49111899999999997,-0.006592,-0.102173,-0.0052829999999999995,-0.005695,0.004274,-45.369999,7.0,7.75,3a
2019-07-12_112643:680,-0.490601,-0.005065999999999999,-0.102692,-0.004947,-0.005298,0.004671,-45.369999,7.0,7.75,3a
2019-07-12_112643:700,-0.49316400000000005,-0.005065999999999999,-0.09963999999999999,-0.004703,-0.004961999999999999,0.005403,-45.369999,7.0,7.75,3a
2019-07-12_112643:720,-0.492126,-0.006072999999999999,-0.100647,-0.004825,-0.004657,0.004915,-46.060001,6.56,7.75,3a
2019-07-12_112643:740,-0.489594,-0.005065999999999999,-0.099121,-0.005039,-0.004383,0.004335,-46.060001,6.56,7.75,3a
2019-07-12_112643:760,-0.488068,-0.005065999999999999,-0.099121,-0.004978,-0.004596,0.004335,-46.060001,6.18,7.0,3a
2019-07-12_112643:780,-0.48754899999999995,-0.0055850000000000006,-0.100159,-0.004642,-0.004779,0.004548,-46.060001,6.18,7.0,3a
2019-07-12_112643:800,-0.489075,-0.006592,-0.09811399999999999,-0.004642,-0.004718,0.004274,-46.060001,6.18,7.0,3a
2019-07-12_112643:820,-0.490601,-0.0055850000000000006,-0.097595,-0.004275999999999999,-0.004596,0.004396,-46.75,6.56,9.0,3a
2019-07-12_112643:840,-0.49316400000000005,-0.005065999999999999,-0.096069,-0.004459,-0.004383,0.0039689999999999994,-46.75,6.56,9.0,3a
2019-07-12_112643:860,-0.492645,-0.006072999999999999,-0.096588,-0.004337,-0.003925,0.0038469999999999997,-46.75,6.56,9.0,3a
2019-07-12_112643:880,-0.490601,-0.0035399999999999997,-0.09811399999999999,-0.004703,-0.0032530000000000002,0.002839,-46.060001,7.0,7.37,3a
2019-07-12_112643:900,-0.489594,-0.0030210000000000002,-0.09963999999999999,-0.004947,-0.0035280000000000003,0.002565,-46.060001,7.0,7.37,3a
2019-07-12_112643:920,-0.489075,0.0,-0.099121,-0.005344,-0.003436,0.002443,-45.68,6.18,7.0,3a
2019-07-12_112643:940,-0.490601,-0.000488,-0.097595,-0.005771,-0.003589,0.00229,-45.68,6.18,7.0,3a
2019-07-12_112643:960,-0.489594,0.0,-0.096588,-0.005893,-0.00365,0.002168,-45.68,6.18,8.56,3a
2019-07-12_112643:980,-0.489594,-0.0025329999999999997,-0.097107,-0.005558,-0.004169,0.00229,-45.68,6.18,8.56,3a
2019-07-12_112644:000,-0.48754899999999995,-0.001007,-0.096069,-0.0052829999999999995,-0.004566,0.002565,-45.68,6.18,8.56,3a
2019-07-12_112644:020,-0.48654200000000003,0.0,-0.097107,-0.004947,-0.004566,0.0029,-45.68,6.56,7.75,3a
2019-07-12_112644:040,-0.48754899999999995,0.000488,-0.095062,-0.004275999999999999,-0.005298,0.003694,-45.68,6.56,7.75,3a
2019-07-12_112644:060,-0.489075,0.001007,-0.095581,-0.004123,-0.0055119999999999995,0.0038159999999999995,-45.369999,6.18,7.0,3a
2019-07-12_112644:080,-0.489075,0.0035399999999999997,-0.09353600000000001,-0.003788,-0.005878,0.003908,-45.369999,6.18,7.0,3a
2019-07-12_112644:100,-0.488068,0.0035399999999999997,-0.092529,-0.004001,-0.006092,0.004457,-45.369999,6.18,7.0,3a
2019-07-12_112644:120,-0.490601,0.0035399999999999997,-0.097107,-0.004459,-0.006458,0.004609,-45.369999,7.25,9.0,3a
2019-07-12_112644:140,-0.48654200000000003,0.0025329999999999997,-0.092529,-0.004886,-0.006670999999999999,0.004152,-45.369999,7.25,9.0,3a
2019-07-12_112644:160,-0.489594,0.0025329999999999997,-0.09811399999999999,-0.004978,-0.00719,0.003694,-46.369999,6.56,9.0,3a
2019-07-12_112644:180,-0.489075,0.0025329999999999997,-0.10116599999999999,-0.005375,-0.008258,0.003908,-46.369999,6.56,9.0,3a
2019-07-12_112644:200,-0.489594,0.0,-0.097107,-0.004978,-0.008319,0.004732,-46.369999,6.56,9.0,3a
2019-07-12_112644:220,-0.492126,0.001007,-0.100159,-0.004825,-0.008014,0.004915,-46.369999,6.18,7.75,3a
2019-07-12_112644:240,-0.489594,0.001495,-0.097595,-0.004825,-0.007220999999999999,0.004671,-46.369999,6.18,7.75,3a
2019-07-12_112644:260,-0.49316400000000005,0.001007,-0.09963999999999999,-0.004978,-0.006885,0.00525,-46.369999,6.18,7.75,3a
2019-07-12_112644:280,-0.49365200000000004,0.000488,-0.100647,-0.0051,-0.006793,0.005678,-46.369999,6.56,8.56,3a
2019-07-12_112644:300,-0.492645,0.001495,-0.098633,-0.005954,-0.006397,0.005311,-46.369999,6.56,8.56,3a
2019-07-12_112644:320,-0.48754899999999995,0.0,-0.100159,-0.0060149999999999995,-0.006336,0.005342,-45.68,6.56,7.75,3a
2019-07-12_112644:340,-0.488068,-0.001495,-0.09811399999999999,-0.006351,-0.006336,0.005525,-45.68,6.56,7.75,3a
2019-07-12_112644:360,-0.488068,-0.0030210000000000002,-0.09963999999999999,-0.006504,-0.006488,0.005678,-45.68,6.56,7.75,3a
2019-07-12_112644:380,-0.488068,-0.006072999999999999,-0.09811399999999999,-0.00629,-0.0061530000000000005,0.005311,-45.68,6.18,7.75,3a
2019-07-12_112644:400,-0.491638,-0.004547,-0.101685,-0.006229,-0.006397,0.004732,-45.68,6.18,7.75,3a
2019-07-12_112644:420,-0.48858599999999996,-0.0025329999999999997,-0.101685,-0.005893,-0.006548999999999999,0.004671,-46.060001,7.0,7.75,3a
2019-07-12_112644:440,-0.489594,-0.006072999999999999,-0.101685,-0.005619,-0.0066099999999999996,0.005464,-46.060001,7.0,7.75,3a
2019-07-12_112644:460,-0.490601,-0.005065999999999999,-0.102173,-0.005497,-0.006885,0.00525,-46.75,6.56,8.56,3a
2019-07-12_112644:480,-0.490112,-0.0035399999999999997,-0.102173,-0.005497,-0.006548999999999999,0.00403,-46.75,6.56,8.56,3a
2019-07-12_112644:500,-0.489594,-0.005065999999999999,-0.10116599999999999,-0.0051,-0.0060609999999999995,0.003572,-46.75,6.56,8.56,3a
2019-07-12_112644:520,-0.48858599999999996,-0.005065999999999999,-0.10116599999999999,-0.004886,-0.0061530000000000005,0.0034189999999999997,-46.369999,6.56,8.18,3a
2019-07-12_112644:540,-0.48858599999999996,-0.0035399999999999997,-0.103699,-0.004337,-0.005939,0.003358,-46.369999,6.56,8.18,3a
2019-07-12_112644:560,-0.48858599999999996,-0.0035399999999999997,-0.104218,-0.004123,-0.005939,0.00345,-45.68,7.25,7.75,3a
2019-07-12_112644:580,-0.489075,-0.0030210000000000002,-0.104706,-0.0037270000000000003,-0.006214,0.003511,-45.68,7.25,7.75,3a
2019-07-12_112644:600,-0.490112,-0.000488,-0.104706,-0.0036659999999999996,-0.006,0.0037549999999999997,-45.68,7.25,7.75,3a
2019-07-12_112644:620,-0.49111899999999997,0.000488,-0.105743,-0.003788,-0.005451,0.004091,-46.060001,7.0,8.18,3a
2019-07-12_112644:640,-0.489594,0.0,-0.10318,-0.004062,-0.005054,0.004091,-46.060001,7.0,8.18,3a
2019-07-12_112644:660,-0.490601,0.0,-0.105225,-0.004398,-0.004901,0.004152,-46.369999,6.56,6.56,3a
2019-07-12_112644:680,-0.492126,-0.001495,-0.105225,-0.004337,-0.004566,0.004213000000000001,-46.369999,6.56,6.56,3a
2019-07-12_112644:700,-0.490112,-0.001007,-0.103699,-0.004459,-0.004444,0.004335,-46.369999,6.56,6.56,3a
2019-07-12_112644:720,-0.49111899999999997,-0.002014,-0.102692,-0.004337,-0.004169,0.004335,-46.369999,6.56,8.56,3a
2019-07-12_112644:740,-0.489075,-0.0030210000000000002,-0.100647,-0.004001,-0.004108,0.004213000000000001,-46.369999,6.56,8.56,3a
2019-07-12_112644:760,-0.48858599999999996,-0.002014,-0.10116599999999999,-0.004001,-0.004169,0.004091,-46.369999,6.56,8.56,3a
2019-07-12_112644:780,-0.490112,-0.002014,-0.100647,-0.003879,-0.004108,0.0038469999999999997,-46.060001,6.56,6.56,3a
2019-07-12_112644:800,-0.489075,-0.001495,-0.098633,-0.004123,-0.004108,0.003694,-46.060001,6.56,6.56,3a
2019-07-12_112644:820,-0.48858599999999996,0.0,-0.09963999999999999,-0.00394,-0.00426,0.0038159999999999995,-46.060001,7.0,6.56,3a
2019-07-12_112644:840,-0.490112,-0.001007,-0.097107,-0.004062,-0.00426,0.0038469999999999997,-46.060001,7.0,6.56,3a
2019-07-12_112644:860,-0.489594,-0.002014,-0.097107,-0.004275999999999999,-0.0045049999999999995,0.003908,-46.060001,7.0,6.56,3a
2019-07-12_112644:880,-0.490601,-0.001495,-0.095581,-0.004184,-0.004657,0.003908,-46.369999,6.18,6.18,3a
2019-07-12_112644:900,-0.488068,-0.001007,-0.09454299999999999,-0.004184,-0.004961999999999999,0.0037549999999999997,-46.369999,6.18,6.18,3a
2019-07-12_112644:920,-0.48706099999999997,-0.0025329999999999997,-0.095581,-0.00394,-0.004993,0.003633,-46.060001,7.0,7.37,3a
2019-07-12_112644:940,-0.48654200000000003,-0.002014,-0.095062,-0.003849,-0.0055119999999999995,0.003633,-46.060001,7.0,7.37,3a
2019-07-12_112644:960,-0.486023,0.0,-0.096069,-0.0037270000000000003,-0.0066099999999999996,0.003908,-46.060001,7.0,7.37,3a
2019-07-12_112644:980,-0.488068,-0.001007,-0.100159,-0.003483,-0.007129000000000001,0.003908,-46.75,6.56,7.0,3a
2019-07-12_112645:000,-0.490112,0.0,-0.096588,-0.0036049999999999997,-0.00719,0.0038159999999999995,-46.75,6.56,7.0,3a
2019-07-12_112645:020,-0.49316400000000005,0.000488,-0.098633,-0.003879,-0.006945999999999999,0.004213000000000001,-46.369999,6.56,7.75,3a
2019-07-12_112645:040,-0.495697,0.0,-0.10116599999999999,-0.004337,-0.006488,0.004152,-46.369999,6.56,7.75,3a
2019-07-12_112645:060,-0.490112,0.0,-0.098633,-0.004642,-0.006092,0.003511,-46.369999,6.56,7.75,3a
2019-07-12_112645:080,-0.49468999999999996,0.0,-0.102692,-0.0051,-0.006336,0.003023,-46.75,7.68,7.75,3a
2019-07-12_112645:100,-0.48754899999999995,-0.000488,-0.101685,-0.005039,-0.0066099999999999996,0.0038159999999999995,-46.75,7.68,7.75,3a
2019-07-12_112645:120,-0.489594,-0.001007,-0.099121,-0.004947,-0.006214,0.004945000000000001,-45.369999,6.56,7.75,3a
2019-07-12_112645:140,-0.49111899999999997,0.0,-0.101685,-0.005039,-0.005695,0.004732,-45.369999,6.56,7.75,3a
2019-07-12_112645:160,-0.490112,0.000488,-0.09963999999999999,-0.005344,-0.0045049999999999995,0.004335,-45.369999,6.56,7.75,3a
2019-07-12_112645:180,-0.491638,0.0,-0.10116599999999999,-0.005679999999999999,-0.004596,0.004854,-46.369999,7.0,7.75,3a
2019-07-12_112645:200,-0.492126,-0.000488,-0.098633,-0.0060149999999999995,-0.004566,0.004732,-46.369999,7.0,7.75,3a
2019-07-12_112645:220,-0.48858599999999996,-0.002014,-0.099121,-0.00629,-0.004718,0.004335,-46.060001,6.18,7.0,3a
2019-07-12_112645:240,-0.48754899999999995,-0.0030210000000000002,-0.09811399999999999,-0.005954,-0.005176,0.004213000000000001,-46.060001,6.18,7.0,3a
2019-07-12_112645:260,-0.485016,-0.0025329999999999997,-0.097107,-0.005619,-0.005756,0.004335,-46.060001,6.18,7.0,3a
2019-07-12_112645:280,-0.489594,-0.005065999999999999,-0.100159,-0.005344,-0.006092,0.004609,-46.75,6.18,8.18,3a
2019-07-12_112645:300,-0.48754899999999995,-0.0055850000000000006,-0.097595,-0.004764,-0.0061530000000000005,0.004671,-46.75,6.18,8.18,3a
2019-07-12_112645:320,-0.49111899999999997,-0.005065999999999999,-0.100159,-0.004612,-0.0066099999999999996,0.003511,-46.75,7.0,7.75,3a
2019-07-12_112645:340,-0.489075,-0.001495,-0.098633,-0.004459,-0.0066099999999999996,0.00345,-46.75,7.0,7.75,3a
2019-07-12_112645:360,-0.489594,-0.001007,-0.098633,-0.004275999999999999,-0.006854000000000001,0.004274,-46.75,7.0,7.75,3a
2019-07-12_112645:380,-0.490601,-0.001495,-0.098633,-0.0042450000000000005,-0.0066099999999999996,0.004213000000000001,-46.75,7.0,7.37,3a
2019-07-12_112645:400,-0.490112,-0.001495,-0.100159,-0.004398,-0.006458,0.003511,-46.75,7.0,7.37,3a
2019-07-12_112645:420,-0.490112,-0.001007,-0.10116599999999999,-0.004337,-0.006275,0.0038159999999999995,-46.369999,6.56,6.18,3a
2019-07-12_112645:440,-0.48858599999999996,-0.002014,-0.099121,-0.0042450000000000005,-0.005939,0.0038159999999999995,-46.369999,6.56,6.18,3a
2019-07-12_112645:460,-0.490112,-0.001007,-0.10116599999999999,-0.004123,-0.0061530000000000005,0.003175,-46.369999,6.56,6.18,3a
2019-07-12_112645:480,-0.492645,-0.001495,-0.102692,-0.003483,-0.006336,0.003572,-45.68,5.75,6.56,3a
2019-07-12_112645:500,-0.494171,-0.001007,-0.103699,-0.002659,-0.005817,0.004091,-45.68,5.75,6.56,3a
2019-07-12_112645:520,-0.49316400000000005,0.0,-0.10318,-0.002353,-0.004961999999999999,0.004518,-46.369999,6.18,7.37,3a
2019-07-12_112645:540,-0.490112,0.001495,-0.102692,-0.002536,-0.004444,0.005403,-46.369999,6.18,7.37,3a
2019-07-12_112645:560,-0.488068,0.001495,-0.10116599999999999,-0.003147,-0.004169,0.006044,-46.369999,6.18,7.37,3a
2019-07-12_112645:580,-0.48654200000000003,0.001495,-0.09963999999999999,-0.004123,-0.004566,0.005739,-46.75,6.18,7.0,3a
2019-07-12_112645:600,-0.485016,-0.000488,-0.100159,-0.004825,-0.004718,0.00525,-46.75,6.18,7.0,3a
2019-07-12_112645:620,-0.48654200000000003,-0.0035399999999999997,-0.100647,-0.005161,-0.00539,0.005128,-46.060001,6.56,6.56,3a
2019-07-12_112645:640,-0.48654200000000003,-0.007111,-0.100647,-0.0052829999999999995,-0.005817,0.004915,-46.060001,6.56,6.56,3a
2019-07-12_112645:660,-0.490601,-0.007111,-0.100159,-0.004886,-0.0060609999999999995,0.004396,-46.060001,6.56,6.56,3a
2019-07-12_112645:680,-0.490601,-0.007111,-0.10116599999999999,-0.004123,-0.006092,0.004396,-46.060001,7.0,7.75,3a
2019-07-12_112645:700,-0.490112,-0.0055850000000000006,-0.10116599999999999,-0.0036049999999999997,-0.0060609999999999995,0.004274,-46.060001,7.0,7.75,3a
2019-07-12_112645:720,-0.490601,-0.0055850000000000006,-0.102692,-0.003208,-0.005817,0.004091,-46.060001,6.56,6.56,3a
2019-07-12_112645:740,-0.490601,-0.004547,-0.09963999999999999,-0.0033299999999999996,-0.005756,0.003633,-46.060001,6.56,6.56,3a
2019-07-12_112645:760,-0.490601,-0.004059,-0.100159,-0.0032689999999999998,-0.00539,0.003114,-46.060001,6.56,6.56,3a
2019-07-12_112645:780,-0.491638,-0.001495,-0.100159,-0.0033299999999999996,-0.0052369999999999995,0.0027170000000000002,-46.060001,7.0,7.75,3a
2019-07-12_112645:800,-0.489594,-0.000488,-0.09811399999999999,-0.003208,-0.004961999999999999,0.003297,-46.060001,7.0,7.75,3a
2019-07-12_112645:820,-0.49111899999999997,-0.001007,-0.100159,-0.0033299999999999996,-0.005298,0.003633,-45.369999,6.56,6.56,3a
2019-07-12_112645:840,-0.490601,-0.000488,-0.097107,-0.0033909999999999995,-0.00484,0.00403,-45.369999,6.56,6.56,3a
2019-07-12_112645:860,-0.489594,-0.001007,-0.097107,-0.003544,-0.004718,0.004213000000000001,-45.369999,6.56,6.56,3a
2019-07-12_112645:880,-0.496216,-0.001007,-0.099121,-0.003849,-0.004566,0.004274,-46.75,6.56,7.37,3a
2019-07-12_112645:900,-0.488068,-0.0035399999999999997,-0.09353600000000001,-0.0042450000000000005,-0.004047,0.0037549999999999997,-46.75,6.56,7.37,3a
2019-07-12_112645:920,-0.490601,-0.0025329999999999997,-0.097595,-0.004275999999999999,-0.004383,0.002687,-46.060001,7.68,8.18,3a
2019-07-12_112645:940,-0.48706099999999997,-0.0030210000000000002,-0.097107,-0.00394,-0.004961999999999999,0.002687,-46.060001,7.68,8.18,3a
2019-07-12_112645:960,-0.48654200000000003,-0.000488,-0.095062,-0.003452,-0.005359,0.00403,-46.060001,7.68,8.18,3a
2019-07-12_112645:980,-0.49111899999999997,-0.000488,-0.098633,-0.003147,-0.005725,0.004518,-45.0,6.56,7.37,3a
2019-07-12_112646:000,-0.489594,0.0,-0.094055,-0.0033299999999999996,-0.0055119999999999995,0.004396,-45.0,6.56,7.37,3a
2019-07-12_112646:020,-0.489594,0.001007,-0.094055,-0.003788,-0.005115,0.004915,-47.18,7.0,7.37,3a
2019-07-12_112646:040,-0.48754899999999995,0.0,-0.096069,-0.004520000000000001,-0.005176,0.005403,-47.18,7.0,7.37,3a
2019-07-12_112646:060,-0.488068,-0.002014,-0.096069,-0.004947,-0.005725,0.004915,-47.18,7.0,7.37,3a
2019-07-12_112646:080,-0.489075,-0.004547,-0.09811399999999999,-0.005375,-0.006458,0.004518,-46.369999,7.0,7.0,3a
2019-07-12_112646:100,-0.492126,-0.006072999999999999,-0.097107,-0.004947,-0.006670999999999999,0.004274,-46.369999,7.0,7.0,3a
2019-07-12_112646:120,-0.49517799999999995,-0.007111,-0.097595,-0.004520000000000001,-0.006885,0.004609,-45.369999,6.18,7.37,3a
2019-07-12_112646:140,-0.489594,-0.007111,-0.09454299999999999,-0.0037270000000000003,-0.005725,0.005067,-45.369999,6.18,7.37,3a
2019-07-12_112646:160,-0.491638,-0.006072999999999999,-0.097595,-0.003544,-0.005451,0.004396,-45.369999,6.18,7.37,3a
2019-07-12_112646:180,-0.48654200000000003,-0.005065999999999999,-0.099121,-0.0037270000000000003,-0.005725,0.004182,-46.369999,7.0,8.56,3a
2019-07-12_112646:200,-0.48754899999999995,-0.007111,-0.100159,-0.003483,-0.0066099999999999996,0.004854,-46.369999,7.0,8.56,3a
2019-07-12_112646:220,-0.48654200000000003,-0.007111,-0.10116599999999999,-0.003147,-0.007129000000000001,0.004091,-46.369999,6.56,7.75,3a
2019-07-12_112646:240,-0.488068,-0.005065999999999999,-0.097595,-0.002872,-0.0070680000000000005,0.003114,-46.369999,6.56,7.75,3a
2019-07-12_112646:260,-0.490601,-0.0035399999999999997,-0.101685,-0.002597,-0.006854000000000001,0.0038469999999999997,-46.369999,6.56,7.75,3a
2019-07-12_112646:280,-0.490112,-0.0025329999999999997,-0.102173,-0.002659,-0.006275,0.004182,-45.0,5.75,7.75,3a
2019-07-12_112646:300,-0.48858599999999996,-0.001495,-0.102173,-0.003147,-0.006275,0.00403,-45.0,5.75,7.75,3a
2019-07-12_112646:320,-0.489075,-0.0025329999999999997,-0.104706,-0.003452,-0.006458,0.003694,-46.060001,7.0,7.0,3a
2019-07-12_112646:340,-0.492126,-0.004059,-0.105225,-0.003452,-0.006458,0.003511,-46.060001,7.0,7.0,3a
2019-07-12_112646:360,-0.496216,-0.004059,-0.105225,-0.0033299999999999996,-0.006214,0.003511,-46.060001,7.0,7.0,3a
2019-07-12_112646:380,-0.49722299999999997,-0.004059,-0.104706,-0.003055,-0.005359,0.004213000000000001,-46.060001,5.75,7.75,3a
2019-07-12_112646:400,-0.49722299999999997,-0.0055850000000000006,-0.102173,-0.002872,-0.004169,0.004609,-46.060001,5.75,7.75,3a
2019-07-12_112646:420,-0.494171,-0.004059,-0.101685,-0.00275,-0.002918,0.004609,-46.060001,6.18,7.75,3a
2019-07-12_112646:440,-0.490112,-0.002014,-0.097595,-0.003147,-0.001941,0.004609,-46.060001,6.18,7.75,3a
2019-07-12_112646:460,-0.488068,-0.0030210000000000002,-0.097595,-0.003849,-0.001911,0.004732,-46.060001,6.18,7.75,3a
2019-07-12_112646:480,-0.486023,-0.0030210000000000002,-0.096069,-0.004764,-0.0021850000000000003,0.004609,-45.68,6.18,7.75,3a
2019-07-12_112646:500,-0.48349,-0.0030210000000000002,-0.092529,-0.005436,-0.002704,0.004182,-45.68,6.18,7.75,3a
2019-07-12_112646:520,-0.48654200000000003,-0.0035399999999999997,-0.097107,-0.005954,-0.0035280000000000003,0.003511,-46.060001,6.56,8.18,3a
2019-07-12_112646:540,-0.486023,-0.005065999999999999,-0.096069,-0.006351,-0.003986,0.002839,-46.060001,6.56,8.18,3a
2019-07-12_112646:560,-0.484497,-0.004547,-0.095581,-0.006229,-0.004321,0.0025039999999999997,-46.060001,6.56,8.18,3a
2019-07-12_112646:580,-0.48858599999999996,-0.005065999999999999,-0.097107,-0.0060149999999999995,-0.004993,0.002382,-45.369999,5.5,7.75,3a
2019-07-12_112646:600,-0.488068,-0.0030210000000000002,-0.096588,-0.005558,-0.005054,0.0025039999999999997,-45.369999,5.5,7.75,3a
2019-07-12_112646:620,-0.48754899999999995,-0.0025329999999999997,-0.097107,-0.004978,-0.005451,0.0026260000000000003,-46.060001,6.56,7.0,3a
2019-07-12_112646:640,-0.489594,0.0,-0.09811399999999999,-0.004764,-0.005817,0.0029620000000000002,-46.060001,6.56,7.0,3a
2019-07-12_112646:660,-0.489075,0.0,-0.099121,-0.004581,-0.0061530000000000005,0.0029620000000000002,-46.060001,6.56,7.0,3a
2019-07-12_112646:680,-0.492126,0.0,-0.10116599999999999,-0.004398,-0.006275,0.003511,-45.369999,6.18,9.0,3a
2019-07-12_112646:700,-0.494171,0.0,-0.098633,-0.004337,-0.0060609999999999995,0.0039689999999999994,-45.369999,6.18,9.0,3a
2019-07-12_112646:720,-0.49365200000000004,0.000488,-0.099121,-0.004520000000000001,-0.00539,0.004518,-45.68,6.56,7.75,3a
2019-07-12_112646:740,-0.495697,-0.001007,-0.100159,-0.004612,-0.0052369999999999995,0.004915,-45.68,6.56,7.75,3a
2019-07-12_112646:760,-0.490112,-0.0035399999999999997,-0.097107,-0.004764,-0.004566,0.004548,-45.68,6.56,7.75,3a
2019-07-12_112646:780,-0.49111899999999997,-0.0025329999999999997,-0.097595,-0.004886,-0.004566,0.003511,-46.369999,6.56,7.75,3a
2019-07-12_112646:800,-0.48706099999999997,-0.0035399999999999997,-0.098633,-0.004612,-0.004566,0.003023,-46.369999,6.56,7.75,3a
2019-07-12_112646:820,-0.484497,-0.002014,-0.098633,-0.004001,-0.004779,0.0038159999999999995,-46.369999,7.25,8.18,3a
2019-07-12_112646:840,-0.489594,-0.002014,-0.09963999999999999,-0.003208,-0.0055119999999999995,0.004335,-46.369999,7.25,8.18,3a
2019-07-12_112646:860,-0.489075,0.0,-0.100159,-0.003147,-0.005756,0.004152,-46.369999,7.25,8.18,3a
2019-07-12_112646:880,-0.489594,0.0,-0.098633,-0.0033299999999999996,-0.005695,0.004091,-45.68,6.18,7.37,3a
2019-07-12_112646:900,-0.49111899999999997,0.0,-0.09811399999999999,-0.0036659999999999996,-0.005573,0.004335,-45.68,6.18,7.37,3a
2019-07-12_112646:920,-0.490112,0.0,-0.099121,-0.004337,-0.005359,0.004274,-46.060001,6.18,8.56,3a
2019-07-12_112646:940,-0.48858599999999996,0.0,-0.098633,-0.004581,-0.005725,0.0037549999999999997,-46.060001,6.18,8.56,3a
2019-07-12_112646:960,-0.48858599999999996,-0.001495,-0.100159,-0.004703,-0.0060609999999999995,0.003511,-46.060001,6.18,8.56,3a
2019-07-12_112646:980,-0.49111899999999997,-0.001007,-0.09963999999999999,-0.004612,-0.006,0.003633,-46.060001,6.18,8.56,3a
2019-07-12_112647:000,-0.48706099999999997,-0.000488,-0.099121,-0.004275999999999999,-0.006214,0.0037549999999999997,-46.060001,6.18,8.56,3a
2019-07-12_112647:020,-0.491638,0.0,-0.100647,-0.004184,-0.0061530000000000005,0.003175,-45.68,6.18,8.18,3a
2019-07-12_112647:040,-0.488068,0.004547,-0.102173,-0.004459,-0.006458,0.0025039999999999997,-45.68,6.18,8.18,3a
2019-07-12_112647:060,-0.486023,0.006592,-0.102173,-0.004886,-0.006854000000000001,0.003053,-45.68,6.18,8.18,3a
2019-07-12_112647:080,-0.489075,0.008118,-0.104706,-0.0061070000000000004,-0.007587000000000001,0.0034189999999999997,-46.369999,6.56,9.0,3a
2019-07-12_112647:100,-0.491638,0.008118,-0.102692,-0.0076939999999999995,-0.007343000000000001,0.0034189999999999997,-46.369999,6.56,9.0,3a
2019-07-12_112647:120,-0.49722299999999997,0.0030210000000000002,-0.102692,-0.009281000000000001,-0.006885,0.004213000000000001,-46.369999,5.75,7.75,3a
2019-07-12_112647:140,-0.498749,0.001007,-0.102173,-0.010013,-0.005298,0.004945000000000001,-46.369999,5.75,7.75,3a
2019-07-12_112647:160,-0.49316400000000005,-0.001495,-0.10116599999999999,-0.010532,-0.004108,0.004274,-46.369999,5.75,7.75,3a
2019-07-12_112647:180,-0.491638,-0.0030210000000000002,-0.100647,-0.010256999999999999,-0.003314,0.004152,-46.369999,6.18,6.56,3a
2019-07-12_112647:200,-0.489594,-0.004059,-0.097107,-0.009556,-0.00307,0.004396,-46.369999,6.18,6.56,3a
2019-07-12_112647:220,-0.490601,-0.004059,-0.096069,-0.009067,-0.0030399999999999997,0.004396,-46.060001,6.56,8.18,3a
2019-07-12_112647:240,-0.490601,-0.0035399999999999997,-0.094055,-0.008487,-0.00307,0.004213000000000001,-46.060001,6.56,8.18,3a
2019-07-12_112647:260,-0.489075,-0.0030210000000000002,-0.09301799999999999,-0.008213,-0.003375,0.004335,-46.060001,6.56,8.18,3a
2019-07-12_112647:280,-0.48654200000000003,-0.001007,-0.09201000000000001,-0.007999,-0.003986,0.004671,-45.369999,6.18,7.75,3a
2019-07-12_112647:300,-0.48553500000000005,-0.0025329999999999997,-0.09201000000000001,-0.008091,-0.004779,0.005189,-45.369999,6.18,7.75,3a
2019-07-12_112647:320,-0.484497,-0.0035399999999999997,-0.09149199999999999,-0.008334999999999999,-0.005451,0.005403,-46.75,6.18,7.75,3a
2019-07-12_112647:340,-0.485016,-0.004547,-0.09353600000000001,-0.008548,-0.0060609999999999995,0.005464,-46.75,6.18,7.75,3a
2019-07-12_112647:360,-0.48553500000000005,-0.0055850000000000006,-0.09454299999999999,-0.00867,-0.006397,0.005403,-46.75,6.18,7.75,3a
2019-07-12_112647:380,-0.48754899999999995,-0.007111,-0.095062,-0.008334999999999999,-0.006731999999999999,0.004945000000000001,-45.68,5.75,6.56,3a
2019-07-12_112647:400,-0.491638,-0.008118,-0.097595,-0.007999,-0.007129000000000001,0.004548,-45.68,5.75,6.56,3a
2019-07-12_112647:420,-0.49316400000000005,-0.007599,-0.09963999999999999,-0.00748,-0.007404000000000001,0.004548,-45.68,6.18,7.75,3a
2019-07-12_112647:440,-0.495697,-0.006592,-0.095062,-0.0069,-0.006945999999999999,0.004091,-45.68,6.18,7.75,3a
2019-07-12_112647:460,-0.495697,-0.007111,-0.095062,-0.00629,-0.006092,0.003297,-45.68,6.18,7.75,3a
2019-07-12_112647:480,-0.492645,-0.006592,-0.095062,-0.005893,-0.005451,0.002321,-46.060001,5.5,8.56,3a
2019-07-12_112647:500,-0.490601,-0.004059,-0.09301799999999999,-0.005222,-0.004993,0.002107,-46.060001,5.5,8.56,3a
2019-07-12_112647:520,-0.489594,-0.001007,-0.09353600000000001,-0.004520000000000001,-0.0052369999999999995,0.00229,-46.060001,5.75,8.18,3a
2019-07-12_112647:540,-0.48706099999999997,-0.000488,-0.092529,-0.004001,-0.005298,0.002229,-46.060001,5.75,8.18,3a
2019-07-12_112647:560,-0.48858599999999996,0.001495,-0.092529,-0.0037270000000000003,-0.005634,0.002168,-46.060001,5.75,8.18,3a
2019-07-12_112647:580,-0.48654200000000003,0.002014,-0.094055,-0.003544,-0.006092,0.002046,-45.68,6.18,8.56,3a
2019-07-12_112647:600,-0.484009,0.0035399999999999997,-0.095062,-0.0033299999999999996,-0.006793,0.001527,-45.68,6.18,8.56,3a
2019-07-12_112647:620,-0.48654200000000003,0.008118,-0.100159,-0.003483,-0.008075,0.000368,-45.369999,6.56,7.75,3a
2019-07-12_112647:640,-0.48754899999999995,0.009125,-0.099121,-0.003849,-0.009052,0.0007639999999999999,-45.369999,6.56,7.75,3a
2019-07-12_112647:660,-0.489594,0.009125,-0.10116599999999999,-0.003879,-0.009662,0.001924,-45.369999,6.56,7.75,3a
2019-07-12_112647:680,-0.49517799999999995,0.009644,-0.102173,-0.004459,-0.009143,0.002107,-45.68,6.18,7.0,3a
2019-07-12_112647:700,-0.49517799999999995,0.007599,-0.10318,-0.004123,-0.008258,0.001893,-45.68,6.18,7.0,3a
2019-07-12_112647:720,-0.49517799999999995,0.007599,-0.105743,-0.003452,-0.007404000000000001,0.0025039999999999997,-46.060001,6.18,7.0,3a
2019-07-12_112647:740,-0.49517799999999995,0.009644,-0.105743,-0.003452,-0.007006999999999999,0.0029620000000000002,-46.060001,6.18,7.0,3a
2019-07-12_112647:760,-0.495697,0.010651,-0.105225,-0.0033299999999999996,-0.005359,0.004548,-46.060001,6.18,7.0,3a
2019-07-12_112647:780,-0.492126,0.009644,-0.105743,-0.003208,-0.004993,0.004915,-46.369999,5.5,8.18,3a
2019-07-12_112647:800,-0.49517799999999995,0.011169,-0.102692,-0.00394,-0.003986,0.005189,-46.369999,5.5,8.18,3a
2019-07-12_112647:820,-0.492126,0.010651,-0.10318,-0.004612,-0.00307,0.005586,-47.18,6.18,7.37,3a
2019-07-12_112647:840,-0.49111899999999997,0.007599,-0.09963999999999999,-0.005344,-0.002735,0.005189,-47.18,6.18,7.37,3a
2019-07-12_112647:860,-0.489594,0.006072999999999999,-0.100159,-0.005893,-0.002979,0.004548,-47.18,6.18,7.37,3a
2019-07-12_112647:880,-0.48858599999999996,0.004059,-0.09811399999999999,-0.0060149999999999995,-0.002796,0.004793,-46.75,5.75,8.18,3a
2019-07-12_112647:900,-0.486023,0.001007,-0.099121,-0.005771,-0.0031309999999999997,0.004945000000000001,-46.75,5.75,8.18,3a
2019-07-12_112647:920,-0.48754899999999995,0.0,-0.095581,-0.005222,-0.00307,0.004548,-45.68,5.5,8.18,3a
2019-07-12_112647:940,-0.48754899999999995,0.002014,-0.096588,-0.004337,-0.003467,0.004609,-45.68,5.5,8.18,3a
2019-07-12_112647:960,-0.489594,0.001495,-0.097107,-0.003788,-0.0038640000000000002,0.005342,-45.68,5.5,8.18,3a
2019-07-12_112647:980,-0.491638,0.0025329999999999997,-0.096588,-0.003483,-0.003833,0.004854,-46.060001,5.75,8.18,3a
2019-07-12_112648:000,-0.492645,0.0030210000000000002,-0.095062,-0.0033909999999999995,-0.003436,0.0038159999999999995,-46.060001,5.75,8.18,3a
2019-07-12_112648:020,-0.492645,0.0030210000000000002,-0.095062,-0.002811,-0.002704,0.003358,-45.68,7.0,7.37,3a
2019-07-12_112648:040,-0.49316400000000005,0.004547,-0.09301799999999999,-0.0019260000000000002,-0.0023989999999999997,0.003053,-45.68,7.0,7.37,3a
2019-07-12_112648:060,-0.48858599999999996,0.009644,-0.094055,-0.001072,-0.0023989999999999997,0.003175,-45.68,7.0,7.37,3a
2019-07-12_112648:080,-0.48706099999999997,0.012695,-0.094055,-0.000675,-0.0030399999999999997,0.003511,-45.68,6.18,8.56,3a
2019-07-12_112648:100,-0.48706099999999997,0.016266,-0.09454299999999999,-0.000889,-0.0037719999999999997,0.004182,-45.68,6.18,8.56,3a
2019-07-12_112648:120,-0.48754899999999995,0.018799,-0.092529,-0.001865,-0.004383,0.00525,-45.369999,5.06,8.18,3a
2019-07-12_112648:140,-0.489594,0.017273,-0.09201000000000001,-0.002872,-0.004657,0.006379,-45.369999,5.06,8.18,3a
2019-07-12_112648:160,-0.48706099999999997,0.015228,-0.09301799999999999,-0.004184,-0.004993,0.007509,-45.369999,5.06,8.18,3a
2019-07-12_112648:180,-0.489594,0.011687999999999999,-0.09201000000000001,-0.0051,-0.00539,0.00818,-46.060001,5.75,9.0,3a
2019-07-12_112648:200,-0.489075,0.008118,-0.09201000000000001,-0.0060149999999999995,-0.0052369999999999995,0.008973,-46.060001,5.75,9.0,3a
2019-07-12_112648:220,-0.49111899999999997,-0.001007,-0.09201000000000001,-0.006351,-0.004901,0.009431,-46.369999,6.18,8.18,3a
2019-07-12_112648:240,-0.492126,-0.008636,-0.09353600000000001,-0.005679999999999999,-0.004961999999999999,0.008241,-46.369999,6.18,8.18,3a
2019-07-12_112648:260,-0.49316400000000005,-0.012695,-0.09454299999999999,-0.004184,-0.004566,0.007051000000000001,-46.369999,6.18,8.18,3a
2019-07-12_112648:280,-0.494171,-0.012695,-0.095581,-0.002262,-0.0045049999999999995,0.0069900000000000006,-46.060001,5.75,8.56,3a
2019-07-12_112648:300,-0.49517799999999995,-0.009644,-0.092529,-0.00095,-0.004108,0.007203,-46.060001,5.75,8.56,3a
2019-07-12_112648:320,-0.494171,-0.005065999999999999,-0.09301799999999999,-0.000553,-0.004047,0.0071730000000000006,-45.68,5.75,7.37,3a
2019-07-12_112648:340,-0.495697,-0.002014,-0.09301799999999999,-0.000614,-0.003711,0.007203,-45.68,5.75,7.37,3a
2019-07-12_112648:360,-0.491638,0.0,-0.09149199999999999,-0.001468,-0.0035280000000000003,0.0067150000000000005,-45.68,5.75,7.37,3a
2019-07-12_112648:380,-0.49517799999999995,0.001495,-0.09353600000000001,-0.002811,-0.003833,0.005922,-45.68,6.18,9.0,3a
2019-07-12_112648:400,-0.495697,0.001495,-0.09149199999999999,-0.004612,-0.00365,0.006379,-45.68,6.18,9.0,3a
2019-07-12_112648:420,-0.496216,-0.001495,-0.090485,-0.005832,-0.003314,0.007265000000000001,-45.68,6.56,9.0,3a
2019-07-12_112648:440,-0.498749,-0.004059,-0.088959,-0.006687,-0.0025210000000000002,0.006929,-45.68,6.56,9.0,3a
2019-07-12_112648:460,-0.498749,-0.006072999999999999,-0.086914,-0.006962,-0.0014529999999999999,0.006379,-45.68,6.56,9.0,3a
2019-07-12_112648:480,-0.49926800000000005,-0.0055850000000000006,-0.083374,-0.007206000000000001,-0.000263,0.0069900000000000006,-46.369999,7.0,9.0,3a
2019-07-12_112648:500,-0.49517799999999995,-0.009125,-0.083374,-0.007358,0.00047000000000000004,0.008394,-46.369999,7.0,9.0,3a
2019-07-12_112648:520,-0.491638,-0.010162000000000001,-0.082336,-0.007937999999999999,0.00040899999999999997,0.00937,-45.369999,7.0,8.18,3a
2019-07-12_112648:540,-0.48858599999999996,-0.013213999999999998,-0.080322,-0.008426000000000001,-0.000202,0.00992,-45.369999,7.0,8.18,3a
2019-07-12_112648:560,-0.488068,-0.016266,-0.078278,-0.009006,-0.0012699999999999999,0.009645,-45.369999,7.0,8.18,3a
2019-07-12_112648:580,-0.489075,-0.01828,-0.079803,-0.009403,-0.002124,0.009126,-45.68,7.25,9.37,3a
2019-07-12_112648:600,-0.488068,-0.021851,-0.077271,-0.009403,-0.00246,0.007965999999999999,-45.68,7.25,9.37,3a
2019-07-12_112648:620,-0.490601,-0.022858,-0.079803,-0.009128,-0.002918,0.006318,-45.68,7.68,8.56,3a
2019-07-12_112648:640,-0.489594,-0.024384,-0.07775900000000001,-0.008609,-0.00307,0.005983,-45.68,7.68,8.56,3a
2019-07-12_112648:660,-0.489594,-0.024902,-0.076752,-0.007816,-0.0032530000000000002,0.005647,-45.68,7.68,8.56,3a
2019-07-12_112648:680,-0.49517799999999995,-0.023375999999999997,-0.078278,-0.007023000000000001,-0.0030399999999999997,0.004457,-45.0,7.25,8.56,3a
2019-07-12_112648:700,-0.492645,-0.020325,-0.075745,-0.006687,-0.003436,0.003053,-45.0,7.25,8.56,3a
2019-07-12_112648:720,-0.492126,-0.019806,-0.075745,-0.0060149999999999995,-0.003925,0.001893,-46.060001,7.68,9.0,3a
2019-07-12_112648:740,-0.491638,-0.016266,-0.075745,-0.005679999999999999,-0.0045049999999999995,0.000795,-46.060001,7.68,9.0,3a
2019-07-12_112648:760,-0.491638,-0.013702,-0.07421900000000001,-0.005344,-0.004993,0.000306,-46.060001,7.68,9.0,3a
2019-07-12_112648:780,-0.490601,-0.011169,-0.075745,-0.004886,-0.005634,0.0005200000000000001,-44.560001,7.25,9.37,3a
2019-07-12_112648:800,-0.48858599999999996,-0.009125,-0.07421900000000001,-0.004886,-0.005756,0.0007639999999999999,-44.560001,7.25,9.37,3a
2019-07-12_112648:820,-0.488068,-0.005065999999999999,-0.07775900000000001,-0.004978,-0.006548999999999999,0.000795,-45.68,7.25,9.0,3a
2019-07-12_112648:840,-0.484009,-0.005065999999999999,-0.078796,-0.005344,-0.007678,0.001161,-45.68,7.25,9.0,3a
2019-07-12_112648:860,-0.484009,-0.0035399999999999997,-0.082336,-0.005954,-0.008990999999999999,0.001832,-45.68,7.25,9.0,3a
2019-07-12_112648:880,-0.48858599999999996,-0.004059,-0.082855,-0.0065650000000000005,-0.01073,0.002321,-46.369999,7.68,9.37,3a
2019-07-12_112648:900,-0.491638,-0.0055850000000000006,-0.085388,-0.0065650000000000005,-0.011524,0.002687,-46.369999,7.68,9.37,3a
2019-07-12_112648:920,-0.492126,-0.006072999999999999,-0.087952,-0.006626000000000001,-0.011706999999999999,0.0027170000000000002,-46.060001,7.0,9.68,3a
2019-07-12_112648:940,-0.490601,-0.007599,-0.089478,-0.006168,-0.01192,0.0029,-46.060001,7.0,9.68,3a
2019-07-12_112648:960,-0.495697,-0.009644,-0.09201000000000001,-0.005344,-0.011585,0.0029620000000000002,-46.060001,7.0,9.68,3a
2019-07-12_112648:980,-0.49722299999999997,-0.013213999999999998,-0.09353600000000001,-0.003849,-0.011249,0.002107,-44.560001,7.68,8.56,3a
2019-07-12_112649:000,-0.501282,-0.012695,-0.092529,-0.002018,-0.009876000000000001,0.001161,-44.560001,7.68,8.56,3a
2019-07-12_112649:020,-0.49926800000000005,-0.010651,-0.09201000000000001,-6.500000000000001e-05,-0.008197,0.001192,-46.369999,7.25,7.0,3a
2019-07-12_112649:040,-0.49517799999999995,-0.009125,-0.09149199999999999,0.0017050000000000001,-0.006885,0.002687,-46.369999,7.25,7.0,3a
2019-07-12_112649:060,-0.492126,-0.004059,-0.09301799999999999,0.0028350000000000003,-0.006458,0.003908,-46.369999,7.25,7.0,3a
2019-07-12_112649:080,-0.48706099999999997,-0.001007,-0.09201000000000001,0.0038420000000000004,-0.006214,0.0038159999999999995,-45.68,7.0,8.56,3a
2019-07-12_112649:100,-0.490601,0.006592,-0.09301799999999999,0.00317,-0.0070680000000000005,0.0027170000000000002,-45.68,7.0,8.56,3a
2019-07-12_112649:120,-0.489075,0.010651,-0.09454299999999999,0.001248,-0.007678,0.003358,-46.060001,7.0,7.0,3a
2019-07-12_112649:140,-0.490112,0.010162000000000001,-0.09201000000000001,-0.00095,-0.007923000000000001,0.005464,-46.060001,7.0,7.0,3a
2019-07-12_112649:160,-0.49316400000000005,0.007111,-0.09454299999999999,-0.0036049999999999997,-0.0076170000000000005,0.005739,-46.060001,7.0,7.0,3a
2019-07-12_112649:180,-0.492126,0.001495,-0.09301799999999999,-0.0060149999999999995,-0.006488,0.004671,-46.369999,7.0,8.18,3a
2019-07-12_112649:200,-0.49517799999999995,0.0,-0.090485,-0.007023000000000001,-0.005176,0.004518,-46.369999,7.0,8.18,3a
2019-07-12_112649:220,-0.494171,-0.004059,-0.091003,-0.007633,-0.004961999999999999,0.004854,-45.68,7.0,8.56,3a
2019-07-12_112649:240,-0.498749,-0.000488,-0.089478,-0.008029999999999999,-0.005054,0.005739,-45.68,7.0,8.56,3a
2019-07-12_112649:260,-0.492126,-0.002014,-0.089478,-0.008426000000000001,-0.005298,0.006379,-45.68,7.0,8.56,3a
2019-07-12_112649:280,-0.494171,-0.001495,-0.08843999999999999,-0.009617,-0.0052369999999999995,0.006135,-46.369999,7.0,9.0,3a
2019-07-12_112649:300,-0.49517799999999995,-0.0030210000000000002,-0.085388,-0.011203,-0.003986,0.006135,-46.369999,7.0,9.0,3a
2019-07-12_112649:320,-0.49365200000000004,-0.008636,-0.085388,-0.012272,-0.003375,0.006257,-46.369999,7.68,8.18,3a
2019-07-12_112649:340,-0.49316400000000005,-0.013213999999999998,-0.085388,-0.012607,-0.00307,0.005922,-46.369999,7.68,8.18,3a
2019-07-12_112649:360,-0.48706099999999997,-0.014221000000000001,-0.085388,-0.012272,-0.0032530000000000002,0.006074,-46.369999,7.68,8.18,3a
2019-07-12_112649:380,-0.48706099999999997,-0.014740000000000001,-0.083862,-0.011875,-0.003986,0.006135,-46.060001,8.06,8.18,3a
2019-07-12_112649:400,-0.489594,-0.015228,-0.084381,-0.011936,-0.004961999999999999,0.005128,-46.060001,8.06,8.18,3a
2019-07-12_112649:420,-0.49975600000000003,-0.010651,-0.082855,-0.012058,-0.005298,0.00403,-45.68,7.25,9.0,3a
2019-07-12_112649:440,-0.49316400000000005,-0.014740000000000001,-0.081329,-0.01218,-0.004596,0.0032359999999999997,-45.68,7.25,9.0,3a
2019-07-12_112649:460,-0.488068,-0.016266,-0.081329,-0.012394,-0.0045049999999999995,0.0026260000000000003,-45.68,7.25,9.0,3a
2019-07-12_112649:480,-0.492126,-0.019806,-0.081329,-0.012058,-0.004383,0.0029620000000000002,-46.369999,7.25,9.37,3a
2019-07-12_112649:500,-0.49365200000000004,-0.023895,-0.07775900000000001,-0.010471,-0.005054,0.003053,-46.369999,7.25,9.37,3a
2019-07-12_112649:520,-0.48706099999999997,-0.022858,-0.078278,-0.007937999999999999,-0.005573,0.002565,-45.68,8.06,8.56,3a
2019-07-12_112649:540,-0.48043800000000003,-0.021332,-0.081329,-0.004337,-0.006854000000000001,0.0008560000000000001,-45.68,8.06,8.56,3a
2019-07-12_112649:560,-0.48349,-0.013213999999999998,-0.087952,-0.000797,-0.009265,-0.001158,-45.68,8.06,8.56,3a
2019-07-12_112649:580,-0.48754899999999995,-0.004059,-0.086914,0.002987,-0.011463,-0.003203,-46.369999,7.68,9.0,3a
2019-07-12_112649:600,-0.49517799999999995,0.009644,-0.083862,0.004696,-0.012042,-0.002928,-46.369999,7.68,9.0,3a
2019-07-12_112649:620,-0.489594,0.014221000000000001,-0.089478,0.00491,-0.011524,0.000123,-46.75,6.18,8.18,3a
2019-07-12_112649:640,-0.489075,0.019318000000000002,-0.091003,0.005032,-0.010974,0.000917,-46.75,6.18,8.18,3a
2019-07-12_112649:660,-0.491638,0.020844,-0.09454299999999999,0.004483,-0.010578,-0.0005480000000000001,-46.75,6.18,8.18,3a
2019-07-12_112649:680,-0.494171,0.024384,-0.095062,0.004971,-0.010059,-0.00186,-45.68,6.56,8.18,3a
2019-07-12_112649:700,-0.49722299999999997,0.024384,-0.097107,0.005429,-0.009387000000000001,-0.002013,-45.68,6.56,8.18,3a
2019-07-12_112649:720,-0.48196400000000006,0.023375999999999997,-0.100647,0.006161,-0.008319,-0.000273,-45.68,7.0,7.0,3a
2019-07-12_112649:740,-0.469757,0.024384,-0.102692,0.006679999999999999,-0.008716,0.002687,-45.68,7.0,7.0,3a
2019-07-12_112649:760,-0.477386,0.024384,-0.109802,0.007016,-0.010669,0.0058,-45.68,7.0,7.0,3a
2019-07-12_112649:780,-0.48095699999999997,0.021332,-0.11233499999999999,0.0061,-0.013324,0.009431,-46.060001,6.18,7.75,3a
2019-07-12_112649:800,-0.49517799999999995,0.01828,-0.113373,0.004422,-0.014972,0.012697,-46.060001,6.18,7.75,3a
2019-07-12_112649:820,-0.49975600000000003,0.013702,-0.112854,0.000973,-0.01485,0.016267,-45.68,5.75,7.0,3a
2019-07-12_112649:840,-0.502808,0.0030210000000000002,-0.110321,-0.002262,-0.012927000000000001,0.019716,-45.68,5.75,7.0,3a
2019-07-12_112649:860,-0.503326,-0.005065999999999999,-0.112854,-0.0060149999999999995,-0.010639000000000001,0.020112,-45.68,5.75,7.0,3a
2019-07-12_112649:880,-0.49722299999999997,-0.015228,-0.111328,-0.0098,-0.008411,0.018129,-46.060001,6.56,8.18,3a
2019-07-12_112649:900,-0.49517799999999995,-0.020844,-0.112854,-0.013309,-0.0066099999999999996,0.01642,-46.060001,6.56,8.18,3a
2019-07-12_112649:920,-0.49111899999999997,-0.034546,-0.11233499999999999,-0.015903,-0.0052369999999999995,0.015352000000000001,-46.060001,7.68,7.0,3a
2019-07-12_112649:940,-0.489075,-0.041687,-0.111328,-0.017124,-0.004444,0.013307,-46.060001,7.68,7.0,3a
2019-07-12_112649:960,-0.492645,-0.046752999999999996,-0.10928299999999999,-0.017124,-0.003589,0.010773999999999999,-46.060001,7.68,7.0,3a
2019-07-12_112649:980,-0.490601,-0.047791,-0.11080899999999999,-0.015995,-0.002918,0.008058,-46.060001,7.25,7.75,3a
2019-07-12_112650:000,-0.48043800000000003,-0.046752999999999996,-0.10675,-0.014072,-0.002246,0.004732,-46.060001,7.25,7.75,3a
2019-07-12_112650:020,-0.48196400000000006,-0.042175,-0.10675,-0.01218,-0.002338,0.001039,-45.369999,8.06,7.37,3a
2019-07-12_112650:040,-0.477905,-0.029480000000000003,-0.107269,-0.010288,-0.0031309999999999997,-0.000365,-45.369999,8.06,7.37,3a
2019-07-12_112650:060,-0.48043800000000003,-0.024384,-0.108795,-0.008762,-0.00426,-0.000731,-45.369999,8.06,7.37,3a
2019-07-12_112650:080,-0.48754899999999995,-0.016266,-0.11080899999999999,-0.008487,-0.005451,-0.001952,-46.369999,8.75,7.37,3a
2019-07-12_112650:100,-0.49468999999999996,-0.010651,-0.10928299999999999,-0.008762,-0.006,-0.0031420000000000003,-46.369999,8.75,7.37,3a
2019-07-12_112650:120,-0.501801,-0.009644,-0.108276,-0.009342,-0.005054,-0.003478,-46.369999,7.68,6.56,3a
2019-07-12_112650:140,-0.501282,-0.010162000000000001,-0.104218,-0.009556,-0.003314,-0.003478,-46.369999,7.68,6.56,3a
2019-07-12_112650:160,-0.49823,-0.010651,-0.102692,-0.008884,-0.0015140000000000002,-0.003081,-46.369999,7.68,6.56,3a
2019-07-12_112650:180,-0.49316400000000005,-0.011687999999999999,-0.09963999999999999,-0.007816,0.000134,-0.002013,-46.060001,7.25,6.18,3a
2019-07-12_112650:200,-0.489075,-0.011687999999999999,-0.097107,-0.006229,0.000989,-0.000365,-46.060001,7.25,6.18,3a
2019-07-12_112650:220,-0.484497,-0.011687999999999999,-0.096588,-0.004612,0.00108,0.000795,-47.18,7.68,7.75,3a
2019-07-12_112650:240,-0.48300200000000004,-0.011169,-0.097595,-0.0027199999999999998,-4.9e-05,0.0025039999999999997,-47.18,7.68,7.75,3a
2019-07-12_112650:260,-0.47842399999999996,-0.008636,-0.095062,-0.0011330000000000001,-0.001605,0.0039689999999999994,-47.18,7.68,7.75,3a
2019-07-12_112650:280,-0.47995,-0.009125,-0.09454299999999999,-0.000675,-0.00246,0.004457,-45.68,7.68,7.37,3a
2019-07-12_112650:300,-0.484009,-0.006592,-0.09353600000000001,0.00011899999999999999,-0.004566,0.005128,-45.68,7.68,7.37,3a
2019-07-12_112650:320,-0.48553500000000005,-0.0055850000000000006,-0.096588,-0.000156,-0.00539,0.005189,-46.369999,7.68,7.0,3a
2019-07-12_112650:340,-0.49365200000000004,-0.006072999999999999,-0.09201000000000001,-0.00095,-0.00539,0.004854,-46.369999,7.68,7.0,3a
2019-07-12_112650:360,-0.496216,-0.007599,-0.094055,-0.001529,-0.005115,0.004274,-46.369999,7.68,7.0,3a
2019-07-12_112650:380,-0.492645,-0.008118,-0.095581,-0.001957,-0.004779,0.0037549999999999997,-46.75,7.68,8.18,3a
2019-07-12_112650:400,-0.496216,-0.011687999999999999,-0.090485,-0.0018039999999999998,-0.004566,0.0025039999999999997,-46.75,7.68,8.18,3a
2019-07-12_112650:420,-0.500793,-0.010651,-0.095581,-0.0013460000000000002,-0.004383,0.000459,-45.369999,7.25,7.75,3a
2019-07-12_112650:440,-0.500793,-0.002014,-0.09149199999999999,-0.00159,-0.0037719999999999997,-0.000212,-45.369999,7.25,7.75,3a
2019-07-12_112650:460,-0.501801,0.007111,-0.08843999999999999,-0.003055,-0.0030399999999999997,0.0008560000000000001,-45.369999,7.25,7.75,3a
2019-07-12_112650:480,-0.500275,0.009125,-0.087952,-0.005954,-0.001605,0.0011,-45.68,7.25,7.75,3a
2019-07-12_112650:500,-0.492126,0.010162000000000001,-0.086914,-0.009006,-0.000995,0.000642,-45.68,7.25,7.75,3a
2019-07-12_112650:520,-0.481476,0.005065999999999999,-0.087952,-0.011142,-0.0017280000000000002,0.001161,-46.369999,6.56,7.37,3a
2019-07-12_112650:540,-0.47689799999999993,-0.0025329999999999997,-0.08996599999999999,-0.011722,-0.003467,0.001527,-46.369999,6.56,7.37,3a
2019-07-12_112650:560,-0.477905,-0.006072999999999999,-0.09149199999999999,-0.010806999999999999,-0.00539,0.0019850000000000002,-46.369999,6.56,7.37,3a
2019-07-12_112650:580,-0.47842399999999996,-0.006072999999999999,-0.09301799999999999,-0.009159,-0.006488,0.0029,-45.68,7.0,9.0,3a
2019-07-12_112650:600,-0.485016,-0.005065999999999999,-0.09301799999999999,-0.007267,-0.007404000000000001,0.004091,-45.68,7.0,9.0,3a
2019-07-12_112650:620,-0.491638,-0.001007,-0.09454299999999999,-0.005954,-0.007220999999999999,0.005006,-45.68,7.0,7.75,3a
2019-07-12_112650:640,-0.491638,0.001007,-0.097595,-0.005222,-0.00719,0.004793,-45.68,7.0,7.75,3a
2019-07-12_112650:660,-0.489075,0.0025329999999999997,-0.09811399999999999,-0.005161,-0.007862000000000001,0.003908,-45.68,7.0,7.75,3a
2019-07-12_112650:680,-0.49365200000000004,0.0035399999999999997,-0.098633,-0.005375,-0.007678,0.0037549999999999997,-45.68,7.0,7.75,3a
2019-07-12_112650:700,-0.496704,0.0025329999999999997,-0.099121,-0.005619,-0.007404000000000001,0.003908,-45.68,7.0,7.75,3a
2019-07-12_112650:720,-0.49722299999999997,0.001495,-0.099121,-0.005741,-0.0070680000000000005,0.003633,-46.369999,7.0,8.56,3a
2019-07-12_112650:740,-0.495697,0.0025329999999999997,-0.098633,-0.0060149999999999995,-0.005817,0.002046,-46.369999,7.0,8.56,3a
2019-07-12_112650:760,-0.495697,0.0035399999999999997,-0.09811399999999999,-0.005741,-0.00484,0.0005200000000000001,-46.369999,7.0,8.56,3a
2019-07-12_112650:780,-0.500275,0.006592,-0.097107,-0.005679999999999999,-0.004566,-9e-05,-45.369999,6.56,7.75,3a
2019-07-12_112650:800,-0.496704,0.006592,-0.092529,-0.004612,-0.002704,0.001314,-45.369999,6.56,7.75,3a
2019-07-12_112650:820,-0.49975600000000003,0.0055850000000000006,-0.09201000000000001,-0.004184,-0.0020629999999999997,0.002229,-45.68,6.56,9.0,3a
2019-07-12_112650:840,-0.49365200000000004,0.006592,-0.088959,-0.0027199999999999998,-0.000598,0.001832,-45.68,6.56,9.0,3a
2019-07-12_112650:860,-0.491638,0.010651,-0.08843999999999999,-0.002262,-0.00038500000000000003,0.001527,-45.68,6.56,9.0,3a
2019-07-12_112650:880,-0.490601,0.013213999999999998,-0.085388,-0.002018,-0.00038500000000000003,0.001771,-46.060001,6.18,7.75,3a
