timestamp,AccX,AccY,AccZ,GyroX,GyroY,GyroZ,MagX,MagY,MagZ,Activity
2019-07-12_124249:760,-0.35131799999999996,-0.078278,-0.369598,-0.013919999999999998,-0.002704,0.040712,-21.68,24.559998999999998,-24.370001000000002,2d
2019-07-12_124249:780,-0.344696,-0.078796,-0.368591,-0.012912,-0.004047,0.034273000000000005,-20.559998999999998,25.370001000000002,-24.75,2d
2019-07-12_124249:800,-0.335541,-0.076263,-0.36706500000000003,-0.012454999999999999,-0.00365,0.03235,-20.559998999999998,25.370001000000002,-24.75,2d
2019-07-12_124249:820,-0.334015,-0.076752,-0.369598,-0.011661,-0.002338,0.028291000000000004,-20.559998999999998,25.370001000000002,-24.75,2d
2019-07-12_124249:840,-0.346222,-0.083862,-0.378754,-0.011081,-0.002796,0.024385,-19.870001000000002,25.370001000000002,-24.0,2d
2019-07-12_124249:860,-0.373688,-0.085388,-0.384857,-0.010013,-0.0037719999999999997,0.018953,-19.870001000000002,25.370001000000002,-24.0,2d
2019-07-12_124249:880,-0.389954,-0.07928500000000001,-0.374695,-0.008029999999999999,-0.000659,0.011842,-19.5,26.370001000000002,-24.75,2d
2019-07-12_124249:900,-0.384857,-0.071686,-0.35180700000000004,-0.006687,0.007306,0.004671,-19.5,26.370001000000002,-24.75,2d
2019-07-12_124249:920,-0.353333,-0.06405599999999999,-0.3396,-0.005344,0.01286,0.0007639999999999999,-19.5,26.370001000000002,-24.75,2d
2019-07-12_124249:940,-0.339111,-0.058441,-0.333496,-0.003483,0.01286,-0.000426,-19.059998999999998,26.059998999999998,-25.559998999999998,2d
2019-07-12_124249:960,-0.325378,-0.058960000000000005,-0.32995599999999997,-0.002353,0.0099,-0.00067,-19.059998999999998,26.059998999999998,-25.559998999999998,2d
2019-07-12_124249:980,-0.33300799999999997,-0.056915,-0.326385,-0.001407,0.0067870000000000005,-0.001616,-20.18,26.059998999999998,-26.0,2d
2019-07-12_124250:000,-0.34317,-0.053375,-0.327911,-0.00095,0.005444,-0.002928,-20.18,26.059998999999998,-26.0,2d
2019-07-12_124250:020,-0.335022,-0.05285599999999999,-0.327423,-0.002079,0.005627,-0.004058,-20.18,26.059998999999998,-26.0,2d
2019-07-12_124250:040,-0.350281,-0.054901,-0.326904,-0.0036659999999999996,0.005963,-0.005461,-20.559998999999998,26.059998999999998,-23.559998999999998,2d
2019-07-12_124250:060,-0.36248800000000003,-0.058441,-0.33197,-0.004398,0.006024,-0.008574,-20.559998999999998,26.059998999999998,-23.559998999999998,2d
2019-07-12_124250:080,-0.376221,-0.057953,-0.32843,-0.0042450000000000005,0.007306,-0.013640000000000001,-20.559998999999998,25.0,-24.75,2d
2019-07-12_124250:100,-0.386383,-0.050323,-0.321808,-0.00394,0.009503,-0.016478,-20.559998999999998,25.0,-24.75,2d
2019-07-12_124250:120,-0.34570300000000004,-0.044219999999999995,-0.313171,-0.004123,0.012950999999999999,-0.014952000000000002,-20.559998999999998,25.0,-24.75,2d
2019-07-12_124250:140,-0.35739099999999996,-0.045226999999999996,-0.309113,-0.004275999999999999,0.011365,-0.013091,-21.0,26.059998999999998,-23.25,2d
2019-07-12_124250:160,-0.382812,-0.048279,-0.325897,-0.0022010000000000003,0.007763,-0.017211,-21.0,26.059998999999998,-23.25,2d
2019-07-12_124250:180,-0.377747,-0.040161,-0.320282,0.000393,0.003735,-0.02423,-22.059998999999998,25.68,-24.370001000000002,2d
2019-07-12_124250:200,-0.387909,-0.021851,-0.320801,0.0032920000000000002,0.000805,-0.025237,-22.059998999999998,25.68,-24.370001000000002,2d
2019-07-12_124250:220,-0.388916,-0.012695,-0.317749,0.004818,0.000866,-0.020475999999999998,-22.059998999999998,25.68,-24.370001000000002,2d
2019-07-12_124250:240,-0.37674,-0.004059,-0.308594,0.004086,0.002667,-0.013425999999999999,-22.870001000000002,24.559998999999998,-23.559998999999998,2d
2019-07-12_124250:260,-0.37265,-0.007111,-0.300476,0.0018280000000000002,0.00404,-0.0073230000000000005,-22.870001000000002,24.559998999999998,-23.559998999999998,2d
2019-07-12_124250:280,-0.367584,-0.010651,-0.300964,-0.00095,0.0047729999999999995,-0.004454,-23.18,24.559998999999998,-22.370001000000002,2d
2019-07-12_124250:300,-0.369598,-0.012695,-0.294373,-0.0033909999999999995,0.003522,-0.0031420000000000003,-23.18,24.559998999999998,-22.370001000000002,2d
2019-07-12_124250:320,-0.378754,-0.016753999999999998,-0.29943800000000004,-0.004825,0.0020570000000000002,-0.002989,-23.18,24.559998999999998,-22.370001000000002,2d
2019-07-12_124250:340,-0.378754,-0.016753999999999998,-0.297913,-0.006351,0.000531,-0.003264,-23.559998999999998,23.870001000000002,-21.559998999999998,2d
2019-07-12_124250:360,-0.383331,-0.017273,-0.302002,-0.007999,-0.001056,-0.001402,-23.559998999999998,23.870001000000002,-21.559998999999998,2d
2019-07-12_124250:380,-0.376221,-0.022369,-0.30249000000000004,-0.009006,-0.002918,0.0016489999999999999,-24.25,23.870001000000002,-22.75,2d
2019-07-12_124250:400,-0.38385,-0.031006,-0.305054,-0.009556,-0.004993,0.003023,-24.25,23.870001000000002,-22.75,2d
2019-07-12_124250:420,-0.385376,-0.035583,-0.307068,-0.008884,-0.006670999999999999,0.002687,-24.25,23.870001000000002,-22.75,2d
2019-07-12_124250:440,-0.391479,-0.037598,-0.311646,-0.007755,-0.008411,0.001771,-24.68,24.559998999999998,-22.0,2d
2019-07-12_124250:460,-0.391479,-0.039642000000000004,-0.311646,-0.006412,-0.009326000000000001,0.000642,-24.68,24.559998999999998,-22.0,2d
2019-07-12_124250:480,-0.390442,-0.038116000000000004,-0.315216,-0.004581,-0.009998,6.2e-05,-25.0,24.18,-22.370001000000002,2d
2019-07-12_124250:500,-0.396057,-0.037108999999999996,-0.316223,-0.002933,-0.009937,-9e-05,-25.0,24.18,-22.370001000000002,2d
2019-07-12_124250:520,-0.388428,-0.034546,-0.315704,-0.001468,-0.009448,-0.000273,-25.0,24.18,-22.370001000000002,2d
2019-07-12_124250:540,-0.389435,-0.032013,-0.316742,5.7999999999999994e-05,-0.008533,-0.000487,-25.370001000000002,23.059998999999998,-22.0,2d
2019-07-12_124250:560,-0.388916,-0.028442000000000002,-0.31723,0.001126,-0.0076170000000000005,-0.001341,-25.370001000000002,23.059998999999998,-22.0,2d
2019-07-12_124250:580,-0.386902,-0.024902,-0.315704,0.0014609999999999998,-0.006854000000000001,-0.001738,-25.0,23.5,-21.25,2d
2019-07-12_124250:600,-0.386902,-0.021851,-0.315704,0.0017050000000000001,-0.0061530000000000005,-0.0014939999999999999,-25.0,23.5,-21.25,2d
2019-07-12_124250:620,-0.386383,-0.020325,-0.316223,0.001248,-0.005939,-0.001219,-25.0,23.5,-21.25,2d
2019-07-12_124250:640,-0.382812,-0.01828,-0.315216,0.000729,-0.005817,-0.000731,-25.75,24.18,-23.25,2d
2019-07-12_124250:660,-0.385376,-0.017792,-0.316223,-3e-06,-0.006,-9e-05,-25.75,24.18,-23.25,2d
2019-07-12_124250:680,-0.382324,-0.018799,-0.315216,-0.000675,-0.006092,0.000184,-24.68,23.870001000000002,-21.25,2d
2019-07-12_124250:700,-0.384857,-0.01828,-0.315704,-0.001285,-0.006458,0.000245,-24.68,23.870001000000002,-21.25,2d
2019-07-12_124250:720,-0.38028,-0.020844,-0.312653,-0.0016820000000000001,-0.006336,0.000123,-24.68,23.870001000000002,-21.25,2d
2019-07-12_124250:740,-0.383331,-0.01828,-0.314178,-0.002018,-0.006458,-0.000762,-25.0,23.5,-21.25,2d
2019-07-12_124250:760,-0.379791,-0.016266,-0.31369,-0.002353,-0.0066099999999999996,-0.000762,-25.0,23.5,-21.25,2d
2019-07-12_124250:780,-0.378265,-0.01828,-0.314697,-0.002811,-0.007006999999999999,0.0005200000000000001,-25.0,23.059998999999998,-21.25,2d
2019-07-12_124250:800,-0.378754,-0.019318000000000002,-0.316223,-0.002811,-0.007465,0.0011,-25.0,23.059998999999998,-21.25,2d
2019-07-12_124250:820,-0.378265,-0.017792,-0.316223,-0.0033299999999999996,-0.007862000000000001,0.000978,-25.0,23.059998999999998,-21.25,2d
2019-07-12_124250:840,-0.382324,-0.016266,-0.318756,-0.0033909999999999995,-0.008258,0.0008560000000000001,-25.75,23.5,-21.559998999999998,2d
2019-07-12_124250:860,-0.382812,-0.017273,-0.319275,-0.0033909999999999995,-0.007678,0.001253,-25.75,23.5,-21.559998999999998,2d
2019-07-12_124250:880,-0.384338,-0.017792,-0.320282,-0.003544,-0.006731999999999999,0.001588,-25.370001000000002,23.5,-22.370001000000002,2d
2019-07-12_124250:900,-0.385864,-0.017792,-0.319794,-0.003483,-0.00539,0.002443,-25.370001000000002,23.5,-22.370001000000002,2d
2019-07-12_124250:920,-0.386902,-0.017273,-0.320282,-0.0036659999999999996,-0.003986,0.0029620000000000002,-25.370001000000002,23.5,-22.370001000000002,2d
2019-07-12_124250:940,-0.38739,-0.017792,-0.321808,-0.003849,-0.002979,0.003358,-24.68,23.059998999999998,-21.559998999999998,2d
2019-07-12_124250:960,-0.384857,-0.022369,-0.319794,-0.004001,-0.003375,0.004152,-24.68,23.059998999999998,-21.559998999999998,2d
2019-07-12_124250:980,-0.385864,-0.021851,-0.318756,-0.003879,-0.003925,0.004274,-25.0,23.5,-21.559998999999998,2d
2019-07-12_124251:000,-0.385864,-0.022369,-0.316223,-0.003788,-0.004657,0.0039689999999999994,-25.0,23.5,-21.559998999999998,2d
2019-07-12_124251:020,-0.388916,-0.022369,-0.31723,-0.003483,-0.004657,0.003908,-25.0,23.5,-21.559998999999998,2d
2019-07-12_124251:040,-0.385864,-0.020844,-0.315216,-0.003208,-0.004779,0.0038159999999999995,-25.75,23.5,-21.559998999999998,2d
2019-07-12_124251:060,-0.383331,-0.017273,-0.312164,-0.003055,-0.004901,0.0032359999999999997,-25.75,23.5,-21.559998999999998,2d
2019-07-12_124251:080,-0.37674,-0.015228,-0.308594,-0.003147,-0.005176,0.0032359999999999997,-25.370001000000002,23.059998999999998,-22.0,2d
2019-07-12_124251:100,-0.369598,-0.014221000000000001,-0.306061,-0.0036049999999999997,-0.006,0.0032359999999999997,-25.370001000000002,23.059998999999998,-22.0,2d
2019-07-12_124251:120,-0.364532,-0.014740000000000001,-0.305542,-0.004398,-0.006854000000000001,0.002839,-25.370001000000002,23.059998999999998,-22.0,2d
2019-07-12_124251:140,-0.361481,-0.015747,-0.307068,-0.004764,-0.008075,0.00229,-25.370001000000002,23.5,-20.75,2d
2019-07-12_124251:160,-0.361481,-0.016753999999999998,-0.307587,-0.005039,-0.008869,0.001314,-25.370001000000002,23.5,-20.75,2d
2019-07-12_124251:180,-0.36706500000000003,-0.016753999999999998,-0.311646,-0.004612,-0.009998,0.001192,-25.370001000000002,22.68,-22.75,2d
2019-07-12_124251:200,-0.372162,-0.016753999999999998,-0.31369,-0.004184,-0.010578,0.001527,-25.370001000000002,22.68,-22.75,2d
2019-07-12_124251:220,-0.375214,-0.013702,-0.318756,-0.0037270000000000003,-0.010669,0.001527,-25.370001000000002,22.68,-22.75,2d
2019-07-12_124251:240,-0.377747,-0.012695,-0.323334,-0.0036049999999999997,-0.011035,0.001924,-25.0,22.68,-22.059998999999998,2d
2019-07-12_124251:260,-0.373688,-0.012695,-0.325897,-0.003483,-0.011646,0.00229,-25.0,22.68,-22.059998999999998,2d
2019-07-12_124251:280,-0.382324,-0.013702,-0.33300799999999997,-0.003483,-0.013111000000000001,0.001832,-25.370001000000002,23.059998999999998,-20.75,2d
2019-07-12_124251:300,-0.397583,-0.012177,-0.338074,-0.003483,-0.012988,0.001497,-25.370001000000002,23.059998999999998,-20.75,2d
2019-07-12_124251:320,-0.40063499999999996,-0.011169,-0.340118,-0.002994,-0.010517,0.002229,-25.370001000000002,23.059998999999998,-20.75,2d
2019-07-12_124251:340,-0.399597,-0.011169,-0.337067,-0.002994,-0.006885,0.003297,-24.68,23.5,-22.0,2d
2019-07-12_124251:360,-0.393494,-0.010162000000000001,-0.335022,-0.003208,-0.004229999999999999,0.0038469999999999997,-24.68,23.5,-22.0,2d
2019-07-12_124251:380,-0.382324,-0.008636,-0.329437,-0.003788,-0.002307,0.004548,-25.0,23.5,-22.370001000000002,2d
2019-07-12_124251:400,-0.377747,-0.011169,-0.322845,-0.004581,-0.0021850000000000003,0.005403,-25.0,23.5,-22.370001000000002,2d
2019-07-12_124251:420,-0.381317,-0.015228,-0.318756,-0.004947,-0.002796,0.005983,-25.0,23.5,-22.370001000000002,2d
2019-07-12_124251:440,-0.380798,-0.017273,-0.31723,-0.005344,-0.0031309999999999997,0.006379,-25.0,23.5,-21.559998999999998,2d
2019-07-12_124251:460,-0.37674,-0.019318000000000002,-0.315216,-0.0051,-0.003833,0.006929,-25.0,23.5,-21.559998999999998,2d
2019-07-12_124251:480,-0.377228,-0.021332,-0.31369,-0.004947,-0.004444,0.007387,-25.0,23.059998999999998,-22.059998999999998,2d
2019-07-12_124251:500,-0.379272,-0.021851,-0.311127,-0.004764,-0.00484,0.007448000000000001,-25.0,23.059998999999998,-22.059998999999998,2d
2019-07-12_124251:520,-0.36911,-0.020325,-0.309601,-0.004764,-0.00484,0.007509,-25.0,23.059998999999998,-22.059998999999998,2d
2019-07-12_124251:540,-0.367584,-0.019318000000000002,-0.31012,-0.004947,-0.005451,0.0067150000000000005,-24.68,23.059998999999998,-21.25,2d
2019-07-12_124251:560,-0.361481,-0.018799,-0.307587,-0.005344,-0.0060609999999999995,0.006257,-24.68,23.059998999999998,-21.25,2d
2019-07-12_124251:580,-0.36248800000000003,-0.021332,-0.309113,-0.005741,-0.007006999999999999,0.006532,-25.75,23.5,-21.559998999999998,2d
2019-07-12_124251:600,-0.361481,-0.022858,-0.312164,-0.0061070000000000004,-0.007984,0.006318,-25.75,23.5,-21.559998999999998,2d
2019-07-12_124251:620,-0.36706500000000003,-0.024384,-0.318268,-0.006229,-0.00893,0.005678,-25.75,23.5,-21.559998999999998,2d
2019-07-12_124251:640,-0.36706500000000003,-0.025421,-0.32132,-0.006412,-0.009784000000000001,0.005006,-25.0,23.870001000000002,-21.559998999999998,2d
2019-07-12_124251:660,-0.371643,-0.026427999999999997,-0.325897,-0.006229,-0.011188,0.004182,-25.0,23.870001000000002,-21.559998999999998,2d
2019-07-12_124251:680,-0.37265,-0.027435,-0.33197,-0.005893,-0.012317,0.003358,-25.0,23.5,-22.0,2d
2019-07-12_124251:700,-0.381317,-0.027435,-0.338074,-0.005161,-0.012897,0.002382,-25.0,23.5,-22.0,2d
2019-07-12_124251:720,-0.390961,-0.025908999999999998,-0.34317,-0.004337,-0.011371,0.001161,-25.0,23.5,-22.0,2d
2019-07-12_124251:740,-0.393494,-0.020325,-0.34368899999999997,-0.003452,-0.008014,0.0008560000000000001,-24.68,23.059998999999998,-21.25,2d
2019-07-12_124251:760,-0.389435,-0.017273,-0.340118,-0.003147,-0.00484,0.001832,-24.68,23.059998999999998,-21.25,2d
2019-07-12_124251:780,-0.386383,-0.014740000000000001,-0.334534,-0.0033299999999999996,-0.0025210000000000002,0.003114,-25.75,23.870001000000002,-22.0,2d
2019-07-12_124251:800,-0.381805,-0.013213999999999998,-0.327911,-0.003452,-0.001209,0.00403,-25.75,23.870001000000002,-22.0,2d
2019-07-12_124251:820,-0.379791,-0.011169,-0.323334,-0.00394,-0.000659,0.004732,-25.75,23.870001000000002,-22.0,2d
2019-07-12_124251:840,-0.380798,-0.011687999999999999,-0.323334,-0.004398,-0.0008730000000000001,0.006135,-24.25,23.5,-22.370001000000002,2d
2019-07-12_124251:860,-0.378754,-0.011687999999999999,-0.318268,-0.004947,-0.001941,0.007387,-24.25,23.5,-22.370001000000002,2d
2019-07-12_124251:880,-0.381317,-0.010651,-0.317749,-0.005771,-0.002704,0.008394,-25.370001000000002,23.870001000000002,-22.0,2d
2019-07-12_124251:900,-0.376221,-0.011687999999999999,-0.314178,-0.00687,-0.003436,0.009248000000000001,-25.370001000000002,23.870001000000002,-22.0,2d
2019-07-12_124251:920,-0.373688,-0.013213999999999998,-0.312653,-0.007937999999999999,-0.0038640000000000002,0.009828,-25.370001000000002,23.870001000000002,-22.0,2d
2019-07-12_124251:940,-0.36654699999999996,-0.015747,-0.311127,-0.00867,-0.004047,0.010042,-24.25,23.059998999999998,-22.75,2d
2019-07-12_124251:960,-0.360962,-0.016266,-0.307587,-0.009403,-0.003833,0.010499,-24.25,23.059998999999998,-22.75,2d
2019-07-12_124251:980,-0.35436999999999996,-0.019806,-0.30654899999999996,-0.009678,-0.004229999999999999,0.010896,-24.68,24.18,-21.559998999999998,2d
2019-07-12_124252:000,-0.358917,-0.022858,-0.308594,-0.010074,-0.0055119999999999995,0.011903,-24.68,24.18,-21.559998999999998,2d
2019-07-12_124252:020,-0.35943600000000003,-0.026917,-0.312164,-0.010196,-0.006793,0.012086,-24.68,24.18,-21.559998999999998,2d
2019-07-12_124252:040,-0.361969,-0.028442000000000002,-0.31369,-0.009861,-0.008197,0.011903,-25.0,23.5,-23.25,2d
2019-07-12_124252:060,-0.364014,-0.03302,-0.321808,-0.009403,-0.01012,0.011384,-25.0,23.5,-23.25,2d
2019-07-12_124252:080,-0.36554000000000003,-0.034058,-0.325897,-0.008609,-0.012592,0.010103000000000001,-24.25,24.559998999999998,-21.559998999999998,2d
2019-07-12_124252:100,-0.378265,-0.034058,-0.337067,-0.007816,-0.015033000000000001,0.008119,-24.25,24.559998999999998,-21.559998999999998,2d
2019-07-12_124252:120,-0.390961,-0.034546,-0.34317,-0.006687,-0.015491,0.0058,-24.25,24.559998999999998,-21.559998999999998,2d
2019-07-12_124252:140,-0.402161,-0.030487,-0.34674099999999997,-0.005771,-0.01192,0.004091,-23.870001000000002,23.870001000000002,-22.75,2d
2019-07-12_124252:160,-0.397064,-0.025908999999999998,-0.344177,-0.005161,-0.006488,0.003023,-23.870001000000002,23.870001000000002,-22.75,2d
2019-07-12_124252:180,-0.389435,-0.022369,-0.34063699999999997,-0.005039,-0.002643,0.0029620000000000002,-23.870001000000002,24.18,-23.25,2d
2019-07-12_124252:200,-0.384338,-0.022858,-0.332489,-0.005222,-0.000324,0.00345,-23.870001000000002,24.18,-23.25,2d
2019-07-12_124252:220,-0.37674,-0.022858,-0.327423,-0.0051,1.2e-05,0.00403,-23.870001000000002,24.18,-23.25,2d
2019-07-12_124252:240,-0.378754,-0.022369,-0.326904,-0.005161,-0.000598,0.004793,-24.25,24.18,-23.559998999999998,2d
2019-07-12_124252:260,-0.377747,-0.022369,-0.323334,-0.0051,-0.001789,0.0058,-24.25,24.18,-23.559998999999998,2d
2019-07-12_124252:280,-0.378265,-0.022858,-0.322327,-0.004886,-0.0030399999999999997,0.006196,-23.870001000000002,24.18,-23.559998999999998,2d
2019-07-12_124252:300,-0.381805,-0.022369,-0.31723,-0.004947,-0.004047,0.006044,-23.870001000000002,24.18,-23.559998999999998,2d
2019-07-12_124252:320,-0.367584,-0.021851,-0.316223,-0.005039,-0.0037719999999999997,0.006196,-23.870001000000002,24.18,-23.559998999999998,2d
2019-07-12_124252:340,-0.36349499999999996,-0.020844,-0.312164,-0.005375,-0.0032530000000000002,0.005922,-23.559998999999998,23.870001000000002,-22.370001000000002,2d
2019-07-12_124252:360,-0.358917,-0.020844,-0.309601,-0.005558,-0.0032530000000000002,0.005067,-23.559998999999998,23.870001000000002,-22.370001000000002,2d
2019-07-12_124252:380,-0.3508,-0.022369,-0.309113,-0.006168,-0.002704,0.00525,-24.25,23.5,-23.559998999999998,2d
2019-07-12_124252:400,-0.35131799999999996,-0.023895,-0.310638,-0.006229,-0.003711,0.006135,-24.25,23.5,-23.559998999999998,2d
2019-07-12_124252:420,-0.356903,-0.025421,-0.313171,-0.006168,-0.0055119999999999995,0.006379,-24.25,23.5,-23.559998999999998,2d
2019-07-12_124252:440,-0.36044299999999996,-0.025421,-0.316223,-0.006626000000000001,-0.0076170000000000005,0.006257,-23.559998999999998,24.559998999999998,-22.0,2d
2019-07-12_124252:460,-0.364014,-0.029480000000000003,-0.32486,-0.006504,-0.010242,0.005983,-23.559998999999998,24.559998999999998,-22.0,2d
2019-07-12_124252:480,-0.36654699999999996,-0.030487,-0.327911,-0.0064730000000000005,-0.012836000000000002,0.005128,-23.559998999999998,23.870001000000002,-22.75,2d
2019-07-12_124252:500,-0.381317,-0.032013,-0.340118,-0.0061070000000000004,-0.014513999999999999,0.003511,-23.559998999999998,23.870001000000002,-22.75,2d
2019-07-12_124252:520,-0.385864,-0.032532,-0.344177,-0.005222,-0.014057,0.001436,-23.559998999999998,23.870001000000002,-22.75,2d
2019-07-12_124252:540,-0.399109,-0.026427999999999997,-0.34674099999999997,-0.004612,-0.010272,-0.000365,-22.870001000000002,23.870001000000002,-22.75,2d
2019-07-12_124252:560,-0.399597,-0.023375999999999997,-0.347229,-0.004123,-0.005298,-0.000487,-22.870001000000002,23.870001000000002,-22.75,2d
2019-07-12_124252:580,-0.390442,-0.019318000000000002,-0.341125,-0.003483,-0.001209,0.0007639999999999999,-24.25,23.870001000000002,-22.75,2d
2019-07-12_124252:600,-0.382324,-0.017792,-0.33605999999999997,-0.0033299999999999996,0.00105,0.002168,-24.25,23.870001000000002,-22.75,2d
2019-07-12_124252:620,-0.378265,-0.019806,-0.326904,-0.002994,0.001263,0.0032359999999999997,-24.25,23.870001000000002,-22.75,2d
2019-07-12_124252:640,-0.37674,-0.019318000000000002,-0.326904,-0.002994,0.000531,0.004182,-23.870001000000002,23.059998999999998,-23.25,2d
2019-07-12_124252:660,-0.379272,-0.020325,-0.321808,-0.003147,-0.000995,0.005128,-23.870001000000002,23.059998999999998,-23.25,2d
2019-07-12_124252:680,-0.377747,-0.019806,-0.320801,-0.0032689999999999998,-0.0023989999999999997,0.005525,-24.68,23.5,-22.370001000000002,2d
2019-07-12_124252:700,-0.374176,-0.017273,-0.316223,-0.0037270000000000003,-0.003467,0.005403,-24.68,23.5,-22.370001000000002,2d
2019-07-12_124252:720,-0.374176,-0.01828,-0.315704,-0.004642,-0.003986,0.005311,-24.68,23.5,-22.370001000000002,2d
2019-07-12_124252:740,-0.36554000000000003,-0.01828,-0.311646,-0.005497,-0.0038640000000000002,0.005189,-24.25,23.870001000000002,-22.75,2d
2019-07-12_124252:760,-0.358917,-0.021332,-0.308075,-0.0061070000000000004,-0.0032530000000000002,0.005128,-24.25,23.870001000000002,-22.75,2d
2019-07-12_124252:780,-0.349792,-0.024384,-0.306061,-0.006229,-0.003833,0.005006,-23.559998999999998,23.5,-22.75,2d
2019-07-12_124252:800,-0.3508,-0.027954000000000003,-0.308594,-0.005497,-0.005054,0.004915,-23.559998999999998,23.5,-22.75,2d
2019-07-12_124252:820,-0.35180700000000004,-0.029480000000000003,-0.31012,-0.004642,-0.007343000000000001,0.00525,-23.559998999999998,23.5,-22.75,2d
2019-07-12_124252:840,-0.361481,-0.028961,-0.31723,-0.003879,-0.009876000000000001,0.005586,-23.870001000000002,23.5,-22.75,2d
2019-07-12_124252:860,-0.368591,-0.027954000000000003,-0.32132,-0.00394,-0.012103000000000001,0.005189,-23.870001000000002,23.5,-22.75,2d
2019-07-12_124252:880,-0.374695,-0.027435,-0.327423,-0.004642,-0.013781999999999999,0.0034189999999999997,-24.25,23.870001000000002,-22.75,2d
2019-07-12_124252:900,-0.377747,-0.025421,-0.337067,-0.004978,-0.014178999999999999,0.002382,-24.25,23.870001000000002,-22.75,2d
2019-07-12_124252:920,-0.389954,-0.027435,-0.341644,-0.005375,-0.013111000000000001,0.000306,-24.25,23.870001000000002,-22.75,2d
2019-07-12_124252:940,-0.40011599999999997,-0.024902,-0.34875500000000004,-0.005497,-0.009113,-0.000731,-23.559998999999998,24.18,-22.75,2d
2019-07-12_124252:960,-0.398071,-0.024902,-0.345215,-0.004978,-0.002735,0.001039,-23.559998999999998,24.18,-22.75,2d
2019-07-12_124252:980,-0.390961,-0.024902,-0.340118,-0.004581,-0.001117,0.001192,-23.559998999999998,23.870001000000002,-22.370001000000002,2d
2019-07-12_124253:000,-0.385376,-0.025421,-0.335022,-0.0033299999999999996,0.00105,0.001375,-23.559998999999998,23.870001000000002,-22.370001000000002,2d
2019-07-12_124253:020,-0.374176,-0.022369,-0.323853,-0.002659,7.3e-05,0.002565,-23.559998999999998,23.870001000000002,-22.370001000000002,2d
2019-07-12_124253:040,-0.373688,-0.020844,-0.319275,-0.002323,-0.0012699999999999999,0.0037549999999999997,-24.25,23.5,-22.370001000000002,2d
2019-07-12_124253:060,-0.375214,-0.019806,-0.317749,-0.0022010000000000003,-0.002704,0.004152,-24.25,23.5,-22.370001000000002,2d
2019-07-12_124253:080,-0.374695,-0.01828,-0.317749,-0.002659,-0.004229999999999999,0.004335,-23.870001000000002,23.870001000000002,-23.25,2d
2019-07-12_124253:100,-0.372162,-0.015747,-0.316223,-0.0033299999999999996,-0.00539,0.004732,-23.870001000000002,23.870001000000002,-23.25,2d
2019-07-12_124253:120,-0.37011700000000003,-0.014221000000000001,-0.312164,-0.004459,-0.0055119999999999995,0.005006,-23.870001000000002,23.870001000000002,-23.25,2d
2019-07-12_124253:140,-0.367584,-0.016266,-0.311646,-0.0052829999999999995,-0.0052369999999999995,0.005342,-24.25,23.870001000000002,-23.18,2d
2019-07-12_124253:160,-0.352844,-0.020844,-0.304016,-0.006076,-0.00539,0.005739,-24.25,23.870001000000002,-23.18,2d
2019-07-12_124253:180,-0.353333,-0.022369,-0.308594,-0.006168,-0.006,0.005189,-23.870001000000002,24.18,-22.75,2d
2019-07-12_124253:200,-0.355896,-0.026427999999999997,-0.309113,-0.005679999999999999,-0.008533,0.004793,-23.870001000000002,24.18,-22.75,2d
2019-07-12_124253:220,-0.35943600000000003,-0.028961,-0.315704,-0.004642,-0.010974,0.005525,-23.870001000000002,24.18,-22.75,2d
2019-07-12_124253:240,-0.367584,-0.029480000000000003,-0.322327,-0.004337,-0.011646,0.005647,-23.870001000000002,23.059998999999998,-22.370001000000002,2d
2019-07-12_124253:260,-0.371643,-0.029480000000000003,-0.32843,-0.004062,-0.013904,0.004274,-23.870001000000002,23.059998999999998,-22.370001000000002,2d
2019-07-12_124253:280,-0.378754,-0.026427999999999997,-0.3396,-0.004123,-0.014240000000000001,0.003572,-23.559998999999998,23.870001000000002,-22.75,2d
2019-07-12_124253:300,-0.386902,-0.025908999999999998,-0.344177,-0.004642,-0.013172,0.0016489999999999999,-23.559998999999998,23.870001000000002,-22.75,2d
2019-07-12_124253:320,-0.396057,-0.026917,-0.34875500000000004,-0.004764,-0.009265,-0.000151,-23.559998999999998,23.870001000000002,-22.75,2d
2019-07-12_124253:340,-0.394531,-0.023895,-0.347748,-0.004764,-0.005054,-0.000609,-23.559998999999998,23.059998999999998,-22.370001000000002,2d
2019-07-12_124253:360,-0.388428,-0.022369,-0.34265100000000004,-0.004184,-0.001789,0.000184,-23.559998999999998,23.059998999999998,-22.370001000000002,2d
2019-07-12_124253:380,-0.383331,-0.021332,-0.338074,-0.003788,-0.00038500000000000003,0.001039,-23.559998999999998,23.870001000000002,-23.25,2d
2019-07-12_124253:400,-0.374695,-0.020325,-0.32995599999999997,-0.0033299999999999996,-0.000202,0.002046,-23.559998999999998,23.870001000000002,-23.25,2d
2019-07-12_124253:420,-0.375702,-0.018799,-0.326385,-0.002811,-0.0008730000000000001,0.0037549999999999997,-23.559998999999998,23.870001000000002,-23.25,2d
2019-07-12_124253:440,-0.375214,-0.017792,-0.323334,-0.002536,-0.0013310000000000002,0.004213000000000001,-24.25,23.5,-22.0,2d
2019-07-12_124253:460,-0.376221,-0.01828,-0.320801,-0.00275,-0.002979,0.004945000000000001,-24.25,23.5,-22.0,2d
2019-07-12_124253:480,-0.37265,-0.016753999999999998,-0.319794,-0.002933,-0.003589,0.005067,-23.18,23.870001000000002,-22.75,2d
2019-07-12_124253:500,-0.37112399999999995,-0.015747,-0.318756,-0.004001,-0.00484,0.005739,-23.18,23.870001000000002,-22.75,2d
2019-07-12_124253:520,-0.364532,-0.015228,-0.314697,-0.005039,-0.004961999999999999,0.005678,-23.18,23.870001000000002,-22.75,2d
2019-07-12_124253:540,-0.35791,-0.016266,-0.314178,-0.005558,-0.004961999999999999,0.005586,-24.25,23.5,-23.559998999999998,2d
2019-07-12_124253:560,-0.350281,-0.019806,-0.309601,-0.0064730000000000005,-0.005695,0.005586,-24.25,23.5,-23.559998999999998,2d
2019-07-12_124253:580,-0.34674099999999997,-0.021851,-0.314178,-0.006504,-0.006214,0.005678,-23.870001000000002,23.5,-22.0,2d
2019-07-12_124253:600,-0.352325,-0.025908999999999998,-0.315216,-0.005771,-0.008990999999999999,0.005586,-23.870001000000002,23.5,-22.0,2d
2019-07-12_124253:620,-0.35436999999999996,-0.026427999999999997,-0.318268,-0.004978,-0.011035,0.005983,-23.870001000000002,23.5,-22.0,2d
2019-07-12_124253:640,-0.365021,-0.027435,-0.327911,-0.004703,-0.012317,0.005983,-24.25,23.5,-22.0,2d
2019-07-12_124253:660,-0.364014,-0.026917,-0.329437,-0.004612,-0.01485,0.005067,-24.25,23.5,-22.0,2d
2019-07-12_124253:680,-0.372162,-0.027954000000000003,-0.337067,-0.004886,-0.015491,0.004182,-25.0,23.059998999999998,-23.18,2d
2019-07-12_124253:700,-0.382324,-0.027435,-0.346222,-0.004703,-0.014575,0.0017100000000000001,-25.0,23.059998999999998,-23.18,2d
2019-07-12_124253:720,-0.388428,-0.028442000000000002,-0.35131799999999996,-0.004184,-0.011524,-2.8999999999999997e-05,-25.0,23.059998999999998,-23.18,2d
2019-07-12_124253:740,-0.394531,-0.024384,-0.355377,-0.0037270000000000003,-0.009784000000000001,-0.000762,-23.870001000000002,22.68,-23.25,2d
2019-07-12_124253:760,-0.391968,-0.019806,-0.35180700000000004,-0.002872,-0.0038640000000000002,0.001314,-23.870001000000002,22.68,-23.25,2d
2019-07-12_124253:780,-0.385376,-0.017792,-0.345215,-0.002475,-0.002307,0.0025039999999999997,-23.870001000000002,22.68,-23.25,2d
2019-07-12_124253:800,-0.377747,-0.017273,-0.338593,-0.0027199999999999998,-4.9e-05,0.004548,-24.25,23.5,-22.75,2d
2019-07-12_124253:820,-0.37112399999999995,-0.015747,-0.334534,-0.002811,7.3e-05,0.004945000000000001,-24.25,23.5,-22.75,2d
2019-07-12_124253:840,-0.36911,-0.018799,-0.328949,-0.0032689999999999998,-0.0008119999999999999,0.005403,-23.18,23.870001000000002,-22.0,2d
2019-07-12_124253:860,-0.370636,-0.019318000000000002,-0.326385,-0.0037270000000000003,-0.002002,0.006074,-23.18,23.870001000000002,-22.0,2d
2019-07-12_124253:880,-0.368591,-0.018799,-0.323334,-0.0042450000000000005,-0.0031309999999999997,0.006135,-23.870001000000002,23.5,-22.75,2d
2019-07-12_124253:900,-0.366058,-0.01828,-0.32132,-0.004642,-0.003589,0.006318,-23.870001000000002,23.5,-22.75,2d
2019-07-12_124253:920,-0.35943600000000003,-0.020844,-0.31723,-0.005893,-0.004229999999999999,0.006470999999999999,-23.870001000000002,23.5,-22.75,2d
2019-07-12_124253:940,-0.356903,-0.020325,-0.314697,-0.006504,-0.004321,0.006470999999999999,-23.870001000000002,23.059998999999998,-22.75,2d
2019-07-12_124253:960,-0.345215,-0.022369,-0.309113,-0.006626000000000001,-0.0052369999999999995,0.0067150000000000005,-23.870001000000002,23.059998999999998,-22.75,2d
2019-07-12_124253:980,-0.349274,-0.027954000000000003,-0.31369,-0.006412,-0.0060609999999999995,0.006257,-23.870001000000002,23.059998999999998,-22.75,2d
2019-07-12_124254:000,-0.353333,-0.027435,-0.318268,-0.005954,-0.008716,0.005525,-24.25,23.870001000000002,-22.370001000000002,2d
2019-07-12_124254:020,-0.35739099999999996,-0.026917,-0.322845,-0.005679999999999999,-0.009845,0.006074,-24.25,23.870001000000002,-22.370001000000002,2d
2019-07-12_124254:040,-0.36911,-0.029480000000000003,-0.333496,-0.0052829999999999995,-0.011646,0.0067150000000000005,-23.559998999999998,24.18,-24.75,2d
2019-07-12_124254:060,-0.37316900000000003,-0.028961,-0.338074,-0.005222,-0.012531,0.005311,-23.559998999999998,24.18,-24.75,2d
2019-07-12_124254:080,-0.379272,-0.027954000000000003,-0.344177,-0.005619,-0.012195000000000001,0.00403,-23.559998999999998,23.5,-22.75,2d
2019-07-12_124254:100,-0.385864,-0.027435,-0.34875500000000004,-0.005558,-0.010456,0.0027170000000000002,-23.559998999999998,23.5,-22.75,2d
2019-07-12_124254:120,-0.384857,-0.027954000000000003,-0.347748,-0.005375,-0.006336,0.001588,-23.559998999999998,23.5,-22.75,2d
2019-07-12_124254:140,-0.385376,-0.025908999999999998,-0.347748,-0.005161,-0.004961999999999999,0.001588,-24.25,24.18,-23.18,2d
2019-07-12_124254:160,-0.379272,-0.026427999999999997,-0.340118,-0.0036049999999999997,-0.0014529999999999999,0.0019850000000000002,-24.25,24.18,-23.18,2d
2019-07-12_124254:180,-0.374176,-0.025908999999999998,-0.336548,-0.0033299999999999996,-0.001056,0.002229,-24.25,24.18,-23.18,2d
2019-07-12_124254:200,-0.37011700000000003,-0.022369,-0.32995599999999997,-0.002079,-0.0012699999999999999,0.0037549999999999997,-24.25,23.870001000000002,-24.0,2d
2019-07-12_124254:220,-0.36706500000000003,-0.019806,-0.327423,-0.002018,-0.001575,0.004335,-24.25,23.870001000000002,-24.0,2d
2019-07-12_124254:240,-0.368073,-0.01828,-0.325378,-0.002475,-0.002979,0.004945000000000001,-24.25,23.5,-22.0,2d
2019-07-12_124254:260,-0.366058,-0.017792,-0.321808,-0.0033909999999999995,-0.004383,0.005006,-24.25,23.5,-22.0,2d
2019-07-12_124254:280,-0.36349499999999996,-0.016753999999999998,-0.321808,-0.004459,-0.005695,0.00525,-24.25,23.5,-22.0,2d
2019-07-12_124254:300,-0.361481,-0.018799,-0.322845,-0.005558,-0.006793,0.005403,-23.18,23.5,-24.0,2d
2019-07-12_124254:320,-0.35638400000000003,-0.022369,-0.319275,-0.006504,-0.007281999999999999,0.005403,-23.18,23.5,-24.0,2d
2019-07-12_124254:340,-0.35180700000000004,-0.025908999999999998,-0.321808,-0.006687,-0.007739,0.00525,-23.559998999999998,23.870001000000002,-23.18,2d
2019-07-12_124254:360,-0.352844,-0.027954000000000003,-0.322327,-0.0060149999999999995,-0.008258,0.005067,-23.559998999999998,23.870001000000002,-23.18,2d
2019-07-12_124254:380,-0.348267,-0.029480000000000003,-0.325897,-0.0051,-0.008990999999999999,0.004854,-23.559998999999998,23.870001000000002,-23.18,2d
2019-07-12_124254:400,-0.355377,-0.029480000000000003,-0.328949,-0.004123,-0.010272,0.005189,-23.18,24.559998999999998,-23.559998999999998,2d
2019-07-12_124254:420,-0.364014,-0.026427999999999997,-0.337067,-0.0036049999999999997,-0.011524,0.005311,-23.18,24.559998999999998,-23.559998999999998,2d
2019-07-12_124254:440,-0.359955,-0.026427999999999997,-0.33758499999999997,-0.003788,-0.012042,0.004732,-23.18,24.559998999999998,-24.0,2d
2019-07-12_124254:460,-0.371643,-0.024384,-0.344696,-0.004123,-0.012653,0.0038469999999999997,-23.18,24.559998999999998,-24.0,2d
2019-07-12_124254:480,-0.368073,-0.022369,-0.347748,-0.004886,-0.01192,0.0032359999999999997,-23.18,24.559998999999998,-24.0,2d
2019-07-12_124254:500,-0.376221,-0.024384,-0.352325,-0.0051,-0.011768,0.001832,-23.559998999999998,23.5,-22.75,2d
2019-07-12_124254:520,-0.381317,-0.023895,-0.35436999999999996,-0.005375,-0.009937,0.0008560000000000001,-23.559998999999998,23.5,-22.75,2d
2019-07-12_124254:540,-0.376221,-0.024902,-0.349792,-0.005161,-0.0070680000000000005,0.001771,-23.18,24.18,-24.75,2d
2019-07-12_124254:560,-0.373688,-0.024384,-0.346222,-0.004642,-0.004961999999999999,0.002839,-23.18,24.18,-24.75,2d
2019-07-12_124254:580,-0.36554000000000003,-0.023895,-0.340118,-0.004062,-0.003467,0.003114,-23.18,24.18,-24.75,2d
2019-07-12_124254:600,-0.361969,-0.023375999999999997,-0.338074,-0.003483,-0.003436,0.0038159999999999995,-23.559998999999998,24.559998999999998,-23.559998999999998,2d
2019-07-12_124254:620,-0.36654699999999996,-0.023375999999999997,-0.33300799999999997,-0.003055,-0.004229999999999999,0.004732,-23.559998999999998,24.559998999999998,-23.559998999999998,2d
2019-07-12_124254:640,-0.364532,-0.022858,-0.335022,-0.003116,-0.004779,0.005067,-23.870001000000002,24.18,-24.370001000000002,2d
2019-07-12_124254:660,-0.364014,-0.020325,-0.333496,-0.0033299999999999996,-0.005451,0.005403,-23.870001000000002,24.18,-24.370001000000002,2d
2019-07-12_124254:680,-0.36349499999999996,-0.019806,-0.335022,-0.004184,-0.0055119999999999995,0.005342,-23.870001000000002,24.18,-24.370001000000002,2d
2019-07-12_124254:700,-0.354858,-0.020844,-0.325378,-0.004886,-0.005115,0.005067,-23.18,24.18,-22.370001000000002,2d
2019-07-12_124254:720,-0.348267,-0.021332,-0.327911,-0.005679999999999999,-0.004901,0.005678,-23.18,24.18,-22.370001000000002,2d
2019-07-12_124254:740,-0.345215,-0.027435,-0.326385,-0.005893,-0.005054,0.005586,-23.870001000000002,23.870001000000002,-23.559998999999998,2d
2019-07-12_124254:760,-0.344177,-0.027954000000000003,-0.32843,-0.005771,-0.006214,0.004274,-23.870001000000002,23.870001000000002,-23.559998999999998,2d
2019-07-12_124254:780,-0.35131799999999996,-0.027954000000000003,-0.33300799999999997,-0.005344,-0.007923000000000001,0.0039689999999999994,-23.870001000000002,23.870001000000002,-23.559998999999998,2d
2019-07-12_124254:800,-0.353851,-0.028442000000000002,-0.33758499999999997,-0.004703,-0.009723,0.004915,-23.18,23.870001000000002,-23.25,2d
2019-07-12_124254:820,-0.361481,-0.026917,-0.341644,-0.004520000000000001,-0.01192,0.004091,-23.18,23.870001000000002,-23.25,2d
2019-07-12_124254:840,-0.366058,-0.025908999999999998,-0.347229,-0.004703,-0.012256,0.003572,-23.18,23.870001000000002,-22.75,2d
2019-07-12_124254:860,-0.375702,-0.023895,-0.35131799999999996,-0.004978,-0.011646,0.0027170000000000002,-23.18,23.870001000000002,-22.75,2d
2019-07-12_124254:880,-0.377228,-0.024902,-0.355896,-0.005741,-0.009326000000000001,0.001771,-23.18,23.870001000000002,-22.75,2d
2019-07-12_124254:900,-0.37316900000000003,-0.024384,-0.352325,-0.005619,-0.006458,0.001192,-23.18,23.870001000000002,-23.25,2d
2019-07-12_124254:920,-0.372162,-0.024902,-0.350281,-0.005161,-0.004383,0.001314,-23.18,23.870001000000002,-23.25,2d
2019-07-12_124254:940,-0.367584,-0.023895,-0.345215,-0.0042450000000000005,-0.00246,0.0019850000000000002,-22.870001000000002,23.870001000000002,-24.75,2d
2019-07-12_124254:960,-0.364532,-0.022369,-0.3396,-0.003452,-0.00185,0.0029620000000000002,-22.870001000000002,23.870001000000002,-24.75,2d
2019-07-12_124254:980,-0.364532,-0.021851,-0.33758499999999997,-0.0027199999999999998,-0.002582,0.004213000000000001,-22.870001000000002,23.870001000000002,-24.75,2d
2019-07-12_124255:000,-0.36706500000000003,-0.021332,-0.337067,-0.0022010000000000003,-0.003467,0.005067,-23.559998999999998,23.5,-22.370001000000002,2d
2019-07-12_124255:020,-0.364532,-0.017792,-0.334015,-0.002475,-0.003833,0.005067,-23.559998999999998,23.5,-22.370001000000002,2d
2019-07-12_124255:040,-0.361481,-0.016753999999999998,-0.33300799999999997,-0.003452,-0.00426,0.005189,-23.18,23.870001000000002,-23.559998999999998,2d
2019-07-12_124255:060,-0.35436999999999996,-0.017273,-0.327911,-0.004703,-0.0045049999999999995,0.005586,-23.18,23.870001000000002,-23.559998999999998,2d
2019-07-12_124255:080,-0.349792,-0.019318000000000002,-0.327911,-0.005893,-0.00484,0.005525,-23.18,23.870001000000002,-23.559998999999998,2d
2019-07-12_124255:100,-0.34368899999999997,-0.022369,-0.325378,-0.00687,-0.005725,0.005067,-22.870001000000002,23.870001000000002,-23.25,2d
2019-07-12_124255:120,-0.34317,-0.026427999999999997,-0.326385,-0.006626000000000001,-0.006731999999999999,0.004915,-22.870001000000002,23.870001000000002,-23.25,2d
2019-07-12_124255:140,-0.34265100000000004,-0.027954000000000003,-0.332489,-0.006351,-0.008075,0.005006,-23.559998999999998,23.870001000000002,-23.559998999999998,2d
2019-07-12_124255:160,-0.34875500000000004,-0.030487,-0.333496,-0.0051,-0.009723,0.005586,-23.559998999999998,23.870001000000002,-23.559998999999998,2d
2019-07-12_124255:180,-0.36044299999999996,-0.031006,-0.341644,-0.004337,-0.011035,0.006257,-23.559998999999998,23.870001000000002,-23.559998999999998,2d
2019-07-12_124255:200,-0.358429,-0.029968,-0.344696,-0.004123,-0.011309999999999999,0.005678,-23.559998999999998,23.870001000000002,-24.0,2d
2019-07-12_124255:220,-0.368073,-0.027435,-0.35180700000000004,-0.004459,-0.011035,0.004274,-23.559998999999998,23.870001000000002,-24.0,2d
2019-07-12_124255:240,-0.36654699999999996,-0.026427999999999997,-0.355377,-0.004764,-0.010242,0.003114,-23.18,23.870001000000002,-22.75,2d
2019-07-12_124255:260,-0.37011700000000003,-0.024902,-0.35739099999999996,-0.005161,-0.009113,0.001253,-23.18,23.870001000000002,-22.75,2d
2019-07-12_124255:280,-0.379272,-0.022369,-0.361969,-0.005436,-0.007220999999999999,-0.000151,-23.18,23.870001000000002,-22.75,2d
2019-07-12_124255:300,-0.37112399999999995,-0.022369,-0.354858,-0.0052829999999999995,-0.00426,0.001192,-22.870001000000002,24.18,-24.370001000000002,2d
2019-07-12_124255:320,-0.36654699999999996,-0.024384,-0.349792,-0.004642,-0.002002,0.003175,-22.870001000000002,24.18,-24.370001000000002,2d
2019-07-12_124255:340,-0.364014,-0.024902,-0.34674099999999997,-0.003879,-0.0008119999999999999,0.003633,-24.25,23.870001000000002,-23.25,2d
2019-07-12_124255:360,-0.36044299999999996,-0.023895,-0.34063699999999997,-0.002994,-0.000537,0.003908,-24.25,23.870001000000002,-23.25,2d
2019-07-12_124255:380,-0.359955,-0.021851,-0.33758499999999997,-0.002475,-0.0014529999999999999,0.004732,-24.25,23.870001000000002,-23.25,2d
2019-07-12_124255:400,-0.358917,-0.019318000000000002,-0.33605999999999997,-0.002536,-0.001941,0.005403,-22.870001000000002,23.059998999999998,-23.559998999999998,2d
2019-07-12_124255:420,-0.354858,-0.017273,-0.33197,-0.0032689999999999998,-0.002643,0.005678,-22.870001000000002,23.059998999999998,-23.559998999999998,2d
2019-07-12_124255:440,-0.353851,-0.017273,-0.332489,-0.004520000000000001,-0.003833,0.006044,-23.559998999999998,23.870001000000002,-24.370001000000002,2d
2019-07-12_124255:460,-0.349792,-0.018799,-0.325897,-0.005832,-0.0045049999999999995,0.005922,-23.559998999999998,23.870001000000002,-24.370001000000002,2d
2019-07-12_124255:480,-0.349792,-0.020325,-0.328949,-0.007023000000000001,-0.004596,0.005678,-23.559998999999998,23.870001000000002,-24.370001000000002,2d
2019-07-12_124255:500,-0.338074,-0.023375999999999997,-0.324371,-0.007418999999999999,-0.004901,0.005739,-24.25,23.870001000000002,-24.370001000000002,2d
2019-07-12_124255:520,-0.34317,-0.022369,-0.328949,-0.007206000000000001,-0.006885,0.004915,-24.25,23.870001000000002,-24.370001000000002,2d
2019-07-12_124255:540,-0.345215,-0.021851,-0.332489,-0.006962,-0.008990999999999999,0.004274,-22.870001000000002,23.5,-24.370001000000002,2d
2019-07-12_124255:560,-0.34674099999999997,-0.021851,-0.335022,-0.0067480000000000005,-0.011309999999999999,0.005342,-22.870001000000002,23.5,-24.370001000000002,2d
2019-07-12_124255:580,-0.35638400000000003,-0.023375999999999997,-0.34570300000000004,-0.006809,-0.013324,0.006532,-22.870001000000002,23.5,-24.370001000000002,2d
2019-07-12_124255:600,-0.36554000000000003,-0.023895,-0.35131799999999996,-0.007084,-0.013843000000000001,0.006044,-23.870001000000002,24.559998999999998,-23.25,2d
2019-07-12_124255:620,-0.375702,-0.026427999999999997,-0.35791,-0.007145,-0.012378,0.005189,-23.870001000000002,24.559998999999998,-23.25,2d
2019-07-12_124255:640,-0.37674,-0.027954000000000003,-0.36248800000000003,-0.007145,-0.009326000000000001,0.004671,-22.5,23.870001000000002,-24.75,2d
2019-07-12_124255:660,-0.37265,-0.027954000000000003,-0.360962,-0.006504,-0.006214,0.004213000000000001,-22.5,23.870001000000002,-24.75,2d
2019-07-12_124255:680,-0.367584,-0.029480000000000003,-0.355377,-0.005679999999999999,-0.003589,0.004518,-22.5,23.870001000000002,-24.75,2d
2019-07-12_124255:700,-0.36654699999999996,-0.031006,-0.35131799999999996,-0.004520000000000001,-0.002307,0.004854,-23.18,23.870001000000002,-24.0,2d
2019-07-12_124255:720,-0.364532,-0.029968,-0.345215,-0.003483,-0.0013310000000000002,0.004915,-23.18,23.870001000000002,-24.0,2d
2019-07-12_124255:740,-0.360962,-0.029480000000000003,-0.342163,-0.002659,-0.000995,0.00525,-22.5,23.5,-25.18,2d
2019-07-12_124255:760,-0.359955,-0.025421,-0.338074,-0.00214,-0.001666,0.005464,-22.5,23.5,-25.18,2d
2019-07-12_124255:780,-0.358917,-0.023895,-0.33605999999999997,-0.002414,-0.002307,0.005403,-22.5,23.5,-25.18,2d
2019-07-12_124255:800,-0.35638400000000003,-0.021851,-0.332489,-0.003147,-0.00307,0.005342,-22.870001000000002,23.870001000000002,-24.0,2d
2019-07-12_124255:820,-0.353333,-0.022369,-0.330963,-0.004398,-0.0035280000000000003,0.005647,-22.870001000000002,23.870001000000002,-24.0,2d
2019-07-12_124255:840,-0.349274,-0.023895,-0.330475,-0.005741,-0.003986,0.005678,-22.5,23.870001000000002,-24.75,2d
2019-07-12_124255:860,-0.344177,-0.025421,-0.32843,-0.006809,-0.004779,0.005128,-22.5,23.870001000000002,-24.75,2d
2019-07-12_124255:880,-0.341125,-0.028961,-0.329437,-0.00687,-0.005817,0.004335,-22.5,23.870001000000002,-24.75,2d
2019-07-12_124255:900,-0.34265100000000004,-0.030487,-0.333496,-0.0064730000000000005,-0.007006999999999999,0.004335,-22.870001000000002,24.559998999999998,-24.0,2d
2019-07-12_124255:920,-0.34368899999999997,-0.031494,-0.335541,-0.005741,-0.008594,0.004671,-22.870001000000002,24.559998999999998,-24.0,2d
2019-07-12_124255:940,-0.3508,-0.029968,-0.34063699999999997,-0.004703,-0.010578,0.005678,-22.870001000000002,23.870001000000002,-24.0,2d
2019-07-12_124255:960,-0.35180700000000004,-0.031006,-0.344177,-0.004612,-0.010912999999999999,0.005647,-22.870001000000002,23.870001000000002,-24.0,2d
2019-07-12_124255:980,-0.358429,-0.029480000000000003,-0.349274,-0.004612,-0.011585,0.004671,-22.870001000000002,23.870001000000002,-24.0,2d
2019-07-12_124256:000,-0.363007,-0.028961,-0.358429,-0.004825,-0.011768,0.003633,-22.5,23.5,-23.18,2d
2019-07-12_124256:020,-0.364532,-0.028442000000000002,-0.35791,-0.004978,-0.010059,0.0016489999999999999,-22.5,23.5,-23.18,2d
2019-07-12_124256:040,-0.375214,-0.026427999999999997,-0.36349499999999996,-0.004764,-0.008075,0.000642,-22.5,23.5,-24.0,2d
2019-07-12_124256:060,-0.37265,-0.026427999999999997,-0.361969,-0.004398,-0.0052369999999999995,0.001527,-22.5,23.5,-24.0,2d
2019-07-12_124256:080,-0.36911,-0.027435,-0.35791,-0.0036659999999999996,-0.002857,0.0029,-22.5,23.5,-24.0,2d
2019-07-12_124256:100,-0.367584,-0.028442000000000002,-0.355377,-0.002872,-0.0012699999999999999,0.0034189999999999997,-22.5,23.870001000000002,-24.75,2d
2019-07-12_124256:120,-0.35638400000000003,-0.025908999999999998,-0.34570300000000004,-0.002414,-0.001056,0.003694,-22.5,23.870001000000002,-24.75,2d
2019-07-12_124256:140,-0.35638400000000003,-0.024384,-0.34368899999999997,-0.00214,-0.0013310000000000002,0.004182,-22.5,23.5,-24.75,2d
2019-07-12_124256:160,-0.35638400000000003,-0.020325,-0.337067,-0.002414,-0.002002,0.004213000000000001,-22.5,23.5,-24.75,2d
2019-07-12_124256:180,-0.35180700000000004,-0.019318000000000002,-0.335541,-0.0033909999999999995,-0.002735,0.004335,-22.5,23.5,-24.75,2d
2019-07-12_124256:200,-0.349274,-0.016266,-0.334534,-0.004703,-0.0037719999999999997,0.004518,-22.5,24.18,-25.18,2d
2019-07-12_124256:220,-0.34875500000000004,-0.017792,-0.33300799999999997,-0.005832,-0.004444,0.004548,-22.5,24.18,-25.18,2d
2019-07-12_124256:240,-0.352325,-0.020844,-0.33300799999999997,-0.007084,-0.004779,0.004732,-22.870001000000002,24.18,-24.0,2d
2019-07-12_124256:260,-0.3396,-0.023375999999999997,-0.329437,-0.007267,-0.0052369999999999995,0.005403,-22.870001000000002,24.18,-24.0,2d
2019-07-12_124256:280,-0.344177,-0.027435,-0.334534,-0.007023000000000001,-0.006731999999999999,0.004945000000000001,-22.870001000000002,24.18,-24.0,2d
2019-07-12_124256:300,-0.346222,-0.028442000000000002,-0.336548,-0.00629,-0.008014,0.005128,-23.18,24.18,-24.0,2d
2019-07-12_124256:320,-0.347748,-0.028442000000000002,-0.340118,-0.005161,-0.009723,0.006379,-23.18,24.18,-24.0,2d
2019-07-12_124256:340,-0.352844,-0.027954000000000003,-0.344177,-0.004703,-0.011066,0.006135,-23.18,23.870001000000002,-24.0,2d
2019-07-12_124256:360,-0.358917,-0.023895,-0.349792,-0.005039,-0.011524,0.005403,-23.18,23.870001000000002,-24.0,2d
2019-07-12_124256:380,-0.36349499999999996,-0.024384,-0.353333,-0.005497,-0.010851999999999999,0.005006,-23.18,23.870001000000002,-24.0,2d
2019-07-12_124256:400,-0.369598,-0.025421,-0.358917,-0.006229,-0.009204,0.004335,-23.559998999999998,24.18,-24.0,2d
2019-07-12_124256:420,-0.368591,-0.026427999999999997,-0.358917,-0.0065650000000000005,-0.006793,0.003694,-23.559998999999998,24.18,-24.0,2d
2019-07-12_124256:440,-0.368073,-0.027954000000000003,-0.356903,-0.0064730000000000005,-0.00484,0.0034189999999999997,-23.18,23.870001000000002,-24.0,2d
2019-07-12_124256:460,-0.36654699999999996,-0.027954000000000003,-0.353851,-0.005619,-0.002979,0.003694,-23.18,23.870001000000002,-24.0,2d
2019-07-12_124256:480,-0.361481,-0.027954000000000003,-0.350281,-0.004612,-0.0021850000000000003,0.0039689999999999994,-23.18,23.870001000000002,-24.0,2d
2019-07-12_124256:500,-0.36248800000000003,-0.026917,-0.347748,-0.003849,-0.002246,0.004548,-22.870001000000002,24.18,-24.0,2d
2019-07-12_124256:520,-0.36044299999999996,-0.022858,-0.34317,-0.0032689999999999998,-0.002307,0.00525,-22.870001000000002,24.18,-24.0,2d
2019-07-12_124256:540,-0.35791,-0.021851,-0.342163,-0.003544,-0.002918,0.00525,-22.5,23.5,-24.0,2d
2019-07-12_124256:560,-0.358429,-0.01828,-0.337067,-0.004275999999999999,-0.003314,0.005403,-22.5,23.5,-24.0,2d
2019-07-12_124256:580,-0.353333,-0.019318000000000002,-0.335541,-0.005161,-0.00365,0.0058,-22.5,23.5,-24.0,2d
2019-07-12_124256:600,-0.349274,-0.020844,-0.334015,-0.006076,-0.0038640000000000002,0.006044,-22.870001000000002,24.18,-23.559998999999998,2d
2019-07-12_124256:620,-0.344177,-0.023375999999999997,-0.330963,-0.0069,-0.004444,0.006257,-22.870001000000002,24.18,-23.559998999999998,2d
2019-07-12_124256:640,-0.341125,-0.027954000000000003,-0.33300799999999997,-0.0069,-0.0055119999999999995,0.006532,-22.5,23.870001000000002,-24.0,2d
2019-07-12_124256:660,-0.339111,-0.029968,-0.333496,-0.0065650000000000005,-0.006670999999999999,0.006379,-22.5,23.870001000000002,-24.0,2d
2019-07-12_124256:680,-0.344177,-0.032532,-0.338593,-0.005679999999999999,-0.007984,0.006593000000000001,-22.5,23.870001000000002,-24.0,2d
2019-07-12_124256:700,-0.34674099999999997,-0.03302,-0.341125,-0.004978,-0.009387000000000001,0.006837,-22.059998999999998,24.18,-24.0,2d
2019-07-12_124256:720,-0.355377,-0.03302,-0.348267,-0.004612,-0.010394,0.006593000000000001,-22.059998999999998,24.18,-24.0,2d
2019-07-12_124256:740,-0.35436999999999996,-0.030487,-0.35131799999999996,-0.004612,-0.010456,0.005525,-22.5,23.870001000000002,-24.0,2d
2019-07-12_124256:760,-0.366058,-0.029968,-0.355896,-0.004947,-0.009998,0.004182,-22.5,23.870001000000002,-24.0,2d
2019-07-12_124256:780,-0.364014,-0.029968,-0.35943600000000003,-0.005558,-0.008075,0.003358,-22.5,23.870001000000002,-24.0,2d
2019-07-12_124256:800,-0.36654699999999996,-0.030487,-0.35791,-0.005558,-0.006488,0.002229,-22.5,24.18,-24.0,2d
2019-07-12_124256:820,-0.371643,-0.029968,-0.358917,-0.005375,-0.0045049999999999995,0.001497,-22.5,24.18,-24.0,2d
2019-07-12_124256:840,-0.36554000000000003,-0.028961,-0.355896,-0.004612,-0.002582,0.0025039999999999997,-22.5,23.059998999999998,-24.370001000000002,2d
2019-07-12_124256:860,-0.366058,-0.028442000000000002,-0.352325,-0.003849,-0.0015140000000000002,0.0038469999999999997,-22.5,23.059998999999998,-24.370001000000002,2d
2019-07-12_124256:880,-0.361969,-0.024384,-0.347748,-0.0033909999999999995,-0.000598,0.004091,-22.5,23.059998999999998,-24.370001000000002,2d
2019-07-12_124256:900,-0.358917,-0.021851,-0.344177,-0.003544,-0.000324,0.004732,-21.68,24.18,-23.25,2d
2019-07-12_124256:920,-0.35739099999999996,-0.01828,-0.338593,-0.004337,-0.00072,0.005647,-21.68,24.18,-23.25,2d
2019-07-12_124256:940,-0.356903,-0.019318000000000002,-0.337067,-0.005375,-0.000781,0.005983,-23.18,24.18,-24.370001000000002,2d
2019-07-12_124256:960,-0.355377,-0.019318000000000002,-0.335541,-0.006809,-0.00041500000000000006,0.006654,-23.18,24.18,-24.370001000000002,2d
2019-07-12_124256:980,-0.352844,-0.022369,-0.335541,-0.007877,-0.00038500000000000003,0.007509,-23.18,24.18,-24.370001000000002,2d
2019-07-12_124257:000,-0.355896,-0.023895,-0.332489,-0.008334999999999999,-0.000324,0.007905,-23.18,23.5,-23.25,2d
2019-07-12_124257:020,-0.358917,-0.025421,-0.335022,-0.008426000000000001,0.000866,0.008729,-23.18,23.5,-23.25,2d
2019-07-12_124257:040,-0.358917,-0.020844,-0.33605999999999997,-0.008395999999999999,0.001935,0.009584,-22.5,24.18,-23.559998999999998,2d
2019-07-12_124257:060,-0.36349499999999996,-0.027435,-0.3396,-0.009006,0.002606,0.01056,-22.5,24.18,-23.559998999999998,2d
2019-07-12_124257:080,-0.36554000000000003,-0.028442000000000002,-0.339111,-0.008823000000000001,0.00285,0.010957,-22.5,24.18,-23.559998999999998,2d
2019-07-12_124257:100,-0.355896,-0.031006,-0.342163,-0.008609,0.0024530000000000003,0.011751000000000001,-22.5,23.5,-24.0,2d
2019-07-12_124257:120,-0.35791,-0.032532,-0.342163,-0.007999,0.0009279999999999999,0.011964,-22.5,23.5,-24.0,2d
2019-07-12_124257:140,-0.35791,-0.034058,-0.34265100000000004,-0.007633,-0.000659,0.011049,-22.870001000000002,23.870001000000002,-24.370001000000002,2d
2019-07-12_124257:160,-0.356903,-0.034546,-0.337067,-0.0069,-0.001911,0.010773999999999999,-22.870001000000002,23.870001000000002,-24.370001000000002,2d
2019-07-12_124257:180,-0.361481,-0.035065,-0.33758499999999997,-0.006412,-0.00307,0.010316,-22.870001000000002,23.870001000000002,-24.370001000000002,2d
2019-07-12_124257:200,-0.364532,-0.034058,-0.335541,-0.0061070000000000004,-0.003436,0.008851000000000001,-23.559998999999998,23.870001000000002,-24.0,2d
2019-07-12_124257:220,-0.363007,-0.032532,-0.331482,-0.005679999999999999,-0.003589,0.007905,-23.559998999999998,23.870001000000002,-24.0,2d
2019-07-12_124257:240,-0.364014,-0.032013,-0.328949,-0.005497,-0.00426,0.00757,-22.870001000000002,24.559998999999998,-24.0,2d
2019-07-12_124257:260,-0.35943600000000003,-0.032013,-0.326385,-0.005497,-0.005054,0.007203,-22.870001000000002,24.559998999999998,-24.0,2d
2019-07-12_124257:280,-0.363007,-0.031494,-0.326385,-0.005497,-0.0061530000000000005,0.006929,-22.870001000000002,24.559998999999998,-24.0,2d
2019-07-12_124257:300,-0.36349499999999996,-0.032532,-0.326385,-0.005344,-0.006793,0.007112,-22.059998999999998,24.559998999999998,-24.370001000000002,2d
2019-07-12_124257:320,-0.361969,-0.031006,-0.325897,-0.005344,-0.007404000000000001,0.0067150000000000005,-22.059998999999998,24.559998999999998,-24.370001000000002,2d
2019-07-12_124257:340,-0.36248800000000003,-0.032013,-0.326904,-0.005344,-0.007678,0.006441,-22.059998999999998,24.559998999999998,-23.25,2d
2019-07-12_124257:360,-0.363007,-0.031006,-0.32486,-0.005619,-0.008136,0.006379,-22.059998999999998,24.559998999999998,-23.25,2d
2019-07-12_124257:380,-0.36044299999999996,-0.032013,-0.327911,-0.005832,-0.00838,0.006379,-22.059998999999998,24.559998999999998,-23.25,2d
2019-07-12_124257:400,-0.359955,-0.031494,-0.32843,-0.006076,-0.008808,0.006470999999999999,-22.870001000000002,24.559998999999998,-24.0,2d
2019-07-12_124257:420,-0.358429,-0.034058,-0.330475,-0.006229,-0.009662,0.006776000000000001,-22.870001000000002,24.559998999999998,-24.0,2d
2019-07-12_124257:440,-0.36044299999999996,-0.034546,-0.332489,-0.006168,-0.010059,0.0069900000000000006,-22.059998999999998,24.18,-23.25,2d
2019-07-12_124257:460,-0.366058,-0.036072,-0.337067,-0.006229,-0.010456,0.006868000000000001,-22.059998999999998,24.18,-23.25,2d
2019-07-12_124257:480,-0.36554000000000003,-0.037598,-0.338074,-0.006412,-0.009998,0.006868000000000001,-22.059998999999998,24.18,-23.25,2d
2019-07-12_124257:500,-0.369598,-0.040161,-0.341125,-0.0060149999999999995,-0.009662,0.006929,-22.5,24.559998999999998,-23.559998999999998,2d
2019-07-12_124257:520,-0.368073,-0.040649,-0.341125,-0.005619,-0.008808,0.006257,-22.5,24.559998999999998,-23.559998999999998,2d
2019-07-12_124257:540,-0.36554000000000003,-0.040161,-0.340118,-0.005375,-0.007801000000000001,0.005586,-22.5,24.18,-25.559998999999998,2d
2019-07-12_124257:560,-0.36554000000000003,-0.039124,-0.341125,-0.005039,-0.007404000000000001,0.005067,-22.5,24.18,-25.559998999999998,2d
2019-07-12_124257:580,-0.361481,-0.039124,-0.34063699999999997,-0.004764,-0.007220999999999999,0.004274,-22.5,24.18,-25.559998999999998,2d
2019-07-12_124257:600,-0.36654699999999996,-0.035065,-0.34317,-0.004459,-0.007343000000000001,0.003572,-21.68,24.18,-25.18,2d
2019-07-12_124257:620,-0.361481,-0.035583,-0.340118,-0.004612,-0.006793,0.004274,-21.68,24.18,-25.18,2d
2019-07-12_124257:640,-0.360962,-0.037108999999999996,-0.34063699999999997,-0.004581,-0.006397,0.0058,-21.0,25.0,-23.559998999999998,2d
2019-07-12_124257:660,-0.358429,-0.038116000000000004,-0.338074,-0.004764,-0.0060609999999999995,0.005739,-21.0,25.0,-23.559998999999998,2d
2019-07-12_124257:680,-0.355896,-0.037108999999999996,-0.338593,-0.004947,-0.005634,0.005403,-21.0,25.0,-23.559998999999998,2d
2019-07-12_124257:700,-0.354858,-0.038635,-0.338074,-0.005222,-0.005756,0.005525,-21.0,24.559998999999998,-22.75,2d
2019-07-12_124257:720,-0.353851,-0.039642000000000004,-0.338593,-0.005344,-0.006,0.005464,-21.0,24.559998999999998,-22.75,2d
2019-07-12_124257:740,-0.352325,-0.039124,-0.339111,-0.005161,-0.006458,0.005189,-21.370001000000002,24.18,-24.75,2d
2019-07-12_124257:760,-0.35436999999999996,-0.039642000000000004,-0.338593,-0.005039,-0.007006999999999999,0.005006,-21.370001000000002,24.18,-24.75,2d
2019-07-12_124257:780,-0.356903,-0.038116000000000004,-0.340118,-0.005039,-0.0076170000000000005,0.004671,-21.370001000000002,24.18,-24.75,2d
2019-07-12_124257:800,-0.361481,-0.038635,-0.34317,-0.0051,-0.007526000000000001,0.004518,-22.059998999999998,24.559998999999998,-23.559998999999998,2d
2019-07-12_124257:820,-0.354858,-0.040649,-0.34063699999999997,-0.004947,-0.007220999999999999,0.004213000000000001,-22.059998999999998,24.559998999999998,-23.559998999999998,2d
2019-07-12_124257:840,-0.35791,-0.040649,-0.34570300000000004,-0.005039,-0.0076170000000000005,0.003175,-21.370001000000002,24.559998999999998,-24.0,2d
2019-07-12_124257:860,-0.35943600000000003,-0.040161,-0.34265100000000004,-0.004642,-0.007465,0.0029620000000000002,-21.370001000000002,24.559998999999998,-24.0,2d
2019-07-12_124257:880,-0.35943600000000003,-0.039642000000000004,-0.346222,-0.004062,-0.007404000000000001,0.0037549999999999997,-21.370001000000002,24.559998999999998,-24.0,2d
2019-07-12_124257:900,-0.36044299999999996,-0.037108999999999996,-0.346222,-0.003483,-0.0066099999999999996,0.0038469999999999997,-22.059998999999998,24.559998999999998,-25.18,2d
2019-07-12_124257:920,-0.356903,-0.035583,-0.345215,-0.0036659999999999996,-0.006092,0.003511,-22.059998999999998,24.559998999999998,-25.18,2d
2019-07-12_124257:940,-0.355377,-0.036591000000000005,-0.344177,-0.003849,-0.005725,0.003572,-21.370001000000002,25.0,-25.18,2d
2019-07-12_124257:960,-0.358429,-0.035065,-0.34368899999999997,-0.004123,-0.005634,0.0038159999999999995,-21.370001000000002,25.0,-25.18,2d
2019-07-12_124257:980,-0.35943600000000003,-0.037598,-0.34317,-0.004337,-0.0055119999999999995,0.0034189999999999997,-21.370001000000002,25.0,-25.18,2d
2019-07-12_124258:000,-0.358429,-0.037598,-0.34265100000000004,-0.004581,-0.0052369999999999995,0.003297,-20.559998999999998,24.559998999999998,-25.18,2d
2019-07-12_124258:020,-0.35943600000000003,-0.035583,-0.341644,-0.004337,-0.00539,0.0029620000000000002,-20.559998999999998,24.559998999999998,-25.18,2d
2019-07-12_124258:040,-0.35791,-0.036072,-0.34063699999999997,-0.004123,-0.005054,0.003023,-21.68,24.559998999999998,-24.370001000000002,2d
2019-07-12_124258:060,-0.352844,-0.034058,-0.33758499999999997,-0.004123,-0.005359,0.003633,-21.68,24.559998999999998,-24.370001000000002,2d
2019-07-12_124258:080,-0.354858,-0.033539,-0.34063699999999997,-0.004001,-0.005725,0.0038469999999999997,-21.68,24.559998999999998,-24.370001000000002,2d
2019-07-12_124258:100,-0.355896,-0.032013,-0.339111,-0.004184,-0.005725,0.003908,-21.370001000000002,24.559998999999998,-24.370001000000002,2d
2019-07-12_124258:120,-0.35791,-0.033539,-0.34063699999999997,-0.004520000000000001,-0.005725,0.004182,-21.370001000000002,24.559998999999998,-24.370001000000002,2d
2019-07-12_124258:140,-0.355377,-0.032013,-0.34063699999999997,-0.004825,-0.005939,0.004182,-22.059998999999998,25.0,-23.25,2d
2019-07-12_124258:160,-0.355896,-0.034058,-0.339111,-0.005039,-0.006,0.004457,-22.059998999999998,25.0,-23.25,2d
2019-07-12_124258:180,-0.356903,-0.036072,-0.34063699999999997,-0.0052829999999999995,-0.006275,0.004854,-22.059998999999998,25.0,-23.25,2d
2019-07-12_124258:200,-0.358429,-0.037108999999999996,-0.342163,-0.005222,-0.006275,0.004854,-21.370001000000002,24.559998999999998,-24.0,2d
2019-07-12_124258:220,-0.35791,-0.038116000000000004,-0.342163,-0.005161,-0.006397,0.004854,-21.370001000000002,24.559998999999998,-24.0,2d
2019-07-12_124258:240,-0.35739099999999996,-0.039124,-0.34368899999999997,-0.004764,-0.006397,0.004671,-22.059998999999998,25.0,-25.18,2d
2019-07-12_124258:260,-0.356903,-0.038116000000000004,-0.342163,-0.004520000000000001,-0.006092,0.004671,-22.059998999999998,25.0,-25.18,2d
2019-07-12_124258:280,-0.358917,-0.037598,-0.34317,-0.0042450000000000005,-0.006092,0.004335,-22.059998999999998,25.0,-25.18,2d
2019-07-12_124258:300,-0.35638400000000003,-0.037108999999999996,-0.34368899999999997,-0.004184,-0.005817,0.004609,-21.68,24.559998999999998,-24.75,2d
2019-07-12_124258:320,-0.358429,-0.036072,-0.341125,-0.004275999999999999,-0.005878,0.005006,-21.68,24.559998999999998,-24.75,2d
2019-07-12_124258:340,-0.353333,-0.034058,-0.34063699999999997,-0.004764,-0.005695,0.005189,-21.370001000000002,24.559998999999998,-25.18,2d
2019-07-12_124258:360,-0.35436999999999996,-0.038116000000000004,-0.340118,-0.005222,-0.0060609999999999995,0.004732,-21.370001000000002,24.559998999999998,-25.18,2d
2019-07-12_124258:380,-0.35180700000000004,-0.038116000000000004,-0.34317,-0.005619,-0.006275,0.004671,-21.370001000000002,24.559998999999998,-25.18,2d
2019-07-12_124258:400,-0.352844,-0.040161,-0.34265100000000004,-0.005436,-0.006731999999999999,0.004457,-21.370001000000002,24.559998999999998,-24.370001000000002,2d
2019-07-12_124258:420,-0.358429,-0.040161,-0.346222,-0.0052829999999999995,-0.007465,0.0038469999999999997,-21.370001000000002,24.559998999999998,-24.370001000000002,2d
2019-07-12_124258:440,-0.356903,-0.038635,-0.34570300000000004,-0.004886,-0.007220999999999999,0.004396,-21.370001000000002,25.0,-25.18,2d
2019-07-12_124258:460,-0.358429,-0.040161,-0.344696,-0.004337,-0.006885,0.005189,-21.370001000000002,25.0,-25.18,2d
2019-07-12_124258:480,-0.35638400000000003,-0.038116000000000004,-0.346222,-0.0042450000000000005,-0.006336,0.004732,-21.370001000000002,25.0,-25.18,2d
2019-07-12_124258:500,-0.350281,-0.036072,-0.34368899999999997,-0.004520000000000001,-0.005725,0.004152,-21.0,24.559998999999998,-24.0,2d
2019-07-12_124258:520,-0.349792,-0.035065,-0.341644,-0.004978,-0.005817,0.004335,-21.0,24.559998999999998,-24.0,2d
2019-07-12_124258:540,-0.35180700000000004,-0.037108999999999996,-0.344177,-0.005497,-0.006458,0.004213000000000001,-21.68,24.559998999999998,-24.0,2d
2019-07-12_124258:560,-0.350281,-0.038116000000000004,-0.34317,-0.005832,-0.006458,0.004213000000000001,-21.68,24.559998999999998,-24.0,2d
2019-07-12_124258:580,-0.352325,-0.038635,-0.344177,-0.005679999999999999,-0.006945999999999999,0.004793,-21.68,24.559998999999998,-24.0,2d
2019-07-12_124258:600,-0.35739099999999996,-0.039124,-0.345215,-0.0052829999999999995,-0.007281999999999999,0.004671,-22.059998999999998,25.0,-24.370001000000002,2d
2019-07-12_124258:620,-0.35791,-0.038116000000000004,-0.347748,-0.005161,-0.006885,0.004457,-22.059998999999998,25.0,-24.370001000000002,2d
2019-07-12_124258:640,-0.353851,-0.039124,-0.346222,-0.004825,-0.006397,0.004915,-21.0,24.559998999999998,-24.370001000000002,2d
2019-07-12_124258:660,-0.355896,-0.036591000000000005,-0.346222,-0.004642,-0.006336,0.004182,-21.0,24.559998999999998,-24.370001000000002,2d
2019-07-12_124258:680,-0.35180700000000004,-0.036072,-0.344696,-0.005039,-0.006458,0.003908,-21.0,24.559998999999998,-24.370001000000002,2d
2019-07-12_124258:700,-0.354858,-0.037598,-0.347748,-0.004947,-0.006731999999999999,0.00525,-21.0,25.370001000000002,-24.0,2d
2019-07-12_124258:720,-0.352844,-0.039642000000000004,-0.348267,-0.004947,-0.006488,0.005525,-21.0,25.370001000000002,-24.0,2d
2019-07-12_124258:740,-0.35436999999999996,-0.038116000000000004,-0.347229,-0.004886,-0.006458,0.004548,-21.0,24.559998999999998,-24.370001000000002,2d
2019-07-12_124258:760,-0.356903,-0.038116000000000004,-0.345215,-0.004764,-0.006458,0.004548,-21.0,24.559998999999998,-24.370001000000002,2d
2019-07-12_124258:780,-0.353333,-0.039124,-0.347229,-0.004764,-0.006,0.004732,-21.0,24.559998999999998,-24.370001000000002,2d
2019-07-12_124258:800,-0.35436999999999996,-0.038116000000000004,-0.346222,-0.004886,-0.006,0.004274,-21.0,24.18,-25.18,2d
2019-07-12_124258:820,-0.352844,-0.038116000000000004,-0.34570300000000004,-0.004978,-0.005725,0.004274,-21.0,24.18,-25.18,2d
2019-07-12_124258:840,-0.353333,-0.038116000000000004,-0.34570300000000004,-0.004886,-0.005878,0.004182,-21.0,25.0,-25.18,2d
2019-07-12_124258:860,-0.35180700000000004,-0.037108999999999996,-0.34368899999999997,-0.004825,-0.005817,0.004335,-21.0,25.0,-25.18,2d
2019-07-12_124258:880,-0.352325,-0.035583,-0.34570300000000004,-0.004886,-0.005939,0.004396,-21.0,25.0,-25.18,2d
2019-07-12_124258:900,-0.3508,-0.037108999999999996,-0.345215,-0.004764,-0.0060609999999999995,0.005067,-21.68,24.18,-25.18,2d
2019-07-12_124258:920,-0.350281,-0.038635,-0.345215,-0.004703,-0.006214,0.004945000000000001,-21.68,24.18,-25.18,2d
2019-07-12_124258:940,-0.350281,-0.038116000000000004,-0.34674099999999997,-0.004764,-0.006548999999999999,0.004671,-20.559998999999998,25.0,-26.370001000000002,2d
2019-07-12_124258:960,-0.352844,-0.037598,-0.346222,-0.004825,-0.006731999999999999,0.004793,-20.559998999999998,25.0,-26.370001000000002,2d
2019-07-12_124258:980,-0.353333,-0.037598,-0.34674099999999997,-0.004703,-0.0066099999999999996,0.004732,-20.559998999999998,25.0,-26.370001000000002,2d
2019-07-12_124259:000,-0.353333,-0.039124,-0.347229,-0.004764,-0.006397,0.004732,-20.18,25.370001000000002,-24.370001000000002,2d
2019-07-12_124259:020,-0.353851,-0.037108999999999996,-0.348267,-0.004947,-0.006397,0.004548,-20.18,25.370001000000002,-24.370001000000002,2d
2019-07-12_124259:040,-0.352325,-0.038116000000000004,-0.348267,-0.004947,-0.0061530000000000005,0.004457,-21.0,25.68,-25.18,2d
2019-07-12_124259:060,-0.353851,-0.037598,-0.347229,-0.004978,-0.006,0.004548,-21.0,25.68,-25.18,2d
2019-07-12_124259:080,-0.348267,-0.038116000000000004,-0.347748,-0.004978,-0.005939,0.004548,-21.0,25.68,-25.18,2d
2019-07-12_124259:100,-0.34875500000000004,-0.039124,-0.347229,-0.005039,-0.006,0.004793,-21.370001000000002,24.559998999999998,-24.75,2d
2019-07-12_124259:120,-0.350281,-0.039642000000000004,-0.347748,-0.004978,-0.006092,0.004854,-21.370001000000002,24.559998999999998,-24.75,2d
2019-07-12_124259:140,-0.353851,-0.040161,-0.34875500000000004,-0.004886,-0.006275,0.005006,-20.18,24.559998999999998,-25.18,2d
2019-07-12_124259:160,-0.355377,-0.039642000000000004,-0.347748,-0.004642,-0.005634,0.004854,-20.18,24.559998999999998,-25.18,2d
2019-07-12_124259:180,-0.3508,-0.039124,-0.34570300000000004,-0.004581,-0.004993,0.004457,-20.18,24.559998999999998,-25.18,2d
2019-07-12_124259:200,-0.349792,-0.036591000000000005,-0.347229,-0.004825,-0.005054,0.004396,-21.0,24.559998999999998,-25.18,2d
2019-07-12_124259:220,-0.341644,-0.039124,-0.34368899999999997,-0.004764,-0.005939,0.004609,-21.0,24.559998999999998,-25.18,2d
2019-07-12_124259:240,-0.347229,-0.039124,-0.348267,-0.004947,-0.007129000000000001,0.0038469999999999997,-21.0,25.370001000000002,-24.0,2d
2019-07-12_124259:260,-0.354858,-0.040649,-0.349274,-0.004947,-0.007343000000000001,0.0038159999999999995,-21.0,25.370001000000002,-24.0,2d
2019-07-12_124259:280,-0.354858,-0.039642000000000004,-0.350281,-0.004337,-0.006793,0.004671,-21.0,25.370001000000002,-24.0,2d
2019-07-12_124259:300,-0.355896,-0.041168,-0.35180700000000004,-0.004123,-0.005817,0.004518,-19.059998999999998,25.0,-24.370001000000002,2d
2019-07-12_124259:320,-0.352844,-0.040161,-0.348267,-0.003849,-0.005054,0.004091,-19.059998999999998,25.0,-24.370001000000002,2d
2019-07-12_124259:340,-0.34875500000000004,-0.037108999999999996,-0.348267,-0.004123,-0.00484,0.004182,-21.0,25.370001000000002,-25.18,2d
2019-07-12_124259:360,-0.349792,-0.038116000000000004,-0.346222,-0.004398,-0.004901,0.004335,-21.0,25.370001000000002,-25.18,2d
2019-07-12_124259:380,-0.347748,-0.038635,-0.347229,-0.004947,-0.004961999999999999,0.004182,-21.0,25.370001000000002,-25.18,2d
2019-07-12_124259:400,-0.34875500000000004,-0.038635,-0.346222,-0.005375,-0.0055119999999999995,0.004152,-21.68,24.559998999999998,-24.75,2d
2019-07-12_124259:420,-0.34875500000000004,-0.040161,-0.347229,-0.005436,-0.005725,0.004152,-21.68,24.559998999999998,-24.75,2d
2019-07-12_124259:440,-0.35131799999999996,-0.040161,-0.346222,-0.005161,-0.0060609999999999995,0.004274,-22.059998999999998,24.559998999999998,-25.18,2d
2019-07-12_124259:460,-0.347748,-0.040649,-0.34570300000000004,-0.004642,-0.005573,0.004609,-22.059998999999998,24.559998999999998,-25.18,2d
2019-07-12_124259:480,-0.350281,-0.042175,-0.34570300000000004,-0.004062,-0.006,0.0039689999999999994,-22.059998999999998,24.559998999999998,-25.18,2d
2019-07-12_124259:500,-0.35638400000000003,-0.038635,-0.34875500000000004,-0.0042450000000000005,-0.005573,0.003114,-21.0,25.0,-25.18,2d
2019-07-12_124259:520,-0.353333,-0.037598,-0.34674099999999997,-0.004275999999999999,-0.005054,0.004274,-21.0,25.0,-25.18,2d
2019-07-12_124259:540,-0.355377,-0.038116000000000004,-0.34875500000000004,-0.004337,-0.004444,0.004548,-20.559998999999998,25.0,-24.0,2d
2019-07-12_124259:560,-0.352844,-0.039642000000000004,-0.349792,-0.004612,-0.00426,0.004152,-20.559998999999998,25.0,-24.0,2d
2019-07-12_124259:580,-0.35131799999999996,-0.038635,-0.348267,-0.004642,-0.0045049999999999995,0.004152,-20.559998999999998,25.0,-24.0,2d
2019-07-12_124259:600,-0.352325,-0.039642000000000004,-0.34674099999999997,-0.004612,-0.004444,0.004182,-20.18,25.0,-24.0,2d
2019-07-12_124259:620,-0.350281,-0.039124,-0.344696,-0.004642,-0.004596,0.0039689999999999994,-20.18,25.0,-24.0,2d
2019-07-12_124259:640,-0.349792,-0.040161,-0.344696,-0.004642,-0.004779,0.004274,-21.0,24.559998999999998,-24.75,2d
2019-07-12_124259:660,-0.349792,-0.039642000000000004,-0.34317,-0.004398,-0.005298,0.004213000000000001,-21.0,24.559998999999998,-24.75,2d
2019-07-12_124259:680,-0.349274,-0.040161,-0.34317,-0.004275999999999999,-0.005634,0.003908,-21.0,24.559998999999998,-24.75,2d
2019-07-12_124259:700,-0.347229,-0.039124,-0.345215,-0.004184,-0.005817,0.004152,-21.370001000000002,25.0,-25.559998999999998,2d
2019-07-12_124259:720,-0.34875500000000004,-0.039642000000000004,-0.34368899999999997,-0.004184,-0.006336,0.004213000000000001,-21.370001000000002,25.0,-25.559998999999998,2d
2019-07-12_124259:740,-0.3508,-0.038635,-0.344177,-0.004337,-0.006458,0.004335,-20.559998999999998,24.559998999999998,-25.559998999999998,2d
2019-07-12_124259:760,-0.350281,-0.039124,-0.346222,-0.004581,-0.0066099999999999996,0.004518,-20.559998999999998,24.559998999999998,-25.559998999999998,2d
2019-07-12_124259:780,-0.349792,-0.039124,-0.34570300000000004,-0.004947,-0.006793,0.004609,-20.559998999999998,24.559998999999998,-25.559998999999998,2d
2019-07-12_124259:800,-0.349792,-0.038116000000000004,-0.347748,-0.0052829999999999995,-0.007006999999999999,0.004609,-20.559998999999998,24.559998999999998,-25.559998999999998,2d
2019-07-12_124259:820,-0.35436999999999996,-0.039642000000000004,-0.348267,-0.005344,-0.0066099999999999996,0.004457,-20.559998999999998,24.559998999999998,-25.559998999999998,2d
2019-07-12_124259:840,-0.353333,-0.041168,-0.349792,-0.0052829999999999995,-0.006,0.004457,-20.559998999999998,24.18,-24.75,2d
2019-07-12_124259:860,-0.353333,-0.041168,-0.35180700000000004,-0.005039,-0.005573,0.004396,-20.559998999999998,24.18,-24.75,2d
2019-07-12_124259:880,-0.35131799999999996,-0.040161,-0.3508,-0.004825,-0.0055119999999999995,0.004396,-20.559998999999998,24.18,-24.75,2d
2019-07-12_124259:900,-0.35131799999999996,-0.040161,-0.349274,-0.004764,-0.005359,0.004274,-21.68,24.559998999999998,-24.75,2d
2019-07-12_124259:920,-0.350281,-0.040649,-0.348267,-0.004764,-0.005359,0.004548,-21.68,24.559998999999998,-24.75,2d
2019-07-12_124259:940,-0.34875500000000004,-0.040649,-0.34875500000000004,-0.004642,-0.0055119999999999995,0.004854,-21.0,25.0,-24.75,2d
2019-07-12_124259:960,-0.35739099999999996,-0.042694,-0.349792,-0.004642,-0.005359,0.004548,-21.0,25.0,-24.75,2d
2019-07-12_124259:980,-0.3508,-0.041687,-0.34674099999999997,-0.004275999999999999,-0.004901,0.0039689999999999994,-21.0,25.0,-24.75,2d
2019-07-12_124300:000,-0.35180700000000004,-0.040161,-0.346222,-0.004581,-0.005115,0.003694,-20.559998999999998,24.18,-24.75,2d
2019-07-12_124300:020,-0.348267,-0.039642000000000004,-0.346222,-0.004581,-0.005176,0.003908,-20.559998999999998,24.18,-24.75,2d
2019-07-12_124300:040,-0.344177,-0.039124,-0.346222,-0.004886,-0.006458,0.003114,-21.0,25.68,-25.18,2d
2019-07-12_124300:060,-0.350281,-0.039124,-0.349792,-0.004947,-0.007006999999999999,0.003175,-21.0,25.68,-25.18,2d
2019-07-12_124300:080,-0.350281,-0.039642000000000004,-0.349274,-0.004947,-0.0070680000000000005,0.004671,-21.0,25.68,-25.18,2d
2019-07-12_124300:100,-0.353333,-0.042175,-0.3508,-0.004459,-0.006458,0.004732,-21.370001000000002,24.559998999999998,-25.559998999999998,2d
2019-07-12_124300:120,-0.35436999999999996,-0.042175,-0.350281,-0.004275999999999999,-0.00539,0.00345,-21.370001000000002,24.559998999999998,-25.559998999999998,2d
2019-07-12_124300:140,-0.3508,-0.040649,-0.34875500000000004,-0.004062,-0.005115,0.003511,-21.0,25.0,-23.559998999999998,2d
2019-07-12_124300:160,-0.349792,-0.039642000000000004,-0.349792,-0.004062,-0.005298,0.0038469999999999997,-21.0,25.0,-23.559998999999998,2d
2019-07-12_124300:180,-0.348267,-0.039124,-0.347748,-0.004459,-0.0052369999999999995,0.003572,-21.0,25.0,-23.559998999999998,2d
2019-07-12_124300:200,-0.347229,-0.037598,-0.34570300000000004,-0.004612,-0.005756,0.003633,-20.559998999999998,24.559998999999998,-24.75,2d
2019-07-12_124300:220,-0.34875500000000004,-0.037598,-0.347229,-0.004947,-0.0061530000000000005,0.003908,-20.559998999999998,24.559998999999998,-24.75,2d
2019-07-12_124300:240,-0.35131799999999996,-0.038116000000000004,-0.34674099999999997,-0.005161,-0.006336,0.004152,-21.370001000000002,25.0,-25.18,2d
2019-07-12_124300:260,-0.355377,-0.039124,-0.34875500000000004,-0.005039,-0.005817,0.004732,-21.370001000000002,25.0,-25.18,2d
2019-07-12_124300:280,-0.34674099999999997,-0.041687,-0.34570300000000004,-0.004886,-0.0060609999999999995,0.004396,-21.370001000000002,25.0,-25.18,2d
2019-07-12_124300:300,-0.352325,-0.039642000000000004,-0.349274,-0.004978,-0.0060609999999999995,0.003358,-20.18,24.559998999999998,-25.18,2d
2019-07-12_124300:320,-0.349792,-0.037598,-0.34570300000000004,-0.004612,-0.006092,0.004609,-20.18,24.559998999999998,-25.18,2d
2019-07-12_124300:340,-0.349792,-0.039642000000000004,-0.34875500000000004,-0.004520000000000001,-0.0060609999999999995,0.00525,-20.559998999999998,24.18,-24.370001000000002,2d
2019-07-12_124300:360,-0.350281,-0.040161,-0.35131799999999996,-0.004581,-0.005725,0.004732,-20.559998999999998,24.18,-24.370001000000002,2d
2019-07-12_124300:380,-0.35180700000000004,-0.040161,-0.349792,-0.004642,-0.005634,0.004335,-20.559998999999998,24.18,-24.370001000000002,2d
2019-07-12_124300:400,-0.353851,-0.042694,-0.34875500000000004,-0.004581,-0.0052369999999999995,0.004091,-20.559998999999998,24.18,-24.370001000000002,2d
2019-07-12_124300:420,-0.355377,-0.047272,-0.3508,-0.003788,-0.004169,0.002565,-20.559998999999998,24.18,-24.370001000000002,2d
2019-07-12_124300:440,-0.349274,-0.046265,-0.34875500000000004,-0.0033299999999999996,-0.0038640000000000002,0.001832,-20.559998999999998,24.18,-24.370001000000002,2d
2019-07-12_124300:460,-0.347229,-0.045226999999999996,-0.347229,-0.0018039999999999998,-0.004718,0.0005809999999999999,-21.0,24.559998999999998,-25.559998999999998,2d
2019-07-12_124300:480,-0.348267,-0.042694,-0.346222,-0.0013460000000000002,-0.00539,3.2e-05,-21.0,24.559998999999998,-25.559998999999998,2d
2019-07-12_124300:500,-0.344696,-0.040649,-0.344696,-0.001072,-0.0055119999999999995,-9e-05,-21.370001000000002,25.370001000000002,-24.370001000000002,2d
2019-07-12_124300:520,-0.347748,-0.040649,-0.345215,-0.000797,-0.006397,-0.000334,-21.370001000000002,25.370001000000002,-24.370001000000002,2d
2019-07-12_124300:540,-0.3508,-0.044219999999999995,-0.349274,-9.499999999999999e-05,-0.006488,-0.0005480000000000001,-21.370001000000002,24.18,-25.18,2d
2019-07-12_124300:560,-0.352325,-0.040649,-0.349274,0.00079,-0.006275,-0.0011279999999999999,-21.370001000000002,24.18,-25.18,2d
2019-07-12_124300:580,-0.3508,-0.037108999999999996,-0.3508,0.001187,-0.006092,0.001039,-21.370001000000002,24.18,-25.18,2d
2019-07-12_124300:600,-0.3508,-0.037598,-0.3508,0.001126,-0.005695,0.002229,-21.0,24.559998999999998,-25.18,2d
2019-07-12_124300:620,-0.349792,-0.036072,-0.349792,-3e-06,-0.005451,0.0025039999999999997,-21.0,24.559998999999998,-25.18,2d
2019-07-12_124300:640,-0.35180700000000004,-0.037108999999999996,-0.349792,-0.000553,-0.005451,0.0027170000000000002,-21.0,24.18,-24.0,2d
2019-07-12_124300:660,-0.352325,-0.038116000000000004,-0.349792,-0.001865,-0.0052369999999999995,0.003023,-21.0,24.18,-24.0,2d
2019-07-12_124300:680,-0.3508,-0.037598,-0.349274,-0.002933,-0.005176,0.0027170000000000002,-21.0,24.18,-24.0,2d
2019-07-12_124300:700,-0.34875500000000004,-0.039124,-0.34875500000000004,-0.0033909999999999995,-0.005115,0.0029620000000000002,-21.68,24.559998999999998,-22.75,2d
2019-07-12_124300:720,-0.352325,-0.041687,-0.349274,-0.004184,-0.00484,0.003175,-21.68,24.559998999999998,-22.75,2d
2019-07-12_124300:740,-0.349792,-0.042175,-0.34674099999999997,-0.004184,-0.004779,0.003114,-20.559998999999998,25.0,-23.18,2d
2019-07-12_124300:760,-0.35638400000000003,-0.042175,-0.34674099999999997,-0.004275999999999999,-0.0045049999999999995,0.0038159999999999995,-20.559998999999998,25.0,-23.18,2d
2019-07-12_124300:780,-0.347229,-0.041168,-0.34368899999999997,-0.004275999999999999,-0.004444,0.0038469999999999997,-20.559998999999998,25.0,-23.18,2d
2019-07-12_124300:800,-0.350281,-0.042694,-0.344177,-0.004337,-0.004321,0.003694,-20.559998999999998,24.18,-25.559998999999998,2d
2019-07-12_124300:820,-0.348267,-0.041168,-0.344177,-0.004275999999999999,-0.004383,0.0038159999999999995,-20.559998999999998,24.18,-25.559998999999998,2d
2019-07-12_124300:840,-0.349792,-0.043701,-0.344177,-0.004520000000000001,-0.005451,0.0032359999999999997,-20.559998999999998,25.370001000000002,-24.0,2d
2019-07-12_124300:860,-0.355377,-0.041168,-0.347748,-0.004520000000000001,-0.005695,0.002687,-20.559998999999998,25.370001000000002,-24.0,2d
2019-07-12_124300:880,-0.352325,-0.042694,-0.346222,-0.004581,-0.005756,0.004091,-20.559998999999998,25.370001000000002,-24.0,2d
2019-07-12_124300:900,-0.355896,-0.045226999999999996,-0.347229,-0.004520000000000001,-0.005725,0.004548,-21.68,24.559998999999998,-24.370001000000002,2d
2019-07-12_124300:920,-0.355377,-0.044739,-0.344696,-0.004337,-0.005176,0.003633,-21.68,24.559998999999998,-24.370001000000002,2d
2019-07-12_124300:940,-0.35180700000000004,-0.044739,-0.344696,-0.004275999999999999,-0.004901,0.003297,-21.68,24.559998999999998,-24.370001000000002,2d
2019-07-12_124300:960,-0.35180700000000004,-0.043701,-0.346222,-0.004001,-0.004718,0.0027170000000000002,-21.68,25.0,-24.75,2d
2019-07-12_124300:980,-0.352325,-0.042175,-0.344177,-0.003879,-0.004657,0.00229,-21.68,25.0,-24.75,2d
2019-07-12_124301:000,-0.352325,-0.040161,-0.345215,-0.003788,-0.00484,0.001771,-21.370001000000002,24.559998999999998,-22.75,2d
2019-07-12_124301:020,-0.3508,-0.039642000000000004,-0.344177,-0.0037270000000000003,-0.004901,0.001893,-21.370001000000002,24.559998999999998,-22.75,2d
2019-07-12_124301:040,-0.352325,-0.038635,-0.344696,-0.003483,-0.0055119999999999995,0.002168,-21.370001000000002,24.559998999999998,-22.75,2d
2019-07-12_124301:060,-0.354858,-0.035583,-0.345215,-0.003544,-0.005298,0.002229,-21.370001000000002,25.0,-23.25,2d
2019-07-12_124301:080,-0.34674099999999997,-0.035583,-0.342163,-0.0036049999999999997,-0.005115,0.002687,-21.370001000000002,25.0,-23.25,2d
2019-07-12_124301:100,-0.355377,-0.035065,-0.347748,-0.00394,-0.005573,0.002382,-22.5,26.059998999999998,-24.0,2d
2019-07-12_124301:120,-0.352844,-0.034058,-0.34317,-0.004398,-0.005756,0.003358,-22.5,26.059998999999998,-24.0,2d
2019-07-12_124301:140,-0.353851,-0.037108999999999996,-0.34674099999999997,-0.004459,-0.005939,0.004091,-22.059998999999998,25.68,-23.18,2d
2019-07-12_124301:160,-0.354858,-0.036591000000000005,-0.347229,-0.004947,-0.005695,0.004335,-22.059998999999998,25.68,-23.18,2d
2019-07-12_124301:180,-0.35180700000000004,-0.036591000000000005,-0.346222,-0.005161,-0.005634,0.004457,-22.059998999999998,25.68,-23.18,2d
2019-07-12_124301:200,-0.354858,-0.038116000000000004,-0.347748,-0.005436,-0.005634,0.004945000000000001,-22.059998999999998,24.559998999999998,-24.75,2d
2019-07-12_124301:220,-0.353333,-0.039642000000000004,-0.34674099999999997,-0.005679999999999999,-0.0055119999999999995,0.005189,-22.059998999999998,24.559998999999998,-24.75,2d
2019-07-12_124301:240,-0.353333,-0.040161,-0.349274,-0.005832,-0.005634,0.00525,-22.059998999999998,24.559998999999998,-24.75,2d
2019-07-12_124301:260,-0.355377,-0.043213,-0.347748,-0.005771,-0.005298,0.005311,-21.370001000000002,24.559998999999998,-23.25,2d
2019-07-12_124301:280,-0.35638400000000003,-0.043213,-0.347229,-0.005436,-0.005115,0.004793,-21.370001000000002,24.559998999999998,-23.25,2d
2019-07-12_124301:300,-0.35739099999999996,-0.043213,-0.347748,-0.005222,-0.004657,0.004274,-21.370001000000002,25.0,-24.0,2d
2019-07-12_124301:320,-0.35131799999999996,-0.041687,-0.346222,-0.005039,-0.003986,0.004335,-21.370001000000002,25.0,-24.0,2d
2019-07-12_124301:340,-0.3508,-0.040649,-0.344696,-0.0051,-0.004169,0.004457,-21.370001000000002,25.0,-24.0,2d
2019-07-12_124301:360,-0.350281,-0.041168,-0.344177,-0.005436,-0.004169,0.004854,-22.059998999999998,25.370001000000002,-24.370001000000002,2d
2019-07-12_124301:380,-0.352844,-0.044739,-0.34317,-0.005619,-0.004566,0.004945000000000001,-22.059998999999998,25.370001000000002,-24.370001000000002,2d
2019-07-12_124301:400,-0.353333,-0.045226999999999996,-0.341644,-0.005679999999999999,-0.004779,0.004396,-21.370001000000002,24.18,-24.75,2d
2019-07-12_124301:420,-0.349792,-0.046752999999999996,-0.341125,-0.0052829999999999995,-0.004961999999999999,0.0034189999999999997,-21.370001000000002,24.18,-24.75,2d
2019-07-12_124301:440,-0.347748,-0.047791,-0.338074,-0.004520000000000001,-0.005359,0.002565,-21.370001000000002,24.18,-24.75,2d
2019-07-12_124301:460,-0.347229,-0.044739,-0.339111,-0.0036659999999999996,-0.006275,0.002046,-21.68,25.0,-24.370001000000002,2d
2019-07-12_124301:480,-0.348267,-0.041687,-0.34063699999999997,-0.003147,-0.0070680000000000005,0.002382,-21.68,25.0,-24.370001000000002,2d
2019-07-12_124301:500,-0.349274,-0.037598,-0.34317,-0.002994,-0.007801000000000001,0.0026260000000000003,-21.370001000000002,24.559998999999998,-23.25,2d
2019-07-12_124301:520,-0.353333,-0.036072,-0.34570300000000004,-0.0033299999999999996,-0.008808,0.002229,-21.370001000000002,24.559998999999998,-23.25,2d
2019-07-12_124301:540,-0.354858,-0.034058,-0.347748,-0.004184,-0.00893,0.002321,-21.370001000000002,24.559998999999998,-23.25,2d
2019-07-12_124301:560,-0.36044299999999996,-0.036591000000000005,-0.350281,-0.004703,-0.008533,0.003297,-22.059998999999998,25.0,-23.559998999999998,2d
2019-07-12_124301:580,-0.363007,-0.040161,-0.352844,-0.005558,-0.007923000000000001,0.003694,-22.059998999999998,25.0,-23.559998999999998,2d
2019-07-12_124301:600,-0.356903,-0.042175,-0.35180700000000004,-0.006076,-0.006397,0.003053,-21.370001000000002,25.0,-24.75,2d
2019-07-12_124301:620,-0.358917,-0.045745999999999995,-0.35131799999999996,-0.0061070000000000004,-0.0060609999999999995,0.0025039999999999997,-21.370001000000002,25.0,-24.75,2d
2019-07-12_124301:640,-0.354858,-0.046265,-0.350281,-0.005558,-0.005054,0.002046,-21.370001000000002,25.0,-24.75,2d
2019-07-12_124301:660,-0.361969,-0.042175,-0.350281,-0.004581,-0.004901,0.000368,-21.370001000000002,25.370001000000002,-23.559998999999998,2d
2019-07-12_124301:680,-0.364014,-0.040161,-0.348267,-0.003879,-0.004718,-0.0008230000000000001,-21.370001000000002,25.370001000000002,-23.559998999999998,2d
2019-07-12_124301:700,-0.350281,-0.034058,-0.338593,-0.002994,-0.002918,-0.000426,-21.0,25.0,-23.559998999999998,2d
2019-07-12_124301:720,-0.347229,-0.032532,-0.335541,-0.0027199999999999998,-0.002246,-0.001006,-21.0,25.0,-23.559998999999998,2d
2019-07-12_124301:740,-0.334534,-0.024384,-0.334015,-0.002659,-0.002582,-0.0011279999999999999,-21.0,25.0,-23.559998999999998,2d
2019-07-12_124301:760,-0.330475,-0.022369,-0.333496,-0.0027199999999999998,-0.004047,0.000368,-22.5,25.0,-25.18,2d
2019-07-12_124301:780,-0.332489,-0.019318000000000002,-0.335541,-0.0033299999999999996,-0.005725,0.001527,-22.5,25.0,-25.18,2d
2019-07-12_124301:800,-0.332489,-0.019318000000000002,-0.34265100000000004,-0.004581,-0.007404000000000001,0.003175,-22.5,24.559998999999998,-23.559998999999998,2d
2019-07-12_124301:820,-0.338074,-0.021851,-0.347229,-0.006076,-0.009448,0.005647,-22.5,24.559998999999998,-23.559998999999998,2d
2019-07-12_124301:840,-0.347748,-0.027954000000000003,-0.35739099999999996,-0.007633,-0.011463,0.006593000000000001,-22.5,24.559998999999998,-23.559998999999998,2d
2019-07-12_124301:860,-0.36349499999999996,-0.034058,-0.359955,-0.009006,-0.012317,0.007051000000000001,-22.5,23.870001000000002,-22.0,2d
2019-07-12_124301:880,-0.36654699999999996,-0.044219999999999995,-0.36654699999999996,-0.009464,-0.011524,0.0076,-22.5,23.870001000000002,-22.0,2d
2019-07-12_124301:900,-0.368591,-0.050323,-0.368073,-0.008732,-0.009265,0.006074,-21.0,24.18,-25.18,2d
2019-07-12_124301:920,-0.36911,-0.048279,-0.36554000000000003,-0.007358,-0.00719,0.003175,-21.0,24.18,-25.18,2d
2019-07-12_124301:940,-0.361969,-0.047272,-0.364014,-0.005222,-0.004779,0.002229,-21.0,24.18,-25.18,2d
2019-07-12_124301:960,-0.35638400000000003,-0.039124,-0.35436999999999996,-0.003055,-0.002704,0.002382,-21.370001000000002,25.0,-24.370001000000002,2d
2019-07-12_124301:980,-0.349792,-0.031006,-0.348267,-0.001743,-0.001392,0.002229,-21.370001000000002,25.0,-24.370001000000002,2d
2019-07-12_124302:000,-0.346222,-0.022858,-0.34265100000000004,-0.001529,-0.000995,0.003175,-22.059998999999998,23.870001000000002,-23.559998999999998,2d
2019-07-12_124302:020,-0.342163,-0.022369,-0.339111,-0.0022010000000000003,-0.0013310000000000002,0.004915,-22.059998999999998,23.870001000000002,-23.559998999999998,2d
2019-07-12_124302:040,-0.34368899999999997,-0.023895,-0.33758499999999997,-0.004062,-0.002246,0.006196,-22.059998999999998,23.870001000000002,-23.559998999999998,2d
2019-07-12_124302:060,-0.346222,-0.026917,-0.338074,-0.005954,-0.002796,0.0069900000000000006,-21.68,25.0,-23.559998999999998,2d
2019-07-12_124302:080,-0.34875500000000004,-0.033539,-0.339111,-0.007418999999999999,-0.003833,0.007265000000000001,-21.68,25.0,-23.559998999999998,2d
2019-07-12_124302:100,-0.349792,-0.038635,-0.340118,-0.008091,-0.004901,0.007326000000000001,-22.059998999999998,24.559998999999998,-24.0,2d
2019-07-12_124302:120,-0.35436999999999996,-0.044219999999999995,-0.341644,-0.008274,-0.005725,0.007112,-22.059998999999998,24.559998999999998,-24.0,2d
2019-07-12_124302:140,-0.35131799999999996,-0.046265,-0.344177,-0.00748,-0.006336,0.0067150000000000005,-22.059998999999998,24.559998999999998,-24.0,2d
2019-07-12_124302:160,-0.35180700000000004,-0.045745999999999995,-0.34317,-0.00629,-0.006945999999999999,0.005922,-21.370001000000002,25.0,-24.0,2d
2019-07-12_124302:180,-0.35131799999999996,-0.044219999999999995,-0.344177,-0.005222,-0.007343000000000001,0.004854,-21.370001000000002,25.0,-24.0,2d
2019-07-12_124302:200,-0.355377,-0.041687,-0.34674099999999997,-0.004337,-0.007129000000000001,0.00403,-21.370001000000002,24.559998999999998,-24.370001000000002,2d
2019-07-12_124302:220,-0.353333,-0.039642000000000004,-0.345215,-0.003544,-0.006731999999999999,0.0034189999999999997,-21.370001000000002,24.559998999999998,-24.370001000000002,2d
2019-07-12_124302:240,-0.352844,-0.035583,-0.347229,-0.0032689999999999998,-0.006548999999999999,0.0029620000000000002,-21.370001000000002,24.559998999999998,-24.370001000000002,2d
2019-07-12_124302:260,-0.35131799999999996,-0.034058,-0.34875500000000004,-0.0033299999999999996,-0.006397,0.0027170000000000002,-21.68,24.559998999999998,-24.75,2d
2019-07-12_124302:280,-0.35180700000000004,-0.032532,-0.347748,-0.0033299999999999996,-0.006458,0.002565,-21.68,24.559998999999998,-24.75,2d
2019-07-12_124302:300,-0.354858,-0.032532,-0.348267,-0.003879,-0.0060609999999999995,0.0026260000000000003,-21.68,25.0,-23.559998999999998,2d
2019-07-12_124302:320,-0.352844,-0.031006,-0.347229,-0.004001,-0.005817,0.002565,-21.68,25.0,-23.559998999999998,2d
2019-07-12_124302:340,-0.352325,-0.031006,-0.349274,-0.004184,-0.005756,0.0029620000000000002,-21.68,25.0,-23.559998999999998,2d
2019-07-12_124302:360,-0.353333,-0.031006,-0.347748,-0.004581,-0.005725,0.003297,-22.870001000000002,24.18,-24.370001000000002,2d
2019-07-12_124302:380,-0.35131799999999996,-0.031006,-0.348267,-0.004825,-0.005634,0.004152,-22.870001000000002,24.18,-24.370001000000002,2d
2019-07-12_124302:400,-0.35638400000000003,-0.032532,-0.348267,-0.004978,-0.005939,0.00525,-22.5,25.0,-22.370001000000002,2d
2019-07-12_124302:420,-0.35436999999999996,-0.033539,-0.347748,-0.005222,-0.005176,0.005525,-22.5,25.0,-22.370001000000002,2d
2019-07-12_124302:440,-0.35131799999999996,-0.036072,-0.34570300000000004,-0.005222,-0.00539,0.005189,-22.5,25.0,-22.370001000000002,2d
2019-07-12_124302:460,-0.35131799999999996,-0.036072,-0.349274,-0.005558,-0.00539,0.004732,-21.370001000000002,25.370001000000002,-24.75,2d
2019-07-12_124302:480,-0.348267,-0.037598,-0.347229,-0.005344,-0.0060609999999999995,0.0039689999999999994,-21.370001000000002,25.370001000000002,-24.75,2d
2019-07-12_124302:500,-0.349792,-0.036591000000000005,-0.349792,-0.005375,-0.006548999999999999,0.003023,-21.370001000000002,23.870001000000002,-25.559998999999998,2d
2019-07-12_124302:520,-0.35180700000000004,-0.037108999999999996,-0.350281,-0.0051,-0.006854000000000001,0.0037549999999999997,-21.370001000000002,23.870001000000002,-25.559998999999998,2d
2019-07-12_124302:540,-0.35131799999999996,-0.037598,-0.350281,-0.004581,-0.006336,0.004335,-21.370001000000002,23.870001000000002,-25.559998999999998,2d
2019-07-12_124302:560,-0.353333,-0.036072,-0.349274,-0.004337,-0.0061530000000000005,0.003694,-21.68,25.370001000000002,-24.0,2d
2019-07-12_124302:580,-0.35131799999999996,-0.034546,-0.34875500000000004,-0.004123,-0.005451,0.003633,-21.68,25.370001000000002,-24.0,2d
2019-07-12_124302:600,-0.3508,-0.033539,-0.349792,-0.004123,-0.0052369999999999995,0.00403,-21.68,24.18,-24.0,2d
2019-07-12_124302:620,-0.35131799999999996,-0.032013,-0.347229,-0.004581,-0.005176,0.004457,-21.68,24.18,-24.0,2d
2019-07-12_124302:640,-0.349274,-0.032532,-0.347229,-0.004978,-0.004993,0.004732,-21.68,24.18,-24.0,2d
2019-07-12_124302:660,-0.349792,-0.033539,-0.347229,-0.005497,-0.005573,0.004945000000000001,-21.68,24.559998999999998,-23.559998999999998,2d
2019-07-12_124302:680,-0.352325,-0.035583,-0.347748,-0.005954,-0.005695,0.004793,-21.68,24.559998999999998,-23.559998999999998,2d
2019-07-12_124302:700,-0.355377,-0.037598,-0.35131799999999996,-0.005741,-0.0055119999999999995,0.005067,-22.059998999999998,25.0,-25.18,2d
2019-07-12_124302:720,-0.34875500000000004,-0.041168,-0.34674099999999997,-0.005222,-0.005634,0.004854,-22.059998999999998,25.0,-25.18,2d
2019-07-12_124302:740,-0.3508,-0.040161,-0.3508,-0.004520000000000001,-0.005878,0.003572,-22.059998999999998,25.0,-25.18,2d
2019-07-12_124302:760,-0.35180700000000004,-0.036072,-0.349274,-0.003879,-0.005878,0.003511,-21.370001000000002,24.18,-24.0,2d
2019-07-12_124302:780,-0.35131799999999996,-0.034546,-0.350281,-0.003452,-0.005756,0.004609,-21.370001000000002,24.18,-24.0,2d
2019-07-12_124302:800,-0.35180700000000004,-0.031494,-0.3508,-0.003849,-0.0055119999999999995,0.004182,-21.68,25.0,-24.370001000000002,2d
2019-07-12_124302:820,-0.35180700000000004,-0.029480000000000003,-0.34875500000000004,-0.004581,-0.005176,0.0037549999999999997,-21.68,25.0,-24.370001000000002,2d
2019-07-12_124302:840,-0.35131799999999996,-0.028961,-0.347229,-0.005344,-0.004961999999999999,0.004182,-21.68,25.0,-24.370001000000002,2d
2019-07-12_124302:860,-0.349274,-0.031006,-0.346222,-0.005893,-0.004779,0.004396,-22.5,24.559998999999998,-23.559998999999998,2d
2019-07-12_124302:880,-0.349792,-0.034546,-0.344696,-0.0060149999999999995,-0.00484,0.004915,-22.5,24.559998999999998,-23.559998999999998,2d
2019-07-12_124302:900,-0.348267,-0.035065,-0.346222,-0.005771,-0.00539,0.005342,-21.0,24.559998999999998,-24.75,2d
2019-07-12_124302:920,-0.349792,-0.036072,-0.344177,-0.005222,-0.005939,0.005189,-21.0,24.559998999999998,-24.75,2d
2019-07-12_124302:940,-0.349792,-0.034546,-0.346222,-0.005039,-0.006,0.004945000000000001,-21.0,24.559998999999998,-24.75,2d
2019-07-12_124302:960,-0.35131799999999996,-0.032532,-0.347229,-0.004978,-0.0061530000000000005,0.005525,-22.059998999999998,24.559998999999998,-24.75,2d
2019-07-12_124302:980,-0.349792,-0.032013,-0.34674099999999997,-0.005161,-0.006275,0.005739,-22.059998999999998,24.559998999999998,-24.75,2d
2019-07-12_124303:000,-0.349792,-0.03302,-0.348267,-0.005832,-0.006336,0.005922,-22.059998999999998,23.870001000000002,-24.75,2d
2019-07-12_124303:020,-0.347229,-0.034058,-0.347229,-0.006351,-0.006488,0.006135,-22.059998999999998,23.870001000000002,-24.75,2d
2019-07-12_124303:040,-0.349274,-0.037108999999999996,-0.349274,-0.006687,-0.006731999999999999,0.006044,-22.059998999999998,23.870001000000002,-24.75,2d
2019-07-12_124303:060,-0.349792,-0.037598,-0.34875500000000004,-0.0065650000000000005,-0.006670999999999999,0.005922,-21.68,25.0,-24.370001000000002,2d
2019-07-12_124303:080,-0.349274,-0.037598,-0.34875500000000004,-0.006351,-0.006458,0.005922,-21.68,25.0,-24.370001000000002,2d
2019-07-12_124303:100,-0.34875500000000004,-0.039124,-0.349792,-0.005954,-0.006458,0.005739,-21.68,25.0,-24.75,2d
2019-07-12_124303:120,-0.348267,-0.038635,-0.348267,-0.005619,-0.0066099999999999996,0.005586,-21.68,25.0,-24.75,2d
2019-07-12_124303:140,-0.349274,-0.038635,-0.350281,-0.0051,-0.006793,0.005403,-21.68,25.0,-24.75,2d
2019-07-12_124303:160,-0.34875500000000004,-0.038116000000000004,-0.349274,-0.004703,-0.006731999999999999,0.005189,-21.68,24.559998999999998,-24.0,2d
2019-07-12_124303:180,-0.350281,-0.035583,-0.350281,-0.004459,-0.006670999999999999,0.005189,-21.68,24.559998999999998,-24.0,2d
2019-07-12_124303:200,-0.350281,-0.036072,-0.35180700000000004,-0.004520000000000001,-0.006854000000000001,0.005311,-21.0,24.559998999999998,-24.370001000000002,2d
2019-07-12_124303:220,-0.34875500000000004,-0.036591000000000005,-0.350281,-0.004612,-0.006793,0.005739,-21.0,24.559998999999998,-24.370001000000002,2d
2019-07-12_124303:240,-0.353333,-0.038635,-0.35180700000000004,-0.004886,-0.006854000000000001,0.005922,-21.0,24.559998999999998,-24.370001000000002,2d
2019-07-12_124303:260,-0.346222,-0.038635,-0.350281,-0.004947,-0.006488,0.005525,-21.68,25.0,-24.75,2d
2019-07-12_124303:280,-0.353851,-0.038635,-0.3508,-0.004886,-0.006458,0.004945000000000001,-21.68,25.0,-24.75,2d
2019-07-12_124303:300,-0.34265100000000004,-0.038116000000000004,-0.349274,-0.004886,-0.0061530000000000005,0.004945000000000001,-21.370001000000002,24.559998999999998,-24.0,2d
2019-07-12_124303:320,-0.34368899999999997,-0.038116000000000004,-0.349792,-0.004978,-0.007281999999999999,0.004335,-21.370001000000002,24.559998999999998,-24.0,2d
2019-07-12_124303:340,-0.352844,-0.037108999999999996,-0.35436999999999996,-0.0052829999999999995,-0.007587000000000001,0.003633,-21.370001000000002,24.559998999999998,-24.0,2d
2019-07-12_124303:360,-0.350281,-0.036072,-0.353333,-0.0052829999999999995,-0.007129000000000001,0.004671,-20.559998999999998,25.0,-25.18,2d
2019-07-12_124303:380,-0.352325,-0.039642000000000004,-0.354858,-0.004947,-0.006548999999999999,0.005464,-20.559998999999998,25.0,-25.18,2d
2019-07-12_124303:400,-0.349792,-0.040161,-0.353333,-0.004581,-0.005725,0.004732,-21.68,24.559998999999998,-25.18,2d
2019-07-12_124303:420,-0.345215,-0.036591000000000005,-0.35180700000000004,-0.00394,-0.005725,0.004396,-21.68,24.559998999999998,-25.18,2d
2019-07-12_124303:440,-0.347748,-0.035583,-0.3508,-0.003849,-0.005573,0.004732,-21.68,24.559998999999998,-25.18,2d
2019-07-12_124303:460,-0.347748,-0.034546,-0.35131799999999996,-0.004184,-0.00539,0.004915,-21.0,24.18,-24.370001000000002,2d
2019-07-12_124303:480,-0.344177,-0.03302,-0.34875500000000004,-0.004642,-0.005573,0.004915,-21.0,24.18,-24.370001000000002,2d
2019-07-12_124303:500,-0.342163,-0.034546,-0.3508,-0.005497,-0.006092,0.004915,-21.370001000000002,25.0,-24.0,2d
2019-07-12_124303:520,-0.34674099999999997,-0.037598,-0.350281,-0.0061070000000000004,-0.006488,0.005189,-21.370001000000002,25.0,-24.0,2d
2019-07-12_124303:540,-0.344177,-0.040649,-0.352325,-0.005954,-0.0061530000000000005,0.005067,-21.370001000000002,25.0,-24.0,2d
2019-07-12_124303:560,-0.345215,-0.042175,-0.349792,-0.005497,-0.006458,0.004182,-21.370001000000002,25.0,-24.370001000000002,2d
2019-07-12_124303:580,-0.3508,-0.038635,-0.352844,-0.004825,-0.006275,0.003053,-21.370001000000002,25.0,-24.370001000000002,2d
2019-07-12_124303:600,-0.347229,-0.036072,-0.35180700000000004,-0.004459,-0.005939,0.0038159999999999995,-20.559998999999998,25.0,-25.18,2d
2019-07-12_124303:620,-0.345215,-0.036591000000000005,-0.352325,-0.004337,-0.005939,0.005311,-20.559998999999998,25.0,-25.18,2d
2019-07-12_124303:640,-0.34674099999999997,-0.039124,-0.355896,-0.004275999999999999,-0.006,0.00525,-20.559998999999998,25.0,-25.18,2d
2019-07-12_124303:660,-0.349792,-0.038116000000000004,-0.353333,-0.004398,-0.006092,0.004457,-21.0,25.0,-26.0,2d
2019-07-12_124303:680,-0.349792,-0.037598,-0.352844,-0.004398,-0.005939,0.004518,-21.0,25.0,-26.0,2d
2019-07-12_124303:700,-0.34875500000000004,-0.035583,-0.353333,-0.004764,-0.005451,0.004152,-21.370001000000002,24.18,-25.559998999999998,2d
2019-07-12_124303:720,-0.347748,-0.037108999999999996,-0.35131799999999996,-0.005497,-0.005176,0.0039689999999999994,-21.370001000000002,24.18,-25.559998999999998,2d
2019-07-12_124303:740,-0.345215,-0.037108999999999996,-0.352325,-0.005832,-0.005115,0.004396,-21.370001000000002,24.18,-25.559998999999998,2d
2019-07-12_124303:760,-0.344177,-0.039642000000000004,-0.3508,-0.0061070000000000004,-0.005451,0.004396,-21.0,25.0,-24.75,2d
2019-07-12_124303:780,-0.345215,-0.041687,-0.350281,-0.005954,-0.005573,0.004335,-21.0,25.0,-24.75,2d
2019-07-12_124303:800,-0.346222,-0.041687,-0.34875500000000004,-0.005436,-0.005725,0.004457,-21.0,25.68,-23.559998999999998,2d
2019-07-12_124303:820,-0.34265100000000004,-0.041687,-0.347748,-0.004825,-0.006092,0.004182,-21.0,25.68,-23.559998999999998,2d
2019-07-12_124303:840,-0.342163,-0.041168,-0.350281,-0.004520000000000001,-0.006336,0.0037549999999999997,-21.0,25.68,-23.559998999999998,2d
2019-07-12_124303:860,-0.344177,-0.041687,-0.352325,-0.003849,-0.007006999999999999,0.003908,-21.370001000000002,25.370001000000002,-24.370001000000002,2d
2019-07-12_124303:880,-0.34570300000000004,-0.038635,-0.352844,-0.003452,-0.007220999999999999,0.003694,-21.370001000000002,25.370001000000002,-24.370001000000002,2d
2019-07-12_124303:900,-0.348267,-0.036591000000000005,-0.355896,-0.003208,-0.00719,0.00345,-21.0,24.559998999999998,-26.0,2d
2019-07-12_124303:920,-0.349792,-0.033539,-0.354858,-0.0036049999999999997,-0.0066099999999999996,0.003358,-21.0,24.559998999999998,-26.0,2d
2019-07-12_124303:940,-0.348267,-0.033539,-0.35638400000000003,-0.004398,-0.006092,0.003511,-21.0,24.559998999999998,-26.0,2d
2019-07-12_124303:960,-0.34674099999999997,-0.035065,-0.355896,-0.005344,-0.005359,0.0039689999999999994,-20.559998999999998,24.559998999999998,-25.18,2d
2019-07-12_124303:980,-0.344696,-0.038635,-0.355896,-0.005893,-0.005451,0.00403,-20.559998999999998,24.559998999999998,-25.18,2d
2019-07-12_124304:000,-0.345215,-0.040649,-0.355377,-0.005741,-0.00539,0.003694,-21.0,25.0,-25.18,2d
2019-07-12_124304:020,-0.34570300000000004,-0.040161,-0.355377,-0.005222,-0.005725,0.0032359999999999997,-21.0,25.0,-25.18,2d
2019-07-12_124304:040,-0.34570300000000004,-0.039642000000000004,-0.355377,-0.004520000000000001,-0.005451,0.003633,-21.0,25.0,-25.18,2d
2019-07-12_124304:060,-0.349274,-0.037598,-0.352325,-0.0037270000000000003,-0.005634,0.003908,-21.0,25.0,-25.18,2d
2019-07-12_124304:080,-0.345215,-0.035065,-0.35180700000000004,-0.0033909999999999995,-0.005298,0.0037549999999999997,-21.0,25.0,-25.18,2d
2019-07-12_124304:100,-0.344696,-0.032532,-0.349792,-0.003483,-0.005054,0.0038159999999999995,-21.0,24.559998999999998,-25.559998999999998,2d
2019-07-12_124304:120,-0.34674099999999997,-0.03302,-0.352325,-0.00394,-0.005176,0.004609,-21.0,24.559998999999998,-25.559998999999998,2d
2019-07-12_124304:140,-0.339111,-0.034058,-0.35180700000000004,-0.004184,-0.005695,0.004793,-21.0,24.559998999999998,-25.559998999999998,2d
2019-07-12_124304:160,-0.346222,-0.033539,-0.355377,-0.004886,-0.006488,0.0039689999999999994,-21.370001000000002,24.18,-25.559998999999998,2d
2019-07-12_124304:180,-0.344696,-0.035065,-0.354858,-0.005375,-0.006793,0.004945000000000001,-21.370001000000002,24.18,-25.559998999999998,2d
2019-07-12_124304:200,-0.34674099999999997,-0.037108999999999996,-0.35436999999999996,-0.005375,-0.006336,0.006318,-21.0,24.18,-24.75,2d
2019-07-12_124304:220,-0.348267,-0.039124,-0.353851,-0.005436,-0.005725,0.005525,-21.0,24.18,-24.75,2d
2019-07-12_124304:240,-0.344696,-0.038116000000000004,-0.352844,-0.005497,-0.005573,0.004671,-21.0,24.18,-24.75,2d
2019-07-12_124304:260,-0.34265100000000004,-0.039642000000000004,-0.352844,-0.005344,-0.005451,0.004671,-21.0,24.18,-24.75,2d
2019-07-12_124304:280,-0.344177,-0.038635,-0.349792,-0.004886,-0.005573,0.004335,-21.0,24.18,-24.75,2d
2019-07-12_124304:300,-0.346222,-0.037598,-0.352325,-0.004947,-0.0055119999999999995,0.004182,-21.0,25.0,-24.75,2d
2019-07-12_124304:320,-0.340118,-0.036072,-0.35131799999999996,-0.004764,-0.005756,0.004854,-21.0,25.0,-24.75,2d
2019-07-12_124304:340,-0.340118,-0.039642000000000004,-0.353851,-0.005222,-0.006488,0.00525,-21.0,25.0,-24.75,2d
2019-07-12_124304:360,-0.348267,-0.039642000000000004,-0.35638400000000003,-0.005222,-0.006731999999999999,0.00525,-19.870001000000002,25.0,-25.18,2d
2019-07-12_124304:380,-0.344177,-0.041687,-0.352844,-0.005222,-0.006397,0.005189,-19.870001000000002,25.0,-25.18,2d
2019-07-12_124304:400,-0.34875500000000004,-0.040161,-0.35739099999999996,-0.004978,-0.006548999999999999,0.0039689999999999994,-20.559998999999998,25.370001000000002,-24.75,2d
2019-07-12_124304:420,-0.347229,-0.035583,-0.354858,-0.0051,-0.006092,0.003297,-20.559998999999998,25.370001000000002,-24.75,2d
2019-07-12_124304:440,-0.346222,-0.037598,-0.355896,-0.004978,-0.005695,0.004609,-20.559998999999998,25.370001000000002,-24.75,2d
2019-07-12_124304:460,-0.344177,-0.039642000000000004,-0.354858,-0.005161,-0.005756,0.005464,-20.559998999999998,25.0,-25.18,2d
2019-07-12_124304:480,-0.344696,-0.038635,-0.354858,-0.005375,-0.005359,0.004671,-20.559998999999998,25.0,-25.18,2d
2019-07-12_124304:500,-0.344696,-0.040649,-0.353333,-0.005619,-0.005115,0.004335,-21.370001000000002,25.370001000000002,-25.18,2d
2019-07-12_124304:520,-0.341125,-0.040649,-0.35180700000000004,-0.005558,-0.005573,0.004274,-21.370001000000002,25.370001000000002,-25.18,2d
2019-07-12_124304:540,-0.341644,-0.041168,-0.35131799999999996,-0.005679999999999999,-0.005878,0.003633,-21.370001000000002,25.370001000000002,-25.18,2d
2019-07-12_124304:560,-0.3396,-0.041687,-0.35180700000000004,-0.0052829999999999995,-0.006397,0.003633,-20.559998999999998,24.559998999999998,-24.0,2d
2019-07-12_124304:580,-0.3396,-0.041687,-0.353851,-0.004703,-0.006793,0.0037549999999999997,-20.559998999999998,24.559998999999998,-24.0,2d
2019-07-12_124304:600,-0.34317,-0.040649,-0.35739099999999996,-0.004001,-0.007678,0.003694,-21.0,25.0,-24.75,2d
2019-07-12_124304:620,-0.345215,-0.037108999999999996,-0.35638400000000003,-0.003483,-0.007526000000000001,0.003175,-21.0,25.0,-24.75,2d
2019-07-12_124304:640,-0.34875500000000004,-0.031006,-0.358429,-0.003116,-0.006885,0.0032359999999999997,-21.0,25.0,-24.75,2d
2019-07-12_124304:660,-0.347748,-0.029480000000000003,-0.358429,-0.0037270000000000003,-0.006214,0.00345,-20.559998999999998,25.0,-25.18,2d
2019-07-12_124304:680,-0.34265100000000004,-0.028442000000000002,-0.356903,-0.004703,-0.005451,0.0038159999999999995,-20.559998999999998,25.0,-25.18,2d
2019-07-12_124304:700,-0.34265100000000004,-0.033539,-0.35638400000000003,-0.006229,-0.005359,0.004518,-21.0,24.559998999999998,-25.18,2d
2019-07-12_124304:720,-0.34368899999999997,-0.039124,-0.35739099999999996,-0.006809,-0.00539,0.005128,-21.0,24.559998999999998,-25.18,2d
2019-07-12_124304:740,-0.345215,-0.041687,-0.354858,-0.006809,-0.005725,0.004457,-21.0,24.559998999999998,-25.18,2d
2019-07-12_124304:760,-0.346222,-0.041687,-0.35739099999999996,-0.005954,-0.005725,0.004213000000000001,-20.18,25.0,-24.75,2d
2019-07-12_124304:780,-0.34317,-0.040649,-0.356903,-0.004764,-0.005634,0.004152,-20.18,25.0,-24.75,2d
2019-07-12_124304:800,-0.341644,-0.037598,-0.35791,-0.003879,-0.00539,0.004091,-20.559998999999998,24.559998999999998,-24.0,2d
2019-07-12_124304:820,-0.34063699999999997,-0.035065,-0.355377,-0.003544,-0.005573,0.004457,-20.559998999999998,24.559998999999998,-24.0,2d
2019-07-12_124304:840,-0.34265100000000004,-0.034546,-0.355377,-0.00394,-0.005573,0.005128,-20.559998999999998,24.559998999999998,-24.0,2d
2019-07-12_124304:860,-0.348267,-0.035065,-0.355377,-0.004642,-0.005573,0.005403,-21.370001000000002,25.370001000000002,-25.559998999999998,2d
2019-07-12_124304:880,-0.34063699999999997,-0.035583,-0.353333,-0.005436,-0.004901,0.005006,-21.370001000000002,25.370001000000002,-25.559998999999998,2d
2019-07-12_124304:900,-0.341644,-0.038635,-0.35436999999999996,-0.005954,-0.005176,0.004945000000000001,-20.559998999999998,25.0,-25.18,2d
2019-07-12_124304:920,-0.33605999999999997,-0.042694,-0.353333,-0.006229,-0.00539,0.004945000000000001,-20.559998999999998,25.0,-25.18,2d
2019-07-12_124304:940,-0.33605999999999997,-0.045226999999999996,-0.354858,-0.005741,-0.006214,0.004548,-20.559998999999998,25.0,-25.18,2d
2019-07-12_124304:960,-0.347748,-0.043213,-0.361481,-0.004978,-0.00719,0.003297,-20.18,24.559998999999998,-25.18,2d
2019-07-12_124304:980,-0.34674099999999997,-0.041687,-0.358917,-0.004062,-0.006885,0.003511,-20.18,24.559998999999998,-25.18,2d
2019-07-12_124305:000,-0.347229,-0.039642000000000004,-0.360962,-0.003055,-0.006397,0.004457,-21.0,24.559998999999998,-25.559998999999998,2d
2019-07-12_124305:020,-0.34674099999999997,-0.035583,-0.35791,-0.002872,-0.005359,0.004152,-21.0,24.559998999999998,-25.559998999999998,2d
2019-07-12_124305:040,-0.344696,-0.03302,-0.35638400000000003,-0.0033299999999999996,-0.004596,0.003358,-21.0,24.559998999999998,-25.559998999999998,2d
2019-07-12_124305:060,-0.344177,-0.032013,-0.35638400000000003,-0.004062,-0.004383,0.00345,-20.18,24.559998999999998,-25.559998999999998,2d
2019-07-12_124305:080,-0.340118,-0.032532,-0.352844,-0.004947,-0.004047,0.003572,-20.18,24.559998999999998,-25.559998999999998,2d
2019-07-12_124305:100,-0.3396,-0.036072,-0.353851,-0.005558,-0.0045049999999999995,0.0037549999999999997,-21.68,25.370001000000002,-25.18,2d
2019-07-12_124305:120,-0.339111,-0.037598,-0.352325,-0.005679999999999999,-0.005359,0.004335,-21.68,25.370001000000002,-25.18,2d
2019-07-12_124305:140,-0.340118,-0.039642000000000004,-0.354858,-0.005558,-0.005695,0.004609,-21.68,25.370001000000002,-25.18,2d
2019-07-12_124305:160,-0.350281,-0.040649,-0.35739099999999996,-0.005344,-0.005817,0.004518,-19.870001000000002,24.18,-24.370001000000002,2d
2019-07-12_124305:180,-0.340118,-0.038116000000000004,-0.353333,-0.004947,-0.005054,0.005311,-19.870001000000002,24.18,-24.370001000000002,2d
2019-07-12_124305:200,-0.34317,-0.039124,-0.355896,-0.004978,-0.0052369999999999995,0.004793,-21.0,24.559998999999998,-24.75,2d
2019-07-12_124305:220,-0.342163,-0.039124,-0.352844,-0.005375,-0.0052369999999999995,0.00403,-21.0,24.559998999999998,-24.75,2d
2019-07-12_124305:240,-0.341125,-0.040649,-0.353851,-0.005161,-0.005939,0.004854,-21.0,24.559998999999998,-24.75,2d
2019-07-12_124305:260,-0.34570300000000004,-0.042175,-0.35739099999999996,-0.004886,-0.006548999999999999,0.005189,-21.370001000000002,24.559998999999998,-24.370001000000002,2d
2019-07-12_124305:280,-0.34570300000000004,-0.041168,-0.354858,-0.004581,-0.006214,0.004091,-21.370001000000002,24.559998999999998,-24.370001000000002,2d
2019-07-12_124305:300,-0.34674099999999997,-0.038635,-0.356903,-0.004062,-0.0060609999999999995,0.0034189999999999997,-20.18,24.18,-26.75,2d
2019-07-12_124305:320,-0.344696,-0.036591000000000005,-0.35436999999999996,-0.00394,-0.005695,0.003572,-20.18,24.18,-26.75,2d
2019-07-12_124305:340,-0.344177,-0.034058,-0.356903,-0.004001,-0.005298,0.003297,-20.18,24.18,-26.75,2d
2019-07-12_124305:360,-0.34317,-0.03302,-0.355377,-0.004398,-0.005298,0.0037549999999999997,-18.68,25.370001000000002,-24.75,2d
2019-07-12_124305:380,-0.34368899999999997,-0.034058,-0.352325,-0.004978,-0.005298,0.004213000000000001,-18.68,25.370001000000002,-24.75,2d
2019-07-12_124305:400,-0.34265100000000004,-0.034546,-0.355896,-0.0052829999999999995,-0.00539,0.004213000000000001,-21.0,24.559998999999998,-25.18,2d
2019-07-12_124305:420,-0.340118,-0.036072,-0.353851,-0.005436,-0.005756,0.004732,-21.0,24.559998999999998,-25.18,2d
2019-07-12_124305:440,-0.341644,-0.038116000000000004,-0.355896,-0.005375,-0.005817,0.004945000000000001,-21.0,24.559998999999998,-25.18,2d
2019-07-12_124305:460,-0.34265100000000004,-0.040649,-0.35436999999999996,-0.004825,-0.006092,0.004945000000000001,-21.0,24.18,-24.0,2d
2019-07-12_124305:480,-0.34265100000000004,-0.039642000000000004,-0.35638400000000003,-0.004459,-0.006214,0.004915,-21.0,24.18,-24.0,2d
2019-07-12_124305:500,-0.341644,-0.038635,-0.356903,-0.004398,-0.0060609999999999995,0.004609,-19.870001000000002,24.18,-25.18,2d
2019-07-12_124305:520,-0.34368899999999997,-0.037108999999999996,-0.35638400000000003,-0.004337,-0.006092,0.004457,-19.870001000000002,24.18,-25.18,2d
2019-07-12_124305:540,-0.344696,-0.037108999999999996,-0.35791,-0.004459,-0.005939,0.004609,-19.870001000000002,24.18,-25.18,2d
2019-07-12_124305:560,-0.344696,-0.038116000000000004,-0.356903,-0.004764,-0.005634,0.004945000000000001,-21.0,25.0,-25.18,2d
2019-07-12_124305:580,-0.344177,-0.039124,-0.35791,-0.0051,-0.005756,0.004854,-21.0,25.0,-25.18,2d
2019-07-12_124305:600,-0.344177,-0.040161,-0.358429,-0.0052829999999999995,-0.005756,0.004396,-20.559998999999998,25.0,-24.370001000000002,2d
2019-07-12_124305:620,-0.344696,-0.041168,-0.356903,-0.004978,-0.005359,0.004274,-20.559998999999998,25.0,-24.370001000000002,2d
2019-07-12_124305:640,-0.346222,-0.041168,-0.35791,-0.004703,-0.004961999999999999,0.004182,-20.559998999999998,25.0,-24.370001000000002,2d
2019-07-12_124305:660,-0.342163,-0.039124,-0.356903,-0.004581,-0.004566,0.004732,-19.870001000000002,24.559998999999998,-24.75,2d
2019-07-12_124305:680,-0.34674099999999997,-0.039642000000000004,-0.355377,-0.004337,-0.0045049999999999995,0.004915,-19.870001000000002,24.559998999999998,-24.75,2d
2019-07-12_124305:700,-0.338593,-0.039642000000000004,-0.352844,-0.004459,-0.004169,0.004518,-20.559998999999998,25.370001000000002,-24.75,2d
2019-07-12_124305:720,-0.341644,-0.039642000000000004,-0.350281,-0.004703,-0.0045049999999999995,0.004152,-20.559998999999998,25.370001000000002,-24.75,2d
2019-07-12_124305:740,-0.338074,-0.039642000000000004,-0.352844,-0.004947,-0.004961999999999999,0.003694,-20.559998999999998,25.370001000000002,-24.75,2d
2019-07-12_124305:760,-0.338593,-0.040161,-0.350281,-0.004642,-0.006092,0.003053,-21.0,24.18,-24.0,2d
2019-07-12_124305:780,-0.34674099999999997,-0.037598,-0.355896,-0.004642,-0.006488,0.0029,-21.0,24.18,-24.0,2d
2019-07-12_124305:800,-0.344696,-0.037598,-0.355377,-0.004581,-0.006397,0.004182,-20.18,25.0,-24.370001000000002,2d
2019-07-12_124305:820,-0.34674099999999997,-0.039642000000000004,-0.355377,-0.004275999999999999,-0.005817,0.005311,-20.18,25.0,-24.370001000000002,2d
2019-07-12_124305:840,-0.344177,-0.039124,-0.354858,-0.004275999999999999,-0.005695,0.00525,-20.18,25.0,-24.370001000000002,2d
2019-07-12_124305:860,-0.341125,-0.040161,-0.35436999999999996,-0.004520000000000001,-0.005054,0.005006,-20.18,25.68,-24.75,2d
2019-07-12_124305:880,-0.342163,-0.040161,-0.356903,-0.004581,-0.0055119999999999995,0.004671,-20.18,25.68,-24.75,2d
2019-07-12_124305:900,-0.34368899999999997,-0.041168,-0.35739099999999996,-0.004581,-0.0055119999999999995,0.0039689999999999994,-20.18,25.370001000000002,-24.370001000000002,2d
2019-07-12_124305:920,-0.34265100000000004,-0.040649,-0.35638400000000003,-0.004642,-0.00539,0.003633,-20.18,25.370001000000002,-24.370001000000002,2d
2019-07-12_124305:940,-0.34317,-0.040649,-0.35791,-0.004642,-0.005634,0.0034189999999999997,-20.18,25.370001000000002,-24.370001000000002,2d
2019-07-12_124305:960,-0.34368899999999997,-0.041168,-0.35791,-0.004612,-0.005451,0.0034189999999999997,-19.870001000000002,25.0,-24.75,2d
2019-07-12_124305:980,-0.346222,-0.039642000000000004,-0.355896,-0.004337,-0.00484,0.0034189999999999997,-19.870001000000002,25.0,-24.75,2d
2019-07-12_124306:000,-0.34063699999999997,-0.039124,-0.353333,-0.004337,-0.004718,0.003358,-20.18,25.0,-24.370001000000002,2d
2019-07-12_124306:020,-0.344177,-0.037598,-0.35638400000000003,-0.0042450000000000005,-0.005115,0.002565,-20.18,25.0,-24.370001000000002,2d
2019-07-12_124306:040,-0.342163,-0.036072,-0.355377,-0.0042450000000000005,-0.005359,0.002839,-20.18,25.0,-24.370001000000002,2d
2019-07-12_124306:060,-0.34265100000000004,-0.036591000000000005,-0.355377,-0.004062,-0.005725,0.003908,-19.5,25.0,-26.0,2d
2019-07-12_124306:080,-0.346222,-0.036591000000000005,-0.35791,-0.003879,-0.005817,0.00403,-19.5,25.0,-26.0,2d
2019-07-12_124306:100,-0.34674099999999997,-0.035065,-0.35436999999999996,-0.004459,-0.005573,0.003633,-21.0,25.370001000000002,-24.75,2d
2019-07-12_124306:120,-0.34570300000000004,-0.035583,-0.353851,-0.004612,-0.004961999999999999,0.00403,-21.0,25.370001000000002,-24.75,2d
2019-07-12_124306:140,-0.34265100000000004,-0.034546,-0.35436999999999996,-0.005161,-0.004596,0.004335,-21.0,25.370001000000002,-24.75,2d
2019-07-12_124306:160,-0.341644,-0.037108999999999996,-0.35436999999999996,-0.005497,-0.005115,0.004548,-20.18,25.370001000000002,-24.75,2d
2019-07-12_124306:180,-0.345215,-0.039642000000000004,-0.35436999999999996,-0.005558,-0.0052369999999999995,0.004732,-20.18,25.370001000000002,-24.75,2d
2019-07-12_124306:200,-0.344177,-0.041168,-0.353333,-0.005344,-0.005176,0.004793,-20.18,25.370001000000002,-25.18,2d
2019-07-12_124306:220,-0.34368899999999997,-0.041168,-0.353851,-0.004825,-0.00539,0.004854,-20.18,25.370001000000002,-25.18,2d
2019-07-12_124306:240,-0.341125,-0.042694,-0.353333,-0.004184,-0.00539,0.004793,-20.18,25.370001000000002,-25.18,2d
2019-07-12_124306:260,-0.344177,-0.039642000000000004,-0.355896,-0.0036659999999999996,-0.0060609999999999995,0.004548,-21.0,24.559998999999998,-23.25,2d
2019-07-12_124306:280,-0.34570300000000004,-0.037598,-0.354858,-0.0033909999999999995,-0.005939,0.004335,-21.0,24.559998999999998,-23.25,2d
2019-07-12_124306:300,-0.347229,-0.034058,-0.355896,-0.003788,-0.005573,0.004396,-21.0,24.559998999999998,-25.18,2d
2019-07-12_124306:320,-0.347748,-0.03302,-0.35638400000000003,-0.004886,-0.005115,0.004274,-21.0,24.559998999999998,-25.18,2d
2019-07-12_124306:340,-0.34063699999999997,-0.034058,-0.355377,-0.005893,-0.00484,0.004854,-21.0,24.559998999999998,-25.18,2d
2019-07-12_124306:360,-0.341644,-0.035583,-0.355377,-0.006626000000000001,-0.004993,0.005464,-20.18,25.0,-24.75,2d
2019-07-12_124306:380,-0.34317,-0.042175,-0.354858,-0.006962,-0.005359,0.005403,-20.18,25.0,-24.75,2d
2019-07-12_124306:400,-0.344177,-0.044219999999999995,-0.35436999999999996,-0.006809,-0.005634,0.005189,-20.559998999999998,24.559998999999998,-24.75,2d
2019-07-12_124306:420,-0.34570300000000004,-0.045226999999999996,-0.353851,-0.005558,-0.005756,0.004335,-20.559998999999998,24.559998999999998,-24.75,2d
2019-07-12_124306:440,-0.34674099999999997,-0.044219999999999995,-0.355896,-0.004642,-0.005359,0.004152,-20.559998999999998,24.559998999999998,-24.75,2d
2019-07-12_124306:460,-0.341125,-0.041168,-0.355377,-0.004062,-0.005573,0.004396,-19.870001000000002,24.559998999999998,-25.18,2d
2019-07-12_124306:480,-0.342163,-0.039642000000000004,-0.354858,-0.004184,-0.00539,0.004518,-19.870001000000002,24.559998999999998,-25.18,2d
2019-07-12_124306:500,-0.344177,-0.039124,-0.354858,-0.004642,-0.005298,0.004518,-20.559998999999998,24.559998999999998,-24.370001000000002,2d
2019-07-12_124306:520,-0.344177,-0.039124,-0.354858,-0.004886,-0.004993,0.005189,-20.559998999999998,24.559998999999998,-24.370001000000002,2d
2019-07-12_124306:540,-0.349792,-0.041168,-0.35436999999999996,-0.0051,-0.005054,0.005067,-20.559998999999998,24.559998999999998,-24.370001000000002,2d
2019-07-12_124306:560,-0.342163,-0.042175,-0.35436999999999996,-0.004978,-0.004657,0.004457,-19.870001000000002,25.0,-24.370001000000002,2d
2019-07-12_124306:580,-0.34368899999999997,-0.042175,-0.353333,-0.005161,-0.005359,0.004152,-19.870001000000002,25.0,-24.370001000000002,2d
2019-07-12_124306:600,-0.34265100000000004,-0.041687,-0.355896,-0.004886,-0.005939,0.0038159999999999995,-21.68,25.0,-24.75,2d
2019-07-12_124306:620,-0.341125,-0.040649,-0.353851,-0.004642,-0.006731999999999999,0.003297,-21.68,25.0,-24.75,2d
2019-07-12_124306:640,-0.347229,-0.038635,-0.35638400000000003,-0.004886,-0.006488,0.0038159999999999995,-21.68,25.0,-24.75,2d
2019-07-12_124306:660,-0.346222,-0.040161,-0.355377,-0.004642,-0.005878,0.005067,-21.0,24.559998999999998,-25.18,2d
2019-07-12_124306:680,-0.34570300000000004,-0.043213,-0.354858,-0.004581,-0.005359,0.004457,-21.0,24.559998999999998,-25.18,2d
2019-07-12_124306:700,-0.34368899999999997,-0.043213,-0.355896,-0.004642,-0.004901,0.003297,-21.0,24.559998999999998,-25.18,2d
2019-07-12_124306:720,-0.340118,-0.043701,-0.35638400000000003,-0.004184,-0.00484,0.0032359999999999997,-21.0,24.559998999999998,-25.18,2d
2019-07-12_124306:740,-0.341644,-0.042175,-0.355377,-0.003788,-0.0052369999999999995,0.003297,-21.0,24.559998999999998,-25.18,2d
2019-07-12_124306:760,-0.342163,-0.040649,-0.355377,-0.0036049999999999997,-0.0055119999999999995,0.002687,-20.18,25.0,-25.559998999999998,2d
2019-07-12_124306:780,-0.34265100000000004,-0.038116000000000004,-0.354858,-0.003544,-0.005878,0.002687,-20.18,25.0,-25.559998999999998,2d
2019-07-12_124306:800,-0.344177,-0.035065,-0.355377,-0.003788,-0.005939,0.0026260000000000003,-21.370001000000002,24.559998999999998,-24.75,2d
2019-07-12_124306:820,-0.344696,-0.033539,-0.35436999999999996,-0.004275999999999999,-0.005725,0.003053,-21.370001000000002,24.559998999999998,-24.75,2d
2019-07-12_124306:840,-0.34674099999999997,-0.03302,-0.355896,-0.004825,-0.00539,0.0039689999999999994,-21.370001000000002,24.559998999999998,-24.75,2d
2019-07-12_124306:860,-0.34368899999999997,-0.036072,-0.353333,-0.005222,-0.005359,0.003694,-21.0,25.370001000000002,-24.75,2d
2019-07-12_124306:880,-0.349274,-0.036072,-0.35436999999999996,-0.005497,-0.005176,0.0032359999999999997,-21.0,25.370001000000002,-24.75,2d
2019-07-12_124306:900,-0.34875500000000004,-0.035065,-0.35436999999999996,-0.005375,-0.005176,0.004274,-21.0,25.0,-24.0,2d
2019-07-12_124306:920,-0.34674099999999997,-0.036591000000000005,-0.353851,-0.005161,-0.00484,0.005464,-21.0,25.0,-24.0,2d
2019-07-12_124306:940,-0.34674099999999997,-0.037108999999999996,-0.352844,-0.0051,-0.00484,0.005311,-21.0,25.0,-24.0,2d
2019-07-12_124306:960,-0.344696,-0.038635,-0.352325,-0.004978,-0.004718,0.005525,-21.0,24.559998999999998,-25.18,2d
2019-07-12_124306:980,-0.34317,-0.039124,-0.35180700000000004,-0.004947,-0.005054,0.005464,-21.0,24.559998999999998,-25.18,2d
2019-07-12_124307:000,-0.34674099999999997,-0.039642000000000004,-0.349792,-0.004947,-0.005054,0.004915,-20.559998999999998,24.559998999999998,-25.559998999999998,2d
2019-07-12_124307:020,-0.347229,-0.037598,-0.35131799999999996,-0.0051,-0.004961999999999999,0.004548,-20.559998999999998,24.559998999999998,-25.559998999999998,2d
2019-07-12_124307:040,-0.344177,-0.038635,-0.35131799999999996,-0.005375,-0.004961999999999999,0.004854,-20.559998999999998,24.559998999999998,-25.559998999999998,2d
2019-07-12_124307:060,-0.34317,-0.039124,-0.35131799999999996,-0.005344,-0.005573,0.004793,-20.559998999999998,24.559998999999998,-24.370001000000002,2d
2019-07-12_124307:080,-0.34368899999999997,-0.040161,-0.352325,-0.0052829999999999995,-0.005817,0.004609,-20.559998999999998,24.559998999999998,-24.370001000000002,2d
2019-07-12_124307:100,-0.344177,-0.040649,-0.352844,-0.005039,-0.005817,0.004671,-21.370001000000002,25.68,-24.75,2d
2019-07-12_124307:120,-0.344177,-0.041687,-0.355377,-0.004947,-0.006,0.004548,-21.370001000000002,25.68,-24.75,2d
2019-07-12_124307:140,-0.345215,-0.042175,-0.35436999999999996,-0.004947,-0.005817,0.004396,-21.370001000000002,25.68,-24.75,2d
2019-07-12_124307:160,-0.344177,-0.042175,-0.35638400000000003,-0.004886,-0.005756,0.004396,-20.18,25.0,-24.75,2d
2019-07-12_124307:180,-0.344177,-0.040649,-0.353851,-0.005039,-0.005817,0.004213000000000001,-20.18,25.0,-24.75,2d
2019-07-12_124307:200,-0.345215,-0.042175,-0.355896,-0.004764,-0.005695,0.004152,-20.559998999999998,25.0,-25.559998999999998,2d
2019-07-12_124307:220,-0.34570300000000004,-0.039642000000000004,-0.35436999999999996,-0.004978,-0.005451,0.003908,-20.559998999999998,25.0,-25.559998999999998,2d
2019-07-12_124307:240,-0.344696,-0.040161,-0.353333,-0.005222,-0.005573,0.004274,-20.559998999999998,25.0,-25.559998999999998,2d
2019-07-12_124307:260,-0.34265100000000004,-0.041687,-0.35638400000000003,-0.005161,-0.00539,0.004671,-20.559998999999998,24.559998999999998,-24.75,2d
2019-07-12_124307:280,-0.340118,-0.044219999999999995,-0.354858,-0.004825,-0.005939,0.004518,-20.559998999999998,24.559998999999998,-24.75,2d
2019-07-12_124307:300,-0.345215,-0.045745999999999995,-0.35739099999999996,-0.0042450000000000005,-0.0060609999999999995,0.0038469999999999997,-21.0,25.370001000000002,-24.75,2d
2019-07-12_124307:320,-0.347229,-0.043213,-0.35791,-0.0036659999999999996,-0.005695,0.003694,-21.0,25.370001000000002,-24.75,2d
