timestamp,AccX,AccY,AccZ,GyroX,GyroY,GyroZ,MagX,MagY,MagZ,Activity
2019-07-12_140649:600,-0.259277,0.067596,-0.31723,-0.032701,0.026762,0.008140999999999999,-12.5,-9.06,-37.0,1b
2019-07-12_140649:620,-0.22927899999999998,0.066589,-0.304016,-0.030869,0.023862,0.024346,-12.18,-10.18,-36.18,1b
2019-07-12_140649:640,-0.24353000000000002,0.057434000000000006,-0.32486,-0.03032,0.013028999999999999,0.035637,-12.18,-10.18,-36.18,1b
2019-07-12_140649:660,-0.25827,0.051330999999999995,-0.336548,-0.02913,2.8000000000000003e-05,0.040673,-12.18,-10.18,-36.18,1b
2019-07-12_140649:680,-0.28369099999999997,0.038635,-0.361481,-0.027207,-0.014894999999999999,0.043114,-12.5,-10.5,-35.0,1b
2019-07-12_140649:700,-0.312164,0.028442000000000002,-0.37011700000000003,-0.025743000000000002,-0.026888,0.044792,-12.5,-10.5,-35.0,1b
2019-07-12_140649:720,-0.359955,0.012177,-0.368073,-0.023149,-0.030611000000000003,0.044608999999999996,-13.25,-10.5,-35.5,1b
2019-07-12_140649:740,-0.37674,0.005065999999999999,-0.364532,-0.020309999999999998,-0.025179,0.041191000000000005,-13.25,-10.5,-35.5,1b
2019-07-12_140649:760,-0.36349499999999996,0.0,-0.35131799999999996,-0.017106,-0.014894999999999999,0.037041000000000004,-13.25,-10.5,-35.5,1b
2019-07-12_140649:780,-0.338074,-0.0055850000000000006,-0.342163,-0.01378,-0.005312,0.036278,-13.25,-11.68,-34.560001,1b
2019-07-12_140649:800,-0.314697,-0.011687999999999999,-0.325897,-0.010087,0.002012,0.03875,-13.25,-11.68,-34.560001,1b
2019-07-12_140649:820,-0.305542,-0.017792,-0.318756,-0.009477,0.0030800000000000003,0.039299,-13.25,-10.5,-35.0,1b
2019-07-12_140649:840,-0.30249000000000004,-0.026427999999999997,-0.302002,-0.0085,0.004392,0.039421,-13.25,-10.5,-35.0,1b
2019-07-12_140649:860,-0.30300900000000003,-0.031494,-0.29486100000000004,-0.0074930000000000005,0.0054600000000000004,0.037438,-13.25,-10.5,-35.0,1b
2019-07-12_140649:880,-0.300964,-0.037598,-0.28927600000000003,-0.006547,0.006803,0.032708,-12.5,-11.25,-34.560001,1b
2019-07-12_140649:900,-0.301483,-0.038116000000000004,-0.284698,-0.005326,0.007871,0.026604000000000003,-12.5,-11.25,-34.560001,1b
2019-07-12_140649:920,-0.318756,-0.039124,-0.287231,-0.0036780000000000003,0.008237000000000001,0.019768,-13.25,-9.75,-33.75,1b
2019-07-12_140649:940,-0.330963,-0.041687,-0.28927600000000003,-0.001542,0.008512,0.013787,-13.25,-9.75,-33.75,1b
2019-07-12_140649:960,-0.337067,-0.040161,-0.30249000000000004,0.001235,0.007139,0.00927,-13.25,-9.75,-33.75,1b
2019-07-12_140649:980,-0.35791,-0.041687,-0.309601,0.004409000000000001,0.005064,0.005303,-14.0,-10.18,-34.560001,1b
2019-07-12_140650:000,-0.368073,-0.040161,-0.329437,0.007461,0.001493,0.002098,-14.0,-10.18,-34.560001,1b
2019-07-12_140650:020,-0.375702,-0.042694,-0.333496,0.011245,-3.3e-05,0.000603,-13.25,-9.75,-33.5,1b
2019-07-12_140650:040,-0.38739,-0.052338,-0.354858,0.014662999999999999,-0.00045999999999999996,-0.001716,-13.25,-9.75,-33.5,1b
2019-07-12_140650:060,-0.44384799999999996,-0.063538,-0.415375,0.017287,-0.007906,-0.005012,-13.25,-9.75,-33.5,1b
2019-07-12_140650:080,-0.454529,-0.079803,-0.47280900000000003,0.020034,-0.020907,-0.006141,-12.18,-9.06,-33.5,1b
2019-07-12_140650:100,-0.452484,-0.084381,-0.505371,0.026258999999999998,-0.030337,-0.012672,-12.18,-9.06,-33.5,1b
2019-07-12_140650:120,-0.44384799999999996,-0.092529,-0.489075,0.026777999999999996,-0.02756,-0.020759,-12.5,-8.37,-33.060001,1b
2019-07-12_140650:140,-0.353851,-0.097107,-0.477905,0.029067000000000003,-0.019869,-0.020027,-12.5,-8.37,-33.060001,1b
2019-07-12_140650:160,-0.336548,-0.106232,-0.43774399999999997,0.029432999999999997,-0.010043,-0.01139,-12.5,-8.37,-33.060001,1b
2019-07-12_140650:180,-0.31723,-0.111328,-0.39502,0.027785,0.0035380000000000003,-0.002693,-11.06,-7.87,-34.560001,1b
2019-07-12_140650:200,-0.28369099999999997,-0.127106,-0.355377,0.025985,0.016812999999999998,-0.001259,-11.06,-7.87,-34.560001,1b
2019-07-12_140650:220,-0.238434,-0.13623,-0.36349499999999996,0.023147,0.016233,-0.007606,-10.0,-6.75,-33.75,1b
2019-07-12_140650:240,-0.19574,-0.135223,-0.334015,0.021743000000000002,0.011564,-0.015236000000000001,-10.0,-6.75,-33.75,1b
2019-07-12_140650:260,-0.19927999999999998,-0.139282,-0.332489,0.019027000000000002,0.0016760000000000002,-0.019233,-10.0,-6.75,-33.75,1b
2019-07-12_140650:280,-0.263336,-0.138275,-0.353851,0.016921000000000002,-0.008059,-0.023413999999999997,-10.37,-5.56,-33.869999,1b
2019-07-12_140650:300,-0.281647,-0.133179,-0.352325,0.014571,-0.013430000000000001,-0.030188999999999997,-10.37,-5.56,-33.869999,1b
2019-07-12_140650:320,-0.325897,-0.11691300000000002,-0.340118,0.013778,-0.012637,-0.038215,-9.68,-5.56,-34.560001,1b
2019-07-12_140650:340,-0.34570300000000004,-0.104218,-0.342163,0.012771,-0.007509999999999999,-0.047370999999999996,-9.68,-5.56,-34.560001,1b
2019-07-12_140650:360,-0.34674099999999997,-0.076752,-0.32843,0.012588,-0.00036899999999999997,-0.057136,-9.68,-5.56,-34.560001,1b
2019-07-12_140650:380,-0.34368899999999997,-0.055908000000000006,-0.330963,0.012404,0.0029579999999999997,-0.063179,-9.25,-4.87,-35.0,1b
2019-07-12_140650:400,-0.355377,-0.031494,-0.322327,0.012069,0.002927,-0.062354999999999994,-9.25,-4.87,-35.0,1b
2019-07-12_140650:420,-0.353333,-0.020844,-0.309601,0.01094,0.002073,-0.055153,-9.68,-4.5,-35.0,1b
2019-07-12_140650:440,-0.32132,-0.014740000000000001,-0.286224,0.009536,0.0030800000000000003,-0.045845,-9.68,-4.5,-35.0,1b
2019-07-12_140650:460,-0.305542,-0.011687999999999999,-0.283173,0.007735,0.002744,-0.038337,-9.68,-4.5,-35.0,1b
2019-07-12_140650:480,-0.298431,-0.011169,-0.284698,0.005477,0.000425,-0.031654,-8.87,-4.87,-34.560001,1b
2019-07-12_140650:500,-0.29180900000000004,-0.013213999999999998,-0.282654,0.003554,-0.003054,-0.025673,-8.87,-4.87,-34.560001,1b
2019-07-12_140650:520,-0.31012,-0.013702,-0.274536,0.00151,-0.003542,-0.022621000000000002,-8.56,-4.87,-34.560001,1b
2019-07-12_140650:540,-0.344177,-0.013702,-0.276581,-0.001267,-0.001864,-0.021736000000000002,-8.56,-4.87,-34.560001,1b
2019-07-12_140650:560,-0.338593,-0.014221000000000001,-0.290283,-0.003861,2.8000000000000003e-05,-0.018684,-8.56,-4.87,-34.560001,1b
2019-07-12_140650:580,-0.34368899999999997,-0.014740000000000001,-0.287231,-0.006181,0.0017980000000000001,-0.01252,-7.75,-5.37,-34.560001,1b
2019-07-12_140650:600,-0.358917,-0.017792,-0.304535,-0.009873,0.002286,-0.006202,-7.75,-5.37,-34.560001,1b
2019-07-12_140650:620,-0.364014,-0.023895,-0.311646,-0.013597,0.002012,-0.000923,-8.18,-5.37,-33.75,1b
2019-07-12_140650:640,-0.35131799999999996,-0.027954000000000003,-0.33197,-0.016191,-0.001437,0.0009390000000000001,-8.18,-5.37,-33.75,1b
2019-07-12_140650:660,-0.355377,-0.029968,-0.341125,-0.018571,-0.003939,-0.000648,-8.18,-5.37,-33.75,1b
2019-07-12_140650:680,-0.335541,-0.023895,-0.359955,-0.020494,-0.00461,-0.000587,-7.06,-5.0,-34.25,1b
2019-07-12_140650:700,-0.358429,-0.016266,-0.391479,-0.021226,-0.006106,0.0035020000000000003,-7.06,-5.0,-34.25,1b
2019-07-12_140650:720,-0.461121,-0.012695,-0.497742,-0.020585,-0.016421,0.004509,-6.25,-5.68,-33.5,1b
2019-07-12_140650:740,-0.5272220000000001,0.006592,-0.484009,-0.022019,-0.029086,0.005364,-6.25,-5.68,-33.5,1b
2019-07-12_140650:760,-0.426544,0.028442000000000002,-0.5134890000000001,-0.020097,-0.025088,0.013207,-6.25,-5.68,-33.5,1b
2019-07-12_140650:780,-0.354858,0.029968,-0.496704,-0.020707,-0.018465000000000002,0.022087,-6.25,-5.68,-34.560001,1b
2019-07-12_140650:800,-0.298431,0.038116000000000004,-0.44384799999999996,-0.019425,-0.0049770000000000005,0.021355000000000002,-6.25,-5.68,-34.560001,1b
2019-07-12_140650:820,-0.36554000000000003,0.040161,-0.390961,-0.016923,0.020078,0.013787,-5.56,-6.56,-34.560001,1b
2019-07-12_140650:840,-0.349792,0.044739,-0.386383,-0.017259,0.025236,0.013207,-5.56,-6.56,-34.560001,1b
2019-07-12_140650:860,-0.268433,0.045226999999999996,-0.34063699999999997,-0.0179,0.027616,0.02462,-5.56,-6.56,-34.560001,1b
2019-07-12_140650:880,-0.278107,0.034058,-0.326904,-0.017838,0.024717,0.028588,-4.75,-7.25,-33.5,1b
2019-07-12_140650:900,-0.295898,0.025421,-0.319275,-0.021684000000000002,0.017544999999999998,0.027123,-4.75,-7.25,-33.5,1b
2019-07-12_140650:920,-0.310638,0.022858,-0.311646,-0.022477,0.012357,0.026329,-6.25,-7.0,-34.25,1b
2019-07-12_140650:940,-0.330475,0.008636,-0.32486,-0.022508,0.004545,0.029258999999999997,-6.25,-7.0,-34.25,1b
2019-07-12_140650:960,-0.337067,-0.000488,-0.327911,-0.021775,-0.0024129999999999998,0.031731,-6.25,-7.0,-34.25,1b
2019-07-12_140650:980,-0.339111,-0.017792,-0.318268,-0.019975,-0.006594,0.033500999999999996,-7.37,-7.68,-33.75,1b
2019-07-12_140651:000,-0.3396,-0.025908999999999998,-0.307068,-0.016434999999999998,-0.005801,0.032921,-7.37,-7.68,-33.75,1b
2019-07-12_140651:020,-0.323853,-0.032532,-0.290802,-0.0132,-0.0017420000000000003,0.030907,-6.68,-7.25,-33.060001,1b
2019-07-12_140651:040,-0.309113,-0.034546,-0.278595,-0.009934,0.000944,0.030052999999999996,-6.68,-7.25,-33.060001,1b
2019-07-12_140651:060,-0.29895,-0.041168,-0.284698,-0.007370999999999999,-0.000826,0.030388,-6.68,-7.25,-33.060001,1b
2019-07-12_140651:080,-0.296906,-0.045226999999999996,-0.282166,-0.00554,-0.003664,0.030449,-7.06,-8.06,-33.060001,1b
2019-07-12_140651:100,-0.302002,-0.047272,-0.28369099999999997,-0.004197,-0.006533,0.027794,-7.06,-8.06,-33.060001,1b
2019-07-12_140651:120,-0.302002,-0.046752999999999996,-0.283173,-0.003282,-0.008059,0.024071000000000002,-7.37,-7.25,-33.75,1b
2019-07-12_140651:140,-0.309601,-0.045745999999999995,-0.29232800000000003,-0.002152,-0.008912999999999999,0.019951,-7.37,-7.25,-33.75,1b
2019-07-12_140651:160,-0.325897,-0.045745999999999995,-0.293335,-0.001084,-0.0066549999999999995,0.016166999999999997,-7.37,-7.25,-33.75,1b
2019-07-12_140651:180,-0.356903,-0.046752999999999996,-0.300964,-7.7e-05,-0.0027489999999999997,0.013787,-5.87,-7.56,-33.5,1b
2019-07-12_140651:200,-0.34674099999999997,-0.049805,-0.307587,0.001967,0.002286,0.010154999999999999,-5.87,-7.56,-33.5,1b
2019-07-12_140651:220,-0.34875500000000004,-0.054901,-0.319275,0.004622,0.004606,0.002037,-6.68,-6.5,-33.869999,1b
2019-07-12_140651:240,-0.37265,-0.050842,-0.34265100000000004,0.0065450000000000005,0.0019510000000000003,-0.004158,-6.68,-6.5,-33.869999,1b
2019-07-12_140651:260,-0.375214,-0.044219999999999995,-0.345215,0.0092,-0.000246,-0.002357,-6.68,-6.5,-33.869999,1b
2019-07-12_140651:280,-0.36654699999999996,-0.047791,-0.349792,0.012008,-0.000704,0.000145,-6.25,-6.87,-33.75,1b
2019-07-12_140651:300,-0.346222,-0.061005,-0.370636,0.014052,-0.001315,-0.0026320000000000002,-6.25,-6.87,-33.75,1b
2019-07-12_140651:320,-0.392487,-0.068634,-0.399597,0.016372,-0.0087,-0.006202,-7.06,-6.5,-34.25,1b
2019-07-12_140651:340,-0.440796,-0.07775900000000001,-0.521637,0.018019999999999998,-0.026766,-0.006019,-7.06,-6.5,-34.25,1b
2019-07-12_140651:360,-0.504333,-0.09201000000000001,-0.48754899999999995,0.021071,-0.028078,-0.009742,-7.06,-6.5,-34.25,1b
2019-07-12_140651:380,-0.481476,-0.086914,-0.507904,0.020034,-0.028017,-0.01902,-6.25,-5.37,-34.560001,1b
2019-07-12_140651:400,-0.432159,-0.07775900000000001,-0.48300200000000004,0.019546,-0.018649000000000002,-0.021491999999999997,-6.25,-5.37,-34.560001,1b
2019-07-12_140651:420,-0.352325,-0.079803,-0.408752,0.016891,-0.0042439999999999995,-0.015113999999999999,-4.37,-5.0,-35.5,1b
2019-07-12_140651:440,-0.307068,-0.08081100000000001,-0.368591,0.011855,0.012052,-0.0073620000000000005,-4.37,-5.0,-35.5,1b
2019-07-12_140651:460,-0.262848,-0.09201000000000001,-0.307068,0.007277,0.027951999999999998,-0.004097,-4.37,-5.0,-35.5,1b
2019-07-12_140651:480,-0.24096700000000001,-0.098633,-0.31012,0.004561,0.030637,-0.008217,-3.5,-3.87,-35.75,1b
2019-07-12_140651:500,-0.21810900000000003,-0.102173,-0.304535,0.003646,0.025907,-0.01725,-3.5,-3.87,-35.75,1b
2019-07-12_140651:520,-0.21911599999999998,-0.09454299999999999,-0.296387,0.002761,0.015562000000000001,-0.023872,-4.5,-3.5,-35.5,1b
2019-07-12_140651:540,-0.263336,-0.09149199999999999,-0.308594,0.0027,0.0034159999999999998,-0.024421,-4.5,-3.5,-35.5,1b
2019-07-12_140651:560,-0.300476,-0.088959,-0.323334,0.002822,-0.00812,-0.022072,-4.5,-3.5,-35.5,1b
2019-07-12_140651:580,-0.31723,-0.072174,-0.355377,0.003036,-0.020113,-0.019508,-4.87,-3.87,-35.0,1b
2019-07-12_140651:600,-0.342163,-0.062012,-0.36044299999999996,0.0027,-0.027163,-0.017433,-4.87,-3.87,-35.0,1b
2019-07-12_140651:620,-0.387909,-0.043213,-0.359955,0.001784,-0.027285000000000004,-0.017952000000000003,-5.25,-3.18,-34.25,1b
2019-07-12_140651:640,-0.391479,-0.026917,-0.350281,-0.000627,-0.019778,-0.017981999999999998,-5.25,-3.18,-34.25,1b
2019-07-12_140651:660,-0.367584,-0.011169,-0.328949,-0.0038,-0.010439,-0.014166999999999999,-5.25,-3.18,-34.25,1b
2019-07-12_140651:680,-0.33605999999999997,-0.005065999999999999,-0.320282,-0.0077069999999999994,-0.003481,-0.008948999999999999,-4.18,-3.5,-35.75,1b
2019-07-12_140651:700,-0.29180900000000004,-0.000488,-0.312164,-0.012467,-0.0025960000000000002,-0.004707,-4.18,-3.5,-35.75,1b
2019-07-12_140651:720,-0.278595,0.0,-0.310638,-0.017197999999999998,-0.004915999999999999,0.0009390000000000001,-2.68,-2.75,-36.560001,1b
2019-07-12_140651:740,-0.28112800000000004,-0.0030210000000000002,-0.31369,-0.021562,-0.007509999999999999,0.006615,-2.68,-2.75,-36.560001,1b
2019-07-12_140651:760,-0.296387,-0.008636,-0.319794,-0.026017000000000002,-0.009370999999999999,0.011406,-2.68,-2.75,-36.560001,1b
2019-07-12_140651:780,-0.31369,-0.019318000000000002,-0.325378,-0.029405,-0.008456,0.013604,-2.37,-3.25,-35.0,1b
2019-07-12_140651:800,-0.32486,-0.022858,-0.327911,-0.031724,-0.00458,0.01339,-2.37,-3.25,-35.0,1b
2019-07-12_140651:820,-0.349274,-0.021851,-0.33197,-0.034257,0.000303,0.014518999999999999,-3.5,-4.68,-35.0,1b
2019-07-12_140651:840,-0.358917,-0.021851,-0.342163,-0.036241,0.0032630000000000003,0.020347999999999998,-3.5,-4.68,-35.0,1b
2019-07-12_140651:860,-0.35638400000000003,-0.026917,-0.33300799999999997,-0.038163,0.007597,0.026818,-3.5,-4.68,-35.0,1b
2019-07-12_140651:880,-0.376221,-0.030487,-0.330475,-0.041276,0.008634000000000001,0.030907,-2.37,-4.68,-36.18,1b
2019-07-12_140651:900,-0.309601,-0.035065,-0.356903,-0.044601999999999996,0.005125,0.034294,-2.37,-4.68,-36.18,1b
2019-07-12_140651:920,-0.32843,-0.040161,-0.339111,-0.046127999999999995,0.001066,0.033714999999999995,-2.37,-6.18,-35.75,1b
2019-07-12_140651:940,-0.34317,-0.043213,-0.36044299999999996,-0.049302,-0.001437,0.030205000000000003,-2.37,-6.18,-35.75,1b
2019-07-12_140651:960,-0.31723,-0.037108999999999996,-0.34875500000000004,-0.050309,0.000608,0.027123,-2.37,-6.18,-35.75,1b
2019-07-12_140651:980,-0.377747,-0.026427999999999997,-0.35943600000000003,-0.052566999999999996,0.001066,0.026206999999999998,-3.5,-7.25,-35.75,1b
2019-07-12_140652:000,-0.439758,-0.024384,-0.394531,-0.054429,-0.004,0.029595,-3.5,-7.25,-35.75,1b
2019-07-12_140652:020,-0.46417200000000003,-0.016266,-0.40976,-0.056657000000000006,-0.009646,0.037285000000000006,-3.06,-9.06,-34.560001,1b
2019-07-12_140652:040,-0.455017,-0.012695,-0.406219,-0.057328,-0.012545,0.043114,-3.06,-9.06,-34.560001,1b
2019-07-12_140652:060,-0.42248500000000005,-0.002014,-0.41384899999999997,-0.058151999999999995,-0.012881,0.041924,-3.06,-9.06,-34.560001,1b
2019-07-12_140652:080,-0.37265,0.014740000000000001,-0.40368699999999996,-0.057602999999999994,-0.0087,0.039025,-3.5,-10.5,-35.5,1b
2019-07-12_140652:100,-0.28418000000000004,0.035583,-0.38028,-0.056535,-0.004,0.038964,-3.5,-10.5,-35.5,1b
2019-07-12_140652:120,-0.256226,0.047791,-0.37674,-0.055161,-0.002078,0.037896,-3.75,-12.37,-33.75,1b
2019-07-12_140652:140,-0.25521900000000003,0.067108,-0.35791,-0.055284,0.0030800000000000003,0.038292,-3.75,-12.37,-33.75,1b
2019-07-12_140652:160,-0.272491,0.074738,-0.340118,-0.055345000000000005,0.011045000000000001,0.045067,-3.75,-12.37,-33.75,1b
2019-07-12_140652:180,-0.278595,0.075745,-0.371643,-0.056015999999999996,0.01077,0.053673,-3.5,-13.5,-34.560001,1b
2019-07-12_140652:200,-0.256744,0.074738,-0.380798,-0.057084,0.0052770000000000004,0.056023,-3.5,-13.5,-34.560001,1b
2019-07-12_140652:220,-0.28112800000000004,0.073212,-0.391479,-0.057999999999999996,-0.004183,0.05315399999999999,-4.87,-13.5,-35.0,1b
2019-07-12_140652:240,-0.29943800000000004,0.073212,-0.40976,-0.057420000000000006,-0.012881,0.049033999999999994,-4.87,-13.5,-35.0,1b
2019-07-12_140652:260,-0.29943800000000004,0.067596,-0.407227,-0.055223,-0.017336,0.044456999999999997,-4.87,-13.5,-35.0,1b
2019-07-12_140652:280,-0.301483,0.066589,-0.411285,-0.052964,-0.019656,0.04345,-5.68,-16.75,-33.5,1b
2019-07-12_140652:300,-0.314178,0.06405599999999999,-0.404694,-0.050095999999999995,-0.018008,0.048455,-5.68,-16.75,-33.5,1b
2019-07-12_140652:320,-0.32486,0.057434000000000006,-0.388916,-0.047044,-0.012148,0.054955,-5.25,-17.5,-31.870001000000002,1b
2019-07-12_140652:340,-0.324371,0.056427,-0.375702,-0.044877,-0.003481,0.058586,-5.25,-17.5,-31.870001000000002,1b
2019-07-12_140652:360,-0.319275,0.055908000000000006,-0.361481,-0.042924000000000004,0.004789,0.060784000000000005,-5.25,-17.5,-31.870001000000002,1b
2019-07-12_140652:380,-0.30300900000000003,0.053375,-0.35131799999999996,-0.041673,0.011289,0.063378,-5.68,-19.0,-31.870001000000002,1b
2019-07-12_140652:400,-0.28369099999999997,0.045745999999999995,-0.34063699999999997,-0.041093,0.014218999999999999,0.064385,-5.68,-19.0,-31.870001000000002,1b
2019-07-12_140652:420,-0.286224,0.040649,-0.338074,-0.041093,0.013425,0.063378,-7.5,-19.68,-31.870001000000002,1b
2019-07-12_140652:440,-0.28064,0.035065,-0.331482,-0.04036,0.012022,0.060173000000000004,-7.5,-19.68,-31.870001000000002,1b
2019-07-12_140652:460,-0.28418000000000004,0.029480000000000003,-0.327423,-0.038682,0.01251,0.05461900000000001,-7.5,-19.68,-31.870001000000002,1b
2019-07-12_140652:480,-0.30249000000000004,0.027954000000000003,-0.325378,-0.037034,0.014431999999999999,0.047966,-9.37,-20.0,-30.25,1b
2019-07-12_140652:500,-0.322327,0.027435,-0.33300799999999997,-0.034318,0.015684,0.043328,-9.37,-20.0,-30.25,1b
2019-07-12_140652:520,-0.35739099999999996,0.026427999999999997,-0.341125,-0.030992000000000002,0.01608,0.040398,-10.5,-19.68,-29.18,1b
2019-07-12_140652:540,-0.365021,0.027954000000000003,-0.33758499999999997,-0.028275,0.015623,0.039208,-10.5,-19.68,-29.18,1b
2019-07-12_140652:560,-0.378754,0.025908999999999998,-0.355377,-0.025071,0.012173999999999999,0.037957,-10.5,-19.68,-29.18,1b
2019-07-12_140652:580,-0.375702,0.023895,-0.35943600000000003,-0.021897,0.009122,0.035149,-12.0,-21.18,-29.5,1b
2019-07-12_140652:600,-0.347748,0.028961,-0.349792,-0.01909,0.0075049999999999995,0.032372000000000005,-12.0,-21.18,-29.5,1b
2019-07-12_140652:620,-0.334534,0.029968,-0.348267,-0.01677,0.008512,0.030968,-13.0,-21.5,-28.059998999999998,1b
2019-07-12_140652:640,-0.276581,0.023895,-0.35131799999999996,-0.015244,0.00958,0.029044999999999998,-13.0,-21.5,-28.059998999999998,1b
2019-07-12_140652:660,-0.29486100000000004,0.017273,-0.372162,-0.015061000000000001,0.006376,0.028252,-13.0,-21.5,-28.059998999999998,1b
2019-07-12_140652:680,-0.320801,0.012177,-0.379272,-0.015397,0.001401,0.031731,-13.75,-21.75,-26.870001000000002,1b
2019-07-12_140652:700,-0.38385,0.0,-0.444855,-0.016648,-0.006503,0.039421,-13.75,-21.75,-26.870001000000002,1b
2019-07-12_140652:720,-0.512482,-0.010162000000000001,-0.386902,-0.01732,0.005338,0.042473000000000004,-15.25,-20.75,-28.059998999999998,1b
2019-07-12_140652:740,-0.444855,-0.011687999999999999,-0.447906,-0.024034,0.008054,0.040093000000000004,-15.25,-20.75,-28.059998999999998,1b
2019-07-12_140652:760,-0.349792,-0.019806,-0.383331,-0.027818,0.019285,0.035637,-15.25,-20.75,-28.059998999999998,1b
2019-07-12_140652:780,-0.333496,-0.025908999999999998,-0.38028,-0.035233,0.021726,0.035088,-14.87,-20.870001000000002,-27.18,1b
2019-07-12_140652:800,-0.34674099999999997,-0.032013,-0.35180700000000004,-0.04268,0.025113999999999997,0.045311000000000004,-14.87,-20.870001000000002,-27.18,1b
2019-07-12_140652:820,-0.325897,-0.053375,-0.335022,-0.049058,0.028501,0.057732000000000006,-16.68,-20.370001000000002,-26.059998999999998,1b
2019-07-12_140652:840,-0.293335,-0.075226,-0.305054,-0.055345000000000005,0.032133,0.054558,-16.68,-20.370001000000002,-26.059998999999998,1b
2019-07-12_140652:860,-0.267426,-0.07928500000000001,-0.29742399999999997,-0.06004400000000001,0.033811,0.040551,-16.68,-20.370001000000002,-26.059998999999998,1b
2019-07-12_140652:880,-0.261322,-0.07928500000000001,-0.28927600000000003,-0.061387,0.033475,0.029473000000000003,-19.68,-20.870001000000002,-25.25,1b
2019-07-12_140652:900,-0.262329,-0.071167,-0.29895,-0.06086799999999999,0.028379,0.027947000000000003,-19.68,-20.870001000000002,-25.25,1b
2019-07-12_140652:920,-0.263336,-0.068634,-0.305542,-0.059342,0.019865,0.032097,-20.5,-21.25,-22.870001000000002,1b
2019-07-12_140652:940,-0.28369099999999997,-0.050842,-0.316742,-0.058549000000000004,0.010435,0.037682,-20.5,-21.25,-22.870001000000002,1b
2019-07-12_140652:960,-0.330475,-0.033539,-0.334015,-0.058793,0.0034159999999999998,0.044456999999999997,-20.5,-21.25,-22.870001000000002,1b
2019-07-12_140652:980,-0.346222,-0.025908999999999998,-0.341125,-0.060258000000000006,-0.001437,0.052086,-21.870001000000002,-22.25,-21.25,1b
2019-07-12_140653:000,-0.374695,-0.009125,-0.354858,-0.06364500000000001,-0.005251,0.058067999999999995,-21.870001000000002,-22.25,-21.25,1b
2019-07-12_140653:020,-0.407227,0.028961,-0.36044299999999996,-0.072007,-0.004061,0.066094,-22.559998999999998,-22.68,-19.75,1b
2019-07-12_140653:040,-0.406738,0.033539,-0.358429,-0.082505,0.000669,0.076928,-22.559998999999998,-22.68,-19.75,1b
2019-07-12_140653:060,-0.389954,0.032532,-0.35791,-0.09459,0.007047,0.085869,-22.559998999999998,-22.68,-19.75,1b
2019-07-12_140653:080,-0.358429,0.018799,-0.353851,-0.105973,0.012112999999999999,0.091637,-23.75,-21.68,-19.75,1b
2019-07-12_140653:100,-0.342163,0.008118,-0.34674099999999997,-0.11546400000000001,0.014707,0.09471900000000001,-23.75,-21.68,-19.75,1b
2019-07-12_140653:120,-0.323853,-0.014740000000000001,-0.344177,-0.12153699999999999,0.015104,0.093315,-26.0,-21.0,-17.5,1b
2019-07-12_140653:140,-0.327423,-0.025908999999999998,-0.344177,-0.12477200000000001,0.013151,0.087273,-26.0,-21.0,-17.5,1b
2019-07-12_140653:160,-0.34265100000000004,-0.034058,-0.342163,-0.12532100000000002,0.011289,0.081963,-26.0,-21.0,-17.5,1b
2019-07-12_140653:180,-0.353851,-0.038635,-0.333496,-0.123307,0.010587000000000001,0.079583,-27.870001000000002,-20.559998999999998,-14.56,1b
2019-07-12_140653:200,-0.35180700000000004,-0.046265,-0.324371,-0.120255,0.009855,0.077507,-27.870001000000002,-20.559998999999998,-14.56,1b
2019-07-12_140653:220,-0.364532,-0.056915,-0.324371,-0.114945,0.007383,0.07552400000000001,-29.68,-19.870001000000002,-11.87,1b
2019-07-12_140653:240,-0.38739,-0.079803,-0.315704,-0.10719400000000001,0.004484,0.071221,-29.68,-19.870001000000002,-11.87,1b
2019-07-12_140653:260,-0.401642,-0.086426,-0.303528,-0.09843500000000001,0.003324,0.062462000000000004,-29.68,-19.870001000000002,-11.87,1b
2019-07-12_140653:280,-0.394531,-0.077271,-0.28418000000000004,-0.09105,0.003355,0.054466999999999995,-30.75,-18.0,-9.87,1b
2019-07-12_140653:300,-0.377228,-0.065063,-0.273529,-0.084825,0.002225,0.052819000000000005,-30.75,-18.0,-9.87,1b
2019-07-12_140653:320,-0.360962,-0.051849,-0.276062,-0.080705,-0.000185,0.051293,-32.060001,-16.870001000000002,-8.25,1b
2019-07-12_140653:340,-0.353851,-0.040161,-0.279114,-0.07939199999999999,-0.002535,0.045067,-32.060001,-16.870001000000002,-8.25,1b
2019-07-12_140653:360,-0.353333,-0.016753999999999998,-0.28927600000000003,-0.079789,-0.005404,0.039879000000000005,-32.060001,-16.870001000000002,-8.25,1b
2019-07-12_140653:380,-0.359955,-0.009125,-0.29486100000000004,-0.08064400000000001,-0.007631999999999999,0.036888,-32.369999,-16.5,-6.25,1b
2019-07-12_140653:400,-0.36706500000000003,-0.001495,-0.29284699999999997,-0.08394,-0.008303,0.034111,-32.369999,-16.5,-6.25,1b
2019-07-12_140653:420,-0.38385,0.001495,-0.29895,-0.085801,-0.008303,0.033654,-33.18,-15.68,-5.5,1b
2019-07-12_140653:440,-0.37674,0.0030210000000000002,-0.298431,-0.091172,-0.005465,0.03756,-33.18,-15.68,-5.5,1b
2019-07-12_140653:460,-0.37011700000000003,0.0025329999999999997,-0.29742399999999997,-0.094163,-0.0036030000000000003,0.038872000000000004,-33.18,-15.68,-5.5,1b
2019-07-12_140653:480,-0.378265,0.005065999999999999,-0.309601,-0.096971,-0.002535,0.040398,-33.560001,-14.68,-5.06,1b
2019-07-12_140653:500,-0.375702,0.006072999999999999,-0.304535,-0.098741,-0.0009789999999999998,0.045769,-33.560001,-14.68,-5.06,1b
2019-07-12_140653:520,-0.354858,0.009125,-0.311646,-0.100999,0.00015,0.051079,-32.75,-13.18,-3.87,1b
2019-07-12_140653:540,-0.48095699999999997,0.01828,-0.302002,-0.103593,-0.004519,0.053612,-32.75,-13.18,-3.87,1b
2019-07-12_140653:560,-0.396545,0.046752999999999996,-0.45806899999999995,-0.108323,-0.019808000000000003,0.05965499999999999,-32.75,-13.18,-3.87,1b
2019-07-12_140653:580,-0.45907600000000004,0.039124,-0.298431,-0.109391,-0.014100999999999999,0.065636,-34.0,-11.25,-1.0,1b
2019-07-12_140653:600,-0.407227,0.082336,-0.406738,-0.11741700000000001,-0.022463,0.072136,-34.0,-11.25,-1.0,1b
2019-07-12_140653:620,-0.41943400000000003,0.08081100000000001,-0.411285,-0.119279,-0.022036,0.073479,-34.25,-9.5,-3.37,1b
2019-07-12_140653:640,-0.306061,0.095581,-0.353333,-0.118211,-0.015749000000000003,0.071129,-34.25,-9.5,-3.37,1b
2019-07-12_140653:660,-0.374695,0.095581,-0.370636,-0.11381600000000001,-0.011752,0.04879,-34.25,-9.5,-3.37,1b
2019-07-12_140653:680,-0.375702,0.126068,-0.401642,-0.113633,-0.009432,0.037834,-34.25,-7.56,-1.25,1b
2019-07-12_140653:700,-0.319275,0.139801,-0.371643,-0.10319600000000001,-0.0024739999999999996,0.039605,-34.25,-7.56,-1.25,1b
2019-07-12_140653:720,-0.29895,0.133698,-0.374176,-0.100083,-0.001955,0.044731,-34.75,-6.37,-1.68,1b
2019-07-12_140653:740,-0.282654,0.133698,-0.36654699999999996,-0.093034,-0.001315,0.055260000000000004,-34.75,-6.37,-1.68,1b
2019-07-12_140653:760,-0.288269,0.129639,-0.375214,-0.08720499999999999,-0.008059,0.066094,-34.75,-6.37,-1.68,1b
2019-07-12_140653:780,-0.297913,0.11233499999999999,-0.36654699999999996,-0.083817,-0.010775,0.07094600000000001,-35.560001,-4.5,-1.18,1b
2019-07-12_140653:800,-0.33605999999999997,0.09201000000000001,-0.35131799999999996,-0.07524199999999999,-0.013827,0.07457799999999999,-35.560001,-4.5,-1.18,1b
2019-07-12_140653:820,-0.347229,0.08081100000000001,-0.34265100000000004,-0.073014,-0.012484,0.07552400000000001,-34.369999,-1.87,-2.0,1b
2019-07-12_140653:840,-0.335541,0.066071,-0.31723,-0.064988,-0.003268,0.084343,-34.369999,-1.87,-2.0,1b
2019-07-12_140653:860,-0.318268,0.056915,-0.31369,-0.061265,0.0019510000000000003,0.084343,-34.369999,-1.87,-2.0,1b
2019-07-12_140653:880,-0.301483,0.051849,-0.305054,-0.060075,0.00366,0.082634,-34.369999,0.75,-1.87,1b
2019-07-12_140653:900,-0.308594,0.049316000000000006,-0.304016,-0.056474,0.0030800000000000003,0.079033,-34.369999,0.75,-1.87,1b
2019-07-12_140653:920,-0.321808,0.038635,-0.29995700000000003,-0.05567999999999999,0.002348,0.078301,-35.68,3.0,-1.5,1b
2019-07-12_140653:940,-0.331482,0.028961,-0.29284699999999997,-0.054429,0.002561,0.07460800000000001,-35.68,3.0,-1.5,1b
2019-07-12_140653:960,-0.34570300000000004,0.013702,-0.28775,-0.0533,0.0035380000000000003,0.070336,-35.68,3.0,-1.5,1b
2019-07-12_140653:980,-0.344696,0.009125,-0.283173,-0.051286,0.005186,0.06389600000000001,-33.869999,4.75,-2.68,1b
2019-07-12_140654:000,-0.352844,-0.001007,-0.273529,-0.048387,0.00601,0.055352,-33.869999,4.75,-2.68,1b
2019-07-12_140654:020,-0.355377,-0.006592,-0.272003,-0.04387,0.007536,0.046257,-34.18,7.56,-2.25,1b
2019-07-12_140654:040,-0.358917,-0.009644,-0.260803,-0.038041000000000005,0.008848,0.038079,-34.18,7.56,-2.25,1b
2019-07-12_140654:060,-0.368073,-0.011169,-0.264862,-0.030777999999999996,0.008573,0.030388,-34.18,7.56,-2.25,1b
2019-07-12_140654:080,-0.381805,-0.009125,-0.2659,-0.026872000000000004,0.008268000000000001,0.026604000000000003,-33.869999,8.25,-2.56,1b
2019-07-12_140654:100,-0.397064,-0.0030210000000000002,-0.263855,-0.015580000000000002,0.0064670000000000005,0.021813,-33.869999,8.25,-2.56,1b
2019-07-12_140654:120,-0.42858900000000005,0.0025329999999999997,-0.264374,-0.011674,0.006528,0.022300999999999998,-32.68,8.75,-1.75,1b
2019-07-12_140654:140,-0.44384799999999996,0.004547,-0.256226,-0.0029460000000000003,0.010099,0.025475,-32.68,8.75,-1.75,1b
2019-07-12_140654:160,-0.429108,0.005065999999999999,-0.254211,0.003554,0.010496,0.027855,-32.68,8.75,-1.75,1b
2019-07-12_140654:180,-0.41232299999999994,0.0,-0.259277,0.0053549999999999995,0.008787,0.027062,-33.060001,10.18,-1.37,1b
2019-07-12_140654:200,-0.392487,-0.012177,-0.270477,0.009658,0.000608,0.020225999999999997,-33.060001,10.18,-1.37,1b
2019-07-12_140654:220,-0.382324,-0.021332,-0.282166,0.011275,-0.0016809999999999998,0.018578,-33.060001,10.18,-1.37,1b
2019-07-12_140654:240,-0.447906,-0.044739,-0.281647,0.016311000000000003,-0.010226,0.0187,-32.68,9.87,-1.37,1b
2019-07-12_140654:260,-0.538391,-0.060486,-0.335541,0.018447,-0.014468,0.023827,-32.68,9.87,-1.37,1b
2019-07-12_140654:280,-0.508423,-0.080322,-0.297913,0.020888,-0.011233,0.024406999999999998,-33.060001,10.56,-1.75,1b
2019-07-12_140654:300,-0.539917,-0.0849,-0.356903,0.023604,-0.012545,0.011742,-33.060001,10.56,-1.75,1b
2019-07-12_140654:320,-0.471283,-0.094055,-0.330963,0.025527,-0.007326999999999999,0.005822,-31.870001000000002,12.5,-1.0,1b
2019-07-12_140654:340,-0.33758499999999997,-0.079803,-0.325378,0.024673,-0.0022,0.00161,-31.870001000000002,12.5,-1.0,1b
2019-07-12_140654:360,-0.307587,-0.07928500000000001,-0.290802,0.020949000000000002,0.006651000000000001,0.009362,-31.870001000000002,12.5,-1.0,1b
2019-07-12_140654:380,-0.315704,-0.083374,-0.29995700000000003,0.018355,0.008665,0.011345000000000001,-32.68,12.06,-1.5,1b
2019-07-12_140654:400,-0.3396,-0.09963999999999999,-0.29895,0.012984,0.0054600000000000004,0.005303,-32.68,12.06,-1.5,1b
2019-07-12_140654:420,-0.325897,-0.100647,-0.29943800000000004,0.011397,0.002927,0.002373,-32.68,12.06,-1.5,1b
2019-07-12_140654:440,-0.35131799999999996,-0.100159,-0.28674299999999997,0.007215999999999999,-0.002139,-0.004097,-32.369999,12.06,-0.25,1b
2019-07-12_140654:460,-0.385376,-0.100159,-0.28674299999999997,0.004958,-0.003207,-0.006476999999999999,-32.369999,12.06,-0.25,1b
2019-07-12_140654:480,-0.40368699999999996,-0.09301799999999999,-0.28775,0.004226,-0.0036030000000000003,-0.008064,-32.560001,12.06,-1.0,1b
2019-07-12_140654:500,-0.410797,-0.083374,-0.287231,0.0020280000000000003,-0.009309999999999999,-0.016761,-32.560001,12.06,-1.0,1b
2019-07-12_140654:520,-0.389435,-0.060486,-0.28775,0.001052,-0.010836,-0.018684,-32.560001,12.06,-1.0,1b
2019-07-12_140654:540,-0.383331,-0.047272,-0.276581,-0.003068,-0.012698000000000001,-0.017708,-32.560001,11.68,-1.37,1b
2019-07-12_140654:560,-0.378754,-0.036072,-0.263336,-0.004991,-0.011904000000000001,-0.015907,-32.560001,11.68,-1.37,1b
2019-07-12_140654:580,-0.379791,-0.030487,-0.252686,-0.008622,-0.009097,-0.012397,-33.369999,11.68,-1.37,1b
2019-07-12_140654:600,-0.381317,-0.028961,-0.250641,-0.01201,-0.006197,-0.0102,-33.369999,11.68,-1.37,1b
2019-07-12_140654:620,-0.370636,-0.029968,-0.242493,-0.014787,-0.0042439999999999995,-0.008948999999999999,-33.369999,11.68,-1.37,1b
2019-07-12_140654:640,-0.364532,-0.031494,-0.23995999999999998,-0.016434999999999998,-0.003725,-0.007484,-33.0,11.0,-2.18,1b
2019-07-12_140654:660,-0.361969,-0.03302,-0.23995999999999998,-0.016862000000000002,-0.004672,-0.006416,-33.0,11.0,-2.18,1b
2019-07-12_140654:680,-0.361969,-0.03302,-0.239441,-0.016862000000000002,-0.004915999999999999,-0.005836,-33.0,11.37,-1.75,1b
2019-07-12_140654:700,-0.365021,-0.033539,-0.241486,-0.016434999999999998,-0.0068379999999999995,-0.003639,-33.0,11.37,-1.75,1b
2019-07-12_140654:720,-0.364532,-0.036591000000000005,-0.24658200000000002,-0.015977,-0.007631999999999999,-0.002845,-33.0,11.37,-1.75,1b
2019-07-12_140654:740,-0.375214,-0.037598,-0.248596,-0.015275,-0.008851999999999999,-0.002113,-32.25,9.87,-2.56,1b
2019-07-12_140654:760,-0.386902,-0.037598,-0.250641,-0.014847999999999998,-0.008395,-0.0018989999999999999,-32.25,9.87,-2.56,1b
2019-07-12_140654:780,-0.406738,-0.037108999999999996,-0.259796,-0.014909,-0.007234999999999999,-0.00043499999999999995,-33.369999,9.87,-3.37,1b
2019-07-12_140654:800,-0.416901,-0.040161,-0.256744,-0.015061000000000001,-0.004855,0.0023120000000000003,-33.369999,9.87,-3.37,1b
2019-07-12_140654:820,-0.42248500000000005,-0.040161,-0.251648,-0.016465,-0.000857,0.00515,-33.369999,9.87,-3.37,1b
2019-07-12_140654:840,-0.42248500000000005,-0.042175,-0.266388,-0.018449,0.000425,0.008202,-33.369999,9.87,-3.37,1b
2019-07-12_140654:860,-0.407227,-0.048798,-0.262329,-0.020371,0.001493,0.009819,-33.369999,9.87,-3.37,1b
2019-07-12_140654:880,-0.426544,-0.047272,-0.277069,-0.023301,-0.0018030000000000001,0.008416,-33.369999,9.87,-4.18,1b
2019-07-12_140654:900,-0.441803,-0.047272,-0.283173,-0.027145999999999997,-0.003481,0.0075,-33.369999,9.87,-4.18,1b
2019-07-12_140654:920,-0.42605600000000005,-0.046265,-0.284698,-0.031236,-0.0027489999999999997,0.008873,-33.369999,9.87,-4.18,1b
2019-07-12_140654:940,-0.46670500000000004,-0.041687,-0.298431,-0.036302,-0.003268,0.011467,-33.75,10.18,-4.18,1b
2019-07-12_140654:960,-0.552643,-0.037108999999999996,-0.37265,-0.040879,-0.014224,0.013207,-33.75,10.18,-4.18,1b
2019-07-12_140654:980,-0.558228,-0.025908999999999998,-0.374695,-0.043656,-0.019472999999999997,0.013665,-32.560001,9.5,-4.18,1b
2019-07-12_140655:000,-0.496216,-0.000488,-0.402161,-0.044785000000000005,-0.022706999999999998,0.00457,-32.560001,9.5,-4.18,1b
2019-07-12_140655:020,-0.35180700000000004,0.026917,-0.381317,-0.048387,-0.014803,-0.0038829999999999997,-32.560001,9.5,-4.18,1b
2019-07-12_140655:040,-0.272491,0.049316000000000006,-0.352325,-0.04857,-0.002535,-0.006813,-32.560001,11.0,-4.56,1b
2019-07-12_140655:060,-0.358917,0.058960000000000005,-0.341644,-0.049241,0.005979,-0.0102,-32.560001,11.0,-4.56,1b
2019-07-12_140655:080,-0.391479,0.071686,-0.34368899999999997,-0.049302,0.015165000000000001,-0.011787,-32.25,9.06,-7.25,1b
2019-07-12_140655:100,-0.302002,0.082336,-0.319794,-0.048905000000000004,0.016416,-0.002052,-32.25,9.06,-7.25,1b
2019-07-12_140655:120,-0.310638,0.072174,-0.313171,-0.046127999999999995,0.011381,0.012412999999999999,-32.25,9.06,-7.25,1b
2019-07-12_140655:140,-0.347748,0.052338,-0.317749,-0.04387,0.005674,0.019584999999999998,-33.060001,9.18,-5.0,1b
2019-07-12_140655:160,-0.35180700000000004,0.042694,-0.309601,-0.039536,0.00015,0.022941999999999997,-33.060001,9.18,-5.0,1b
2019-07-12_140655:180,-0.373688,0.018799,-0.323853,-0.033188999999999996,-0.008912999999999999,0.027275,-33.869999,9.25,-6.06,1b
2019-07-12_140655:200,-0.370636,0.006072999999999999,-0.319275,-0.02675,-0.01636,0.030175,-33.869999,9.25,-6.06,1b
2019-07-12_140655:220,-0.383331,-0.012695,-0.300476,-0.019578,-0.018343,0.030449,-33.869999,9.25,-6.06,1b
2019-07-12_140655:240,-0.392487,-0.020325,-0.28927600000000003,-0.012620000000000001,-0.014346000000000001,0.028191,-33.060001,9.56,-8.06,1b
2019-07-12_140655:260,-0.37011700000000003,-0.020844,-0.270966,-0.006028,-0.007051999999999999,0.024285,-33.060001,9.56,-8.06,1b
2019-07-12_140655:280,-0.347748,-0.017792,-0.267914,-0.0008710000000000001,-0.001955,0.01989,-33.060001,10.68,-7.0,1b
2019-07-12_140655:300,-0.334015,-0.014221000000000001,-0.257751,0.002486,0.00015,0.018303,-33.060001,10.68,-7.0,1b
2019-07-12_140655:320,-0.33197,-0.012695,-0.25317399999999995,0.0045,0.000272,0.018639,-33.060001,10.68,-7.0,1b
2019-07-12_140655:340,-0.333496,-0.013702,-0.24453699999999998,0.005141,0.000883,0.018181,-32.68,11.75,-8.06,1b
2019-07-12_140655:360,-0.335541,-0.013213999999999998,-0.24353000000000002,0.005294,0.0014320000000000001,0.016106,-32.68,11.75,-8.06,1b
2019-07-12_140655:380,-0.33758499999999997,-0.011687999999999999,-0.248596,0.005416,0.001737,0.012657,-32.68,11.06,-8.87,1b
2019-07-12_140655:400,-0.337067,-0.008636,-0.24353000000000002,0.005752,0.0014320000000000001,0.007958,-32.68,11.06,-8.87,1b
2019-07-12_140655:420,-0.35180700000000004,-0.000488,-0.250641,0.005965,0.001218,0.004021,-32.68,11.06,-8.87,1b
2019-07-12_140655:440,-0.378754,0.0025329999999999997,-0.252686,0.0070030000000000005,0.002531,0.0016710000000000002,-32.68,12.18,-8.06,1b
2019-07-12_140655:460,-0.397064,0.005065999999999999,-0.264374,0.008803,0.0032630000000000003,-0.000129,-32.68,12.18,-8.06,1b
2019-07-12_140655:480,-0.39859,0.007599,-0.274017,0.011184,0.002866,-0.002388,-33.5,12.56,-9.25,1b
2019-07-12_140655:500,-0.411804,0.008118,-0.29943800000000004,0.013595,0.000303,-0.001838,-33.5,12.56,-9.25,1b
2019-07-12_140655:520,-0.425537,0.007599,-0.297913,0.015853,8.9e-05,0.003228,-33.5,12.56,-9.25,1b
2019-07-12_140655:540,-0.43670699999999996,-0.008118,-0.30300900000000003,0.017623,0.0032020000000000004,0.008934000000000001,-33.5,13.0,-8.87,1b
2019-07-12_140655:560,-0.5272220000000001,-0.034546,-0.318756,0.018905,0.0034159999999999998,0.008537999999999999,-33.5,13.0,-8.87,1b
2019-07-12_140655:580,-0.5424800000000001,-0.094055,-0.441284,0.022536,-0.005862,0.004509,-33.060001,13.25,-8.06,1b
2019-07-12_140655:600,-0.607056,-0.148956,-0.39502,0.033431,-0.004672,-0.003029,-33.060001,13.25,-8.06,1b
2019-07-12_140655:620,-0.533325,-0.174896,-0.427063,0.047561,-0.0037869999999999996,-0.020546000000000002,-33.060001,13.25,-8.06,1b
2019-07-12_140655:640,-0.47332799999999997,-0.155548,-0.423004,0.059127,0.002286,-0.033424,-33.869999,13.68,-8.5,1b
2019-07-12_140655:660,-0.374176,-0.128601,-0.37112399999999995,0.065352,0.008329000000000001,-0.022133,-33.869999,13.68,-8.5,1b
2019-07-12_140655:680,-0.34063699999999997,-0.113373,-0.331482,0.06614600000000001,0.01782,-0.005043,-34.5,13.68,-7.68,1b
2019-07-12_140655:700,-0.300964,-0.111328,-0.253693,0.05845499999999999,0.029905,-0.002449,-34.5,13.68,-7.68,1b
2019-07-12_140655:720,-0.308075,-0.114899,-0.250641,0.048354,0.034451999999999997,-0.019355,-34.5,13.68,-7.68,1b
2019-07-12_140655:740,-0.254211,-0.107269,-0.260803,0.036208,0.027219,-0.037361,-34.869999,12.18,-7.68,1b
2019-07-12_140655:760,-0.24758899999999998,-0.095062,-0.235382,0.027846,0.014341,-0.039589,-34.869999,12.18,-7.68,1b
2019-07-12_140655:780,-0.29486100000000004,-0.102173,-0.23895300000000003,0.018691,-0.002016,-0.032844,-35.25,12.18,-5.75,1b
2019-07-12_140655:800,-0.323334,-0.103699,-0.25317399999999995,0.011336,-0.015749000000000003,-0.032783,-35.25,12.18,-5.75,1b
2019-07-12_140655:820,-0.33758499999999997,-0.09201000000000001,-0.2547,0.005965,-0.025637,-0.036964,-35.25,12.18,-5.75,1b
2019-07-12_140655:840,-0.35739099999999996,-0.081848,-0.266907,0.004439,-0.031863,-0.040992,-35.869999,11.37,-5.0,1b
2019-07-12_140655:860,-0.41384899999999997,-0.060486,-0.283173,0.00328,-0.033083,-0.047035,-35.869999,11.37,-5.0,1b
2019-07-12_140655:880,-0.435699,-0.041687,-0.28775,0.002151,-0.030001,-0.050026,-35.869999,10.18,-5.75,1b
2019-07-12_140655:900,-0.43670699999999996,-0.025421,-0.27301,0.001784,-0.023043,-0.045845,-35.869999,10.18,-5.75,1b
2019-07-12_140655:920,-0.417389,-0.024384,-0.265381,0.0007769999999999999,-0.015138999999999998,-0.038734,-35.869999,10.18,-5.75,1b
2019-07-12_140655:940,-0.390961,-0.022369,-0.259796,-0.000504,-0.008791,-0.032234,-37.060001,8.75,-6.56,1b
2019-07-12_140655:960,-0.364014,-0.022858,-0.246063,-0.00081,-0.005129,-0.026924,-37.060001,8.75,-6.56,1b
2019-07-12_140655:980,-0.352844,-0.020325,-0.242004,-0.001267,-0.003725,-0.02433,-36.25,6.87,-7.68,1b
2019-07-12_140656:000,-0.341644,-0.017273,-0.234375,-0.00203,-0.002718,-0.023536,-36.25,6.87,-7.68,1b
2019-07-12_140656:020,-0.329437,-0.010651,-0.235382,-0.002671,-0.001559,-0.02201,-36.25,6.87,-7.68,1b
2019-07-12_140656:040,-0.35739099999999996,-0.004547,-0.234375,-0.004411,-0.00045999999999999996,-0.019172,-37.75,6.5,-7.68,1b
2019-07-12_140656:060,-0.36706500000000003,-0.004059,-0.245544,-0.006944,2.8000000000000003e-05,-0.015113999999999999,-37.75,6.5,-7.68,1b
2019-07-12_140656:080,-0.37011700000000003,-0.011169,-0.252686,-0.009415999999999999,8.9e-05,-0.010536,-37.369999,5.37,-8.5,1b
2019-07-12_140656:100,-0.376221,-0.013213999999999998,-0.257751,-0.012071,-0.00043,-0.0063549999999999995,-37.369999,5.37,-8.5,1b
2019-07-12_140656:120,-0.404175,-0.016753999999999998,-0.290283,-0.014603999999999999,-0.001925,-0.003242,-37.369999,5.37,-8.5,1b
2019-07-12_140656:140,-0.42758199999999996,-0.016753999999999998,-0.300964,-0.016434999999999998,-0.004336,-0.001106,-38.560001,5.37,-8.87,1b
2019-07-12_140656:160,-0.42758199999999996,-0.020844,-0.305054,-0.018234999999999998,-0.004915999999999999,0.0009390000000000001,-38.560001,5.37,-8.87,1b
2019-07-12_140656:180,-0.41842700000000005,-0.023895,-0.318268,-0.018723,-0.003054,0.00042,-37.369999,4.68,-8.5,1b
2019-07-12_140656:200,-0.445862,-0.009644,-0.342163,-0.019639,-0.003329,-0.002754,-37.369999,4.68,-8.5,1b
2019-07-12_140656:220,-0.604004,-0.001495,-0.386383,-0.019853,-0.008395,-0.002845,-37.369999,4.68,-8.5,1b
2019-07-12_140656:240,-0.613129,0.019318000000000002,-0.391968,-0.021379,-0.016482,0.000267,-38.18,4.68,-8.06,1b
2019-07-12_140656:260,-0.5556949999999999,0.034546,-0.395538,-0.021043,-0.008791,0.005883,-38.18,4.68,-8.06,1b
2019-07-12_140656:280,-0.489075,0.044739,-0.376221,-0.025681,-0.0024129999999999998,0.009545,-38.18,4.25,-8.5,1b
2019-07-12_140656:300,-0.416901,0.055389,-0.359955,-0.025956,0.006925,0.010674,-38.18,4.25,-8.5,1b
2019-07-12_140656:320,-0.309601,0.054901,-0.327423,-0.028947000000000004,0.012296,0.010674,-38.18,4.25,-8.5,1b
2019-07-12_140656:340,-0.29232800000000003,0.053375,-0.278595,-0.029069,0.019926,0.009758,-37.75,3.87,-10.06,1b
2019-07-12_140656:360,-0.321808,0.057434000000000006,-0.267914,-0.028947000000000004,0.025297,0.007347,-37.75,3.87,-10.06,1b
2019-07-12_140656:380,-0.29895,0.055389,-0.274017,-0.029069,0.025236,0.007164,-38.560001,5.0,-7.68,1b
2019-07-12_140656:400,-0.258759,0.05285599999999999,-0.263336,-0.027604000000000004,0.018064,0.013451,-38.560001,5.0,-7.68,1b
2019-07-12_140656:420,-0.286224,0.040649,-0.270477,-0.024766,0.006406,0.020287,-38.560001,5.0,-7.68,1b
2019-07-12_140656:440,-0.344696,0.03302,-0.28369099999999997,-0.021745,-0.0036030000000000003,0.020897,-38.869999,4.68,-7.68,1b
2019-07-12_140656:460,-0.367584,0.029480000000000003,-0.29538000000000003,-0.018174,-0.012637,0.021111,-38.869999,4.68,-7.68,1b
2019-07-12_140656:480,-0.389954,0.021332,-0.303528,-0.014847999999999998,-0.019991,0.026543,-38.869999,5.0,-7.68,1b
2019-07-12_140656:500,-0.40570100000000003,0.011169,-0.303528,-0.011949,-0.023653,0.033500999999999996,-38.869999,5.0,-7.68,1b
2019-07-12_140656:520,-0.42605600000000005,0.005065999999999999,-0.300476,-0.010026,-0.021334,0.033562,-38.869999,5.0,-7.68,1b
2019-07-12_140656:540,-0.409271,0.008118,-0.287231,-0.009202,-0.014224,0.030388,-38.18,5.06,-8.06,1b
2019-07-12_140656:560,-0.36654699999999996,0.001007,-0.272003,-0.008409,-0.007234999999999999,0.029381,-38.18,5.06,-8.06,1b
2019-07-12_140656:580,-0.34317,-0.004059,-0.272491,-0.008348000000000001,-0.004183,0.028679000000000003,-39.68,7.75,-10.5,1b
2019-07-12_140656:600,-0.334534,-0.011169,-0.265381,-0.008897,-0.0049770000000000005,0.027123,-39.68,7.75,-10.5,1b
2019-07-12_140656:620,-0.34063699999999997,-0.015228,-0.263336,-0.008958,-0.0071129999999999995,0.026420999999999997,-39.68,7.75,-10.5,1b
2019-07-12_140656:640,-0.340118,-0.018799,-0.259277,-0.008897,-0.008059,0.025261000000000002,-38.869999,8.06,-8.87,1b
2019-07-12_140656:660,-0.344177,-0.021332,-0.25216700000000003,-0.008683,-0.007326999999999999,0.021904,-38.869999,8.06,-8.87,1b
2019-07-12_140656:680,-0.35131799999999996,-0.020325,-0.252686,-0.008103,-0.00519,0.018425,-38.869999,8.75,-9.68,1b
2019-07-12_140656:700,-0.36349499999999996,-0.021332,-0.256744,-0.006944,-0.0036030000000000003,0.016319999999999998,-38.869999,8.75,-9.68,1b
2019-07-12_140656:720,-0.364014,-0.020844,-0.268433,-0.005265,-0.00458,0.014244,-38.869999,8.75,-9.68,1b
2019-07-12_140656:740,-0.385376,-0.020844,-0.274017,-0.002885,-0.006197,0.010491,-38.869999,9.18,-11.25,1b
2019-07-12_140656:760,-0.41586300000000004,-0.017273,-0.276581,-0.000138,-0.006197,0.006035,-38.869999,9.18,-11.25,1b
2019-07-12_140656:780,-0.44384799999999996,-0.015228,-0.285217,0.003097,-0.005068,0.002983,-39.25,10.56,-10.06,1b
2019-07-12_140656:800,-0.427063,-0.009125,-0.277069,0.0050799999999999994,-0.002535,0.0037159999999999997,-39.25,10.56,-10.06,1b
2019-07-12_140656:820,-0.40368699999999996,-0.007111,-0.285217,0.006942,-0.001437,0.008934000000000001,-39.25,10.56,-10.06,1b
2019-07-12_140656:840,-0.41995200000000005,-0.013702,-0.30654899999999996,0.007949,-0.002932,0.012657,-38.560001,9.5,-10.87,1b
2019-07-12_140656:860,-0.41384899999999997,-0.012695,-0.313171,0.008468,-0.004915999999999999,0.011406,-38.560001,9.5,-10.87,1b
2019-07-12_140656:880,-0.389954,-0.020325,-0.319794,0.00859,-0.006197,0.00988,-39.25,10.56,-10.06,1b
2019-07-12_140656:900,-0.42605600000000005,-0.034546,-0.325378,0.009261,-0.007388,0.009728,-39.25,10.56,-10.06,1b
2019-07-12_140656:920,-0.511444,-0.05285599999999999,-0.40316799999999997,0.010604,-0.011965,0.007958,-39.25,10.56,-10.06,1b
2019-07-12_140656:940,-0.438751,-0.055908000000000006,-0.369598,0.012374,-0.01401,0.00515,-38.869999,11.37,-10.87,1b
2019-07-12_140656:960,-0.467224,-0.063538,-0.399597,0.018019999999999998,-0.009921,-0.001381,-38.869999,11.37,-10.87,1b
2019-07-12_140656:980,-0.420959,-0.076752,-0.374695,0.017225999999999998,-0.0071129999999999995,-0.002845,-38.18,11.0,-11.68,1b
2019-07-12_140657:000,-0.326904,-0.0849,-0.348267,0.021163,-0.000521,0.005425,-38.18,11.0,-11.68,1b
2019-07-12_140657:020,-0.30300900000000003,-0.10318,-0.326904,0.018691,0.002531,0.014855000000000002,-38.18,11.0,-11.68,1b
2019-07-12_140657:040,-0.36248800000000003,-0.11438,-0.296387,0.016555,0.011715999999999999,0.017113,-38.560001,11.37,-11.25,1b
2019-07-12_140657:060,-0.344177,-0.130127,-0.319794,0.013198,0.013181,0.016319999999999998,-38.560001,11.37,-11.25,1b
2019-07-12_140657:080,-0.311127,-0.138275,-0.308075,0.013381,0.008848,0.008140999999999999,-38.869999,12.87,-10.87,1b
2019-07-12_140657:100,-0.32486,-0.134216,-0.300964,0.010787,0.002409,-0.004707,-38.869999,12.87,-10.87,1b
2019-07-12_140657:120,-0.35943600000000003,-0.12658699999999998,-0.312164,0.009658,-0.0036030000000000003,-0.012977,-38.869999,12.87,-10.87,1b
2019-07-12_140657:140,-0.38028,-0.11795,-0.313171,0.010206999999999999,-0.008303,-0.017952000000000003,-39.25,13.18,-10.5,1b
2019-07-12_140657:160,-0.396057,-0.08843999999999999,-0.31012,0.010604,-0.013430000000000001,-0.02613,-39.25,13.18,-10.5,1b
2019-07-12_140657:180,-0.401123,-0.068115,-0.297913,0.010268000000000001,-0.01401,-0.033027,-38.869999,12.06,-10.5,1b
2019-07-12_140657:200,-0.397583,-0.042175,-0.277069,0.009017,-0.010378,-0.033821,-38.869999,12.06,-10.5,1b
2019-07-12_140657:220,-0.38028,-0.032532,-0.264862,0.006362,-0.004519,-0.029182,-38.869999,12.06,-10.5,1b
2019-07-12_140657:240,-0.358429,-0.026917,-0.248596,0.003097,0.000608,-0.022346,-39.25,11.37,-9.68,1b
2019-07-12_140657:260,-0.348267,-0.027435,-0.243011,-0.002091,0.0034159999999999998,-0.015907,-39.25,11.37,-9.68,1b
2019-07-12_140657:280,-0.341644,-0.031006,-0.236389,-0.004472,0.002744,-0.01493,-40.369999,9.87,-10.5,1b
2019-07-12_140657:300,-0.340118,-0.031006,-0.22979699999999997,-0.0065769999999999995,0.00048600000000000005,-0.013252000000000002,-40.369999,9.87,-10.5,1b
2019-07-12_140657:320,-0.34063699999999997,-0.036591000000000005,-0.230804,-0.008103,-0.0024129999999999998,-0.009071,-40.369999,9.87,-10.5,1b
2019-07-12_140657:340,-0.345215,-0.042175,-0.23895300000000003,-0.009294,-0.005526,-0.0056229999999999995,-40.369999,9.87,-10.5,1b
2019-07-12_140657:360,-0.35739099999999996,-0.048279,-0.248108,-0.010423,-0.007571,-0.003822,-40.369999,9.87,-10.5,1b
2019-07-12_140657:380,-0.36911,-0.048279,-0.249115,-0.011399,-0.006533,-0.00196,-40.060001,9.87,-11.56,1b
2019-07-12_140657:400,-0.390961,-0.051330999999999995,-0.24706999999999998,-0.013138999999999998,-0.003207,0.000817,-40.060001,9.87,-11.56,1b
2019-07-12_140657:420,-0.399597,-0.051849,-0.2547,-0.015458000000000001,0.001157,0.004235,-40.060001,9.87,-11.56,1b
2019-07-12_140657:440,-0.38739,-0.057953,-0.257751,-0.018296,0.0038729999999999997,0.0078049999999999994,-40.75,7.68,-11.25,1b
2019-07-12_140657:460,-0.417908,-0.063019,-0.276062,-0.021348,0.001005,0.010796,-40.75,7.68,-11.25,1b
2019-07-12_140657:480,-0.41485600000000006,-0.072693,-0.29284699999999997,-0.023087,0.000669,0.012261,-40.75,9.18,-10.87,1b
2019-07-12_140657:500,-0.40823400000000004,-0.077271,-0.285217,-0.024552,0.002134,0.00988,-40.75,9.18,-10.87,1b
2019-07-12_140657:520,-0.375702,-0.081329,-0.297913,-0.025071,0.007108,0.005638000000000001,-40.75,9.18,-10.87,1b
2019-07-12_140657:540,-0.409271,-0.071167,-0.305054,-0.024278,0.008237000000000001,0.002587,-40.060001,8.37,-10.87,1b
2019-07-12_140657:560,-0.55011,-0.06405599999999999,-0.36706500000000003,-0.024491,-0.003481,0.0021899999999999997,-40.060001,8.37,-10.87,1b
2019-07-12_140657:580,-0.572479,-0.047272,-0.390442,-0.023362,-0.0152,0.006615,-40.369999,9.18,-10.87,1b
2019-07-12_140657:600,-0.5211180000000001,-0.03302,-0.386383,-0.020707,-0.018649000000000002,0.006829000000000001,-40.369999,9.18,-10.87,1b
2019-07-12_140657:620,-0.470276,-0.014740000000000001,-0.381805,-0.021348,-0.013827,0.0021899999999999997,-40.369999,9.18,-10.87,1b
2019-07-12_140657:640,-0.399109,0.005065999999999999,-0.395538,-0.020036,-0.011965,0.000542,-40.369999,8.75,-12.06,1b
2019-07-12_140657:660,-0.353851,0.013702,-0.360962,-0.017197999999999998,-0.007631999999999999,-0.000587,-40.369999,8.75,-12.06,1b
2019-07-12_140657:680,-0.342163,0.027435,-0.322845,-0.015580000000000002,0.0050030000000000005,-0.004615,-40.060001,9.18,-12.06,1b
2019-07-12_140657:700,-0.347748,0.043701,-0.27301,-0.015183000000000002,0.019651,-0.003425,-40.060001,9.18,-12.06,1b
2019-07-12_140657:720,-0.322327,0.051849,-0.293854,-0.015397,0.021909,0.006615,-39.68,8.37,-11.68,1b
2019-07-12_140657:740,-0.276062,0.045226999999999996,-0.27301,-0.015641,0.018858,0.017509999999999998,-39.68,8.37,-11.68,1b
2019-07-12_140657:760,-0.29538000000000003,0.038635,-0.26944,-0.017197999999999998,0.011289,0.021691,-39.68,8.37,-11.68,1b
2019-07-12_140657:780,-0.355377,0.026427999999999997,-0.290283,-0.018907,0.0035380000000000003,0.022941999999999997,-41.060001,8.0,-11.68,1b
2019-07-12_140657:800,-0.368591,0.01828,-0.29180900000000004,-0.019456,-0.0037869999999999996,0.026420999999999997,-41.060001,8.0,-11.68,1b
2019-07-12_140657:820,-0.385376,0.006592,-0.300964,-0.020219,-0.012362,0.031517,-41.060001,8.0,-11.68,1b
2019-07-12_140657:840,-0.390442,-0.005065999999999999,-0.302002,-0.021103999999999998,-0.017397,0.034691,-40.75,8.37,-12.5,1b
2019-07-12_140657:860,-0.384857,-0.016753999999999998,-0.29232800000000003,-0.021562,-0.017794,0.032921,-40.75,8.37,-12.5,1b
2019-07-12_140657:880,-0.37316900000000003,-0.017792,-0.28418000000000004,-0.021623,-0.014803,0.027611,-40.369999,9.87,-11.68,1b
2019-07-12_140657:900,-0.352325,-0.020844,-0.28064,-0.022111000000000002,-0.011812999999999999,0.022026,-40.369999,9.87,-11.68,1b
2019-07-12_140657:920,-0.347748,-0.021332,-0.28064,-0.022233000000000003,-0.010165,0.019584999999999998,-40.369999,9.87,-11.68,1b
2019-07-12_140657:940,-0.353333,-0.023895,-0.274536,-0.022080000000000002,-0.009493000000000001,0.020225999999999997,-39.68,10.56,-12.75,1b
2019-07-12_140657:960,-0.352325,-0.024384,-0.270966,-0.021501,-0.008517,0.021019,-39.68,10.56,-12.75,1b
2019-07-12_140657:980,-0.353851,-0.028442000000000002,-0.266388,-0.020768000000000002,-0.0066549999999999995,0.01989,-39.68,11.37,-14.5,1b
2019-07-12_140658:000,-0.34368899999999997,-0.029480000000000003,-0.265381,-0.019303,-0.004519,0.017449,-39.68,11.37,-14.5,1b
2019-07-12_140658:020,-0.333496,-0.029480000000000003,-0.26181,-0.017166999999999998,-0.0024129999999999998,0.014122,-39.68,11.37,-14.5,1b
2019-07-12_140658:040,-0.350281,-0.027954000000000003,-0.263336,-0.014665000000000001,-0.0012230000000000001,0.011193,-39.25,12.5,-14.0,1b
2019-07-12_140658:060,-0.364532,-0.025908999999999998,-0.28064,-0.01146,-0.002657,0.00869,-39.25,12.5,-14.0,1b
2019-07-12_140658:080,-0.389435,-0.023895,-0.286224,-0.007554000000000001,-0.004794,0.004509,-38.869999,11.68,-14.0,1b
2019-07-12_140658:100,-0.410278,-0.016753999999999998,-0.28875700000000004,-0.003953,-0.004855,-0.00037400000000000004,-38.869999,11.68,-14.0,1b
2019-07-12_140658:120,-0.433655,-0.010162000000000001,-0.288269,-0.000688,-0.001559,-0.001838,-38.869999,11.68,-14.0,1b
2019-07-12_140658:140,-0.41485600000000006,-0.005065999999999999,-0.30300900000000003,0.000991,0.000883,0.002587,-38.869999,11.37,-14.75,1b
2019-07-12_140658:160,-0.40774499999999997,-0.005065999999999999,-0.306061,0.0028829999999999997,0.001218,0.007622,-38.869999,11.37,-14.75,1b
2019-07-12_140658:180,-0.38385,-0.014221000000000001,-0.314697,0.002578,0.001005,0.008537999999999999,-40.060001,12.5,-14.75,1b
2019-07-12_140658:200,-0.418915,-0.025908999999999998,-0.313171,0.0027,-0.00036899999999999997,0.006768000000000001,-40.060001,12.5,-14.75,1b
2019-07-12_140658:220,-0.47079499999999996,-0.040161,-0.41232299999999994,0.002761,-0.011812999999999999,0.005974,-40.060001,12.5,-14.75,1b
2019-07-12_140658:240,-0.500275,-0.05996699999999999,-0.37316900000000003,0.005294,-0.015231,0.005181,-39.68,11.68,-14.75,1b
2019-07-12_140658:260,-0.454529,-0.061005,-0.431641,0.006942,-0.023043,-9.9e-05,-39.68,11.68,-14.75,1b
2019-07-12_140658:280,-0.447906,-0.069641,-0.393005,0.008803,-0.018282,-0.001381,-39.68,12.06,-13.56,1b
2019-07-12_140658:300,-0.384857,-0.069641,-0.37112399999999995,0.009017,-0.012545,0.004021,-39.68,12.06,-13.56,1b
2019-07-12_140658:320,-0.335022,-0.080322,-0.347229,0.006942,-0.003268,0.012078,-39.68,12.06,-13.56,1b
2019-07-12_140658:340,-0.293854,-0.092529,-0.304016,0.003646,0.007597,0.017235,-38.869999,12.06,-16.75,1b
2019-07-12_140658:360,-0.31369,-0.10775799999999999,-0.28674299999999997,-1.6e-05,0.015684,0.016045,-38.869999,12.06,-16.75,1b
2019-07-12_140658:380,-0.287231,-0.119965,-0.317749,-0.002275,0.013028999999999999,0.008202,-38.869999,12.87,-16.370001000000002,1b
2019-07-12_140658:400,-0.256226,-0.12658699999999998,-0.307068,-0.0034649999999999998,0.005125,-0.000709,-38.869999,12.87,-16.370001000000002,1b
2019-07-12_140658:420,-0.283173,-0.126068,-0.313171,-0.003617,-0.005647999999999999,-0.007087,-38.869999,12.87,-16.370001000000002,1b
2019-07-12_140658:440,-0.309113,-0.12454200000000001,-0.325378,-0.003007,-0.013216,-0.011512,-39.25,12.5,-15.18,1b
2019-07-12_140658:460,-0.353333,-0.113373,-0.33300799999999997,-0.000688,-0.017733000000000002,-0.016761,-39.25,12.5,-15.18,1b
2019-07-12_140658:480,-0.382812,-0.100159,-0.340118,0.002486,-0.020052,-0.023658000000000002,-40.369999,12.5,-15.06,1b
2019-07-12_140658:500,-0.411804,-0.072693,-0.332489,0.0053549999999999995,-0.01813,-0.030861000000000003,-40.369999,12.5,-15.06,1b
2019-07-12_140658:520,-0.40774499999999997,-0.055389,-0.326385,0.006698000000000001,-0.013888,-0.033973,-40.369999,12.5,-15.06,1b
2019-07-12_140658:540,-0.378265,-0.033539,-0.306061,0.006423000000000001,-0.008912999999999999,-0.029518,-38.869999,11.68,-15.5,1b
2019-07-12_140658:560,-0.35739099999999996,-0.028442000000000002,-0.296906,0.004745,-0.005404,-0.019233,-38.869999,11.68,-15.5,1b
2019-07-12_140658:580,-0.33300799999999997,-0.029480000000000003,-0.286224,0.0020280000000000003,-0.003848,-0.011054999999999999,-40.060001,10.18,-16.68,1b
2019-07-12_140658:600,-0.322845,-0.032013,-0.282166,-0.0014199999999999998,-0.004275,-0.008674,-40.060001,10.18,-16.68,1b
2019-07-12_140658:620,-0.318756,-0.033539,-0.279114,-0.004014,-0.005862,-0.008674,-40.060001,10.18,-16.68,1b
2019-07-12_140658:640,-0.325897,-0.035065,-0.282166,-0.006028,-0.007631999999999999,-0.008735,-40.369999,9.5,-16.68,1b
2019-07-12_140658:660,-0.33197,-0.040161,-0.278107,-0.008164,-0.007509999999999999,-0.008612999999999999,-40.369999,9.5,-16.68,1b
2019-07-12_140658:680,-0.339111,-0.046265,-0.277069,-0.009415999999999999,-0.005129,-0.008217,-40.75,9.18,-16.25,1b
2019-07-12_140658:700,-0.355377,-0.05285599999999999,-0.28418000000000004,-0.009934,-0.002261,-0.007759,-40.75,9.18,-16.25,1b
2019-07-12_140658:720,-0.34368899999999997,-0.053863999999999995,-0.291321,-0.010148,-0.0009789999999999998,-0.006233,-40.75,9.18,-16.25,1b
2019-07-12_140658:740,-0.337067,-0.055389,-0.290802,-0.010087,-0.000521,-0.003822,-40.369999,8.37,-16.68,1b
2019-07-12_140658:760,-0.361969,-0.055908000000000006,-0.29742399999999997,-0.011155,-0.0010400000000000001,-0.001167,-40.369999,8.37,-16.68,1b
2019-07-12_140658:780,-0.37112399999999995,-0.057434000000000006,-0.315704,-0.013016999999999999,-0.001559,0.002251,-40.369999,7.25,-17.059998999999998,1b
2019-07-12_140658:800,-0.392487,-0.059479,-0.318756,-0.014847999999999998,-0.001254,0.004692,-40.369999,7.25,-17.059998999999998,1b
2019-07-12_140658:820,-0.398071,-0.06405599999999999,-0.32486,-0.017044999999999998,-0.000857,0.003899,-40.369999,7.25,-17.059998999999998,1b
2019-07-12_140658:840,-0.406219,-0.063538,-0.324371,-0.018234999999999998,0.002012,0.001274,-40.060001,6.87,-16.68,1b
2019-07-12_140658:860,-0.389954,-0.063019,-0.327423,-0.019578,0.006406,0.000542,-40.060001,6.87,-16.68,1b
2019-07-12_140658:880,-0.379272,-0.057953,-0.335541,-0.020371,0.008268000000000001,0.001854,-40.369999,7.68,-17.059998999999998,1b
2019-07-12_140658:900,-0.444855,-0.055908000000000006,-0.35131799999999996,-0.021348,0.006071,0.0035020000000000003,-40.369999,7.68,-17.059998999999998,1b
2019-07-12_140658:920,-0.478912,-0.041168,-0.423492,-0.022691,-0.0066549999999999995,0.006706999999999999,-40.369999,7.68,-17.059998999999998,1b
2019-07-12_140658:940,-0.5424800000000001,-0.042694,-0.391968,-0.023209999999999998,-0.009432,0.012719,-40.369999,6.87,-17.059998999999998,1b
2019-07-12_140658:960,-0.46469099999999997,-0.027435,-0.408752,-0.024491,-0.012362,0.011742,-40.369999,6.87,-17.059998999999998,1b
2019-07-12_140658:980,-0.406219,-0.011169,-0.389954,-0.025407,-0.006379999999999999,0.005547,-41.5,6.5,-17.870001000000002,1b
2019-07-12_140659:000,-0.320801,0.0035399999999999997,-0.355377,-0.025346,0.000547,0.0014880000000000002,-41.5,6.5,-17.870001000000002,1b
2019-07-12_140659:020,-0.307068,0.011169,-0.316223,-0.023545,0.010435,-0.003242,-41.5,6.5,-17.870001000000002,1b
2019-07-12_140659:040,-0.318756,0.025908999999999998,-0.290802,-0.023149,0.020413999999999998,-0.008491,-40.369999,6.5,-17.059998999999998,1b
2019-07-12_140659:060,-0.29538000000000003,0.038635,-0.300476,-0.02324,0.022733,-0.0073620000000000005,-40.369999,6.5,-17.059998999999998,1b
2019-07-12_140659:080,-0.244019,0.036591000000000005,-0.303528,-0.022691,0.015562000000000001,0.000634,-41.060001,5.75,-16.68,1b
2019-07-12_140659:100,-0.266907,0.028442000000000002,-0.304016,-0.021623,0.004728,0.00515,-41.060001,5.75,-16.68,1b
2019-07-12_140659:120,-0.334015,0.021851,-0.319275,-0.020982,-0.003878,0.006371,-41.060001,5.75,-16.68,1b
2019-07-12_140659:140,-0.37316900000000003,0.015228,-0.326904,-0.018296,-0.009829000000000001,0.011071,-41.869999,4.68,-17.059998999999998,1b
2019-07-12_140659:160,-0.397064,0.0055850000000000006,-0.345215,-0.016191,-0.015536000000000001,0.016533000000000003,-41.869999,4.68,-17.059998999999998,1b
2019-07-12_140659:180,-0.404694,0.002014,-0.348267,-0.014450999999999999,-0.018984,0.018456,-41.5,3.87,-17.18,1b
2019-07-12_140659:200,-0.404694,-0.004547,-0.33605999999999997,-0.012620000000000001,-0.016878999999999998,0.017052,-41.5,3.87,-17.18,1b
2019-07-12_140659:220,-0.391479,-0.009125,-0.331482,-0.010728,-0.010561,0.013115,-41.5,3.87,-17.18,1b
2019-07-12_140659:240,-0.359955,-0.008118,-0.314178,-0.00908,-0.003085,0.010459999999999999,-41.560001,4.37,-16.75,1b
2019-07-12_140659:260,-0.349274,-0.010162000000000001,-0.306061,-0.007370999999999999,0.0017980000000000001,0.011467,-41.560001,4.37,-16.75,1b
2019-07-12_140659:280,-0.341644,-0.017792,-0.290802,-0.006028,0.004209,0.013787,-40.869999,5.06,-18.370001000000002,1b
2019-07-12_140659:300,-0.336548,-0.020844,-0.278595,-0.005204,0.005521,0.013512,-40.869999,5.06,-18.370001000000002,1b
2019-07-12_140659:320,-0.33758499999999997,-0.023895,-0.267914,-0.004654999999999999,0.005979,0.011406,-40.869999,5.06,-18.370001000000002,1b
2019-07-12_140659:340,-0.337067,-0.025908999999999998,-0.264374,-0.0034649999999999998,0.006071,0.009362,-40.869999,5.06,-16.75,1b
2019-07-12_140659:360,-0.335022,-0.026917,-0.256226,-0.0016640000000000001,0.006406,0.0066760000000000005,-40.869999,5.06,-16.75,1b
2019-07-12_140659:380,-0.336548,-0.024902,-0.256226,0.000167,0.006406,0.002983,-42.369999,5.5,-17.18,1b
2019-07-12_140659:400,-0.35436999999999996,-0.015747,-0.262329,0.002639,0.005674,-0.000587,-42.369999,5.5,-17.18,1b
2019-07-12_140659:420,-0.36554000000000003,-0.011687999999999999,-0.270477,0.0051719999999999995,0.0034159999999999998,-0.003486,-42.369999,5.5,-17.18,1b
2019-07-12_140659:440,-0.377228,-0.0025329999999999997,-0.275543,0.00801,0.0007610000000000001,-0.0065379999999999995,-43.0,6.25,-15.56,1b
2019-07-12_140659:460,-0.391479,0.0035399999999999997,-0.286224,0.009994,-0.002139,-0.008217,-43.0,6.25,-15.56,1b
2019-07-12_140659:480,-0.415375,0.011169,-0.294373,0.01158,-0.002535,-0.005287,-42.25,5.37,-16.75,1b
2019-07-12_140659:500,-0.396545,0.013213999999999998,-0.308075,0.012313,-0.003664,0.001213,-42.25,5.37,-16.75,1b
2019-07-12_140659:520,-0.41333000000000003,0.011687999999999999,-0.317749,0.012801,-0.003054,0.0054859999999999996,-42.25,5.37,-16.75,1b
2019-07-12_140659:540,-0.41232299999999994,0.010651,-0.322845,0.011916,-0.0010400000000000001,0.004174000000000001,-42.25,5.37,-16.75,1b
2019-07-12_140659:560,-0.48858599999999996,-0.004547,-0.345215,0.010879,-0.000124,0.0028309999999999997,-42.25,5.37,-16.75,1b
2019-07-12_140659:580,-0.48095699999999997,-0.012177,-0.411285,0.010116,-0.008395,0.005303,-42.25,5.0,-16.75,1b
2019-07-12_140659:600,-0.514008,-0.035065,-0.38028,0.011793999999999999,-0.009982,0.007012000000000001,-42.25,5.0,-16.75,1b
2019-07-12_140659:620,-0.46417200000000003,-0.040161,-0.43518100000000004,0.012588,-0.016756,0.0023120000000000003,-42.25,5.0,-16.75,1b
2019-07-12_140659:640,-0.434174,-0.047791,-0.410278,0.014236000000000002,-0.014346000000000001,0.0017929999999999999,-42.25,6.25,-16.75,1b
2019-07-12_140659:660,-0.40570100000000003,-0.061005,-0.390961,0.013381,-0.009554,0.011132,-42.25,6.25,-16.75,1b
2019-07-12_140659:680,-0.376221,-0.075226,-0.368073,0.011245,0.000883,0.021111,-41.869999,6.18,-16.0,1b
2019-07-12_140659:700,-0.305542,-0.09201000000000001,-0.327911,0.006606,0.013578,0.024285,-41.869999,6.18,-16.0,1b
2019-07-12_140659:720,-0.274017,-0.10928299999999999,-0.277069,0.0033710000000000003,0.025968,0.018517,-41.869999,6.18,-16.0,1b
2019-07-12_140659:740,-0.279633,-0.109802,-0.276062,0.0008990000000000001,0.028287,0.004631000000000001,-41.869999,6.56,-16.0,1b
2019-07-12_140659:760,-0.268951,-0.107269,-0.29486100000000004,-0.001603,0.021391,-0.006874,-41.869999,6.56,-16.0,1b
2019-07-12_140659:780,-0.255707,-0.10775799999999999,-0.282654,-0.001023,0.010435,-0.010597,-43.369999,7.0,-16.370001000000002,1b
2019-07-12_140659:800,-0.30654899999999996,-0.108795,-0.28674299999999997,-0.00022999999999999998,-0.001254,-0.013068999999999999,-43.369999,7.0,-16.370001000000002,1b
2019-07-12_140659:820,-0.348267,-0.101685,-0.29943800000000004,0.001113,-0.008303,-0.016365,-43.369999,7.0,-16.370001000000002,1b
2019-07-12_140659:840,-0.347229,-0.09201000000000001,-0.308594,0.003768,-0.014559,-0.018684,-43.75,6.56,-14.75,1b
2019-07-12_140659:860,-0.380798,-0.073212,-0.310638,0.0060869999999999995,-0.018465000000000002,-0.021156,-43.75,6.56,-14.75,1b
2019-07-12_140659:880,-0.40774499999999997,-0.058960000000000005,-0.312653,0.006484,-0.019198,-0.023018,-43.75,5.5,-16.370001000000002,1b
2019-07-12_140659:900,-0.418915,-0.042694,-0.29742399999999997,0.006148,-0.014956,-0.020973,-43.75,5.5,-16.370001000000002,1b
2019-07-12_140659:920,-0.40368699999999996,-0.038116000000000004,-0.287231,0.0043479999999999994,-0.008578,-0.016578,-43.75,5.5,-16.370001000000002,1b
2019-07-12_140659:940,-0.37316900000000003,-0.032013,-0.274536,0.001235,-0.0028710000000000003,-0.013374,-43.0,5.75,-16.370001000000002,1b
2019-07-12_140659:960,-0.3508,-0.029968,-0.267914,-0.002275,0.000272,-0.011146,-43.0,5.75,-16.370001000000002,1b
2019-07-12_140659:980,-0.334534,-0.028961,-0.260284,-0.005265,0.00048600000000000005,-0.010994,-44.060001,4.68,-16.370001000000002,1b
2019-07-12_140700:000,-0.329437,-0.029968,-0.257751,-0.008012,-0.0007650000000000001,-0.011512,-44.060001,4.68,-16.370001000000002,1b
2019-07-12_140700:020,-0.333496,-0.032013,-0.262329,-0.010209000000000001,-0.0024739999999999996,-0.00962,-44.060001,4.68,-16.370001000000002,1b
2019-07-12_140700:040,-0.349274,-0.033539,-0.263336,-0.011674,-0.003481,-0.005226,-44.060001,4.37,-16.0,1b
2019-07-12_140700:060,-0.358429,-0.038116000000000004,-0.264374,-0.013413,-0.001864,-0.0018989999999999999,-44.060001,4.37,-16.0,1b
2019-07-12_140700:080,-0.36654699999999996,-0.040161,-0.259796,-0.015458000000000001,0.002286,-0.000251,-44.5,4.0,-16.370001000000002,1b
2019-07-12_140700:100,-0.37265,-0.039124,-0.264862,-0.018571,0.006803,0.002648,-44.5,4.0,-16.370001000000002,1b
2019-07-12_140700:120,-0.374695,-0.044739,-0.272003,-0.022111000000000002,0.008573,0.007073,-44.5,4.0,-16.370001000000002,1b
2019-07-12_140700:140,-0.388916,-0.046752999999999996,-0.29180900000000004,-0.023698,0.0072,0.008873,-44.060001,2.56,-16.0,1b
2019-07-12_140700:160,-0.390961,-0.057953,-0.297913,-0.028337,0.0035380000000000003,0.010856999999999999,-44.060001,2.56,-16.0,1b
2019-07-12_140700:180,-0.385864,-0.06149299999999999,-0.304535,-0.029069,0.002012,0.009484000000000001,-44.869999,2.56,-16.75,1b
2019-07-12_140700:200,-0.37011700000000003,-0.062012,-0.307587,-0.029344,0.003599,0.002983,-44.869999,2.56,-16.75,1b
2019-07-12_140700:220,-0.384338,-0.051330999999999995,-0.318756,-0.028398000000000003,0.005582,-0.0021739999999999997,-44.869999,2.56,-16.75,1b
2019-07-12_140700:240,-0.552124,-0.03302,-0.382812,-0.027818,-0.0007650000000000001,-0.003578,-44.060001,1.75,-16.370001000000002,1b
2019-07-12_140700:260,-0.522125,-0.01828,-0.420959,-0.027145999999999997,-0.004397,0.003563,-44.060001,1.75,-16.370001000000002,1b
2019-07-12_140700:280,-0.5343319999999999,-0.0055850000000000006,-0.391479,-0.024827000000000002,-0.004061,0.008293,-46.0,1.5,-16.370001000000002,1b
2019-07-12_140700:300,-0.5505979999999999,0.002014,-0.39859,-0.023881,-0.00162,0.006035,-46.0,1.5,-16.370001000000002,1b
2019-07-12_140700:320,-0.473846,0.025908999999999998,-0.381317,-0.021165,0.0035380000000000003,0.00161,-46.0,1.5,-16.370001000000002,1b
2019-07-12_140700:340,-0.417389,0.039124,-0.352325,-0.018785,0.008909,0.000878,-45.560001,1.5,-16.0,1b
2019-07-12_140700:360,-0.316742,0.059479,-0.33605999999999997,-0.016801,0.015012000000000001,0.006035,-45.560001,1.5,-16.0,1b
2019-07-12_140700:380,-0.281647,0.066071,-0.296387,-0.01677,0.019193,0.010338,-46.0,1.5,-16.370001000000002,1b
2019-07-12_140700:400,-0.318268,0.071167,-0.270477,-0.019181,0.024595,0.031181999999999998,-46.0,1.5,-16.370001000000002,1b
2019-07-12_140700:420,-0.314178,0.069122,-0.281647,-0.021775,0.021391,0.042656,-46.0,1.5,-16.370001000000002,1b
2019-07-12_140700:440,-0.282166,0.05438200000000001,-0.269958,-0.025131999999999998,0.012296,0.044608999999999996,-46.0,1.06,-14.5,1b
2019-07-12_140700:460,-0.29895,0.042175,-0.274536,-0.027543,0.000669,0.040673,-46.0,1.06,-14.5,1b
2019-07-12_140700:480,-0.329437,0.025421,-0.29284699999999997,-0.028275,-0.009493000000000001,0.035698,-47.060001,3.25,-15.18,1b
2019-07-12_140700:500,-0.338074,0.015228,-0.301483,-0.028672000000000003,-0.018678999999999998,0.032372000000000005,-47.060001,3.25,-15.18,1b
2019-07-12_140700:520,-0.353851,0.0055850000000000006,-0.310638,-0.02913,-0.022311,0.03106,-47.060001,3.25,-15.18,1b
2019-07-12_140700:540,-0.38028,-0.001495,-0.308075,-0.029405,-0.021639,0.031334,-46.68,3.25,-14.75,1b
2019-07-12_140700:560,-0.410278,-0.011169,-0.30300900000000003,-0.028214,-0.009706999999999999,0.030570999999999997,-46.68,3.25,-14.75,1b
2019-07-12_140700:580,-0.40011599999999997,-0.013213999999999998,-0.290283,-0.027604000000000004,-0.004519,0.029044999999999998,-46.68,4.75,-14.75,1b
2019-07-12_140700:600,-0.370636,-0.014740000000000001,-0.272491,-0.025681,0.006528,0.024956,-46.68,4.75,-14.75,1b
2019-07-12_140700:620,-0.355896,-0.013702,-0.260284,-0.024003,0.009031,0.025994,-46.68,4.75,-14.75,1b
2019-07-12_140700:640,-0.33605999999999997,-0.019318000000000002,-0.24758899999999998,-0.023025999999999998,0.008787,0.026604000000000003,-46.0,5.5,-15.56,1b
2019-07-12_140700:660,-0.334015,-0.026917,-0.243011,-0.020097,0.004606,0.02462,-46.0,5.5,-15.56,1b
2019-07-12_140700:680,-0.335022,-0.036591000000000005,-0.241486,-0.018785,0.0026829999999999996,0.022300999999999998,-46.369999,5.87,-15.18,1b
2019-07-12_140700:700,-0.34063699999999997,-0.041168,-0.243011,-0.012406,-0.000704,0.013054,-46.369999,5.87,-15.18,1b
2019-07-12_140700:720,-0.3396,-0.043213,-0.24453699999999998,-0.0065769999999999995,-0.000918,0.0063100000000000005,-46.369999,5.87,-15.18,1b
2019-07-12_140700:740,-0.364014,-0.043213,-0.24096700000000001,-0.003404,-0.0011619999999999998,0.00277,-46.68,7.0,-14.87,1b
2019-07-12_140700:760,-0.390442,-0.037598,-0.268951,0.007215999999999999,-0.002535,-0.008278,-46.68,7.0,-14.87,1b
2019-07-12_140700:780,-0.411285,-0.032013,-0.260284,0.011184,-0.002657,-0.011207,-47.369999,7.25,-16.059998999999998,1b
2019-07-12_140700:800,-0.43670699999999996,-0.022858,-0.275543,0.021285,-0.003939,-0.013923,-47.369999,7.25,-16.059998999999998,1b
2019-07-12_140700:820,-0.446899,-0.015747,-0.28674299999999997,0.026869999999999998,-0.0034509999999999996,-0.011879,-47.369999,7.25,-16.059998999999998,1b
2019-07-12_140700:840,-0.42401099999999997,-0.012695,-0.278107,0.029127999999999998,-0.0027489999999999997,-0.010078,-47.060001,6.5,-15.25,1b
2019-07-12_140700:860,-0.449432,-0.012695,-0.288269,0.033645,-0.012209000000000001,-0.006233,-47.060001,6.5,-15.25,1b
2019-07-12_140700:880,-0.476379,-0.025421,-0.385864,0.034163,-0.020602000000000002,-0.005012,-47.060001,6.5,-15.25,1b
2019-07-12_140700:900,-0.508423,-0.041687,-0.366058,0.037215,-0.036470999999999996,-0.0018989999999999999,-47.060001,6.5,-14.87,1b
2019-07-12_140700:920,-0.47280900000000003,-0.058441,-0.41232299999999994,0.03688,-0.03998,0.0007559999999999999,-47.060001,6.5,-14.87,1b
2019-07-12_140700:940,-0.47842399999999996,-0.078278,-0.423004,0.037734,-0.039827999999999995,0.0019149999999999998,-46.560001,6.5,-15.68,1b
2019-07-12_140700:960,-0.379272,-0.09811399999999999,-0.391968,0.034957,-0.026247000000000003,0.0054859999999999996,-46.560001,6.5,-15.68,1b
2019-07-12_140700:980,-0.374695,-0.10318,-0.378265,0.032912000000000004,-0.020663,0.0078049999999999994,-46.18,7.68,-17.25,1b
2019-07-12_140701:000,-0.320801,-0.113373,-0.339111,0.02632,0.007444,0.012535,-46.18,7.68,-17.25,1b
2019-07-12_140701:020,-0.283173,-0.130646,-0.296387,0.021224,0.017026,0.003899,-46.18,7.68,-17.25,1b
2019-07-12_140701:040,-0.274536,-0.141846,-0.315704,0.018844,0.016294,-0.001777,-45.5,8.75,-17.68,1b
2019-07-12_140701:060,-0.248108,-0.147949,-0.319275,0.017225999999999998,0.005674,-0.009285,-45.5,8.75,-17.68,1b
2019-07-12_140701:080,-0.242004,-0.155548,-0.29742399999999997,0.016555,0.000822,-0.009193000000000002,-45.5,8.75,-17.68,1b
2019-07-12_140701:100,-0.301483,-0.156586,-0.29538000000000003,0.015182,-0.006379999999999999,-0.009132,-46.68,9.5,-16.870001000000002,1b
2019-07-12_140701:120,-0.36654699999999996,-0.153534,-0.312164,0.012588,-0.011415999999999999,-0.011512,-46.68,9.5,-16.870001000000002,1b
2019-07-12_140701:140,-0.374695,-0.138794,-0.325378,0.011793999999999999,-0.013888,-0.013252000000000002,-47.060001,9.87,-18.059998999999998,1b
2019-07-12_140701:160,-0.378265,-0.12048299999999999,-0.33197,0.005294,-0.02225,-0.020027,-47.060001,9.87,-18.059998999999998,1b
2019-07-12_140701:180,-0.382812,-0.096588,-0.323853,0.002822,-0.023104,-0.021431,-47.060001,9.87,-18.059998999999998,1b
2019-07-12_140701:200,-0.379791,-0.0849,-0.312164,-0.005386999999999999,-0.018649000000000002,-0.023597,-47.369999,8.0,-17.25,1b
2019-07-12_140701:220,-0.361481,-0.073212,-0.290802,-0.008164,-0.015688,-0.024879,-47.369999,8.0,-17.25,1b
2019-07-12_140701:240,-0.352844,-0.065582,-0.283173,-0.012589,-0.010714,-0.025398,-46.68,8.0,-18.870001000000002,1b
2019-07-12_140701:260,-0.33197,-0.05996699999999999,-0.270966,-0.015275,-0.007234999999999999,-0.022499,-46.68,8.0,-18.870001000000002,1b
2019-07-12_140701:280,-0.322845,-0.061005,-0.267426,-0.016465,-0.006197,-0.019752000000000002,-47.369999,6.18,-18.5,1b
2019-07-12_140701:300,-0.323853,-0.056915,-0.266907,-0.017259,-0.006776999999999999,-0.016761,-47.369999,6.18,-18.5,1b
2019-07-12_140701:320,-0.320801,-0.057953,-0.265381,-0.016374,-0.007723000000000001,-0.007484,-47.369999,6.18,-18.5,1b
2019-07-12_140701:340,-0.320801,-0.06253099999999999,-0.267914,-0.015916,-0.00812,-0.004829,-46.369999,5.0,-18.75,1b
2019-07-12_140701:360,-0.325378,-0.063538,-0.271484,-0.015458000000000001,-0.009554,0.0016710000000000002,-46.369999,5.0,-18.75,1b
2019-07-12_140701:380,-0.341125,-0.063019,-0.28775,-0.015977,-0.0105,0.004448,-46.369999,5.0,-18.75,1b
2019-07-12_140701:400,-0.35791,-0.070648,-0.29232800000000003,-0.019578,-0.011904000000000001,0.01339,-46.369999,4.68,-19.559998999999998,1b
2019-07-12_140701:420,-0.393005,-0.08081100000000001,-0.307587,-0.021165,-0.011812999999999999,0.015526,-46.369999,4.68,-19.559998999999998,1b
2019-07-12_140701:440,-0.407227,-0.087952,-0.32843,-0.024888,-0.01163,0.017509999999999998,-46.369999,3.87,-20.0,1b
2019-07-12_140701:460,-0.398071,-0.098633,-0.322327,-0.027604000000000004,-0.007906,0.014977,-46.369999,3.87,-20.0,1b
2019-07-12_140701:480,-0.408752,-0.099121,-0.326385,-0.030777999999999996,-0.00458,0.007439,-46.369999,3.87,-20.0,1b
2019-07-12_140701:500,-0.388916,-0.097595,-0.325897,-0.033128,0.000272,0.002373,-46.68,3.87,-19.559998999999998,1b
2019-07-12_140701:520,-0.34674099999999997,-0.096069,-0.312653,-0.033372000000000006,0.006742000000000001,-0.004219,-46.68,3.87,-19.559998999999998,1b
2019-07-12_140701:540,-0.29486100000000004,-0.0737,-0.32843,-0.033708,0.006925,-0.006233,-46.369999,3.18,-21.870001000000002,1b
2019-07-12_140701:560,-0.29284699999999997,-0.057953,-0.334015,-0.033188999999999996,0.006651000000000001,-0.006416,-46.369999,3.18,-21.870001000000002,1b
2019-07-12_140701:580,-0.446899,-0.043701,-0.34265100000000004,-0.032182,0.006651000000000001,-0.0038829999999999997,-46.369999,3.18,-21.870001000000002,1b
2019-07-12_140701:600,-0.448425,-0.021851,-0.45553599999999994,-0.033769,-0.0066549999999999995,0.00161,-46.68,2.5,-19.559998999999998,1b
2019-07-12_140701:620,-0.535339,-0.017792,-0.411285,-0.031175,-0.004794,0.007744,-46.68,2.5,-19.559998999999998,1b
2019-07-12_140701:640,-0.444855,0.001495,-0.43823199999999995,-0.031846,-0.007449,0.008568000000000001,-46.68,1.68,-19.18,1b
2019-07-12_140701:660,-0.411285,0.024384,-0.433167,-0.031266,-0.00461,0.008140999999999999,-46.68,1.68,-19.18,1b
2019-07-12_140701:680,-0.389954,0.031494,-0.41842700000000005,-0.031449,-0.004733,0.011345000000000001,-46.68,1.68,-19.18,1b
2019-07-12_140701:700,-0.34570300000000004,0.042694,-0.387909,-0.031175,-0.003329,0.011864,-46.68,1.68,-20.870001000000002,1b
2019-07-12_140701:720,-0.345215,0.051330999999999995,-0.334015,-0.031724,0.007108,0.009819,-46.68,1.68,-20.870001000000002,1b
2019-07-12_140701:740,-0.337067,0.05996699999999999,-0.300476,-0.03151,0.020933,0.010154999999999999,-45.25,1.68,-20.870001000000002,1b
2019-07-12_140701:760,-0.314178,0.06405599999999999,-0.303528,-0.03325,0.02725,0.018303,-45.25,1.68,-20.870001000000002,1b
2019-07-12_140701:780,-0.275055,0.050323,-0.290802,-0.033769,0.025388,0.030570999999999997,-45.25,1.68,-20.870001000000002,1b
2019-07-12_140701:800,-0.276062,0.03302,-0.29284699999999997,-0.033891000000000004,0.01608,0.035637,-47.060001,1.68,-19.25,1b
2019-07-12_140701:820,-0.29284699999999997,0.014221000000000001,-0.31012,-0.033097,0.003141,0.032646,-47.060001,1.68,-19.25,1b
2019-07-12_140701:840,-0.305054,0.007599,-0.31723,-0.029800999999999998,-0.009646,0.030846,-47.75,1.68,-19.18,1b
2019-07-12_140701:860,-0.317749,-0.001495,-0.330475,-0.025529,-0.019869,0.031243,-47.75,1.68,-19.18,1b
2019-07-12_140701:880,-0.3396,-0.006592,-0.342163,-0.021897,-0.026492,0.03106,-47.75,1.68,-19.18,1b
2019-07-12_140701:900,-0.370636,-0.008118,-0.347748,-0.018846,-0.02756,0.031731,-46.0,3.18,-18.870001000000002,1b
2019-07-12_140701:920,-0.38385,-0.009125,-0.345215,-0.016038,-0.02286,0.033257,-46.0,3.18,-18.870001000000002,1b
2019-07-12_140701:940,-0.389954,-0.0055850000000000006,-0.34063699999999997,-0.014207,-0.014863999999999999,0.033898000000000005,-46.68,4.25,-20.059998999999998,1b
2019-07-12_140701:960,-0.379791,-0.004059,-0.33197,-0.013078,-0.006991,0.033714999999999995,-46.68,4.25,-20.059998999999998,1b
2019-07-12_140701:980,-0.341644,-0.000488,-0.319275,-0.013016999999999999,-0.000307,0.034233,-46.68,4.25,-20.059998999999998,1b
2019-07-12_140702:000,-0.319275,-0.001495,-0.305542,-0.013871000000000001,0.004392,0.036217,-46.369999,5.0,-20.870001000000002,1b
2019-07-12_140702:020,-0.306061,-0.010162000000000001,-0.290802,-0.014939,0.007597,0.037101999999999996,-46.369999,5.0,-20.870001000000002,1b
2019-07-12_140702:040,-0.31012,-0.016266,-0.29232800000000003,-0.015855,0.007444,0.035149,-45.25,5.75,-20.370001000000002,1b
2019-07-12_140702:060,-0.321808,-0.022369,-0.29995700000000003,-0.015916,0.0038729999999999997,0.029778,-45.25,5.75,-20.370001000000002,1b
2019-07-12_140702:080,-0.330475,-0.025908999999999998,-0.300964,-0.014146,8.9e-05,0.021813,-45.25,5.75,-20.370001000000002,1b
2019-07-12_140702:100,-0.358429,-0.027954000000000003,-0.30249000000000004,-0.011003,-0.0025960000000000002,0.012473999999999999,-46.0,7.25,-18.5,1b
2019-07-12_140702:120,-0.36248800000000003,-0.022858,-0.310638,-0.0067,-0.00461,0.0054859999999999996,-46.0,7.25,-18.5,1b
2019-07-12_140702:140,-0.382324,-0.020844,-0.30654899999999996,-0.001206,-0.005372999999999999,0.0021899999999999997,-46.0,8.75,-20.059998999999998,1b
2019-07-12_140702:160,-0.398071,-0.017792,-0.311127,0.003829,-0.005404,0.00161,-46.0,8.75,-20.059998999999998,1b
2019-07-12_140702:180,-0.406738,-0.014221000000000001,-0.309601,0.008956,-0.004122,0.004448,-46.0,8.75,-20.059998999999998,1b
2019-07-12_140702:200,-0.392487,-0.010651,-0.31369,0.013381,-0.0034509999999999996,0.008873,-45.560001,9.5,-19.18,1b
2019-07-12_140702:220,-0.38739,-0.005065999999999999,-0.304535,0.016036,-0.0018030000000000001,0.010491,-45.560001,9.5,-19.18,1b
2019-07-12_140702:240,-0.38028,-0.0025329999999999997,-0.303528,0.016493999999999998,-0.000704,0.01339,-45.560001,9.87,-19.68,1b
2019-07-12_140702:260,-0.384857,-0.004059,-0.300476,0.014968,0.000364,0.018853,-45.560001,9.87,-19.68,1b
2019-07-12_140702:280,-0.374176,-0.012695,-0.296906,0.012862,0.001493,0.022881,-45.560001,9.87,-19.68,1b
2019-07-12_140702:300,-0.37316900000000003,-0.023895,-0.311127,0.010726000000000001,0.0007610000000000001,0.020378,-45.560001,10.18,-18.870001000000002,1b
2019-07-12_140702:320,-0.37011700000000003,-0.027435,-0.312164,0.009353,0.001157,0.015801,-45.560001,10.18,-18.870001000000002,1b
2019-07-12_140702:340,-0.411804,-0.043701,-0.322327,0.008925,0.001829,0.014916,-45.560001,11.68,-18.059998999999998,1b
2019-07-12_140702:360,-0.48095699999999997,-0.046265,-0.386383,0.007461,-0.005312,0.019554,-45.560001,11.68,-18.059998999999998,1b
2019-07-12_140702:380,-0.521637,-0.046265,-0.481476,0.004164999999999999,-0.022829,0.031639,-45.560001,11.68,-18.059998999999998,1b
2019-07-12_140702:400,-0.431641,-0.049316000000000006,-0.43518100000000004,0.000625,-0.028689,0.042656,-45.560001,12.06,-18.5,1b
2019-07-12_140702:420,-0.385864,-0.043213,-0.35739099999999996,-0.005265,-0.009158,0.036095,-45.560001,12.06,-18.5,1b
2019-07-12_140702:440,-0.297913,-0.027435,-0.375702,-0.014543,0.005857,0.032128,-44.5,14.0,-20.059998999999998,1b
2019-07-12_140702:460,-0.22164899999999998,-0.024384,-0.36654699999999996,-0.021348,0.014768,0.040947000000000004,-44.5,14.0,-20.059998999999998,1b
2019-07-12_140702:480,-0.245056,-0.045226999999999996,-0.35131799999999996,-0.029069,0.016935,0.045861,-44.5,14.0,-20.059998999999998,1b
2019-07-12_140702:500,-0.24758899999999998,-0.049316000000000006,-0.353333,-0.036759,0.017422999999999998,0.043052999999999994,-44.060001,15.5,-18.5,1b
2019-07-12_140702:520,-0.235382,-0.045745999999999995,-0.349792,-0.04149,0.015287,0.045586,-44.060001,15.5,-18.5,1b
2019-07-12_140702:540,-0.242493,-0.051330999999999995,-0.374176,-0.045396,0.009183,0.053826,-43.75,16.18,-18.870001000000002,1b
2019-07-12_140702:560,-0.245544,-0.046752999999999996,-0.380798,-0.049455,0.0038729999999999997,0.058251,-43.75,16.18,-18.870001000000002,1b
2019-07-12_140702:580,-0.24706999999999998,-0.030487,-0.401123,-0.055009,-0.0017420000000000003,0.060784000000000005,-43.75,16.18,-18.870001000000002,1b
2019-07-12_140702:600,-0.258759,-0.018799,-0.41384899999999997,-0.061326,-0.006776999999999999,0.065911,-42.560001,18.0,-18.870001000000002,1b
2019-07-12_140702:620,-0.28927600000000003,-0.005065999999999999,-0.433167,-0.07069500000000001,-0.008791,0.072747,-42.560001,18.0,-18.870001000000002,1b
2019-07-12_140702:640,-0.305542,-0.005065999999999999,-0.425018,-0.081315,-0.003939,0.081963,-41.869999,19.870001000000002,-19.68,1b
2019-07-12_140702:660,-0.305542,-0.009644,-0.411804,-0.090989,0.005521,0.091301,-41.869999,19.870001000000002,-19.68,1b
2019-07-12_140702:680,-0.282654,-0.015747,-0.404175,-0.099229,0.015836000000000003,0.097679,-41.869999,19.870001000000002,-19.68,1b
2019-07-12_140702:700,-0.260284,-0.017273,-0.39859,-0.106645,0.022916,0.103997,-40.060001,21.370001000000002,-20.059998999999998,1b
2019-07-12_140702:720,-0.23791500000000002,-0.028961,-0.393005,-0.11308399999999999,0.025724,0.113152,-40.060001,21.370001000000002,-20.059998999999998,1b
2019-07-12_140702:740,-0.223175,-0.040649,-0.39502,-0.118333,0.024778,0.12285599999999999,-38.68,22.870001000000002,-21.559998999999998,1b
2019-07-12_140702:760,-0.209961,-0.057953,-0.402161,-0.123063,0.020078,0.129631,-38.68,22.870001000000002,-21.559998999999998,1b
2019-07-12_140702:780,-0.227264,-0.066589,-0.41586300000000004,-0.12642,0.012754000000000001,0.13225599999999998,-38.68,22.870001000000002,-21.559998999999998,1b
2019-07-12_140702:800,-0.252686,-0.078796,-0.43621800000000005,-0.129807,0.005582,0.132927,-35.68,24.68,-22.75,1b
2019-07-12_140702:820,-0.282654,-0.083862,-0.445862,-0.132524,0.00021099999999999998,0.13326300000000002,-35.68,24.68,-22.75,1b
2019-07-12_140702:840,-0.319794,-0.09301799999999999,-0.45806899999999995,-0.13466,-0.001254,0.133416,-33.060001,26.18,-25.559998999999998,1b
2019-07-12_140702:860,-0.326904,-0.10318,-0.45654300000000003,-0.136125,0.001401,0.132408,-33.060001,26.18,-25.559998999999998,1b
2019-07-12_140702:880,-0.314697,-0.11438,-0.445862,-0.13591099999999998,0.006132,0.129418,-33.060001,26.18,-25.559998999999998,1b
2019-07-12_140702:900,-0.303528,-0.124054,-0.434174,-0.133409,0.010191,0.12319200000000001,-30.059998999999998,26.559998999999998,-28.68,1b
2019-07-12_140702:920,-0.29486100000000004,-0.13269,-0.417908,-0.12935,0.012022,0.114067,-30.059998999999998,26.559998999999998,-28.68,1b
2019-07-12_140702:940,-0.271484,-0.134216,-0.401642,-0.123643,0.012907,0.104119,-26.0,25.870001000000002,-32.25,1b
2019-07-12_140702:960,-0.23486300000000002,-0.134705,-0.384857,-0.11696,0.011625,0.094963,-26.0,25.870001000000002,-32.25,1b
2019-07-12_140702:980,-0.23284899999999997,-0.134705,-0.385376,-0.10978800000000001,0.006712,0.08745599999999999,-26.0,25.870001000000002,-32.25,1b
2019-07-12_140703:000,-0.236389,-0.133179,-0.382812,-0.102677,0.002073,0.080437,-24.18,25.18,-33.5,1b
2019-07-12_140703:020,-0.23590100000000003,-0.128601,-0.382812,-0.096177,-0.00045999999999999996,0.074974,-24.18,25.18,-33.5,1b
2019-07-12_140703:040,-0.23791500000000002,-0.121002,-0.388428,-0.090379,-0.00045999999999999996,0.073326,-22.25,23.25,-35.060001,1b
2019-07-12_140703:060,-0.23028600000000002,-0.10928299999999999,-0.399109,-0.085954,-0.000307,0.07399800000000001,-22.25,23.25,-35.060001,1b
2019-07-12_140703:080,-0.23028600000000002,-0.09963999999999999,-0.40011599999999997,-0.082749,0.002073,0.073143,-22.25,23.25,-35.060001,1b
2019-07-12_140703:100,-0.248596,-0.090485,-0.416382,-0.08162,0.004453,0.06969500000000001,-20.870001000000002,21.5,-36.560001,1b
2019-07-12_140703:120,-0.278107,-0.078796,-0.418915,-0.080491,0.010831,0.06829099999999999,-20.870001000000002,21.5,-36.560001,1b
2019-07-12_140703:140,-0.388916,-0.091003,-0.438751,-0.079698,0.017544999999999998,0.068627,-18.870001000000002,21.0,-38.25,1b
2019-07-12_140703:160,-0.405212,-0.065063,-0.5205989999999999,-0.08162,0.009031,0.075188,-18.870001000000002,21.0,-38.25,1b
2019-07-12_140703:180,-0.39502,-0.044739,-0.421967,-0.079972,0.023771,0.084221,-18.870001000000002,21.0,-38.25,1b
2019-07-12_140703:200,-0.339111,-0.020325,-0.394531,-0.081315,0.034451999999999997,0.07613400000000001,-18.559998999999998,19.5,-39.369999,1b
2019-07-12_140703:220,-0.327911,0.008636,-0.394531,-0.078782,0.042509,0.05407000000000001,-18.559998999999998,19.5,-39.369999,1b
2019-07-12_140703:240,-0.315704,0.067108,-0.411804,-0.074937,0.036588,0.029930000000000002,-17.5,17.25,-39.369999,1b
2019-07-12_140703:260,-0.323334,0.100647,-0.40368699999999996,-0.07219,0.022581,0.018456,-17.5,17.25,-39.369999,1b
2019-07-12_140703:280,-0.326904,0.138275,-0.390961,-0.068833,0.010587000000000001,0.019982,-17.5,17.25,-39.369999,1b
2019-07-12_140703:300,-0.315704,0.161652,-0.385376,-0.067826,0.0032630000000000003,0.02932,-19.0,14.68,-40.68,1b
2019-07-12_140703:320,-0.29284699999999997,0.163177,-0.375214,-0.068772,0.002805,0.050713,-19.0,14.68,-40.68,1b
2019-07-12_140703:340,-0.271484,0.14386,-0.377228,-0.071397,0.001218,0.089806,-18.559998999999998,13.18,-40.68,1b
2019-07-12_140703:360,-0.262848,0.10318,-0.368073,-0.072923,0.00048600000000000005,0.096611,-18.559998999999998,13.18,-40.68,1b
2019-07-12_140703:380,-0.26944,0.077271,-0.359955,-0.076463,0.000944,0.103478,-18.559998999999998,13.18,-40.68,1b
2019-07-12_140703:400,-0.28927600000000003,0.045226999999999996,-0.349792,-0.076249,0.0038729999999999997,0.104332,-17.870001000000002,11.68,-40.68,1b
2019-07-12_140703:420,-0.28875700000000004,0.026427999999999997,-0.34063699999999997,-0.074601,0.007871,0.100884,-17.870001000000002,11.68,-40.68,1b
2019-07-12_140703:440,-0.28369099999999997,0.010162000000000001,-0.335541,-0.072282,0.010191,0.091637,-17.5,10.18,-41.75,1b
2019-07-12_140703:460,-0.274017,0.008118,-0.32995599999999997,-0.069474,0.010313,0.08129199999999999,-17.5,10.18,-41.75,1b
2019-07-12_140703:480,-0.276062,0.0030210000000000002,-0.325897,-0.065446,0.007932,0.074059,-17.5,10.18,-41.75,1b
2019-07-12_140703:500,-0.275543,0.0035399999999999997,-0.325897,-0.060716,0.0054600000000000004,0.06981699999999999,-15.87,9.87,-41.75,1b
2019-07-12_140703:520,-0.284698,0.0025329999999999997,-0.319275,-0.055894000000000006,0.003812,0.06575800000000001,-15.87,9.87,-41.75,1b
2019-07-12_140703:540,-0.285706,0.002014,-0.319275,-0.050644999999999996,0.0034770000000000005,0.061394000000000004,-16.0,7.25,-42.18,1b
2019-07-12_140703:560,-0.301483,0.0030210000000000002,-0.320282,-0.045182,0.002744,0.056480999999999996,-16.0,7.25,-42.18,1b
2019-07-12_140703:580,-0.311127,0.004547,-0.324371,-0.039964,0.0026219999999999998,0.052940999999999995,-16.0,7.25,-42.18,1b
2019-07-12_140703:600,-0.323853,0.0035399999999999997,-0.325378,-0.034562,0.003599,0.049767,-14.75,6.87,-42.68,1b
2019-07-12_140703:620,-0.33758499999999997,0.0055850000000000006,-0.334534,-0.029588,0.004789,0.045067,-14.75,6.87,-42.68,1b
2019-07-12_140703:640,-0.353851,0.008636,-0.33605999999999997,-0.025559000000000002,0.006376,0.041863,-15.18,5.75,-42.560001,1b
2019-07-12_140703:660,-0.37011700000000003,0.012695,-0.3508,-0.022172,0.005521,0.042717000000000005,-15.18,5.75,-42.560001,1b
2019-07-12_140703:680,-0.38739,0.009125,-0.35436999999999996,-0.019456,0.005338,0.045586,-15.18,5.75,-42.560001,1b
2019-07-12_140703:700,-0.381317,0.0030210000000000002,-0.355377,-0.017991,0.006132,0.045464,-15.18,5.75,-42.18,1b
2019-07-12_140703:720,-0.347748,-0.011687999999999999,-0.368591,-0.016984,0.0050030000000000005,0.041802,-15.18,5.75,-42.18,1b
2019-07-12_140703:740,-0.334534,-0.026917,-0.384857,-0.015061000000000001,-0.000124,0.037499,-15.56,5.75,-42.18,1b
2019-07-12_140703:760,-0.446899,-0.053863999999999995,-0.448425,-0.012284,-0.013827,0.035485,-15.56,5.75,-42.18,1b
2019-07-12_140703:780,-0.402161,-0.07016,-0.46926899999999994,-0.008836,-0.016604,0.036095,-15.56,5.75,-42.18,1b
2019-07-12_140703:800,-0.47332799999999997,-0.08743300000000001,-0.46060200000000007,-0.003953,-0.015536000000000001,0.030175,-15.18,5.37,-42.18,1b
2019-07-12_140703:820,-0.398071,-0.09454299999999999,-0.46417200000000003,-0.0008710000000000001,-0.005984000000000001,0.027855,-15.18,5.37,-42.18,1b
2019-07-12_140703:840,-0.290283,-0.09201000000000001,-0.417908,0.0032189999999999996,0.002225,0.029198,-14.06,6.5,-42.68,1b
2019-07-12_140703:860,-0.245544,-0.094055,-0.390961,0.0036149999999999997,0.010587000000000001,0.029533999999999998,-14.06,6.5,-42.68,1b
2019-07-12_140703:880,-0.227753,-0.101685,-0.338074,0.002425,0.020383000000000002,0.028130000000000002,-14.06,6.5,-42.68,1b
2019-07-12_140703:900,-0.270477,-0.10775799999999999,-0.336548,-0.000688,0.020933,0.027336000000000003,-14.06,6.87,-42.68,1b
2019-07-12_140703:920,-0.25216700000000003,-0.124054,-0.369598,-0.0018780000000000001,0.013547,0.024498,-14.06,6.87,-42.68,1b
2019-07-12_140703:940,-0.23284899999999997,-0.13269,-0.353851,-0.0026100000000000003,0.0050030000000000005,0.011925,-14.75,7.68,-43.0,1b
2019-07-12_140703:960,-0.2659,-0.12912,-0.35943600000000003,-0.0049299999999999995,-0.003054,-0.000251,-14.75,7.68,-43.0,1b
2019-07-12_140703:980,-0.28927600000000003,-0.127106,-0.374695,-0.004472,-0.007571,-0.0007700000000000001,-14.75,7.68,-43.0,1b
2019-07-12_140704:000,-0.325378,-0.12658699999999998,-0.384338,-0.003282,-0.011812999999999999,2.3e-05,-14.75,8.37,-41.0,1b
2019-07-12_140704:020,-0.35739099999999996,-0.11795,-0.375702,-0.0028239999999999997,-0.010714,-0.007881,-14.75,8.37,-41.0,1b
2019-07-12_140704:040,-0.369598,-0.086426,-0.358429,-0.003617,-0.00519,-0.015175,-13.68,7.25,-41.369999,1b
2019-07-12_140704:060,-0.361969,-0.069641,-0.34265100000000004,-0.003953,0.001157,-0.013649000000000001,-13.68,7.25,-41.369999,1b
2019-07-12_140704:080,-0.334534,-0.055389,-0.319275,-0.006364,0.005613,-0.008735,-13.68,7.25,-41.369999,1b
2019-07-12_140704:100,-0.29943800000000004,-0.05285599999999999,-0.29742399999999997,-0.010423,0.007840999999999999,-0.00489,-15.18,7.68,-41.75,1b
2019-07-12_140704:120,-0.286224,-0.053375,-0.28927600000000003,-0.014207,0.0064670000000000005,-0.0018989999999999999,-15.18,7.68,-41.75,1b
2019-07-12_140704:140,-0.281647,-0.063538,-0.291321,-0.017197999999999998,0.002866,-0.00043499999999999995,-14.06,7.25,-43.0,1b
2019-07-12_140704:160,-0.276581,-0.067596,-0.293854,-0.019303,-0.0009789999999999998,-0.000923,-14.06,7.25,-43.0,1b
2019-07-12_140704:180,-0.28369099999999997,-0.0737,-0.307587,-0.020829,-0.005647999999999999,-0.0007700000000000001,-14.06,7.25,-43.0,1b
2019-07-12_140704:200,-0.300964,-0.080322,-0.316223,-0.020829,-0.008974,0.0007559999999999999,-15.18,6.56,-42.18,1b
2019-07-12_140704:220,-0.320801,-0.086426,-0.318268,-0.020036,-0.008181,0.0009390000000000001,-15.18,6.56,-42.18,1b
2019-07-12_140704:240,-0.334015,-0.0849,-0.321808,-0.019119999999999998,-0.00461,0.001152,-14.06,6.56,-42.18,1b
2019-07-12_140704:260,-0.352325,-0.07775900000000001,-0.328949,-0.018723,0.000608,0.00396,-14.06,6.56,-42.18,1b
2019-07-12_140704:280,-0.352844,-0.077271,-0.328949,-0.019364,0.00601,0.00869,-14.06,6.56,-42.18,1b
2019-07-12_140704:300,-0.361481,-0.077271,-0.353851,-0.022294,0.0054600000000000004,0.013541999999999998,-14.06,4.75,-42.560001,1b
2019-07-12_140704:320,-0.352844,-0.085388,-0.336548,-0.024217,0.006742000000000001,0.016259,-14.06,4.75,-42.560001,1b
2019-07-12_140704:340,-0.332489,-0.08843999999999999,-0.34875500000000004,-0.026657999999999998,0.005979,0.011528,-15.18,4.75,-41.5,1b
2019-07-12_140704:360,-0.31012,-0.089478,-0.3508,-0.027665,0.005064,0.006554000000000001,-15.18,4.75,-41.5,1b
2019-07-12_140704:380,-0.29486100000000004,-0.078278,-0.352325,-0.026352999999999998,0.005918,0.00277,-15.18,4.75,-41.5,1b
2019-07-12_140704:400,-0.361481,-0.069122,-0.36248800000000003,-0.0262,0.005582,0.0014269999999999999,-14.75,3.0,-41.75,1b
2019-07-12_140704:420,-0.447906,-0.043213,-0.45043900000000003,-0.028123000000000002,-0.0037869999999999996,0.010399,-14.75,3.0,-41.75,1b
2019-07-12_140704:440,-0.490601,-0.056427,-0.394012,-0.027726,0.001401,0.023827,-14.37,3.56,-41.560001,1b
2019-07-12_140704:460,-0.44891400000000004,-0.049805,-0.423492,-0.029862,0.00366,0.018639,-14.37,3.56,-41.560001,1b
2019-07-12_140704:480,-0.441803,-0.023895,-0.433655,-0.032304,0.00485,0.007439,-14.37,3.56,-41.560001,1b
2019-07-12_140704:500,-0.353333,0.0,-0.421967,-0.031785,0.00048600000000000005,0.010491,-14.75,2.56,-41.060001,1b
2019-07-12_140704:520,-0.306061,0.010651,-0.42147799999999996,-0.031663,-0.006594,0.013541999999999998,-14.75,2.56,-41.060001,1b
2019-07-12_140704:540,-0.305054,0.022369,-0.399109,-0.033097,-0.009890000000000001,0.011193,-15.18,1.5,-41.869999,1b
2019-07-12_140704:560,-0.319794,0.034058,-0.37011700000000003,-0.032304,-0.003664,0.009941,-15.18,1.5,-41.869999,1b
2019-07-12_140704:580,-0.34570300000000004,0.040161,-0.335022,-0.031266,0.009122,0.010062999999999999,-15.18,1.5,-41.869999,1b
2019-07-12_140704:600,-0.318268,0.048279,-0.341644,-0.031907,0.015165000000000001,0.013146000000000001,-15.18,0.0,-42.75,1b
2019-07-12_140704:620,-0.277588,0.043213,-0.32486,-0.030381000000000002,0.014555000000000002,0.018639,-15.18,0.0,-42.75,1b
2019-07-12_140704:640,-0.270477,0.036591000000000005,-0.319275,-0.02852,0.008634000000000001,0.018639,-14.37,-0.37,-42.68,1b
2019-07-12_140704:660,-0.269958,0.033539,-0.327423,-0.026933,0.0007,0.015068000000000002,-14.37,-0.37,-42.68,1b
2019-07-12_140704:680,-0.267914,0.032532,-0.330475,-0.023759,-0.007571,0.017449,-14.37,-0.37,-42.68,1b
2019-07-12_140704:700,-0.275543,0.027435,-0.332489,-0.021165,-0.013888,0.023216999999999998,-15.87,-1.18,-43.060001,1b
2019-07-12_140704:720,-0.30249000000000004,0.024384,-0.333496,-0.020432,-0.016818,0.025536,-15.87,-1.18,-43.060001,1b
2019-07-12_140704:740,-0.337067,0.020844,-0.332489,-0.020768000000000002,-0.014741999999999998,0.027123,-15.87,-1.5,-41.869999,1b
2019-07-12_140704:760,-0.35791,0.017792,-0.327911,-0.020829,-0.009158,0.029381,-15.87,-1.5,-41.869999,1b
2019-07-12_140704:780,-0.354858,0.013213999999999998,-0.319275,-0.02144,-0.001437,0.029869,-15.87,-1.5,-41.869999,1b
2019-07-12_140704:800,-0.34063699999999997,0.011687999999999999,-0.313171,-0.022172,0.004484,0.029778,-14.75,-1.5,-41.060001,1b
2019-07-12_140704:820,-0.322845,0.007111,-0.312164,-0.022569,0.006406,0.0317,-14.75,-1.5,-41.060001,1b
2019-07-12_140704:840,-0.318756,-0.002014,-0.309601,-0.02263,0.004545,0.03344,-15.18,-1.87,-41.060001,1b
2019-07-12_140704:860,-0.339111,-0.011169,-0.31012,-0.022416,0.0014320000000000001,0.031853,-15.18,-1.87,-41.060001,1b
2019-07-12_140704:880,-0.346222,-0.013702,-0.310638,-0.021103999999999998,-0.00036899999999999997,0.028526999999999997,-15.18,-1.87,-41.060001,1b
2019-07-12_140704:900,-0.36044299999999996,-0.017273,-0.308594,-0.019119999999999998,-0.001101,0.024681,-15.87,-2.25,-41.060001,1b
2019-07-12_140704:920,-0.379272,-0.019806,-0.307068,-0.016313,0.00015,0.020347999999999998,-15.87,-2.25,-41.060001,1b
2019-07-12_140704:940,-0.40570100000000003,-0.019318000000000002,-0.29943800000000004,-0.012589,0.003721,0.016166999999999997,-15.56,-3.0,-41.869999,1b
2019-07-12_140704:960,-0.36654699999999996,-0.013702,-0.29284699999999997,-0.008286,0.007719,0.013207,-15.56,-3.0,-41.869999,1b
2019-07-12_140704:980,-0.333496,-0.002014,-0.290802,-0.004533,0.008634000000000001,0.010796,-15.56,-3.0,-41.869999,1b
2019-07-12_140705:000,-0.304016,0.004547,-0.315216,-0.002275,0.0032630000000000003,0.011742,-15.56,-2.25,-42.75,1b
2019-07-12_140705:020,-0.29486100000000004,0.0,-0.318756,0.0008380000000000001,-0.0025960000000000002,0.014458000000000002,-15.56,-2.25,-42.75,1b
2019-07-12_140705:040,-0.29232800000000003,-0.006592,-0.33605999999999997,0.002639,-0.006899,0.014183000000000001,-16.559998999999998,-3.0,-42.75,1b
2019-07-12_140705:060,-0.416382,-0.030487,-0.374695,0.004745,-0.008912999999999999,0.010735,-16.559998999999998,-3.0,-42.75,1b
2019-07-12_140705:080,-0.423492,-0.029480000000000003,-0.5109560000000001,0.004287,-0.024691,0.010613,-16.559998999999998,-3.0,-42.75,1b
2019-07-12_140705:100,-0.509918,-0.066589,-0.506378,0.008468,-0.030825,0.014122,-16.559998999999998,-1.87,-41.869999,1b
2019-07-12_140705:120,-0.44232200000000005,-0.077271,-0.556213,0.010116,-0.033663,0.010277,-16.559998999999998,-1.87,-41.869999,1b
2019-07-12_140705:140,-0.39859,-0.0737,-0.516541,0.013595,-0.021792,0.002709,-14.37,-2.25,-42.25,1b
2019-07-12_140705:160,-0.35791,-0.064545,-0.48095699999999997,0.012527,-0.006991,0.007897,-14.37,-2.25,-42.25,1b
2019-07-12_140705:180,-0.280121,-0.067596,-0.411285,0.011001,0.011961,0.023369,-14.37,-2.25,-42.25,1b
2019-07-12_140705:200,-0.25317399999999995,-0.082336,-0.35131799999999996,0.007155,0.031339,0.028312999999999998,-14.37,-1.18,-43.060001,1b
2019-07-12_140705:220,-0.22879000000000002,-0.089478,-0.333496,0.0018449999999999999,0.037656,0.020347999999999998,-14.37,-1.18,-43.060001,1b
2019-07-12_140705:240,-0.20285,-0.09201000000000001,-0.33758499999999997,-0.001267,0.029874,0.015526,-14.75,0.0,-42.25,1b
2019-07-12_140705:260,-0.210968,-0.108276,-0.319275,-0.002427,0.016233,0.012993000000000001,-14.75,0.0,-42.25,1b
2019-07-12_140705:280,-0.24353000000000002,-0.114899,-0.324371,-0.00554,0.003355,0.008416,-14.75,0.0,-42.25,1b
2019-07-12_140705:300,-0.28418000000000004,-0.11691300000000002,-0.335022,-0.007431999999999999,-0.004519,0.00689,-16.559998999999998,0.25,-42.25,1b
2019-07-12_140705:320,-0.307068,-0.11795,-0.34368899999999997,-0.008012,-0.009309999999999999,0.006554000000000001,-16.559998999999998,0.25,-42.25,1b
2019-07-12_140705:340,-0.36911,-0.10775799999999999,-0.352325,-0.008805,-0.010043,-0.001777,-16.870001000000002,1.5,-41.060001,1b
2019-07-12_140705:360,-0.398071,-0.09201000000000001,-0.3508,-0.010484,-0.007906,-0.011268,-16.870001000000002,1.5,-41.060001,1b
2019-07-12_140705:380,-0.395538,-0.074738,-0.33605999999999997,-0.012193,-0.004519,-0.012336,-16.870001000000002,1.5,-41.060001,1b
2019-07-12_140705:400,-0.379272,-0.068115,-0.320282,-0.01381,-0.0009789999999999998,-0.009009999999999999,-16.559998999999998,0.68,-40.75,1b
2019-07-12_140705:420,-0.341644,-0.065582,-0.295898,-0.016801,0.002073,-0.005958,-16.559998999999998,0.68,-40.75,1b
2019-07-12_140705:440,-0.31369,-0.066589,-0.286224,-0.018632,0.003355,-0.002113,-17.0,0.68,-41.869999,1b
2019-07-12_140705:460,-0.28674299999999997,-0.072174,-0.277069,-0.019242,0.001401,-0.000709,-17.0,0.68,-41.869999,1b
2019-07-12_140705:480,-0.277588,-0.070648,-0.279114,-0.019029,-0.0027489999999999997,-0.0037,-17.0,0.68,-41.869999,1b
2019-07-12_140705:500,-0.275055,-0.068115,-0.285706,-0.018632,-0.008059,-0.005684000000000001,-17.0,-0.37,-41.060001,1b
2019-07-12_140705:520,-0.29284699999999997,-0.068634,-0.29284699999999997,-0.016923,-0.012484,-0.003639,-17.0,-0.37,-41.060001,1b
2019-07-12_140705:540,-0.308075,-0.068634,-0.29895,-0.015580000000000002,-0.014956,-0.002845,-17.0,0.0,-41.869999,1b
2019-07-12_140705:560,-0.32132,-0.065582,-0.303528,-0.015061000000000001,-0.014284999999999999,-0.002357,-17.0,0.0,-41.869999,1b
2019-07-12_140705:580,-0.333496,-0.066589,-0.315216,-0.015336,-0.012301000000000001,0.00103,-17.0,0.0,-41.869999,1b
2019-07-12_140705:600,-0.34875500000000004,-0.0737,-0.330475,-0.016191,-0.011172,0.005822,-15.87,-1.18,-42.75,1b
2019-07-12_140705:620,-0.369598,-0.07928500000000001,-0.33605999999999997,-0.017716,-0.008303,0.006768000000000001,-15.87,-1.18,-42.75,1b
2019-07-12_140705:640,-0.36044299999999996,-0.084381,-0.361969,-0.020219,-0.008059,0.005913,-15.56,-1.18,-42.25,1b
2019-07-12_140705:660,-0.34265100000000004,-0.09201000000000001,-0.356903,-0.02089,-0.005068,0.0037770000000000004,-15.56,-1.18,-42.25,1b
2019-07-12_140705:680,-0.36554000000000003,-0.096069,-0.370636,-0.021836,-0.003939,-0.001777,-15.56,-1.18,-42.25,1b
2019-07-12_140705:700,-0.358429,-0.09353600000000001,-0.379272,-0.021745,-0.0025960000000000002,-0.005409000000000001,-15.18,-1.5,-42.25,1b
2019-07-12_140705:720,-0.353851,-0.087952,-0.371643,-0.019913999999999998,0.0014320000000000001,-0.006569,-15.18,-1.5,-42.25,1b
2019-07-12_140705:740,-0.359955,-0.0737,-0.388428,-0.019517,0.0030800000000000003,-0.008948999999999999,-15.18,-3.0,-41.560001,1b
2019-07-12_140705:760,-0.441284,-0.055908000000000006,-0.434692,-0.020219,0.0017980000000000001,-0.008064,-15.18,-3.0,-41.560001,1b
2019-07-12_140705:780,-0.45605500000000004,-0.051330999999999995,-0.48043800000000003,-0.021562,-0.009097,-0.0021739999999999997,-15.18,-3.0,-41.560001,1b
2019-07-12_140705:800,-0.45806899999999995,-0.039642000000000004,-0.470276,-0.021745,-0.009585,0.000145,-15.18,-3.0,-41.869999,1b
2019-07-12_140705:820,-0.447388,-0.025421,-0.46670500000000004,-0.024156,-0.009554,-0.0037,-15.18,-3.0,-41.869999,1b
2019-07-12_140705:840,-0.332489,0.006072999999999999,-0.433167,-0.02443,-0.004855,-0.00727,-15.18,-4.5,-41.060001,1b
2019-07-12_140705:860,-0.279114,0.014221000000000001,-0.393494,-0.024552,0.0032020000000000004,-0.011512,-15.18,-4.5,-41.060001,1b
2019-07-12_140705:880,-0.255707,0.038116000000000004,-0.35436999999999996,-0.023637000000000002,0.011167,-0.019233,-15.18,-4.5,-41.060001,1b
2019-07-12_140705:900,-0.276062,0.051330999999999995,-0.326385,-0.022752,0.021513,-0.022407,-14.06,-4.5,-40.75,1b
2019-07-12_140705:920,-0.25012199999999996,0.066589,-0.338593,-0.021043,0.024656,-0.01371,-14.06,-4.5,-40.75,1b
2019-07-12_140705:940,-0.242004,0.06253099999999999,-0.332489,-0.020249,0.019681999999999998,0.00103,-15.56,-6.37,-41.560001,1b
2019-07-12_140705:960,-0.249115,0.049805,-0.327423,-0.019639,0.012357,0.010551999999999999,-15.56,-6.37,-41.560001,1b
2019-07-12_140705:980,-0.276062,0.043701,-0.34265100000000004,-0.019364,0.004331000000000001,0.015587,-15.56,-6.37,-41.560001,1b
2019-07-12_140706:000,-0.308075,0.023895,-0.363007,-0.017044999999999998,-0.003878,0.021416,-15.87,-7.5,-41.060001,1b
2019-07-12_140706:020,-0.315216,0.012695,-0.370636,-0.015275,-0.012759,0.025657999999999997,-15.87,-7.5,-41.060001,1b
2019-07-12_140706:040,-0.353851,-0.001495,-0.37011700000000003,-0.014543,-0.019412000000000002,0.027855,-16.559998999999998,-7.06,-39.560001,1b
2019-07-12_140706:060,-0.375214,-0.013213999999999998,-0.365021,-0.013016999999999999,-0.020205,0.029258999999999997,-16.559998999999998,-7.06,-39.560001,1b
2019-07-12_140706:080,-0.375214,-0.020325,-0.345215,-0.011337999999999999,-0.013674,0.02752,-16.559998999999998,-7.06,-39.560001,1b
2019-07-12_140706:100,-0.355377,-0.019806,-0.335541,-0.010728,-0.005647999999999999,0.022941999999999997,-15.87,-7.06,-39.560001,1b
2019-07-12_140706:120,-0.321808,-0.015228,-0.31723,-0.009812000000000001,0.00021099999999999998,0.019249000000000002,-15.87,-7.06,-39.560001,1b
2019-07-12_140706:140,-0.29895,-0.013702,-0.308075,-0.009751000000000001,0.003141,0.018241999999999998,-16.25,-7.06,-40.75,1b
2019-07-12_140706:160,-0.282166,-0.017273,-0.29538000000000003,-0.009812000000000001,0.0026829999999999996,0.018914,-16.25,-7.06,-40.75,1b
2019-07-12_140706:180,-0.28775,-0.022369,-0.29486100000000004,-0.009873,0.000547,0.019097,-16.25,-7.06,-40.75,1b
2019-07-12_140706:200,-0.29232800000000003,-0.024902,-0.29486100000000004,-0.009294,-0.001437,0.016503,-16.559998999999998,-7.18,-40.369999,1b
2019-07-12_140706:220,-0.309113,-0.028961,-0.29538000000000003,-0.007890000000000001,-0.002261,0.012383,-16.559998999999998,-7.18,-40.369999,1b
2019-07-12_140706:240,-0.312653,-0.028442000000000002,-0.296387,-0.005906000000000001,-0.0016809999999999998,0.008934000000000001,-17.0,-6.75,-41.5,1b
2019-07-12_140706:260,-0.328949,-0.022369,-0.298431,-0.003068,-0.000124,0.006035,-17.0,-6.75,-41.5,1b
2019-07-12_140706:280,-0.361969,-0.013702,-0.307587,-7.7e-05,0.0010960000000000002,0.0016710000000000002,-17.0,-6.75,-41.5,1b
2019-07-12_140706:300,-0.36911,-0.010162000000000001,-0.314178,0.0032189999999999996,0.001829,-0.002693,-15.87,-7.18,-41.060001,1b
2019-07-12_140706:320,-0.36554000000000003,0.004059,-0.325897,0.006301,0.000669,-0.004432,-15.87,-7.18,-41.060001,1b
2019-07-12_140706:340,-0.366058,0.007599,-0.335022,0.008681,-0.0016809999999999998,-0.00251,-17.370001000000002,-6.0,-40.25,1b
2019-07-12_140706:360,-0.36706500000000003,0.013213999999999998,-0.352844,0.009475,-0.003542,0.00396,-17.370001000000002,-6.0,-40.25,1b
2019-07-12_140706:380,-0.36654699999999996,0.010651,-0.36554000000000003,0.00981,-0.004061,0.010735,-17.370001000000002,-6.0,-40.25,1b
2019-07-12_140706:400,-0.34317,-0.005065999999999999,-0.38739,0.008529,-0.003542,0.011742,-17.0,-6.75,-40.75,1b
2019-07-12_140706:420,-0.399109,-0.023375999999999997,-0.40011599999999997,0.007064,-0.007051999999999999,0.00869,-17.0,-6.75,-40.75,1b
2019-07-12_140706:440,-0.445374,-0.040649,-0.529266,0.006667,-0.018801,0.00927,-17.0,-5.25,-40.25,1b
2019-07-12_140706:460,-0.44891400000000004,-0.056915,-0.496216,0.011519,-0.014956,0.0034409999999999996,-17.0,-5.25,-40.25,1b
2019-07-12_140706:480,-0.42858900000000005,-0.071686,-0.5119630000000001,0.012251999999999999,-0.010957999999999999,-0.006874,-17.0,-5.25,-40.25,1b
2019-07-12_140706:500,-0.427063,-0.071167,-0.492126,0.014662999999999999,-0.000124,-0.003578,-15.87,-3.75,-41.060001,1b
2019-07-12_140706:520,-0.249115,-0.072693,-0.423004,0.014327000000000001,0.012449,0.011223,-15.87,-3.75,-41.060001,1b
2019-07-12_140706:540,-0.252686,-0.076752,-0.390442,0.010665000000000001,0.025297,0.023003,-16.25,-3.75,-40.75,1b
2019-07-12_140706:560,-0.298431,-0.09454299999999999,-0.358429,0.006209,0.030363,0.02932,-16.25,-3.75,-40.75,1b
2019-07-12_140706:580,-0.257751,-0.109802,-0.36554000000000003,0.004439,0.025297,0.027732999999999997,-16.25,-3.75,-40.75,1b
2019-07-12_140706:600,-0.204376,-0.12912,-0.33758499999999997,0.002303,0.016141,0.017968,-17.0,-3.06,-40.369999,1b
2019-07-12_140706:620,-0.21505700000000003,-0.135223,-0.330963,-0.000169,0.006864,0.008812,-17.0,-3.06,-40.369999,1b
2019-07-12_140706:640,-0.260284,-0.138794,-0.339111,-0.00022999999999999998,0.0007610000000000001,0.0029219999999999997,-17.75,-2.37,-41.060001,1b
2019-07-12_140706:660,-0.28979499999999997,-0.138275,-0.346222,0.000655,-0.004183,-0.00727,-17.75,-2.37,-41.060001,1b
2019-07-12_140706:680,-0.333496,-0.127594,-0.347748,0.0021809999999999998,-0.0069299999999999995,-0.023413999999999997,-17.75,-2.37,-41.060001,1b
2019-07-12_140706:700,-0.353333,-0.104706,-0.347229,0.0027,-0.006197,-0.035956999999999996,-18.5,-2.0,-40.75,1b
2019-07-12_140706:720,-0.34317,-0.07016,-0.330963,0.002822,-0.004275,-0.038429000000000005,-18.5,-2.0,-40.75,1b
2019-07-12_140706:740,-0.33197,-0.051330999999999995,-0.321808,0.000625,-0.0024129999999999998,-0.034095,-18.059998999999998,-2.75,-40.25,1b
2019-07-12_140706:760,-0.325897,-0.038635,-0.301483,-0.002427,-0.001101,-0.025612,-18.059998999999998,-2.75,-40.25,1b
2019-07-12_140706:780,-0.320801,-0.035065,-0.290802,-0.005204,-3.3e-05,-0.017708,-18.059998999999998,-2.75,-40.25,1b
2019-07-12_140706:800,-0.308594,-0.037108999999999996,-0.283173,-0.007829000000000001,-0.0009789999999999998,-0.015175,-18.059998999999998,-2.0,-40.75,1b
2019-07-12_140706:820,-0.29995700000000003,-0.040161,-0.278595,-0.010209000000000001,-0.0025960000000000002,-0.014778,-18.059998999999998,-2.0,-40.75,1b
2019-07-12_140706:840,-0.28979499999999997,-0.040649,-0.278595,-0.011399,-0.005526,-0.012458,-18.059998999999998,-2.75,-40.75,1b
2019-07-12_140706:860,-0.28775,-0.045745999999999995,-0.282654,-0.011734999999999999,-0.008456,-0.010139,-18.059998999999998,-2.75,-40.75,1b
2019-07-12_140706:880,-0.305054,-0.052338,-0.29180900000000004,-0.011734999999999999,-0.009097,-0.009590000000000001,-18.059998999999998,-2.75,-40.75,1b
2019-07-12_140706:900,-0.31369,-0.053863999999999995,-0.295898,-0.011491,-0.007266,-0.008003,-18.5,-3.75,-41.060001,1b
2019-07-12_140706:920,-0.326385,-0.055389,-0.304016,-0.012284,-0.005251,-0.0038829999999999997,-18.5,-3.75,-41.060001,1b
2019-07-12_140706:940,-0.34317,-0.055389,-0.316742,-0.01378,-0.003268,0.0019149999999999998,-18.059998999999998,-4.18,-41.060001,1b
2019-07-12_140706:960,-0.36044299999999996,-0.057434000000000006,-0.325897,-0.016313,-0.003481,0.007561,-18.059998999999998,-4.18,-41.060001,1b
2019-07-12_140706:980,-0.383331,-0.058960000000000005,-0.347229,-0.019119999999999998,-0.004794,0.011009999999999999,-18.059998999999998,-4.18,-41.060001,1b
2019-07-12_140707:000,-0.369598,-0.07016,-0.35791,-0.020950999999999997,-0.005068,0.008355,-17.370001000000002,-4.5,-41.060001,1b
2019-07-12_140707:020,-0.377228,-0.071167,-0.355896,-0.02324,-0.00461,0.003258,-17.370001000000002,-4.5,-41.060001,1b
2019-07-12_140707:040,-0.360962,-0.069122,-0.367584,-0.024095,-0.002078,0.0017929999999999999,-17.370001000000002,-4.87,-41.869999,1b
2019-07-12_140707:060,-0.321808,-0.058441,-0.365021,-0.025529,-0.003848,0.0021899999999999997,-17.370001000000002,-4.87,-41.869999,1b
2019-07-12_140707:080,-0.393005,-0.044219999999999995,-0.393494,-0.027879,-0.015994,0.004357,-17.370001000000002,-4.87,-41.869999,1b
2019-07-12_140707:100,-0.439758,-0.016753999999999998,-0.48654200000000003,-0.029526999999999998,-0.023837,0.007622,-17.370001000000002,-6.0,-41.060001,1b
2019-07-12_140707:120,-0.5058590000000001,-0.007599,-0.43011499999999997,-0.032365,-0.019778,0.015374,-17.370001000000002,-6.0,-41.060001,1b
2019-07-12_140707:140,-0.433167,0.009125,-0.461121,-0.034837,-0.017397,0.015801,-16.25,-7.06,-42.25,1b
2019-07-12_140707:160,-0.358429,0.023895,-0.445862,-0.037492000000000004,-0.007906,0.015465000000000001,-16.25,-7.06,-42.25,1b
2019-07-12_140707:180,-0.276581,0.027435,-0.423492,-0.036973,-0.002322,0.012596,-16.25,-7.06,-42.25,1b
2019-07-12_140707:200,-0.241486,0.032013,-0.365021,-0.035752,0.006314999999999999,0.006615,-16.559998999999998,-8.18,-41.869999,1b
2019-07-12_140707:220,-0.25216700000000003,0.03302,-0.338593,-0.033372000000000006,0.014158,0.007286,-16.559998999999998,-8.18,-41.869999,1b
2019-07-12_140707:240,-0.240479,0.043213,-0.353851,-0.032395,0.013578,0.011803,-16.559998999999998,-9.68,-41.68,1b
2019-07-12_140707:260,-0.21810900000000003,0.035065,-0.364532,-0.026811,0.002012,0.025657999999999997,-16.559998999999998,-9.68,-41.68,1b
2019-07-12_140707:280,-0.250641,0.011687999999999999,-0.361481,-0.022965,-0.005801,0.022147999999999998,-16.559998999999998,-9.68,-41.68,1b
2019-07-12_140707:300,-0.28979499999999997,0.006592,-0.37265,-0.021226,-0.008181,0.019554,-16.559998999999998,-10.0,-40.869999,1b
2019-07-12_140707:320,-0.33758499999999997,-0.002014,-0.385376,-0.012193,-0.013552000000000002,0.022759,-16.559998999999998,-10.0,-40.869999,1b
2019-07-12_140707:340,-0.355896,-0.011169,-0.404175,-0.009477,-0.015016999999999999,0.024742,-18.059998999999998,-10.37,-40.869999,1b
2019-07-12_140707:360,-0.36349499999999996,-0.023375999999999997,-0.401642,-0.004594,-0.013430000000000001,0.024742,-18.059998999999998,-10.37,-40.869999,1b
2019-07-12_140707:380,-0.368073,-0.024902,-0.392487,-0.0022129999999999997,-0.0071129999999999995,0.024406999999999998,-18.059998999999998,-10.37,-40.869999,1b
2019-07-12_140707:400,-0.350281,-0.026917,-0.37011700000000003,-0.000962,-0.003329,0.024071000000000002,-17.75,-10.37,-40.369999,1b
2019-07-12_140707:420,-0.332489,-0.024384,-0.346222,-0.000566,0.005521,0.019982,-17.75,-10.37,-40.369999,1b
2019-07-12_140707:440,-0.306061,-0.021851,-0.322845,-0.000901,0.007597,0.019249000000000002,-17.75,-9.68,-40.869999,1b
2019-07-12_140707:460,-0.284698,-0.024384,-0.309601,-0.002152,0.007719,0.021416,-17.75,-9.68,-40.869999,1b
2019-07-12_140707:480,-0.282654,-0.031494,-0.29995700000000003,-0.003617,0.0057350000000000005,0.020836,-17.75,-9.68,-40.869999,1b
2019-07-12_140707:500,-0.286224,-0.038116000000000004,-0.294373,-0.004136,0.00485,0.020104,-18.870001000000002,-9.68,-41.18,1b
2019-07-12_140707:520,-0.293335,-0.044219999999999995,-0.28979499999999997,-0.004533,0.002225,0.017571,-18.870001000000002,-9.68,-41.18,1b
2019-07-12_140707:540,-0.305542,-0.048279,-0.294373,-0.004197,0.001401,0.01577,-18.870001000000002,-9.68,-41.18,1b
2019-07-12_140707:560,-0.328949,-0.051849,-0.295898,-0.002671,0.0010960000000000002,0.008873,-18.870001000000002,-9.0,-39.68,1b
2019-07-12_140707:580,-0.333496,-0.051849,-0.29742399999999997,-0.000291,0.0030800000000000003,0.004692,-18.870001000000002,-9.0,-39.68,1b
2019-07-12_140707:600,-0.355896,-0.050842,-0.300964,0.0008990000000000001,0.004392,0.002434,-20.370001000000002,-9.0,-40.0,1b
2019-07-12_140707:620,-0.368591,-0.048279,-0.311127,0.0053549999999999995,0.0032020000000000004,-0.004371,-20.370001000000002,-9.0,-40.0,1b
2019-07-12_140707:640,-0.361481,-0.041168,-0.326904,0.006881,0.002134,-0.005745,-20.370001000000002,-9.0,-40.0,1b
2019-07-12_140707:660,-0.368591,-0.034058,-0.330963,0.01039,-0.00281,-0.00251,-19.559998999999998,-9.0,-41.18,1b
2019-07-12_140707:680,-0.352844,-0.030487,-0.346222,0.01158,-0.004,0.000359,-19.559998999999998,-9.0,-41.18,1b
2019-07-12_140707:700,-0.34063699999999997,-0.028961,-0.348267,0.013441999999999999,-0.004183,0.0033799999999999998,-19.559998999999998,-9.0,-39.68,1b
2019-07-12_140707:720,-0.34063699999999997,-0.035583,-0.349274,0.013045,-0.002993,0.0037159999999999997,-19.559998999999998,-9.0,-39.68,1b
2019-07-12_140707:740,-0.394531,-0.05996699999999999,-0.369598,0.013595,-0.0009789999999999998,0.0023120000000000003,-19.25,-8.25,-40.0,1b
2019-07-12_140707:760,-0.42758199999999996,-0.06149299999999999,-0.443329,0.013838999999999999,-0.008578,0.000695,-19.25,-8.25,-40.0,1b
2019-07-12_140707:780,-0.467743,-0.09201000000000001,-0.420441,0.018294,-0.012972,-0.001045,-19.25,-8.25,-40.0,1b
2019-07-12_140707:800,-0.434174,-0.099121,-0.490601,0.019209999999999998,-0.016421,-0.002754,-20.0,-7.56,-40.869999,1b
2019-07-12_140707:820,-0.42147799999999996,-0.108276,-0.46569799999999995,0.027327999999999998,-0.01105,-0.010536,-20.0,-7.56,-40.869999,1b
2019-07-12_140707:840,-0.386902,-0.097595,-0.460114,0.028579000000000004,-0.009921,-0.010353,-20.0,-7.56,-40.869999,1b
2019-07-12_140707:860,-0.350281,-0.09201000000000001,-0.41485600000000006,0.028395999999999998,0.001493,0.004113,-18.870001000000002,-7.18,-40.0,1b
2019-07-12_140707:880,-0.309601,-0.09353600000000001,-0.368073,0.026808999999999996,0.00839,0.008416,-18.870001000000002,-7.18,-40.0,1b
2019-07-12_140707:900,-0.24453699999999998,-0.105225,-0.305542,0.021682,0.023527,0.008629000000000001,-18.0,-5.25,-41.18,1b
2019-07-12_140707:920,-0.242004,-0.115906,-0.293854,0.015761,0.031797000000000006,0.000481,-18.0,-5.25,-41.18,1b
2019-07-12_140707:940,-0.217072,-0.12301600000000001,-0.319794,0.011001,0.026577999999999997,-0.005439,-19.870001000000002,-4.56,-42.0,1b
2019-07-12_140707:960,-0.195221,-0.133179,-0.31369,0.008223999999999999,0.014158,-0.0056229999999999995,-19.870001000000002,-4.56,-42.0,1b
2019-07-12_140707:980,-0.233856,-0.14843800000000001,-0.31723,0.004164999999999999,-0.008303,-0.0084,-19.870001000000002,-4.56,-42.0,1b
2019-07-12_140708:000,-0.269958,-0.152008,-0.328949,0.003036,-0.012972,-0.009590000000000001,-20.25,-3.75,-40.5,1b
2019-07-12_140708:020,-0.30654899999999996,-0.154541,-0.34317,0.0031579999999999998,-0.021182,-0.016761,-20.25,-3.75,-40.5,1b
2019-07-12_140708:040,-0.338593,-0.147949,-0.35739099999999996,0.00331,-0.022646,-0.023079,-20.25,-3.75,-40.5,1b
2019-07-12_140708:060,-0.37011700000000003,-0.113373,-0.37112399999999995,0.0033710000000000003,-0.023653,-0.036689,-20.68,-4.18,-40.869999,1b
2019-07-12_140708:080,-0.37265,-0.09454299999999999,-0.368073,0.003036,-0.02112,-0.04087,-20.68,-4.18,-40.869999,1b
2019-07-12_140708:100,-0.359955,-0.076263,-0.347748,0.0018449999999999999,-0.016329,-0.036964,-19.870001000000002,-3.5,-40.25,1b
2019-07-12_140708:120,-0.34368899999999997,-0.068115,-0.331482,-0.001939,-0.009768,-0.030983,-19.870001000000002,-3.5,-40.25,1b
2019-07-12_140708:140,-0.315216,-0.066589,-0.315216,-0.005448,-0.004855,-0.024543000000000002,-19.870001000000002,-3.5,-40.25,1b
2019-07-12_140708:160,-0.29742399999999997,-0.071686,-0.309601,-0.008073,-0.0024739999999999996,-0.022285,-18.75,-5.0,-40.869999,1b
2019-07-12_140708:180,-0.28369099999999997,-0.071686,-0.300964,-0.009873,-0.002718,-0.025398,-18.75,-5.0,-40.869999,1b
2019-07-12_140708:200,-0.286224,-0.070648,-0.30300900000000003,-0.009934,-0.004519,-0.026405,-18.370001000000002,-4.87,-41.5,1b
2019-07-12_140708:220,-0.300964,-0.070648,-0.303528,-0.008805,-0.006442,-0.023811000000000002,-18.370001000000002,-4.87,-41.5,1b
2019-07-12_140708:240,-0.305542,-0.068634,-0.303528,-0.007829000000000001,-0.005587,-0.02256,-18.370001000000002,-4.87,-41.5,1b
2019-07-12_140708:260,-0.314697,-0.06149299999999999,-0.306061,-0.0072180000000000005,-0.0037869999999999996,-0.021034,-18.0,-6.68,-40.75,1b
2019-07-12_140708:280,-0.323853,-0.056915,-0.308075,-0.006883,-0.001315,-0.016243,-18.0,-6.68,-40.75,1b
2019-07-12_140708:300,-0.330475,-0.056427,-0.321808,-0.007768000000000001,0.000425,-0.010719,-17.75,-6.37,-39.869999,1b
2019-07-12_140708:320,-0.353851,-0.055908000000000006,-0.32486,-0.009934,0.000822,-0.0056229999999999995,-17.75,-6.37,-39.869999,1b
2019-07-12_140708:340,-0.38385,-0.059479,-0.338074,-0.013383,8.9e-05,0.000481,-18.059998999999998,-7.5,-40.369999,1b
2019-07-12_140708:360,-0.383331,-0.059479,-0.33605999999999997,-0.014512,0.001157,0.000481,-18.059998999999998,-7.5,-40.369999,1b
2019-07-12_140708:380,-0.35638400000000003,-0.058441,-0.341125,-0.017166999999999998,0.002286,-0.0020210000000000002,-18.059998999999998,-7.5,-40.369999,1b
2019-07-12_140708:400,-0.315216,-0.05438200000000001,-0.34368899999999997,-0.018846,0.003324,-0.003761,-18.059998999999998,-6.68,-40.869999,1b
2019-07-12_140708:420,-0.300964,-0.043701,-0.35943600000000003,-0.019578,0.0018899999999999998,-0.003029,-18.059998999999998,-6.68,-40.869999,1b
2019-07-12_140708:440,-0.317749,-0.039124,-0.37112399999999995,-0.021287,0.0007,-0.000923,-18.059998999999998,-6.68,-40.869999,1b
2019-07-12_140708:460,-0.47689799999999993,-0.032013,-0.409271,-0.023301,-0.000582,0.0017929999999999999,-17.75,-7.87,-39.560001,1b
2019-07-12_140708:480,-0.47079499999999996,-0.021851,-0.482483,-0.027818,-0.011111,0.010277,-17.75,-7.87,-39.560001,1b
2019-07-12_140708:500,-0.467224,-0.032013,-0.46060200000000007,-0.028794,-0.010561,0.019249000000000002,-18.059998999999998,-9.0,-39.25,1b
2019-07-12_140708:520,-0.441803,-0.035065,-0.46417200000000003,-0.031785,-0.011843000000000001,0.016991,-18.059998999999998,-9.0,-39.25,1b
2019-07-12_140708:540,-0.348267,-0.017273,-0.446899,-0.031266,-0.008303,0.009331,-18.059998999999998,-9.0,-39.25,1b
2019-07-12_140708:560,-0.320282,-0.017273,-0.416901,-0.029344,-0.003939,0.005822,-17.370001000000002,-8.87,-38.5,1b
2019-07-12_140708:580,-0.28875700000000004,-0.010651,-0.36654699999999996,-0.024888,0.005186,0.0016710000000000002,-17.370001000000002,-8.87,-38.5,1b
2019-07-12_140708:600,-0.28927600000000003,-0.001007,-0.320801,-0.020371,0.019926,-0.00489,-17.75,-10.0,-40.5,1b
2019-07-12_140708:620,-0.249115,0.016753999999999998,-0.315216,-0.016128999999999998,0.028562,-0.007026,-17.75,-10.0,-40.5,1b
2019-07-12_140708:640,-0.23028600000000002,0.020325,-0.319275,-0.013138999999999998,0.023862,-0.000312,-17.75,-10.0,-40.5,1b
2019-07-12_140708:660,-0.240479,0.013702,-0.319275,-0.010087,0.012754000000000001,0.008140999999999999,-18.059998999999998,-11.5,-39.25,1b
2019-07-12_140708:680,-0.276062,0.008636,-0.328949,-0.008164,0.000547,0.010856999999999999,-18.059998999999998,-11.5,-39.25,1b
2019-07-12_140708:700,-0.322327,-0.001007,-0.349792,-0.00554,-0.009706999999999999,0.010216,-18.5,-11.5,-38.5,1b
2019-07-12_140708:720,-0.32843,-0.006592,-0.360962,-0.002427,-0.018984,0.010216,-18.5,-11.5,-38.5,1b
2019-07-12_140708:740,-0.34063699999999997,-0.010651,-0.377747,-0.000138,-0.026369999999999998,0.010399,-18.5,-11.5,-38.5,1b
