timestamp,AccX,AccY,AccZ,GyroX,GyroY,GyroZ,MagX,MagY,MagZ,Activity
2019-07-12_114752:680,-0.355377,0.007599,-0.185547,-0.015781,0.014996,0.053253999999999996,-44.25,4.56,-9.37,1a
2019-07-12_114752:700,-0.352844,-0.005065999999999999,-0.168274,-0.013858,0.017804,0.050203,-44.25,5.68,-9.75,1a
2019-07-12_114752:720,-0.350281,-0.009125,-0.164215,-0.011539,0.01759,0.046266,-44.25,5.68,-9.75,1a
2019-07-12_114752:740,-0.34674099999999997,-0.015747,-0.162689,-0.009067,0.016339,0.041444,-44.25,5.68,-9.75,1a
2019-07-12_114752:760,-0.35638400000000003,-0.020325,-0.162689,-0.007267,0.015271000000000002,0.035982,-43.869999,8.25,-10.18,1a
2019-07-12_114752:780,-0.365021,-0.024384,-0.1698,-0.005436,0.015271000000000002,0.032411,-43.869999,8.25,-10.18,1a
2019-07-12_114752:800,-0.394531,-0.028442000000000002,-0.171844,-0.004337,0.015544999999999998,0.031404,-43.560001,8.68,-9.0,1a
2019-07-12_114752:820,-0.433167,-0.031494,-0.193176,-0.00159,0.017131999999999998,0.026185000000000003,-43.560001,8.68,-9.0,1a
2019-07-12_114752:840,-0.46823100000000006,-0.033539,-0.186066,-0.000278,0.017529,0.021119,-43.560001,8.68,-9.0,1a
2019-07-12_114752:860,-0.566376,-0.028442000000000002,-0.227753,-0.0004,0.015271000000000002,0.019319,-43.5,11.0,-6.56,1a
2019-07-12_114752:880,-0.582642,-0.028961,-0.240479,0.001065,0.019177,0.017213,-43.5,11.0,-6.56,1a
2019-07-12_114752:900,-0.548584,-0.034058,-0.238434,0.000851,0.024243,0.013429,-43.5,10.56,-5.37,1a
2019-07-12_114752:920,-0.613129,-0.038635,-0.231323,-0.004398,0.040234,-0.002288,-43.5,10.56,-5.37,1a
2019-07-12_114752:940,-0.7224430000000001,-0.010651,-0.310638,-0.009739,0.039013,-0.001464,-43.5,10.56,-5.37,1a
2019-07-12_114752:960,-0.557739,-0.025908999999999998,-0.30249000000000004,-0.010745999999999999,0.039776,0.0005200000000000001,-45.25,10.87,-4.18,1a
2019-07-12_114752:980,-0.56485,-0.046265,-0.274536,-0.017093,0.034863,-0.01602,-45.25,10.87,-4.18,1a
2019-07-12_114753:000,-0.49517799999999995,-0.06405599999999999,-0.28875700000000004,-0.019687,0.034526999999999995,-0.018279,-43.5,10.18,-3.06,1a
2019-07-12_114753:020,-0.282166,-0.096588,-0.25216700000000003,-0.011997,0.03053,-0.0068650000000000004,-43.5,10.18,-3.06,1a
2019-07-12_114753:040,-0.310638,-0.11538699999999999,-0.203369,-0.006962,0.025158,0.000306,-43.5,10.18,-3.06,1a
2019-07-12_114753:060,-0.501282,-0.128113,-0.208954,-0.004612,0.022442,0.004335,-45.68,10.18,-1.06,1a
2019-07-12_114753:080,-0.45806899999999995,-0.14032,-0.21859699999999999,0.0077480000000000005,0.016186000000000002,0.011842,-45.68,10.18,-1.06,1a
2019-07-12_114753:100,-0.40316799999999997,-0.139282,-0.176422,0.011685,0.012005,0.008333,-45.25,9.37,0.37,1a
2019-07-12_114753:120,-0.431641,-0.12558,-0.193695,0.017849,-0.001178,-0.007659,-45.25,9.37,0.37,1a
2019-07-12_114753:140,-0.452484,-0.096588,-0.186066,0.021237,-0.004108,-0.008727,-45.25,9.37,0.37,1a
2019-07-12_114753:160,-0.431122,-0.085388,-0.177948,0.022824,-0.005695,-0.008634999999999999,-44.560001,10.18,0.87,1a
2019-07-12_114753:180,-0.416382,-0.06405599999999999,-0.161652,0.024136,-0.004444,-0.022002,-44.560001,10.18,0.87,1a
2019-07-12_114753:200,-0.397583,-0.044219999999999995,-0.145386,0.023341999999999998,-0.0020629999999999997,-0.028227,-46.0,8.25,1.18,1a
2019-07-12_114753:220,-0.397583,-0.014221000000000001,-0.116425,0.020291,0.004895,-0.031493,-46.0,8.25,1.18,1a
2019-07-12_114753:240,-0.414337,-0.006592,-0.107269,0.017697,0.009045000000000001,-0.026305000000000002,-46.0,8.25,1.18,1a
2019-07-12_114753:260,-0.416901,-0.009125,-0.091003,0.016171,0.011090000000000001,-0.025054,-45.68,7.18,1.18,1a
2019-07-12_114753:280,-0.40976,-0.009125,-0.08081100000000001,0.012539,0.012097,-0.024108,-45.68,7.18,1.18,1a
2019-07-12_114753:300,-0.43621800000000005,-0.008118,-0.075745,0.011685,0.011609,-0.022704,-45.0,6.06,2.37,1a
2019-07-12_114753:320,-0.433167,-0.007111,-0.07928500000000001,0.010860999999999999,0.006634,-0.016538999999999998,-45.0,6.06,2.37,1a
2019-07-12_114753:340,-0.40823400000000004,-0.004547,-0.082336,0.009426,0.0023309999999999997,-0.015349000000000002,-45.0,6.06,2.37,1a
2019-07-12_114753:360,-0.390961,0.0,-0.08996599999999999,0.008419,-8e-05,-0.014952000000000002,-47.18,4.56,3.18,1a
2019-07-12_114753:380,-0.41943400000000003,0.002014,-0.081848,0.005642,-0.003833,-0.013030000000000002,-47.18,4.56,3.18,1a
2019-07-12_114753:400,-0.459595,0.008636,-0.101685,0.004086,-0.004321,-0.012358,-46.75,3.87,3.18,1a
2019-07-12_114753:420,-0.47332799999999997,0.009644,-0.090485,-0.001621,-0.004444,-0.008329999999999999,-46.75,3.87,3.18,1a
2019-07-12_114753:440,-0.528748,0.012695,-0.11843900000000002,-0.006809,-0.007678,-0.004607,-46.75,3.87,3.18,1a
2019-07-12_114753:460,-0.507904,0.001007,-0.133698,-0.008213,-0.008990999999999999,-0.003081,-46.75,2.37,2.87,1a
2019-07-12_114753:480,-0.535858,-0.0035399999999999997,-0.139282,-0.00748,-0.006793,-0.012633,-46.75,2.37,2.87,1a
2019-07-12_114753:500,-0.6512760000000001,0.021332,-0.110321,-0.0061070000000000004,-0.005115,-0.016416999999999998,-46.369999,2.0,3.56,1a
2019-07-12_114753:520,-0.709747,0.08081100000000001,-0.227264,-0.0061070000000000004,-0.007220999999999999,-0.001341,-46.369999,2.0,3.56,1a
2019-07-12_114753:540,-0.674652,0.09353600000000001,-0.17385899999999999,-0.006168,-0.001209,0.024385,-46.369999,2.0,3.56,1a
2019-07-12_114753:560,-0.47689799999999993,0.113373,-0.175903,-0.006809,-0.0030399999999999997,0.034669,-48.0,1.18,2.87,1a
2019-07-12_114753:580,-0.49316400000000005,0.119965,-0.169281,-0.007206000000000001,1.2e-05,0.048341,-48.0,1.18,2.87,1a
2019-07-12_114753:600,-0.334534,0.151001,-0.199799,-0.0060149999999999995,-0.001941,0.048616,-48.0,1.18,2.87,1a
2019-07-12_114753:620,-0.410797,0.144897,-0.14386,-0.006351,-0.006,0.03528,-46.060001,2.06,3.56,1a
2019-07-12_114753:640,-0.5495909999999999,0.148956,-0.166229,-0.011997,-0.005573,0.031068000000000002,-46.060001,2.06,3.56,1a
2019-07-12_114753:660,-0.48706099999999997,0.137268,-0.172333,-0.015444999999999999,-0.004993,0.034944,-47.25,3.56,4.06,1a
2019-07-12_114753:680,-0.47433500000000006,0.082855,-0.145386,-0.022098,-0.01073,0.042695,-47.25,3.56,4.06,1a
2019-07-12_114753:700,-0.49926800000000005,0.063538,-0.172852,-0.024326,-0.013781999999999999,0.037721,-47.560001,5.37,2.87,1a
2019-07-12_114753:720,-0.497742,0.057953,-0.166748,-0.028141000000000003,-0.015491,0.02292,-47.560001,5.37,2.87,1a
2019-07-12_114753:740,-0.47689799999999993,0.047791,-0.161163,-0.027712999999999998,-0.016101,0.021455000000000002,-47.560001,5.37,2.87,1a
2019-07-12_114753:760,-0.445862,0.038635,-0.169281,-0.027712999999999998,-0.017414,0.017335,-46.5,6.5,2.37,1a
2019-07-12_114753:780,-0.432159,0.044739,-0.161163,-0.029056,-0.017230000000000002,0.012361,-46.5,6.5,2.37,1a
2019-07-12_114753:800,-0.417908,0.042175,-0.1586,-0.030246,-0.016101,0.018739,-46.5,6.5,2.37,1a
2019-07-12_114753:820,-0.423004,0.03302,-0.149963,-0.030246,-0.012775,0.031343,-47.560001,6.5,3.18,1a
2019-07-12_114753:840,-0.423004,0.027954000000000003,-0.139282,-0.03223,-0.004779,0.038239999999999996,-47.560001,6.5,3.18,1a
2019-07-12_114753:860,-0.417389,0.029480000000000003,-0.135223,-0.033054,-0.00246,0.037721,-46.75,7.68,2.87,1a
2019-07-12_114753:880,-0.40368699999999996,0.028961,-0.128601,-0.036564,0.0033689999999999996,0.036256000000000004,-46.75,7.68,2.87,1a
2019-07-12_114753:900,-0.397064,0.030487,-0.127106,-0.038486,0.004376,0.035920999999999995,-46.75,7.68,2.87,1a
2019-07-12_114753:920,-0.38028,0.028442000000000002,-0.133179,-0.044802999999999996,0.0069700000000000005,0.03528,-47.18,9.37,1.68,1a
2019-07-12_114753:940,-0.36554000000000003,0.022369,-0.135742,-0.046695,0.007184,0.034517,-47.18,9.37,1.68,1a
2019-07-12_114753:960,-0.42453,0.011169,-0.13269,-0.049227999999999994,0.007977,0.030610000000000002,-46.369999,11.18,2.37,1a
2019-07-12_114753:980,-0.472321,0.004547,-0.141327,-0.050419,0.008282,0.025422,-46.369999,11.18,2.37,1a
2019-07-12_114754:000,-0.540955,0.001495,-0.12149000000000001,-0.049503,0.009411,0.021058,-46.369999,11.18,2.37,1a
2019-07-12_114754:020,-0.611603,0.009125,-0.135742,-0.048770999999999995,0.011334,0.01587,-46.75,12.37,2.87,1a
2019-07-12_114754:040,-0.525177,0.023375999999999997,-0.14843800000000001,-0.050082999999999996,0.018262,0.016298,-46.75,12.37,2.87,1a
2019-07-12_114754:060,-0.484497,0.017273,-0.117432,-0.050082999999999996,0.023022,0.017335,-45.0,13.06,3.56,1a
2019-07-12_114754:080,-0.596375,-0.012695,-0.129639,-0.052615999999999996,0.029217,0.013276,-45.0,13.06,3.56,1a
2019-07-12_114754:100,0.985718,-0.03302,-0.096588,-0.05221900000000001,0.033337,0.011049,-45.0,13.06,3.56,1a
2019-07-12_114754:120,-0.547546,-0.050323,-0.197266,-0.050113,0.026806,0.017824,-45.25,13.87,3.5,1a
2019-07-12_114754:140,-0.489594,-0.081848,-0.105743,-0.041935,0.028485000000000003,0.010376999999999999,-45.25,13.87,3.5,1a
2019-07-12_114754:160,-0.33197,-0.067108,-0.188599,-0.032382999999999995,0.008221,-0.013304,-45.68,14.56,4.25,1a
2019-07-12_114754:180,-0.361481,-0.026917,-0.159119,-0.024692,0.008159999999999999,-0.017546,-45.68,14.56,4.25,1a
2019-07-12_114754:200,-0.448425,-0.032013,-0.165222,-0.021671,0.005627,0.013765000000000001,-45.68,14.56,4.25,1a
2019-07-12_114754:220,-0.5933229999999999,-0.042694,-0.152008,-0.019901,0.011273,0.046662999999999996,-45.0,14.56,5.06,1a
2019-07-12_114754:240,-0.52774,-0.049805,-0.165222,-0.024143,0.017804,0.053193,-45.0,14.56,5.06,1a
2019-07-12_114754:260,-0.518066,-0.042175,-0.132172,-0.028506999999999998,0.021771000000000002,0.041901999999999995,-44.68,15.68,5.5,1a
2019-07-12_114754:280,-0.500793,-0.015747,-0.139801,-0.03458,0.021374,0.031343,-44.68,15.68,5.5,1a
2019-07-12_114754:300,-0.49823,-0.0030210000000000002,-0.134216,-0.044437,0.020978,0.028016000000000003,-44.68,15.68,5.5,1a
2019-07-12_114754:320,-0.46875,-0.008636,-0.13269,-0.058323,0.018109,0.027162000000000002,-44.25,16.870001000000002,7.18,1a
2019-07-12_114754:340,-0.453003,-0.022369,-0.12454200000000001,-0.071323,0.014996,0.025178,-44.25,16.870001000000002,7.18,1a
2019-07-12_114754:360,-0.43927,-0.042694,-0.105743,-0.080692,0.01402,0.020997,-43.18,18.18,6.37,1a
2019-07-12_114754:380,-0.434692,-0.042694,-0.094055,-0.08566599999999999,0.015544999999999998,0.014619,-43.18,18.18,6.37,1a
2019-07-12_114754:400,-0.43621800000000005,-0.038635,-0.08081100000000001,-0.08932799999999999,0.017071,0.008638,-43.18,18.18,6.37,1a
2019-07-12_114754:420,-0.43774399999999997,-0.034058,-0.075226,-0.091587,0.017773,0.005983,-42.75,19.75,5.56,1a
2019-07-12_114754:440,-0.457581,-0.028442000000000002,-0.06405599999999999,-0.09531,0.01521,0.0076,-42.75,19.75,5.56,1a
2019-07-12_114754:460,-0.45401,-0.025421,-0.067596,-0.098301,0.012066,0.009523,-42.369999,20.870001000000002,5.18,1a
2019-07-12_114754:480,-0.46060200000000007,-0.022369,-0.057953,-0.102207,0.009686,0.009981,-42.369999,20.870001000000002,5.18,1a
2019-07-12_114754:500,-0.44995100000000005,-0.023895,-0.067596,-0.10666199999999999,0.006512,0.009828,-42.369999,20.870001000000002,5.18,1a
2019-07-12_114754:520,-0.438751,-0.028442000000000002,-0.070648,-0.10968399999999999,0.003125,0.009309,-41.68,21.68,4.06,1a
2019-07-12_114754:540,-0.445374,-0.032532,-0.064545,-0.11136199999999999,0.000989,0.006074,-41.68,21.68,4.06,1a
2019-07-12_114754:560,-0.475861,-0.039642000000000004,-0.062012,-0.11300999999999999,0.0009279999999999999,0.000795,-42.060001,21.68,3.18,1a
2019-07-12_114754:580,-0.49823,-0.048279,-0.05285599999999999,-0.11386500000000001,0.003399,0.000398,-42.060001,21.68,3.18,1a
2019-07-12_114754:600,-0.5272220000000001,-0.055908000000000006,-0.046752999999999996,-0.112613,0.008374,0.005311,-42.060001,21.68,3.18,1a
2019-07-12_114754:620,-0.447906,-0.065582,-0.06149299999999999,-0.111026,0.011151000000000001,0.009126,-40.560001,23.18,0.37,1a
2019-07-12_114754:640,-0.467224,-0.073212,-0.041168,-0.108768,0.009289,0.006868000000000001,-40.560001,23.18,0.37,1a
2019-07-12_114754:660,-0.48706099999999997,-0.075226,-0.07928500000000001,-0.1077,0.001782,0.007112,-40.869999,22.059998999999998,-1.0,1a
2019-07-12_114754:680,-0.458588,-0.080322,-0.078796,-0.10278699999999999,-0.005756,0.010255,-40.869999,22.059998999999998,-1.0,1a
2019-07-12_114754:700,-0.47332799999999997,-0.075745,-0.085388,-0.097294,-0.014025999999999999,0.006868000000000001,-40.869999,22.059998999999998,-1.0,1a
2019-07-12_114754:720,-0.8276979999999999,-0.063019,-0.033539,-0.092899,-0.00954,0.002046,-41.25,22.059998999999998,-2.68,1a
2019-07-12_114754:740,-0.614166,-0.043701,-0.136749,-0.090976,-0.0055119999999999995,0.015169,-41.25,22.059998999999998,-2.68,1a
2019-07-12_114754:760,-0.569427,-0.052338,-0.0737,-0.07751799999999999,0.009839,0.037599,-40.869999,22.059998999999998,-5.0,1a
2019-07-12_114754:780,-0.49517799999999995,-0.06253099999999999,-0.148956,-0.057316,0.009686,0.046693,-40.869999,22.059998999999998,-5.0,1a
2019-07-12_114754:800,-0.427063,-0.07016,-0.157074,-0.028506999999999998,0.015668,0.028901,-40.869999,22.059998999999998,-5.0,1a
2019-07-12_114754:820,-0.5617979999999999,0.004059,-0.108276,-0.005893,0.019635,0.0008560000000000001,-40.18,22.75,-5.37,1a
2019-07-12_114754:840,-0.624329,0.048798,-0.118958,0.004849,0.023694,-0.012419,-40.18,22.75,-5.37,1a
2019-07-12_114754:860,-0.566864,0.069641,-0.11386099999999999,0.011013,0.028393,-0.015227000000000001,-39.75,23.18,-4.87,1a
2019-07-12_114754:880,-0.528748,0.065582,-0.11691300000000002,0.012081,0.026958999999999997,-0.029418,-39.75,23.18,-4.87,1a
2019-07-12_114754:900,-0.523163,0.097107,-0.114899,0.010952,0.021161000000000003,-0.043028,-39.75,23.18,-4.87,1a
2019-07-12_114754:920,-0.49823,0.117432,-0.12200899999999999,0.008602,0.014477,-0.037047000000000004,-40.18,22.370001000000002,-4.06,1a
2019-07-12_114754:940,-0.470276,0.10675,-0.119965,0.005246,0.006512,-0.02545,-40.18,22.370001000000002,-4.06,1a
2019-07-12_114754:960,-0.443329,0.105743,-0.127594,-0.000614,-0.0008119999999999999,-0.022795,-41.68,20.870001000000002,-2.87,1a
2019-07-12_114754:980,-0.412811,0.12149000000000001,-0.11691300000000002,-0.007816,-0.004566,-0.015959,-41.68,20.870001000000002,-2.87,1a
2019-07-12_114755:000,-0.411285,0.12558,-0.108276,-0.014713,-0.005573,0.000795,-41.68,20.870001000000002,-2.87,1a
2019-07-12_114755:020,-0.43670699999999996,0.12149000000000001,-0.10116599999999999,-0.023075,-0.002735,0.012361,-41.68,20.559998999999998,-2.87,1a
2019-07-12_114755:040,-0.445374,0.128113,-0.095062,-0.035343,0.0033689999999999996,0.012697,-41.68,20.559998999999998,-2.87,1a
2019-07-12_114755:060,-0.449432,0.144897,-0.07928500000000001,-0.049381,0.011273,0.013032,-41.25,19.75,-2.87,1a
2019-07-12_114755:080,-0.43774399999999997,0.146423,-0.077271,-0.064487,0.017712000000000002,0.015625999999999998,-41.25,19.75,-2.87,1a
2019-07-12_114755:100,-0.40823400000000004,0.14843800000000001,-0.087952,-0.08188200000000001,0.021893,0.015016,-41.25,19.75,-2.87,1a
2019-07-12_114755:120,-0.375214,0.141327,-0.090485,-0.10001,0.021832,0.01349,-40.869999,20.559998999999998,-1.68,1a
2019-07-12_114755:140,-0.426544,0.128601,-0.075745,-0.11441400000000002,0.019391,0.014344999999999998,-40.869999,20.559998999999998,-1.68,1a
2019-07-12_114755:160,-0.46417200000000003,0.12048299999999999,-0.087952,-0.126224,0.015668,0.012697,-42.060001,20.75,-3.25,1a
2019-07-12_114755:180,-0.5134890000000001,0.097595,-0.073212,-0.133915,0.013409,0.008119,-42.060001,20.75,-3.25,1a
2019-07-12_114755:200,-0.546539,0.096069,-0.069641,-0.13553199999999999,0.01286,0.004518,-42.060001,20.75,-3.25,1a
2019-07-12_114755:220,-0.533844,0.087952,-0.056427,-0.136722,0.01347,0.002839,-40.869999,20.5,-5.25,1a
2019-07-12_114755:240,-0.48706099999999997,0.081329,-0.043701,-0.13779,0.014537999999999999,0.004915,-40.869999,20.5,-5.25,1a
2019-07-12_114755:260,-0.458588,0.066589,-0.039124,-0.138157,0.011273,0.007112,-41.560001,19.75,-7.68,1a
2019-07-12_114755:280,-0.515015,0.062012,-0.045226999999999996,-0.139835,0.005169,0.006837,-41.560001,19.75,-7.68,1a
2019-07-12_114755:300,-0.803284,0.056427,0.0030210000000000002,-0.1413,-0.0009339999999999999,0.008394,-41.560001,19.75,-7.68,1a
2019-07-12_114755:320,-0.654327,0.034058,-0.087952,-0.145939,-0.00954,0.013368000000000001,-40.75,19.370001000000002,-8.37,1a
2019-07-12_114755:340,-0.55365,-0.008636,-0.026917,-0.14899,-0.014575,0.029542000000000002,-40.75,19.370001000000002,-8.37,1a
2019-07-12_114755:360,-0.45196499999999995,-0.046265,-0.124054,-0.147648,-0.029254000000000002,0.043031,-41.18,18.25,-10.37,1a
2019-07-12_114755:380,-0.251648,-0.104218,-0.15506,-0.146488,-0.038349,0.046357999999999996,-41.18,18.25,-10.37,1a
2019-07-12_114755:400,-0.29943800000000004,-0.102173,-0.12558,-0.14069,-0.04671,0.044893,-41.18,18.25,-10.37,1a
2019-07-12_114755:420,-0.67923,-0.102692,-0.09353600000000001,-0.13776,-0.035999,0.036653,-40.060001,17.18,-13.56,1a
2019-07-12_114755:440,-0.59433,-0.107269,-0.153534,-0.137638,-0.020343,0.021394,-40.060001,17.18,-13.56,1a
2019-07-12_114755:460,-0.384338,-0.095062,-0.116425,-0.13248,-0.01485,0.016603,-39.68,17.18,-16.75,1a
2019-07-12_114755:480,-0.44638100000000003,-0.083862,-0.116425,-0.12451500000000001,-0.022266,0.017,-39.68,17.18,-16.75,1a
2019-07-12_114755:500,-0.552643,-0.07775900000000001,-0.128601,-0.11938800000000001,-0.022083000000000002,0.008577,-39.68,17.18,-16.75,1a
2019-07-12_114755:520,-0.5404359999999999,-0.054901,-0.095062,-0.116337,-0.016345,0.002321,-38.25,15.37,-19.559998999999998,1a
2019-07-12_114755:540,-0.556702,-0.036072,-0.073212,-0.11386500000000001,-0.012927000000000001,0.008119,-38.25,15.37,-19.559998999999998,1a
2019-07-12_114755:560,-0.531799,-0.036591000000000005,-0.078796,-0.112827,-0.007526000000000001,0.015565,-38.25,13.5,-20.0,1a
2019-07-12_114755:580,-0.461639,-0.036591000000000005,-0.06253099999999999,-0.11236900000000001,-0.004108,0.015625999999999998,-38.25,13.5,-20.0,1a
2019-07-12_114755:600,-0.45401,-0.035065,-0.056915,-0.110508,-0.006336,0.012483,-38.25,13.5,-20.0,1a
2019-07-12_114755:620,-0.441284,-0.03302,-0.057953,-0.10830999999999999,-0.008990999999999999,0.008058,-38.560001,11.5,-22.059998999999998,1a
2019-07-12_114755:640,-0.430634,-0.031494,-0.049316000000000006,-0.10678499999999999,-0.011066,0.00345,-38.560001,11.5,-22.059998999999998,1a
2019-07-12_114755:660,-0.439758,-0.031494,-0.043213,-0.105503,-0.014178999999999999,0.001375,-38.25,9.68,-22.059998999999998,1a
2019-07-12_114755:680,-0.449432,-0.039124,-0.043701,-0.103458,-0.016222999999999998,0.001314,-38.25,9.68,-22.059998999999998,1a
2019-07-12_114755:700,-0.453491,-0.05285599999999999,-0.038635,-0.099735,-0.016345,-0.0005480000000000001,-38.25,9.68,-22.059998999999998,1a
2019-07-12_114755:720,-0.452484,-0.058441,-0.035065,-0.094486,-0.014636000000000001,-0.0042710000000000005,-38.25,7.37,-24.370001000000002,1a
2019-07-12_114755:740,-0.453003,-0.068115,-0.031006,-0.088443,-0.01192,-0.005004,-38.25,7.37,-24.370001000000002,1a
2019-07-12_114755:760,-0.46060200000000007,-0.07421900000000001,-0.035583,-0.07770099999999999,-0.007404000000000001,-0.0008230000000000001,-37.869999,4.37,-25.18,1a
2019-07-12_114755:780,-0.52774,-0.087952,-0.014221000000000001,-0.07407000000000001,-0.005176,-0.000212,-37.869999,4.37,-25.18,1a
2019-07-12_114755:800,-0.523651,-0.088959,-0.035065,-0.067356,-0.000781,-0.0005480000000000001,-37.869999,4.37,-25.18,1a
2019-07-12_114755:820,-0.495697,-0.095581,-0.016266,-0.06113,0.004132,0.0005200000000000001,-39.68,2.5,-24.75,1a
2019-07-12_114755:840,-0.540955,-0.090485,-0.023375999999999997,-0.055088,0.002911,0.002443,-39.68,2.5,-24.75,1a
2019-07-12_114755:860,-0.548584,-0.07928500000000001,-0.067596,-0.049747,-0.001789,0.0032359999999999997,-37.5,0.25,-24.370001000000002,1a
2019-07-12_114755:880,-0.6222840000000001,-0.063538,-0.039124,-0.044650999999999996,-0.00719,0.001375,-37.5,0.25,-24.370001000000002,1a
2019-07-12_114755:900,-0.713287,-0.021851,-0.127106,-0.042606,-0.01012,-0.002745,-37.5,0.25,-24.370001000000002,1a
2019-07-12_114755:920,-0.636017,0.011169,-0.103699,-0.04578,-0.008075,0.000795,-38.25,-1.56,-23.18,1a
2019-07-12_114755:940,-0.5424800000000001,0.076263,-0.138275,-0.044986,-0.013233000000000002,0.006837,-38.25,-1.56,-23.18,1a
2019-07-12_114755:960,-0.40316799999999997,0.09201000000000001,-0.21554600000000002,-0.049564,-0.025134,0.007387,-38.560001,-2.75,-24.18,1a
2019-07-12_114755:980,-0.431122,0.139282,-0.172852,-0.046573,-0.03609,-0.004912,-38.560001,-2.75,-24.18,1a
2019-07-12_114756:000,-0.683319,0.166229,-0.176422,-0.047641,-0.033801,-0.02365,-38.560001,-2.75,-24.18,1a
2019-07-12_114756:020,-0.605011,0.210968,-0.183533,-0.050082999999999996,-0.017016999999999997,-0.01779,-38.560001,-4.18,-24.5,1a
2019-07-12_114756:040,-0.518066,0.207916,-0.149475,-0.04935,-0.005298,0.007997,-38.560001,-4.18,-24.5,1a
2019-07-12_114756:060,-0.481476,0.174896,-0.174377,-0.053226,-0.004596,0.021058,-37.5,-5.68,-25.68,1a
2019-07-12_114756:080,-0.47995,0.156067,-0.14843800000000001,-0.058323,-0.004901,0.023836000000000003,-37.5,-5.68,-25.68,1a
2019-07-12_114756:100,-0.469757,0.11386099999999999,-0.130646,-0.06250399999999999,-0.009204,0.031007,-37.5,-5.68,-25.68,1a
2019-07-12_114756:120,-0.425018,0.076752,-0.12658699999999998,-0.064762,-0.014422999999999998,0.036927999999999996,-37.869999,-6.87,-24.559998999999998,1a
2019-07-12_114756:140,-0.340118,0.03302,-0.103699,-0.064762,-0.018085,0.035401999999999996,-37.869999,-6.87,-24.559998999999998,1a
2019-07-12_114756:160,-0.318268,0.019318000000000002,-0.091003,-0.061190999999999995,-0.022997999999999998,0.031282,-37.5,-6.5,-25.75,1a
2019-07-12_114756:180,-0.340118,0.005065999999999999,-0.08996599999999999,-0.055728999999999994,-0.026569,0.030031,-37.5,-6.5,-25.75,1a
2019-07-12_114756:200,-0.366058,-0.001007,-0.07928500000000001,-0.049289,-0.025134,0.033662,-37.5,-6.5,-25.75,1a
2019-07-12_114756:220,-0.38739,-0.0030210000000000002,-0.068115,-0.043247,-0.022144,0.038637,-37.5,-7.18,-25.75,1a
2019-07-12_114756:240,-0.389435,-0.004547,-0.06405599999999999,-0.038425,-0.018024000000000002,0.041963,-37.5,-7.18,-25.75,1a
2019-07-12_114756:260,-0.391968,-0.007111,-0.063019,-0.033817,-0.014362,0.042238,-37.869999,-7.5,-26.559998999999998,1a
2019-07-12_114756:280,-0.40570100000000003,-0.012695,-0.056915,-0.030124,-0.009998,0.039033,-37.869999,-7.5,-26.559998999999998,1a
2019-07-12_114756:300,-0.406219,-0.019318000000000002,-0.063019,-0.02692,-0.006,0.034456,-37.869999,-7.5,-26.559998999999998,1a
2019-07-12_114756:320,-0.449432,-0.031006,-0.058441,-0.023533000000000002,-0.001911,0.030152999999999996,-37.5,-6.37,-25.75,1a
2019-07-12_114756:340,-0.495697,-0.037108999999999996,-0.068115,-0.019169,0.0020570000000000002,0.024232,-37.5,-6.37,-25.75,1a
2019-07-12_114756:360,-0.589752,-0.053863999999999995,-0.0737,-0.013706,0.005627,0.017396000000000002,-37.18,-5.56,-25.370001000000002,1a
2019-07-12_114756:380,-0.639587,-0.055389,-0.087952,-0.005558,0.006848000000000001,0.008912,-37.18,-5.56,-25.370001000000002,1a
2019-07-12_114756:400,-0.609589,-0.049316000000000006,-0.112854,0.00256,0.005627,-0.002867,-37.18,-5.56,-25.370001000000002,1a
2019-07-12_114756:420,-0.695496,-0.039642000000000004,-0.07775900000000001,0.008419,0.006024,-0.013243000000000001,-37.869999,-5.56,-25.370001000000002,1a
2019-07-12_114756:440,-0.707214,-0.038116000000000004,-0.169281,0.011073999999999999,0.004376,-0.014341999999999999,-37.869999,-5.56,-25.370001000000002,1a
2019-07-12_114756:460,-0.779907,-0.051849,-0.113373,0.012813999999999999,0.003583,-0.006194,-38.25,-5.68,-25.370001000000002,1a
2019-07-12_114756:480,-0.5211180000000001,-0.071167,-0.20486500000000002,0.014523,-0.00307,-0.001067,-38.25,-5.68,-25.370001000000002,1a
2019-07-12_114756:500,-0.41232299999999994,-0.07928500000000001,-0.199799,0.013607,-0.012775,0.0019850000000000002,-38.25,-5.68,-25.370001000000002,1a
2019-07-12_114756:520,-0.356903,-0.08590700000000001,-0.21759,0.013333000000000001,-0.024677,0.0058,-39.0,-5.56,-24.559998999999998,1a
2019-07-12_114756:540,-0.41943400000000003,-0.09963999999999999,-0.208954,0.007504,-0.028582999999999997,0.013947999999999999,-39.0,-5.56,-24.559998999999998,1a
2019-07-12_114756:560,-0.602966,-0.12506099999999998,-0.193695,0.003689,-0.019885,0.021730000000000003,-37.5,-5.37,-24.559998999999998,1a
2019-07-12_114756:580,-0.5058590000000001,-0.14743,-0.21505700000000003,0.000851,-0.007862000000000001,0.017793,-37.5,-5.37,-24.559998999999998,1a
2019-07-12_114756:600,-0.425537,-0.143372,-0.18096900000000002,0.00317,-0.0021850000000000003,-0.001616,-37.5,-5.37,-24.559998999999998,1a
2019-07-12_114756:620,-0.43621800000000005,-0.112854,-0.1698,0.006497,-0.0023989999999999997,-0.023894,-37.869999,-4.18,-26.18,1a
2019-07-12_114756:640,-0.48043800000000003,-0.072693,-0.138794,0.00903,-0.002643,-0.031462000000000004,-37.869999,-4.18,-26.18,1a
2019-07-12_114756:660,-0.44995100000000005,-0.058441,-0.12454200000000001,0.011349,-0.003711,-0.02603,-36.75,-4.56,-26.18,1a
2019-07-12_114756:680,-0.418915,-0.037108999999999996,-0.097107,0.012142,-0.004383,-0.023833,-36.75,-4.56,-26.18,1a
2019-07-12_114756:700,-0.384338,-0.017273,-0.090485,0.011257,-0.006275,-0.027312,-36.75,-4.56,-26.18,1a
2019-07-12_114756:720,-0.376221,0.006592,-0.064545,0.010464,-0.007404000000000001,-0.029539999999999997,-37.869999,-5.68,-26.18,1a
2019-07-12_114756:740,-0.388428,0.016266,-0.053375,0.009549,-0.007281999999999999,-0.029814,-37.869999,-5.68,-26.18,1a
2019-07-12_114756:760,-0.401642,0.026427999999999997,-0.039124,0.006679999999999999,-0.004566,-0.030027999999999996,-37.869999,-7.18,-25.75,1a
2019-07-12_114756:780,-0.404694,0.030487,-0.032013,0.0033840000000000003,-0.0008730000000000001,-0.027495,-37.869999,-7.18,-25.75,1a
2019-07-12_114756:800,-0.404694,0.026917,-0.032532,0.000302,0.000531,-0.020597999999999998,-37.869999,-7.18,-25.75,1a
2019-07-12_114756:820,-0.409271,0.022369,-0.031494,-0.0022010000000000003,1.2e-05,-0.013822999999999998,-37.5,-7.06,-27.75,1a
2019-07-12_114756:840,-0.40570100000000003,0.011687999999999999,-0.035583,-0.004062,-0.001575,-0.010253,-37.5,-7.06,-27.75,1a
2019-07-12_114756:860,-0.386902,0.006592,-0.044219999999999995,-0.005161,-0.004229999999999999,-0.008849,-37.5,-8.68,-27.0,1a
2019-07-12_114756:880,-0.46469099999999997,0.0025329999999999997,-0.037598,-0.005832,-0.007739,-0.00717,-37.5,-8.68,-27.0,1a
2019-07-12_114756:900,-0.5211180000000001,-0.001495,-0.048798,-0.006962,-0.009204,-0.005675,-37.5,-8.68,-27.0,1a
2019-07-12_114756:920,-0.5541689999999999,-0.005065999999999999,-0.049316000000000006,-0.008426000000000001,-0.006945999999999999,-0.004118999999999999,-37.560001,-9.0,-26.559998999999998,1a
2019-07-12_114756:940,-0.592804,-0.008118,-0.05285599999999999,-0.009525,-0.0032530000000000002,-0.002135,-37.560001,-9.0,-26.559998999999998,1a
2019-07-12_114756:960,-0.551636,0.002014,-0.083862,-0.008945,-0.00014099999999999998,-0.00067,-36.869999,-9.75,-26.18,1a
2019-07-12_114756:980,-0.520111,0.025421,-0.08996599999999999,-0.008029999999999999,-0.000263,-0.0009449999999999999,-36.869999,-9.75,-26.18,1a
2019-07-12_114757:000,-0.932953,0.074738,-0.094055,-0.009281000000000001,0.000348,-0.002196,-36.869999,-9.75,-26.18,1a
2019-07-12_114757:020,-0.714325,0.102173,-0.21249400000000002,-0.014041999999999999,-0.007129000000000001,0.004671,-38.369999,-9.0,-26.25,1a
2019-07-12_114757:040,-0.460114,0.113373,-0.161163,-0.019108,-0.0025210000000000002,0.017152,-38.369999,-9.0,-26.25,1a
2019-07-12_114757:060,-0.396545,0.104706,-0.18096900000000002,-0.023349,-0.016040000000000002,0.028566,-38.369999,-9.75,-25.75,1a
2019-07-12_114757:080,-0.33197,0.097595,-0.22521999999999998,-0.023075,-0.027912,0.030488,-38.369999,-9.75,-25.75,1a
2019-07-12_114757:100,-0.502808,0.100647,-0.188599,-0.019565,-0.033679,0.016084,-38.369999,-9.75,-25.75,1a
2019-07-12_114757:120,-0.657898,0.12658699999999998,-0.22421300000000002,-0.019291,-0.030688999999999998,-0.000212,-38.369999,-10.06,-27.0,1a
2019-07-12_114757:140,-0.5058590000000001,0.131165,-0.213531,-0.01984,-0.022876,0.00525,-38.369999,-10.06,-27.0,1a
2019-07-12_114757:160,-0.458588,0.108795,-0.177948,-0.019747999999999998,-0.020679,0.021119,-38.369999,-10.75,-26.559998999999998,1a
2019-07-12_114757:180,-0.492645,0.086426,-0.186584,-0.023746,-0.019611,0.029481,-38.369999,-10.75,-26.559998999999998,1a
2019-07-12_114757:200,-0.46670500000000004,0.065582,-0.164215,-0.024418000000000002,-0.012256,0.033479,-38.369999,-10.75,-26.559998999999998,1a
2019-07-12_114757:220,-0.43823199999999995,0.045226999999999996,-0.14032,-0.025058,-0.007220999999999999,0.033326999999999996,-37.560001,-10.5,-27.75,1a
2019-07-12_114757:240,-0.412811,0.029480000000000003,-0.131165,-0.025272,-0.0045049999999999995,0.025911,-37.560001,-10.5,-27.75,1a
2019-07-12_114757:260,-0.370636,0.027435,-0.12301600000000001,-0.026858999999999997,-0.002582,0.019868,-37.25,-10.5,-25.75,1a
2019-07-12_114757:280,-0.345215,0.021332,-0.096588,-0.027195,-0.00246,0.023378,-37.25,-10.5,-25.75,1a
2019-07-12_114757:300,-0.35791,0.010162000000000001,-0.09149199999999999,-0.027530000000000002,-0.00365,0.031495,-37.25,-10.5,-25.75,1a
2019-07-12_114757:320,-0.381317,0.0,-0.086426,-0.027744,-0.002979,0.036043,-37.560001,-10.5,-26.559998999999998,1a
2019-07-12_114757:340,-0.38028,-0.007111,-0.083374,-0.027866000000000002,-0.001605,0.036806,-37.560001,-10.5,-26.559998999999998,1a
2019-07-12_114757:360,-0.382812,-0.021851,-0.091003,-0.027805,-0.001392,0.036592,-38.0,-10.06,-25.75,1a
2019-07-12_114757:380,-0.392487,-0.037598,-0.098633,-0.02692,-0.0017280000000000002,0.03528,-38.0,-10.06,-25.75,1a
2019-07-12_114757:400,-0.40570100000000003,-0.056427,-0.10775799999999999,-0.024814,-0.0017280000000000002,0.031221,-38.0,-10.06,-25.75,1a
2019-07-12_114757:420,-0.43774399999999997,-0.06149299999999999,-0.096588,-0.020968999999999998,0.000989,0.023591,-39.0,-9.37,-25.370001000000002,1a
2019-07-12_114757:440,-0.494171,-0.062012,-0.096588,-0.016239,0.007702,0.013612,-39.0,-9.37,-25.370001000000002,1a
2019-07-12_114757:460,-0.546539,-0.05996699999999999,-0.079803,-0.010806999999999999,0.014874,0.005861,-39.0,-9.37,-25.0,1a
2019-07-12_114757:480,-0.5933229999999999,-0.050323,-0.11080899999999999,-0.005222,0.016278,0.001039,-39.0,-9.37,-25.0,1a
2019-07-12_114757:500,-0.559265,-0.048798,-0.113373,-0.000553,0.013623,-0.00128,-39.0,-9.37,-25.0,1a
2019-07-12_114757:520,-0.502808,-0.051849,-0.10928299999999999,0.004574,0.009442,-0.002684,-39.25,-9.37,-24.25,1a
2019-07-12_114757:540,-0.57196,-0.063019,-0.103699,0.008754999999999999,0.002179,-0.003203,-39.25,-9.37,-24.25,1a
2019-07-12_114757:560,-0.895813,-0.05996699999999999,-0.165222,0.015041999999999998,0.001263,-0.004943,-40.060001,-9.5,-23.370001000000002,1a
2019-07-12_114757:580,-0.619751,-0.082336,-0.19775399999999999,0.018826,-0.00365,-0.008513,-40.060001,-9.5,-23.370001000000002,1a
2019-07-12_114757:600,-0.443329,-0.08843999999999999,-0.145905,0.024136,-0.0037719999999999997,-0.015806999999999998,-40.060001,-9.5,-23.370001000000002,1a
2019-07-12_114757:620,-0.45907600000000004,-0.09811399999999999,-0.203369,0.025997000000000003,-0.016101,-0.013365,-39.0,-10.18,-23.0,1a
2019-07-12_114757:640,-0.368073,-0.127594,-0.189117,0.028866000000000003,-0.015888,-0.001067,-39.0,-10.18,-23.0,1a
2019-07-12_114757:660,-0.525177,-0.140808,-0.13623,0.029782,-0.010578,0.006196,-39.25,-9.5,-22.559998999999998,1a
2019-07-12_114757:680,-0.587708,-0.146912,-0.212006,0.030514,-0.00484,0.004091,-39.25,-9.5,-22.559998999999998,1a
2019-07-12_114757:700,-0.484009,-0.149963,-0.175903,0.031521,0.004315,-0.004668,-39.25,-9.5,-22.559998999999998,1a
2019-07-12_114757:720,-0.46926899999999994,-0.133179,-0.163696,0.033839999999999995,0.001446,-0.014495,-38.560001,-9.87,-23.0,1a
2019-07-12_114757:740,-0.506897,-0.11843900000000002,-0.170319,0.035549000000000004,-0.005359,-0.020781,-38.560001,-9.87,-23.0,1a
2019-07-12_114757:760,-0.47079499999999996,-0.09454299999999999,-0.148956,0.037869,-0.008808,-0.027037000000000002,-38.25,-9.0,-23.75,1a
2019-07-12_114757:780,-0.447906,-0.074738,-0.131165,0.038357,-0.009387000000000001,-0.029539999999999997,-38.25,-9.0,-23.75,1a
2019-07-12_114757:800,-0.410278,-0.032532,-0.11438,0.039761000000000005,-0.009937,-0.033599000000000004,-38.25,-9.0,-23.75,1a
2019-07-12_114757:820,-0.375214,-0.0030210000000000002,-0.08590700000000001,0.038632,-0.0076170000000000005,-0.035735,-38.560001,-9.0,-24.25,1a
2019-07-12_114757:840,-0.37011700000000003,0.013213999999999998,-0.0737,0.034298,-0.00426,-0.034056,-38.560001,-9.0,-24.25,1a
2019-07-12_114757:860,-0.378754,0.024902,-0.057434000000000006,0.029904000000000003,-0.0014529999999999999,-0.033324,-37.18,-8.56,-25.0,1a
2019-07-12_114757:880,-0.375702,0.028961,-0.05285599999999999,0.025143000000000002,0.0016600000000000002,-0.034453,-37.18,-8.56,-25.0,1a
2019-07-12_114757:900,-0.375214,0.032013,-0.044739,0.020748,0.003186,-0.033476,-37.18,-8.56,-25.0,1a
2019-07-12_114757:920,-0.359955,0.034058,-0.047272,0.01672,0.0020570000000000002,-0.029631,-37.18,-10.18,-24.559998999999998,1a
2019-07-12_114757:940,-0.404694,0.034546,-0.034546,0.01318,-0.00047599999999999997,-0.026182999999999998,-37.18,-10.18,-24.559998999999998,1a
2019-07-12_114757:960,-0.410797,0.034546,-0.043701,0.009487,-0.00246,-0.02426,-37.5,-9.75,-25.0,1a
2019-07-12_114757:980,-0.379791,0.037108999999999996,-0.039642000000000004,0.006161,-0.005298,-0.022368,-37.5,-9.75,-25.0,1a
2019-07-12_114758:000,-0.475372,0.036072,-0.025908999999999998,0.0032920000000000002,-0.008533,-0.020201,-37.5,-9.75,-25.0,1a
2019-07-12_114758:020,-0.5048520000000001,0.035065,-0.069641,0.00079,-0.009876000000000001,-0.01779,-37.5,-11.25,-25.0,1a
2019-07-12_114758:040,-0.545532,0.035583,-0.042694,-0.0016820000000000001,-0.007678,-0.015531999999999999,-37.5,-11.25,-25.0,1a
2019-07-12_114758:060,-0.593811,0.044739,-0.08743300000000001,-0.004764,-0.009204,-0.011351,-35.68,-12.0,-24.25,1a
2019-07-12_114758:080,-0.557739,0.057953,-0.10775799999999999,-0.007633,-0.009326000000000001,-0.005736,-35.68,-12.0,-24.25,1a
2019-07-12_114758:100,-0.678741,0.076752,-0.06405599999999999,-0.010745999999999999,-0.011066,-0.002257,-35.68,-12.0,-24.25,1a
2019-07-12_114758:120,-0.9781799999999999,0.09301799999999999,-0.12506099999999998,-0.014835,-0.008258,-0.001891,-34.869999,-12.75,-23.75,1a
2019-07-12_114758:140,-0.7087399999999999,0.109802,-0.151001,-0.019687,0.003522,0.0029620000000000002,-34.869999,-12.75,-23.75,1a
2019-07-12_114758:160,-0.451477,0.122528,-0.16217,-0.02103,0.001935,0.010164,-35.0,-13.18,-24.559998999999998,1a
2019-07-12_114758:180,-0.26181,0.122528,-0.216583,-0.022403,-0.008655,0.017061,-35.0,-13.18,-24.559998999999998,1a
2019-07-12_114758:200,-0.347229,0.12912,-0.198792,-0.020755000000000003,-0.018604,0.014558000000000001,-35.0,-13.18,-24.559998999999998,1a
2019-07-12_114758:220,-0.6899109999999999,0.127594,-0.21249400000000002,-0.021824,-0.020801,0.005922,-35.0,-13.87,-23.370001000000002,1a
2019-07-12_114758:240,-0.588226,0.137268,-0.21911599999999998,-0.023288,-0.011706999999999999,0.00757,-35.0,-13.87,-23.370001000000002,1a
2019-07-12_114758:260,-0.495697,0.11795,-0.13623,-0.023929,-0.0070680000000000005,0.01999,-34.560001,-13.56,-23.370001000000002,1a
2019-07-12_114758:280,-0.5119630000000001,0.095581,-0.152527,-0.026462,-0.0052369999999999995,0.028839999999999998,-34.560001,-13.56,-23.370001000000002,1a
2019-07-12_114758:300,-0.48654200000000003,0.067596,-0.127106,-0.027073000000000003,-0.00041500000000000006,0.03174,-34.560001,-13.56,-23.370001000000002,1a
2019-07-12_114758:320,-0.43670699999999996,0.055908000000000006,-0.108276,-0.025943,-0.00047599999999999997,0.031495,-34.560001,-13.87,-23.75,1a
2019-07-12_114758:340,-0.41586300000000004,0.040161,-0.09201000000000001,-0.024021,-0.003467,0.027039999999999998,-34.560001,-13.87,-23.75,1a
2019-07-12_114758:360,-0.408752,0.037598,-0.09353600000000001,-0.022434,-0.005939,0.021669,-34.560001,-13.18,-22.559998999999998,1a
2019-07-12_114758:380,-0.372162,0.039124,-0.081329,-0.020176,-0.007526000000000001,0.021974,-34.560001,-13.18,-22.559998999999998,1a
2019-07-12_114758:400,-0.36248800000000003,0.037108999999999996,-0.067108,-0.017825999999999998,-0.009448,0.025636000000000003,-34.560001,-13.18,-22.559998999999998,1a
2019-07-12_114758:420,-0.371643,0.033539,-0.06253099999999999,-0.016849,-0.011401999999999999,0.028901,-33.5,-12.37,-23.059998999999998,1a
2019-07-12_114758:440,-0.377747,0.031494,-0.049805,-0.016391,-0.011309999999999999,0.032136,-33.5,-12.37,-23.059998999999998,1a
2019-07-12_114758:460,-0.390442,0.024384,-0.041687,-0.015842,-0.01012,0.036073,-33.869999,-12.06,-23.0,1a
2019-07-12_114758:480,-0.40316799999999997,0.019318000000000002,-0.041687,-0.015659,-0.008655,0.036714,-33.869999,-12.06,-23.0,1a
2019-07-12_114758:500,-0.368591,0.016266,-0.058441,-0.015903,-0.009876000000000001,0.033754,-33.869999,-12.06,-23.0,1a
2019-07-12_114758:520,-0.379272,0.011687999999999999,-0.048798,-0.017093,-0.012836000000000002,0.032257999999999995,-33.869999,-11.25,-21.059998999999998,1a
2019-07-12_114758:540,-0.462646,-0.001495,-0.058441,-0.017582,-0.013781999999999999,0.03412,-33.869999,-11.25,-21.059998999999998,1a
2019-07-12_114758:560,-0.471283,-0.012695,-0.06253099999999999,-0.016849,-0.010394,0.035920999999999995,-33.5,-11.68,-22.559998999999998,1a
2019-07-12_114758:580,-0.5633239999999999,-0.029480000000000003,-0.06405599999999999,-0.015567,-0.009937,0.032411,-33.5,-11.68,-22.559998999999998,1a
2019-07-12_114758:600,-0.557739,-0.035583,-0.114899,-0.014072,-0.015368999999999999,0.028566,-33.5,-11.68,-22.559998999999998,1a
2019-07-12_114758:620,-0.5368649999999999,-0.053375,-0.122528,-0.009067,-0.01781,0.022401,-32.75,-9.87,-21.75,1a
2019-07-12_114758:640,-0.546539,-0.062012,-0.145905,-0.005619,-0.020893000000000002,0.013550999999999999,-32.75,-9.87,-21.75,1a
2019-07-12_114758:660,-0.9873350000000001,-0.051849,-0.190125,-0.000889,-0.015979,0.008851000000000001,-33.060001,-9.75,-22.25,1a
2019-07-12_114758:680,-0.661957,-0.065063,-0.282166,0.000332,-0.015368999999999999,0.015747999999999998,-33.060001,-9.75,-22.25,1a
2019-07-12_114758:700,-0.558228,-0.100159,-0.197266,0.006679999999999999,0.000348,0.012758,-33.060001,-9.75,-22.25,1a
2019-07-12_114758:720,-0.416382,-0.10775799999999999,-0.250641,0.013577,0.0036439999999999997,0.014406,-32.369999,-9.37,-22.559998999999998,1a
2019-07-12_114758:740,-0.268951,-0.110321,-0.21249400000000002,0.026059,0.00758,0.025453,-32.369999,-9.37,-22.559998999999998,1a
2019-07-12_114758:760,-0.494171,-0.12912,-0.184021,0.031124000000000002,0.004437,0.043245,-31.559998999999998,-8.56,-22.559998999999998,1a
2019-07-12_114758:780,-0.5211180000000001,-0.169281,-0.26181,0.037869,0.002392,0.056366999999999993,-31.559998999999998,-8.56,-22.559998999999998,1a
2019-07-12_114758:800,-0.462646,-0.185059,-0.186584,0.041348,0.000989,0.043489,-31.559998999999998,-8.56,-22.559998999999998,1a
2019-07-12_114758:820,-0.448425,-0.174896,-0.18811,0.041684,-0.014057,0.018861000000000003,-32.75,-6.75,-22.559998999999998,1a
2019-07-12_114758:840,-0.48553500000000005,-0.16217,-0.183014,0.042813,-0.022997999999999998,0.0037549999999999997,-32.75,-6.75,-22.559998999999998,1a
2019-07-12_114758:860,-0.46316499999999994,-0.133179,-0.167755,0.043606,-0.028980000000000002,-0.00659,-31.559998999999998,-4.87,-22.559998999999998,1a
2019-07-12_114758:880,-0.46926899999999994,-0.112854,-0.151001,0.042385,-0.028827,-0.019652,-31.559998999999998,-4.87,-22.559998999999998,1a
2019-07-12_114758:900,-0.406219,-0.073212,-0.13269,0.03973,-0.022997999999999998,-0.030088999999999998,-31.559998999999998,-4.87,-22.559998999999998,1a
2019-07-12_114758:920,-0.364532,-0.059479,-0.106232,0.035824,-0.01781,-0.033476,-30.870001000000002,-3.75,-23.370001000000002,1a
2019-07-12_114758:940,-0.347229,-0.045226999999999996,-0.082855,0.031307999999999996,-0.015186000000000002,-0.033750999999999996,-30.870001000000002,-3.75,-23.370001000000002,1a
2019-07-12_114758:960,-0.35739099999999996,-0.040161,-0.082336,0.026455000000000003,-0.013385,-0.034941,-30.870001000000002,-3.68,-23.75,1a
2019-07-12_114758:980,-0.384857,-0.029968,-0.067108,0.021817,-0.010791,-0.036315,-30.870001000000002,-3.68,-23.75,1a
2019-07-12_114759:000,-0.385864,-0.025908999999999998,-0.058960000000000005,0.018032,-0.007739,-0.035582,-30.870001000000002,-3.68,-23.75,1a
2019-07-12_114759:020,-0.391479,-0.023895,-0.056427,0.014400999999999999,-0.005939,-0.034117,-29.5,-4.0,-23.75,1a
2019-07-12_114759:040,-0.397064,-0.020844,-0.058960000000000005,0.0108,-0.004993,-0.032073000000000004,-29.5,-4.0,-23.75,1a
2019-07-12_114759:060,-0.40570100000000003,-0.020325,-0.062012,0.007077,-0.004108,-0.028044,-28.370001000000002,-5.5,-25.870001000000002,1a
2019-07-12_114759:080,-0.484497,-0.018799,-0.071167,0.0014609999999999998,-0.001209,-0.020049,-28.370001000000002,-5.5,-25.870001000000002,1a
2019-07-12_114759:100,-0.498749,-0.01828,-0.074738,-0.001072,-0.00038500000000000003,-0.017089,-28.370001000000002,-5.5,-25.870001000000002,1a
2019-07-12_114759:120,-0.51297,-0.018799,-0.081329,-0.006076,0.000348,-0.011382,-28.370001000000002,-5.25,-23.870001000000002,1a
2019-07-12_114759:140,-0.560272,-0.023895,-0.098633,-0.012516,-0.002796,-0.005675,-28.370001000000002,-5.25,-23.870001000000002,1a
2019-07-12_114759:160,-0.535339,-0.029480000000000003,-0.12200899999999999,-0.017825999999999998,-0.008319,-0.0008230000000000001,-28.75,-6.37,-25.059998999999998,1a
2019-07-12_114759:180,-0.491638,-0.028442000000000002,-0.124054,-0.020878,-0.009998,-0.003264,-28.75,-6.37,-25.059998999999998,1a
2019-07-12_114759:200,-0.544006,-0.017273,-0.119965,-0.022341999999999997,-0.010242,-0.011290000000000001,-28.75,-6.37,-25.059998999999998,1a
2019-07-12_114759:220,-0.9136350000000001,0.031494,-0.174377,-0.026462,-0.009113,-0.013365,-27.68,-6.75,-24.25,1a
2019-07-12_114759:240,-0.636017,0.044219999999999995,-0.17538499999999999,-0.032779,-0.011859,0.005983,-27.68,-6.75,-24.25,1a
2019-07-12_114759:260,-0.381317,0.061005,-0.189117,-0.037082,-0.007739,0.020784,-27.25,-6.75,-25.059998999999998,1a
2019-07-12_114759:280,-0.25216700000000003,0.091003,-0.17996199999999998,-0.040073000000000004,-0.010851999999999999,0.022859,-27.25,-6.75,-25.059998999999998,1a
2019-07-12_114759:300,-0.508911,0.092529,-0.147949,-0.040133999999999996,-0.008533,0.008973,-27.25,-6.75,-25.059998999999998,1a
2019-07-12_114759:320,-0.663483,0.132172,-0.259796,-0.042911000000000005,-0.009662,-0.000609,-26.870001000000002,-7.5,-24.370001000000002,1a
2019-07-12_114759:340,-0.538391,0.137268,-0.206909,-0.044132,-0.005298,0.001832,-26.870001000000002,-7.5,-24.370001000000002,1a
2019-07-12_114759:360,-0.553162,0.118958,-0.17690999999999998,-0.046116000000000004,-0.009052,0.001375,-25.75,-8.25,-23.870001000000002,1a
2019-07-12_114759:380,-0.545013,0.108795,-0.194702,-0.047184,-0.01012,0.0025039999999999997,-25.75,-8.25,-23.870001000000002,1a
2019-07-12_114759:400,-0.47943100000000005,0.091003,-0.153015,-0.045444,-0.004596,0.012086,-25.75,-8.25,-23.870001000000002,1a
2019-07-12_114759:420,-0.44384799999999996,0.071686,-0.151489,-0.04285,-0.00539,0.024049,-26.18,-9.75,-22.68,1a
2019-07-12_114759:440,-0.410797,0.042175,-0.137268,-0.039675999999999996,-0.0061530000000000005,0.029358999999999996,-26.18,-9.75,-22.68,1a
2019-07-12_114759:460,-0.379791,0.026917,-0.12301600000000001,-0.036227999999999996,-0.006488,0.032289,-26.18,-9.75,-24.68,1a
2019-07-12_114759:480,-0.36248800000000003,0.011169,-0.09963999999999999,-0.031101,-0.0070680000000000005,0.036806,-26.18,-9.75,-24.68,1a
2019-07-12_114759:500,-0.36554000000000003,0.0030210000000000002,-0.08996599999999999,-0.026981,-0.006945999999999999,0.041292,-26.18,-9.75,-24.68,1a
2019-07-12_114759:520,-0.378754,-0.002014,-0.071686,-0.024357,-0.005359,0.043947,-26.18,-10.5,-24.25,1a
2019-07-12_114759:540,-0.380798,-0.0035399999999999997,-0.068634,-0.022831,-0.00365,0.045288999999999996,-26.18,-10.5,-24.25,1a
2019-07-12_114759:560,-0.37674,-0.007111,-0.065582,-0.022281,-0.002918,0.044557,-25.75,-10.06,-24.25,1a
2019-07-12_114759:580,-0.374176,-0.011687999999999999,-0.06405599999999999,-0.022434,-0.003436,0.04059,-25.75,-10.06,-24.25,1a
2019-07-12_114759:600,-0.36654699999999996,-0.013702,-0.077271,-0.022739,-0.005451,0.034669,-25.75,-10.06,-24.25,1a
2019-07-12_114759:620,-0.37011700000000003,-0.020325,-0.081848,-0.022616999999999998,-0.008533,0.029939,-26.5,-9.37,-23.059998999999998,1a
2019-07-12_114759:640,-0.497742,-0.038116000000000004,-0.07928500000000001,-0.021488,-0.010974,0.025361,-26.5,-9.37,-23.059998999999998,1a
2019-07-12_114759:660,-0.515015,-0.038116000000000004,-0.11795,-0.020541999999999998,-0.01073,0.021913,-26.18,-9.37,-24.68,1a
2019-07-12_114759:680,-0.575012,-0.046265,-0.09811399999999999,-0.017887,-0.006488,0.020479,-26.18,-9.37,-24.68,1a
2019-07-12_114759:700,-0.596375,-0.045226999999999996,-0.126068,-0.015781,-0.004993,0.019075,-26.18,-9.37,-24.68,1a
2019-07-12_114759:720,-0.537903,-0.045226999999999996,-0.141846,-0.013736000000000002,-0.0023989999999999997,0.016694,-25.0,-8.87,-23.5,1a
2019-07-12_114759:740,-0.47180200000000005,-0.044739,-0.147949,-0.012058,-0.001941,0.012361,-25.0,-8.87,-23.5,1a
2019-07-12_114759:760,-0.8343200000000001,-0.07421900000000001,-0.098633,-0.009525,-0.005939,0.006135,-25.370001000000002,-9.68,-23.870001000000002,1a
2019-07-12_114759:780,-0.6828,-0.032532,-0.308594,-0.010288,-0.017505,0.008851000000000001,-25.370001000000002,-9.68,-23.870001000000002,1a
2019-07-12_114759:800,-0.5734859999999999,-0.066071,-0.136749,-0.005954,-0.015766,0.007905,-25.370001000000002,-9.68,-23.870001000000002,1a
2019-07-12_114759:820,-0.50943,-0.062012,-0.17690999999999998,-0.007601999999999999,-0.027727999999999996,-0.007932999999999999,-25.370001000000002,-8.5,-24.68,1a
2019-07-12_114759:840,-0.361481,-0.028442000000000002,-0.262329,-0.009128,-0.026996,-0.005339,-25.370001000000002,-8.5,-24.68,1a
2019-07-12_114759:860,-0.323334,-0.032013,-0.23690799999999998,-0.010593,-0.018817,0.00757,-23.559998999999998,-8.87,-24.370001000000002,1a
2019-07-12_114759:880,-0.541443,-0.067108,-0.201324,-0.017643,-0.014972,0.020387,-23.559998999999998,-8.87,-24.370001000000002,1a
2019-07-12_114759:900,-0.5368649999999999,-0.07775900000000001,-0.245544,-0.020878,-0.010456,0.040376,-23.559998999999998,-8.87,-24.370001000000002,1a
2019-07-12_114759:920,-0.439758,-0.107269,-0.188599,-0.021091,-0.004993,0.045747,-24.0,-8.87,-25.059998999999998,1a
2019-07-12_114759:940,-0.44638100000000003,-0.109802,-0.189636,-0.021884999999999998,-0.009876000000000001,0.025636000000000003,-24.0,-8.87,-25.059998999999998,1a
2019-07-12_114759:960,-0.47995,-0.085388,-0.201324,-0.02396,-0.012775,0.004609,-22.870001000000002,-8.87,-25.870001000000002,1a
2019-07-12_114759:980,-0.443329,-0.077271,-0.18454,-0.024357,-0.012653,0.001161,-22.870001000000002,-8.87,-25.870001000000002,1a
2019-07-12_114800:000,-0.42758199999999996,-0.072693,-0.165741,-0.024997,-0.012165,-0.002257,-22.870001000000002,-8.87,-25.870001000000002,1a
2019-07-12_114800:020,-0.420959,-0.06253099999999999,-0.156586,-0.027652,-0.009387000000000001,-0.013152,-22.5,-9.87,-25.059998999999998,1a
2019-07-12_114800:040,-0.411804,-0.048279,-0.128601,-0.028263,-0.004229999999999999,-0.018614,-22.5,-9.87,-25.059998999999998,1a
2019-07-12_114800:060,-0.42453,-0.043701,-0.118958,-0.027256,0.00108,-0.017089,-24.0,-10.25,-24.68,1a
2019-07-12_114800:080,-0.429108,-0.036591000000000005,-0.11080899999999999,-0.026614999999999996,0.0055049999999999995,-0.014952000000000002,-24.0,-10.25,-24.68,1a
2019-07-12_114800:100,-0.41485600000000006,-0.032013,-0.102173,-0.025730000000000003,0.008618,-0.012908000000000001,-24.0,-10.25,-24.68,1a
2019-07-12_114800:120,-0.418915,-0.023375999999999997,-0.09301799999999999,-0.02454,0.009106,-0.010497,-22.059998999999998,-10.56,-24.25,1a
2019-07-12_114800:140,-0.429596,-0.015228,-0.10116599999999999,-0.024600999999999998,0.006848000000000001,-0.007445,-22.059998999999998,-10.56,-24.25,1a
2019-07-12_114800:160,-0.394531,-0.005065999999999999,-0.111328,-0.026218,0.002514,-0.004546,-24.0,-12.06,-24.25,1a
2019-07-12_114800:180,-0.377228,-0.0030210000000000002,-0.112854,-0.02866,-0.003375,-0.005187,-24.0,-12.06,-24.25,1a
2019-07-12_114800:200,-0.44638100000000003,-0.002014,-0.109802,-0.032444,-0.008136,-0.008727,-24.0,-12.06,-24.25,1a
2019-07-12_114800:220,-0.45654300000000003,0.0030210000000000002,-0.119965,-0.037021,-0.009662,-0.00598,-23.18,-12.87,-24.25,1a
2019-07-12_114800:240,-0.467743,0.0030210000000000002,-0.098633,-0.041477,-0.006458,-0.000273,-23.18,-12.87,-24.25,1a
2019-07-12_114800:260,-0.55365,0.007599,-0.111328,-0.050082999999999996,-0.00838,0.006135,-22.870001000000002,-13.25,-23.870001000000002,1a
2019-07-12_114800:280,-0.49468999999999996,0.007599,-0.15506,-0.054813,-0.009326000000000001,0.010225,-22.870001000000002,-13.25,-23.870001000000002,1a
2019-07-12_114800:300,-0.509918,0.0025329999999999997,-0.157074,-0.060123,-0.0125,-0.001402,-22.870001000000002,-13.25,-23.870001000000002,1a
2019-07-12_114800:320,-0.618744,0.014740000000000001,-0.12454200000000001,-0.06238099999999999,-0.01073,-0.008971,-21.68,-15.5,-23.5,1a
2019-07-12_114800:340,-0.665497,0.072693,-0.24353000000000002,-0.06583,-0.016345,0.008638,-21.68,-15.5,-23.5,1a
2019-07-12_114800:360,-0.699585,0.0849,-0.197266,-0.068027,-0.015368999999999999,0.027955,-22.559998999999998,-16.559998999999998,-22.68,1a
2019-07-12_114800:380,-0.438751,0.108276,-0.22521999999999998,-0.07526000000000001,-0.021137,0.030366000000000004,-22.559998999999998,-16.559998999999998,-22.68,1a
2019-07-12_114800:400,-0.381805,0.117432,-0.19574,-0.077579,-0.021137,0.023591,-22.559998999999998,-16.559998999999998,-22.68,1a
2019-07-12_114800:420,-0.421967,0.126068,-0.21148699999999998,-0.07599199999999999,-0.019824,0.015413,-21.75,-17.0,-22.370001000000002,1a
2019-07-12_114800:440,-0.506897,0.135223,-0.18249500000000002,-0.074405,-0.009876000000000001,0.006318,-21.75,-17.0,-22.370001000000002,1a
2019-07-12_114800:460,-0.52774,0.183014,-0.217072,-0.077579,-0.002979,0.014619,-22.18,-18.75,-22.68,1a
2019-07-12_114800:480,-0.43823199999999995,0.184021,-0.20639000000000002,-0.07883,0.000317,0.033082,-22.18,-18.75,-22.68,1a
2019-07-12_114800:500,-0.432648,0.167755,-0.20742800000000003,-0.084873,-0.0060609999999999995,0.032808,-22.18,-18.75,-22.68,1a
2019-07-12_114800:520,-0.461639,0.172852,-0.21554600000000002,-0.090244,-0.01192,0.029878,-22.559998999999998,-20.18,-20.68,1a
2019-07-12_114800:540,-0.447906,0.163696,-0.20080599999999998,-0.09198300000000001,-0.013843000000000001,0.041444,-22.559998999999998,-20.18,-20.68,1a
2019-07-12_114800:560,-0.44433599999999995,0.146423,-0.20385699999999998,-0.093052,-0.015705,0.049592000000000004,-22.559998999999998,-21.25,-19.559998999999998,1a
2019-07-12_114800:580,-0.445862,0.13269,-0.20742800000000003,-0.095493,-0.017291,0.046541,-22.559998999999998,-21.25,-19.559998999999998,1a
2019-07-12_114800:600,-0.430634,0.128113,-0.20486500000000002,-0.095096,-0.018207,0.047273,-22.559998999999998,-21.25,-19.559998999999998,1a
2019-07-12_114800:620,-0.41995200000000005,0.11386099999999999,-0.19622799999999999,-0.09222799999999999,-0.017963,0.05230800000000001,-23.68,-22.5,-17.25,1a
2019-07-12_114800:640,-0.423004,0.096588,-0.183533,-0.088779,-0.015827,0.053438,-23.68,-22.5,-17.25,1a
2019-07-12_114800:660,-0.430634,0.08843999999999999,-0.17538499999999999,-0.085605,-0.011463,0.055787,-24.059998999999998,-22.75,-15.56,1a
2019-07-12_114800:680,-0.43518100000000004,0.074738,-0.163696,-0.08090599999999999,-0.006336,0.06149400000000001,-24.059998999999998,-22.75,-15.56,1a
2019-07-12_114800:700,-0.414337,0.053375,-0.146912,-0.076297,-0.001392,0.063753,-24.059998999999998,-22.75,-15.56,1a
2019-07-12_114800:720,-0.399109,0.05438200000000001,-0.144897,-0.072666,0.0027890000000000002,0.059754999999999996,-24.75,-22.75,-14.56,1a
2019-07-12_114800:740,-0.379791,0.049316000000000006,-0.13623,-0.069462,0.0055049999999999995,0.055635000000000004,-24.75,-22.75,-14.56,1a
2019-07-12_114800:760,-0.36349499999999996,0.041168,-0.131653,-0.065677,0.0067870000000000005,0.05297999999999999,-27.370001000000002,-22.68,-11.75,1a
2019-07-12_114800:780,-0.36911,0.030487,-0.12658699999999998,-0.06171,0.007245000000000001,0.049745,-27.370001000000002,-22.68,-11.75,1a
2019-07-12_114800:800,-0.43927,0.013213999999999998,-0.115906,-0.056614,0.007640999999999999,0.046266,-27.370001000000002,-22.68,-11.75,1a
2019-07-12_114800:820,-0.49316400000000005,0.004059,-0.121002,-0.054081,0.008435,0.045625,-28.370001000000002,-22.5,-11.75,1a
2019-07-12_114800:840,-0.5658569999999999,-0.001495,-0.110321,-0.046512,0.014081,0.046754000000000004,-28.370001000000002,-22.5,-11.75,1a
2019-07-12_114800:860,-0.567383,0.000488,-0.130646,-0.045566,0.015729,0.048219,-27.68,-20.559998999999998,-9.87,1a
2019-07-12_114800:880,-0.497742,-0.002014,-0.133698,-0.039737,0.024487000000000002,0.044099,-27.68,-20.559998999999998,-9.87,1a
2019-07-12_114800:900,-0.502808,-0.012177,-0.119965,-0.037754,0.025342,0.028076999999999998,-27.68,-20.559998999999998,-9.87,1a
2019-07-12_114800:920,-0.7224430000000001,0.026427999999999997,-0.21911599999999998,-0.040652999999999995,0.01286,0.025636000000000003,-29.870001000000002,-20.059998999999998,-6.56,1a
2019-07-12_114800:940,-0.614166,0.0025329999999999997,-0.21453899999999998,-0.037937,0.007489,0.028444,-29.870001000000002,-20.059998999999998,-6.56,1a
2019-07-12_114800:960,-0.455017,0.011687999999999999,-0.25827,-0.044132,-0.014972,0.018587,-31.370001000000002,-20.559998999999998,-7.06,1a
2019-07-12_114800:980,-0.279633,0.027435,-0.24658200000000002,-0.042118,-0.020069,0.00937,-31.370001000000002,-20.559998999999998,-7.06,1a
2019-07-12_114801:000,-0.276062,0.042175,-0.165222,-0.047092,-0.014513999999999999,0.010988,-31.370001000000002,-20.559998999999998,-7.06,1a
2019-07-12_114801:020,-0.47689799999999993,0.037598,-0.152527,-0.054691,-0.002338,0.043153,-29.870001000000002,-19.5,-5.5,1a
2019-07-12_114801:040,-0.514008,0.036072,-0.231812,-0.061588,0.006634,0.086488,-29.870001000000002,-19.5,-5.5,1a
2019-07-12_114801:060,-0.45553599999999994,0.009125,-0.19775399999999999,-0.069797,0.008893,0.08423,-31.68,-19.5,-4.25,1a
2019-07-12_114801:080,-0.469757,0.008636,-0.209961,-0.08493400000000001,-0.002246,0.047944,-31.68,-19.5,-4.25,1a
2019-07-12_114801:100,-0.48095699999999997,0.032532,-0.22164899999999998,-0.098484,-0.004047,0.038179000000000005,-31.68,-19.5,-4.25,1a
2019-07-12_114801:120,-0.42453,0.035583,-0.212006,-0.108036,-0.00185,0.057374,-32.869999,-17.18,-3.87,1a
2019-07-12_114801:140,-0.453003,0.012695,-0.223694,-0.120182,-0.002735,0.062532,-32.869999,-17.18,-3.87,1a
2019-07-12_114801:160,-0.484497,-0.008636,-0.23690799999999998,-0.13431099999999999,-0.002002,0.046814999999999996,-32.5,-16.18,-1.87,1a
2019-07-12_114801:180,-0.502319,-0.013213999999999998,-0.224701,-0.13638699999999998,-0.000537,0.046419,-32.5,-16.18,-1.87,1a
2019-07-12_114801:200,-0.5048520000000001,-0.023895,-0.21606399999999998,-0.140964,0.009411,0.05444500000000001,-32.5,-16.18,-1.87,1a
2019-07-12_114801:220,-0.485016,-0.036591000000000005,-0.20385699999999998,-0.14487,0.015271000000000002,0.053315999999999995,-33.560001,-14.25,0.0,1a
2019-07-12_114801:240,-0.446899,-0.045745999999999995,-0.194214,-0.146885,0.017773,0.052247,-33.560001,-14.25,0.0,1a
2019-07-12_114801:260,-0.418915,-0.050323,-0.188599,-0.147251,0.01817,0.050996,-34.369999,-12.75,3.18,1a
2019-07-12_114801:280,-0.399597,-0.065063,-0.177429,-0.146671,0.01701,0.036592,-34.369999,-12.75,3.18,1a
2019-07-12_114801:300,-0.385864,-0.065063,-0.172852,-0.144809,0.016247,0.026704000000000002,-34.369999,-12.75,3.18,1a
2019-07-12_114801:320,-0.392487,-0.06253099999999999,-0.164703,-0.143406,0.015729,0.024507,-34.0,-9.87,4.75,1a
2019-07-12_114801:340,-0.399597,-0.06253099999999999,-0.172852,-0.139103,0.015544999999999998,0.027681,-34.0,-9.87,4.75,1a
2019-07-12_114801:360,-0.399597,-0.068634,-0.174896,-0.13791199999999998,0.015118000000000001,0.029207,-34.369999,-9.18,4.75,1a
2019-07-12_114801:380,-0.420959,-0.076263,-0.180481,-0.134647,0.012402,0.030824,-34.369999,-9.18,4.75,1a
2019-07-12_114801:400,-0.467224,-0.078796,-0.200317,-0.13159500000000002,0.008893,0.032594,-34.369999,-9.18,4.75,1a
2019-07-12_114801:420,-0.463654,-0.097107,-0.195221,-0.129276,0.006573000000000001,0.029939,-34.369999,-7.56,8.5,1a
2019-07-12_114801:440,-0.504333,-0.098633,-0.21402,-0.126163,-0.005878,0.01822,-34.369999,-7.56,8.5,1a
2019-07-12_114801:460,-0.509918,-0.095581,-0.236389,-0.12369100000000001,-0.00838,0.016267,-34.0,-5.25,8.06,1a
2019-07-12_114801:480,-0.5323180000000001,-0.09963999999999999,-0.21759,-0.11233900000000001,-0.008075,0.006074,-34.0,-5.25,8.06,1a
2019-07-12_114801:500,-0.566864,-0.075226,-0.216583,-0.104526,-0.002246,0.000459,-34.0,-5.25,8.06,1a
2019-07-12_114801:520,-0.698059,-0.05996699999999999,-0.17843599999999998,-0.102451,0.00047000000000000004,0.0039689999999999994,-34.68,-3.5,9.56,1a
2019-07-12_114801:540,-0.551636,0.001495,-0.267426,-0.09271599999999999,0.008221,0.037507,-34.68,-3.5,9.56,1a
2019-07-12_114801:560,-0.49111899999999997,0.0035399999999999997,-0.157593,-0.09119,0.013684,0.035676,-34.68,-3.5,9.56,1a
2019-07-12_114801:580,-0.49975600000000003,0.045745999999999995,-0.181488,-0.09503500000000001,0.016278,0.028901,-34.5,-2.0,8.87,1a
2019-07-12_114801:600,-0.467224,0.075745,-0.176422,-0.091251,0.027417,0.034913,-34.5,-2.0,8.87,1a
2019-07-12_114801:620,-0.40063499999999996,0.066589,-0.102173,-0.088443,0.035657,0.019014,-33.68,0.18,10.87,1a
2019-07-12_114801:640,-0.491638,0.075226,-0.072174,-0.08780299999999999,0.039624,0.0038159999999999995,-33.68,0.18,10.87,1a
2019-07-12_114801:660,-0.574005,0.134216,-0.11386099999999999,-0.082218,0.044324,0.01468,-33.68,1.25,10.68,1a
2019-07-12_114801:680,-0.5205989999999999,0.144897,-0.085388,-0.076847,0.043407999999999995,0.018739,-33.68,1.25,10.68,1a
2019-07-12_114801:700,-0.473846,0.156067,-0.080322,-0.077579,0.033063,0.007203,-33.68,1.25,10.68,1a
2019-07-12_114801:720,-0.496704,0.17843599999999998,-0.081329,-0.07864700000000001,0.027295,0.006776000000000001,-32.18,3.18,13.0,1a
2019-07-12_114801:740,-0.46926899999999994,0.177429,-0.096588,-0.080112,0.00758,0.037385,-32.18,3.18,13.0,1a
2019-07-12_114801:760,-0.44232200000000005,0.143372,-0.098633,-0.081089,0.000531,0.043611000000000004,-31.75,4.25,14.18,1a
2019-07-12_114801:780,-0.41232299999999994,0.10116599999999999,-0.092529,-0.08475099999999999,-0.012103000000000001,0.03943,-31.75,4.25,14.18,1a
2019-07-12_114801:800,-0.40823400000000004,0.089478,-0.082336,-0.082737,-0.012927000000000001,0.045015,-31.75,4.25,14.18,1a
2019-07-12_114801:820,-0.417908,0.070648,-0.075226,-0.08090599999999999,-0.010851999999999999,0.050203,-31.75,5.37,12.75,1a
2019-07-12_114801:840,-0.42453,0.053863999999999995,-0.071686,-0.078952,-0.001117,0.054779999999999995,-31.75,5.37,12.75,1a
2019-07-12_114801:860,-0.41943400000000003,0.036591000000000005,-0.06405599999999999,-0.078586,0.0020570000000000002,0.053987,-31.75,5.37,12.75,1a
2019-07-12_114801:880,-0.415375,0.025421,-0.057953,-0.074863,0.009289,0.054323,-32.5,7.25,12.37,1a
2019-07-12_114801:900,-0.421967,-0.0025329999999999997,-0.051849,-0.07114,0.012066,0.050325,-32.5,7.25,12.37,1a
2019-07-12_114801:920,-0.41485600000000006,-0.013702,-0.049805,-0.06866799999999999,0.012738,0.046357999999999996,-31.0,8.87,11.06,1a
2019-07-12_114801:940,-0.401123,-0.022369,-0.038635,-0.060703,0.010754000000000001,0.033479,-31.0,8.87,11.06,1a
2019-07-12_114801:960,-0.40976,-0.024902,-0.035065,-0.057192999999999994,0.009167,0.030031,-31.0,8.87,11.06,1a
2019-07-12_114801:980,-0.489075,-0.032532,-0.028961,-0.047123000000000005,0.004315,0.022798,-30.25,12.18,12.37,1a
2019-07-12_114802:000,-0.517548,-0.032013,-0.033539,-0.039463,0.002972,0.021730000000000003,-30.25,12.18,12.37,1a
2019-07-12_114802:020,-0.556213,-0.037108999999999996,-0.019318000000000002,-0.035343,0.002575,0.020326,-29.5,13.25,13.06,1a
2019-07-12_114802:040,-0.564331,-0.039642000000000004,-0.019318000000000002,-0.025455000000000002,0.0007440000000000001,0.019258,-29.5,13.25,13.06,1a
2019-07-12_114802:060,-0.558228,-0.043213,-0.022369,-0.022616999999999998,1.2e-05,0.021852,-29.5,13.25,13.06,1a
2019-07-12_114802:080,-0.591797,-0.06405599999999999,-0.011687999999999999,-0.0116,-0.003314,0.027284,-29.18,14.37,9.87,1a
2019-07-12_114802:100,-0.743805,-0.07775900000000001,-0.061005,-0.006351,-0.009876000000000001,0.024232,-29.18,14.37,9.87,1a
2019-07-12_114802:120,-0.704163,-0.082855,-0.10675,-0.0037270000000000003,-0.010639000000000001,0.022462,-28.75,15.56,9.87,1a
2019-07-12_114802:140,-0.5979,-0.078796,-0.121002,-0.000675,-0.015552000000000002,0.020143,-28.75,15.56,9.87,1a
2019-07-12_114802:160,-0.49468999999999996,-0.083862,-0.178955,0.000302,-0.025379,0.028016000000000003,-29.18,16.0,11.56,1a
2019-07-12_114802:180,-0.412811,-0.105225,-0.21048000000000003,-0.000339,-0.033007999999999996,0.039186,-29.18,16.0,11.56,1a
2019-07-12_114802:200,-0.41842700000000005,-0.122528,-0.223694,-0.0019260000000000002,-0.026843000000000002,0.036469999999999995,-29.18,16.0,11.56,1a
2019-07-12_114802:220,-0.40570100000000003,-0.146423,-0.208954,-0.001194,-0.019275,0.031099,-28.370001000000002,15.56,9.56,1a
2019-07-12_114802:240,-0.502319,-0.152008,-0.1698,-0.000492,-0.003192,0.013153999999999999,-28.370001000000002,15.56,9.56,1a
2019-07-12_114802:260,-0.44433599999999995,-0.13269,-0.19775399999999999,-0.0016820000000000001,0.00224,0.001253,-28.370001000000002,15.56,9.56,1a
2019-07-12_114802:280,-0.36248800000000003,-0.134216,-0.183533,0.002438,-0.001117,-0.007201000000000001,-28.75,16.75,8.37,1a
2019-07-12_114802:300,-0.41485600000000006,-0.130127,-0.157074,0.000973,-0.011188,-0.0231,-28.75,16.75,8.37,1a
2019-07-12_114802:320,-0.465179,-0.111847,-0.17996199999999998,-0.001468,-0.020130000000000002,-0.024626,-28.370001000000002,16.370001000000002,9.56,1a
2019-07-12_114802:340,-0.45196499999999995,-0.11438,-0.165222,0.000698,-0.023791999999999997,-0.011778,-28.370001000000002,16.370001000000002,9.56,1a
2019-07-12_114802:360,-0.457581,-0.12048299999999999,-0.1586,0.001431,-0.024402,-0.017394,-28.370001000000002,16.370001000000002,9.56,1a
2019-07-12_114802:380,-0.439758,-0.099121,-0.147949,0.0009119999999999999,-0.021594,-0.038114999999999996,-28.75,15.68,7.56,1a
2019-07-12_114802:400,-0.42605600000000005,-0.075745,-0.13269,0.0027129999999999997,-0.019031,-0.046874,-28.75,15.68,7.56,1a
2019-07-12_114802:420,-0.45095799999999997,-0.057953,-0.11691300000000002,0.004757,-0.016162,-0.042357,-30.25,15.25,8.37,1a
2019-07-12_114802:440,-0.45095799999999997,-0.053375,-0.103699,0.0038420000000000004,-0.010791,-0.038633999999999995,-30.25,15.25,8.37,1a
2019-07-12_114802:460,-0.42605600000000005,-0.040161,-0.084381,0.00256,-0.004444,-0.035338,-30.25,15.25,8.37,1a
2019-07-12_114802:480,-0.420441,-0.031006,-0.076263,0.00198,0.000531,-0.028227,-31.370001000000002,13.75,8.75,1a
2019-07-12_114802:500,-0.439758,-0.025421,-0.069641,0.000851,0.004925,-0.02072,-31.370001000000002,13.75,8.75,1a
2019-07-12_114802:520,-0.440796,-0.020325,-0.068115,-0.001224,0.009015,-0.015868,-31.0,12.25,8.37,1a
2019-07-12_114802:540,-0.429108,-0.023375999999999997,-0.06405599999999999,-0.0033299999999999996,0.011487,-0.010648999999999999,-31.0,12.25,8.37,1a
2019-07-12_114802:560,-0.414337,-0.026917,-0.068634,-0.004764,0.011426,-0.0063159999999999996,-31.0,12.25,8.37,1a
2019-07-12_114802:580,-0.430634,-0.033539,-0.05996699999999999,-0.00629,0.011487,-0.004729,-32.5,11.5,9.87,1a
2019-07-12_114802:600,-0.48095699999999997,-0.036591000000000005,-0.056915,-0.009128,0.011883,-0.002989,-32.5,11.5,9.87,1a
2019-07-12_114802:620,-0.49316400000000005,-0.043701,-0.06253099999999999,-0.012119,0.010876,0.002778,-31.0,11.87,9.56,1a
2019-07-12_114802:640,-0.528229,-0.05285599999999999,-0.065582,-0.015171,0.008618,0.0058,-31.0,11.87,9.56,1a
2019-07-12_114802:660,-0.541443,-0.057953,-0.09149199999999999,-0.01923,0.003979,0.004732,-31.0,11.87,9.56,1a
2019-07-12_114802:680,-0.504333,-0.054901,-0.098633,-0.021884999999999998,-4.9e-05,0.0029620000000000002,-31.370001000000002,11.5,8.37,1a
2019-07-12_114802:700,-0.73111,-0.065582,-0.016753999999999998,-0.022556,-0.0030399999999999997,-0.0011279999999999999,-31.370001000000002,11.5,8.37,1a
2019-07-12_114802:720,-0.91922,0.0030210000000000002,-0.150482,-0.027012,-0.003925,-0.002135,-31.0,11.18,8.0,1a
2019-07-12_114802:740,-0.619751,0.0025329999999999997,-0.111328,-0.028141000000000003,-0.002796,0.007905,-31.0,11.18,8.0,1a
2019-07-12_114802:760,-0.367584,0.029968,-0.14032,-0.027652,-0.011706999999999999,0.001253,-31.0,11.18,8.0,1a
2019-07-12_114802:780,-0.33605999999999997,0.065063,-0.177948,-0.027012,-0.022083000000000002,-0.008574,-31.68,11.18,8.75,1a
2019-07-12_114802:800,-0.508423,0.081848,-0.152008,-0.019747999999999998,-0.024524,-0.017606999999999998,-31.68,11.18,8.75,1a
2019-07-12_114802:820,-0.680267,0.12454200000000001,-0.192169,-0.019565,-0.022144,-0.020537,-31.68,11.5,8.0,1a
2019-07-12_114802:840,-0.571442,0.14032,-0.177429,-0.018222,-0.019214,-0.008177,-31.68,11.5,8.0,1a
2019-07-12_114802:860,-0.515015,0.127106,-0.168274,-0.019382,-0.020069,0.002046,-31.68,11.5,8.0,1a
2019-07-12_114802:880,-0.519592,0.111328,-0.17538499999999999,-0.02222,-0.017016999999999997,0.010042,-33.18,11.87,6.75,1a
2019-07-12_114802:900,-0.489075,0.092529,-0.163177,-0.022556,-0.010974,0.023378,-33.18,11.87,6.75,1a
2019-07-12_114802:920,-0.45553599999999994,0.053375,-0.144379,-0.023868,-0.006945999999999999,0.031679,-33.560001,10.5,5.68,1a
2019-07-12_114802:940,-0.434692,0.035583,-0.130127,-0.025608,-0.0012699999999999999,0.029939,-33.560001,10.5,5.68,1a
2019-07-12_114802:960,-0.368591,0.023375999999999997,-0.10775799999999999,-0.027134,0.004376,0.027315,-33.560001,10.5,5.68,1a
2019-07-12_114802:980,-0.359955,0.013213999999999998,-0.088959,-0.02692,0.007916,0.028076999999999998,-34.0,11.18,6.5,1a
2019-07-12_114803:000,-0.36654699999999996,0.0030210000000000002,-0.079803,-0.027469,0.009442,0.027833,-34.0,11.18,6.5,1a
2019-07-12_114803:020,-0.364014,0.0025329999999999997,-0.070648,-0.027926999999999997,0.011334,0.026918,-34.0,13.06,5.25,1a
2019-07-12_114803:040,-0.358429,-0.0025329999999999997,-0.063538,-0.028385000000000004,0.010754000000000001,0.026764999999999997,-34.0,13.06,5.25,1a
2019-07-12_114803:060,-0.35943600000000003,-0.008636,-0.06253099999999999,-0.028201999999999998,0.008159999999999999,0.027223,-34.0,13.06,5.25,1a
2019-07-12_114803:080,-0.38385,-0.017273,-0.06405599999999999,-0.027469,0.005231,0.026307,-32.869999,13.5,5.68,1a
2019-07-12_114803:100,-0.376221,-0.021332,-0.069641,-0.026737,0.0020570000000000002,0.024965,-32.869999,13.5,5.68,1a
2019-07-12_114803:120,-0.43927,-0.030487,-0.056915,-0.024875,-0.00014099999999999998,0.024843,-33.18,14.56,6.5,1a
2019-07-12_114803:140,-0.45706199999999997,-0.032532,-0.078278,-0.022739,-0.001056,0.024263,-33.18,14.56,6.5,1a
2019-07-12_114803:160,-0.562805,-0.042694,-0.063019,-0.019291,0.001446,0.022462,-33.18,14.56,6.5,1a
2019-07-12_114803:180,-0.614166,-0.044739,-0.09454299999999999,-0.016391,0.00040899999999999997,0.020479,-32.869999,15.75,5.25,1a
2019-07-12_114803:200,-0.5734859999999999,-0.051849,-0.108276,-0.012790000000000001,-0.0008119999999999999,0.020723,-32.869999,15.75,5.25,1a
2019-07-12_114803:220,-0.501801,-0.061005,-0.112854,-0.008274,-0.0021850000000000003,0.020204,-33.18,15.75,4.5,1a
2019-07-12_114803:240,-0.736694,-0.095581,-0.076752,-0.003452,-0.006488,0.016267,-33.18,15.75,4.5,1a
2019-07-12_114803:260,-0.900909,-0.067108,-0.167755,0.0014609999999999998,-0.004383,0.011781,-33.18,15.75,4.5,1a
2019-07-12_114803:280,-0.569916,-0.108276,-0.148956,0.005093,-0.0061530000000000005,0.015137999999999999,-32.75,16.059998999999998,5.25,1a
2019-07-12_114803:300,-0.48043800000000003,-0.11843900000000002,-0.151001,0.014400999999999999,-0.009509,0.003023,-32.75,16.059998999999998,5.25,1a
2019-07-12_114803:320,-0.383331,-0.107269,-0.236389,0.015835,-0.018878,-0.008329999999999999,-33.060001,17.25,5.68,1a
2019-07-12_114803:340,-0.312653,-0.108795,-0.20233199999999998,0.022702,-0.018543,-2.8999999999999997e-05,-33.060001,17.25,5.68,1a
2019-07-12_114803:360,-0.622803,-0.12454200000000001,-0.144897,0.026668999999999998,-0.014025999999999999,0.010988,-33.060001,17.25,5.68,1a
2019-07-12_114803:380,-0.597382,-0.127594,-0.20742800000000003,0.024807,-0.005756,0.016939,-33.5,16.5,4.18,1a
2019-07-12_114803:400,-0.459595,-0.140808,-0.145905,0.026851999999999997,0.0016600000000000002,0.017091,-33.5,16.5,4.18,1a
2019-07-12_114803:420,-0.441284,-0.133179,-0.155548,0.028469,-0.0031309999999999997,0.005861,-33.5,16.870001000000002,5.0,1a
2019-07-12_114803:440,-0.46417200000000003,-0.101685,-0.156586,0.027614999999999997,-0.009143,-0.004912,-33.5,16.870001000000002,5.0,1a
2019-07-12_114803:460,-0.435699,-0.08843999999999999,-0.151489,0.025325999999999998,-0.013568,-0.004546,-33.5,16.870001000000002,5.0,1a
2019-07-12_114803:480,-0.43670699999999996,-0.08590700000000001,-0.130646,0.022885,-0.017475,-0.0011279999999999999,-33.5,16.5,5.25,1a
2019-07-12_114803:500,-0.42147799999999996,-0.080322,-0.12353499999999999,0.018978000000000002,-0.016559,-0.0068650000000000004,-33.5,16.5,5.25,1a
2019-07-12_114803:520,-0.40368699999999996,-0.065063,-0.09201000000000001,0.015438,-0.011768,-0.015531999999999999,-34.25,16.0,6.18,1a
2019-07-12_114803:540,-0.404694,-0.058441,-0.081329,0.012722,-0.005939,-0.017546,-34.25,16.0,6.18,1a
2019-07-12_114803:560,-0.402649,-0.059479,-0.071686,0.01022,-0.000263,-0.01602,-34.25,16.0,6.18,1a
2019-07-12_114803:580,-0.405212,-0.061005,-0.06405599999999999,0.007901,0.003857,-0.016204,-35.0,16.0,5.68,1a
2019-07-12_114803:600,-0.411285,-0.05996699999999999,-0.056915,0.006222,0.0057799999999999995,-0.016356,-35.0,16.0,5.68,1a
2019-07-12_114803:620,-0.412811,-0.06149299999999999,-0.053863999999999995,0.006039,0.006848000000000001,-0.014098,-35.369999,14.5,6.18,1a
2019-07-12_114803:640,-0.399597,-0.06253099999999999,-0.051330999999999995,0.0055509999999999995,0.00636,-0.012816,-35.369999,14.5,6.18,1a
2019-07-12_114803:660,-0.384338,-0.062012,-0.059479,0.004422,0.003125,-0.013243000000000001,-35.369999,14.5,6.18,1a
2019-07-12_114803:680,-0.407227,-0.06253099999999999,-0.052338,0.0039030000000000002,-0.001575,-0.013487,-35.75,13.75,6.18,1a
2019-07-12_114803:700,-0.46926899999999994,-0.06149299999999999,-0.050323,0.002652,-0.004901,-0.012816,-35.75,13.75,6.18,1a
2019-07-12_114803:720,-0.489075,-0.057953,-0.069641,-9.499999999999999e-05,-0.004779,-0.008513,-36.5,13.75,6.18,1a
2019-07-12_114803:740,-0.533325,-0.069122,-0.047272,-0.002475,-0.0032530000000000002,-0.003478,-36.5,13.75,6.18,1a
2019-07-12_114803:760,-0.544495,-0.08081100000000001,-0.081848,-0.004459,-0.003467,-0.0058579999999999995,-36.5,13.75,6.18,1a
2019-07-12_114803:780,-0.538391,-0.076263,-0.084381,-0.003788,-0.0025210000000000002,-0.015135,-37.25,13.0,6.5,1a
2019-07-12_114803:800,-0.608063,-0.038635,-0.066071,-0.0004,-0.00072,-0.02191,-37.25,13.0,6.5,1a
2019-07-12_114803:820,0.9846799999999999,0.0,-0.056427,0.000973,0.0060539999999999995,-0.018798,-36.869999,12.68,6.87,1a
2019-07-12_114803:840,-0.676697,0.017273,-0.159637,-0.0061070000000000004,0.001599,0.0029,-36.869999,12.68,6.87,1a
2019-07-12_114803:860,-0.590271,0.002014,-0.09201000000000001,-0.00629,0.010296,0.016603,-36.869999,12.68,6.87,1a
2019-07-12_114803:880,-0.48095699999999997,0.013213999999999998,-0.16217,-0.011051,-0.00014099999999999998,0.00757,-36.5,12.25,6.5,1a
2019-07-12_114803:900,-0.36554000000000003,0.039642000000000004,-0.170807,-0.012577,-0.0015140000000000002,-0.006804000000000001,-36.5,12.25,6.5,1a
2019-07-12_114803:920,-0.418915,0.063538,-0.11538699999999999,-0.011661,-0.004566,-0.01895,-37.560001,13.37,7.25,1a
2019-07-12_114803:940,-0.574493,0.079803,-0.117432,-0.015719999999999998,-0.0020629999999999997,-0.026244,-37.560001,13.37,7.25,1a
2019-07-12_114803:960,-0.517548,0.100647,-0.14032,-0.020481,0.003796,-0.013701,-37.560001,13.37,7.25,1a
2019-07-12_114803:980,-0.45043900000000003,0.084381,-0.108276,-0.023349,0.004254,0.008912,-38.25,12.25,6.87,1a
2019-07-12_114804:000,-0.47332799999999997,0.055389,-0.10318,-0.026614999999999996,-0.000598,0.016084,-38.25,12.25,6.87,1a
2019-07-12_114804:020,-0.522644,0.053863999999999995,-0.094055,-0.029177999999999996,-0.0009339999999999999,0.013643,-37.560001,11.5,8.5,1a
2019-07-12_114804:040,-0.47689799999999993,0.046265,-0.07928500000000001,-0.029636000000000003,0.000348,0.016298,-37.560001,11.5,8.5,1a
2019-07-12_114804:060,-0.451477,0.032532,-0.07421900000000001,-0.030063,-0.000781,0.018068,-37.560001,11.5,8.5,1a
2019-07-12_114804:080,-0.402161,0.014740000000000001,-0.073212,-0.03165,-0.00484,0.015565,-38.0,12.25,7.68,1a
2019-07-12_114804:100,-0.390961,0.0035399999999999997,-0.063538,-0.030704000000000002,-0.010242,0.017488,-38.0,12.25,7.68,1a
2019-07-12_114804:120,-0.40011599999999997,-0.012177,-0.053863999999999995,-0.027866000000000002,-0.013507,0.023042,-38.25,12.75,6.87,1a
2019-07-12_114804:140,-0.404175,-0.017273,-0.046265,-0.025272,-0.013507,0.024904,-38.25,12.75,6.87,1a
2019-07-12_114804:160,-0.408752,-0.012695,-0.034058,-0.023349,-0.01012,0.022767,-38.25,12.75,6.87,1a
2019-07-12_114804:180,-0.409271,-0.008118,-0.032013,-0.022341999999999997,-0.0070680000000000005,0.021852,-38.25,13.06,6.18,1a
2019-07-12_114804:200,-0.394531,-0.006072999999999999,-0.032013,-0.022098,-0.004169,0.02292,-38.25,13.06,6.18,1a
2019-07-12_114804:220,-0.38028,-0.009644,-0.03302,-0.022434,-0.001911,0.022522999999999998,-39.060001,14.56,6.18,1a
2019-07-12_114804:240,-0.421967,-0.020844,-0.009644,-0.022556,-0.00072,0.020387,-39.060001,14.56,6.18,1a
2019-07-12_114804:260,-0.434692,-0.026427999999999997,-0.025421,-0.021305,0.001263,0.019929,-39.060001,14.56,6.18,1a
2019-07-12_114804:280,-0.48300200000000004,-0.042694,0.004059,-0.017978,0.0037049999999999995,0.021272,-39.060001,14.25,6.18,1a
2019-07-12_114804:300,-0.55365,-0.055389,-0.014740000000000001,-0.013645,0.0024530000000000003,0.017152,-39.060001,14.25,6.18,1a
2019-07-12_114804:320,-0.568909,-0.058441,-0.072174,-0.008609,-0.005115,0.011506,-38.560001,15.37,5.0,1a
2019-07-12_114804:340,-0.529755,-0.06405599999999999,-0.072174,-0.001743,-0.012897,0.009828,-38.560001,15.37,5.0,1a
2019-07-12_114804:360,-0.580597,-0.078796,-0.091003,0.0042380000000000004,-0.021747,0.010773999999999999,-38.560001,15.37,5.0,1a
2019-07-12_114804:380,-0.9156489999999999,-0.069641,-0.144897,0.009793000000000001,-0.024585,0.010164,-37.869999,15.75,6.5,1a
2019-07-12_114804:400,-0.562286,-0.069641,-0.21402,0.0126,-0.024799,0.010713,-37.869999,15.75,6.5,1a
2019-07-12_114804:420,-0.56839,-0.09149199999999999,-0.135742,0.016842,-0.021472,0.005342,-37.5,15.25,4.37,1a
2019-07-12_114804:440,-0.565338,-0.069641,-0.23486300000000002,0.019162000000000002,-0.029102,-0.007201000000000001,-37.5,15.25,4.37,1a
2019-07-12_114804:460,-0.340118,-0.086426,-0.208954,0.01849,-0.024524,0.001192,-37.5,15.25,4.37,1a
2019-07-12_114804:480,-0.365021,-0.101685,-0.181488,0.023219999999999998,-0.020679,0.01056,-38.560001,16.5,5.18,1a
2019-07-12_114804:500,-0.639587,-0.100647,-0.185547,0.021817,-0.016284,0.008729,-38.560001,16.5,5.18,1a
2019-07-12_114804:520,-0.561279,-0.09811399999999999,-0.183014,0.020962,-0.004108,0.010255,-39.25,16.0,3.68,1a
2019-07-12_114804:540,-0.48196400000000006,-0.112854,-0.138794,0.023892,0.001935,0.014894,-39.25,16.0,3.68,1a
2019-07-12_114804:560,-0.490601,-0.106232,-0.14843800000000001,0.025814,-0.0014529999999999999,0.003572,-39.25,16.0,3.68,1a
2019-07-12_114804:580,-0.48754899999999995,-0.083862,-0.12048299999999999,0.023403,-0.002796,-0.007445,-39.25,16.370001000000002,3.25,1a
2019-07-12_114804:600,-0.45605500000000004,-0.082855,-0.118958,0.024136,-0.00426,-0.0015550000000000002,-39.25,16.370001000000002,3.25,1a
2019-07-12_114804:620,-0.41995200000000005,-0.081329,-0.111328,0.0238,-0.00893,-0.001891,-39.68,15.25,4.5,1a
2019-07-12_114804:640,-0.385376,-0.068634,-0.09811399999999999,0.020748,-0.010333,-0.015806999999999998,-39.68,15.25,4.5,1a
2019-07-12_114804:660,-0.37316900000000003,-0.049805,-0.079803,0.019375,-0.010791,-0.021788,-39.68,15.25,4.5,1a
2019-07-12_114804:680,-0.388916,-0.046265,-0.071686,0.017787999999999998,-0.009509,-0.02072,-39.25,14.87,6.18,1a
2019-07-12_114804:700,-0.410278,-0.041687,-0.06149299999999999,0.014400999999999999,-0.006670999999999999,-0.020262,-39.25,14.87,6.18,1a
2019-07-12_114804:720,-0.40774499999999997,-0.039124,-0.05438200000000001,0.01141,-0.003986,-0.01892,-40.5,14.5,5.68,1a
2019-07-12_114804:740,-0.40823400000000004,-0.037598,-0.045745999999999995,0.009609999999999999,-0.0021850000000000003,-0.015806999999999998,-40.5,14.5,5.68,1a
2019-07-12_114804:760,-0.41333000000000003,-0.038635,-0.046265,0.0074730000000000005,-0.000781,-0.014219999999999998,-40.5,14.5,5.68,1a
2019-07-12_114804:780,-0.426544,-0.03302,-0.045226999999999996,0.005246,0.000348,-0.014341999999999999,-40.5,13.37,5.68,1a
2019-07-12_114804:800,-0.40316799999999997,-0.027954000000000003,-0.052338,0.002896,0.000134,-0.011778,-40.5,13.37,5.68,1a
2019-07-12_114804:820,-0.410797,-0.026917,-0.051849,0.00018,-0.003192,-0.008849,-40.75,11.87,5.25,1a
2019-07-12_114804:840,-0.48349,-0.028442000000000002,-0.047791,-0.0037270000000000003,-0.007006999999999999,-0.0070480000000000004,-40.75,11.87,5.25,1a
2019-07-12_114804:860,-0.517548,-0.029968,-0.071167,-0.008213,-0.010851999999999999,-0.003935,-40.75,11.87,5.25,1a
2019-07-12_114804:880,-0.562805,-0.035583,-0.066589,-0.011722,-0.012775,-0.0011279999999999999,-40.75,11.5,6.18,1a
2019-07-12_114804:900,-0.564331,-0.039124,-0.097595,-0.014377000000000001,-0.014636000000000001,-0.0015550000000000002,-40.75,11.5,6.18,1a
2019-07-12_114804:920,-0.529755,-0.031494,-0.11080899999999999,-0.014988,-0.015643999999999998,-0.005278,-40.75,11.5,5.25,1a
2019-07-12_114804:940,-0.7590640000000001,-0.01828,-0.06149299999999999,-0.015171,-0.015888,-0.008513,-40.75,11.5,5.25,1a
2019-07-12_114804:960,-0.888702,0.023375999999999997,-0.174896,-0.019443000000000002,-0.013904,-0.0008230000000000001,-40.75,11.5,5.25,1a
2019-07-12_114804:980,-0.6797489999999999,0.008118,-0.096588,-0.022007,-0.001056,0.018739,-42.0,11.18,5.0,1a
2019-07-12_114805:000,-0.49316400000000005,0.013702,-0.142334,-0.023746,-0.0037719999999999997,0.026155,-42.0,11.18,5.0,1a
2019-07-12_114805:020,-0.334015,0.01828,-0.170319,-0.02396,-0.004718,0.019594,-42.0,10.75,4.18,1a
2019-07-12_114805:040,-0.365021,0.024384,-0.136749,-0.019015999999999998,-0.010333,0.0007639999999999999,-42.0,10.75,4.18,1a
2019-07-12_114805:060,-0.647705,0.047791,-0.161163,-0.019778999999999998,-0.013843000000000001,-0.014891,-42.0,10.75,4.18,1a
2019-07-12_114805:080,-0.578583,0.067596,-0.171844,-0.019504,-0.009998,-0.008695999999999999,-41.560001,11.18,5.25,1a
2019-07-12_114805:100,-0.49365200000000004,0.05996699999999999,-0.111847,-0.020298,-0.008197,0.001924,-41.560001,11.18,5.25,1a
2019-07-12_114805:120,-0.5073850000000001,0.055389,-0.124054,-0.024143,-0.006214,0.003023,-41.18,11.87,4.18,1a
2019-07-12_114805:140,-0.503845,0.063019,-0.109802,-0.025394,-8e-05,0.00525,-41.18,11.87,4.18,1a
2019-07-12_114805:160,-0.45907600000000004,0.050842,-0.104218,-0.025882,0.0016600000000000002,0.009767,-41.18,11.87,4.18,1a
2019-07-12_114805:180,-0.417908,0.035065,-0.096069,-0.027012,-0.000263,0.008638,-40.75,11.18,6.18,1a
2019-07-12_114805:200,-0.388916,0.028961,-0.086914,-0.027317,-0.0032530000000000002,0.010499,-40.75,11.18,6.18,1a
2019-07-12_114805:220,-0.35180700000000004,0.017273,-0.07016,-0.025669,-0.006336,0.019929,-41.560001,10.75,3.68,1a
2019-07-12_114805:240,-0.35943600000000003,0.006072999999999999,-0.06253099999999999,-0.023624000000000003,-0.009448,0.028076999999999998,-41.560001,10.75,3.68,1a
2019-07-12_114805:260,-0.391968,-0.001495,-0.059479,-0.022403,-0.010456,0.031282,-41.560001,10.75,3.68,1a
2019-07-12_114805:280,-0.397064,-0.004059,-0.054901,-0.021213,-0.00893,0.032197,-42.0,11.18,3.68,1a
2019-07-12_114805:300,-0.396057,-0.009644,-0.048279,-0.019778999999999998,-0.006885,0.031800999999999996,-42.0,11.18,3.68,1a
2019-07-12_114805:320,-0.395538,-0.012177,-0.05438200000000001,-0.019169,-0.006,0.028839999999999998,-41.560001,12.25,2.5,1a
2019-07-12_114805:340,-0.37316900000000003,-0.017273,-0.066071,-0.018955,-0.007984,0.025026,-41.560001,12.25,2.5,1a
2019-07-12_114805:360,-0.390442,-0.023375999999999997,-0.06149299999999999,-0.017521000000000002,-0.011188,0.021577000000000002,-41.560001,12.25,2.5,1a
2019-07-12_114805:380,-0.46060200000000007,-0.032013,-0.078796,-0.015719999999999998,-0.012836000000000002,0.0188,-41.18,13.06,3.0,1a
2019-07-12_114805:400,-0.536377,-0.041687,-0.050842,-0.012119,-0.00893,0.017824,-41.18,13.06,3.0,1a
2019-07-12_114805:420,-0.6060180000000001,-0.046752999999999996,-0.091003,-0.009861,-0.007801000000000001,0.016817,-42.0,14.56,2.5,1a
2019-07-12_114805:440,-0.566376,-0.049316000000000006,-0.102692,-0.0061070000000000004,-0.005573,0.017488,-42.0,14.56,2.5,1a
2019-07-12_114805:460,-0.541443,-0.057953,-0.09963999999999999,-0.00214,-0.005634,0.01523,-42.0,14.56,2.5,1a
2019-07-12_114805:480,-0.544495,-0.076263,-0.116425,0.001583,-0.006548999999999999,0.00992,-42.0,13.87,3.0,1a
2019-07-12_114805:500,-0.8002319999999999,-0.066589,-0.170807,0.005246,-0.007404000000000001,0.007448000000000001,-42.0,13.87,3.0,1a
2019-07-12_114805:520,-0.60553,-0.078278,-0.194702,0.008023,-0.010578,0.014558000000000001,-42.0,14.18,3.0,1a
2019-07-12_114805:540,-0.5495909999999999,-0.095581,-0.172333,0.011929,-0.016773,0.008241,-42.0,14.18,3.0,1a
2019-07-12_114805:560,-0.535858,-0.086914,-0.20843499999999998,0.009426,-0.02193,0.002687,-42.0,14.18,3.0,1a
2019-07-12_114805:580,-0.371643,-0.083862,-0.21505700000000003,0.01141,-0.021869,0.0058,-42.0,13.75,3.25,1a
2019-07-12_114805:600,-0.36654699999999996,-0.102173,-0.185059,0.010128,-0.018817,0.008058,-42.0,13.75,3.25,1a
2019-07-12_114805:620,-0.567383,-0.117432,-0.192688,0.009793000000000001,-0.012897,0.005067,-42.0,13.75,2.18,1a
2019-07-12_114805:640,-0.529755,-0.121002,-0.204376,0.012478,-0.00539,0.0038469999999999997,-42.0,13.75,2.18,1a
2019-07-12_114805:660,-0.441284,-0.131653,-0.148956,0.019039,-0.004169,-0.003539,-42.0,13.75,2.18,1a
2019-07-12_114805:680,-0.470276,-0.116425,-0.157074,0.022609999999999998,-0.007984,-0.014281,-42.68,13.75,1.75,1a
2019-07-12_114805:700,-0.478912,-0.08590700000000001,-0.14843800000000001,0.025875,-0.009723,-0.013091,-42.68,13.75,1.75,1a
2019-07-12_114805:720,-0.447388,-0.072174,-0.14743,0.028194999999999998,-0.014759,-0.005644,-43.060001,13.0,2.18,1a
2019-07-12_114805:740,-0.429108,-0.055389,-0.132172,0.026668999999999998,-0.017078,-0.008177,-43.060001,13.0,2.18,1a
2019-07-12_114805:760,-0.409271,-0.040161,-0.12200899999999999,0.022488,-0.016956,-0.015471,-43.060001,13.0,2.18,1a
2019-07-12_114805:780,-0.391479,-0.026427999999999997,-0.103699,0.018032,-0.014178999999999999,-0.017606999999999998,-43.369999,12.25,2.5,1a
2019-07-12_114805:800,-0.398071,-0.027954000000000003,-0.097595,0.012875,-0.011463,-0.017882,-43.369999,12.25,2.5,1a
2019-07-12_114805:820,-0.40823400000000004,-0.035065,-0.095581,0.007626000000000001,-0.008411,-0.018675,-43.0,11.18,1.25,1a
2019-07-12_114805:840,-0.41842700000000005,-0.037598,-0.08843999999999999,0.004177,-0.006275,-0.017333,-43.0,11.18,1.25,1a
2019-07-12_114805:860,-0.42807,-0.046265,-0.081848,0.003353,-0.004596,-0.015074,-43.0,11.18,1.25,1a
2019-07-12_114805:880,-0.41943400000000003,-0.054901,-0.078278,0.0028350000000000003,-0.002582,-0.014403000000000001,-43.369999,10.5,2.18,1a
2019-07-12_114805:900,-0.407227,-0.063019,-0.07775900000000001,0.0033840000000000003,-0.002246,-0.013365,-43.369999,10.5,2.18,1a
2019-07-12_114805:920,-0.385864,-0.068634,-0.091003,0.005154,-0.004444,-0.009459,-43.68,8.56,3.0,1a
2019-07-12_114805:940,-0.394531,-0.07016,-0.09149199999999999,0.007137999999999999,-0.00838,-0.008055,-43.68,8.56,3.0,1a
2019-07-12_114805:960,-0.476379,-0.06149299999999999,-0.091003,0.007626000000000001,-0.010669,-0.011045999999999999,-43.68,8.56,3.0,1a
2019-07-12_114805:980,-0.504333,-0.049316000000000006,-0.101685,0.006436,-0.008747,-0.011290000000000001,-44.18,7.87,2.5,1a
2019-07-12_114806:000,-0.5480649999999999,-0.046265,-0.079803,0.003964,-0.0052369999999999995,-0.0073230000000000005,-44.18,7.87,2.5,1a
2019-07-12_114806:020,-0.556213,-0.046265,-0.10928299999999999,-0.000675,-0.0017280000000000002,-0.004607,-45.25,7.5,2.5,1a
2019-07-12_114806:040,-0.508911,-0.038635,-0.124054,-0.004001,0.000134,-0.006072,-45.25,7.5,2.5,1a
2019-07-12_114806:060,-0.49517799999999995,-0.023895,-0.11795,-0.0065650000000000005,-0.0008119999999999999,-0.011748,-45.25,7.5,2.5,1a
2019-07-12_114806:080,-0.906006,-0.004059,-0.131165,-0.010256999999999999,-0.0008730000000000001,-0.013243000000000001,-44.560001,7.18,2.5,1a
2019-07-12_114806:100,-0.640594,0.011169,-0.257233,-0.014438,-0.009509,0.001436,-44.560001,7.18,2.5,1a
2019-07-12_114806:120,-0.585693,0.012177,-0.12149000000000001,-0.013858,-0.002979,0.011384,-45.0,6.06,2.5,1a
2019-07-12_114806:140,-0.397064,0.036591000000000005,-0.219635,-0.016697,-0.014422999999999998,0.008241,-45.0,6.06,2.5,1a
2019-07-12_114806:160,-0.314178,0.062012,-0.160645,-0.016575,-0.012988,0.001375,-45.0,6.06,2.5,1a
2019-07-12_114806:180,-0.45095799999999997,0.069122,-0.166229,-0.015231999999999999,-0.019275,-0.009825,-45.25,5.68,3.0,1a
2019-07-12_114806:200,-0.613129,0.09353600000000001,-0.222687,-0.017521000000000002,-0.019885,-0.019255,-45.25,5.68,3.0,1a
2019-07-12_114806:220,-0.5119630000000001,0.105743,-0.20486500000000002,-0.01865,-0.018146000000000002,-0.013701,-46.369999,5.0,2.18,1a
2019-07-12_114806:240,-0.48553500000000005,0.096588,-0.198273,-0.019291,-0.021869,-0.0016769999999999999,-46.369999,5.0,2.18,1a
2019-07-12_114806:260,-0.500275,0.094055,-0.19927999999999998,-0.020816,-0.021869,0.007965999999999999,-46.369999,5.0,2.18,1a
2019-07-12_114806:280,-0.519592,0.09201000000000001,-0.172852,-0.021884999999999998,-0.016834000000000002,0.019197,-45.0,4.18,2.5,1a
2019-07-12_114806:300,-0.49975600000000003,0.081848,-0.170807,-0.023227,-0.012897,0.027498,-45.0,4.18,2.5,1a
2019-07-12_114806:320,-0.45401,0.060486,-0.145386,-0.026004000000000003,-0.007923000000000001,0.027894,-47.5,3.87,1.75,1a
2019-07-12_114806:340,-0.42453,0.044739,-0.127594,-0.028446,-0.004229999999999999,0.029207,-47.5,3.87,1.75,1a
2019-07-12_114806:360,-0.382812,0.022858,-0.11538699999999999,-0.028537,-0.0013310000000000002,0.036256000000000004,-47.5,3.87,1.75,1a
2019-07-12_114806:380,-0.379272,0.0030210000000000002,-0.10116599999999999,-0.027256,0.000805,0.043213999999999995,-45.25,5.0,1.75,1a
2019-07-12_114806:400,-0.385376,-0.013702,-0.08743300000000001,-0.025211,0.0023309999999999997,0.045534,-45.25,5.0,1.75,1a
2019-07-12_114806:420,-0.377228,-0.015747,-0.090485,-0.022678,0.002972,0.044954,-46.369999,6.75,1.0,1a
2019-07-12_114806:440,-0.36554000000000003,-0.022369,-0.085388,-0.020084,0.001843,0.044008,-46.369999,6.75,1.0,1a
2019-07-12_114806:460,-0.358917,-0.026427999999999997,-0.086914,-0.017917,-0.0009339999999999999,0.042573,-46.369999,6.75,1.0,1a
2019-07-12_114806:480,-0.347748,-0.030487,-0.098633,-0.0163,-0.005054,0.040162,-46.75,8.0,1.0,1a
2019-07-12_114806:500,-0.346222,-0.038116000000000004,-0.10116599999999999,-0.015262000000000001,-0.009326000000000001,0.037568,-46.75,8.0,1.0,1a
2019-07-12_114806:520,-0.427063,-0.05438200000000001,-0.102173,-0.013522999999999999,-0.011401999999999999,0.034212,-45.25,10.87,1.75,1a
2019-07-12_114806:540,-0.446899,-0.069122,-0.104218,-0.011142,-0.011401999999999999,0.030945999999999998,-45.25,10.87,1.75,1a
2019-07-12_114806:560,-0.5872189999999999,-0.082336,-0.119965,-0.00748,-0.011768,0.02411,-45.25,10.87,1.75,1a
2019-07-12_114806:580,-0.572968,-0.079803,-0.17337,-0.0042450000000000005,-0.018421,0.017549000000000002,-46.369999,10.87,1.0,1a
2019-07-12_114806:600,-0.5348510000000001,-0.080322,-0.12506099999999998,0.000637,-0.018695,0.007997,-46.369999,10.87,1.0,1a
2019-07-12_114806:620,-0.5267029999999999,-0.072174,-0.13623,0.004361,-0.016559,-0.0038130000000000004,-46.75,11.56,1.25,1a
2019-07-12_114806:640,-0.8876950000000001,-0.054901,-0.159119,0.007351000000000001,-0.008594,-0.009429,-46.75,11.56,1.25,1a
2019-07-12_114806:660,-0.594849,-0.051330999999999995,-0.266388,0.0074730000000000005,-0.011646,-0.0031420000000000003,-46.75,11.56,1.25,1a
2019-07-12_114806:680,-0.52417,-0.074738,-0.153534,0.012142,-0.006885,-0.012297,-46.0,12.37,0.56,1a
2019-07-12_114806:700,-0.58316,-0.061005,-0.23486300000000002,0.009609999999999999,-0.020008,-0.02545,-46.0,12.37,0.56,1a
2019-07-12_114806:720,-0.501282,-0.06149299999999999,-0.22879000000000002,0.011654000000000001,-0.018024000000000002,-0.012969,-46.369999,10.75,0.18,1a
2019-07-12_114806:740,-0.44281000000000004,-0.0849,-0.22164899999999998,0.012081,-0.015979,0.005128,-46.369999,10.75,0.18,1a
2019-07-12_114806:760,-0.37674,-0.105225,-0.22927899999999998,0.010403,-0.015247,0.009767,-46.369999,10.75,0.18,1a
2019-07-12_114806:780,-0.484009,-0.111328,-0.194214,0.009396,-0.008258,0.010164,-47.060001,10.75,1.0,1a
2019-07-12_114806:800,-0.46875,-0.12301600000000001,-0.230804,0.008541,-0.003711,0.017946,-47.060001,10.75,1.0,1a
2019-07-12_114806:820,-0.410278,-0.135742,-0.199799,0.008999,0.000714,0.022066,-46.25,10.75,1.25,1a
2019-07-12_114806:840,-0.423004,-0.138275,-0.194702,0.006679999999999999,-0.0030399999999999997,0.015016,-46.25,10.75,1.25,1a
2019-07-12_114806:860,-0.432159,-0.130646,-0.194702,0.004574,-0.006275,0.009523,-46.25,10.75,1.25,1a
2019-07-12_114806:880,-0.40774499999999997,-0.12200899999999999,-0.17944300000000002,0.0035060000000000004,-0.007129000000000001,0.006257,-46.68,11.18,1.75,1a
2019-07-12_114806:900,-0.399109,-0.111328,-0.166748,0.001126,-0.008472,-0.004515,-46.68,11.18,1.75,1a
2019-07-12_114806:920,-0.397064,-0.087952,-0.156067,-0.002475,-0.008808,-0.017333,-46.68,10.75,1.75,1a
2019-07-12_114806:940,-0.399597,-0.078278,-0.145905,-0.004978,-0.006731999999999999,-0.021605000000000003,-46.68,10.75,1.75,1a
2019-07-12_114806:960,-0.401123,-0.07928500000000001,-0.130127,-0.006168,-0.004718,-0.020049,-46.68,10.75,1.75,1a
2019-07-12_114806:980,-0.409271,-0.079803,-0.12558,-0.007267,-0.002704,-0.019530000000000002,-47.060001,9.68,1.25,1a
2019-07-12_114807:000,-0.414337,-0.079803,-0.11843900000000002,-0.0067480000000000005,-0.001392,-0.018675,-47.060001,9.68,1.25,1a
2019-07-12_114807:020,-0.41586300000000004,-0.083374,-0.112854,-0.004825,-0.001056,-0.016538999999999998,-47.75,9.37,0.18,1a
2019-07-12_114807:040,-0.42807,-0.07928500000000001,-0.11691300000000002,-0.002414,-0.001941,-0.015288,-47.75,9.37,0.18,1a
2019-07-12_114807:060,-0.420441,-0.077271,-0.119476,-0.000675,-0.004108,-0.013212999999999999,-47.75,9.37,0.18,1a
2019-07-12_114807:080,-0.414337,-0.07421900000000001,-0.12200899999999999,0.00137,-0.0061530000000000005,-0.009703,-47.75,8.18,1.0,1a
2019-07-12_114807:100,-0.42605600000000005,-0.071167,-0.127594,0.002255,-0.008014,-0.0070480000000000004,-47.75,8.18,1.0,1a
2019-07-12_114807:120,-0.44995100000000005,-0.06149299999999999,-0.130646,0.001431,-0.008533,-0.006072,-47.369999,7.87,0.56,1a
2019-07-12_114807:140,-0.477386,-0.054901,-0.137756,-0.0013460000000000002,-0.0076170000000000005,-0.004454,-47.369999,7.87,0.56,1a
2019-07-12_114807:160,-0.529755,-0.049316000000000006,-0.133179,-0.006351,-0.004047,-0.0008230000000000001,-47.369999,7.87,0.56,1a
2019-07-12_114807:180,-0.545013,-0.05285599999999999,-0.13269,-0.012577,0.002118,0.0026260000000000003,-49.25,6.37,1.75,1a
2019-07-12_114807:200,-0.537384,-0.051849,-0.131165,-0.016971,0.009686,0.0017100000000000001,-49.25,6.37,1.75,1a
2019-07-12_114807:220,-0.5246890000000001,-0.049316000000000006,-0.134705,-0.021274,0.014081,-0.004393,-49.25,6.06,1.0,1a
2019-07-12_114807:240,-0.516541,-0.029968,-0.11843900000000002,-0.02396,0.014874,-0.006652,-49.25,6.06,1.0,1a
2019-07-12_114807:260,-0.833282,-0.022369,-0.107269,-0.027469,0.011761,-0.00067,-49.25,6.06,1.0,1a
2019-07-12_114807:280,-0.634003,-0.011169,-0.196747,-0.032505,-0.0045049999999999995,0.017488,-48.869999,5.68,2.18,1a
2019-07-12_114807:300,-0.595856,-0.009125,-0.142853,-0.034702,-0.00539,0.020845,-48.869999,5.68,2.18,1a
2019-07-12_114807:320,-0.517548,0.015228,-0.185059,-0.038334,-0.014025999999999999,0.014344999999999998,-48.869999,6.5,1.75,1a
2019-07-12_114807:340,-0.426544,0.033539,-0.185547,-0.037204,-0.009937,0.007203,-48.869999,6.5,1.75,1a
2019-07-12_114807:360,-0.374695,0.047791,-0.149963,-0.034244,-0.005115,-0.003203,-48.869999,6.5,1.75,1a
2019-07-12_114807:380,-0.477386,0.064545,-0.14843800000000001,-0.034092000000000004,-0.000598,-0.016265,-48.869999,6.75,3.0,1a
2019-07-12_114807:400,-0.529755,0.095581,-0.18096900000000002,-0.036747,0.003979,-0.009093,-48.869999,6.75,3.0,1a
2019-07-12_114807:420,-0.416901,0.079803,-0.154022,-0.036686,0.005383,0.013429,-49.25,6.75,1.25,1a
2019-07-12_114807:440,-0.432159,0.07016,-0.14843800000000001,-0.037814999999999994,0.001324,0.019075,-49.25,6.75,1.25,1a
2019-07-12_114807:460,-0.490601,0.08743300000000001,-0.152008,-0.040195,-0.002643,0.011231999999999999,-49.25,6.75,1.25,1a
2019-07-12_114807:480,-0.465179,0.09454299999999999,-0.15506,-0.041263,-0.0031309999999999997,0.015535,-48.869999,6.75,2.18,1a
2019-07-12_114807:500,-0.42807,0.07928500000000001,-0.154022,-0.04285,-0.005573,0.026704000000000002,-48.869999,6.75,2.18,1a
2019-07-12_114807:520,-0.417908,0.065582,-0.160126,-0.047977,-0.010578,0.02823,-48.869999,6.5,1.25,1a
2019-07-12_114807:540,-0.401642,0.043701,-0.153534,-0.051822,-0.01485,0.032014,-48.869999,6.5,1.25,1a
2019-07-12_114807:560,-0.39859,0.022369,-0.140808,-0.051609,-0.015888,0.042482,-48.869999,6.5,1.25,1a
2019-07-12_114807:580,-0.42453,-0.0030210000000000002,-0.124054,-0.04935,-0.012714,0.047029,-48.869999,8.68,1.0,1a
2019-07-12_114807:600,-0.42147799999999996,-0.010651,-0.12200899999999999,-0.046909,-0.00719,0.0459,-48.869999,8.68,1.0,1a
2019-07-12_114807:620,-0.423004,-0.020325,-0.10775799999999999,-0.04285,-0.0014529999999999999,0.047882999999999995,-49.68,10.18,1.25,1a
2019-07-12_114807:640,-0.43774399999999997,-0.025421,-0.100647,-0.038334,0.002972,0.049318,-49.68,10.18,1.25,1a
2019-07-12_114807:660,-0.417389,-0.025421,-0.102692,-0.035709,0.005902,0.0459,-49.68,10.18,1.25,1a
2019-07-12_114807:680,-0.383331,-0.027435,-0.10116599999999999,-0.033847,0.005963,0.043641,-47.75,12.0,1.0,1a
2019-07-12_114807:700,-0.385864,-0.039642000000000004,-0.08743300000000001,-0.030857,0.003918,0.040956,-47.75,12.0,1.0,1a
2019-07-12_114807:720,-0.421967,-0.038116000000000004,-0.100647,-0.027805,0.000256,0.034212,-47.369999,12.37,0.56,1a
2019-07-12_114807:740,-0.465179,-0.041168,-0.103699,-0.024143,-0.00365,0.028901,-47.369999,12.37,0.56,1a
2019-07-12_114807:760,-0.528229,-0.043213,-0.104218,-0.019015999999999998,-0.006488,0.023988,-47.369999,12.37,0.56,1a
2019-07-12_114807:780,-0.5709529999999999,-0.036072,-0.139282,-0.015597999999999999,-0.010059,0.018953,-46.68,15.37,1.25,1a
2019-07-12_114807:800,-0.508423,-0.034546,-0.127594,-0.011875,-0.008472,0.017335,-46.68,15.37,1.25,1a
2019-07-12_114807:820,-0.540955,-0.051849,-0.105743,-0.0069,-0.004779,0.013826,-46.68,15.75,0.56,1a
2019-07-12_114807:840,-0.7839659999999999,-0.053375,-0.134216,-0.004001,-0.005176,0.009187,-46.68,15.75,0.56,1a
2019-07-12_114807:860,-0.569916,-0.044219999999999995,-0.21148699999999998,-0.002597,-0.0125,0.022127,-46.68,15.75,0.56,1a
2019-07-12_114807:880,-0.558228,-0.07421900000000001,-0.144379,0.003781,-0.013568,0.029756,-45.869999,16.059998999999998,-0.68,1a
2019-07-12_114807:900,-0.474854,-0.045226999999999996,-0.266388,0.004025,-0.029560000000000003,0.018463999999999998,-45.869999,16.059998999999998,-0.68,1a
2019-07-12_114807:920,-0.395538,-0.048798,-0.23895300000000003,0.005246,-0.03374,0.018678,-46.68,16.870001000000002,0.56,1a
2019-07-12_114807:940,-0.371643,-0.058441,-0.268951,0.004971,-0.034809,0.029146,-46.68,16.870001000000002,0.56,1a
2019-07-12_114807:960,-0.379791,-0.069641,-0.272491,0.001248,-0.030780000000000002,0.040833999999999995,-46.68,16.870001000000002,0.56,1a
2019-07-12_114807:980,-0.515015,-0.08996599999999999,-0.240479,-0.0036049999999999997,-0.019885,0.043031,-45.560001,18.0,0.56,1a
2019-07-12_114808:000,-0.507904,-0.082855,-0.26181,-0.009861,-0.010456,0.043427999999999994,-45.560001,18.0,0.56,1a
2019-07-12_114808:020,-0.47280900000000003,-0.088959,-0.224701,-0.017582,0.001202,0.038972,-44.869999,19.059998999999998,-0.18,1a
2019-07-12_114808:040,-0.462128,-0.086426,-0.22421300000000002,-0.022892,0.002575,0.03293,-44.869999,19.059998999999998,-0.18,1a
2019-07-12_114808:060,-0.45043900000000003,-0.076752,-0.203369,-0.03696,0.008832,0.029481,-44.869999,19.059998999999998,-0.18,1a
2019-07-12_114808:080,-0.42605600000000005,-0.07928500000000001,-0.201324,-0.044376,0.010144,0.037324,-43.560001,21.0,-1.75,1a
2019-07-12_114808:100,-0.393005,-0.081329,-0.198273,-0.051029000000000005,0.008435,0.033082,-43.560001,21.0,-1.75,1a
2019-07-12_114808:120,-0.387909,-0.074738,-0.197266,-0.057529,0.004376,0.019319,-43.369999,22.5,-1.37,1a
2019-07-12_114808:140,-0.411804,-0.049316000000000006,-0.197266,-0.06283899999999999,0.0018739999999999998,0.012086,-43.369999,22.5,-1.37,1a
2019-07-12_114808:160,-0.416382,-0.036072,-0.19574,-0.068363,0.0023309999999999997,0.014344999999999998,-43.369999,22.5,-1.37,1a
2019-07-12_114808:180,-0.425537,-0.024902,-0.193176,-0.076328,0.0036439999999999997,0.019472,-43.0,22.75,-1.75,1a
2019-07-12_114808:200,-0.44281000000000004,-0.018799,-0.197266,-0.08527,0.006451,0.025697,-43.0,22.75,-1.75,1a
2019-07-12_114808:220,-0.458588,-0.024384,-0.192169,-0.093784,0.011212,0.032014,-42.18,22.5,-2.56,1a
2019-07-12_114808:240,-0.45706199999999997,-0.032013,-0.193695,-0.102329,0.015941999999999998,0.036867000000000004,-42.18,22.5,-2.56,1a
2019-07-12_114808:260,-0.43518100000000004,-0.045745999999999995,-0.193695,-0.109287,0.019635,0.04004,-42.18,22.5,-2.56,1a
2019-07-12_114808:280,-0.42605600000000005,-0.055908000000000006,-0.194702,-0.11594000000000002,0.022168,0.040437,-41.869999,24.559998999999998,-3.0,1a
2019-07-12_114808:300,-0.45553599999999994,-0.074738,-0.190643,-0.12256199999999999,0.024640000000000002,0.041841,-41.869999,24.559998999999998,-3.0,1a
2019-07-12_114808:320,-0.45553599999999994,-0.089478,-0.187592,-0.12729200000000002,0.029278,0.047212,-40.0,25.0,-4.56,1a
2019-07-12_114808:340,-0.447906,-0.11843900000000002,-0.16217,-0.130741,0.035443,0.050538,-40.0,25.0,-4.56,1a
2019-07-12_114808:360,-0.45806899999999995,-0.130646,-0.163696,-0.132999,0.039227,0.051392999999999994,-40.0,25.0,-4.56,1a
2019-07-12_114808:380,-0.390961,-0.153015,-0.159119,-0.131199,0.041302,0.051332,-39.18,25.370001000000002,-6.18,1a
2019-07-12_114808:400,-0.416901,-0.167755,-0.137756,-0.129398,0.038281,0.044832,-39.18,25.370001000000002,-6.18,1a
2019-07-12_114808:420,-0.45553599999999994,-0.168274,-0.168793,-0.126499,0.032451999999999995,0.040833999999999995,-38.5,26.870001000000002,-6.56,1a
2019-07-12_114808:440,-0.447388,-0.1698,-0.149475,-0.121647,0.028821,0.038392,-38.5,26.870001000000002,-6.56,1a
2019-07-12_114808:460,-0.47180200000000005,-0.160645,-0.144897,-0.11813699999999999,0.024548,0.030945999999999998,-38.5,26.870001000000002,-6.56,1a
2019-07-12_114808:480,-0.523163,-0.157074,-0.139282,-0.117923,0.021588,0.028169,-37.75,27.5,-9.37,1a
2019-07-12_114808:500,-0.547058,-0.112854,-0.258759,-0.121982,0.013347999999999999,0.048219,-37.75,27.5,-9.37,1a
2019-07-12_114808:520,-0.522125,-0.12149000000000001,-0.18096900000000002,-0.123905,0.013531,0.053864999999999996,-37.75,27.18,-10.06,1a
2019-07-12_114808:540,-0.492126,-0.071686,-0.217072,-0.128696,0.006116,0.033998,-37.75,27.18,-10.06,1a
2019-07-12_114808:560,-0.537903,-0.019806,-0.197266,-0.129947,0.015668,0.008790000000000001,-37.75,27.18,-10.06,1a
2019-07-12_114808:580,-0.528748,0.048279,-0.157593,-0.130802,0.03291,-0.011565,-36.0,27.870001000000002,-12.5,1a
2019-07-12_114808:600,-0.6161800000000001,0.081848,-0.146912,-0.134525,0.051373,-0.027098,-36.0,27.870001000000002,-12.5,1a
2019-07-12_114808:620,-0.613647,0.161163,-0.19165,-0.138706,0.063916,-0.021330000000000002,-35.25,25.559998999999998,-14.06,1a
2019-07-12_114808:640,-0.514008,0.192169,-0.17690999999999998,-0.140293,0.06782200000000001,-0.001952,-35.25,25.559998999999998,-14.06,1a
2019-07-12_114808:660,-0.473846,0.206909,-0.156067,-0.146396,0.060864,0.012239,-35.25,25.559998999999998,-14.06,1a
2019-07-12_114808:680,-0.484009,0.212006,-0.154541,-0.151645,0.051830999999999995,0.028687999999999998,-37.75,23.370001000000002,-16.059998999999998,1a
2019-07-12_114808:700,-0.473846,0.177948,-0.149475,-0.155613,0.040813999999999996,0.047151,-37.75,23.370001000000002,-16.059998999999998,1a
2019-07-12_114808:720,-0.462128,0.16217,-0.14843800000000001,-0.15729100000000001,0.028393,0.054779999999999995,-37.869999,20.75,-15.18,1a
2019-07-12_114808:740,-0.432159,0.122528,-0.137268,-0.15723,0.016186000000000002,0.053773,-37.869999,20.75,-15.18,1a
2019-07-12_114808:760,-0.41232299999999994,0.095062,-0.130646,-0.153232,0.006634,0.056032000000000005,-37.869999,20.75,-15.18,1a
2019-07-12_114808:780,-0.394531,0.077271,-0.128113,-0.147861,0.001385,0.060274,-38.18,21.5,-17.559998999999998,1a
2019-07-12_114808:800,-0.397583,0.049316000000000006,-0.114899,-0.142887,-0.0015140000000000002,0.062349,-38.18,21.5,-17.559998999999998,1a
2019-07-12_114808:820,-0.41995200000000005,0.031494,-0.11080899999999999,-0.137302,-0.001209,0.063875,-37.18,19.5,-20.0,1a
2019-07-12_114808:840,-0.44027700000000003,0.010651,-0.104706,-0.131992,0.0016600000000000002,0.065919,-37.18,19.5,-20.0,1a
2019-07-12_114808:860,-0.45401,-0.0035399999999999997,-0.094055,-0.126102,0.00636,0.063203,-37.18,19.5,-20.0,1a
2019-07-12_114808:880,-0.45706199999999997,-0.016753999999999998,-0.085388,-0.12079200000000001,0.011548000000000001,0.055025,-35.68,18.75,-22.370001000000002,1a
2019-07-12_114808:900,-0.439758,-0.020325,-0.077271,-0.115146,0.015941999999999998,0.048005,-35.68,18.75,-22.370001000000002,1a
2019-07-12_114808:920,-0.41384899999999997,-0.035583,-0.072174,-0.108188,0.017804,0.044832,-35.25,17.68,-22.75,1a
2019-07-12_114808:940,-0.40316799999999997,-0.038635,-0.072174,-0.10001,0.017987,0.040162,-35.25,17.68,-22.75,1a
2019-07-12_114808:960,-0.41333000000000003,-0.045745999999999995,-0.047272,-0.090519,0.016858,0.033723,-35.25,17.68,-22.75,1a
2019-07-12_114808:980,-0.427063,-0.046752999999999996,-0.045226999999999996,-0.079837,0.014599,0.027437,-35.25,16.870001000000002,-25.559998999999998,1a
2019-07-12_114809:000,-0.5109560000000001,-0.028961,-0.050323,-0.071201,0.011365,0.02411,-35.25,16.870001000000002,-25.559998999999998,1a
2019-07-12_114809:020,-0.5205989999999999,-0.026427999999999997,-0.05438200000000001,-0.064243,0.009167,0.023195,-34.869999,15.87,-25.18,1a
2019-07-12_114809:040,-0.528229,-0.036591000000000005,-0.070648,-0.061924,0.009442,0.021516,-34.869999,15.87,-25.18,1a
2019-07-12_114809:060,-0.624847,-0.066071,-0.051849,-0.06030599999999999,0.014813,0.01941,-34.869999,15.87,-25.18,1a
2019-07-12_114809:080,-0.8861690000000001,-0.096588,-0.111847,-0.060184,0.018384,0.026764999999999997,-35.68,15.18,-26.0,1a
2019-07-12_114809:100,-0.865326,-0.156586,-0.157593,-0.05243300000000001,0.033306999999999996,0.022401,-35.68,15.18,-26.0,1a
2019-07-12_114809:120,-0.545013,-0.145905,-0.20233199999999998,-0.039219,0.026867000000000002,-0.001067,-35.25,14.37,-24.75,1a
2019-07-12_114809:140,-0.172333,-0.10775799999999999,-0.196747,-0.029575,0.01402,-0.028105,-35.25,14.37,-24.75,1a
2019-07-12_114809:160,-0.495697,-0.038116000000000004,-0.183533,-0.027256,-0.001178,-0.014678,-35.25,14.37,-24.75,1a
2019-07-12_114809:180,-0.579071,-0.038116000000000004,-0.201324,-0.024814,-0.0015140000000000002,0.032625,-35.68,12.75,-25.18,1a
2019-07-12_114809:200,-0.537903,-0.09353600000000001,-0.172333,-0.024692,0.000866,0.047425999999999996,-35.68,12.75,-25.18,1a
2019-07-12_114809:220,-0.514496,-0.087952,-0.156067,-0.026858999999999997,-0.006731999999999999,0.012147,-36.369999,12.06,-25.18,1a
2019-07-12_114809:240,-0.49517799999999995,-0.058441,-0.154541,-0.032779,-0.011768,-0.022063,-36.369999,12.06,-25.18,1a
2019-07-12_114809:260,-0.491638,-0.005065999999999999,-0.148956,-0.037754,-0.013904,-0.015562999999999999,-36.369999,12.06,-25.18,1a
2019-07-12_114809:280,-0.439758,-0.005065999999999999,-0.14032,-0.039158,-0.015247,-0.005644,-36.369999,12.06,-24.870001000000002,1a
2019-07-12_114809:300,-0.392487,-0.03302,-0.13623,-0.051761,-0.025318,-0.004607,-36.369999,12.06,-24.870001000000002,1a
2019-07-12_114809:320,-0.397583,-0.041687,-0.134705,-0.054599,-0.027637000000000002,-0.008849,-35.68,10.56,-25.68,1a
2019-07-12_114809:340,-0.412811,-0.048279,-0.127594,-0.055332000000000006,-0.026386,-0.008452,-35.68,10.56,-25.68,1a
2019-07-12_114809:360,-0.43518100000000004,-0.05285599999999999,-0.11691300000000002,-0.055667999999999995,-0.019885,-0.010314,-35.68,10.56,-25.68,1a
2019-07-12_114809:380,-0.448425,-0.049316000000000006,-0.102173,-0.057865,-0.011798000000000001,-0.012236,-36.0,8.37,-27.25,1a
2019-07-12_114809:400,-0.45043900000000003,-0.045226999999999996,-0.088959,-0.058138999999999996,-0.00539,-0.006377000000000001,-36.0,8.37,-27.25,1a
2019-07-12_114809:420,-0.448425,-0.050842,-0.085388,-0.05740700000000001,-0.001056,-0.000426,-35.68,7.0,-28.059998999999998,1a
2019-07-12_114809:440,-0.462128,-0.05285599999999999,-0.0737,-0.057803999999999994,0.002118,-0.002257,-35.68,7.0,-28.059998999999998,1a
2019-07-12_114809:460,-0.460114,-0.048798,-0.068634,-0.058323,0.003918,-0.003539,-35.68,7.0,-28.059998999999998,1a
2019-07-12_114809:480,-0.455017,-0.048798,-0.064545,-0.057803999999999994,0.004986,-0.003325,-34.5,4.75,-27.68,1a
2019-07-12_114809:500,-0.42147799999999996,-0.055389,-0.073212,-0.057468,0.0033079999999999997,-0.004058,-34.5,4.75,-27.68,1a
2019-07-12_114809:520,-0.407227,-0.058960000000000005,-0.076263,-0.056614,-0.00038500000000000003,-0.004149,-35.68,3.25,-28.059998999999998,1a
2019-07-12_114809:540,-0.443329,-0.066071,-0.08081100000000001,-0.055332000000000006,-0.0037719999999999997,0.000642,-35.68,3.25,-28.059998999999998,1a
2019-07-12_114809:560,-0.51297,-0.0737,-0.068115,-0.053013,-0.004993,0.006593000000000001,-35.68,3.25,-28.059998999999998,1a
2019-07-12_114809:580,-0.522644,-0.083374,-0.081848,-0.050419,-0.004961999999999999,0.007661,-35.68,1.37,-27.25,1a
2019-07-12_114809:600,-0.5058590000000001,-0.08743300000000001,-0.069122,-0.047977,-0.006458,0.002382,-35.68,1.37,-27.25,1a
2019-07-12_114809:620,-0.572968,-0.08743300000000001,-0.075745,-0.044529,-0.009998,-0.000731,-36.060001,0.25,-28.18,1a
2019-07-12_114809:640,-0.503326,-0.070648,-0.095581,-0.039066000000000004,-0.013965,-0.0014939999999999999,-36.060001,0.25,-28.18,1a
2019-07-12_114809:660,-0.49316400000000005,-0.023375999999999997,-0.069122,-0.038761000000000004,-0.022815000000000002,-0.0038130000000000004,-36.060001,0.25,-28.18,1a
2019-07-12_114809:680,-0.8521120000000001,0.040161,-0.12658699999999998,-0.040928,-0.024738,-0.002288,-35.0,-0.75,-28.18,1a
2019-07-12_114809:700,-0.522125,0.051330999999999995,-0.241486,-0.046116000000000004,-0.035297,0.017152,-35.0,-0.75,-28.18,1a
2019-07-12_114809:720,-0.40823400000000004,0.038116000000000004,-0.135742,-0.045841,-0.036548000000000004,0.016298,-35.75,-1.87,-28.18,1a
2019-07-12_114809:740,-0.391479,0.061005,-0.21505700000000003,-0.044864,-0.042896,0.006837,-35.75,-1.87,-28.18,1a
2019-07-12_114809:760,-0.408752,0.08843999999999999,-0.177948,-0.034152999999999996,-0.027576,0.004609,-35.75,-1.87,-28.18,1a
2019-07-12_114809:780,-0.644165,0.107269,-0.139282,-0.030979000000000003,-0.01955,0.001161,-33.869999,-4.06,-29.370001000000002,1a
2019-07-12_114809:800,-0.569916,0.163696,-0.22164899999999998,-0.030307,-0.004169,-0.004149,-33.869999,-4.06,-29.370001000000002,1a
2019-07-12_114809:820,-0.516022,0.182007,-0.18096900000000002,-0.030063,-0.00365,-0.003539,-34.25,-5.18,-30.18,1a
2019-07-12_114809:840,-0.49316400000000005,0.189636,-0.21859699999999999,-0.038363999999999995,-0.017078,0.000306,-34.25,-5.18,-30.18,1a
2019-07-12_114809:860,-0.49365200000000004,0.186584,-0.187073,-0.040989,-0.021197999999999998,0.008790000000000001,-34.25,-5.18,-30.18,1a
2019-07-12_114809:880,-0.444855,0.167267,-0.192688,-0.042911000000000005,-0.024738,0.013032,-33.5,-6.0,-29.370001000000002,1a
2019-07-12_114809:900,-0.42807,0.147949,-0.189117,-0.047306,-0.033405000000000004,0.015535,-33.5,-6.0,-29.370001000000002,1a
2019-07-12_114809:920,-0.376221,0.119476,-0.170807,-0.048984,-0.035419,0.016267,-32.75,-6.68,-31.5,1a
2019-07-12_114809:940,-0.342163,0.099121,-0.153015,-0.048556999999999996,-0.040057999999999996,0.027101,-32.75,-6.68,-31.5,1a
2019-07-12_114809:960,-0.315704,0.070648,-0.135742,-0.047031,-0.040607,0.033998,-32.75,-6.68,-31.5,1a
2019-07-12_114809:980,-0.31723,0.05438200000000001,-0.128113,-0.045902,-0.04079,0.036073,-33.060001,-8.18,-30.68,1a
2019-07-12_114810:000,-0.347748,0.039642000000000004,-0.12506099999999998,-0.041996,-0.037067,0.041352999999999994,-33.060001,-8.18,-30.68,1a
2019-07-12_114810:020,-0.36044299999999996,0.033539,-0.12454200000000001,-0.040531,-0.034351,0.044008,-31.559998999999998,-7.87,-31.5,1a
2019-07-12_114810:040,-0.34875500000000004,0.024384,-0.134705,-0.036289,-0.02779,0.047425999999999996,-31.559998999999998,-7.87,-31.5,1a
2019-07-12_114810:060,-0.34570300000000004,0.012695,-0.14386,-0.033451,-0.024188,0.043764,-31.559998999999998,-7.87,-31.5,1a
2019-07-12_114810:080,-0.43518100000000004,-0.0055850000000000006,-0.141846,-0.031498000000000005,-0.021594,0.040773000000000004,-29.75,-7.5,-33.0,1a
2019-07-12_114810:100,-0.508423,-0.009125,-0.163696,-0.024662,-0.013233000000000002,0.033875999999999996,-29.75,-7.5,-33.0,1a
2019-07-12_114810:120,-0.564331,-0.020325,-0.17690999999999998,-0.021427,-0.009052,0.032472,-30.559998999999998,-7.5,-31.870001000000002,1a
2019-07-12_114810:140,-0.559265,-0.025908999999999998,-0.18096900000000002,-0.012058,-0.00072,0.024659999999999998,-30.559998999999998,-7.5,-31.870001000000002,1a
2019-07-12_114810:160,-0.545532,-0.034546,-0.205902,-0.005832,-4.9e-05,0.017824,-30.559998999999998,-7.5,-31.870001000000002,1a
2019-07-12_114810:180,-0.50943,-0.044739,-0.227264,-0.002933,-0.001056,0.015169,-31.25,-7.06,-32.25,1a
2019-07-12_114810:200,-0.589233,-0.067596,-0.252686,0.010067,-0.013628999999999999,0.004609,-31.25,-7.06,-32.25,1a
2019-07-12_114810:220,-0.890747,-0.074738,-0.266907,0.01492,-0.017475,-0.0008230000000000001,-31.25,-6.68,-31.870001000000002,1a
2019-07-12_114810:240,-0.596863,-0.073212,-0.334534,0.021572,-0.028644,-0.007994,-31.25,-6.68,-31.870001000000002,1a
2019-07-12_114810:260,-0.696014,-0.085388,-0.257751,0.035488,-0.019946000000000002,-0.0054,-31.25,-6.68,-31.870001000000002,1a
2019-07-12_114810:280,-0.616699,-0.103699,-0.315216,0.033718,-0.01369,-0.000731,-30.559998999999998,-6.0,-33.0,1a
2019-07-12_114810:300,-0.462128,-0.118958,-0.270966,0.039334,0.016797,0.01587,-30.559998999999998,-6.0,-33.0,1a
2019-07-12_114810:320,-0.296387,-0.146912,-0.24658200000000002,0.039425,0.022168,0.019929,-30.559998999999998,-6.0,-33.0,1a
2019-07-12_114810:340,-0.349274,-0.157074,-0.20233199999999998,0.044979000000000005,0.028546,0.015809,-30.870001000000002,-5.56,-33.0,1a
2019-07-12_114810:360,-0.42248500000000005,-0.156067,-0.24758899999999998,0.046505,0.026135000000000002,0.008851000000000001,-30.870001000000002,-5.56,-33.0,1a
2019-07-12_114810:380,-0.334534,-0.14843800000000001,-0.223175,0.047116000000000005,0.020062,-0.004058,-32.0,-3.37,-32.68,1a
2019-07-12_114810:400,-0.300476,-0.121002,-0.172852,0.046658,0.009411,-0.009429,-32.0,-3.37,-32.68,1a
2019-07-12_114810:420,-0.377228,-0.11233499999999999,-0.181488,0.041806,-0.0023989999999999997,-0.009307,-32.369999,-1.18,-31.870001000000002,1a
2019-07-12_114810:440,-0.36248800000000003,-0.096069,-0.193176,0.036373,-0.009448,-0.012175,-32.369999,-1.18,-31.870001000000002,1a
2019-07-12_114810:460,-0.346222,-0.080322,-0.168793,0.029994999999999997,-0.015643999999999998,-0.030088999999999998,-32.369999,-1.18,-31.870001000000002,1a
2019-07-12_114810:480,-0.35943600000000003,-0.049316000000000006,-0.16217,0.027798000000000003,-0.016712,-0.037047000000000004,-32.369999,-0.06,-32.18,1a
2019-07-12_114810:500,-0.36706500000000003,-0.031006,-0.151489,0.021633000000000003,-0.013628999999999999,-0.046019,-32.369999,-0.06,-32.18,1a
2019-07-12_114810:520,-0.378754,-0.014740000000000001,-0.133179,0.019833,-0.011798000000000001,-0.044737,-32.369999,-0.06,-32.18,1a
2019-07-12_114810:540,-0.391968,-0.012177,-0.134705,0.013729,-0.008075,-0.037169,-32.0,-0.06,-30.68,1a
2019-07-12_114810:560,-0.410797,-0.010651,-0.12558,0.012387,-0.006214,-0.03488,-32.0,-0.06,-30.68,1a
2019-07-12_114810:580,-0.42453,-0.008636,-0.13269,0.009396,-0.004718,-0.031737,-32.0,-1.18,-31.870001000000002,1a
2019-07-12_114810:600,-0.406738,-0.010651,-0.147949,0.006954999999999999,-0.005359,-0.027892,-32.0,-1.18,-31.870001000000002,1a
2019-07-12_114810:620,-0.394012,-0.010651,-0.148956,0.00549,-0.007984,-0.023924,-32.0,-1.87,-32.18,1a
2019-07-12_114810:640,-0.391968,-0.011687999999999999,-0.16217,0.00259,-0.011066,-0.021391999999999998,-32.0,-1.87,-32.18,1a
2019-07-12_114810:660,-0.406738,-0.010651,-0.160645,-0.00214,-0.012042,-0.014678,-32.0,-1.87,-32.18,1a
2019-07-12_114810:680,-0.47433500000000006,-0.014740000000000001,-0.172333,-0.00394,-0.012103000000000001,-0.012754999999999999,-31.559998999999998,-2.68,-31.870001000000002,1a
2019-07-12_114810:700,-0.500793,-0.015747,-0.190643,-0.011326000000000001,-0.010669,-0.006987,-31.559998999999998,-2.68,-31.870001000000002,1a
2019-07-12_114810:720,-0.566376,-0.022369,-0.19165,-0.013462,-0.009265,-0.004515,-31.559998999999998,-2.68,-31.870001000000002,1a
2019-07-12_114810:740,-0.581635,-0.030487,-0.194702,-0.016909999999999998,-0.006548999999999999,-0.0005480000000000001,-31.559998999999998,-3.37,-31.870001000000002,1a
2019-07-12_114810:760,-0.517548,-0.025908999999999998,-0.201324,-0.018497,-0.000598,-0.0017989999999999998,-31.559998999999998,-3.37,-31.870001000000002,1a
2019-07-12_114810:780,-0.490601,-0.002014,-0.21505700000000003,-0.018375,0.003583,-0.006712999999999999,-31.559998999999998,-4.5,-33.369999,1a
2019-07-12_114810:800,-0.965485,0.048279,-0.20639000000000002,-0.018619,0.0036439999999999997,-0.010497,-31.559998999999998,-4.5,-33.369999,1a
2019-07-12_114810:820,-0.519073,0.061005,-0.40368699999999996,-0.024600999999999998,-0.010456,-0.002013,-31.559998999999998,-4.5,-33.369999,1a
2019-07-12_114810:840,-0.46670500000000004,0.047791,-0.188599,-0.025211,0.0036439999999999997,0.017884999999999998,-31.25,-5.18,-32.18,1a
2019-07-12_114810:860,-0.298431,0.046752999999999996,-0.309113,-0.026462,-0.008869,0.026887,-31.25,-5.18,-32.18,1a
2019-07-12_114810:880,-0.37674,0.053375,-0.236389,-0.024997,-0.005695,0.020784,-31.25,-4.87,-32.18,1a
2019-07-12_114810:900,-0.593811,0.067596,-0.246063,-0.021824,-0.009601,0.002565,-31.25,-4.87,-32.18,1a
2019-07-12_114810:920,-0.489075,0.097107,-0.28927600000000003,-0.023349,-0.01485,-0.009245999999999999,-31.25,-4.87,-32.18,1a
2019-07-12_114810:940,-0.469757,0.10318,-0.222687,-0.021213,-0.014422999999999998,-0.0063159999999999996,-32.0,-5.56,-32.18,1a
2019-07-12_114810:960,-0.49365200000000004,0.094055,-0.24658200000000002,-0.024204,-0.017108,0.001314,-32.0,-5.56,-32.18,1a
2019-07-12_114810:980,-0.478912,0.09149199999999999,-0.223694,-0.024418000000000002,-0.010669,0.012361,-32.369999,-6.37,-32.18,1a
2019-07-12_114811:000,-0.41333000000000003,0.069641,-0.198792,-0.024600999999999998,-0.006945999999999999,0.023530000000000002,-32.369999,-6.37,-32.18,1a
2019-07-12_114811:020,-0.401123,0.050323,-0.183533,-0.023533000000000002,-0.0052369999999999995,0.027162000000000002,-32.369999,-6.37,-32.18,1a
2019-07-12_114811:040,-0.388916,0.028961,-0.170319,-0.022892,-0.004566,0.026094,-31.25,-6.68,-32.68,1a
2019-07-12_114811:060,-0.371643,0.021332,-0.151489,-0.02103,-0.0015140000000000002,0.02823,-31.25,-6.68,-32.68,1a
2019-07-12_114811:080,-0.368591,0.0035399999999999997,-0.128113,-0.018161,0.002911,0.03293,-31.559998999999998,-6.68,-31.5,1a
2019-07-12_114811:100,-0.377747,-0.0025329999999999997,-0.12200899999999999,-0.015231999999999999,0.006848000000000001,0.032686,-31.559998999999998,-6.68,-31.5,1a
2019-07-12_114811:120,-0.364532,-0.002014,-0.119965,-0.013462,0.009686,0.028291000000000004,-31.559998999999998,-6.68,-31.5,1a
2019-07-12_114811:140,-0.369598,0.0,-0.109802,-0.010745999999999999,0.010541,0.024385,-32.369999,-6.37,-31.5,1a
2019-07-12_114811:160,-0.396545,0.0,-0.11691300000000002,-0.008732,0.009747,0.021272,-32.369999,-6.37,-31.5,1a
2019-07-12_114811:180,-0.36248800000000003,-0.0030210000000000002,-0.129639,-0.007267,0.00935,0.018587,-33.060001,-6.37,-31.0,1a
2019-07-12_114811:200,-0.398071,-0.004547,-0.12048299999999999,-0.0052829999999999995,0.008099,0.01587,-33.060001,-6.37,-31.0,1a
2019-07-12_114811:220,-0.47079499999999996,-0.0055850000000000006,-0.149963,-0.003116,0.007763,0.01291,-33.060001,-6.37,-31.0,1a
2019-07-12_114811:240,-0.519592,-0.008118,-0.146912,-0.000797,0.007916,0.010316,-33.060001,-5.56,-30.68,1a
2019-07-12_114811:260,-0.588226,-0.006072999999999999,-0.180481,0.002652,0.0069700000000000005,0.00757,-33.060001,-5.56,-30.68,1a
2019-07-12_114811:280,-0.565338,-0.009644,-0.185059,0.004025,0.004895,0.006379,-34.560001,-5.18,-31.5,1a
2019-07-12_114811:300,-0.48196400000000006,-0.021851,-0.189117,0.0072900000000000005,0.006512,0.007509,-34.560001,-5.18,-31.5,1a
2019-07-12_114811:320,-0.529266,-0.03302,-0.20080599999999998,0.010006000000000001,0.0020570000000000002,0.006044,-34.560001,-5.18,-31.5,1a
2019-07-12_114811:340,-0.79718,-0.025421,-0.283173,0.01379,-0.005695,-0.000884,-34.560001,-5.56,-31.0,1a
2019-07-12_114811:360,-0.516022,-0.025421,-0.307068,0.014644999999999998,-0.020496,-0.0058579999999999995,-34.560001,-5.56,-31.0,1a
2019-07-12_114811:380,-0.46670500000000004,-0.037598,-0.24658200000000002,0.017575,-0.01781,-0.0070480000000000004,-34.560001,-5.18,-31.870001000000002,1a
2019-07-12_114811:400,-0.41485600000000006,-0.054901,-0.29742399999999997,0.014859,-0.022663,-0.009429,-34.560001,-5.18,-31.870001000000002,1a
2019-07-12_114811:420,-0.397583,-0.072174,-0.22216799999999998,0.012081,-0.010578,-0.002257,-34.560001,-5.18,-31.870001000000002,1a
2019-07-12_114811:440,-0.544006,-0.08996599999999999,-0.227264,0.010281,-0.002704,0.009248000000000001,-34.560001,-4.5,-31.870001000000002,1a
2019-07-12_114811:460,-0.45043900000000003,-0.11538699999999999,-0.258759,0.009212999999999999,-0.0008119999999999999,0.018922,-34.560001,-4.5,-31.870001000000002,1a
2019-07-12_114811:480,-0.433655,-0.122528,-0.20080599999999998,0.01199,-0.002338,0.010652,-33.869999,-4.87,-31.0,1a
2019-07-12_114811:500,-0.431122,-0.114899,-0.23486300000000002,0.013211,-0.0066099999999999996,0.004091,-33.869999,-4.87,-31.0,1a
2019-07-12_114811:520,-0.443329,-0.096588,-0.21606399999999998,0.018124,-0.012988,-0.008634999999999999,-33.869999,-4.87,-31.0,1a
2019-07-12_114811:540,-0.412811,-0.070648,-0.213531,0.019833,-0.019,-0.011290000000000001,-33.869999,-3.75,-31.870001000000002,1a
2019-07-12_114811:560,-0.41333000000000003,-0.051330999999999995,-0.200317,0.019955,-0.021015,-0.015471,-33.869999,-3.75,-31.870001000000002,1a
2019-07-12_114811:580,-0.40011599999999997,-0.024384,-0.17538499999999999,0.017575,-0.018634,-0.019988,-34.560001,-4.06,-31.870001000000002,1a
2019-07-12_114811:600,-0.399109,-0.009125,-0.154022,0.014584,-0.013172,-0.021453,-34.560001,-4.06,-31.870001000000002,1a
2019-07-12_114811:620,-0.411804,0.001495,-0.137268,0.0108,-0.006458,-0.020049,-34.560001,-4.06,-31.870001000000002,1a
2019-07-12_114811:640,-0.412811,0.005065999999999999,-0.12506099999999998,0.006344,0.000805,-0.018675,-33.5,-3.75,-31.870001000000002,1a
2019-07-12_114811:660,-0.40316799999999997,0.002014,-0.11795,0.0032310000000000004,0.005627,-0.017089,-33.5,-3.75,-31.870001000000002,1a
2019-07-12_114811:680,-0.40011599999999997,-0.002014,-0.11233499999999999,0.001034,0.007640999999999999,-0.014219999999999998,-33.5,-3.68,-33.0,1a
2019-07-12_114811:700,-0.402161,-0.008636,-0.111328,0.00018,0.007763,-0.012023,-33.5,-3.68,-33.0,1a
2019-07-12_114811:720,-0.39859,-0.011169,-0.112854,-0.000553,0.007245000000000001,-0.010709999999999999,-33.5,-3.68,-33.0,1a
2019-07-12_114811:740,-0.392487,-0.012177,-0.10928299999999999,-0.001011,0.006299,-0.008329999999999999,-33.060001,-4.5,-31.0,1a
2019-07-12_114811:760,-0.43011499999999997,-0.013213999999999998,-0.10675,-0.0022010000000000003,0.005108,-0.005522,-33.060001,-4.5,-31.0,1a
2019-07-12_114811:780,-0.49722299999999997,-0.016266,-0.12353499999999999,-0.004642,0.003522,-0.001891,-33.5,-4.87,-30.68,1a
2019-07-12_114811:800,-0.490601,-0.017792,-0.13269,-0.00748,0.00227,0.002778,-33.5,-4.87,-30.68,1a
