timestamp,AccX,AccY,AccZ,GyroX,GyroY,GyroZ,MagX,MagY,MagZ,Activity
2019-07-12_100637:880,-0.452484,-0.047791,-0.201843,-0.001468,-0.00484,0.002168,-48.75,-14.25,-27.68,2b
2019-07-12_100637:900,-0.45043900000000003,-0.047791,-0.19927999999999998,-0.0013460000000000002,-0.004961999999999999,0.002687,-48.369999,-13.87,-26.18,2b
2019-07-12_100637:920,-0.452484,-0.045745999999999995,-0.19927999999999998,-0.001285,-0.0052369999999999995,0.003023,-48.369999,-13.87,-26.18,2b
2019-07-12_100637:940,-0.45401,-0.043701,-0.19775399999999999,-0.001865,-0.00484,0.0029620000000000002,-48.369999,-13.87,-26.18,2b
2019-07-12_100637:960,-0.453003,-0.041687,-0.197266,-0.002475,-0.004718,0.002382,-48.0,-15.0,-27.25,2b
2019-07-12_100637:980,-0.45401,-0.039642000000000004,-0.19622799999999999,-0.003544,-0.004657,0.002382,-48.0,-15.0,-27.25,2b
2019-07-12_100638:000,-0.454529,-0.039642000000000004,-0.195221,-0.004520000000000001,-0.00484,0.0027170000000000002,-48.0,-14.56,-27.25,2b
2019-07-12_100638:020,-0.454529,-0.041168,-0.194702,-0.0051,-0.004993,0.0029620000000000002,-48.0,-14.56,-27.25,2b
2019-07-12_100638:040,-0.454529,-0.043701,-0.194214,-0.005741,-0.0052369999999999995,0.003511,-48.0,-14.56,-27.25,2b
2019-07-12_100638:060,-0.454529,-0.045226999999999996,-0.195221,-0.005893,-0.005817,0.003633,-48.0,-14.56,-27.25,2b
2019-07-12_100638:080,-0.451477,-0.045745999999999995,-0.194702,-0.005619,-0.0061530000000000005,0.003633,-48.0,-14.56,-27.25,2b
2019-07-12_100638:100,-0.45043900000000003,-0.044739,-0.19574,-0.005344,-0.006731999999999999,0.00403,-48.0,-15.0,-25.68,2b
2019-07-12_100638:120,-0.45196499999999995,-0.046752999999999996,-0.19622799999999999,-0.004886,-0.006670999999999999,0.004274,-48.0,-15.0,-25.68,2b
2019-07-12_100638:140,-0.45196499999999995,-0.044739,-0.19775399999999999,-0.004520000000000001,-0.0070680000000000005,0.0034189999999999997,-48.0,-15.0,-25.68,2b
2019-07-12_100638:160,-0.455017,-0.042694,-0.197266,-0.004123,-0.007404000000000001,0.0034189999999999997,-47.68,-14.25,-26.870001000000002,2b
2019-07-12_100638:180,-0.455017,-0.043213,-0.198792,-0.003879,-0.007465,0.005006,-47.68,-14.25,-26.870001000000002,2b
2019-07-12_100638:200,-0.454529,-0.043213,-0.200317,-0.004123,-0.00719,0.005067,-48.369999,-15.0,-28.18,2b
2019-07-12_100638:220,-0.454529,-0.043213,-0.20080599999999998,-0.004764,-0.006945999999999999,0.004213000000000001,-48.369999,-15.0,-28.18,2b
2019-07-12_100638:240,-0.45401,-0.043701,-0.20080599999999998,-0.004978,-0.006793,0.004182,-48.369999,-15.0,-28.18,2b
2019-07-12_100638:260,-0.45401,-0.045745999999999995,-0.20080599999999998,-0.0051,-0.006458,0.004182,-47.25,-14.56,-26.5,2b
2019-07-12_100638:280,-0.454529,-0.045226999999999996,-0.199799,-0.005222,-0.006092,0.004091,-47.25,-14.56,-26.5,2b
2019-07-12_100638:300,-0.455017,-0.047791,-0.201324,-0.005161,-0.005878,0.004335,-46.869999,-15.0,-28.5,2b
2019-07-12_100638:320,-0.455017,-0.047272,-0.201324,-0.004886,-0.005878,0.004274,-46.869999,-15.0,-28.5,2b
2019-07-12_100638:340,-0.453491,-0.045745999999999995,-0.20080599999999998,-0.004764,-0.005756,0.004091,-46.869999,-15.0,-28.5,2b
2019-07-12_100638:360,-0.453491,-0.045745999999999995,-0.200317,-0.004642,-0.005725,0.004152,-48.0,-15.37,-27.68,2b
2019-07-12_100638:380,-0.45196499999999995,-0.045226999999999996,-0.198792,-0.004703,-0.005725,0.004091,-48.0,-15.37,-27.68,2b
2019-07-12_100638:400,-0.45196499999999995,-0.044739,-0.200317,-0.004612,-0.005695,0.00403,-48.0,-15.0,-27.68,2b
2019-07-12_100638:420,-0.453003,-0.044219999999999995,-0.198273,-0.004642,-0.005756,0.0039689999999999994,-48.0,-15.0,-27.68,2b
2019-07-12_100638:440,-0.453491,-0.044219999999999995,-0.19775399999999999,-0.004764,-0.006,0.0038469999999999997,-48.0,-15.0,-27.68,2b
2019-07-12_100638:460,-0.45401,-0.044739,-0.198273,-0.004886,-0.006092,0.003908,-46.869999,-13.87,-27.25,2b
2019-07-12_100638:480,-0.453003,-0.045226999999999996,-0.19775399999999999,-0.005161,-0.006092,0.004091,-46.869999,-13.87,-27.25,2b
2019-07-12_100638:500,-0.453003,-0.046265,-0.198792,-0.0051,-0.006,0.004091,-48.0,-14.25,-27.25,2b
2019-07-12_100638:520,-0.45401,-0.045745999999999995,-0.19927999999999998,-0.005039,-0.006488,0.004152,-48.0,-14.25,-27.25,2b
2019-07-12_100638:540,-0.452484,-0.044739,-0.199799,-0.004825,-0.006336,0.004152,-48.0,-14.25,-27.25,2b
2019-07-12_100638:560,-0.453491,-0.044739,-0.200317,-0.004703,-0.006548999999999999,0.00403,-47.25,-15.0,-27.25,2b
2019-07-12_100638:580,-0.453491,-0.045745999999999995,-0.200317,-0.004642,-0.006793,0.003908,-47.25,-15.0,-27.25,2b
2019-07-12_100638:600,-0.452484,-0.044739,-0.201324,-0.004459,-0.006488,0.003908,-48.0,-13.87,-27.0,2b
2019-07-12_100638:620,-0.453003,-0.043213,-0.200317,-0.004275999999999999,-0.006336,0.0038469999999999997,-48.0,-13.87,-27.0,2b
2019-07-12_100638:640,-0.45401,-0.043701,-0.20233199999999998,-0.004337,-0.006458,0.0039689999999999994,-48.0,-13.87,-27.0,2b
2019-07-12_100638:660,-0.455017,-0.044219999999999995,-0.201324,-0.004337,-0.006397,0.004457,-48.0,-14.25,-28.18,2b
2019-07-12_100638:680,-0.454529,-0.043213,-0.201843,-0.004520000000000001,-0.006214,0.004182,-48.0,-14.25,-28.18,2b
2019-07-12_100638:700,-0.452484,-0.044219999999999995,-0.201324,-0.004764,-0.005878,0.00403,-48.0,-14.25,-28.18,2b
2019-07-12_100638:720,-0.45605500000000004,-0.044219999999999995,-0.201324,-0.004825,-0.005939,0.0038469999999999997,-48.0,-14.25,-28.18,2b
2019-07-12_100638:740,-0.451477,-0.044739,-0.20080599999999998,-0.004978,-0.005695,0.0039689999999999994,-48.0,-14.25,-28.18,2b
2019-07-12_100638:760,-0.453003,-0.045226999999999996,-0.20233199999999998,-0.004612,-0.005634,0.0039689999999999994,-48.369999,-15.0,-28.18,2b
2019-07-12_100638:780,-0.453003,-0.044739,-0.201324,-0.004581,-0.005878,0.0034189999999999997,-48.369999,-15.0,-28.18,2b
2019-07-12_100638:800,-0.453003,-0.042694,-0.20233199999999998,-0.004520000000000001,-0.006,0.004274,-47.68,-14.56,-27.68,2b
2019-07-12_100638:820,-0.453491,-0.043701,-0.201324,-0.004184,-0.005725,0.00525,-47.68,-14.56,-27.68,2b
2019-07-12_100638:840,-0.453491,-0.044219999999999995,-0.201843,-0.004337,-0.00539,0.004518,-47.68,-14.56,-27.68,2b
2019-07-12_100638:860,-0.45043900000000003,-0.043213,-0.199799,-0.004612,-0.005115,0.003572,-47.68,-14.25,-27.25,2b
2019-07-12_100638:880,-0.452484,-0.044219999999999995,-0.201324,-0.004398,-0.004993,0.003694,-47.68,-14.25,-27.25,2b
2019-07-12_100638:900,-0.453003,-0.043701,-0.201324,-0.0042450000000000005,-0.005359,0.0038469999999999997,-47.68,-14.25,-27.25,2b
2019-07-12_100638:920,-0.453491,-0.042694,-0.198792,-0.004184,-0.005359,0.004091,-47.68,-14.25,-27.25,2b
2019-07-12_100638:940,-0.454529,-0.041168,-0.199799,-0.004123,-0.005695,0.004609,-47.68,-14.25,-27.25,2b
2019-07-12_100638:960,-0.453491,-0.041168,-0.199799,-0.004123,-0.005634,0.004793,-47.68,-14.56,-27.68,2b
2019-07-12_100638:980,-0.453491,-0.041687,-0.199799,-0.004459,-0.005817,0.004396,-47.68,-14.56,-27.68,2b
2019-07-12_100639:000,-0.451477,-0.042175,-0.198273,-0.004978,-0.005817,0.004854,-48.369999,-14.25,-28.18,2b
2019-07-12_100639:020,-0.45043900000000003,-0.046265,-0.199799,-0.0051,-0.005878,0.005525,-48.369999,-14.25,-28.18,2b
2019-07-12_100639:040,-0.45043900000000003,-0.045226999999999996,-0.20080599999999998,-0.0051,-0.0060609999999999995,0.004274,-48.369999,-14.25,-28.18,2b
2019-07-12_100639:060,-0.45196499999999995,-0.045226999999999996,-0.201843,-0.005039,-0.006275,0.004213000000000001,-48.369999,-15.0,-26.870001000000002,2b
2019-07-12_100639:080,-0.453003,-0.047791,-0.201324,-0.004642,-0.006397,0.005586,-48.369999,-15.0,-26.870001000000002,2b
2019-07-12_100639:100,-0.454529,-0.046752999999999996,-0.201324,-0.004581,-0.006336,0.005586,-48.369999,-14.56,-26.870001000000002,2b
2019-07-12_100639:120,-0.45401,-0.045745999999999995,-0.200317,-0.004581,-0.006092,0.004335,-48.369999,-14.56,-26.870001000000002,2b
2019-07-12_100639:140,-0.452484,-0.046752999999999996,-0.20080599999999998,-0.004642,-0.006,0.00403,-48.369999,-14.56,-26.870001000000002,2b
2019-07-12_100639:160,-0.45196499999999995,-0.046265,-0.200317,-0.004581,-0.005725,0.004335,-47.68,-15.0,-27.25,2b
2019-07-12_100639:180,-0.453003,-0.046265,-0.20080599999999998,-0.004581,-0.005878,0.004213000000000001,-47.68,-15.0,-27.25,2b
2019-07-12_100639:200,-0.45401,-0.046265,-0.201843,-0.004520000000000001,-0.005817,0.004213000000000001,-47.68,-14.56,-26.870001000000002,2b
2019-07-12_100639:220,-0.453003,-0.046265,-0.20080599999999998,-0.004337,-0.005756,0.004152,-47.68,-14.56,-26.870001000000002,2b
2019-07-12_100639:240,-0.453491,-0.045226999999999996,-0.20080599999999998,-0.004275999999999999,-0.005695,0.0039689999999999994,-47.68,-14.56,-26.870001000000002,2b
2019-07-12_100639:260,-0.453491,-0.045226999999999996,-0.20080599999999998,-0.004581,-0.0055119999999999995,0.004152,-48.0,-14.56,-27.25,2b
2019-07-12_100639:280,-0.453003,-0.045226999999999996,-0.200317,-0.004581,-0.005359,0.004152,-48.0,-14.56,-27.25,2b
2019-07-12_100639:300,-0.451477,-0.045226999999999996,-0.201324,-0.004581,-0.005756,0.00403,-48.369999,-14.25,-27.68,2b
2019-07-12_100639:320,-0.452484,-0.045226999999999996,-0.20080599999999998,-0.004581,-0.005878,0.0039689999999999994,-48.369999,-14.25,-27.68,2b
2019-07-12_100639:340,-0.452484,-0.044739,-0.20080599999999998,-0.004581,-0.005939,0.004182,-48.369999,-14.25,-27.68,2b
2019-07-12_100639:360,-0.452484,-0.043701,-0.200317,-0.004275999999999999,-0.005817,0.004335,-47.68,-15.0,-26.5,2b
2019-07-12_100639:380,-0.451477,-0.044219999999999995,-0.19927999999999998,-0.004123,-0.005817,0.004396,-47.68,-15.0,-26.5,2b
2019-07-12_100639:400,-0.45196499999999995,-0.043701,-0.201324,-0.004337,-0.0060609999999999995,0.004457,-48.0,-14.56,-26.5,2b
2019-07-12_100639:420,-0.453003,-0.044219999999999995,-0.197266,-0.004612,-0.0061530000000000005,0.004335,-48.0,-14.56,-26.5,2b
2019-07-12_100639:440,-0.453003,-0.044739,-0.199799,-0.004947,-0.005939,0.004548,-48.0,-14.56,-26.5,2b
2019-07-12_100639:460,-0.453003,-0.045745999999999995,-0.20080599999999998,-0.005039,-0.0060609999999999995,0.004457,-48.0,-15.37,-28.5,2b
2019-07-12_100639:480,-0.45196499999999995,-0.045745999999999995,-0.199799,-0.004947,-0.0060609999999999995,0.004182,-48.0,-15.37,-28.5,2b
2019-07-12_100639:500,-0.45095799999999997,-0.046265,-0.201843,-0.004703,-0.006275,0.004182,-48.0,-14.25,-27.68,2b
2019-07-12_100639:520,-0.45196499999999995,-0.046265,-0.20080599999999998,-0.004642,-0.006397,0.004274,-48.0,-14.25,-27.68,2b
2019-07-12_100639:540,-0.453491,-0.045226999999999996,-0.201843,-0.004642,-0.006458,0.004457,-48.0,-14.25,-27.68,2b
2019-07-12_100639:560,-0.453491,-0.046265,-0.201324,-0.004520000000000001,-0.006397,0.004671,-48.0,-14.25,-28.5,2b
2019-07-12_100639:580,-0.45553599999999994,-0.045745999999999995,-0.20285,-0.004612,-0.006092,0.00403,-48.0,-14.25,-28.5,2b
2019-07-12_100639:600,-0.453003,-0.045226999999999996,-0.201324,-0.004459,-0.005756,0.004274,-48.369999,-13.87,-28.5,2b
2019-07-12_100639:620,-0.453003,-0.046265,-0.20080599999999998,-0.004337,-0.005756,0.004335,-48.369999,-13.87,-28.5,2b
2019-07-12_100639:640,-0.45196499999999995,-0.045745999999999995,-0.201843,-0.004459,-0.006092,0.004548,-48.369999,-13.87,-28.5,2b
2019-07-12_100639:660,-0.44995100000000005,-0.047791,-0.201843,-0.0042450000000000005,-0.006670999999999999,0.004213000000000001,-48.75,-14.25,-28.870001000000002,2b
2019-07-12_100639:680,-0.451477,-0.047272,-0.20285,-0.004275999999999999,-0.006885,0.004091,-48.75,-14.25,-28.870001000000002,2b
2019-07-12_100639:700,-0.454529,-0.044739,-0.201324,-0.004275999999999999,-0.006670999999999999,0.004609,-48.369999,-15.0,-27.68,2b
2019-07-12_100639:720,-0.454529,-0.045745999999999995,-0.203369,-0.004459,-0.006275,0.004548,-48.369999,-15.0,-27.68,2b
2019-07-12_100639:740,-0.454529,-0.044219999999999995,-0.20486500000000002,-0.004703,-0.005695,0.00345,-48.369999,-15.0,-27.68,2b
2019-07-12_100639:760,-0.44995100000000005,-0.045745999999999995,-0.20285,-0.004886,-0.00539,0.00345,-48.369999,-14.56,-28.059998999999998,2b
2019-07-12_100639:780,-0.45095799999999997,-0.044739,-0.201843,-0.004703,-0.005695,0.00403,-48.369999,-14.56,-28.059998999999998,2b
2019-07-12_100639:800,-0.453003,-0.045745999999999995,-0.204376,-0.004886,-0.005298,0.004091,-47.68,-15.0,-27.68,2b
2019-07-12_100639:820,-0.454529,-0.045226999999999996,-0.203369,-0.004764,-0.0055119999999999995,0.0039689999999999994,-47.68,-15.0,-27.68,2b
2019-07-12_100639:840,-0.454529,-0.045745999999999995,-0.20385699999999998,-0.004703,-0.005298,0.00403,-47.68,-15.0,-27.68,2b
2019-07-12_100639:860,-0.45401,-0.045745999999999995,-0.204376,-0.004612,-0.005298,0.0038159999999999995,-47.68,-13.87,-28.5,2b
2019-07-12_100639:880,-0.452484,-0.043701,-0.201324,-0.004581,-0.005176,0.004457,-47.68,-13.87,-28.5,2b
2019-07-12_100639:900,-0.453003,-0.043701,-0.20233199999999998,-0.004642,-0.005176,0.005006,-48.369999,-14.56,-27.68,2b
2019-07-12_100639:920,-0.451477,-0.045745999999999995,-0.200317,-0.004703,-0.005176,0.004182,-48.369999,-14.56,-27.68,2b
2019-07-12_100639:940,-0.45095799999999997,-0.045226999999999996,-0.201843,-0.004947,-0.005695,0.0034189999999999997,-48.369999,-14.56,-27.68,2b
2019-07-12_100639:960,-0.45095799999999997,-0.044739,-0.20285,-0.004642,-0.005573,0.004671,-48.75,-15.0,-29.25,2b
2019-07-12_100639:980,-0.452484,-0.045226999999999996,-0.200317,-0.004337,-0.005634,0.005647,-48.75,-15.0,-29.25,2b
2019-07-12_100640:000,-0.453491,-0.045226999999999996,-0.20285,-0.0042450000000000005,-0.00539,0.004945000000000001,-48.369999,-14.56,-28.18,2b
2019-07-12_100640:020,-0.452484,-0.043701,-0.201324,-0.004337,-0.005298,0.004915,-48.369999,-14.56,-28.18,2b
2019-07-12_100640:040,-0.451477,-0.044739,-0.201324,-0.004459,-0.005298,0.005067,-48.369999,-14.56,-28.18,2b
2019-07-12_100640:060,-0.452484,-0.044739,-0.201324,-0.004703,-0.005298,0.004732,-46.869999,-14.56,-27.68,2b
2019-07-12_100640:080,-0.453491,-0.045226999999999996,-0.199799,-0.004947,-0.005359,0.004732,-46.869999,-14.56,-27.68,2b
2019-07-12_100640:100,-0.453003,-0.046265,-0.201324,-0.004978,-0.005115,0.005189,-48.0,-15.37,-28.5,2b
2019-07-12_100640:120,-0.453491,-0.046752999999999996,-0.20080599999999998,-0.005039,-0.005115,0.004915,-48.0,-15.37,-28.5,2b
2019-07-12_100640:140,-0.45196499999999995,-0.047272,-0.199799,-0.0051,-0.005115,0.004915,-48.0,-15.37,-28.5,2b
2019-07-12_100640:160,-0.451477,-0.046752999999999996,-0.20080599999999998,-0.005161,-0.005634,0.005189,-48.0,-14.56,-26.870001000000002,2b
2019-07-12_100640:180,-0.45196499999999995,-0.048798,-0.198792,-0.005161,-0.0055119999999999995,0.004945000000000001,-48.0,-14.56,-26.870001000000002,2b
2019-07-12_100640:200,-0.451477,-0.048279,-0.19927999999999998,-0.004947,-0.005634,0.004396,-48.75,-15.0,-27.68,2b
2019-07-12_100640:220,-0.452484,-0.048798,-0.19927999999999998,-0.004978,-0.005878,0.0039689999999999994,-48.75,-15.0,-27.68,2b
2019-07-12_100640:240,-0.45095799999999997,-0.049316000000000006,-0.200317,-0.004642,-0.0060609999999999995,0.00403,-48.75,-15.0,-27.68,2b
2019-07-12_100640:260,-0.453003,-0.049316000000000006,-0.20080599999999998,-0.004612,-0.006397,0.0038469999999999997,-48.369999,-15.0,-28.870001000000002,2b
2019-07-12_100640:280,-0.453491,-0.046265,-0.20080599999999998,-0.004642,-0.006397,0.0038159999999999995,-48.369999,-15.0,-28.870001000000002,2b
2019-07-12_100640:300,-0.452484,-0.047272,-0.20080599999999998,-0.004703,-0.006488,0.003694,-47.25,-14.56,-28.18,2b
2019-07-12_100640:320,-0.452484,-0.046752999999999996,-0.200317,-0.004764,-0.006548999999999999,0.003511,-47.25,-14.56,-28.18,2b
2019-07-12_100640:340,-0.45095799999999997,-0.047272,-0.201843,-0.004825,-0.006488,0.003572,-47.25,-14.56,-28.18,2b
2019-07-12_100640:360,-0.453491,-0.047272,-0.20285,-0.004764,-0.006548999999999999,0.003633,-48.0,-15.0,-26.870001000000002,2b
2019-07-12_100640:380,-0.453003,-0.045745999999999995,-0.20233199999999998,-0.004764,-0.006548999999999999,0.003694,-48.0,-15.0,-26.870001000000002,2b
2019-07-12_100640:400,-0.453491,-0.046265,-0.20285,-0.004703,-0.006488,0.003511,-47.68,-14.56,-27.68,2b
2019-07-12_100640:420,-0.45706199999999997,-0.045226999999999996,-0.20486500000000002,-0.004703,-0.005817,0.003572,-47.68,-14.56,-27.68,2b
2019-07-12_100640:440,-0.451477,-0.045226999999999996,-0.20233199999999998,-0.004520000000000001,-0.006,0.0037549999999999997,-47.68,-14.56,-27.68,2b
2019-07-12_100640:460,-0.454529,-0.046265,-0.203369,-0.004825,-0.005817,0.00345,-46.869999,-14.25,-26.5,2b
2019-07-12_100640:480,-0.44995100000000005,-0.044219999999999995,-0.201324,-0.004825,-0.005756,0.0038159999999999995,-46.869999,-14.25,-26.5,2b
2019-07-12_100640:500,-0.451477,-0.045745999999999995,-0.20233199999999998,-0.004825,-0.0060609999999999995,0.003572,-48.369999,-14.25,-27.68,2b
2019-07-12_100640:520,-0.45401,-0.045226999999999996,-0.203369,-0.004947,-0.006092,0.003511,-48.369999,-14.25,-27.68,2b
2019-07-12_100640:540,-0.45553599999999994,-0.044739,-0.20486500000000002,-0.004825,-0.005634,0.004671,-48.369999,-14.25,-27.68,2b
2019-07-12_100640:560,-0.453003,-0.045745999999999995,-0.203369,-0.004764,-0.005298,0.004671,-48.0,-14.25,-28.5,2b
2019-07-12_100640:580,-0.45196499999999995,-0.045226999999999996,-0.201324,-0.0051,-0.005115,0.00345,-48.0,-14.25,-28.5,2b
2019-07-12_100640:600,-0.451477,-0.044739,-0.20285,-0.005039,-0.004901,0.003572,-48.0,-14.25,-28.059998999999998,2b
2019-07-12_100640:620,-0.45043900000000003,-0.045226999999999996,-0.201324,-0.004825,-0.004901,0.00403,-48.0,-14.25,-28.059998999999998,2b
2019-07-12_100640:640,-0.45196499999999995,-0.045226999999999996,-0.20080599999999998,-0.004764,-0.005054,0.0038469999999999997,-48.0,-14.25,-28.059998999999998,2b
2019-07-12_100640:660,-0.453003,-0.045745999999999995,-0.201324,-0.004703,-0.005176,0.0039689999999999994,-47.68,-14.56,-26.870001000000002,2b
2019-07-12_100640:680,-0.453491,-0.045226999999999996,-0.19927999999999998,-0.004459,-0.00539,0.004396,-47.68,-14.56,-26.870001000000002,2b
2019-07-12_100640:700,-0.45401,-0.044739,-0.201324,-0.004398,-0.005298,0.004274,-48.0,-15.0,-27.25,2b
2019-07-12_100640:720,-0.45196499999999995,-0.043701,-0.199799,-0.004612,-0.005573,0.004274,-48.0,-15.0,-27.25,2b
2019-07-12_100640:740,-0.452484,-0.042175,-0.20080599999999998,-0.004886,-0.0055119999999999995,0.004854,-48.0,-15.0,-27.25,2b
2019-07-12_100640:760,-0.44995100000000005,-0.045745999999999995,-0.198792,-0.004886,-0.005695,0.004182,-48.0,-15.0,-27.68,2b
2019-07-12_100640:780,-0.449432,-0.045745999999999995,-0.200317,-0.004978,-0.0061530000000000005,0.003023,-48.0,-15.0,-27.68,2b
2019-07-12_100640:800,-0.451477,-0.044219999999999995,-0.201324,-0.004764,-0.006275,0.004213000000000001,-47.68,-14.56,-27.68,2b
2019-07-12_100640:820,-0.453003,-0.045745999999999995,-0.201324,-0.004337,-0.006275,0.005464,-47.68,-14.56,-27.68,2b
2019-07-12_100640:840,-0.454529,-0.046752999999999996,-0.201843,-0.004337,-0.006336,0.004518,-47.68,-14.56,-27.68,2b
2019-07-12_100640:860,-0.453003,-0.045226999999999996,-0.201324,-0.004642,-0.006,0.003908,-48.75,-15.0,-26.870001000000002,2b
2019-07-12_100640:880,-0.45095799999999997,-0.043701,-0.20233199999999998,-0.004612,-0.0061530000000000005,0.004182,-48.75,-15.0,-26.870001000000002,2b
2019-07-12_100640:900,-0.452484,-0.045226999999999996,-0.20233199999999998,-0.004825,-0.0060609999999999995,0.0038469999999999997,-47.68,-13.87,-27.68,2b
2019-07-12_100640:920,-0.453491,-0.045226999999999996,-0.20233199999999998,-0.005039,-0.005878,0.0039689999999999994,-47.68,-13.87,-27.68,2b
2019-07-12_100640:940,-0.453491,-0.045226999999999996,-0.20233199999999998,-0.004764,-0.005756,0.004182,-47.68,-13.87,-27.68,2b
2019-07-12_100640:960,-0.453491,-0.047272,-0.20385699999999998,-0.004612,-0.0055119999999999995,0.004152,-48.369999,-14.25,-27.25,2b
2019-07-12_100640:980,-0.453491,-0.045226999999999996,-0.201324,-0.004612,-0.005451,0.0039689999999999994,-48.369999,-14.25,-27.25,2b
2019-07-12_100641:000,-0.451477,-0.045226999999999996,-0.20285,-0.004520000000000001,-0.00539,0.004274,-48.0,-15.0,-28.059998999999998,2b
2019-07-12_100641:020,-0.45196499999999995,-0.045226999999999996,-0.201324,-0.004520000000000001,-0.005451,0.004335,-48.0,-15.0,-28.059998999999998,2b
2019-07-12_100641:040,-0.452484,-0.045745999999999995,-0.20080599999999998,-0.004764,-0.005451,0.0038159999999999995,-48.0,-15.0,-28.059998999999998,2b
2019-07-12_100641:060,-0.45196499999999995,-0.045226999999999996,-0.20233199999999998,-0.004703,-0.005725,0.0037549999999999997,-46.869999,-13.5,-27.25,2b
2019-07-12_100641:080,-0.452484,-0.044739,-0.201324,-0.004642,-0.005634,0.0039689999999999994,-46.869999,-13.5,-27.25,2b
2019-07-12_100641:100,-0.453003,-0.044219999999999995,-0.201324,-0.004642,-0.005634,0.00403,-48.0,-15.37,-26.870001000000002,2b
2019-07-12_100641:120,-0.453003,-0.043701,-0.201324,-0.004825,-0.005573,0.004182,-48.0,-15.37,-26.870001000000002,2b
2019-07-12_100641:140,-0.45196499999999995,-0.045226999999999996,-0.201324,-0.005039,-0.005573,0.00403,-48.0,-15.37,-26.870001000000002,2b
2019-07-12_100641:160,-0.453491,-0.045226999999999996,-0.201843,-0.005222,-0.00539,0.004152,-48.0,-14.56,-28.5,2b
2019-07-12_100641:180,-0.452484,-0.046752999999999996,-0.200317,-0.0051,-0.0052369999999999995,0.003908,-48.0,-14.56,-28.5,2b
2019-07-12_100641:200,-0.451477,-0.046752999999999996,-0.20080599999999998,-0.004947,-0.0052369999999999995,0.0038469999999999997,-47.68,-14.56,-27.68,2b
2019-07-12_100641:220,-0.45095799999999997,-0.047791,-0.20285,-0.004398,-0.005451,0.0037549999999999997,-47.68,-14.56,-27.68,2b
2019-07-12_100641:240,-0.453003,-0.045745999999999995,-0.201324,-0.004184,-0.005695,0.0038469999999999997,-47.68,-14.56,-27.68,2b
2019-07-12_100641:260,-0.45401,-0.046265,-0.200317,-0.003849,-0.0055119999999999995,0.003694,-48.0,-14.25,-27.68,2b
2019-07-12_100641:280,-0.454529,-0.043701,-0.19927999999999998,-0.004123,-0.005573,0.0037549999999999997,-48.0,-14.25,-27.68,2b
2019-07-12_100641:300,-0.452484,-0.042175,-0.199799,-0.004184,-0.005115,0.003908,-48.369999,-14.25,-27.25,2b
2019-07-12_100641:320,-0.45401,-0.043213,-0.20080599999999998,-0.004886,-0.005359,0.003633,-48.369999,-14.25,-27.25,2b
2019-07-12_100641:340,-0.45095799999999997,-0.042694,-0.198792,-0.005161,-0.00539,0.003633,-48.369999,-14.25,-27.25,2b
2019-07-12_100641:360,-0.451477,-0.045745999999999995,-0.20080599999999998,-0.0051,-0.005451,0.003511,-46.869999,-14.56,-27.68,2b
2019-07-12_100641:380,-0.454529,-0.043701,-0.200317,-0.004825,-0.0060609999999999995,0.003053,-46.869999,-14.56,-27.68,2b
2019-07-12_100641:400,-0.453491,-0.044219999999999995,-0.201324,-0.004825,-0.005939,0.0038469999999999997,-48.369999,-15.37,-27.25,2b
2019-07-12_100641:420,-0.453491,-0.045226999999999996,-0.201843,-0.004520000000000001,-0.005634,0.004793,-48.369999,-15.37,-27.25,2b
2019-07-12_100641:440,-0.453491,-0.044739,-0.20233199999999998,-0.004612,-0.005573,0.003908,-48.369999,-15.37,-27.25,2b
2019-07-12_100641:460,-0.452484,-0.043213,-0.201324,-0.004825,-0.005054,0.0029620000000000002,-47.68,-14.56,-27.68,2b
2019-07-12_100641:480,-0.453003,-0.043701,-0.200317,-0.004764,-0.005176,0.003633,-47.68,-14.56,-27.68,2b
2019-07-12_100641:500,-0.45401,-0.044219999999999995,-0.19927999999999998,-0.0051,-0.005115,0.003358,-48.369999,-15.0,-26.870001000000002,2b
2019-07-12_100641:520,-0.45401,-0.043701,-0.19927999999999998,-0.005161,-0.004993,0.003358,-48.369999,-15.0,-26.870001000000002,2b
2019-07-12_100641:540,-0.454529,-0.044739,-0.199799,-0.004764,-0.005298,0.0037549999999999997,-48.369999,-15.0,-26.870001000000002,2b
2019-07-12_100641:560,-0.455017,-0.043213,-0.19927999999999998,-0.004764,-0.005359,0.0038159999999999995,-47.68,-14.56,-27.0,2b
2019-07-12_100641:580,-0.45401,-0.043213,-0.198273,-0.004703,-0.005298,0.003572,-47.68,-14.56,-27.0,2b
2019-07-12_100641:600,-0.452484,-0.042175,-0.198792,-0.004703,-0.005298,0.003908,-48.0,-14.56,-25.68,2b
2019-07-12_100641:620,-0.451477,-0.042694,-0.197266,-0.004520000000000001,-0.005634,0.0037549999999999997,-48.0,-14.56,-25.68,2b
2019-07-12_100641:640,-0.45095799999999997,-0.043213,-0.198792,-0.004642,-0.006,0.002839,-48.0,-14.56,-25.68,2b
2019-07-12_100641:660,-0.451477,-0.040649,-0.200317,-0.004612,-0.0060609999999999995,0.0026260000000000003,-47.25,-15.37,-26.870001000000002,2b
2019-07-12_100641:680,-0.45401,-0.040649,-0.198792,-0.004184,-0.0061530000000000005,0.004793,-47.25,-15.37,-26.870001000000002,2b
2019-07-12_100641:700,-0.45401,-0.042175,-0.19927999999999998,-0.004459,-0.006214,0.004609,-48.75,-15.75,-28.18,2b
2019-07-12_100641:720,-0.455017,-0.039642000000000004,-0.200317,-0.004642,-0.006214,0.00403,-48.75,-15.75,-28.18,2b
2019-07-12_100641:740,-0.453491,-0.041168,-0.200317,-0.004825,-0.006275,0.004213000000000001,-48.75,-15.75,-28.18,2b
2019-07-12_100641:760,-0.454529,-0.042694,-0.198273,-0.005161,-0.0060609999999999995,0.004274,-48.0,-15.0,-27.25,2b
2019-07-12_100641:780,-0.453003,-0.043213,-0.199799,-0.005161,-0.005817,0.0039689999999999994,-48.0,-15.0,-27.25,2b
2019-07-12_100641:800,-0.45401,-0.043701,-0.20080599999999998,-0.0051,-0.005756,0.004274,-48.369999,-15.0,-26.5,2b
2019-07-12_100641:820,-0.45401,-0.044219999999999995,-0.199799,-0.004764,-0.005817,0.004548,-48.369999,-15.0,-26.5,2b
2019-07-12_100641:840,-0.45401,-0.041687,-0.20080599999999998,-0.004520000000000001,-0.006,0.004274,-48.369999,-15.0,-26.5,2b
2019-07-12_100641:860,-0.45401,-0.043213,-0.199799,-0.004398,-0.005725,0.004457,-47.68,-15.37,-27.68,2b
2019-07-12_100641:880,-0.45401,-0.043213,-0.199799,-0.004398,-0.005573,0.004396,-47.68,-15.37,-27.68,2b
2019-07-12_100641:900,-0.453003,-0.042694,-0.199799,-0.004612,-0.005878,0.004213000000000001,-47.68,-15.0,-27.25,2b
2019-07-12_100641:920,-0.453003,-0.042175,-0.199799,-0.004703,-0.005756,0.004091,-47.68,-15.0,-27.25,2b
2019-07-12_100641:940,-0.453491,-0.043701,-0.199799,-0.004703,-0.005725,0.00403,-47.68,-15.0,-27.25,2b
2019-07-12_100641:960,-0.453003,-0.043213,-0.199799,-0.004886,-0.005756,0.004091,-46.869999,-15.0,-28.059998999999998,2b
2019-07-12_100641:980,-0.452484,-0.042694,-0.19775399999999999,-0.004764,-0.005756,0.004091,-46.869999,-15.0,-28.059998999999998,2b
2019-07-12_100642:000,-0.455017,-0.042694,-0.19927999999999998,-0.004947,-0.005756,0.004213000000000001,-48.75,-14.25,-27.25,2b
2019-07-12_100642:020,-0.45401,-0.041687,-0.200317,-0.004703,-0.005756,0.004152,-48.75,-14.25,-27.25,2b
2019-07-12_100642:040,-0.455017,-0.042175,-0.20080599999999998,-0.004764,-0.006,0.004182,-48.75,-14.25,-27.25,2b
2019-07-12_100642:060,-0.45401,-0.042175,-0.200317,-0.004642,-0.006,0.004091,-48.0,-14.25,-26.5,2b
2019-07-12_100642:080,-0.452484,-0.042694,-0.198792,-0.004612,-0.006092,0.0039689999999999994,-48.0,-14.25,-26.5,2b
2019-07-12_100642:100,-0.451477,-0.042694,-0.201324,-0.004581,-0.0061530000000000005,0.004091,-47.68,-15.0,-28.059998999999998,2b
2019-07-12_100642:120,-0.45401,-0.041687,-0.20080599999999998,-0.004459,-0.006214,0.00403,-47.68,-15.0,-28.059998999999998,2b
2019-07-12_100642:140,-0.45401,-0.042694,-0.201843,-0.004459,-0.006214,0.004213000000000001,-47.68,-15.0,-28.059998999999998,2b
2019-07-12_100642:160,-0.45605500000000004,-0.041168,-0.201324,-0.004520000000000001,-0.006092,0.004396,-49.18,-15.37,-27.25,2b
2019-07-12_100642:180,-0.45401,-0.042175,-0.198273,-0.004642,-0.006,0.004213000000000001,-49.18,-15.37,-27.25,2b
2019-07-12_100642:200,-0.453003,-0.042694,-0.200317,-0.004642,-0.005695,0.004335,-48.369999,-14.56,-28.18,2b
2019-07-12_100642:220,-0.45401,-0.042175,-0.200317,-0.004825,-0.005634,0.004213000000000001,-48.369999,-14.56,-28.18,2b
2019-07-12_100642:240,-0.45095799999999997,-0.042694,-0.199799,-0.005039,-0.005573,0.004091,-48.369999,-14.56,-28.18,2b
2019-07-12_100642:260,-0.45401,-0.044739,-0.201843,-0.004825,-0.005756,0.003572,-48.369999,-14.56,-26.870001000000002,2b
2019-07-12_100642:280,-0.45553599999999994,-0.042175,-0.200317,-0.004703,-0.005939,0.003358,-48.369999,-14.56,-26.870001000000002,2b
2019-07-12_100642:300,-0.452484,-0.042694,-0.20080599999999998,-0.004612,-0.005939,0.004518,-48.369999,-15.37,-28.5,2b
2019-07-12_100642:320,-0.45401,-0.043701,-0.201843,-0.004062,-0.005695,0.005067,-48.369999,-15.37,-28.5,2b
2019-07-12_100642:340,-0.453491,-0.041168,-0.201324,-0.004459,-0.005298,0.0037549999999999997,-48.369999,-15.37,-28.5,2b
2019-07-12_100642:360,-0.453003,-0.041168,-0.198273,-0.004642,-0.005054,0.003297,-48.369999,-15.37,-28.5,2b
2019-07-12_100642:380,-0.45401,-0.041168,-0.198792,-0.004642,-0.0052369999999999995,0.0038159999999999995,-48.369999,-15.37,-28.5,2b
2019-07-12_100642:400,-0.453491,-0.042694,-0.199799,-0.004703,-0.005298,0.003908,-48.369999,-15.37,-28.5,2b
2019-07-12_100642:420,-0.45401,-0.041168,-0.198273,-0.004581,-0.0055119999999999995,0.004152,-47.68,-14.56,-28.059998999999998,2b
2019-07-12_100642:440,-0.45401,-0.042694,-0.199799,-0.004398,-0.005695,0.004518,-47.68,-14.56,-28.059998999999998,2b
2019-07-12_100642:460,-0.453491,-0.040161,-0.19927999999999998,-0.004520000000000001,-0.005756,0.004335,-47.68,-14.56,-28.059998999999998,2b
2019-07-12_100642:480,-0.453491,-0.040649,-0.197266,-0.004642,-0.005878,0.004274,-47.68,-14.56,-28.059998999999998,2b
2019-07-12_100642:500,-0.45095799999999997,-0.041168,-0.198273,-0.004642,-0.0060609999999999995,0.004915,-47.25,-15.0,-27.25,2b
2019-07-12_100642:520,-0.45095799999999997,-0.045226999999999996,-0.201324,-0.004703,-0.0060609999999999995,0.004793,-47.25,-15.0,-27.25,2b
2019-07-12_100642:540,-0.45196499999999995,-0.043213,-0.20080599999999998,-0.004764,-0.006336,0.003358,-47.25,-15.0,-27.25,2b
2019-07-12_100642:560,-0.45401,-0.041168,-0.201324,-0.004520000000000001,-0.006488,0.00403,-47.68,-14.56,-28.18,2b
2019-07-12_100642:580,-0.45401,-0.042694,-0.199799,-0.004123,-0.006458,0.005647,-47.68,-14.56,-28.18,2b
2019-07-12_100642:600,-0.45401,-0.042175,-0.201843,-0.004184,-0.006275,0.005189,-47.68,-14.56,-28.18,2b
2019-07-12_100642:620,-0.453491,-0.041687,-0.20285,-0.004337,-0.0060609999999999995,0.004274,-48.369999,-15.37,-27.25,2b
2019-07-12_100642:640,-0.45401,-0.042694,-0.201843,-0.004459,-0.005817,0.004213000000000001,-48.369999,-15.37,-27.25,2b
2019-07-12_100642:660,-0.453491,-0.042175,-0.201324,-0.004612,-0.005817,0.00403,-48.369999,-15.0,-27.68,2b
2019-07-12_100642:680,-0.453491,-0.042175,-0.20080599999999998,-0.004642,-0.005725,0.00403,-48.369999,-15.0,-27.68,2b
2019-07-12_100642:700,-0.453491,-0.043701,-0.201324,-0.004612,-0.005451,0.004671,-47.25,-15.0,-27.25,2b
2019-07-12_100642:720,-0.45401,-0.042694,-0.20080599999999998,-0.004337,-0.00539,0.004915,-47.25,-15.0,-27.25,2b
2019-07-12_100642:740,-0.453003,-0.042694,-0.200317,-0.004459,-0.0055119999999999995,0.004793,-47.25,-15.0,-27.25,2b
2019-07-12_100642:760,-0.45401,-0.042694,-0.201324,-0.004337,-0.005634,0.004793,-47.25,-14.56,-27.25,2b
2019-07-12_100642:780,-0.452484,-0.043213,-0.198792,-0.004581,-0.005634,0.004854,-47.25,-14.56,-27.25,2b
2019-07-12_100642:800,-0.452484,-0.044739,-0.19927999999999998,-0.004612,-0.005573,0.004548,-47.25,-14.56,-27.25,2b
2019-07-12_100642:820,-0.45196499999999995,-0.045226999999999996,-0.200317,-0.004612,-0.005634,0.004457,-47.68,-15.0,-27.68,2b
2019-07-12_100642:840,-0.45196499999999995,-0.044219999999999995,-0.198273,-0.004459,-0.005878,0.004732,-47.68,-15.0,-27.68,2b
2019-07-12_100642:860,-0.452484,-0.043701,-0.200317,-0.004520000000000001,-0.005939,0.004518,-47.68,-15.37,-27.25,2b
2019-07-12_100642:880,-0.453003,-0.044219999999999995,-0.198792,-0.004459,-0.006092,0.004396,-47.68,-15.37,-27.25,2b
2019-07-12_100642:900,-0.453003,-0.044219999999999995,-0.20080599999999998,-0.004337,-0.006214,0.004457,-47.68,-15.37,-27.25,2b
2019-07-12_100642:920,-0.453003,-0.043213,-0.20080599999999998,-0.004275999999999999,-0.0060609999999999995,0.004671,-48.0,-15.75,-28.059998999999998,2b
2019-07-12_100642:940,-0.454529,-0.043701,-0.19927999999999998,-0.004520000000000001,-0.0061530000000000005,0.004609,-48.0,-15.75,-28.059998999999998,2b
2019-07-12_100642:960,-0.453491,-0.044739,-0.20080599999999998,-0.004612,-0.0061530000000000005,0.004518,-47.68,-15.0,-27.68,2b
2019-07-12_100642:980,-0.45196499999999995,-0.044739,-0.199799,-0.004612,-0.006214,0.004457,-47.68,-15.0,-27.68,2b
2019-07-12_100643:000,-0.45196499999999995,-0.045226999999999996,-0.200317,-0.004764,-0.0060609999999999995,0.004274,-47.68,-15.0,-27.68,2b
2019-07-12_100643:020,-0.45196499999999995,-0.044219999999999995,-0.20080599999999998,-0.004581,-0.0061530000000000005,0.004274,-48.0,-14.56,-28.18,2b
2019-07-12_100643:040,-0.453003,-0.043213,-0.20080599999999998,-0.004398,-0.006397,0.004274,-48.0,-14.56,-28.18,2b
2019-07-12_100643:060,-0.455017,-0.045226999999999996,-0.20233199999999998,-0.004520000000000001,-0.006092,0.004671,-47.68,-14.56,-27.68,2b
2019-07-12_100643:080,-0.45605500000000004,-0.045226999999999996,-0.201324,-0.004459,-0.0060609999999999995,0.004396,-47.68,-14.56,-27.68,2b
2019-07-12_100643:100,-0.453491,-0.043701,-0.201324,-0.004703,-0.005573,0.004335,-47.68,-14.56,-27.68,2b
2019-07-12_100643:120,-0.454529,-0.044219999999999995,-0.20285,-0.004642,-0.005634,0.004274,-48.0,-15.37,-28.18,2b
2019-07-12_100643:140,-0.449432,-0.044219999999999995,-0.201324,-0.004703,-0.0055119999999999995,0.004152,-48.0,-15.37,-28.18,2b
2019-07-12_100643:160,-0.451477,-0.045745999999999995,-0.201324,-0.004520000000000001,-0.006092,0.004182,-47.25,-13.87,-28.5,2b
2019-07-12_100643:180,-0.454529,-0.043213,-0.20080599999999998,-0.004520000000000001,-0.006275,0.003694,-47.25,-13.87,-28.5,2b
2019-07-12_100643:200,-0.454529,-0.044219999999999995,-0.201324,-0.004275999999999999,-0.006275,0.004213000000000001,-47.25,-13.87,-28.5,2b
2019-07-12_100643:220,-0.45401,-0.046265,-0.201324,-0.00394,-0.005573,0.005342,-48.75,-15.0,-28.059998999999998,2b
2019-07-12_100643:240,-0.453003,-0.044219999999999995,-0.20080599999999998,-0.00394,-0.005359,0.004457,-48.75,-15.0,-28.059998999999998,2b
2019-07-12_100643:260,-0.44995100000000005,-0.040161,-0.200317,-0.004184,-0.0052369999999999995,0.0037549999999999997,-48.0,-15.37,-26.75,2b
2019-07-12_100643:280,-0.45043900000000003,-0.042694,-0.200317,-0.004001,-0.005359,0.004091,-48.0,-15.37,-26.75,2b
2019-07-12_100643:300,-0.452484,-0.042694,-0.200317,-0.0042450000000000005,-0.005756,0.004213000000000001,-48.0,-15.37,-26.75,2b
2019-07-12_100643:320,-0.453491,-0.043701,-0.20080599999999998,-0.004184,-0.006092,0.004671,-48.369999,-14.25,-26.370001000000002,2b
2019-07-12_100643:340,-0.454529,-0.043213,-0.200317,-0.004123,-0.0060609999999999995,0.005189,-48.369999,-14.25,-26.370001000000002,2b
2019-07-12_100643:360,-0.45553599999999994,-0.043213,-0.19927999999999998,-0.0042450000000000005,-0.005939,0.004945000000000001,-48.0,-15.0,-28.870001000000002,2b
2019-07-12_100643:380,-0.454529,-0.043213,-0.199799,-0.004581,-0.006336,0.005128,-48.0,-15.0,-28.870001000000002,2b
2019-07-12_100643:400,-0.451477,-0.043701,-0.201324,-0.004825,-0.006214,0.005861,-48.0,-15.0,-28.870001000000002,2b
2019-07-12_100643:420,-0.45043900000000003,-0.047272,-0.201324,-0.004825,-0.006488,0.005067,-48.0,-14.56,-27.559998999999998,2b
2019-07-12_100643:440,-0.45043900000000003,-0.046265,-0.200317,-0.004947,-0.006731999999999999,0.004213000000000001,-48.0,-14.56,-27.559998999999998,2b
2019-07-12_100643:460,-0.45196499999999995,-0.046265,-0.20233199999999998,-0.004459,-0.006731999999999999,0.005586,-47.68,-14.25,-27.559998999999998,2b
2019-07-12_100643:480,-0.453491,-0.049316000000000006,-0.20233199999999998,-0.004123,-0.006885,0.006135,-47.68,-14.25,-27.559998999999998,2b
2019-07-12_100643:500,-0.45401,-0.048279,-0.204376,-0.004337,-0.006214,0.004793,-47.68,-14.25,-27.559998999999998,2b
2019-07-12_100643:520,-0.45401,-0.046752999999999996,-0.20486500000000002,-0.004581,-0.0060609999999999995,0.004518,-47.68,-14.25,-26.75,2b
2019-07-12_100643:540,-0.453491,-0.047272,-0.203369,-0.004764,-0.005817,0.004457,-47.68,-14.25,-26.75,2b
2019-07-12_100643:560,-0.45401,-0.048279,-0.20385699999999998,-0.004947,-0.005634,0.0039689999999999994,-47.25,-14.25,-27.18,2b
2019-07-12_100643:580,-0.45401,-0.048279,-0.20285,-0.004978,-0.005359,0.003908,-47.25,-14.25,-27.18,2b
2019-07-12_100643:600,-0.453491,-0.048798,-0.203369,-0.004612,-0.005054,0.0038159999999999995,-47.25,-14.25,-27.18,2b
2019-07-12_100643:620,-0.453491,-0.048798,-0.20233199999999998,-0.004520000000000001,-0.005115,0.0034189999999999997,-48.75,-14.25,-28.0,2b
2019-07-12_100643:640,-0.453491,-0.047272,-0.201843,-0.0042450000000000005,-0.004993,0.00345,-48.75,-14.25,-28.0,2b
2019-07-12_100643:660,-0.452484,-0.046265,-0.201843,-0.003879,-0.004993,0.0038159999999999995,-48.369999,-13.87,-27.18,2b
2019-07-12_100643:680,-0.453003,-0.045226999999999996,-0.200317,-0.0037270000000000003,-0.005054,0.0039689999999999994,-48.369999,-13.87,-27.18,2b
2019-07-12_100643:700,-0.452484,-0.044219999999999995,-0.19927999999999998,-0.003788,-0.005115,0.0038159999999999995,-48.369999,-13.87,-27.18,2b
2019-07-12_100643:720,-0.453003,-0.042694,-0.200317,-0.004062,-0.005298,0.0038469999999999997,-48.0,-14.56,-28.75,2b
2019-07-12_100643:740,-0.451477,-0.042694,-0.200317,-0.004275999999999999,-0.005451,0.00403,-48.0,-14.56,-28.75,2b
2019-07-12_100643:760,-0.452484,-0.043213,-0.199799,-0.004612,-0.005695,0.004335,-48.75,-14.25,-27.18,2b
2019-07-12_100643:780,-0.453003,-0.044219999999999995,-0.200317,-0.004764,-0.005756,0.004671,-48.75,-14.25,-27.18,2b
2019-07-12_100643:800,-0.452484,-0.044739,-0.201324,-0.004825,-0.005878,0.005006,-48.75,-14.25,-27.18,2b
2019-07-12_100643:820,-0.453003,-0.045226999999999996,-0.199799,-0.004886,-0.005817,0.004732,-48.0,-14.56,-28.370001000000002,2b
2019-07-12_100643:840,-0.452484,-0.046265,-0.200317,-0.004764,-0.005725,0.004671,-48.0,-14.56,-28.370001000000002,2b
2019-07-12_100643:860,-0.45196499999999995,-0.046265,-0.201324,-0.004459,-0.005695,0.005006,-47.68,-14.56,-28.370001000000002,2b
2019-07-12_100643:880,-0.452484,-0.047272,-0.199799,-0.004459,-0.006,0.005006,-47.68,-14.56,-28.370001000000002,2b
2019-07-12_100643:900,-0.45401,-0.047272,-0.20080599999999998,-0.004459,-0.0060609999999999995,0.004915,-47.68,-14.56,-28.370001000000002,2b
2019-07-12_100643:920,-0.45196499999999995,-0.048279,-0.199799,-0.004398,-0.006,0.004945000000000001,-47.68,-14.56,-26.75,2b
2019-07-12_100643:940,-0.45605500000000004,-0.046752999999999996,-0.201324,-0.004581,-0.006214,0.004854,-47.68,-14.56,-26.75,2b
2019-07-12_100643:960,-0.452484,-0.046752999999999996,-0.20080599999999998,-0.004764,-0.005756,0.004915,-48.369999,-15.0,-28.059998999999998,2b
2019-07-12_100643:980,-0.453491,-0.048798,-0.200317,-0.004886,-0.005756,0.004945000000000001,-48.369999,-15.0,-28.059998999999998,2b
2019-07-12_100644:000,-0.44891400000000004,-0.050323,-0.201324,-0.005375,-0.0055119999999999995,0.004396,-48.369999,-15.0,-28.059998999999998,2b
2019-07-12_100644:020,-0.44995100000000005,-0.049316000000000006,-0.200317,-0.005375,-0.005878,0.004335,-48.0,-14.56,-27.559998999999998,2b
2019-07-12_100644:040,-0.45401,-0.049316000000000006,-0.20233199999999998,-0.005375,-0.0060609999999999995,0.004091,-48.0,-14.56,-27.559998999999998,2b
2019-07-12_100644:060,-0.452484,-0.050842,-0.200317,-0.005222,-0.006092,0.004152,-48.369999,-14.25,-27.18,2b
2019-07-12_100644:080,-0.45401,-0.050842,-0.20233199999999998,-0.004764,-0.0060609999999999995,0.004732,-48.369999,-14.25,-27.18,2b
2019-07-12_100644:100,-0.45605500000000004,-0.049805,-0.205902,-0.004581,-0.0055119999999999995,0.004213000000000001,-48.369999,-14.25,-27.18,2b
2019-07-12_100644:120,-0.45043900000000003,-0.047272,-0.199799,-0.004764,-0.004993,0.003175,-47.68,-14.56,-27.559998999999998,2b
2019-07-12_100644:140,-0.452484,-0.047272,-0.203369,-0.004612,-0.0052369999999999995,0.002839,-47.68,-14.56,-27.559998999999998,2b
2019-07-12_100644:160,-0.45043900000000003,-0.047272,-0.19927999999999998,-0.004520000000000001,-0.00539,0.002687,-48.0,-13.5,-27.18,2b
2019-07-12_100644:180,-0.45401,-0.048798,-0.19927999999999998,-0.004275999999999999,-0.005756,0.002778,-48.0,-13.5,-27.18,2b
2019-07-12_100644:200,-0.455017,-0.045226999999999996,-0.200317,-0.004001,-0.005695,0.003175,-48.0,-13.5,-27.18,2b
2019-07-12_100644:220,-0.453491,-0.044739,-0.19927999999999998,-0.00394,-0.005634,0.003053,-48.369999,-15.0,-27.25,2b
2019-07-12_100644:240,-0.453003,-0.043701,-0.19927999999999998,-0.004459,-0.005725,0.002778,-48.369999,-15.0,-27.25,2b
2019-07-12_100644:260,-0.451477,-0.041168,-0.20080599999999998,-0.004642,-0.005817,0.00345,-47.25,-14.25,-25.68,2b
2019-07-12_100644:280,-0.45095799999999997,-0.044739,-0.198792,-0.004825,-0.006,0.0038159999999999995,-47.25,-14.25,-25.68,2b
2019-07-12_100644:300,-0.452484,-0.045745999999999995,-0.200317,-0.0051,-0.006275,0.002687,-47.25,-14.25,-25.68,2b
2019-07-12_100644:320,-0.453491,-0.043213,-0.201324,-0.004978,-0.0066099999999999996,0.003114,-48.369999,-14.56,-28.5,2b
2019-07-12_100644:340,-0.45401,-0.044219999999999995,-0.20080599999999998,-0.004764,-0.006336,0.004609,-48.369999,-14.56,-28.5,2b
2019-07-12_100644:360,-0.453003,-0.044219999999999995,-0.201843,-0.004642,-0.006336,0.004609,-47.68,-14.56,-27.18,2b
2019-07-12_100644:380,-0.45401,-0.042694,-0.201324,-0.004825,-0.005939,0.004182,-47.68,-14.56,-27.18,2b
2019-07-12_100644:400,-0.453003,-0.043213,-0.20233199999999998,-0.005039,-0.006092,0.004457,-47.68,-14.56,-27.18,2b
2019-07-12_100644:420,-0.451477,-0.045745999999999995,-0.203369,-0.005222,-0.005939,0.004457,-48.0,-15.0,-27.18,2b
2019-07-12_100644:440,-0.452484,-0.045745999999999995,-0.201324,-0.005375,-0.005756,0.004152,-48.0,-15.0,-27.18,2b
2019-07-12_100644:460,-0.453491,-0.047272,-0.20385699999999998,-0.0051,-0.005573,0.004548,-47.68,-14.25,-27.18,2b
2019-07-12_100644:480,-0.45401,-0.046752999999999996,-0.201843,-0.004947,-0.005573,0.004396,-47.68,-14.25,-27.18,2b
2019-07-12_100644:500,-0.453003,-0.046265,-0.200317,-0.004612,-0.0052369999999999995,0.004335,-47.68,-14.25,-27.18,2b
2019-07-12_100644:520,-0.453491,-0.045226999999999996,-0.201843,-0.004612,-0.0055119999999999995,0.004457,-48.369999,-14.56,-27.18,2b
2019-07-12_100644:540,-0.45196499999999995,-0.046752999999999996,-0.201324,-0.004612,-0.00539,0.005067,-48.369999,-14.56,-27.18,2b
2019-07-12_100644:560,-0.453003,-0.044739,-0.201324,-0.004612,-0.005298,0.004213000000000001,-48.0,-15.0,-27.559998999999998,2b
2019-07-12_100644:580,-0.45095799999999997,-0.044219999999999995,-0.19927999999999998,-0.004825,-0.00539,0.003908,-48.0,-15.0,-27.559998999999998,2b
2019-07-12_100644:600,-0.451477,-0.045745999999999995,-0.20080599999999998,-0.004825,-0.005634,0.004182,-48.0,-15.0,-27.559998999999998,2b
2019-07-12_100644:620,-0.453003,-0.045745999999999995,-0.200317,-0.004947,-0.005695,0.004182,-48.0,-15.0,-28.059998999999998,2b
2019-07-12_100644:640,-0.452484,-0.045745999999999995,-0.201324,-0.004825,-0.005817,0.0039689999999999994,-48.0,-15.0,-28.059998999999998,2b
2019-07-12_100644:660,-0.453491,-0.045226999999999996,-0.200317,-0.005039,-0.0060609999999999995,0.004152,-47.68,-15.0,-26.75,2b
2019-07-12_100644:680,-0.453003,-0.045226999999999996,-0.198792,-0.004978,-0.0060609999999999995,0.004152,-47.68,-15.0,-26.75,2b
2019-07-12_100644:700,-0.452484,-0.045226999999999996,-0.201843,-0.004978,-0.005878,0.0039689999999999994,-47.68,-15.0,-26.75,2b
2019-07-12_100644:720,-0.45095799999999997,-0.046265,-0.199799,-0.004886,-0.005756,0.003908,-48.0,-13.87,-26.75,2b
2019-07-12_100644:740,-0.45043900000000003,-0.046752999999999996,-0.199799,-0.004764,-0.005939,0.0038159999999999995,-48.0,-13.87,-26.75,2b
2019-07-12_100644:760,-0.453491,-0.045226999999999996,-0.203369,-0.004581,-0.006214,0.003572,-48.0,-14.56,-28.059998999999998,2b
2019-07-12_100644:780,-0.453003,-0.044739,-0.200317,-0.004337,-0.0060609999999999995,0.003694,-48.0,-14.56,-28.059998999999998,2b
2019-07-12_100644:800,-0.45605500000000004,-0.045226999999999996,-0.201843,-0.004275999999999999,-0.006,0.004091,-48.0,-14.56,-28.059998999999998,2b
2019-07-12_100644:820,-0.455017,-0.043701,-0.201324,-0.004398,-0.005725,0.0039689999999999994,-48.369999,-14.56,-26.75,2b
2019-07-12_100644:840,-0.453003,-0.043213,-0.20080599999999998,-0.004581,-0.005725,0.0039689999999999994,-48.369999,-14.56,-26.75,2b
2019-07-12_100644:860,-0.45196499999999995,-0.045226999999999996,-0.201843,-0.004825,-0.005725,0.003908,-47.25,-14.25,-28.059998999999998,2b
2019-07-12_100644:880,-0.451477,-0.044219999999999995,-0.200317,-0.0052829999999999995,-0.0055119999999999995,0.0038159999999999995,-47.25,-14.25,-28.059998999999998,2b
2019-07-12_100644:900,-0.452484,-0.046265,-0.20233199999999998,-0.0052829999999999995,-0.006,0.003511,-47.25,-14.25,-28.059998999999998,2b
2019-07-12_100644:920,-0.454529,-0.045226999999999996,-0.20385699999999998,-0.005039,-0.006,0.0034189999999999997,-47.68,-15.37,-27.18,2b
2019-07-12_100644:940,-0.45401,-0.045226999999999996,-0.201324,-0.004703,-0.005451,0.004671,-47.68,-15.37,-27.18,2b
2019-07-12_100644:960,-0.453003,-0.046265,-0.204376,-0.004459,-0.0052369999999999995,0.004793,-48.0,-14.56,-27.559998999999998,2b
2019-07-12_100644:980,-0.452484,-0.044739,-0.20080599999999998,-0.004612,-0.005054,0.003511,-48.0,-14.56,-27.559998999999998,2b
2019-07-12_100645:000,-0.451477,-0.044219999999999995,-0.199799,-0.004642,-0.004718,0.0029620000000000002,-48.0,-14.56,-27.559998999999998,2b
2019-07-12_100645:020,-0.452484,-0.043213,-0.19927999999999998,-0.004520000000000001,-0.004993,0.0032359999999999997,-47.25,-14.25,-26.75,2b
2019-07-12_100645:040,-0.453491,-0.043213,-0.19927999999999998,-0.004520000000000001,-0.004901,0.003358,-47.25,-14.25,-26.75,2b
2019-07-12_100645:060,-0.45401,-0.042175,-0.19927999999999998,-0.004337,-0.005298,0.0038159999999999995,-46.869999,-15.0,-27.559998999999998,2b
2019-07-12_100645:080,-0.454529,-0.043213,-0.19775399999999999,-0.004337,-0.005298,0.004213000000000001,-46.869999,-15.0,-27.559998999999998,2b
2019-07-12_100645:100,-0.454529,-0.042175,-0.199799,-0.004581,-0.005817,0.003908,-46.869999,-15.0,-27.559998999999998,2b
2019-07-12_100645:120,-0.453491,-0.042175,-0.19927999999999998,-0.004825,-0.005939,0.004182,-48.0,-14.56,-26.370001000000002,2b
2019-07-12_100645:140,-0.44995100000000005,-0.040649,-0.19775399999999999,-0.005039,-0.005878,0.004854,-48.0,-14.56,-26.370001000000002,2b
2019-07-12_100645:160,-0.45043900000000003,-0.047272,-0.200317,-0.005222,-0.0061530000000000005,0.004518,-48.369999,-15.0,-27.559998999999998,2b
2019-07-12_100645:180,-0.451477,-0.045226999999999996,-0.19927999999999998,-0.005222,-0.006670999999999999,0.003297,-48.369999,-15.0,-27.559998999999998,2b
2019-07-12_100645:200,-0.45401,-0.046265,-0.20285,-0.004825,-0.006885,0.00403,-48.369999,-15.0,-27.559998999999998,2b
2019-07-12_100645:220,-0.45553599999999994,-0.046752999999999996,-0.203369,-0.004184,-0.006336,0.004945000000000001,-48.0,-15.0,-27.559998999999998,2b
2019-07-12_100645:240,-0.45553599999999994,-0.043213,-0.20285,-0.004001,-0.0060609999999999995,0.004335,-48.0,-15.0,-27.559998999999998,2b
2019-07-12_100645:260,-0.45401,-0.041168,-0.20285,-0.004184,-0.005939,0.003633,-47.25,-14.56,-27.559998999999998,2b
2019-07-12_100645:280,-0.453003,-0.042694,-0.201324,-0.004520000000000001,-0.005573,0.0038469999999999997,-47.25,-14.56,-27.559998999999998,2b
2019-07-12_100645:300,-0.453491,-0.042175,-0.201843,-0.004947,-0.00539,0.003694,-47.25,-14.56,-27.559998999999998,2b
2019-07-12_100645:320,-0.452484,-0.043213,-0.201843,-0.005161,-0.005359,0.003633,-47.68,-15.0,-27.18,2b
2019-07-12_100645:340,-0.452484,-0.045226999999999996,-0.20080599999999998,-0.005039,-0.00539,0.003694,-47.68,-15.0,-27.18,2b
2019-07-12_100645:360,-0.45401,-0.046265,-0.20233199999999998,-0.004886,-0.005451,0.003694,-48.369999,-14.25,-28.0,2b
2019-07-12_100645:380,-0.454529,-0.043213,-0.20080599999999998,-0.004612,-0.005359,0.0039689999999999994,-48.369999,-14.25,-28.0,2b
2019-07-12_100645:400,-0.454529,-0.043213,-0.20080599999999998,-0.004337,-0.0055119999999999995,0.004274,-48.369999,-14.25,-28.0,2b
2019-07-12_100645:420,-0.453003,-0.041168,-0.200317,-0.004337,-0.005451,0.004152,-48.0,-14.56,-28.0,2b
2019-07-12_100645:440,-0.453491,-0.042694,-0.200317,-0.004275999999999999,-0.005573,0.004182,-48.0,-14.56,-28.0,2b
2019-07-12_100645:460,-0.452484,-0.041687,-0.20080599999999998,-0.004703,-0.005573,0.004182,-48.0,-15.0,-27.18,2b
2019-07-12_100645:480,-0.45196499999999995,-0.041687,-0.198273,-0.004642,-0.005695,0.004152,-48.0,-15.0,-27.18,2b
2019-07-12_100645:500,-0.452484,-0.041687,-0.200317,-0.004886,-0.005725,0.004152,-48.0,-15.0,-27.18,2b
2019-07-12_100645:520,-0.453491,-0.042694,-0.200317,-0.004886,-0.005695,0.004457,-48.369999,-15.0,-27.559998999999998,2b
2019-07-12_100645:540,-0.452484,-0.043701,-0.200317,-0.004947,-0.005756,0.004396,-48.369999,-15.0,-27.559998999999998,2b
2019-07-12_100645:560,-0.45401,-0.043701,-0.200317,-0.004978,-0.0060609999999999995,0.004457,-49.18,-14.56,-28.059998999999998,2b
2019-07-12_100645:580,-0.453491,-0.045226999999999996,-0.199799,-0.004642,-0.006,0.004457,-49.18,-14.56,-28.059998999999998,2b
2019-07-12_100645:600,-0.45196499999999995,-0.043213,-0.201324,-0.004520000000000001,-0.005756,0.004213000000000001,-49.18,-14.56,-28.059998999999998,2b
2019-07-12_100645:620,-0.45095799999999997,-0.043701,-0.201843,-0.004275999999999999,-0.005939,0.0039689999999999994,-47.25,-14.56,-26.75,2b
2019-07-12_100645:640,-0.452484,-0.043213,-0.20080599999999998,-0.004398,-0.0060609999999999995,0.00403,-47.25,-14.56,-26.75,2b
2019-07-12_100645:660,-0.453491,-0.044219999999999995,-0.201843,-0.004337,-0.005878,0.004274,-48.0,-14.56,-28.0,2b
2019-07-12_100645:680,-0.45654300000000003,-0.043213,-0.200317,-0.004184,-0.0060609999999999995,0.004548,-48.0,-14.56,-28.0,2b
2019-07-12_100645:700,-0.45401,-0.041687,-0.201324,-0.004612,-0.005634,0.004274,-48.0,-14.56,-28.0,2b
2019-07-12_100645:720,-0.453003,-0.043213,-0.20080599999999998,-0.004703,-0.005573,0.004182,-48.75,-15.0,-27.18,2b
2019-07-12_100645:740,-0.454529,-0.044219999999999995,-0.201843,-0.005222,-0.005451,0.004091,-48.75,-15.0,-27.18,2b
2019-07-12_100645:760,-0.449432,-0.044219999999999995,-0.200317,-0.0052829999999999995,-0.005359,0.00403,-48.369999,-14.25,-27.18,2b
2019-07-12_100645:780,-0.454529,-0.045226999999999996,-0.201324,-0.0051,-0.0055119999999999995,0.003694,-48.369999,-14.25,-27.18,2b
2019-07-12_100645:800,-0.45401,-0.045226999999999996,-0.201843,-0.004886,-0.005725,0.0034189999999999997,-48.369999,-14.25,-27.18,2b
2019-07-12_100645:820,-0.454529,-0.045226999999999996,-0.200317,-0.004581,-0.005634,0.004732,-47.25,-14.56,-27.559998999999998,2b
2019-07-12_100645:840,-0.453003,-0.044739,-0.20080599999999998,-0.004062,-0.0052369999999999995,0.004793,-47.25,-14.56,-27.559998999999998,2b
2019-07-12_100645:860,-0.45196499999999995,-0.042694,-0.200317,-0.004459,-0.005176,0.0032359999999999997,-48.75,-14.56,-28.059998999999998,2b
2019-07-12_100645:880,-0.451477,-0.040649,-0.198792,-0.004642,-0.005115,0.003114,-48.75,-14.56,-28.059998999999998,2b
2019-07-12_100645:900,-0.451477,-0.042694,-0.198792,-0.004612,-0.005176,0.0038159999999999995,-48.75,-14.56,-28.059998999999998,2b
2019-07-12_100645:920,-0.45401,-0.042694,-0.198792,-0.004612,-0.00539,0.003572,-47.68,-13.87,-28.059998999999998,2b
2019-07-12_100645:940,-0.45401,-0.041687,-0.199799,-0.004703,-0.005695,0.0039689999999999994,-47.68,-13.87,-28.059998999999998,2b
2019-07-12_100645:960,-0.454529,-0.042175,-0.19927999999999998,-0.004459,-0.005817,0.004457,-48.369999,-15.37,-27.18,2b
2019-07-12_100645:980,-0.452484,-0.041687,-0.198273,-0.004459,-0.005756,0.004182,-48.369999,-15.37,-27.18,2b
2019-07-12_100646:000,-0.45401,-0.041168,-0.200317,-0.004947,-0.005939,0.004213000000000001,-48.369999,-15.37,-27.18,2b
2019-07-12_100646:020,-0.45095799999999997,-0.043701,-0.198273,-0.005039,-0.005878,0.004793,-47.68,-15.0,-26.75,2b
2019-07-12_100646:040,-0.451477,-0.045745999999999995,-0.20080599999999998,-0.005161,-0.006,0.004152,-47.68,-15.0,-26.75,2b
2019-07-12_100646:060,-0.451477,-0.042694,-0.20080599999999998,-0.005039,-0.006275,0.003023,-47.68,-15.37,-26.75,2b
2019-07-12_100646:080,-0.453491,-0.043213,-0.200317,-0.004642,-0.006548999999999999,0.004457,-47.68,-15.37,-26.75,2b
2019-07-12_100646:100,-0.453491,-0.045226999999999996,-0.20285,-0.004184,-0.006214,0.005647,-47.68,-15.37,-26.75,2b
2019-07-12_100646:120,-0.455017,-0.043213,-0.20080599999999998,-0.004459,-0.006275,0.004396,-47.68,-15.0,-26.870001000000002,2b
2019-07-12_100646:140,-0.45401,-0.042175,-0.20233199999999998,-0.004703,-0.005939,0.003694,-47.68,-15.0,-26.870001000000002,2b
2019-07-12_100646:160,-0.453491,-0.044219999999999995,-0.20285,-0.004886,-0.005817,0.003908,-48.369999,-15.0,-26.5,2b
2019-07-12_100646:180,-0.453003,-0.044739,-0.201324,-0.005222,-0.005451,0.0037549999999999997,-48.369999,-15.0,-26.5,2b
2019-07-12_100646:200,-0.45401,-0.043701,-0.201324,-0.005222,-0.005634,0.00345,-48.369999,-15.0,-26.5,2b
2019-07-12_100646:220,-0.45401,-0.043701,-0.201324,-0.004642,-0.005451,0.004091,-47.68,-15.0,-27.25,2b
2019-07-12_100646:240,-0.454529,-0.043213,-0.20080599999999998,-0.004581,-0.005298,0.004091,-47.68,-15.0,-27.25,2b
2019-07-12_100646:260,-0.451477,-0.042694,-0.20080599999999998,-0.004581,-0.005176,0.003908,-48.0,-14.56,-28.5,2b
2019-07-12_100646:280,-0.453003,-0.042175,-0.19927999999999998,-0.004459,-0.005359,0.00403,-48.0,-14.56,-28.5,2b
2019-07-12_100646:300,-0.453491,-0.041168,-0.198792,-0.004612,-0.005451,0.0039689999999999994,-48.0,-14.56,-28.5,2b
2019-07-12_100646:320,-0.45196499999999995,-0.041168,-0.200317,-0.004886,-0.005634,0.003572,-48.75,-14.56,-26.870001000000002,2b
2019-07-12_100646:340,-0.45196499999999995,-0.041168,-0.198792,-0.004764,-0.005725,0.0038159999999999995,-48.75,-14.56,-26.870001000000002,2b
2019-07-12_100646:360,-0.453003,-0.041687,-0.200317,-0.004947,-0.005878,0.0038469999999999997,-47.25,-15.0,-27.25,2b
2019-07-12_100646:380,-0.453003,-0.040649,-0.200317,-0.004825,-0.005817,0.0039689999999999994,-47.25,-15.0,-27.25,2b
2019-07-12_100646:400,-0.453491,-0.041168,-0.20080599999999998,-0.004886,-0.005878,0.00403,-47.25,-15.0,-27.25,2b
2019-07-12_100646:420,-0.453491,-0.041687,-0.200317,-0.004978,-0.005878,0.004152,-47.25,-14.56,-26.18,2b
2019-07-12_100646:440,-0.45401,-0.042175,-0.199799,-0.0051,-0.005878,0.00403,-47.25,-14.56,-26.18,2b
2019-07-12_100646:460,-0.45401,-0.042175,-0.20080599999999998,-0.004978,-0.005939,0.0039689999999999994,-48.369999,-15.0,-26.5,2b
2019-07-12_100646:480,-0.45401,-0.043213,-0.200317,-0.004825,-0.005878,0.003908,-48.369999,-15.0,-26.5,2b
2019-07-12_100646:500,-0.453003,-0.042694,-0.200317,-0.004947,-0.005939,0.003908,-48.369999,-15.0,-26.5,2b
2019-07-12_100646:520,-0.453491,-0.042694,-0.20080599999999998,-0.004703,-0.006,0.0038159999999999995,-47.68,-14.56,-26.870001000000002,2b
2019-07-12_100646:540,-0.45401,-0.041687,-0.201324,-0.004337,-0.0060609999999999995,0.004091,-47.68,-14.56,-26.870001000000002,2b
2019-07-12_100646:560,-0.454529,-0.041168,-0.201324,-0.004275999999999999,-0.005817,0.004182,-48.0,-15.75,-27.25,2b
2019-07-12_100646:580,-0.455017,-0.039642000000000004,-0.199799,-0.0042450000000000005,-0.005634,0.003908,-48.0,-15.75,-27.25,2b
2019-07-12_100646:600,-0.452484,-0.040161,-0.199799,-0.004612,-0.005359,0.004213000000000001,-48.0,-15.75,-27.25,2b
2019-07-12_100646:620,-0.45401,-0.040649,-0.20080599999999998,-0.004642,-0.00539,0.004091,-48.369999,-15.0,-27.68,2b
2019-07-12_100646:640,-0.45196499999999995,-0.041168,-0.198273,-0.004886,-0.005451,0.0039689999999999994,-48.369999,-15.0,-27.68,2b
2019-07-12_100646:660,-0.45401,-0.042694,-0.19927999999999998,-0.004947,-0.005756,0.0038469999999999997,-47.68,-14.56,-27.25,2b
2019-07-12_100646:680,-0.455017,-0.043701,-0.200317,-0.004764,-0.005939,0.003358,-47.68,-14.56,-27.25,2b
2019-07-12_100646:700,-0.45401,-0.039642000000000004,-0.200317,-0.004612,-0.006,0.004182,-47.68,-14.56,-27.25,2b
2019-07-12_100646:720,-0.452484,-0.039642000000000004,-0.200317,-0.004062,-0.006,0.005525,-47.68,-15.0,-27.25,2b
2019-07-12_100646:740,-0.45196499999999995,-0.037598,-0.198792,-0.004062,-0.0060609999999999995,0.004518,-47.68,-15.0,-27.25,2b
2019-07-12_100646:760,-0.451477,-0.038116000000000004,-0.199799,-0.004886,-0.006,0.003297,-47.68,-15.37,-26.870001000000002,2b
2019-07-12_100646:780,-0.44995100000000005,-0.039124,-0.199799,-0.005039,-0.005817,0.004457,-47.68,-15.37,-26.870001000000002,2b
2019-07-12_100646:800,-0.452484,-0.041687,-0.200317,-0.005436,-0.005878,0.005342,-47.68,-15.37,-26.870001000000002,2b
2019-07-12_100646:820,-0.455017,-0.043701,-0.201324,-0.005497,-0.0060609999999999995,0.005311,-48.369999,-15.37,-27.68,2b
2019-07-12_100646:840,-0.45553599999999994,-0.045745999999999995,-0.201324,-0.0051,-0.006092,0.005525,-48.369999,-15.37,-27.68,2b
2019-07-12_100646:860,-0.45654300000000003,-0.046752999999999996,-0.201324,-0.004764,-0.0061530000000000005,0.00525,-48.0,-15.0,-27.68,2b
2019-07-12_100646:880,-0.45553599999999994,-0.044219999999999995,-0.200317,-0.004581,-0.005939,0.004457,-48.0,-15.0,-27.68,2b
2019-07-12_100646:900,-0.452484,-0.043701,-0.20080599999999998,-0.004459,-0.005756,0.004945000000000001,-48.0,-15.0,-27.68,2b
2019-07-12_100646:920,-0.45043900000000003,-0.046265,-0.201324,-0.0042450000000000005,-0.005573,0.005128,-47.68,-15.75,-25.68,2b
2019-07-12_100646:940,-0.449432,-0.043213,-0.20080599999999998,-0.004337,-0.005573,0.003358,-47.68,-15.75,-25.68,2b
2019-07-12_100646:960,-0.451477,-0.042175,-0.201324,-0.004520000000000001,-0.0060609999999999995,0.0034189999999999997,-46.869999,-14.56,-26.5,2b
2019-07-12_100646:980,-0.452484,-0.042175,-0.20080599999999998,-0.0042450000000000005,-0.0060609999999999995,0.00525,-46.869999,-14.56,-26.5,2b
2019-07-12_100647:000,-0.453491,-0.043701,-0.201843,-0.004642,-0.005939,0.005006,-46.869999,-14.56,-26.5,2b
2019-07-12_100647:020,-0.455017,-0.042175,-0.201843,-0.0052829999999999995,-0.005695,0.0037549999999999997,-47.68,-14.25,-27.25,2b
2019-07-12_100647:040,-0.45401,-0.043701,-0.20080599999999998,-0.005436,-0.005573,0.0038159999999999995,-47.68,-14.25,-27.25,2b
2019-07-12_100647:060,-0.45401,-0.045226999999999996,-0.199799,-0.005222,-0.0055119999999999995,0.003358,-47.25,-13.87,-27.25,2b
2019-07-12_100647:080,-0.45401,-0.045226999999999996,-0.199799,-0.005222,-0.0055119999999999995,0.003114,-47.25,-13.87,-27.25,2b
2019-07-12_100647:100,-0.453491,-0.044219999999999995,-0.19927999999999998,-0.004581,-0.005634,0.00345,-47.25,-13.87,-27.25,2b
2019-07-12_100647:120,-0.452484,-0.043213,-0.201324,-0.003849,-0.005756,0.003908,-47.25,-15.0,-26.5,2b
2019-07-12_100647:140,-0.453003,-0.039642000000000004,-0.201324,-0.0037270000000000003,-0.0060609999999999995,0.0037549999999999997,-47.25,-15.0,-26.5,2b
2019-07-12_100647:160,-0.453491,-0.040161,-0.201843,-0.003849,-0.0060609999999999995,0.004091,-48.75,-15.37,-28.18,2b
2019-07-12_100647:180,-0.45401,-0.039124,-0.198792,-0.004398,-0.005878,0.004182,-48.75,-15.37,-28.18,2b
2019-07-12_100647:200,-0.45401,-0.039124,-0.19927999999999998,-0.004886,-0.005939,0.004152,-48.75,-15.37,-28.18,2b
2019-07-12_100647:220,-0.452484,-0.040649,-0.199799,-0.005222,-0.005634,0.004182,-46.869999,-14.25,-28.18,2b
2019-07-12_100647:240,-0.453491,-0.041168,-0.200317,-0.005375,-0.005725,0.004518,-46.869999,-14.25,-28.18,2b
2019-07-12_100647:260,-0.452484,-0.042175,-0.20080599999999998,-0.0052829999999999995,-0.005878,0.004671,-48.0,-14.25,-28.18,2b
2019-07-12_100647:280,-0.452484,-0.044219999999999995,-0.200317,-0.005039,-0.0061530000000000005,0.004609,-48.0,-14.25,-28.18,2b
2019-07-12_100647:300,-0.453003,-0.045226999999999996,-0.20080599999999998,-0.004764,-0.006336,0.004548,-48.0,-14.25,-28.18,2b
2019-07-12_100647:320,-0.45401,-0.044739,-0.20233199999999998,-0.004703,-0.006214,0.004548,-47.68,-15.0,-27.25,2b
2019-07-12_100647:340,-0.453491,-0.043213,-0.201324,-0.004642,-0.0061530000000000005,0.004213000000000001,-47.68,-15.0,-27.25,2b
2019-07-12_100647:360,-0.45401,-0.043213,-0.201843,-0.004642,-0.005939,0.004182,-47.25,-15.37,-26.18,2b
2019-07-12_100647:380,-0.452484,-0.042694,-0.20080599999999998,-0.004398,-0.005817,0.004152,-47.25,-15.37,-26.18,2b
2019-07-12_100647:400,-0.451477,-0.043213,-0.20233199999999998,-0.004520000000000001,-0.005817,0.0039689999999999994,-47.25,-15.37,-26.18,2b
2019-07-12_100647:420,-0.45401,-0.043213,-0.201843,-0.004520000000000001,-0.005817,0.004091,-47.68,-14.25,-27.25,2b
2019-07-12_100647:440,-0.45401,-0.041687,-0.200317,-0.004520000000000001,-0.005939,0.004091,-47.68,-14.25,-27.25,2b
2019-07-12_100647:460,-0.455017,-0.043213,-0.20233199999999998,-0.004398,-0.005878,0.004213000000000001,-48.369999,-14.56,-28.18,2b
2019-07-12_100647:480,-0.45605500000000004,-0.042175,-0.20080599999999998,-0.004612,-0.005634,0.004182,-48.369999,-14.56,-28.18,2b
2019-07-12_100647:500,-0.45196499999999995,-0.041687,-0.20080599999999998,-0.004642,-0.005451,0.004091,-48.369999,-14.56,-28.18,2b
2019-07-12_100647:520,-0.45401,-0.042694,-0.201324,-0.004520000000000001,-0.005451,0.0038159999999999995,-48.0,-15.0,-27.0,2b
2019-07-12_100647:540,-0.44995100000000005,-0.042175,-0.19927999999999998,-0.004764,-0.005359,0.00403,-48.0,-15.0,-27.0,2b
2019-07-12_100647:560,-0.45095799999999997,-0.043701,-0.201843,-0.004612,-0.0060609999999999995,0.003694,-47.68,-15.0,-28.5,2b
2019-07-12_100647:580,-0.455017,-0.042694,-0.201843,-0.004612,-0.006336,0.003572,-47.68,-15.0,-28.5,2b
2019-07-12_100647:600,-0.454529,-0.041168,-0.201324,-0.004337,-0.006092,0.004548,-47.68,-15.0,-28.5,2b
2019-07-12_100647:620,-0.455017,-0.042694,-0.201324,-0.0042450000000000005,-0.005878,0.005006,-48.369999,-15.0,-27.25,2b
2019-07-12_100647:640,-0.453003,-0.042694,-0.201324,-0.004459,-0.005359,0.003572,-48.369999,-15.0,-27.25,2b
2019-07-12_100647:660,-0.44995100000000005,-0.039642000000000004,-0.200317,-0.004612,-0.005359,0.003114,-47.68,-14.56,-27.25,2b
2019-07-12_100647:680,-0.449432,-0.042175,-0.19775399999999999,-0.004581,-0.005756,0.0039689999999999994,-47.68,-14.56,-27.25,2b
2019-07-12_100647:700,-0.45553599999999994,-0.043213,-0.20385699999999998,-0.004581,-0.005634,0.003908,-47.68,-14.56,-27.25,2b
2019-07-12_100647:720,-0.453491,-0.040161,-0.19927999999999998,-0.0042450000000000005,-0.005725,0.004091,-46.869999,-14.25,-27.68,2b
2019-07-12_100647:740,-0.45605500000000004,-0.040649,-0.20080599999999998,-0.004123,-0.005817,0.004671,-46.869999,-14.25,-27.68,2b
2019-07-12_100647:760,-0.45654300000000003,-0.042694,-0.20233199999999998,-0.004001,-0.0055119999999999995,0.004335,-48.369999,-15.37,-27.0,2b
2019-07-12_100647:780,-0.453491,-0.040161,-0.196747,-0.004398,-0.005725,0.004335,-48.369999,-15.37,-27.0,2b
2019-07-12_100647:800,-0.45196499999999995,-0.038635,-0.20233199999999998,-0.004520000000000001,-0.005634,0.004915,-48.369999,-15.37,-27.0,2b
2019-07-12_100647:820,-0.45196499999999995,-0.044219999999999995,-0.201843,-0.004642,-0.005725,0.004518,-47.68,-15.37,-27.68,2b
2019-07-12_100647:840,-0.45196499999999995,-0.042175,-0.20080599999999998,-0.004825,-0.005817,0.0038159999999999995,-47.68,-15.37,-27.68,2b
2019-07-12_100647:860,-0.45401,-0.041168,-0.20233199999999998,-0.004642,-0.005817,0.004915,-48.0,-15.37,-26.870001000000002,2b
2019-07-12_100647:880,-0.454529,-0.045226999999999996,-0.201843,-0.004398,-0.005725,0.005678,-48.0,-15.37,-26.870001000000002,2b
2019-07-12_100647:900,-0.454529,-0.043701,-0.201843,-0.004459,-0.005451,0.004671,-48.0,-15.37,-26.870001000000002,2b
2019-07-12_100647:920,-0.45553599999999994,-0.042694,-0.201324,-0.004398,-0.005115,0.004091,-48.0,-15.0,-26.870001000000002,2b
2019-07-12_100647:940,-0.45401,-0.044219999999999995,-0.201843,-0.004398,-0.005298,0.004457,-48.0,-15.0,-26.870001000000002,2b
2019-07-12_100647:960,-0.453003,-0.044219999999999995,-0.20080599999999998,-0.0042450000000000005,-0.005115,0.004213000000000001,-48.0,-15.0,-28.18,2b
2019-07-12_100647:980,-0.453491,-0.042175,-0.199799,-0.004123,-0.004993,0.004274,-48.0,-15.0,-28.18,2b
2019-07-12_100648:000,-0.452484,-0.044219999999999995,-0.199799,-0.003879,-0.005115,0.004518,-48.0,-15.0,-28.18,2b
2019-07-12_100648:020,-0.453003,-0.043213,-0.199799,-0.004123,-0.005115,0.004335,-48.369999,-15.37,-27.68,2b
2019-07-12_100648:040,-0.45401,-0.040649,-0.198792,-0.003849,-0.0052369999999999995,0.004548,-48.369999,-15.37,-27.68,2b
2019-07-12_100648:060,-0.453003,-0.041687,-0.198792,-0.004123,-0.005359,0.005128,-48.0,-15.0,-27.68,2b
2019-07-12_100648:080,-0.453491,-0.042694,-0.19775399999999999,-0.004398,-0.005359,0.005342,-48.0,-15.0,-27.68,2b
2019-07-12_100648:100,-0.453003,-0.043213,-0.197266,-0.004703,-0.005573,0.004945000000000001,-48.0,-15.0,-27.68,2b
2019-07-12_100648:120,-0.45196499999999995,-0.044739,-0.198792,-0.004825,-0.005756,0.004945000000000001,-48.75,-14.56,-26.870001000000002,2b
2019-07-12_100648:140,-0.453003,-0.045226999999999996,-0.198792,-0.004764,-0.005878,0.004915,-48.75,-14.56,-26.870001000000002,2b
2019-07-12_100648:160,-0.45401,-0.044739,-0.200317,-0.004703,-0.006336,0.004732,-47.25,-15.0,-27.25,2b
2019-07-12_100648:180,-0.453491,-0.046265,-0.198273,-0.004642,-0.006397,0.005128,-47.25,-15.0,-27.25,2b
2019-07-12_100648:200,-0.452484,-0.045226999999999996,-0.199799,-0.004459,-0.0061530000000000005,0.004945000000000001,-47.25,-15.0,-27.25,2b
2019-07-12_100648:220,-0.453003,-0.046752999999999996,-0.199799,-0.004459,-0.006275,0.004518,-46.869999,-14.56,-28.059998999999998,2b
2019-07-12_100648:240,-0.453491,-0.046265,-0.20080599999999998,-0.004581,-0.006458,0.004274,-46.869999,-14.56,-28.059998999999998,2b
2019-07-12_100648:260,-0.452484,-0.045745999999999995,-0.200317,-0.004581,-0.006458,0.004091,-49.18,-14.25,-27.68,2b
2019-07-12_100648:280,-0.45196499999999995,-0.046265,-0.200317,-0.004612,-0.006458,0.0039689999999999994,-49.18,-14.25,-27.68,2b
2019-07-12_100648:300,-0.45401,-0.045226999999999996,-0.20080599999999998,-0.004642,-0.006336,0.004091,-49.18,-14.25,-27.68,2b
2019-07-12_100648:320,-0.453003,-0.045745999999999995,-0.200317,-0.004703,-0.0061530000000000005,0.00403,-48.369999,-14.56,-28.059998999999998,2b
2019-07-12_100648:340,-0.45706199999999997,-0.045745999999999995,-0.201843,-0.004886,-0.0060609999999999995,0.003694,-48.369999,-14.56,-28.059998999999998,2b
2019-07-12_100648:360,-0.453491,-0.044739,-0.201324,-0.004978,-0.005756,0.003633,-47.68,-14.25,-27.25,2b
2019-07-12_100648:380,-0.453491,-0.044739,-0.199799,-0.004947,-0.005756,0.003572,-47.68,-14.25,-27.25,2b
2019-07-12_100648:400,-0.45043900000000003,-0.045226999999999996,-0.200317,-0.005161,-0.005573,0.0029620000000000002,-47.68,-14.25,-27.25,2b
2019-07-12_100648:420,-0.45043900000000003,-0.045226999999999996,-0.20080599999999998,-0.004886,-0.005878,0.003114,-48.369999,-15.37,-27.25,2b
2019-07-12_100648:440,-0.45401,-0.045226999999999996,-0.20080599999999998,-0.004703,-0.006092,0.0029620000000000002,-48.369999,-15.37,-27.25,2b
2019-07-12_100648:460,-0.45401,-0.043701,-0.201324,-0.004520000000000001,-0.0060609999999999995,0.003114,-48.369999,-14.25,-26.870001000000002,2b
2019-07-12_100648:480,-0.453491,-0.042175,-0.199799,-0.004184,-0.0060609999999999995,0.004152,-48.369999,-14.25,-26.870001000000002,2b
2019-07-12_100648:500,-0.453491,-0.042175,-0.20080599999999998,-0.004001,-0.005756,0.003572,-48.369999,-14.25,-26.870001000000002,2b
2019-07-12_100648:520,-0.452484,-0.039642000000000004,-0.201324,-0.0042450000000000005,-0.005756,0.002687,-47.68,-14.56,-26.5,2b
2019-07-12_100648:540,-0.45095799999999997,-0.039642000000000004,-0.200317,-0.004459,-0.005817,0.003053,-47.68,-14.56,-26.5,2b
2019-07-12_100648:560,-0.45196499999999995,-0.039642000000000004,-0.19927999999999998,-0.004398,-0.005878,0.003633,-48.75,-15.75,-26.870001000000002,2b
2019-07-12_100648:580,-0.454529,-0.040161,-0.19927999999999998,-0.004703,-0.005756,0.0038469999999999997,-48.75,-15.75,-26.870001000000002,2b
2019-07-12_100648:600,-0.45605500000000004,-0.039642000000000004,-0.20080599999999998,-0.004947,-0.005756,0.004396,-48.75,-15.75,-26.870001000000002,2b
2019-07-12_100648:620,-0.45553599999999994,-0.041168,-0.200317,-0.004825,-0.005878,0.004609,-48.0,-15.0,-26.870001000000002,2b
2019-07-12_100648:640,-0.452484,-0.041687,-0.201324,-0.005039,-0.005725,0.004548,-48.0,-15.0,-26.870001000000002,2b
2019-07-12_100648:660,-0.453003,-0.041168,-0.201843,-0.005222,-0.006,0.004854,-47.68,-14.56,-26.870001000000002,2b
2019-07-12_100648:680,-0.45043900000000003,-0.045226999999999996,-0.19927999999999998,-0.005161,-0.0061530000000000005,0.005067,-47.68,-14.56,-26.870001000000002,2b
2019-07-12_100648:700,-0.45095799999999997,-0.045226999999999996,-0.20080599999999998,-0.005161,-0.006397,0.003694,-47.68,-14.56,-26.870001000000002,2b
2019-07-12_100648:720,-0.45196499999999995,-0.043701,-0.201843,-0.005039,-0.006854000000000001,0.00345,-48.369999,-15.0,-27.25,2b
2019-07-12_100648:740,-0.453003,-0.044219999999999995,-0.20233199999999998,-0.004642,-0.006885,0.005067,-48.369999,-15.0,-27.25,2b
2019-07-12_100648:760,-0.454529,-0.045226999999999996,-0.203369,-0.004612,-0.006548999999999999,0.004945000000000001,-48.0,-15.37,-27.25,2b
2019-07-12_100648:780,-0.455017,-0.043213,-0.201324,-0.004886,-0.006214,0.0039689999999999994,-48.0,-15.37,-27.25,2b
2019-07-12_100648:800,-0.45401,-0.042694,-0.20285,-0.005161,-0.005878,0.0038159999999999995,-48.0,-15.37,-27.25,2b
2019-07-12_100648:820,-0.45401,-0.043701,-0.203369,-0.005344,-0.005573,0.003511,-48.369999,-15.37,-26.870001000000002,2b
2019-07-12_100648:840,-0.453491,-0.043701,-0.20233199999999998,-0.005679999999999999,-0.005573,0.003114,-48.369999,-15.37,-26.870001000000002,2b
2019-07-12_100648:860,-0.451477,-0.043701,-0.201324,-0.005558,-0.005298,0.003908,-48.0,-14.56,-27.68,2b
2019-07-12_100648:880,-0.45196499999999995,-0.046265,-0.20080599999999998,-0.005039,-0.00539,0.004152,-48.0,-14.56,-27.68,2b
2019-07-12_100648:900,-0.45401,-0.044739,-0.200317,-0.004764,-0.005573,0.003511,-48.0,-14.56,-27.68,2b
2019-07-12_100648:920,-0.45196499999999995,-0.042175,-0.200317,-0.004398,-0.005634,0.003908,-48.369999,-14.25,-26.870001000000002,2b
2019-07-12_100648:940,-0.451477,-0.042694,-0.201324,-0.004337,-0.005878,0.0039689999999999994,-48.369999,-14.25,-26.870001000000002,2b
2019-07-12_100648:960,-0.45043900000000003,-0.040161,-0.20080599999999998,-0.004459,-0.006092,0.003633,-47.68,-16.059998999999998,-28.5,2b
2019-07-12_100648:980,-0.451477,-0.039642000000000004,-0.19927999999999998,-0.004886,-0.0066099999999999996,0.003358,-47.68,-16.059998999999998,-28.5,2b
2019-07-12_100649:000,-0.453003,-0.038635,-0.201324,-0.005222,-0.006793,0.00345,-47.68,-16.059998999999998,-28.5,2b
2019-07-12_100649:020,-0.45401,-0.039642000000000004,-0.20080599999999998,-0.005771,-0.006670999999999999,0.003633,-47.25,-15.75,-26.870001000000002,2b
2019-07-12_100649:040,-0.45401,-0.039642000000000004,-0.201324,-0.006229,-0.006670999999999999,0.0038159999999999995,-47.25,-15.75,-26.870001000000002,2b
2019-07-12_100649:060,-0.452484,-0.041687,-0.20285,-0.006412,-0.006336,0.003908,-48.0,-15.0,-26.5,2b
2019-07-12_100649:080,-0.45401,-0.042694,-0.20233199999999998,-0.006351,-0.006275,0.004152,-48.0,-15.0,-26.5,2b
2019-07-12_100649:100,-0.45401,-0.044219999999999995,-0.20233199999999998,-0.0061070000000000004,-0.0061530000000000005,0.004152,-48.0,-15.0,-26.5,2b
2019-07-12_100649:120,-0.452484,-0.043213,-0.20385699999999998,-0.005436,-0.0061530000000000005,0.004091,-48.369999,-15.37,-26.870001000000002,2b
2019-07-12_100649:140,-0.45196499999999995,-0.043701,-0.20285,-0.004703,-0.0060609999999999995,0.004091,-48.369999,-15.37,-26.870001000000002,2b
2019-07-12_100649:160,-0.451477,-0.043701,-0.203369,-0.0042450000000000005,-0.006214,0.0038159999999999995,-48.369999,-15.75,-27.68,2b
2019-07-12_100649:180,-0.45196499999999995,-0.041168,-0.20385699999999998,-0.004001,-0.006275,0.003694,-48.369999,-15.75,-27.68,2b
2019-07-12_100649:200,-0.45401,-0.040161,-0.204376,-0.004184,-0.006275,0.00403,-48.369999,-15.75,-27.68,2b
2019-07-12_100649:220,-0.454529,-0.039642000000000004,-0.20385699999999998,-0.00394,-0.0061530000000000005,0.004182,-48.0,-15.37,-27.68,2b
2019-07-12_100649:240,-0.454529,-0.039124,-0.20385699999999998,-0.004520000000000001,-0.005695,0.004182,-48.0,-15.37,-27.68,2b
2019-07-12_100649:260,-0.452484,-0.039124,-0.20233199999999998,-0.004978,-0.005634,0.004213000000000001,-47.68,-15.75,-27.25,2b
2019-07-12_100649:280,-0.45401,-0.040161,-0.20285,-0.005344,-0.005725,0.004152,-47.68,-15.75,-27.25,2b
2019-07-12_100649:300,-0.44995100000000005,-0.040161,-0.20285,-0.005436,-0.0055119999999999995,0.004091,-47.68,-15.75,-27.25,2b
2019-07-12_100649:320,-0.452484,-0.044219999999999995,-0.20385699999999998,-0.005161,-0.005939,0.0039689999999999994,-48.0,-14.56,-27.25,2b
2019-07-12_100649:340,-0.45401,-0.042175,-0.201843,-0.004947,-0.0060609999999999995,0.003633,-48.0,-14.56,-27.25,2b
2019-07-12_100649:360,-0.453003,-0.042175,-0.203369,-0.004642,-0.006092,0.004457,-48.0,-15.37,-26.870001000000002,2b
2019-07-12_100649:380,-0.453003,-0.041687,-0.201843,-0.0042450000000000005,-0.005634,0.00525,-48.0,-15.37,-26.870001000000002,2b
2019-07-12_100649:400,-0.45196499999999995,-0.041687,-0.20285,-0.004520000000000001,-0.005573,0.00403,-48.0,-15.37,-26.870001000000002,2b
2019-07-12_100649:420,-0.45043900000000003,-0.039642000000000004,-0.201324,-0.004642,-0.005451,0.0032359999999999997,-47.25,-15.0,-27.68,2b
2019-07-12_100649:440,-0.451477,-0.039642000000000004,-0.201324,-0.004520000000000001,-0.005695,0.003572,-47.25,-15.0,-27.68,2b
2019-07-12_100649:460,-0.453003,-0.040161,-0.203369,-0.004642,-0.005725,0.0037549999999999997,-48.75,-15.37,-27.25,2b
2019-07-12_100649:480,-0.453003,-0.038635,-0.201324,-0.004764,-0.005756,0.0038469999999999997,-48.75,-15.37,-27.25,2b
2019-07-12_100649:500,-0.45401,-0.039642000000000004,-0.201843,-0.004612,-0.005817,0.004518,-48.75,-15.37,-27.25,2b
2019-07-12_100649:520,-0.454529,-0.040649,-0.201843,-0.004612,-0.006,0.004213000000000001,-47.68,-15.37,-26.870001000000002,2b
2019-07-12_100649:540,-0.45196499999999995,-0.038635,-0.20233199999999998,-0.004947,-0.0061530000000000005,0.003908,-47.68,-15.37,-26.870001000000002,2b
2019-07-12_100649:560,-0.44891400000000004,-0.039124,-0.201843,-0.004978,-0.0061530000000000005,0.004457,-48.369999,-15.75,-27.68,2b
2019-07-12_100649:580,-0.45095799999999997,-0.043213,-0.201324,-0.004886,-0.0060609999999999995,0.004609,-48.369999,-15.75,-27.68,2b
2019-07-12_100649:600,-0.44995100000000005,-0.040161,-0.20285,-0.004825,-0.006275,0.003053,-48.369999,-15.75,-27.68,2b
2019-07-12_100649:620,-0.451477,-0.039642000000000004,-0.20486500000000002,-0.004612,-0.006214,0.003633,-48.0,-15.0,-28.059998999999998,2b
2019-07-12_100649:640,-0.453491,-0.041168,-0.20385699999999998,-0.0042450000000000005,-0.006458,0.005311,-48.0,-15.0,-28.059998999999998,2b
2019-07-12_100649:660,-0.453003,-0.039642000000000004,-0.204376,-0.0042450000000000005,-0.0060609999999999995,0.004671,-47.25,-15.37,-27.68,2b
2019-07-12_100649:680,-0.452484,-0.038116000000000004,-0.203369,-0.004581,-0.006092,0.003572,-47.25,-15.37,-27.68,2b
2019-07-12_100649:700,-0.45196499999999995,-0.040161,-0.204376,-0.004612,-0.006,0.00403,-47.25,-15.37,-27.68,2b
2019-07-12_100649:720,-0.452484,-0.041168,-0.20385699999999998,-0.004886,-0.005725,0.0039689999999999994,-48.369999,-15.37,-27.68,2b
2019-07-12_100649:740,-0.453003,-0.041168,-0.20385699999999998,-0.005039,-0.005573,0.0038159999999999995,-48.369999,-15.37,-27.68,2b
2019-07-12_100649:760,-0.453003,-0.040161,-0.203369,-0.004703,-0.005695,0.004091,-47.68,-15.37,-26.870001000000002,2b
2019-07-12_100649:780,-0.45401,-0.041168,-0.20233199999999998,-0.004520000000000001,-0.005451,0.004213000000000001,-47.68,-15.37,-26.870001000000002,2b
2019-07-12_100649:800,-0.45095799999999997,-0.039642000000000004,-0.201843,-0.004459,-0.00539,0.004213000000000001,-47.68,-15.37,-26.870001000000002,2b
2019-07-12_100649:820,-0.45095799999999997,-0.039642000000000004,-0.20285,-0.004398,-0.005634,0.004335,-48.369999,-15.37,-28.059998999999998,2b
2019-07-12_100649:840,-0.451477,-0.039642000000000004,-0.20233199999999998,-0.004459,-0.005756,0.004396,-48.369999,-15.37,-28.059998999999998,2b
2019-07-12_100649:860,-0.453003,-0.039642000000000004,-0.20285,-0.004581,-0.005939,0.004091,-48.0,-15.37,-27.68,2b
2019-07-12_100649:880,-0.45196499999999995,-0.041168,-0.201324,-0.004581,-0.005817,0.004213000000000001,-48.0,-15.37,-27.68,2b
2019-07-12_100649:900,-0.453003,-0.040649,-0.203369,-0.004520000000000001,-0.005939,0.004274,-48.0,-15.37,-27.68,2b
2019-07-12_100649:920,-0.45196499999999995,-0.040161,-0.20385699999999998,-0.004612,-0.005878,0.004274,-47.68,-15.75,-26.870001000000002,2b
2019-07-12_100649:940,-0.451477,-0.040649,-0.20486500000000002,-0.004612,-0.005878,0.004335,-47.68,-15.75,-26.870001000000002,2b
2019-07-12_100649:960,-0.452484,-0.039642000000000004,-0.203369,-0.004581,-0.005878,0.004609,-47.68,-15.37,-26.870001000000002,2b
2019-07-12_100649:980,-0.453003,-0.040161,-0.20285,-0.004886,-0.0060609999999999995,0.004396,-47.68,-15.37,-26.870001000000002,2b
2019-07-12_100650:000,-0.452484,-0.041168,-0.20385699999999998,-0.005039,-0.005939,0.004182,-47.68,-15.37,-26.870001000000002,2b
2019-07-12_100650:020,-0.453003,-0.039642000000000004,-0.20385699999999998,-0.004825,-0.006092,0.004182,-48.0,-15.75,-27.68,2b
2019-07-12_100650:040,-0.452484,-0.041687,-0.203369,-0.004642,-0.005878,0.004152,-48.0,-15.75,-27.68,2b
2019-07-12_100650:060,-0.452484,-0.041687,-0.204376,-0.004612,-0.005878,0.004152,-47.25,-15.0,-28.5,2b
2019-07-12_100650:080,-0.45095799999999997,-0.040649,-0.20285,-0.004520000000000001,-0.005695,0.004182,-47.25,-15.0,-28.5,2b
2019-07-12_100650:100,-0.451477,-0.039642000000000004,-0.203369,-0.004398,-0.005695,0.004182,-47.25,-15.0,-28.5,2b
2019-07-12_100650:120,-0.453003,-0.039124,-0.20385699999999998,-0.004642,-0.005695,0.004091,-48.0,-15.75,-27.25,2b
2019-07-12_100650:140,-0.452484,-0.040649,-0.20486500000000002,-0.004764,-0.005451,0.004213000000000001,-48.0,-15.75,-27.25,2b
2019-07-12_100650:160,-0.45553599999999994,-0.041168,-0.203369,-0.004642,-0.005695,0.0039689999999999994,-47.68,-15.75,-26.870001000000002,2b
2019-07-12_100650:180,-0.453003,-0.040649,-0.201324,-0.004703,-0.0055119999999999995,0.003908,-47.68,-15.75,-26.870001000000002,2b
2019-07-12_100650:200,-0.453003,-0.041168,-0.20486500000000002,-0.004520000000000001,-0.00539,0.004091,-47.68,-15.75,-26.870001000000002,2b
2019-07-12_100650:220,-0.45043900000000003,-0.039642000000000004,-0.20233199999999998,-0.004764,-0.0052369999999999995,0.003908,-47.68,-15.37,-26.870001000000002,2b
2019-07-12_100650:240,-0.45043900000000003,-0.041687,-0.200317,-0.004520000000000001,-0.0052369999999999995,0.0039689999999999994,-47.68,-15.37,-26.870001000000002,2b
2019-07-12_100650:260,-0.45401,-0.041687,-0.20285,-0.004275999999999999,-0.0060609999999999995,0.0034189999999999997,-47.25,-15.75,-26.870001000000002,2b
2019-07-12_100650:280,-0.45401,-0.039124,-0.203369,-0.0042450000000000005,-0.005878,0.003358,-47.25,-15.75,-26.870001000000002,2b
2019-07-12_100650:300,-0.453491,-0.039642000000000004,-0.20385699999999998,-0.004001,-0.005756,0.004854,-47.25,-15.75,-26.870001000000002,2b
2019-07-12_100650:320,-0.45043900000000003,-0.039124,-0.20385699999999998,-0.00394,-0.0055119999999999995,0.004793,-48.0,-15.37,-27.25,2b
2019-07-12_100650:340,-0.448425,-0.037108999999999996,-0.20233199999999998,-0.004398,-0.00539,0.00345,-48.0,-15.37,-27.25,2b
2019-07-12_100650:360,-0.44891400000000004,-0.037598,-0.201843,-0.004520000000000001,-0.005695,0.003511,-47.25,-15.0,-26.870001000000002,2b
2019-07-12_100650:380,-0.453491,-0.038635,-0.201843,-0.004642,-0.005939,0.004152,-47.25,-15.0,-26.870001000000002,2b
2019-07-12_100650:400,-0.454529,-0.038635,-0.20285,-0.004886,-0.005878,0.004152,-47.25,-15.0,-26.870001000000002,2b
2019-07-12_100650:420,-0.45401,-0.039124,-0.201324,-0.004764,-0.005756,0.004732,-48.0,-15.37,-28.5,2b
2019-07-12_100650:440,-0.455017,-0.039642000000000004,-0.201324,-0.004703,-0.005725,0.004945000000000001,-48.0,-15.37,-28.5,2b
2019-07-12_100650:460,-0.45095799999999997,-0.038116000000000004,-0.20233199999999998,-0.004642,-0.0060609999999999995,0.004671,-48.369999,-15.0,-27.25,2b
2019-07-12_100650:480,-0.451477,-0.039642000000000004,-0.20285,-0.004642,-0.0060609999999999995,0.004671,-48.369999,-15.0,-27.25,2b
2019-07-12_100650:500,-0.449432,-0.042694,-0.20385699999999998,-0.004764,-0.006,0.005128,-48.369999,-15.0,-27.25,2b
2019-07-12_100650:520,-0.45043900000000003,-0.043701,-0.20385699999999998,-0.004581,-0.0061530000000000005,0.004152,-48.369999,-15.37,-27.25,2b
2019-07-12_100650:540,-0.452484,-0.039642000000000004,-0.204376,-0.004642,-0.006397,0.003175,-48.369999,-15.37,-27.25,2b
2019-07-12_100650:560,-0.453003,-0.040161,-0.203369,-0.0042450000000000005,-0.006336,0.004518,-46.869999,-15.37,-27.25,2b
2019-07-12_100650:580,-0.45401,-0.042175,-0.20385699999999998,-0.004062,-0.005878,0.005403,-46.869999,-15.37,-27.25,2b
2019-07-12_100650:600,-0.453003,-0.041168,-0.20486500000000002,-0.004459,-0.005756,0.004182,-46.869999,-15.37,-27.25,2b
2019-07-12_100650:620,-0.45196499999999995,-0.039124,-0.20486500000000002,-0.004612,-0.005634,0.0038469999999999997,-48.0,-15.37,-27.25,2b
2019-07-12_100650:640,-0.453003,-0.040161,-0.203369,-0.004825,-0.005756,0.003908,-48.0,-15.37,-27.25,2b
2019-07-12_100650:660,-0.452484,-0.042694,-0.20385699999999998,-0.005039,-0.005634,0.003358,-48.369999,-15.0,-26.870001000000002,2b
2019-07-12_100650:680,-0.452484,-0.041687,-0.205902,-0.004947,-0.005634,0.0037549999999999997,-48.369999,-15.0,-26.870001000000002,2b
2019-07-12_100650:700,-0.452484,-0.040649,-0.20285,-0.004459,-0.005573,0.0038159999999999995,-48.369999,-15.0,-26.870001000000002,2b
2019-07-12_100650:720,-0.453491,-0.040161,-0.20285,-0.004062,-0.005695,0.004091,-47.68,-15.0,-28.059998999999998,2b
2019-07-12_100650:740,-0.453003,-0.040161,-0.201843,-0.003879,-0.005634,0.004152,-47.68,-15.0,-28.059998999999998,2b
2019-07-12_100650:760,-0.452484,-0.037108999999999996,-0.20285,-0.004275999999999999,-0.005634,0.004274,-48.0,-15.75,-27.68,2b
2019-07-12_100650:780,-0.451477,-0.038116000000000004,-0.20285,-0.004520000000000001,-0.005695,0.004335,-48.0,-15.75,-27.68,2b
2019-07-12_100650:800,-0.451477,-0.038116000000000004,-0.201324,-0.004581,-0.005817,0.004182,-48.0,-15.75,-27.68,2b
2019-07-12_100650:820,-0.451477,-0.039124,-0.201843,-0.004825,-0.005878,0.004396,-48.0,-15.75,-28.5,2b
2019-07-12_100650:840,-0.45196499999999995,-0.039642000000000004,-0.20233199999999998,-0.004825,-0.0060609999999999995,0.004732,-48.0,-15.75,-28.5,2b
2019-07-12_100650:860,-0.451477,-0.041687,-0.20285,-0.004642,-0.006,0.004732,-46.869999,-15.75,-26.870001000000002,2b
2019-07-12_100650:880,-0.452484,-0.040649,-0.203369,-0.004612,-0.005939,0.004854,-46.869999,-15.75,-26.870001000000002,2b
2019-07-12_100650:900,-0.452484,-0.041168,-0.204376,-0.004184,-0.005939,0.004854,-46.869999,-15.75,-26.870001000000002,2b
2019-07-12_100650:920,-0.452484,-0.041168,-0.203369,-0.004459,-0.005939,0.004793,-48.369999,-15.75,-27.68,2b
2019-07-12_100650:940,-0.452484,-0.040161,-0.20285,-0.004337,-0.005878,0.004793,-48.369999,-15.75,-27.68,2b
2019-07-12_100650:960,-0.452484,-0.041687,-0.20385699999999998,-0.004612,-0.005725,0.004793,-48.369999,-15.0,-27.25,2b
2019-07-12_100650:980,-0.452484,-0.042175,-0.20385699999999998,-0.004612,-0.005725,0.004548,-48.369999,-15.0,-27.25,2b
2019-07-12_100651:000,-0.452484,-0.043213,-0.203369,-0.004764,-0.005725,0.004396,-48.369999,-15.0,-27.25,2b
2019-07-12_100651:020,-0.451477,-0.042694,-0.20385699999999998,-0.004642,-0.005725,0.004274,-46.869999,-15.75,-28.059998999999998,2b
2019-07-12_100651:040,-0.45043900000000003,-0.042694,-0.203369,-0.004398,-0.005573,0.004091,-46.869999,-15.75,-28.059998999999998,2b
2019-07-12_100651:060,-0.45196499999999995,-0.042694,-0.203369,-0.004123,-0.005725,0.004152,-48.0,-15.0,-27.25,2b
2019-07-12_100651:080,-0.451477,-0.042694,-0.20486500000000002,-0.004184,-0.005725,0.004396,-48.0,-15.0,-27.25,2b
2019-07-12_100651:100,-0.454529,-0.042175,-0.20385699999999998,-0.004123,-0.0055119999999999995,0.004274,-48.0,-15.0,-27.25,2b
2019-07-12_100651:120,-0.455017,-0.041168,-0.204376,-0.004337,-0.005176,0.004091,-48.0,-15.0,-26.870001000000002,2b
2019-07-12_100651:140,-0.44995100000000005,-0.040649,-0.201324,-0.004520000000000001,-0.005176,0.003908,-48.0,-15.0,-26.870001000000002,2b
2019-07-12_100651:160,-0.453003,-0.039642000000000004,-0.204376,-0.004825,-0.005176,0.0039689999999999994,-47.68,-13.87,-26.870001000000002,2b
2019-07-12_100651:180,-0.44891400000000004,-0.042175,-0.201324,-0.004886,-0.005695,0.00403,-47.68,-13.87,-26.870001000000002,2b
2019-07-12_100651:200,-0.451477,-0.043701,-0.20285,-0.004764,-0.006336,0.0034189999999999997,-47.68,-13.87,-26.870001000000002,2b
2019-07-12_100651:220,-0.454529,-0.042694,-0.20385699999999998,-0.004642,-0.006214,0.003572,-48.0,-15.37,-27.68,2b
2019-07-12_100651:240,-0.45401,-0.043213,-0.20233199999999998,-0.0042450000000000005,-0.0060609999999999995,0.004732,-48.0,-15.37,-27.68,2b
2019-07-12_100651:260,-0.453003,-0.043701,-0.20486500000000002,-0.004062,-0.005573,0.004152,-48.369999,-15.37,-28.059998999999998,2b
2019-07-12_100651:280,-0.45196499999999995,-0.042175,-0.20385699999999998,-0.004275999999999999,-0.005451,0.002839,-48.369999,-15.37,-28.059998999999998,2b
2019-07-12_100651:300,-0.45095799999999997,-0.039642000000000004,-0.203369,-0.004337,-0.005634,0.0032359999999999997,-48.369999,-15.37,-28.059998999999998,2b
2019-07-12_100651:320,-0.44995100000000005,-0.039642000000000004,-0.20385699999999998,-0.004184,-0.00539,0.00345,-46.5,-15.0,-28.059998999999998,2b
2019-07-12_100651:340,-0.452484,-0.040649,-0.201843,-0.0042450000000000005,-0.005573,0.003358,-46.5,-15.0,-28.059998999999998,2b
2019-07-12_100651:360,-0.454529,-0.039642000000000004,-0.20285,-0.004062,-0.005695,0.0039689999999999994,-48.0,-15.37,-26.18,2b
2019-07-12_100651:380,-0.455017,-0.038635,-0.201843,-0.00394,-0.005756,0.004457,-48.0,-15.37,-26.18,2b
2019-07-12_100651:400,-0.455017,-0.039124,-0.204376,-0.004275999999999999,-0.005634,0.004152,-48.0,-15.37,-26.18,2b
2019-07-12_100651:420,-0.453003,-0.036591000000000005,-0.201843,-0.004520000000000001,-0.005756,0.004609,-48.369999,-15.37,-28.5,2b
2019-07-12_100651:440,-0.45095799999999997,-0.038116000000000004,-0.201843,-0.004612,-0.005725,0.005189,-48.369999,-15.37,-28.5,2b
2019-07-12_100651:460,-0.44891400000000004,-0.043213,-0.20285,-0.004581,-0.006,0.004213000000000001,-47.25,-15.37,-26.870001000000002,2b
2019-07-12_100651:480,-0.44891400000000004,-0.042175,-0.20233199999999998,-0.004581,-0.006397,0.0038469999999999997,-47.25,-15.37,-26.870001000000002,2b
2019-07-12_100651:500,-0.451477,-0.039642000000000004,-0.201843,-0.003879,-0.006275,0.005647,-47.25,-15.37,-26.870001000000002,2b
2019-07-12_100651:520,-0.452484,-0.041687,-0.20385699999999998,-0.003879,-0.006336,0.006196,-47.25,-15.0,-26.5,2b
2019-07-12_100651:540,-0.45401,-0.042175,-0.203369,-0.004275999999999999,-0.006214,0.004732,-47.25,-15.0,-26.5,2b
2019-07-12_100651:560,-0.45401,-0.040161,-0.204376,-0.004581,-0.005878,0.004732,-48.0,-14.56,-26.059998999999998,2b
2019-07-12_100651:580,-0.45196499999999995,-0.040649,-0.20385699999999998,-0.004825,-0.006,0.004945000000000001,-48.0,-14.56,-26.059998999999998,2b
2019-07-12_100651:600,-0.45196499999999995,-0.041687,-0.203369,-0.005222,-0.005817,0.004518,-48.0,-14.56,-26.059998999999998,2b
2019-07-12_100651:620,-0.453491,-0.043213,-0.204376,-0.005039,-0.005634,0.004609,-47.68,-15.0,-28.059998999999998,2b
2019-07-12_100651:640,-0.453491,-0.045226999999999996,-0.20285,-0.004612,-0.005695,0.004732,-47.68,-15.0,-28.059998999999998,2b
2019-07-12_100651:660,-0.45196499999999995,-0.045226999999999996,-0.20385699999999998,-0.0042450000000000005,-0.005634,0.004274,-48.75,-15.37,-27.25,2b
2019-07-12_100651:680,-0.452484,-0.044739,-0.20285,-0.00394,-0.005725,0.004335,-48.75,-15.37,-27.25,2b
2019-07-12_100651:700,-0.45196499999999995,-0.044219999999999995,-0.203369,-0.003544,-0.005878,0.004518,-48.75,-15.37,-27.25,2b
2019-07-12_100651:720,-0.45196499999999995,-0.042694,-0.203369,-0.0036049999999999997,-0.005756,0.004518,-47.25,-14.56,-27.25,2b
2019-07-12_100651:740,-0.45095799999999997,-0.040649,-0.201843,-0.003788,-0.005878,0.004457,-47.25,-14.56,-27.25,2b
2019-07-12_100651:760,-0.451477,-0.041687,-0.20285,-0.004001,-0.0060609999999999995,0.004274,-47.68,-14.56,-27.25,2b
2019-07-12_100651:780,-0.45196499999999995,-0.040649,-0.201324,-0.004398,-0.006092,0.004457,-47.68,-14.56,-27.25,2b
2019-07-12_100651:800,-0.45196499999999995,-0.042175,-0.20285,-0.004581,-0.006,0.004609,-47.68,-14.56,-27.25,2b
2019-07-12_100651:820,-0.453491,-0.042175,-0.20385699999999998,-0.004825,-0.005878,0.004548,-47.68,-15.75,-28.059998999999998,2b
2019-07-12_100651:840,-0.453003,-0.043213,-0.20385699999999998,-0.005039,-0.005817,0.004518,-47.68,-15.75,-28.059998999999998,2b
2019-07-12_100651:860,-0.45196499999999995,-0.044739,-0.20385699999999998,-0.005222,-0.005878,0.004213000000000001,-48.0,-15.0,-27.68,2b
2019-07-12_100651:880,-0.452484,-0.045226999999999996,-0.204376,-0.0052829999999999995,-0.005756,0.004091,-48.0,-15.0,-27.68,2b
2019-07-12_100651:900,-0.453003,-0.045745999999999995,-0.20385699999999998,-0.004764,-0.005725,0.0037549999999999997,-48.0,-15.0,-27.68,2b
2019-07-12_100651:920,-0.452484,-0.046752999999999996,-0.204376,-0.004612,-0.0055119999999999995,0.003694,-47.68,-15.0,-28.059998999999998,2b
2019-07-12_100651:940,-0.452484,-0.045745999999999995,-0.20233199999999998,-0.004062,-0.0055119999999999995,0.0038159999999999995,-47.68,-15.0,-28.059998999999998,2b
2019-07-12_100651:960,-0.45095799999999997,-0.043701,-0.203369,-0.003849,-0.005573,0.0038159999999999995,-47.25,-15.37,-27.25,2b
2019-07-12_100651:980,-0.45196499999999995,-0.042175,-0.204376,-0.004001,-0.00539,0.0038469999999999997,-47.25,-15.37,-27.25,2b
2019-07-12_100652:000,-0.44995100000000005,-0.042175,-0.203369,-0.00394,-0.005695,0.0037549999999999997,-47.25,-15.37,-27.25,2b
2019-07-12_100652:020,-0.454529,-0.041168,-0.20385699999999998,-0.004275999999999999,-0.00539,0.0034189999999999997,-46.869999,-14.56,-28.5,2b
2019-07-12_100652:040,-0.452484,-0.039642000000000004,-0.201324,-0.004520000000000001,-0.004961999999999999,0.004152,-46.869999,-14.56,-28.5,2b
2019-07-12_100652:060,-0.453003,-0.041168,-0.201324,-0.004459,-0.00484,0.004518,-48.0,-14.56,-28.059998999999998,2b
2019-07-12_100652:080,-0.45196499999999995,-0.041687,-0.203369,-0.004886,-0.005054,0.004457,-48.0,-14.56,-28.059998999999998,2b
2019-07-12_100652:100,-0.449432,-0.042175,-0.201843,-0.005039,-0.005634,0.004396,-48.0,-14.56,-28.059998999999998,2b
2019-07-12_100652:120,-0.45196499999999995,-0.044219999999999995,-0.204376,-0.004947,-0.005756,0.004213000000000001,-48.0,-15.0,-28.059998999999998,2b
2019-07-12_100652:140,-0.454529,-0.043701,-0.20285,-0.004764,-0.005725,0.005067,-48.0,-15.0,-28.059998999999998,2b
2019-07-12_100652:160,-0.455017,-0.044739,-0.20285,-0.004612,-0.005573,0.005342,-48.0,-15.0,-28.059998999999998,2b
2019-07-12_100652:180,-0.45196499999999995,-0.044739,-0.201843,-0.004642,-0.005176,0.004213000000000001,-47.68,-14.56,-27.25,2b
2019-07-12_100652:200,-0.44995100000000005,-0.043701,-0.20233199999999998,-0.004703,-0.005054,0.0038469999999999997,-47.68,-14.56,-27.25,2b
2019-07-12_100652:220,-0.449432,-0.043701,-0.201843,-0.004581,-0.0052369999999999995,0.004457,-47.68,-15.37,-28.18,2b
2019-07-12_100652:240,-0.44995100000000005,-0.045226999999999996,-0.20080599999999998,-0.004642,-0.00539,0.004335,-47.68,-15.37,-28.18,2b
2019-07-12_100652:260,-0.45196499999999995,-0.044219999999999995,-0.20080599999999998,-0.004764,-0.005359,0.004213000000000001,-47.25,-14.56,-26.18,2b
2019-07-12_100652:280,-0.453491,-0.043213,-0.201843,-0.004612,-0.005695,0.004335,-47.25,-14.56,-26.18,2b
2019-07-12_100652:300,-0.45401,-0.044219999999999995,-0.20080599999999998,-0.004764,-0.005725,0.004213000000000001,-47.25,-14.56,-26.18,2b
2019-07-12_100652:320,-0.45196499999999995,-0.042694,-0.201324,-0.005039,-0.005756,0.00403,-47.25,-15.37,-27.68,2b
2019-07-12_100652:340,-0.45196499999999995,-0.043701,-0.200317,-0.005039,-0.005756,0.004182,-47.25,-15.37,-27.68,2b
2019-07-12_100652:360,-0.449432,-0.047791,-0.199799,-0.005039,-0.0061530000000000005,0.0038469999999999997,-48.0,-14.56,-28.059998999999998,2b
2019-07-12_100652:380,-0.455017,-0.046752999999999996,-0.20538299999999998,-0.004825,-0.005878,0.002107,-48.0,-14.56,-28.059998999999998,2b
2019-07-12_100652:400,-0.448425,-0.044219999999999995,-0.20080599999999998,-0.004825,-0.005817,0.002229,-48.0,-14.56,-28.059998999999998,2b
2019-07-12_100652:420,-0.452484,-0.043701,-0.20538299999999998,-0.004001,-0.006092,0.004091,-48.75,-14.56,-27.68,2b
2019-07-12_100652:440,-0.45196499999999995,-0.044219999999999995,-0.20285,-0.004062,-0.0060609999999999995,0.003908,-48.75,-14.56,-27.68,2b
2019-07-12_100652:460,-0.452484,-0.041168,-0.204376,-0.004275999999999999,-0.0061530000000000005,0.003023,-48.75,-14.56,-27.68,2b
2019-07-12_100652:480,-0.455017,-0.040161,-0.205902,-0.004520000000000001,-0.005817,0.002839,-47.25,-14.56,-27.25,2b
2019-07-12_100652:500,-0.453491,-0.040649,-0.201324,-0.004581,-0.005573,0.003114,-47.25,-14.56,-27.25,2b
2019-07-12_100652:520,-0.45401,-0.039642000000000004,-0.20538299999999998,-0.004642,-0.0052369999999999995,0.002778,-46.869999,-15.0,-27.68,2b
2019-07-12_100652:540,-0.453491,-0.039642000000000004,-0.20080599999999998,-0.004581,-0.005298,0.003358,-46.869999,-15.0,-27.68,2b
2019-07-12_100652:560,-0.453491,-0.040161,-0.201324,-0.004459,-0.005115,0.003511,-47.68,-15.37,-27.68,2b
2019-07-12_100652:580,-0.45196499999999995,-0.040161,-0.20080599999999998,-0.004459,-0.005115,0.00403,-47.68,-15.37,-27.68,2b
2019-07-12_100652:600,-0.453003,-0.039124,-0.199799,-0.004337,-0.005115,0.004274,-47.68,-15.37,-27.68,2b
2019-07-12_100652:620,-0.45196499999999995,-0.039124,-0.20233199999999998,-0.004520000000000001,-0.00539,0.004548,-48.369999,-14.56,-27.68,2b
2019-07-12_100652:640,-0.45043900000000003,-0.039642000000000004,-0.200317,-0.004642,-0.0055119999999999995,0.004335,-48.369999,-14.56,-27.68,2b
2019-07-12_100652:660,-0.451477,-0.040161,-0.200317,-0.004764,-0.005695,0.004213000000000001,-46.869999,-15.37,-26.5,2b
2019-07-12_100652:680,-0.452484,-0.041168,-0.199799,-0.004764,-0.005878,0.004548,-46.869999,-15.37,-26.5,2b
2019-07-12_100652:700,-0.453491,-0.041687,-0.200317,-0.004764,-0.005878,0.004548,-46.869999,-15.37,-26.5,2b
2019-07-12_100652:720,-0.452484,-0.041687,-0.20233199999999998,-0.004642,-0.005939,0.004518,-47.68,-14.56,-26.5,2b
2019-07-12_100652:740,-0.451477,-0.042694,-0.201843,-0.004825,-0.005817,0.004609,-47.68,-14.56,-26.5,2b
2019-07-12_100652:760,-0.451477,-0.042175,-0.201843,-0.004947,-0.0060609999999999995,0.004671,-47.25,-15.0,-28.059998999999998,2b
2019-07-12_100652:780,-0.45196499999999995,-0.042175,-0.20285,-0.004978,-0.006,0.004457,-47.25,-15.0,-28.059998999999998,2b
2019-07-12_100652:800,-0.453003,-0.044219999999999995,-0.20233199999999998,-0.004978,-0.006275,0.004335,-47.25,-15.0,-28.059998999999998,2b
2019-07-12_100652:820,-0.453003,-0.043701,-0.20285,-0.004886,-0.0060609999999999995,0.0039689999999999994,-48.0,-15.0,-28.5,2b
2019-07-12_100652:840,-0.45196499999999995,-0.044739,-0.20233199999999998,-0.004703,-0.006,0.003908,-48.0,-15.0,-28.5,2b
2019-07-12_100652:860,-0.451477,-0.044219999999999995,-0.20285,-0.004398,-0.006092,0.0038159999999999995,-48.0,-15.0,-28.5,2b
2019-07-12_100652:880,-0.453491,-0.042694,-0.20285,-0.004337,-0.0061530000000000005,0.0037549999999999997,-47.25,-15.37,-28.059998999999998,2b
2019-07-12_100652:900,-0.45196499999999995,-0.043701,-0.20233199999999998,-0.004184,-0.006092,0.0038159999999999995,-47.25,-15.37,-28.059998999999998,2b
2019-07-12_100652:920,-0.45605500000000004,-0.041687,-0.203369,-0.004184,-0.005939,0.003572,-48.75,-15.0,-28.059998999999998,2b
2019-07-12_100652:940,-0.453491,-0.039642000000000004,-0.199799,-0.004275999999999999,-0.005756,0.003694,-48.75,-15.0,-28.059998999999998,2b
2019-07-12_100652:960,-0.454529,-0.039642000000000004,-0.20233199999999998,-0.004581,-0.0055119999999999995,0.0038469999999999997,-47.68,-15.37,-27.25,2b
2019-07-12_100652:980,-0.452484,-0.040161,-0.20285,-0.004886,-0.005298,0.003297,-47.68,-15.37,-27.25,2b
2019-07-12_100653:000,-0.45095799999999997,-0.041687,-0.201324,-0.004947,-0.005359,0.0034189999999999997,-47.68,-15.37,-27.25,2b
2019-07-12_100653:020,-0.45401,-0.042175,-0.203369,-0.004703,-0.005756,0.0029,-47.25,-15.37,-27.68,2b
2019-07-12_100653:040,-0.453491,-0.039642000000000004,-0.201324,-0.004642,-0.005695,0.0029620000000000002,-47.25,-15.37,-27.68,2b
2019-07-12_100653:060,-0.45196499999999995,-0.040161,-0.201324,-0.004337,-0.005573,0.004274,-47.25,-15.37,-27.68,2b
2019-07-12_100653:080,-0.451477,-0.040649,-0.201324,-0.004062,-0.005725,0.004213000000000001,-48.369999,-15.37,-27.25,2b
2019-07-12_100653:100,-0.451477,-0.039124,-0.20080599999999998,-0.004398,-0.005725,0.003023,-48.369999,-15.37,-27.25,2b
2019-07-12_100653:120,-0.452484,-0.038635,-0.201843,-0.004520000000000001,-0.005756,0.003053,-48.369999,-14.56,-28.059998999999998,2b
2019-07-12_100653:140,-0.453491,-0.038635,-0.201324,-0.004612,-0.006,0.0037549999999999997,-48.369999,-14.56,-28.059998999999998,2b
2019-07-12_100653:160,-0.454529,-0.037598,-0.20233199999999998,-0.004642,-0.006,0.00403,-47.25,-15.0,-27.68,2b
2019-07-12_100653:180,-0.45401,-0.039124,-0.201843,-0.004398,-0.005695,0.004609,-47.25,-15.0,-27.68,2b
2019-07-12_100653:200,-0.453491,-0.039642000000000004,-0.20233199999999998,-0.004459,-0.006,0.005006,-47.25,-15.0,-27.68,2b
2019-07-12_100653:220,-0.453003,-0.039642000000000004,-0.203369,-0.004612,-0.0060609999999999995,0.004671,-47.68,-15.75,-28.870001000000002,2b
2019-07-12_100653:240,-0.45196499999999995,-0.039642000000000004,-0.20285,-0.004886,-0.006488,0.004915,-47.68,-15.75,-28.870001000000002,2b
2019-07-12_100653:260,-0.44891400000000004,-0.039642000000000004,-0.20233199999999998,-0.004978,-0.0061530000000000005,0.005342,-47.68,-15.75,-28.870001000000002,2b
2019-07-12_100653:280,-0.452484,-0.042694,-0.20385699999999998,-0.005039,-0.0061530000000000005,0.004793,-47.25,-15.37,-28.5,2b
2019-07-12_100653:300,-0.453491,-0.040649,-0.20385699999999998,-0.004825,-0.006397,0.003572,-47.25,-15.37,-28.5,2b
2019-07-12_100653:320,-0.45401,-0.043213,-0.20486500000000002,-0.004581,-0.006,0.004518,-47.25,-15.0,-27.68,2b
2019-07-12_100653:340,-0.453491,-0.042694,-0.203369,-0.004123,-0.005634,0.006074,-47.25,-15.0,-27.68,2b
2019-07-12_100653:360,-0.451477,-0.041687,-0.204376,-0.004275999999999999,-0.005634,0.005342,-47.25,-15.0,-27.68,2b
2019-07-12_100653:380,-0.453491,-0.041687,-0.204376,-0.004642,-0.0055119999999999995,0.004335,-48.0,-15.75,-26.870001000000002,2b
2019-07-12_100653:400,-0.452484,-0.042694,-0.203369,-0.004825,-0.005451,0.004091,-48.0,-15.75,-26.870001000000002,2b
2019-07-12_100653:420,-0.452484,-0.042694,-0.20233199999999998,-0.005161,-0.0055119999999999995,0.003694,-48.0,-14.56,-27.68,2b
2019-07-12_100653:440,-0.453003,-0.045226999999999996,-0.199799,-0.0051,-0.005451,0.0037549999999999997,-48.0,-14.56,-27.68,2b
2019-07-12_100653:460,-0.452484,-0.044739,-0.201843,-0.004764,-0.005451,0.004091,-48.0,-14.56,-27.68,2b
2019-07-12_100653:480,-0.451477,-0.042694,-0.201324,-0.004581,-0.005725,0.0038159999999999995,-48.0,-15.37,-27.25,2b
2019-07-12_100653:500,-0.453003,-0.040649,-0.200317,-0.0042450000000000005,-0.005695,0.003694,-48.0,-15.37,-27.25,2b
2019-07-12_100653:520,-0.45095799999999997,-0.041168,-0.20233199999999998,-0.004184,-0.005695,0.0038159999999999995,-48.369999,-15.75,-27.68,2b
2019-07-12_100653:540,-0.45095799999999997,-0.040649,-0.199799,-0.0042450000000000005,-0.005817,0.003633,-48.369999,-15.75,-27.68,2b
2019-07-12_100653:560,-0.451477,-0.040649,-0.201324,-0.004337,-0.005939,0.003358,-48.369999,-15.75,-27.68,2b
2019-07-12_100653:580,-0.45196499999999995,-0.040161,-0.20285,-0.004398,-0.006397,0.00345,-47.25,-15.37,-27.25,2b
2019-07-12_100653:600,-0.453003,-0.039124,-0.203369,-0.004398,-0.006458,0.0037549999999999997,-47.25,-15.37,-27.25,2b
2019-07-12_100653:620,-0.453003,-0.039124,-0.20233199999999998,-0.004398,-0.006488,0.0038469999999999997,-48.0,-15.0,-27.25,2b
2019-07-12_100653:640,-0.45043900000000003,-0.039124,-0.200317,-0.004398,-0.006336,0.004182,-48.0,-15.0,-27.25,2b
2019-07-12_100653:660,-0.453003,-0.040649,-0.203369,-0.004520000000000001,-0.006397,0.004182,-48.0,-15.0,-27.25,2b
2019-07-12_100653:680,-0.45401,-0.039642000000000004,-0.20486500000000002,-0.004642,-0.0060609999999999995,0.0039689999999999994,-47.25,-15.37,-27.25,2b
2019-07-12_100653:700,-0.449432,-0.040161,-0.20080599999999998,-0.004459,-0.005817,0.00403,-47.25,-15.37,-27.25,2b
2019-07-12_100653:720,-0.45553599999999994,-0.041687,-0.206909,-0.004581,-0.006214,0.004152,-48.0,-15.0,-27.25,2b
2019-07-12_100653:740,-0.453491,-0.038635,-0.201324,-0.004612,-0.005756,0.004152,-48.0,-15.0,-27.25,2b
2019-07-12_100653:760,-0.455017,-0.039642000000000004,-0.20385699999999998,-0.004825,-0.005573,0.004091,-48.0,-15.0,-27.25,2b
2019-07-12_100653:780,-0.454529,-0.038635,-0.20639000000000002,-0.0051,-0.005115,0.004091,-48.0,-15.0,-27.68,2b
2019-07-12_100653:800,-0.452484,-0.040649,-0.20285,-0.005497,-0.005115,0.004213000000000001,-48.0,-15.0,-27.68,2b
2019-07-12_100653:820,-0.45196499999999995,-0.041687,-0.20285,-0.005558,-0.004779,0.004548,-47.68,-15.0,-26.5,2b
2019-07-12_100653:840,-0.45401,-0.042694,-0.20080599999999998,-0.005222,-0.004566,0.004335,-47.68,-15.0,-26.5,2b
2019-07-12_100653:860,-0.45043900000000003,-0.044219999999999995,-0.201324,-0.005039,-0.00484,0.004213000000000001,-47.68,-15.0,-26.5,2b
2019-07-12_100653:880,-0.452484,-0.045745999999999995,-0.201324,-0.004581,-0.004961999999999999,0.003908,-47.25,-14.56,-27.68,2b
2019-07-12_100653:900,-0.451477,-0.044739,-0.200317,-0.004275999999999999,-0.005298,0.003053,-47.25,-14.56,-27.68,2b
2019-07-12_100653:920,-0.452484,-0.044739,-0.201843,-0.003788,-0.005634,0.0026260000000000003,-48.0,-15.37,-27.68,2b
2019-07-12_100653:940,-0.45553599999999994,-0.042694,-0.201324,-0.003483,-0.0060609999999999995,0.002168,-48.0,-15.37,-27.68,2b
2019-07-12_100653:960,-0.452484,-0.037598,-0.201324,-0.003116,-0.006275,0.002382,-48.0,-15.37,-27.68,2b
2019-07-12_100653:980,-0.45196499999999995,-0.038635,-0.20080599999999998,-0.003055,-0.006092,0.003694,-47.68,-15.0,-28.18,2b
2019-07-12_100654:000,-0.451477,-0.035065,-0.201324,-0.0033909999999999995,-0.006,0.003511,-47.68,-15.0,-28.18,2b
2019-07-12_100654:020,-0.451477,-0.034058,-0.201843,-0.004062,-0.006092,0.002382,-47.25,-15.37,-26.5,2b
2019-07-12_100654:040,-0.451477,-0.033539,-0.200317,-0.004520000000000001,-0.006,0.002687,-47.25,-15.37,-26.5,2b
2019-07-12_100654:060,-0.453491,-0.034058,-0.203369,-0.004978,-0.005878,0.003297,-47.25,-15.37,-26.5,2b
2019-07-12_100654:080,-0.45553599999999994,-0.034058,-0.204376,-0.005344,-0.006092,0.00345,-48.0,-15.75,-27.68,2b
2019-07-12_100654:100,-0.45401,-0.035583,-0.20285,-0.005558,-0.005817,0.004609,-48.0,-15.75,-27.68,2b
2019-07-12_100654:120,-0.45553599999999994,-0.035065,-0.203369,-0.005679999999999999,-0.005756,0.005403,-48.0,-15.37,-27.25,2b
2019-07-12_100654:140,-0.453003,-0.035065,-0.203369,-0.005741,-0.005725,0.005128,-48.0,-15.37,-27.25,2b
2019-07-12_100654:160,-0.45196499999999995,-0.029480000000000003,-0.203369,-0.0060149999999999995,-0.005756,0.005525,-48.0,-15.37,-27.25,2b
2019-07-12_100654:180,-0.448425,-0.032013,-0.201324,-0.007023000000000001,-0.005756,0.006379,-48.369999,-15.37,-27.25,2b
2019-07-12_100654:200,-0.45095799999999997,-0.035583,-0.20385699999999998,-0.008213,-0.005878,0.005861,-48.369999,-15.37,-27.25,2b
2019-07-12_100654:220,-0.452484,-0.035583,-0.20285,-0.009281000000000001,-0.005939,0.004548,-48.0,-15.0,-27.68,2b
2019-07-12_100654:240,-0.45401,-0.041168,-0.20285,-0.009403,-0.0061530000000000005,0.005983,-48.0,-15.0,-27.68,2b
2019-07-12_100654:260,-0.453003,-0.045745999999999995,-0.204376,-0.008762,-0.006092,0.007387,-48.0,-15.0,-27.68,2b
2019-07-12_100654:280,-0.453491,-0.046265,-0.20385699999999998,-0.007937999999999999,-0.005817,0.006257,-48.0,-15.0,-27.25,2b
2019-07-12_100654:300,-0.453003,-0.045745999999999995,-0.20285,-0.007145,-0.005695,0.0058,-48.0,-15.0,-27.25,2b
2019-07-12_100654:320,-0.452484,-0.048279,-0.201843,-0.005619,-0.005634,0.005861,-46.869999,-15.0,-26.5,2b
2019-07-12_100654:340,-0.451477,-0.045745999999999995,-0.20285,-0.004825,-0.00539,0.004854,-46.869999,-15.0,-26.5,2b
2019-07-12_100654:360,-0.451477,-0.043213,-0.20233199999999998,-0.003788,-0.005573,0.004548,-46.869999,-15.0,-26.5,2b
2019-07-12_100654:380,-0.45401,-0.043213,-0.201843,-0.002933,-0.005695,0.004793,-49.18,-15.75,-26.18,2b
2019-07-12_100654:400,-0.45401,-0.040649,-0.203369,-0.002811,-0.005756,0.004548,-49.18,-15.75,-26.18,2b
2019-07-12_100654:420,-0.45401,-0.039124,-0.20233199999999998,-0.002994,-0.005756,0.004274,-47.25,-16.059998999999998,-26.5,2b
2019-07-12_100654:440,-0.453491,-0.039124,-0.201843,-0.003208,-0.005634,0.004335,-47.25,-16.059998999999998,-26.5,2b
2019-07-12_100654:460,-0.452484,-0.039642000000000004,-0.201324,-0.004062,-0.005634,0.0038469999999999997,-47.25,-16.059998999999998,-26.5,2b
2019-07-12_100654:480,-0.45196499999999995,-0.039642000000000004,-0.20233199999999998,-0.004459,-0.005756,0.0039689999999999994,-48.75,-15.75,-26.870001000000002,2b
2019-07-12_100654:500,-0.45095799999999997,-0.040649,-0.201843,-0.004398,-0.005725,0.004182,-48.75,-15.75,-26.870001000000002,2b
2019-07-12_100654:520,-0.451477,-0.041687,-0.201324,-0.004459,-0.005817,0.004091,-48.0,-15.37,-27.25,2b
2019-07-12_100654:540,-0.452484,-0.042175,-0.20233199999999998,-0.004184,-0.0060609999999999995,0.0039689999999999994,-48.0,-15.37,-27.25,2b
2019-07-12_100654:560,-0.453003,-0.041687,-0.20285,-0.004001,-0.005817,0.0038159999999999995,-48.0,-15.37,-27.25,2b
2019-07-12_100654:580,-0.453003,-0.041168,-0.20233199999999998,-0.003849,-0.005725,0.0038469999999999997,-47.68,-15.0,-27.25,2b
2019-07-12_100654:600,-0.453003,-0.040649,-0.20233199999999998,-0.0033909999999999995,-0.005817,0.004091,-47.68,-15.0,-27.25,2b
2019-07-12_100654:620,-0.453491,-0.040161,-0.20285,-0.003483,-0.005756,0.00403,-47.68,-15.37,-28.18,2b
2019-07-12_100654:640,-0.45095799999999997,-0.040161,-0.201324,-0.003483,-0.005756,0.003908,-47.68,-15.37,-28.18,2b
2019-07-12_100654:660,-0.452484,-0.040649,-0.20385699999999998,-0.003483,-0.005756,0.003694,-47.68,-15.37,-28.18,2b
2019-07-12_100654:680,-0.453003,-0.040161,-0.20233199999999998,-0.003452,-0.005939,0.0038469999999999997,-47.25,-15.0,-26.18,2b
2019-07-12_100654:700,-0.45196499999999995,-0.039642000000000004,-0.201324,-0.003544,-0.005756,0.004396,-47.25,-15.0,-26.18,2b
2019-07-12_100654:720,-0.45605500000000004,-0.041168,-0.203369,-0.0036659999999999996,-0.005817,0.004274,-48.369999,-15.75,-27.68,2b
2019-07-12_100654:740,-0.453491,-0.039642000000000004,-0.201324,-0.003879,-0.005451,0.0038469999999999997,-48.369999,-15.75,-27.68,2b
2019-07-12_100654:760,-0.453003,-0.038635,-0.199799,-0.004123,-0.005298,0.004213000000000001,-48.369999,-15.75,-27.68,2b
2019-07-12_100654:780,-0.45196499999999995,-0.040161,-0.201324,-0.004337,-0.005359,0.004396,-48.0,-15.37,-26.870001000000002,2b
2019-07-12_100654:800,-0.448425,-0.040649,-0.20080599999999998,-0.004459,-0.005451,0.004457,-48.0,-15.37,-26.870001000000002,2b
2019-07-12_100654:820,-0.453003,-0.042694,-0.20233199999999998,-0.0042450000000000005,-0.006,0.004182,-47.68,-15.0,-27.68,2b
2019-07-12_100654:840,-0.454529,-0.041168,-0.20285,-0.004184,-0.0061530000000000005,0.004518,-47.68,-15.0,-27.68,2b
2019-07-12_100654:860,-0.45553599999999994,-0.041687,-0.203369,-0.003879,-0.005878,0.005128,-47.68,-15.0,-27.68,2b
2019-07-12_100654:880,-0.453003,-0.041168,-0.20486500000000002,-0.003788,-0.005573,0.004732,-48.75,-15.75,-27.68,2b
2019-07-12_100654:900,-0.45095799999999997,-0.039642000000000004,-0.20233199999999998,-0.004001,-0.0052369999999999995,0.004091,-48.75,-15.75,-27.68,2b
2019-07-12_100654:920,-0.449432,-0.039642000000000004,-0.20233199999999998,-0.004062,-0.005176,0.004396,-47.68,-15.37,-27.68,2b
2019-07-12_100654:940,-0.453003,-0.041168,-0.20233199999999998,-0.004184,-0.0055119999999999995,0.004548,-47.68,-15.37,-27.68,2b
2019-07-12_100654:960,-0.453491,-0.041168,-0.20080599999999998,-0.004123,-0.0055119999999999995,0.004548,-47.68,-15.37,-27.68,2b
2019-07-12_100654:980,-0.454529,-0.040649,-0.201324,-0.0042450000000000005,-0.005451,0.005067,-48.0,-15.0,-27.68,2b
2019-07-12_100655:000,-0.454529,-0.041168,-0.201324,-0.004459,-0.005451,0.005189,-48.0,-15.0,-27.68,2b
2019-07-12_100655:020,-0.453491,-0.040649,-0.201324,-0.004581,-0.00539,0.004732,-48.0,-15.0,-28.18,2b
2019-07-12_100655:040,-0.453003,-0.040649,-0.20080599999999998,-0.004642,-0.0055119999999999995,0.005189,-48.0,-15.0,-28.18,2b
2019-07-12_100655:060,-0.45095799999999997,-0.044739,-0.201324,-0.004642,-0.005725,0.0058,-48.0,-15.0,-28.18,2b
2019-07-12_100655:080,-0.451477,-0.046265,-0.201843,-0.004612,-0.006,0.004457,-47.68,-15.37,-26.870001000000002,2b
2019-07-12_100655:100,-0.451477,-0.043213,-0.201843,-0.004459,-0.006214,0.004274,-47.68,-15.37,-26.870001000000002,2b
2019-07-12_100655:120,-0.453003,-0.044219999999999995,-0.20233199999999998,-0.004062,-0.006275,0.005586,-47.68,-15.0,-27.68,2b
2019-07-12_100655:140,-0.453003,-0.045226999999999996,-0.201843,-0.00394,-0.0061530000000000005,0.005586,-47.68,-15.0,-27.68,2b
2019-07-12_100655:160,-0.455017,-0.043213,-0.20233199999999998,-0.004062,-0.005756,0.004457,-47.68,-15.0,-27.68,2b
2019-07-12_100655:180,-0.451477,-0.044739,-0.20233199999999998,-0.004184,-0.005939,0.004457,-48.0,-15.37,-28.5,2b
2019-07-12_100655:200,-0.453491,-0.044219999999999995,-0.20385699999999998,-0.004398,-0.005817,0.004335,-48.0,-15.37,-28.5,2b
2019-07-12_100655:220,-0.453003,-0.043701,-0.203369,-0.004581,-0.0055119999999999995,0.004152,-47.68,-14.56,-26.870001000000002,2b
2019-07-12_100655:240,-0.454529,-0.044219999999999995,-0.201324,-0.004764,-0.00539,0.004335,-47.68,-14.56,-26.870001000000002,2b
2019-07-12_100655:260,-0.45401,-0.044739,-0.201843,-0.004398,-0.005176,0.004152,-47.68,-14.56,-26.870001000000002,2b
2019-07-12_100655:280,-0.453491,-0.044739,-0.20486500000000002,-0.004612,-0.005359,0.003908,-48.0,-14.25,-27.25,2b
2019-07-12_100655:300,-0.453003,-0.043701,-0.201324,-0.004275999999999999,-0.0052369999999999995,0.004152,-48.0,-14.25,-27.25,2b
2019-07-12_100655:320,-0.453491,-0.043701,-0.201843,-0.004398,-0.005115,0.004182,-48.75,-15.37,-27.25,2b
2019-07-12_100655:340,-0.453003,-0.042694,-0.200317,-0.004612,-0.005176,0.004091,-48.75,-15.37,-27.25,2b
2019-07-12_100655:360,-0.45196499999999995,-0.043213,-0.20080599999999998,-0.004612,-0.005359,0.004091,-48.75,-15.37,-27.25,2b
2019-07-12_100655:380,-0.451477,-0.044219999999999995,-0.20080599999999998,-0.004703,-0.005298,0.003694,-48.369999,-14.56,-27.25,2b
2019-07-12_100655:400,-0.45196499999999995,-0.043213,-0.198273,-0.004581,-0.00539,0.0037549999999999997,-48.369999,-14.56,-27.25,2b
2019-07-12_100655:420,-0.453003,-0.043213,-0.20233199999999998,-0.0042450000000000005,-0.005695,0.004152,-47.68,-15.0,-26.870001000000002,2b
2019-07-12_100655:440,-0.451477,-0.044739,-0.198792,-0.004184,-0.005725,0.004091,-47.68,-15.0,-26.870001000000002,2b
2019-07-12_100655:460,-0.45095799999999997,-0.041687,-0.201843,-0.004001,-0.0055119999999999995,0.003908,-47.68,-15.0,-26.870001000000002,2b
2019-07-12_100655:480,-0.452484,-0.042175,-0.201324,-0.003879,-0.005878,0.004152,-48.0,-15.75,-27.68,2b
2019-07-12_100655:500,-0.451477,-0.041168,-0.20080599999999998,-0.004123,-0.005817,0.004396,-48.0,-15.75,-27.68,2b
2019-07-12_100655:520,-0.45401,-0.042175,-0.201843,-0.004337,-0.006092,0.004213000000000001,-48.75,-14.56,-26.18,2b
2019-07-12_100655:540,-0.45553599999999994,-0.042175,-0.199799,-0.004275999999999999,-0.0060609999999999995,0.004182,-48.75,-14.56,-26.18,2b
2019-07-12_100655:560,-0.45401,-0.041168,-0.201324,-0.004703,-0.005695,0.004396,-48.75,-14.56,-26.18,2b
2019-07-12_100655:580,-0.453491,-0.042175,-0.20080599999999998,-0.004703,-0.0055119999999999995,0.004915,-48.0,-15.0,-26.870001000000002,2b
2019-07-12_100655:600,-0.452484,-0.042694,-0.201843,-0.004947,-0.0055119999999999995,0.004609,-48.0,-15.0,-26.870001000000002,2b
2019-07-12_100655:620,-0.44995100000000005,-0.044739,-0.201324,-0.004886,-0.005878,0.004671,-48.75,-15.0,-27.68,2b
2019-07-12_100655:640,-0.453491,-0.044739,-0.20080599999999998,-0.004825,-0.006336,0.004457,-48.75,-15.0,-27.68,2b
2019-07-12_100655:660,-0.45553599999999994,-0.043701,-0.20285,-0.004612,-0.006275,0.004854,-48.75,-15.0,-27.68,2b
2019-07-12_100655:680,-0.45401,-0.044739,-0.20285,-0.004520000000000001,-0.005725,0.005342,-48.0,-15.37,-27.68,2b
2019-07-12_100655:700,-0.453491,-0.045226999999999996,-0.201843,-0.004459,-0.005298,0.004518,-48.0,-15.37,-27.68,2b
2019-07-12_100655:720,-0.451477,-0.043213,-0.201324,-0.004520000000000001,-0.004961999999999999,0.003908,-48.369999,-15.37,-28.5,2b
2019-07-12_100655:740,-0.451477,-0.045226999999999996,-0.199799,-0.004581,-0.005176,0.004396,-48.369999,-15.37,-28.5,2b
2019-07-12_100655:760,-0.453003,-0.043701,-0.199799,-0.004612,-0.005176,0.004396,-48.369999,-15.37,-28.5,2b
2019-07-12_100655:780,-0.454529,-0.045226999999999996,-0.19927999999999998,-0.004642,-0.005573,0.004274,-48.369999,-15.37,-26.870001000000002,2b
2019-07-12_100655:800,-0.453491,-0.045226999999999996,-0.199799,-0.004612,-0.005756,0.004609,-48.369999,-15.37,-26.870001000000002,2b
2019-07-12_100655:820,-0.454529,-0.045226999999999996,-0.19927999999999998,-0.004612,-0.005573,0.004609,-48.0,-15.37,-27.68,2b
2019-07-12_100655:840,-0.45196499999999995,-0.043213,-0.199799,-0.004825,-0.005725,0.004609,-48.0,-15.37,-27.68,2b
2019-07-12_100655:860,-0.451477,-0.043213,-0.201324,-0.004947,-0.005878,0.004854,-48.0,-15.37,-27.68,2b
2019-07-12_100655:880,-0.45095799999999997,-0.046265,-0.198792,-0.005039,-0.005756,0.004793,-48.75,-14.25,-27.25,2b
2019-07-12_100655:900,-0.451477,-0.047272,-0.199799,-0.004978,-0.006092,0.003358,-48.75,-14.25,-27.25,2b
2019-07-12_100655:920,-0.451477,-0.044219999999999995,-0.201843,-0.004886,-0.006214,0.0038159999999999995,-48.369999,-15.0,-28.5,2b
2019-07-12_100655:940,-0.452484,-0.047791,-0.201324,-0.004459,-0.006458,0.005128,-48.369999,-15.0,-28.5,2b
2019-07-12_100655:960,-0.45401,-0.047272,-0.201843,-0.004184,-0.006336,0.004671,-48.369999,-15.0,-28.5,2b
2019-07-12_100655:980,-0.454529,-0.043213,-0.201324,-0.004337,-0.005939,0.0038159999999999995,-48.369999,-15.0,-27.25,2b
2019-07-12_100656:000,-0.453491,-0.043701,-0.20080599999999998,-0.004520000000000001,-0.005817,0.003908,-48.369999,-15.0,-27.25,2b
2019-07-12_100656:020,-0.452484,-0.044739,-0.20233199999999998,-0.004825,-0.006,0.0038469999999999997,-48.369999,-15.0,-28.059998999999998,2b
2019-07-12_100656:040,-0.453003,-0.044739,-0.20080599999999998,-0.0051,-0.006,0.003572,-48.369999,-15.0,-28.059998999999998,2b
2019-07-12_100656:060,-0.452484,-0.045226999999999996,-0.201324,-0.004947,-0.006,0.003572,-48.369999,-15.0,-28.059998999999998,2b
2019-07-12_100656:080,-0.453003,-0.046265,-0.20233199999999998,-0.004581,-0.006092,0.003633,-48.0,-14.56,-28.18,2b
2019-07-12_100656:100,-0.452484,-0.043701,-0.201324,-0.004337,-0.005817,0.0038469999999999997,-48.0,-14.56,-28.18,2b
2019-07-12_100656:120,-0.453491,-0.044219999999999995,-0.20233199999999998,-0.0042450000000000005,-0.005756,0.004182,-48.0,-15.0,-26.870001000000002,2b
2019-07-12_100656:140,-0.452484,-0.044739,-0.201324,-0.004459,-0.0060609999999999995,0.004213000000000001,-48.0,-15.0,-26.870001000000002,2b
2019-07-12_100656:160,-0.453491,-0.044739,-0.20080599999999998,-0.004703,-0.005939,0.0037549999999999997,-48.0,-15.0,-26.870001000000002,2b
2019-07-12_100656:180,-0.45196499999999995,-0.043701,-0.20080599999999998,-0.004642,-0.006,0.003908,-48.0,-15.37,-26.870001000000002,2b
2019-07-12_100656:200,-0.45196499999999995,-0.043213,-0.199799,-0.004825,-0.005878,0.004152,-48.0,-15.37,-26.870001000000002,2b
2019-07-12_100656:220,-0.45196499999999995,-0.043701,-0.201324,-0.005039,-0.006092,0.003908,-48.75,-14.56,-28.5,2b
2019-07-12_100656:240,-0.453491,-0.044219999999999995,-0.201324,-0.004978,-0.005939,0.0039689999999999994,-48.75,-14.56,-28.5,2b
2019-07-12_100656:260,-0.45196499999999995,-0.044739,-0.201843,-0.004703,-0.005939,0.0039689999999999994,-48.75,-14.56,-28.5,2b
2019-07-12_100656:280,-0.451477,-0.043701,-0.20233199999999998,-0.004764,-0.006214,0.0037549999999999997,-47.68,-15.0,-27.0,2b
2019-07-12_100656:300,-0.452484,-0.042694,-0.201843,-0.004581,-0.0061530000000000005,0.0038469999999999997,-47.68,-15.0,-27.0,2b
2019-07-12_100656:320,-0.453491,-0.044219999999999995,-0.20385699999999998,-0.004642,-0.006214,0.004213000000000001,-48.0,-15.0,-27.68,2b
2019-07-12_100656:340,-0.45553599999999994,-0.042694,-0.20233199999999998,-0.004642,-0.006,0.00403,-48.0,-15.0,-27.68,2b
2019-07-12_100656:360,-0.453003,-0.042694,-0.201324,-0.004886,-0.005817,0.004091,-48.0,-15.0,-27.68,2b
2019-07-12_100656:380,-0.45401,-0.043701,-0.20385699999999998,-0.004886,-0.005817,0.004274,-47.25,-14.25,-27.68,2b
2019-07-12_100656:400,-0.451477,-0.043213,-0.201843,-0.005222,-0.005725,0.0039689999999999994,-47.25,-14.25,-27.68,2b
2019-07-12_100656:420,-0.45095799999999997,-0.044739,-0.204376,-0.005039,-0.005725,0.0039689999999999994,-48.0,-15.0,-27.68,2b
2019-07-12_100656:440,-0.453491,-0.043701,-0.203369,-0.004978,-0.006,0.00345,-48.0,-15.0,-27.68,2b
2019-07-12_100656:460,-0.453003,-0.043213,-0.20285,-0.005039,-0.0061530000000000005,0.0037549999999999997,-48.0,-15.0,-27.68,2b
2019-07-12_100656:480,-0.45401,-0.043701,-0.203369,-0.004825,-0.005817,0.004732,-48.0,-14.56,-26.5,2b
2019-07-12_100656:500,-0.452484,-0.044739,-0.20233199999999998,-0.004764,-0.0055119999999999995,0.0039689999999999994,-48.0,-14.56,-26.5,2b
2019-07-12_100656:520,-0.451477,-0.043701,-0.203369,-0.004764,-0.00539,0.003114,-48.369999,-14.56,-26.870001000000002,2b
2019-07-12_100656:540,-0.451477,-0.043213,-0.201324,-0.004703,-0.005359,0.00345,-48.369999,-14.56,-26.870001000000002,2b
2019-07-12_100656:560,-0.453491,-0.042694,-0.20233199999999998,-0.004825,-0.00539,0.0034189999999999997,-48.369999,-14.56,-26.870001000000002,2b
2019-07-12_100656:580,-0.45401,-0.042175,-0.20080599999999998,-0.004764,-0.00539,0.00345,-47.68,-15.37,-28.5,2b
2019-07-12_100656:600,-0.453491,-0.042694,-0.199799,-0.004581,-0.005573,0.00403,-47.68,-15.37,-28.5,2b
2019-07-12_100656:620,-0.454529,-0.042694,-0.201843,-0.004612,-0.005573,0.0039689999999999994,-48.369999,-14.56,-28.18,2b
2019-07-12_100656:640,-0.453003,-0.041168,-0.199799,-0.004642,-0.00539,0.003633,-48.369999,-14.56,-28.18,2b
2019-07-12_100656:660,-0.453003,-0.041168,-0.20233199999999998,-0.004886,-0.005756,0.004335,-48.369999,-14.56,-28.18,2b
2019-07-12_100656:680,-0.45095799999999997,-0.043213,-0.20080599999999998,-0.005161,-0.005725,0.004732,-47.68,-14.56,-27.68,2b
2019-07-12_100656:700,-0.451477,-0.043213,-0.201324,-0.0052829999999999995,-0.005939,0.003572,-47.68,-14.56,-27.68,2b
2019-07-12_100656:720,-0.452484,-0.041687,-0.20233199999999998,-0.005558,-0.005878,0.0032359999999999997,-48.369999,-15.37,-27.68,2b
2019-07-12_100656:740,-0.453003,-0.043701,-0.201843,-0.0051,-0.006488,0.004609,-48.369999,-15.37,-27.68,2b
2019-07-12_100656:760,-0.454529,-0.044219999999999995,-0.20233199999999998,-0.004825,-0.006214,0.004732,-48.369999,-15.37,-27.68,2b
2019-07-12_100656:780,-0.453003,-0.042694,-0.201843,-0.004764,-0.006,0.003633,-48.75,-15.37,-26.5,2b
2019-07-12_100656:800,-0.452484,-0.043213,-0.20285,-0.004642,-0.005817,0.003694,-48.75,-15.37,-26.5,2b
2019-07-12_100656:820,-0.451477,-0.043701,-0.20285,-0.004703,-0.006,0.003358,-47.68,-14.56,-28.18,2b
2019-07-12_100656:840,-0.45196499999999995,-0.042694,-0.20233199999999998,-0.004947,-0.005878,0.003053,-47.68,-14.56,-28.18,2b
2019-07-12_100656:860,-0.453003,-0.041687,-0.20233199999999998,-0.004825,-0.006092,0.0034189999999999997,-47.68,-14.56,-28.18,2b
2019-07-12_100656:880,-0.45654300000000003,-0.040649,-0.201324,-0.004978,-0.005878,0.003511,-48.0,-15.0,-26.18,2b
2019-07-12_100656:900,-0.45196499999999995,-0.039642000000000004,-0.201843,-0.004886,-0.0055119999999999995,0.00345,-48.0,-15.0,-26.18,2b
2019-07-12_100656:920,-0.452484,-0.039642000000000004,-0.201324,-0.004886,-0.005725,0.003908,-48.369999,-15.37,-27.25,2b
2019-07-12_100656:940,-0.45196499999999995,-0.039642000000000004,-0.201324,-0.004947,-0.005878,0.004152,-48.369999,-15.37,-27.25,2b
2019-07-12_100656:960,-0.452484,-0.040649,-0.20385699999999998,-0.004612,-0.005817,0.004152,-48.369999,-15.37,-27.25,2b
2019-07-12_100656:980,-0.45196499999999995,-0.041168,-0.20285,-0.004764,-0.0060609999999999995,0.00403,-48.75,-15.0,-27.25,2b
2019-07-12_100657:000,-0.452484,-0.040161,-0.20385699999999998,-0.004612,-0.005939,0.00403,-48.75,-15.0,-27.25,2b
