timestamp,AccX,AccY,AccZ,GyroX,GyroY,GyroZ,MagX,MagY,MagZ,Activity
2019-07-12_145631:340,-0.44384799999999996,0.085388,-0.086426,-0.035019999999999996,-0.015413999999999999,0.034905,-40.68,-9.18,-19.68,1a
2019-07-12_145631:360,-0.40774499999999997,0.065063,-0.065063,-0.036545999999999995,-0.014741999999999998,0.041191000000000005,-40.25,-10.0,-20.18,1a
2019-07-12_145631:380,-0.36654699999999996,0.036072,-0.045745999999999995,-0.036363,-0.012026,0.044182,-40.25,-10.0,-20.18,1a
2019-07-12_145631:400,-0.344177,0.024902,-0.037108999999999996,-0.035019999999999996,-0.007174,0.043999,-40.25,-10.0,-20.18,1a
2019-07-12_145631:420,-0.355896,0.013702,-0.019806,-0.034562,-0.004855,0.043144999999999996,-40.25,-8.5,-21.0,1a
2019-07-12_145631:440,-0.36248800000000003,0.0035399999999999997,-0.019318000000000002,-0.032639,0.002134,0.041527,-40.25,-8.5,-21.0,1a
2019-07-12_145631:460,-0.347229,-0.0055850000000000006,-0.010651,-0.030534,0.005796,0.041191000000000005,-41.060001,-7.25,-19.75,1a
2019-07-12_145631:480,-0.344696,-0.011687999999999999,-0.0030210000000000002,-0.028337,0.007108,0.036614,-41.060001,-7.25,-19.75,1a
2019-07-12_145631:500,-0.355377,-0.017273,-0.009125,-0.026475,0.007383,0.029258999999999997,-41.060001,-7.25,-19.75,1a
2019-07-12_145631:520,-0.360962,-0.016753999999999998,-0.009125,-0.023423,0.006712,0.023888,-40.25,-5.5,-20.25,1a
2019-07-12_145631:540,-0.465179,-0.026917,0.001007,-0.019913999999999998,0.006132,0.019829,-40.25,-5.5,-20.25,1a
2019-07-12_145631:560,-0.501801,-0.026917,-0.008118,-0.01793,0.0073219999999999995,0.017968,-41.75,-6.18,-17.68,1a
2019-07-12_145631:580,-0.636536,-0.036072,0.013213999999999998,-0.011399,0.011442,0.010062999999999999,-41.75,-6.18,-17.68,1a
2019-07-12_145631:600,-0.641113,-0.040649,-0.026917,-0.007095999999999999,0.013425,0.005028,-41.75,-6.18,-17.68,1a
2019-07-12_145631:620,-0.561279,-0.074738,-0.024902,-0.0029460000000000003,0.013578,0.000481,-41.75,-4.75,-18.25,1a
2019-07-12_145631:640,-0.638062,-0.08081100000000001,-0.013702,0.009932999999999999,0.015073,-0.027076,-41.75,-4.75,-18.25,1a
2019-07-12_145631:660,-0.9578549999999999,-0.034058,-0.05996699999999999,0.010451,0.016996,-0.031501,-43.0,-6.25,-17.75,1a
2019-07-12_145631:680,-0.812439,-0.017273,-0.068115,0.01094,0.032682,-0.0149,-43.0,-6.25,-17.75,1a
2019-07-12_145631:700,-0.490601,-0.045745999999999995,-0.034058,0.008284999999999999,0.025785000000000002,-0.014259,-43.0,-6.25,-17.75,1a
2019-07-12_145631:720,-0.36911,-0.07775900000000001,-0.065063,0.005965,0.020383000000000002,-0.015907,-42.5,-7.37,-17.5,1a
2019-07-12_145631:740,-0.34570300000000004,-0.10116599999999999,-0.076263,0.005752,-0.0057090000000000005,0.002892,-42.5,-7.37,-17.5,1a
2019-07-12_145631:760,-0.501282,-0.12048299999999999,-0.051330999999999995,0.007094,-0.012484,0.013328999999999999,-42.869999,-7.37,-15.06,1a
2019-07-12_145631:780,-0.64975,-0.156586,-0.079803,0.009536,-0.015016999999999999,0.016198,-42.869999,-7.37,-15.06,1a
2019-07-12_145631:800,-0.5617979999999999,-0.166229,-0.051849,0.013137000000000001,-0.009188,-0.004219,-42.869999,-7.37,-15.06,1a
2019-07-12_145631:820,-0.495697,-0.13269,-0.038116000000000004,0.015456000000000001,-0.008242,-0.012855000000000002,-42.060001,-7.37,-15.06,1a
2019-07-12_145631:840,-0.51297,-0.10675,-0.047272,0.016311000000000003,-0.004122,-0.015907,-42.060001,-7.37,-15.06,1a
2019-07-12_145631:860,-0.42858900000000005,-0.085388,-0.047791,0.016372,-0.00461,-0.00962,-43.18,-7.75,-17.059998999999998,1a
2019-07-12_145631:880,-0.389954,-0.08081100000000001,-0.032532,0.016646,-0.009249,-0.002357,-43.18,-7.75,-17.059998999999998,1a
2019-07-12_145631:900,-0.36349499999999996,-0.067108,-0.034058,0.014509999999999999,-0.010104,-0.011665,-43.18,-7.75,-17.059998999999998,1a
2019-07-12_145631:920,-0.342163,-0.047272,-0.023895,0.013534000000000001,-0.009768,-0.016059999999999998,-41.369999,-7.0,-17.059998999999998,1a
2019-07-12_145631:940,-0.338593,-0.026917,-0.004059,0.010848,-0.0059229999999999994,-0.019355,-41.369999,-7.0,-17.059998999999998,1a
2019-07-12_145631:960,-0.358917,-0.026427999999999997,0.0,0.009932999999999999,-0.0037869999999999996,-0.019111000000000003,-41.369999,-7.37,-17.059998999999998,1a
2019-07-12_145631:980,-0.378265,-0.030487,0.004547,0.008742,0.004942,-0.020881,-41.369999,-7.37,-17.059998999999998,1a
2019-07-12_145632:000,-0.396057,-0.026917,0.014740000000000001,0.00859,0.010313,-0.019294,-41.369999,-7.37,-17.059998999999998,1a
2019-07-12_145632:020,-0.414337,-0.027954000000000003,0.020325,0.009017,0.012754000000000001,-0.017311,-40.560001,-8.87,-17.059998999999998,1a
2019-07-12_145632:040,-0.42758199999999996,-0.03302,0.019318000000000002,0.010787,0.013761,-0.014717,-40.560001,-8.87,-17.059998999999998,1a
2019-07-12_145632:060,-0.377228,-0.026917,0.006592,0.011001,0.0119,-0.014503,-40.560001,-8.87,-17.059998999999998,1a
2019-07-12_145632:080,-0.401123,-0.013702,0.022369,0.01094,0.0007610000000000001,-0.010872,-41.5,-8.87,-15.75,1a
2019-07-12_145632:100,-0.522125,0.0,0.011169,0.010145999999999999,-0.0027489999999999997,-0.009590000000000001,-41.5,-8.87,-15.75,1a
2019-07-12_145632:120,-0.591797,0.004547,0.028961,0.0068200000000000005,-0.0024739999999999996,-0.007881,-41.5,-9.56,-16.25,1a
2019-07-12_145632:140,-0.657898,0.015228,0.031494,0.002242,0.001279,-0.0055,-41.5,-9.56,-16.25,1a
2019-07-12_145632:160,-0.581635,0.013213999999999998,0.001007,-0.001603,0.005186,-0.002388,-41.060001,-10.37,-17.059998999999998,1a
2019-07-12_145632:180,-0.5323180000000001,0.021332,-0.017792,-0.0049299999999999995,0.002805,0.0009390000000000001,-41.060001,-10.37,-17.059998999999998,1a
2019-07-12_145632:200,0.9958799999999999,0.028961,-0.012177,-0.012681,0.006986,0.016045,-41.060001,-10.37,-17.059998999999998,1a
2019-07-12_145632:220,-0.760071,0.040161,-0.083374,-0.016191,0.010526,0.026024000000000002,-41.060001,-11.06,-16.25,1a
2019-07-12_145632:240,-0.40316799999999997,0.029480000000000003,-0.032532,-0.014939,0.025632,0.03463,-41.060001,-11.06,-16.25,1a
2019-07-12_145632:260,-0.29895,0.040649,-0.077271,-0.0132,0.021329,0.026206999999999998,-41.060001,-11.06,-16.25,1a
2019-07-12_145632:280,-0.536377,0.068634,-0.053863999999999995,-0.009538,0.00134,-0.012123,-41.75,-9.5,-15.5,1a
2019-07-12_145632:300,-0.743805,0.104706,-0.067108,-0.009629,-0.0010400000000000001,-0.01371,-41.75,-9.5,-15.5,1a
2019-07-12_145632:320,-0.56839,0.112854,-0.045226999999999996,-0.009415999999999999,-0.00036899999999999997,0.005761,-41.5,-9.06,-15.06,1a
2019-07-12_145632:340,-0.523163,0.07775900000000001,-0.017273,-0.012925,0.000608,0.021477,-41.5,-9.06,-15.06,1a
2019-07-12_145632:360,-0.531799,0.057434000000000006,-0.029968,-0.01439,0.002073,0.019768,-41.5,-9.06,-15.06,1a
2019-07-12_145632:380,-0.492126,0.053863999999999995,-0.025421,-0.014939,0.004392,0.019982,-41.5,-10.56,-13.75,1a
2019-07-12_145632:400,-0.421967,0.037598,-0.017792,-0.0179,-0.004672,0.022147999999999998,-41.5,-10.56,-13.75,1a
2019-07-12_145632:420,-0.410278,0.027435,-0.011169,-0.020036,-0.007967,0.020562,-41.75,-8.75,-14.68,1a
2019-07-12_145632:440,-0.35943600000000003,0.011687999999999999,-0.002014,-0.023606,-0.012362,0.020501,-41.75,-8.75,-14.68,1a
2019-07-12_145632:460,-0.330963,-0.000488,0.004059,-0.02324,-0.012545,0.021416,-41.75,-8.75,-14.68,1a
2019-07-12_145632:480,-0.33300799999999997,-0.011687999999999999,0.014221000000000001,-0.022874000000000002,-0.011568,0.019036,-41.060001,-8.75,-14.25,1a
2019-07-12_145632:500,-0.344177,-0.009125,0.010162000000000001,-0.02263,-0.010836,0.018303,-41.060001,-8.75,-14.25,1a
2019-07-12_145632:520,-0.334015,-0.008118,0.017792,-0.022172,-0.009158,0.021019,-40.25,-8.0,-14.18,1a
2019-07-12_145632:540,-0.34317,-0.0030210000000000002,0.020325,-0.022752,-0.009768,0.026482,-40.25,-8.0,-14.18,1a
2019-07-12_145632:560,-0.352844,0.004059,0.014221000000000001,-0.023881,-0.010957999999999999,0.025292,-40.25,-8.0,-14.18,1a
2019-07-12_145632:580,-0.354858,0.007599,0.014221000000000001,-0.027085,-0.014741999999999998,0.020714,-40.68,-7.68,-14.56,1a
2019-07-12_145632:600,-0.45043900000000003,-0.008636,0.024384,-0.028611,-0.016878999999999998,0.019982,-40.68,-7.68,-14.56,1a
2019-07-12_145632:620,-0.525696,-0.028961,0.033539,-0.027268,-0.018068999999999998,0.023766,-39.25,-6.56,-15.5,1a
2019-07-12_145632:640,-0.608063,-0.052338,0.033539,-0.025131999999999998,-0.014497999999999999,0.026664999999999998,-39.25,-6.56,-15.5,1a
2019-07-12_145632:660,-0.6370239999999999,-0.068634,0.026427999999999997,-0.022111000000000002,-0.010714,0.027458999999999997,-39.25,-6.56,-15.5,1a
2019-07-12_145632:680,-0.588745,-0.076263,0.023895,-0.0179,-0.004122,0.019951,-39.68,-6.87,-15.5,1a
2019-07-12_145632:700,-0.6975399999999999,-0.090485,0.050842,-0.014909,-0.0015890000000000001,0.005974,-39.68,-6.87,-15.5,1a
2019-07-12_145632:720,-0.815491,-0.07928500000000001,-0.083374,-0.011276999999999999,0.002286,-0.003151,-38.869999,-6.56,-14.68,1a
2019-07-12_145632:740,-0.729584,-0.10775799999999999,-0.032013,-0.009812000000000001,0.003141,0.002098,-38.869999,-6.56,-14.68,1a
2019-07-12_145632:760,-0.520111,-0.14386,-0.084381,-0.002275,-0.004061,-0.000648,-38.869999,-6.56,-14.68,1a
2019-07-12_145632:780,-0.37674,-0.157074,-0.137268,-0.000413,-0.017458,-0.0051649999999999995,-39.25,-6.87,-15.75,1a
2019-07-12_145632:800,-0.45553599999999994,-0.170319,-0.096588,0.0065450000000000005,-0.03113,0.0021899999999999997,-39.25,-6.87,-15.75,1a
2019-07-12_145632:820,-0.6563720000000001,-0.198273,-0.133698,0.011793999999999999,-0.039919,0.017632,-38.18,-6.56,-14.25,1a
2019-07-12_145632:840,-0.571442,-0.21505700000000003,-0.145386,0.014388,-0.030947000000000002,0.023888,-38.18,-6.56,-14.25,1a
2019-07-12_145632:860,-0.517548,-0.20538299999999998,-0.081848,0.019698,-0.017336,0.006035,-38.18,-6.18,-17.059998999999998,1a
2019-07-12_145632:880,-0.559265,-0.181488,-0.098633,0.021071,-0.016146,-0.000129,-38.18,-6.18,-17.059998999999998,1a
2019-07-12_145632:900,-0.523651,-0.156067,-0.095062,0.023025,-0.011446,-0.003029,-38.18,-6.18,-17.059998999999998,1a
2019-07-12_145632:920,-0.382324,-0.106232,-0.042694,0.023818000000000002,-0.008395,0.004296,-37.0,-5.37,-17.75,1a
2019-07-12_145632:940,-0.368591,-0.095581,-0.034058,0.02333,-0.007326999999999999,0.002434,-37.0,-5.37,-17.75,1a
2019-07-12_145632:960,-0.333496,-0.066589,-0.030487,0.019027000000000002,-0.004672,-0.008278,-37.0,-5.37,-17.75,1a
2019-07-12_145632:980,-0.320801,-0.047791,-0.022858,0.014236000000000002,-0.0018030000000000001,-0.019172,-37.0,-5.37,-18.25,1a
2019-07-12_145633:000,-0.326385,-0.03302,-0.011687999999999999,0.009078,2.8000000000000003e-05,-0.024086,-37.0,-5.37,-18.25,1a
2019-07-12_145633:020,-0.33758499999999997,-0.031006,-0.006592,0.0032189999999999996,0.0010960000000000002,-0.024543000000000002,-36.25,-5.06,-18.25,1a
2019-07-12_145633:040,-0.347748,-0.041687,-0.008636,-0.002275,0.0019510000000000003,-0.023292,-36.25,-5.06,-18.25,1a
2019-07-12_145633:060,-0.37112399999999995,-0.048798,-0.001495,-0.005723,0.002866,-0.021553,-36.25,-5.06,-18.25,1a
2019-07-12_145633:080,-0.423004,-0.057953,-0.001495,-0.008103,0.005125,-0.018715,-34.75,-5.75,-18.68,1a
2019-07-12_145633:100,-0.41232299999999994,-0.06149299999999999,-0.012695,-0.008897,0.0072,-0.015449000000000001,-34.75,-5.75,-18.68,1a
2019-07-12_145633:120,-0.390961,-0.066071,-0.0030210000000000002,-0.009355,0.006132,-0.013252000000000002,-34.75,-6.87,-17.5,1a
2019-07-12_145633:140,-0.484009,-0.075226,-0.004059,-0.009629,8.9e-05,-0.010322,-34.75,-6.87,-17.5,1a
2019-07-12_145633:160,-0.506378,-0.08590700000000001,-0.024384,-0.010331,-0.006197,-0.003822,-34.75,-6.87,-17.5,1a
2019-07-12_145633:180,-0.599426,-0.097107,0.010162000000000001,-0.009477,-0.0069299999999999995,0.0021899999999999997,-35.18,-7.68,-16.68,1a
2019-07-12_145633:200,-0.614166,-0.11080899999999999,-0.043701,-0.009629,-0.008517,0.006035,-35.18,-7.68,-16.68,1a
2019-07-12_145633:220,-0.525696,-0.09963999999999999,-0.045226999999999996,-0.006364,-0.00519,0.007225,-34.0,-8.0,-17.059998999999998,1a
2019-07-12_145633:240,-0.523651,-0.072174,-0.030487,-0.004258,-0.011691,0.005364,-34.0,-8.0,-17.059998999999998,1a
2019-07-12_145633:260,0.9145200000000001,-0.068634,-0.006592,-0.006761,-0.011812999999999999,0.005699,-34.0,-8.0,-17.059998999999998,1a
2019-07-12_145633:280,-0.619751,-0.037598,-0.131653,-0.016313,-0.01636,0.032372000000000005,-32.869999,-8.0,-17.75,1a
2019-07-12_145633:300,-0.35638400000000003,-0.043213,-0.044739,-0.017716,-0.000704,0.040276,-32.869999,-8.0,-17.75,1a
2019-07-12_145633:320,-0.44891400000000004,-0.034058,-0.09201000000000001,-0.015794,-0.012545,0.011193,-32.869999,-6.87,-18.68,1a
2019-07-12_145633:340,-0.651794,0.000488,-0.128113,-0.014787,-0.008517,-0.03083,-32.869999,-6.87,-18.68,1a
2019-07-12_145633:360,-0.569427,0.080322,-0.151489,-0.014847999999999998,-0.00458,-0.035896,-32.869999,-6.87,-18.68,1a
2019-07-12_145633:380,-0.5572199999999999,0.069122,-0.08843999999999999,-0.01439,-0.006045,-0.006141,-32.25,-6.56,-18.25,1a
2019-07-12_145633:400,-0.544495,0.033539,-0.11386099999999999,-0.018632,-0.012209000000000001,0.008019,-32.25,-6.56,-18.25,1a
2019-07-12_145633:420,-0.558746,0.025421,-0.11538699999999999,-0.022904,-0.017123,0.007836,-31.870001000000002,-8.0,-17.75,1a
2019-07-12_145633:440,-0.47180200000000005,0.012695,-0.128601,-0.021287,-0.025027,0.014061,-31.870001000000002,-8.0,-17.75,1a
2019-07-12_145633:460,-0.45806899999999995,-0.011169,-0.108795,-0.019242,-0.03345,0.019158,-31.870001000000002,-8.0,-17.75,1a
2019-07-12_145633:480,-0.411804,-0.027954000000000003,-0.10928299999999999,-0.017655,-0.036775999999999996,0.017449,-31.18,-7.68,-18.25,1a
2019-07-12_145633:500,-0.381317,-0.039124,-0.082855,-0.01378,-0.034182,0.018059,-31.18,-7.68,-18.25,1a
2019-07-12_145633:520,-0.36911,-0.049316000000000006,-0.059479,-0.008622,-0.029086,0.019036,-30.75,-7.25,-19.75,1a
2019-07-12_145633:540,-0.381317,-0.051849,-0.05285599999999999,-0.0054789999999999995,-0.021975,0.016533000000000003,-30.75,-7.25,-19.75,1a
2019-07-12_145633:560,-0.382812,-0.049316000000000006,-0.048279,-0.00316,-0.013491,0.013938999999999998,-30.75,-7.25,-19.75,1a
2019-07-12_145633:580,-0.379272,-0.044739,-0.047272,-0.000169,-0.006319,0.013787,-30.370001000000002,-7.25,-20.370001000000002,1a
2019-07-12_145633:600,-0.363007,-0.038635,-0.048279,0.001784,-0.00045999999999999996,0.012596,-30.370001000000002,-7.25,-20.370001000000002,1a
2019-07-12_145633:620,-0.353333,-0.031006,-0.042175,0.003646,0.004331000000000001,0.008629000000000001,-30.370001000000002,-6.87,-21.18,1a
2019-07-12_145633:640,-0.401642,-0.022858,-0.037108999999999996,0.005416,0.006986,0.0019149999999999998,-30.370001000000002,-6.87,-21.18,1a
2019-07-12_145633:660,-0.486023,-0.014221000000000001,-0.057434000000000006,0.006484,0.009458,-0.004097,-28.870001000000002,-6.87,-20.75,1a
2019-07-12_145633:680,-0.518066,-0.015228,-0.038635,0.006484,0.009458,-0.004097,-28.870001000000002,-6.87,-20.75,1a
2019-07-12_145633:700,-0.609589,-0.016266,-0.024902,0.006698000000000001,0.011715999999999999,-0.002754,-28.870001000000002,-6.87,-20.75,1a
2019-07-12_145633:720,-0.608063,-0.008636,-0.080322,0.004897,0.009916,0.000695,-28.870001000000002,-6.18,-21.559998999999998,1a
2019-07-12_145633:740,-0.5134890000000001,-0.012695,-0.05438200000000001,0.003768,0.011625,0.003624,-28.870001000000002,-6.18,-21.559998999999998,1a
2019-07-12_145633:760,-0.72702,-0.045745999999999995,-0.009644,0.003646,0.008237000000000001,-0.000984,-28.870001000000002,-6.18,-21.559998999999998,1a
2019-07-12_145633:780,-0.874481,-0.023375999999999997,-0.152008,0.000167,0.0026219999999999998,-0.002052,-27.75,-6.75,-21.18,1a
2019-07-12_145633:800,-0.599426,-0.083374,-0.077271,-0.000901,-0.001925,0.012383,-27.75,-6.75,-21.18,1a
2019-07-12_145633:820,-0.484009,-0.096069,-0.148956,-1.6e-05,-0.006594,0.004906000000000001,-29.25,-6.5,-20.370001000000002,1a
2019-07-12_145633:840,-0.372162,-0.096069,-0.187073,-0.002,-0.014224,-0.005684000000000001,-29.25,-6.5,-20.370001000000002,1a
2019-07-12_145633:860,-0.43927,-0.110321,-0.10675,0.000258,-0.014071,-0.002357,-29.25,-6.5,-20.370001000000002,1a
2019-07-12_145633:880,-0.603485,-0.124054,-0.172333,-0.000291,-0.017611,0.011467,-27.370001000000002,-6.06,-20.75,1a
2019-07-12_145633:900,-0.502319,-0.15506,-0.185547,0.000381,-0.020724,0.027123,-27.370001000000002,-6.06,-20.75,1a
2019-07-12_145633:920,-0.477905,-0.165741,-0.12658699999999998,0.0020280000000000003,-0.017336,0.020562,-27.75,-6.5,-22.370001000000002,1a
2019-07-12_145633:940,-0.535858,-0.137756,-0.170807,0.0028829999999999997,-0.021059,0.003258,-27.75,-6.5,-22.370001000000002,1a
2019-07-12_145633:960,-0.5211180000000001,-0.12149000000000001,-0.1586,0.0013880000000000001,-0.017794,0.002495,-27.75,-6.5,-22.370001000000002,1a
2019-07-12_145633:980,-0.47689799999999993,-0.119476,-0.137268,-0.000962,-0.015627000000000002,0.010613,-27.370001000000002,-5.25,-21.870001000000002,1a
2019-07-12_145634:000,-0.47280900000000003,-0.108795,-0.13269,-0.005906000000000001,-0.01401,0.0023120000000000003,-27.370001000000002,-5.25,-21.870001000000002,1a
2019-07-12_145634:020,-0.41995200000000005,-0.082855,-0.113373,-0.013535,-0.004519,-0.02201,-25.870001000000002,-5.25,-22.75,1a
2019-07-12_145634:040,-0.391479,-0.074738,-0.09201000000000001,-0.014268000000000001,-0.0010400000000000001,-0.025062,-25.870001000000002,-5.25,-22.75,1a
2019-07-12_145634:060,-0.383331,-0.073212,-0.07775900000000001,-0.014603999999999999,0.004545,-0.025459,-25.870001000000002,-5.25,-22.75,1a
2019-07-12_145634:080,-0.382324,-0.067596,-0.072174,-0.014329,0.008787,-0.024269,-26.370001000000002,-5.0,-23.18,1a
2019-07-12_145634:100,-0.385864,-0.05996699999999999,-0.06149299999999999,-0.012803,0.011167,-0.019172,-26.370001000000002,-5.0,-23.18,1a
2019-07-12_145634:120,-0.390442,-0.057953,-0.056915,-0.011003,0.010648000000000001,-0.014259,-26.0,-6.75,-22.75,1a
2019-07-12_145634:140,-0.372162,-0.051849,-0.05438200000000001,-0.011003,0.010313,-0.011207,-26.0,-6.75,-22.75,1a
2019-07-12_145634:160,-0.372162,-0.048279,-0.047791,-0.011276999999999999,0.008909,-0.009285,-26.0,-6.75,-22.75,1a
2019-07-12_145634:180,-0.36911,-0.040161,-0.059479,-0.012863999999999999,0.006314999999999999,-0.008551999999999999,-25.68,-7.56,-23.18,1a
2019-07-12_145634:200,-0.42453,-0.039124,-0.052338,-0.016191,0.002286,-0.007209,-25.68,-7.56,-23.18,1a
2019-07-12_145634:220,-0.458588,-0.037108999999999996,-0.077271,-0.020158000000000002,-0.001315,-0.002845,-26.0,-7.87,-21.870001000000002,1a
2019-07-12_145634:240,-0.551636,-0.046265,-0.043213,-0.024766,-0.000582,0.00042,-26.0,-7.87,-21.870001000000002,1a
2019-07-12_145634:260,-0.565338,-0.049805,-0.10775799999999999,-0.030473,-0.0007650000000000001,0.004906000000000001,-26.0,-7.87,-21.870001000000002,1a
2019-07-12_145634:280,-0.529266,-0.063019,-0.066589,-0.030869,0.004453,0.0019149999999999998,-25.25,-7.87,-23.059998999999998,1a
2019-07-12_145634:300,-0.44433599999999995,-0.050323,-0.111328,-0.032792,-0.002078,-0.006202,-25.25,-7.87,-23.059998999999998,1a
2019-07-12_145634:320,-0.661957,-0.050323,-0.042694,-0.033708,-0.007326999999999999,-0.004768,-25.25,-9.0,-22.370001000000002,1a
2019-07-12_145634:340,-0.602966,-0.027435,-0.265381,-0.040269,-0.024111,0.020104,-25.25,-9.0,-22.370001000000002,1a
2019-07-12_145634:360,-0.631958,-0.048279,-0.08743300000000001,-0.038041000000000005,-0.009036,0.024681,-25.25,-9.0,-22.370001000000002,1a
2019-07-12_145634:380,-0.467224,0.004059,-0.174896,-0.04326,-0.01581,0.005913,-25.25,-9.75,-23.870001000000002,1a
2019-07-12_145634:400,-0.316223,0.046265,-0.198273,-0.04213,-0.010775,-0.010872,-25.25,-9.75,-23.870001000000002,1a
2019-07-12_145634:420,-0.55365,0.065582,-0.118958,-0.042344,-0.009158,-0.023018,-24.18,-10.18,-22.75,1a
2019-07-12_145634:440,-0.60907,0.09201000000000001,-0.212006,-0.045274,-0.010622,-0.0167,-24.18,-10.18,-22.75,1a
2019-07-12_145634:460,-0.502808,0.101685,-0.139282,-0.048173,-0.002352,-0.0021739999999999997,-24.18,-10.18,-22.75,1a
2019-07-12_145634:480,-0.5343319999999999,0.092529,-0.121002,-0.05269,-0.003054,0.005547,-24.18,-11.25,-23.559998999999998,1a
2019-07-12_145634:500,-0.552643,0.095581,-0.16217,-0.05513099999999999,-0.002016,0.010491,-24.18,-11.25,-23.559998999999998,1a
2019-07-12_145634:520,-0.49975600000000003,0.095062,-0.149475,-0.057023000000000004,-0.004855,0.014672,-23.870001000000002,-12.37,-23.059998999999998,1a
2019-07-12_145634:540,-0.455017,0.081848,-0.168793,-0.05861,-0.015353,0.015984,-23.870001000000002,-12.37,-23.059998999999998,1a
2019-07-12_145634:560,-0.45605500000000004,0.063538,-0.175903,-0.059922,-0.024111,0.018822,-23.870001000000002,-12.37,-23.059998999999998,1a
2019-07-12_145634:580,-0.45043900000000003,0.037108999999999996,-0.168793,-0.057328,-0.026431,0.025414,-24.18,-13.18,-21.559998999999998,1a
2019-07-12_145634:600,-0.459595,0.025908999999999998,-0.157074,-0.053940999999999996,-0.022768,0.028312999999999998,-24.18,-13.18,-21.559998999999998,1a
2019-07-12_145634:620,-0.449432,0.022858,-0.138275,-0.050553,-0.013338999999999998,0.028312999999999998,-23.870001000000002,-14.25,-21.559998999999998,1a
2019-07-12_145634:640,-0.437225,0.022369,-0.12200899999999999,-0.047105,-0.003268,0.030601999999999997,-23.870001000000002,-14.25,-21.559998999999998,1a
2019-07-12_145634:660,-0.426544,0.016753999999999998,-0.11438,-0.043809,0.0050030000000000005,0.033958999999999996,-23.870001000000002,-14.25,-21.559998999999998,1a
2019-07-12_145634:680,-0.396545,0.011687999999999999,-0.11080899999999999,-0.041612,0.010892,0.035881,-23.5,-15.68,-21.559998999999998,1a
2019-07-12_145634:700,-0.379791,0.007111,-0.090485,-0.038285,0.013883000000000001,0.034233,-23.5,-15.68,-21.559998999999998,1a
2019-07-12_145634:720,-0.353333,0.010162000000000001,-0.095581,-0.035844,0.016141,0.028923,-23.870001000000002,-15.25,-21.18,1a
2019-07-12_145634:740,-0.375214,0.0055850000000000006,-0.066589,-0.033921,0.018491,0.024803,-23.870001000000002,-15.25,-21.18,1a
2019-07-12_145634:760,-0.44384799999999996,0.0035399999999999997,-0.072693,-0.032304,0.020261,0.026787000000000002,-23.870001000000002,-15.25,-21.18,1a
2019-07-12_145634:780,-0.47079499999999996,0.004547,-0.068115,-0.029344,0.024046,0.031639,-25.68,-15.0,-20.5,1a
2019-07-12_145634:800,-0.523163,0.001495,-0.051849,-0.029466000000000003,0.025693,0.030327,-25.68,-15.0,-20.5,1a
2019-07-12_145634:820,-0.56076,0.014740000000000001,-0.08996599999999999,-0.030839,0.024839,0.030327,-26.370001000000002,-14.68,-20.5,1a
2019-07-12_145634:840,-0.541443,0.012695,-0.082855,-0.031785,0.024564,0.031121,-26.370001000000002,-14.68,-20.5,1a
2019-07-12_145634:860,-0.48654200000000003,0.000488,-0.078796,-0.033311,0.023587999999999998,0.024498,-26.370001000000002,-14.68,-20.5,1a
2019-07-12_145634:880,-0.7224430000000001,-0.024902,-0.032013,-0.036485000000000004,0.021146,0.017235,-27.870001000000002,-15.18,-18.0,1a
2019-07-12_145634:900,-0.644165,-0.004547,-0.26944,-0.041612,0.007261,0.033958999999999996,-27.870001000000002,-15.18,-18.0,1a
2019-07-12_145634:920,-0.533325,-0.047791,-0.128601,-0.03682,0.008329000000000001,0.032921,-27.18,-15.25,-18.0,1a
2019-07-12_145634:940,-0.416382,-0.026917,-0.21554600000000002,-0.045518,-0.011111,0.011284,-27.18,-15.25,-18.0,1a
2019-07-12_145634:960,-0.315704,-0.004059,-0.21606399999999998,-0.044724,-0.005984000000000001,0.013146000000000001,-27.18,-15.25,-18.0,1a
2019-07-12_145634:980,-0.439758,-0.021332,-0.11386099999999999,-0.052017999999999995,0.004942,0.033623,-27.870001000000002,-14.87,-17.25,1a
2019-07-12_145635:000,-0.612122,-0.038635,-0.165741,-0.059525,0.0119,0.062828,-27.870001000000002,-14.87,-17.25,1a
2019-07-12_145635:020,-0.531799,-0.066589,-0.19927999999999998,-0.067216,0.020994,0.080315,-28.25,-14.87,-17.68,1a
2019-07-12_145635:040,-0.46469099999999997,-0.07928500000000001,-0.151489,-0.07447899999999999,0.021513,0.06704,-28.25,-14.87,-17.68,1a
2019-07-12_145635:060,-0.48349,-0.048279,-0.200317,-0.088853,0.016935,0.048241,-28.25,-14.87,-17.68,1a
2019-07-12_145635:080,-0.497742,-0.032013,-0.192169,-0.10301300000000001,0.017881,0.051018,-30.18,-14.18,-15.68,1a
2019-07-12_145635:100,-0.506897,-0.038635,-0.206909,-0.117753,0.015745,0.058525,-30.18,-14.18,-15.68,1a
2019-07-12_145635:120,-0.49468999999999996,-0.043213,-0.208954,-0.133927,0.016019,0.043601999999999995,-30.370001000000002,-14.56,-14.5,1a
2019-07-12_145635:140,-0.477386,-0.022858,-0.189636,-0.149796,0.019804,0.024803,-30.370001000000002,-14.56,-14.5,1a
2019-07-12_145635:160,-0.46670500000000004,-0.011687999999999999,-0.190125,-0.161271,0.027372000000000004,0.025016999999999998,-30.370001000000002,-14.56,-14.5,1a
2019-07-12_145635:180,-0.465179,-0.015747,-0.17996199999999998,-0.171494,0.037594999999999996,0.033165,-31.870001000000002,-13.75,-11.25,1a
2019-07-12_145635:200,-0.45553599999999994,-0.019318000000000002,-0.174377,-0.181046,0.046475999999999996,0.033837,-31.870001000000002,-13.75,-11.25,1a
2019-07-12_145635:220,-0.44281000000000004,-0.020325,-0.165222,-0.190354,0.05264099999999999,0.031456,-32.25,-14.18,-7.75,1a
2019-07-12_145635:240,-0.453491,-0.025421,-0.154022,-0.197251,0.056576999999999995,0.034569,-32.25,-14.18,-7.75,1a
2019-07-12_145635:260,-0.45605500000000004,-0.035065,-0.177948,-0.20460599999999998,0.05624199999999999,0.039025,-32.25,-14.18,-7.75,1a
2019-07-12_145635:280,-0.40774499999999997,-0.046265,-0.180481,-0.211869,0.053983,0.03756,-33.75,-14.68,-4.06,1a
2019-07-12_145635:300,-0.43011499999999997,-0.067108,-0.180481,-0.219102,0.046964,0.033043,-33.75,-14.68,-4.06,1a
2019-07-12_145635:320,-0.462646,-0.084381,-0.197266,-0.22407600000000003,0.043424000000000004,0.033500999999999996,-34.060001,-13.87,1.37,1a
2019-07-12_145635:340,-0.454529,-0.12301600000000001,-0.175903,-0.225266,0.046018,0.035759,-34.060001,-13.87,1.37,1a
2019-07-12_145635:360,-0.44027700000000003,-0.146912,-0.168274,-0.22328299999999998,0.050321,0.034355000000000004,-34.060001,-13.87,1.37,1a
2019-07-12_145635:380,-0.395538,-0.16217,-0.19574,-0.217973,0.04968,0.034355000000000004,-33.75,-12.5,5.0,1a
2019-07-12_145635:400,-0.375214,-0.181488,-0.17690999999999998,-0.20753600000000003,0.044308999999999994,0.028649,-33.75,-12.5,5.0,1a
2019-07-12_145635:420,-0.392487,-0.184021,-0.18249500000000002,-0.199174,0.033811,0.015526,-33.75,-9.06,8.18,1a
2019-07-12_145635:440,-0.360962,-0.17385899999999999,-0.166229,-0.185624,0.027494,0.006615,-33.75,-9.06,8.18,1a
2019-07-12_145635:460,-0.37674,-0.140808,-0.141846,-0.171556,0.020017,0.000603,-33.75,-9.06,8.18,1a
2019-07-12_145635:480,-0.48706099999999997,-0.124054,-0.121002,-0.160752,0.013486000000000001,-0.0038829999999999997,-33.75,-6.56,11.37,1a
2019-07-12_145635:500,-0.717377,-0.07016,-0.175903,-0.15941,0.004453,0.010094,-33.75,-6.56,11.37,1a
2019-07-12_145635:520,-0.43670699999999996,-0.068634,-0.157593,-0.14998,-0.001498,0.04049,-33.0,-5.37,11.75,1a
2019-07-12_145635:540,-0.405212,-0.075745,-0.09201000000000001,-0.14183099999999998,-0.00045999999999999996,0.022881,-33.0,-5.37,11.75,1a
2019-07-12_145635:560,-0.610596,-0.0030210000000000002,-0.111847,-0.137925,0.006589,-0.000312,-33.0,-5.37,11.75,1a
2019-07-12_145635:580,-0.6644899999999999,0.013702,-0.079803,-0.125382,0.027494,0.019707,-33.0,-3.18,13.5,1a
2019-07-12_145635:600,-0.610107,0.007111,-0.038635,-0.1158,0.047727,0.035149,-33.0,-3.18,13.5,1a
2019-07-12_145635:620,-0.5795899999999999,0.027954000000000003,-0.037598,-0.109117,0.056058000000000004,0.011986,-32.560001,-0.25,14.25,1a
2019-07-12_145635:640,-0.517059,0.09301799999999999,-0.040161,-0.10579000000000001,0.054197,-0.009803000000000001,-32.560001,-0.25,14.25,1a
2019-07-12_145635:660,-0.523651,0.128113,-0.024384,-0.10020499999999999,0.047666,-0.000251,-32.560001,-0.25,14.25,1a
2019-07-12_145635:680,-0.5348510000000001,0.135223,-0.027954000000000003,-0.101213,0.037656,0.021508000000000003,-32.25,2.0,16.370001000000002,1a
2019-07-12_145635:700,-0.537384,0.12301600000000001,-0.025908999999999998,-0.104051,0.028898000000000004,0.030968,-32.25,2.0,16.370001000000002,1a
2019-07-12_145635:720,-0.509918,0.100159,-0.039642000000000004,-0.10725499999999999,0.019651,0.028983999999999996,-31.68,3.06,15.87,1a
2019-07-12_145635:740,-0.466217,0.075745,-0.044739,-0.10731600000000001,0.011228,0.026206999999999998,-31.68,3.06,15.87,1a
2019-07-12_145635:760,-0.41384899999999997,0.040161,-0.051330999999999995,-0.105851,0.00427,0.026024000000000002,-31.68,3.06,15.87,1a
2019-07-12_145635:780,-0.390442,0.027954000000000003,-0.048798,-0.101396,-0.0011619999999999998,0.027611,-30.370001000000002,5.37,16.75,1a
2019-07-12_145635:800,-0.396057,-0.0025329999999999997,-0.03302,-0.097428,-0.001925,0.028312999999999998,-30.370001000000002,5.37,16.75,1a
2019-07-12_145635:820,-0.391968,-0.004547,-0.027954000000000003,-0.091508,0.002195,0.030205000000000003,-30.370001000000002,7.56,16.75,1a
2019-07-12_145635:840,-0.411285,-0.022858,-0.001007,-0.084886,0.009245,0.033898000000000005,-30.370001000000002,7.56,16.75,1a
2019-07-12_145635:860,-0.439758,-0.034058,0.0,-0.07789700000000001,0.016477000000000002,0.034172,-30.370001000000002,7.56,16.75,1a
2019-07-12_145635:880,-0.417389,-0.042175,0.006072999999999999,-0.070878,0.023527,0.032921,-29.68,10.56,15.87,1a
2019-07-12_145635:900,-0.421967,-0.051330999999999995,0.027435,-0.062577,0.027982,0.029075999999999998,-29.68,10.56,15.87,1a
2019-07-12_145635:920,-0.49365200000000004,-0.061005,0.041687,-0.055802,0.028959,0.023156,-29.68,13.18,15.25,1a
2019-07-12_145635:940,-0.569916,-0.06253099999999999,0.051330999999999995,-0.049699,0.030363,0.021569,-29.68,13.18,15.25,1a
2019-07-12_145635:960,-0.60144,-0.072693,0.042694,-0.045457,0.02963,0.028801,-29.68,13.18,15.25,1a
2019-07-12_145635:980,-0.587708,-0.08743300000000001,0.049805,-0.040421,0.027494,0.032982,-28.25,13.87,16.059998999999998,1a
2019-07-12_145636:000,-0.596863,-0.108276,0.051849,-0.037034,0.023832,0.027062,-28.25,13.87,16.059998999999998,1a
2019-07-12_145636:020,-0.6451720000000001,-0.113373,0.040161,-0.032060000000000005,0.021329,0.019829,-27.18,15.0,15.68,1a
2019-07-12_145636:040,-0.706177,-0.130646,0.025421,-0.029313,0.020413999999999998,0.022698,-27.18,15.0,15.68,1a
2019-07-12_145636:060,-0.710266,-0.139801,-0.020325,-0.028000999999999998,0.021603999999999998,0.033104,-27.18,15.0,15.68,1a
2019-07-12_145636:080,-0.439758,-0.168793,-0.101685,-0.029405,0.017942,0.046105,-26.0,15.68,16.870001000000002,1a
2019-07-12_145636:100,-0.393494,-0.190643,-0.127594,-0.027543,0.001737,0.044243,-26.0,15.68,16.870001000000002,1a
2019-07-12_145636:120,-0.46060200000000007,-0.186066,-0.21148699999999998,-0.026475,-0.017672,0.026726,-26.0,17.18,14.87,1a
2019-07-12_145636:140,-0.429108,-0.174377,-0.20233199999999998,-0.026536,-0.021394999999999997,0.006951000000000001,-26.0,17.18,14.87,1a
2019-07-12_145636:160,-0.519592,-0.160645,-0.158112,-0.022752,-0.010439,-0.013649000000000001,-26.0,17.18,14.87,1a
2019-07-12_145636:180,-0.549072,-0.130646,-0.153534,-0.024003,0.006314999999999999,-0.031898,-25.18,18.0,15.68,1a
2019-07-12_145636:200,-0.486023,-0.10928299999999999,-0.11691300000000002,-0.026475,0.023435,-0.035499,-25.18,18.0,15.68,1a
2019-07-12_145636:220,-0.462128,-0.10928299999999999,-0.105225,-0.026536,0.028349,-0.033363,-24.870001000000002,17.68,14.5,1a
2019-07-12_145636:240,-0.42453,-0.104706,-0.097595,-0.026688999999999997,0.02252,-0.03907,-24.870001000000002,17.68,14.5,1a
2019-07-12_145636:260,-0.40063499999999996,-0.094055,-0.071167,-0.025071,0.015073,-0.047035,-24.870001000000002,17.68,14.5,1a
2019-07-12_145636:280,-0.425537,-0.08081100000000001,-0.039124,-0.023698,0.007139,-0.047583999999999994,-25.559998999999998,17.0,16.5,1a
2019-07-12_145636:300,-0.431641,-0.0849,-0.032013,-0.023484,0.00048600000000000005,-0.039008999999999995,-25.559998999999998,17.0,16.5,1a
2019-07-12_145636:320,-0.429596,-0.102692,-0.012177,-0.022874000000000002,-0.004458,-0.03199,-26.25,15.75,14.5,1a
2019-07-12_145636:340,-0.437225,-0.100647,-0.002014,-0.022355,-0.009493000000000001,-0.031226999999999998,-26.25,15.75,14.5,1a
2019-07-12_145636:360,-0.448425,-0.08843999999999999,-0.014221000000000001,-0.022172,-0.012819999999999998,-0.028999,-26.25,15.75,14.5,1a
2019-07-12_145636:380,-0.430634,-0.09301799999999999,-0.013702,-0.022813,-0.012087,-0.026405,-27.059998999999998,15.5,14.5,1a
2019-07-12_145636:400,-0.434692,-0.095581,-0.002014,-0.022691,-0.008791,-0.027443000000000002,-27.059998999999998,15.5,14.5,1a
2019-07-12_145636:420,-0.43621800000000005,-0.090485,-0.009644,-0.022294,-0.004183,-0.029854000000000002,-28.18,14.68,14.5,1a
2019-07-12_145636:440,-0.40823400000000004,-0.086426,-0.009644,-0.021103999999999998,0.000547,-0.029639999999999996,-28.18,14.68,14.5,1a
2019-07-12_145636:460,-0.385864,-0.082336,-0.015747,-0.018632,0.002225,-0.029060000000000002,-28.18,14.68,14.5,1a
2019-07-12_145636:480,-0.399109,-0.075226,-0.020844,-0.015672,0.001157,-0.031898,-28.18,14.37,13.68,1a
2019-07-12_145636:500,-0.420441,-0.065063,-0.019318000000000002,-0.012284,0.0007,-0.035743000000000004,-28.18,14.37,13.68,1a
2019-07-12_145636:520,-0.48654200000000003,-0.050323,0.0025329999999999997,-0.009233,0.0032020000000000004,-0.035743000000000004,-28.18,12.87,13.68,1a
2019-07-12_145636:540,-0.543488,-0.046265,0.004059,-0.0072180000000000005,0.008573,-0.030708,-28.18,12.87,13.68,1a
2019-07-12_145636:560,-0.5617979999999999,-0.032532,0.007111,-0.006242,0.013181,-0.023292,-28.18,12.87,13.68,1a
2019-07-12_145636:580,-0.56485,-0.024902,0.008636,-0.005204,0.017088,-0.019172,-29.68,12.87,13.25,1a
2019-07-12_145636:600,-0.592804,-0.020325,0.0055850000000000006,-0.004533,0.018949,-0.018043,-29.68,12.87,13.25,1a
2019-07-12_145636:620,-0.595337,-0.006592,-0.007599,-0.003007,0.019468,-0.015052000000000001,-28.870001000000002,11.75,14.87,1a
2019-07-12_145636:640,-0.55365,0.019806,-0.014740000000000001,-0.002397,0.015958,-0.009346,-28.870001000000002,11.75,14.87,1a
2019-07-12_145636:660,-0.796692,0.035065,0.06405599999999999,-0.002152,0.009794,-0.004097,-28.870001000000002,11.75,14.87,1a
2019-07-12_145636:680,-0.618744,0.08843999999999999,-0.09201000000000001,-0.007156999999999999,0.007597,0.004967,-29.0,11.0,14.87,1a
2019-07-12_145636:700,-0.556213,0.08843999999999999,0.017792,-0.011857,0.010038,0.029381,-29.0,11.0,14.87,1a
2019-07-12_145636:720,-0.46569799999999995,0.090485,-0.08743300000000001,-0.010331,-0.0010400000000000001,0.044792,-29.0,10.25,14.5,1a
2019-07-12_145636:740,-0.44281000000000004,0.08081100000000001,-0.088959,-0.01027,-0.006776999999999999,0.038231,-29.0,10.25,14.5,1a
2019-07-12_145636:760,-0.6451720000000001,0.100159,-0.040649,-0.009355,-0.004336,0.015526,-29.0,10.25,14.5,1a
2019-07-12_145636:780,-0.627899,0.111847,-0.063019,-0.013016999999999999,0.0019510000000000003,0.003624,-29.0,11.0,14.87,1a
2019-07-12_145636:800,-0.5109560000000001,0.098633,-0.038116000000000004,-0.015977,0.006406,0.010001999999999999,-29.0,11.0,14.87,1a
2019-07-12_145636:820,-0.457581,0.076263,-0.043701,-0.020097,0.001493,0.018029,-28.68,11.75,13.68,1a
2019-07-12_145636:840,-0.433655,0.044739,-0.036072,-0.022294,-0.004,0.019188,-28.68,11.75,13.68,1a
2019-07-12_145636:860,-0.423004,0.027435,-0.043701,-0.023819999999999997,-0.010378,0.019188,-28.68,11.75,13.68,1a
2019-07-12_145636:880,-0.404694,0.0035399999999999997,-0.043213,-0.023209999999999998,-0.015353,0.021172,-29.370001000000002,12.18,13.25,1a
2019-07-12_145636:900,-0.40063499999999996,-0.008118,-0.033539,-0.020707,-0.016543000000000002,0.020562,-29.370001000000002,12.18,13.25,1a
2019-07-12_145636:920,-0.375702,-0.015228,-0.026427999999999997,-0.018968000000000002,-0.014407,0.01693,-29.75,13.68,12.87,1a
2019-07-12_145636:940,-0.374695,-0.015228,-0.015747,-0.017197999999999998,-0.010226,0.014794,-29.75,13.68,12.87,1a
2019-07-12_145636:960,-0.368073,-0.019806,-0.0055850000000000006,-0.016252000000000003,-0.0049770000000000005,0.015709,-29.75,13.68,12.87,1a
2019-07-12_145636:980,-0.37265,-0.026917,-0.007111,-0.016068,-0.001376,0.016777,-29.0,14.0,12.5,1a
2019-07-12_145637:000,-0.384857,-0.025908999999999998,-0.002014,-0.016252000000000003,-9.4e-05,0.016991,-29.0,14.0,12.5,1a
2019-07-12_145637:020,-0.40823400000000004,-0.025908999999999998,-0.000488,-0.016465,0.000608,0.016533000000000003,-29.370001000000002,14.0,11.68,1a
2019-07-12_145637:040,-0.423492,-0.028961,-0.001495,-0.017166999999999998,0.000883,0.015801,-29.370001000000002,14.0,11.68,1a
2019-07-12_145637:060,-0.407227,-0.038635,-0.0030210000000000002,-0.016923,0.0010960000000000002,0.014916,-29.370001000000002,14.0,11.68,1a
2019-07-12_145637:080,-0.45706199999999997,-0.042175,-0.0025329999999999997,-0.014787,0.001615,0.012719,-30.18,14.0,12.5,1a
2019-07-12_145637:100,-0.490601,-0.040161,0.0055850000000000006,-0.012467,0.0032020000000000004,0.012871,-30.18,14.0,12.5,1a
2019-07-12_145637:120,-0.636536,-0.040649,0.013213999999999998,-0.010148,0.006589,0.015374,-29.68,15.75,10.5,1a
2019-07-12_145637:140,-0.643127,-0.040649,-0.007599,-0.009629,0.008054,0.016899,-29.68,15.75,10.5,1a
2019-07-12_145637:160,-0.565338,-0.055908000000000006,-0.000488,-0.008348000000000001,0.008909,0.015038,-29.68,15.75,10.5,1a
2019-07-12_145637:180,-0.590271,-0.075226,0.001495,-0.007035,0.006925,0.008477,-28.18,16.18,11.25,1a
2019-07-12_145637:200,0.968414,-0.081329,0.014221000000000001,-0.003343,0.013241999999999999,-0.000923,-28.18,16.18,11.25,1a
2019-07-12_145637:220,-0.7392270000000001,-0.096069,-0.07016,-0.004991,0.014280000000000001,-0.0018989999999999999,-29.25,15.87,10.87,1a
2019-07-12_145637:240,-0.52774,-0.130127,-0.021851,-0.001267,0.015745,-0.002693,-29.25,15.87,10.87,1a
2019-07-12_145637:260,-0.47689799999999993,-0.131165,-0.102173,-0.001267,-0.0009789999999999998,-0.008278,-29.25,15.87,10.87,1a
2019-07-12_145637:280,-0.38028,-0.139801,-0.104218,-0.003221,-0.010714,-0.00043499999999999995,-29.68,15.87,12.5,1a
2019-07-12_145637:300,-0.5770569999999999,-0.185547,-0.060486,-0.001603,-0.015413999999999999,0.015404,-29.68,15.87,12.5,1a
2019-07-12_145637:320,-0.617218,-0.199799,-0.09454299999999999,0.0013880000000000001,-0.008028,0.015313,-30.370001000000002,15.75,12.0,1a
2019-07-12_145637:340,-0.47180200000000005,-0.187073,-0.053375,0.00563,0.002531,-9.9e-05,-30.370001000000002,15.75,12.0,1a
2019-07-12_145637:360,-0.420441,-0.157593,-0.058960000000000005,0.0157,0.006803,-0.017036000000000003,-30.370001000000002,15.75,12.0,1a
2019-07-12_145637:380,-0.41842700000000005,-0.128113,-0.053863999999999995,0.020949000000000002,0.0038729999999999997,-0.024147,-31.18,15.75,12.0,1a
2019-07-12_145637:400,-0.388428,-0.106232,-0.053375,0.024459,-0.0025960000000000002,-0.017189,-31.18,15.75,12.0,1a
2019-07-12_145637:420,-0.370636,-0.089478,-0.036591000000000005,0.027846,-0.010714,-0.0043100000000000005,-31.870001000000002,15.06,11.68,1a
2019-07-12_145637:440,-0.363007,-0.075226,-0.027435,0.029525,-0.017214,-0.0056229999999999995,-31.870001000000002,15.06,11.68,1a
2019-07-12_145637:460,-0.355896,-0.042175,-0.016753999999999998,0.027511,-0.019137,-0.017036000000000003,-31.870001000000002,15.06,11.68,1a
2019-07-12_145637:480,-0.352325,-0.024902,-0.015228,0.024856,-0.018984,-0.022865,-31.870001000000002,14.68,12.5,1a
2019-07-12_145637:500,-0.369598,-0.024384,-0.015228,0.021224,-0.017336,-0.021675,-31.870001000000002,14.68,12.5,1a
2019-07-12_145637:520,-0.395538,-0.029480000000000003,-0.019806,0.016829,-0.013705000000000002,-0.021888,-32.25,13.68,11.68,1a
2019-07-12_145637:540,-0.42807,-0.03302,-0.012177,0.012648999999999999,-0.008242,-0.02375,-32.25,13.68,11.68,1a
2019-07-12_145637:560,-0.446899,-0.034058,-0.016753999999999998,0.010451,-0.002322,-0.02375,-32.25,13.68,11.68,1a
2019-07-12_145637:580,-0.40011599999999997,-0.033539,-0.035065,0.00859,0.00021099999999999998,-0.022499,-33.0,12.18,12.0,1a
2019-07-12_145637:600,-0.383331,-0.027435,-0.025908999999999998,0.0074,-0.000582,-0.021827000000000003,-33.0,12.18,12.0,1a
2019-07-12_145637:620,-0.547546,-0.013213999999999998,-0.017792,0.004164999999999999,-0.000918,-0.021766,-34.5,12.18,11.68,1a
2019-07-12_145637:640,-0.555176,0.0,-0.027954000000000003,0.0020280000000000003,0.001005,-0.02021,-34.5,12.18,11.68,1a
2019-07-12_145637:660,-0.64975,0.004547,0.012177,-0.003617,0.012754000000000001,-0.012062,-34.5,12.18,11.68,1a
2019-07-12_145637:680,-0.643646,0.008118,-0.027954000000000003,-0.009355,0.01608,-0.008339,-34.5,10.68,10.5,1a
2019-07-12_145637:700,-0.518066,0.008118,-0.023375999999999997,-0.013016999999999999,0.016874,-0.004951,-34.5,10.68,10.5,1a
2019-07-12_145637:720,-0.520111,0.015747,-0.026427999999999997,-0.016191,0.008726000000000001,-0.001655,-34.869999,9.87,10.87,1a
2019-07-12_145637:740,-0.929901,0.026917,-0.068634,-0.022752,0.009183,0.004692,-34.869999,9.87,10.87,1a
2019-07-12_145637:760,-0.609589,0.023895,-0.107269,-0.029466000000000003,0.007932,0.021752,-34.869999,9.87,10.87,1a
2019-07-12_145637:780,-0.42758199999999996,0.002014,-0.039124,-0.025071,0.004209,0.02282,-34.869999,11.37,12.0,1a
2019-07-12_145637:800,-0.36706500000000003,0.017273,-0.11080899999999999,-0.023087,-0.006776999999999999,0.002434,-34.869999,11.37,12.0,1a
2019-07-12_145637:820,-0.551636,0.056915,-0.045745999999999995,-0.018785,-0.011294,-0.023413999999999997,-34.5,11.37,11.68,1a
2019-07-12_145637:840,-0.732635,0.09963999999999999,-0.081329,-0.020768000000000002,-0.012362,-0.025062,-34.5,11.37,11.68,1a
2019-07-12_145637:860,-0.539917,0.11538699999999999,-0.065582,-0.019456,-0.006776999999999999,-0.002449,-34.5,11.37,11.68,1a
2019-07-12_145637:880,-0.523651,0.10675,-0.039642000000000004,-0.019913999999999998,-0.005862,0.002983,-35.560001,10.68,12.5,1a
2019-07-12_145637:900,-0.540955,0.10318,-0.07775900000000001,-0.025162999999999998,-0.007631999999999999,-0.0029059999999999997,-35.560001,10.68,12.5,1a
2019-07-12_145637:920,-0.476379,0.10116599999999999,-0.066071,-0.026292000000000003,-0.010226,0.005364,-36.75,10.75,12.0,1a
2019-07-12_145637:940,-0.410278,0.055389,-0.046265,-0.026475,-0.01636,0.019036,-36.75,10.75,12.0,1a
2019-07-12_145637:960,-0.395538,0.030487,-0.042694,-0.026994,-0.018923,0.022147999999999998,-36.75,10.75,12.0,1a
2019-07-12_145637:980,-0.350281,0.014740000000000001,-0.026427999999999997,-0.025224,-0.016756,0.022300999999999998,-36.0,11.5,11.25,1a
2019-07-12_145638:000,-0.34570300000000004,0.0055850000000000006,-0.006592,-0.020829,-0.011904000000000001,0.025596999999999998,-36.0,11.5,11.25,1a
2019-07-12_145638:020,-0.372162,-0.004547,-0.0025329999999999997,-0.017259,-0.006136,0.027275,-36.369999,12.56,10.5,1a
2019-07-12_145638:040,-0.379791,-0.0055850000000000006,0.0025329999999999997,-0.015244,0.000303,0.027794,-36.369999,12.56,10.5,1a
2019-07-12_145638:060,-0.38028,-0.005065999999999999,0.012177,-0.013719,0.005613,0.029656000000000002,-36.369999,12.56,10.5,1a
2019-07-12_145638:080,-0.382812,-0.004059,0.014740000000000001,-0.012742,0.008176000000000001,0.030388,-36.75,12.56,10.0,1a
2019-07-12_145638:100,-0.361481,0.0,0.008118,-0.012467,0.008787,0.028526999999999997,-36.75,12.56,10.0,1a
2019-07-12_145638:120,-0.39859,-0.005065999999999999,0.022369,-0.011155,0.008054,0.024406999999999998,-36.75,13.75,9.25,1a
2019-07-12_145638:140,-0.47332799999999997,-0.0055850000000000006,0.017273,-0.011003,0.006254,0.021294,-36.75,13.75,9.25,1a
2019-07-12_145638:160,-0.561279,-0.013213999999999998,0.028442000000000002,-0.008103,0.007993,0.020775,-36.75,13.75,9.25,1a
2019-07-12_145638:180,-0.654327,-0.022858,0.013702,-0.006242,0.009031,0.019036,-35.560001,14.75,11.25,1a
2019-07-12_145638:200,-0.615692,-0.025908999999999998,0.007111,-0.004654999999999999,0.011564,0.017235,-35.560001,14.75,11.25,1a
2019-07-12_145638:220,-0.558228,-0.035583,0.017792,-0.003129,0.011686,0.014733000000000001,-36.75,15.18,11.68,1a
2019-07-12_145638:240,-0.585693,-0.058441,-0.008636,-0.000627,0.005796,0.008293,-36.75,15.18,11.68,1a
2019-07-12_145638:260,-0.998016,-0.084381,0.024902,0.004043,0.0038729999999999997,0.00103,-36.75,15.18,11.68,1a
2019-07-12_145638:280,-0.641602,-0.07928500000000001,-0.14743,0.004164999999999999,-0.004336,0.007073,-35.869999,16.18,10.87,1a
2019-07-12_145638:300,-0.44995100000000005,-0.121002,0.011687999999999999,0.012648999999999999,-0.00036899999999999997,0.007561,-35.869999,16.18,10.87,1a
2019-07-12_145638:320,-0.431122,-0.11795,-0.098633,0.01158,-0.015627000000000002,-0.001381,-37.0,15.75,11.25,1a
2019-07-12_145638:340,-0.404694,-0.12658699999999998,-0.083374,0.011733,-0.017458,0.0037770000000000004,-37.0,15.75,11.25,1a
2019-07-12_145638:360,-0.586182,-0.135223,-0.045745999999999995,0.012922999999999999,-0.020602000000000002,0.015801,-37.0,15.75,11.25,1a
2019-07-12_145638:380,-0.600433,-0.149475,-0.119476,0.009658,-0.019991,0.017327000000000002,-37.0,15.75,10.87,1a
2019-07-12_145638:400,-0.482483,-0.158112,-0.071167,0.00859,-0.016085,0.005822,-37.0,15.75,10.87,1a
2019-07-12_145638:420,-0.500275,-0.139801,-0.065063,0.008681,-0.018801,-0.003975,-37.369999,15.5,11.25,1a
2019-07-12_145638:440,-0.511444,-0.138275,-0.077271,0.00801,-0.018008,-0.001106,-37.369999,15.5,11.25,1a
2019-07-12_145638:460,-0.420959,-0.131165,-0.058960000000000005,0.010206999999999999,-0.018923,0.002983,-37.369999,15.5,11.25,1a
2019-07-12_145638:480,-0.394012,-0.118958,-0.050323,0.009932999999999999,-0.021914,-0.005836,-37.75,16.18,10.87,1a
2019-07-12_145638:500,-0.36044299999999996,-0.09201000000000001,-0.046265,0.008468,-0.021792,-0.020027,-37.75,16.18,10.87,1a
2019-07-12_145638:520,-0.361969,-0.077271,-0.032013,0.007949,-0.018068999999999998,-0.028663,-37.75,15.5,8.5,1a
2019-07-12_145638:540,-0.380798,-0.057953,-0.024902,0.00627,-0.011965,-0.031898,-37.75,15.5,8.5,1a
2019-07-12_145638:560,-0.382812,-0.054901,-0.019806,0.0043479999999999994,-0.003939,-0.031958999999999994,-37.75,15.5,8.5,1a
2019-07-12_145638:580,-0.394012,-0.047272,-0.010651,0.002517,0.002531,-0.029914999999999997,-38.869999,14.37,10.0,1a
2019-07-12_145638:600,-0.40570100000000003,-0.048798,-0.010651,0.0007160000000000001,0.006376,-0.025947,-38.869999,14.37,10.0,1a
2019-07-12_145638:620,-0.385864,-0.049316000000000006,-0.017792,-0.00047400000000000003,0.0073219999999999995,-0.022468000000000002,-39.25,13.25,9.0,1a
2019-07-12_145638:640,-0.372162,-0.050323,-0.017273,-0.000962,0.005064,-0.021613999999999998,-39.25,13.25,9.0,1a
2019-07-12_145638:660,-0.42147799999999996,-0.043701,-0.012177,-0.001206,0.0015539999999999998,-0.022285,-39.25,13.25,9.0,1a
2019-07-12_145638:680,-0.517059,-0.032013,-0.0025329999999999997,-0.0028239999999999997,0.002286,-0.021827000000000003,-39.68,12.18,9.75,1a
2019-07-12_145638:700,-0.5348510000000001,-0.031006,-0.018799,-0.006973999999999999,0.004331000000000001,-0.015846000000000002,-39.68,12.18,9.75,1a
2019-07-12_145638:720,-0.610596,-0.037598,0.007599,-0.010819,0.008176000000000001,-0.011512,-40.25,11.0,10.06,1a
2019-07-12_145638:740,-0.606537,-0.053375,-0.05285599999999999,-0.013871000000000001,0.006864,-0.013405000000000002,-40.25,11.0,10.06,1a
2019-07-12_145638:760,-0.529266,-0.046265,-0.048279,-0.012589,0.003934,-0.023262,-40.25,11.0,10.06,1a
2019-07-12_145638:780,-0.5205989999999999,-0.013702,-0.038116000000000004,-0.012925,-0.006258,-0.031958999999999994,-40.0,10.68,10.06,1a
2019-07-12_145638:800,-0.9451290000000001,0.030487,-0.06405599999999999,-0.016434999999999998,-0.010622,-0.02613,-40.0,10.68,10.06,1a
2019-07-12_145638:820,-0.617218,0.037108999999999996,-0.067596,-0.017716,-0.006776999999999999,-0.0021739999999999997,-40.25,9.5,10.06,1a
2019-07-12_145638:840,-0.44281000000000004,0.045745999999999995,-0.05438200000000001,-0.012925,-0.010561,0.005883,-40.25,9.5,10.06,1a
2019-07-12_145638:860,-0.349274,0.078278,-0.124054,-0.009629,-0.016207,-0.009926,-40.25,9.5,10.06,1a
2019-07-12_145638:880,-0.43518100000000004,0.11691300000000002,-0.100159,-0.009019,-0.019412000000000002,-0.029854000000000002,-41.5,8.37,9.0,1a
2019-07-12_145638:900,-0.6670229999999999,0.160645,-0.127106,-0.012681,-0.021914,-0.024604,-41.5,8.37,9.0,1a
2019-07-12_145638:920,-0.556702,0.156586,-0.13269,-0.014512,-0.017855000000000003,0.001,-41.75,7.25,9.75,1a
2019-07-12_145638:940,-0.502808,0.11795,-0.076752,-0.016801,-0.015749000000000003,0.010399,-41.75,7.25,9.75,1a
2019-07-12_145638:960,-0.49722299999999997,0.110321,-0.103699,-0.019119999999999998,-0.017397,0.004052,-41.75,7.25,9.75,1a
2019-07-12_145638:980,-0.514496,0.10675,-0.104706,-0.018052000000000002,-0.020907,0.002648,-42.25,7.25,7.75,1a
2019-07-12_145639:000,-0.42807,0.069641,-0.101685,-0.016801,-0.028567000000000002,0.010491,-42.25,7.25,7.75,1a
2019-07-12_145639:020,-0.42605600000000005,0.048279,-0.09201000000000001,-0.014909,-0.033327999999999997,0.016259,-42.25,7.37,7.0,1a
2019-07-12_145639:040,-0.405212,0.029968,-0.07928500000000001,-0.012284,-0.030672,0.020378,-42.25,7.37,7.0,1a
2019-07-12_145639:060,-0.404694,0.025421,-0.068634,-0.008164,-0.021639,0.024468,-42.25,7.37,7.0,1a
2019-07-12_145639:080,-0.404175,0.023375999999999997,-0.050323,-0.005052,-0.010165,0.025596999999999998,-41.869999,7.37,6.25,1a
2019-07-12_145639:100,-0.417908,0.024384,-0.043701,-0.004136,0.001401,0.025872000000000003,-41.869999,7.37,6.25,1a
2019-07-12_145639:120,-0.397064,0.029968,-0.033539,-0.0035259999999999996,0.010709,0.029044999999999998,-42.68,8.87,5.37,1a
2019-07-12_145639:140,-0.390442,0.028442000000000002,-0.033539,-0.0038,0.015562000000000001,0.032188999999999995,-42.68,8.87,5.37,1a
2019-07-12_145639:160,-0.358917,0.023895,-0.026917,-0.004533,0.017667,0.030846,-42.68,8.87,5.37,1a
2019-07-12_145639:180,-0.349274,0.023895,-0.026427999999999997,-0.005326,0.016233,0.026482,-42.25,10.37,7.0,1a
2019-07-12_145639:200,-0.445862,0.016753999999999998,-0.025421,-0.00554,0.013364,0.022545,-42.25,10.37,7.0,1a
2019-07-12_145639:220,-0.45907600000000004,0.017273,-0.034058,-0.005326,0.011289,0.021965000000000002,-41.560001,11.06,7.0,1a
2019-07-12_145639:240,-0.626862,0.008636,-0.007111,-0.003282,0.011777,0.021294,-41.560001,11.06,7.0,1a
2019-07-12_145639:260,-0.639587,0.007111,-0.029968,-0.0029460000000000003,0.010191,0.019646,-41.560001,11.06,7.0,1a
2019-07-12_145639:280,-0.58316,0.004547,-0.049805,-0.0014199999999999998,0.01077,0.018303,-41.18,11.87,7.75,1a
2019-07-12_145639:300,-0.500793,-0.012177,-0.031006,0.0009599999999999999,0.004148,0.013938999999999998,-41.18,11.87,7.75,1a
2019-07-12_145639:320,-0.8424379999999999,-0.012695,-0.155548,0.002517,0.001279,0.008019,-41.869999,11.87,8.18,1a
2019-07-12_145639:340,-0.6487430000000001,-0.026917,-0.194702,0.0020280000000000003,0.0016760000000000002,0.013604,-41.869999,11.87,8.18,1a
2019-07-12_145639:360,-0.446899,-0.064545,-0.09454299999999999,0.0058130000000000005,-0.002016,0.006554000000000001,-41.869999,11.87,8.18,1a
2019-07-12_145639:380,-0.405212,-0.081329,-0.150482,0.000503,-0.016268,0.003228,-40.75,11.5,7.0,1a
2019-07-12_145639:400,-0.496704,-0.113373,-0.095062,0.001967,-0.024447,0.013054,-40.75,11.5,7.0,1a
2019-07-12_145639:420,-0.6512760000000001,-0.127106,-0.104218,0.0005639999999999999,-0.032014999999999995,0.026726,-42.18,11.87,8.18,1a
2019-07-12_145639:440,-0.512482,-0.18454,-0.169281,0.002761,-0.030215,0.024742,-42.18,11.87,8.18,1a
2019-07-12_145639:460,-0.48754899999999995,-0.183014,-0.129639,0.006942,-0.024844,0.001732,-42.18,11.87,8.18,1a
2019-07-12_145639:480,-0.5109560000000001,-0.149963,-0.129639,0.007826999999999999,-0.024233,-0.011054999999999999,-41.5,12.25,8.18,1a
2019-07-12_145639:500,-0.52774,-0.112854,-0.160126,0.010604,-0.018801,-0.002235,-41.5,12.25,8.18,1a
2019-07-12_145639:520,-0.45907600000000004,-0.095062,-0.144379,0.010268000000000001,-0.01874,0.004692,-41.5,11.37,7.75,1a
2019-07-12_145639:540,-0.429596,-0.081848,-0.118958,0.006209,-0.018649000000000002,-0.004219,-41.5,11.37,7.75,1a
2019-07-12_145639:560,-0.42858900000000005,-0.061005,-0.117432,0.001754,-0.012819999999999998,-0.014106,-41.5,11.37,7.75,1a
2019-07-12_145639:580,-0.401123,-0.048279,-0.090485,-0.000962,-0.003146,-0.016761,-43.0,11.06,5.37,1a
2019-07-12_145639:600,-0.399597,-0.042694,-0.071167,-0.004136,0.006712,-0.018959,-43.0,11.06,5.37,1a
2019-07-12_145639:620,-0.404694,-0.043213,-0.066071,-0.0076760000000000005,0.01489,-0.020697999999999998,-42.560001,10.68,6.56,1a
2019-07-12_145639:640,-0.401123,-0.045745999999999995,-0.058960000000000005,-0.00908,0.021391,-0.018287,-42.560001,10.68,6.56,1a
2019-07-12_145639:660,-0.393005,-0.050842,-0.046265,-0.009294,0.023771,-0.013465999999999999,-42.560001,10.68,6.56,1a
2019-07-12_145639:680,-0.394012,-0.055389,-0.045226999999999996,-0.008744,0.023527,-0.010475,-41.68,9.18,6.25,1a
2019-07-12_145639:700,-0.383331,-0.055389,-0.041687,-0.007890000000000001,0.020933,-0.010322,-41.68,9.18,6.25,1a
2019-07-12_145639:720,-0.359955,-0.05285599999999999,-0.049805,-0.0063030000000000004,0.016141,-0.010536,-43.560001,8.75,8.18,1a
2019-07-12_145639:740,-0.42605600000000005,-0.044219999999999995,-0.031006,-0.00615,0.011838,-0.010414,-43.560001,8.75,8.18,1a
2019-07-12_145639:760,-0.503845,-0.035583,-0.037108999999999996,-0.007768000000000001,0.01077,-0.0058969999999999995,-43.560001,8.75,8.18,1a
2019-07-12_145639:780,-0.506897,-0.031494,-0.042694,-0.010758,0.011045000000000001,0.0014880000000000002,-43.18,7.37,7.37,1a
2019-07-12_145639:800,-0.619751,-0.039642000000000004,-0.018799,-0.013474000000000002,0.009245,0.004784,-43.18,7.37,7.37,1a
2019-07-12_145639:820,-0.55011,-0.047272,-0.082336,-0.014543,0.010313,0.0030440000000000003,-43.18,8.06,8.56,1a
2019-07-12_145639:840,-0.49365200000000004,-0.046265,-0.055908000000000006,-0.014115,0.005857,-0.00018999999999999998,-43.18,8.06,8.56,1a
2019-07-12_145639:860,-0.9003909999999999,-0.045745999999999995,-0.009644,-0.014847999999999998,0.001005,0.0030440000000000003,-43.18,8.06,8.56,1a
2019-07-12_145639:880,-0.709229,-0.032013,-0.207916,-0.015977,-0.005068,0.011132,-43.68,7.37,9.0,1a
2019-07-12_145639:900,-0.6289060000000001,-0.037108999999999996,-0.020325,-0.011125,-0.00045999999999999996,0.020958,-43.68,7.37,9.0,1a
2019-07-12_145639:920,-0.36349499999999996,0.008636,-0.172852,-0.009812000000000001,-0.007388,0.017571,-44.060001,8.06,8.18,1a
2019-07-12_145639:940,-0.271484,0.023895,-0.130646,-0.001603,-0.011446,-0.013252000000000002,-44.060001,8.06,8.18,1a
2019-07-12_145639:960,-0.641602,0.076263,-0.105225,-0.003282,-0.017458,-0.031257,-44.060001,8.06,8.18,1a
2019-07-12_145639:980,-0.646698,0.113373,-0.185547,-0.007554000000000001,-0.011355,-0.019081,-43.68,8.5,8.18,1a
2019-07-12_145640:000,-0.49111899999999997,0.10928299999999999,-0.083374,-0.010942,-0.004672,0.001274,-43.68,8.5,8.18,1a
2019-07-12_145640:020,-0.509918,0.085388,-0.096588,-0.017197999999999998,-0.006899,0.0063100000000000005,-44.0,6.68,8.18,1a
2019-07-12_145640:040,-0.540955,0.070648,-0.107269,-0.020158000000000002,-0.003878,0.006951000000000001,-44.0,6.68,8.18,1a
2019-07-12_145640:060,-0.5048520000000001,0.062012,-0.103699,-0.020829,-0.007723000000000001,0.012931999999999999,-44.0,6.68,8.18,1a
2019-07-12_145640:080,-0.465179,0.031494,-0.105743,-0.019578,-0.014224,0.014733000000000001,-44.75,6.25,9.37,1a
2019-07-12_145640:100,-0.45043900000000003,0.019318000000000002,-0.10116599999999999,-0.018907,-0.017519,0.011009999999999999,-44.75,6.25,9.37,1a
2019-07-12_145640:120,-0.411804,0.018799,-0.086914,-0.016128999999999998,-0.016482,0.011681,-44.060001,6.68,9.0,1a
2019-07-12_145640:140,-0.404175,0.011687999999999999,-0.077271,-0.013383,-0.013613,0.016381,-44.060001,6.68,9.0,1a
2019-07-12_145640:160,-0.410797,0.012695,-0.069122,-0.011734999999999999,-0.008912999999999999,0.018241999999999998,-44.060001,6.68,9.0,1a
2019-07-12_145640:180,-0.40570100000000003,0.010651,-0.063538,-0.011613,-0.0059229999999999994,0.018517,-45.18,8.5,8.18,1a
2019-07-12_145640:200,-0.39859,0.008118,-0.051849,-0.011003,2.8000000000000003e-05,0.020439,-45.18,8.5,8.18,1a
2019-07-12_145640:220,-0.38385,0.007111,-0.056915,-0.010148,0.001157,0.020562,-45.18,8.06,7.75,1a
2019-07-12_145640:240,-0.36706500000000003,0.0030210000000000002,-0.053863999999999995,-0.008622,0.0030800000000000003,0.016715999999999998,-45.18,8.06,7.75,1a
2019-07-12_145640:260,-0.347229,0.0035399999999999997,-0.05438200000000001,-0.0077069999999999994,0.003751,0.014672,-45.18,8.06,7.75,1a
2019-07-12_145640:280,-0.416901,-0.0025329999999999997,-0.039124,-0.007035,0.00427,0.014794,-45.060001,8.87,8.18,1a
2019-07-12_145640:300,-0.425018,-0.001495,-0.065582,-0.005052,0.005064,0.017449,-45.060001,8.87,8.18,1a
2019-07-12_145640:320,-0.568909,-0.010162000000000001,-0.036591000000000005,-0.004319,0.0064670000000000005,0.018181,-44.68,9.56,8.18,1a
2019-07-12_145640:340,-0.6426390000000001,-0.006592,-0.068634,-0.003282,0.006864,0.018456,-44.68,9.56,8.18,1a
2019-07-12_145640:360,-0.569916,0.0,-0.05996699999999999,-0.002793,0.011961,0.015801,-44.68,9.56,8.18,1a
2019-07-12_145640:380,-0.503326,0.0,-0.042694,-0.003007,0.014431999999999999,0.012322,-44.68,9.56,9.0,1a
2019-07-12_145640:400,-0.8719180000000001,-0.0030210000000000002,-0.004059,-0.004197,0.015501,-0.0026320000000000002,-44.68,9.56,9.0,1a
2019-07-12_145640:420,-0.74939,0.029968,-0.18454,-0.007615,0.010923,-0.002388,-44.68,10.0,9.0,1a
2019-07-12_145640:440,-0.539917,-0.019806,-0.03302,-0.011552,0.0029579999999999997,0.009209,-44.68,10.0,9.0,1a
2019-07-12_145640:460,-0.580597,-0.016753999999999998,-0.103699,-0.017838,-0.014741999999999998,0.012261,-44.68,10.0,9.0,1a
2019-07-12_145640:480,-0.365021,-0.044219999999999995,-0.16217,-0.020982,-0.015749000000000003,0.017632,-44.369999,10.0,11.0,1a
2019-07-12_145640:500,-0.361969,-0.063019,-0.088959,-0.0244,-0.009646,0.031517,-44.369999,10.0,11.0,1a
2019-07-12_145640:520,-0.547546,-0.100159,-0.140808,-0.026872000000000004,-0.010104,0.033898000000000005,-44.68,10.37,9.0,1a
2019-07-12_145640:540,-0.593811,-0.11386099999999999,-0.168793,-0.028123000000000002,2.8000000000000003e-05,0.034172,-44.68,10.37,9.0,1a
2019-07-12_145640:560,-0.46469099999999997,-0.133698,-0.12558,-0.024766,0.002744,0.024956,-44.68,10.37,9.0,1a
2019-07-12_145640:580,-0.500793,-0.12301600000000001,-0.117432,-0.023637000000000002,0.002073,0.017296000000000002,-45.5,12.56,9.75,1a
2019-07-12_145640:600,-0.511444,-0.09353600000000001,-0.131165,-0.027329000000000003,0.0038729999999999997,0.012412999999999999,-45.5,12.56,9.75,1a
2019-07-12_145640:620,-0.49468999999999996,-0.089478,-0.122528,-0.028275,0.00427,0.017632,-44.0,13.25,8.56,1a
2019-07-12_145640:640,-0.47689799999999993,-0.089478,-0.128601,-0.034776,-0.0012230000000000001,0.019951,-44.0,13.25,8.56,1a
2019-07-12_145640:660,-0.461121,-0.076263,-0.11843900000000002,-0.041154,-0.001955,0.007958,-44.0,13.25,8.56,1a
2019-07-12_145640:680,-0.448425,-0.052338,-0.100159,-0.044052999999999995,-0.0011619999999999998,0.003319,-44.369999,14.37,8.18,1a
2019-07-12_145640:700,-0.443329,-0.043701,-0.089478,-0.051621,0.005399,-0.004158,-44.369999,14.37,8.18,1a
2019-07-12_145640:720,-0.42453,-0.034058,-0.078278,-0.05449,0.008237000000000001,-0.0058969999999999995,-44.369999,14.37,8.18,1a
2019-07-12_145640:740,-0.417389,-0.030487,-0.071167,-0.062455,0.014280000000000001,-0.0063549999999999995,-44.369999,14.25,9.0,1a
2019-07-12_145640:760,-0.42858900000000005,-0.031006,-0.061005,-0.06590399999999999,0.015806,-0.0033640000000000002,-44.369999,14.25,9.0,1a
2019-07-12_145640:780,-0.425018,-0.029968,-0.068634,-0.067613,0.015409,-0.002571,-44.25,15.06,8.56,1a
2019-07-12_145640:800,-0.394012,-0.033539,-0.078796,-0.07179400000000001,0.0054600000000000004,-0.001442,-44.25,15.06,8.56,1a
2019-07-12_145640:820,-0.401642,-0.038635,-0.082855,-0.072862,0.00015,-0.00018999999999999998,-44.560001,14.68,7.75,1a
2019-07-12_145640:840,-0.44638100000000003,-0.038635,-0.065063,-0.07335,-0.009921,0.000695,-44.560001,14.68,7.75,1a
2019-07-12_145640:860,-0.514496,-0.031006,-0.063019,-0.075456,-0.007174,-0.001503,-44.560001,14.68,7.75,1a
2019-07-12_145640:880,-0.5058590000000001,-0.021332,-0.064545,-0.07713400000000001,-0.002535,-0.00037400000000000004,-43.060001,16.18,5.75,1a
2019-07-12_145640:900,-0.60553,-0.011687999999999999,-0.046752999999999996,-0.087266,0.008512,0.013451,-43.060001,16.18,5.75,1a
2019-07-12_145640:920,-0.471283,-0.019318000000000002,-0.141846,-0.090928,0.008115,0.020378,-44.560001,15.5,6.56,1a
2019-07-12_145640:940,-0.48553500000000005,-0.046265,-0.044739,-0.101884,0.015012000000000001,0.02401,-44.560001,15.5,6.56,1a
2019-07-12_145640:960,-0.509918,-0.040649,-0.108276,-0.108445,0.0137,0.020043000000000002,-44.560001,15.5,6.56,1a
2019-07-12_145640:980,-0.48043800000000003,-0.051849,-0.088959,-0.109849,0.017606,0.019584999999999998,-44.25,17.25,4.56,1a
2019-07-12_145641:000,-0.639069,-0.033539,-0.11438,-0.114945,0.015623,0.017509999999999998,-44.25,17.25,4.56,1a
2019-07-12_145641:020,-0.6161800000000001,-0.028442000000000002,-0.130127,-0.118211,0.012570999999999999,0.022087,-43.5,18.059998999999998,5.37,1a
2019-07-12_145641:040,-0.584167,0.008636,-0.112854,-0.128221,0.017362,0.036278,-43.5,18.059998999999998,5.37,1a
2019-07-12_145641:060,-0.432159,0.016266,-0.128601,-0.131089,0.017881,0.037011,-43.5,18.059998999999998,5.37,1a
2019-07-12_145641:080,-0.410278,0.050842,-0.102173,-0.130876,0.022916,0.015862,-42.75,21.059998999999998,3.37,1a
2019-07-12_145641:100,-0.43011499999999997,0.08996599999999999,-0.124054,-0.135179,0.019071,-0.013771,-42.75,21.059998999999998,3.37,1a
2019-07-12_145641:120,-0.6060180000000001,0.161163,-0.097595,-0.134721,0.026762,-0.025154,-42.75,21.059998999999998,3.37,1a
2019-07-12_145641:140,-0.551117,0.194214,-0.131653,-0.142289,0.028225999999999998,-0.014106,-41.560001,21.75,0.56,1a
2019-07-12_145641:160,-0.47433500000000006,0.213013,-0.10675,-0.160996,0.022459,0.010399,-41.560001,21.75,0.56,1a
2019-07-12_145641:180,-0.525177,0.20538299999999998,-0.126068,-0.165605,0.018003,0.013328999999999999,-42.5,20.68,1.06,1a
2019-07-12_145641:200,-0.519073,0.186584,-0.14743,-0.174424,0.0057350000000000005,0.027916000000000003,-42.5,20.68,1.06,1a
2019-07-12_145641:220,-0.5205989999999999,0.15506,-0.133179,-0.176072,0.00134,0.032494,-42.5,20.68,1.06,1a
2019-07-12_145641:240,-0.512482,0.099121,-0.140808,-0.172166,-0.004122,0.037011,-42.060001,21.0,-0.06,1a
2019-07-12_145641:260,-0.48196400000000006,0.079803,-0.131165,-0.168595,-0.003878,0.035575999999999997,-42.060001,21.0,-0.06,1a
2019-07-12_145641:280,-0.44891400000000004,0.063019,-0.12200899999999999,-0.160081,-0.002139,0.032433,-41.68,21.68,-4.06,1a
2019-07-12_145641:300,-0.437225,0.059479,-0.11386099999999999,-0.15040699999999999,0.002348,0.034691,-41.68,21.68,-4.06,1a
2019-07-12_145641:320,-0.421967,0.053863999999999995,-0.09811399999999999,-0.139451,0.010374,0.044182,-41.68,21.68,-4.06,1a
2019-07-12_145641:340,-0.380798,0.059479,-0.09963999999999999,-0.12748800000000002,0.01608,0.055352,-39.869999,22.68,-6.87,1a
2019-07-12_145641:360,-0.367584,0.05285599999999999,-0.09149199999999999,-0.11860799999999999,0.018338999999999998,0.059410000000000004,-39.869999,22.68,-6.87,1a
2019-07-12_145641:380,-0.35791,0.055389,-0.097107,-0.117875,0.018674,0.058067999999999995,-39.869999,23.059998999999998,-9.25,1a
2019-07-12_145641:400,-0.409271,0.044739,-0.068634,-0.120652,0.016141,0.055535,-39.869999,23.059998999999998,-9.25,1a
2019-07-12_145641:420,-0.48553500000000005,0.0,-0.086426,-0.11998099999999999,0.017088,0.052758000000000006,-39.869999,23.059998999999998,-9.25,1a
2019-07-12_145641:440,-0.506378,-0.031494,-0.0737,-0.11573900000000001,0.024381,0.035179,-38.060001,23.68,-10.5,1a
2019-07-12_145641:460,-0.521637,-0.057953,-0.079803,-0.11171099999999999,0.024717,0.030114,-38.060001,23.68,-10.5,1a
2019-07-12_145641:480,-0.523651,-0.069122,-0.066071,-0.09962599999999999,0.026517000000000002,0.020897,-36.869999,24.059998999999998,-13.25,1a
2019-07-12_145641:500,-0.52417,-0.06253099999999999,-0.058441,-0.08873099999999999,0.025509999999999998,0.010277,-36.869999,24.059998999999998,-13.25,1a
2019-07-12_145641:520,-0.5480649999999999,-0.057953,-0.059479,-0.07823300000000001,0.023923,0.002709,-36.869999,24.059998999999998,-13.25,1a
2019-07-12_145641:540,-0.8205870000000001,-0.050842,-0.065063,-0.070298,0.022062000000000002,0.0014880000000000002,-36.18,24.5,-13.5,1a
2019-07-12_145641:560,-0.599915,-0.056915,-0.14743,-0.0645,0.015165000000000001,0.01162,-36.18,24.5,-13.5,1a
2019-07-12_145641:580,-0.5556949999999999,-0.052338,-0.082336,-0.059251,0.014950999999999999,0.009606,-36.869999,23.0,-15.18,1a
2019-07-12_145641:600,-0.391479,-0.038116000000000004,-0.18454,-0.061203999999999995,0.002744,0.017113,-36.869999,23.0,-15.18,1a
2019-07-12_145641:620,-0.309601,-0.043701,-0.105743,-0.060594,0.002348,0.026268,-36.869999,23.0,-15.18,1a
2019-07-12_145641:640,-0.5572199999999999,-0.066589,-0.073212,-0.066087,0.006925,0.031304000000000005,-37.25,22.18,-16.0,1a
2019-07-12_145641:660,-0.611115,-0.05438200000000001,-0.145386,-0.072587,0.019285,0.038932999999999995,-37.25,22.18,-16.0,1a
2019-07-12_145641:680,-0.48654200000000003,-0.072174,-0.095581,-0.07939199999999999,0.028104,0.039757,-36.560001,22.18,-15.18,1a
2019-07-12_145641:700,-0.49111899999999997,-0.0737,-0.103699,-0.087388,0.020933,0.023674,-36.560001,22.18,-15.18,1a
2019-07-12_145641:720,-0.44891400000000004,-0.064545,-0.138794,-0.099473,0.013241999999999999,0.016198,-36.560001,22.18,-15.18,1a
2019-07-12_145641:740,-0.438751,-0.07421900000000001,-0.09353600000000001,-0.107438,0.007840999999999999,0.021904,-35.369999,22.18,-16.370001000000002,1a
2019-07-12_145641:760,-0.47180200000000005,-0.091003,-0.12301600000000001,-0.113755,2.8000000000000003e-05,0.024803,-35.369999,22.18,-16.370001000000002,1a
2019-07-12_145641:780,-0.465179,-0.106232,-0.100159,-0.11708199999999999,0.000364,0.015128999999999998,-35.75,21.18,-18.68,1a
2019-07-12_145641:800,-0.45706199999999997,-0.09963999999999999,-0.085388,-0.117997,0.0034159999999999998,0.006279,-35.75,21.18,-18.68,1a
2019-07-12_145641:820,-0.471283,-0.096588,-0.067108,-0.116807,0.010374,0.006157,-35.75,21.18,-18.68,1a
2019-07-12_145641:840,-0.45654300000000003,-0.096588,-0.060486,-0.114701,0.018797,0.008202,-36.869999,19.68,-20.370001000000002,1a
2019-07-12_145641:860,-0.41333000000000003,-0.108276,-0.051330999999999995,-0.11229000000000001,0.024197999999999997,0.007408,-36.869999,19.68,-20.370001000000002,1a
2019-07-12_145641:880,-0.440796,-0.11538699999999999,-0.036072,-0.108171,0.026762,0.005364,-35.369999,17.370001000000002,-22.370001000000002,1a
2019-07-12_145641:900,-0.462646,-0.122528,-0.046265,-0.10347100000000001,0.02609,0.005913,-35.369999,17.370001000000002,-22.370001000000002,1a
2019-07-12_145641:920,-0.45196499999999995,-0.131165,-0.045745999999999995,-0.098771,0.022794,0.005974,-35.369999,17.370001000000002,-22.370001000000002,1a
2019-07-12_145641:940,-0.43774399999999997,-0.144897,-0.043701,-0.092515,0.016874,-0.000312,-36.869999,15.5,-22.68,1a
2019-07-12_145641:960,-0.439758,-0.142334,-0.046265,-0.08647300000000001,0.012968,-0.012336,-36.869999,15.5,-22.68,1a
2019-07-12_145641:980,-0.471283,-0.128601,-0.040649,-0.08217,0.011777,-0.016638999999999998,-36.560001,13.68,-22.68,1a
2019-07-12_145642:000,-0.5134890000000001,-0.127106,-0.038635,-0.077439,0.012815,-0.008735,-36.560001,13.68,-22.68,1a
2019-07-12_145642:020,-0.482483,-0.139801,-0.057953,-0.073655,0.013181,-0.000648,-36.560001,13.68,-22.68,1a
2019-07-12_145642:040,-0.52774,-0.153534,-0.027954000000000003,-0.06855900000000001,0.015287,-0.002754,-38.060001,11.87,-21.870001000000002,1a
2019-07-12_145642:060,-0.541443,-0.150482,-0.051330999999999995,-0.063188,0.016294,-0.005226,-38.060001,11.87,-21.870001000000002,1a
2019-07-12_145642:080,-0.5185850000000001,-0.146423,-0.036072,-0.055466999999999995,0.019132,-0.000251,-38.060001,9.5,-23.25,1a
2019-07-12_145642:100,-0.622803,-0.133698,-0.008636,-0.04799,0.01547,0.004052,-38.060001,9.5,-23.25,1a
2019-07-12_145642:120,-0.876007,-0.10116599999999999,-0.024384,-0.048631,0.011777,0.008140999999999999,-38.060001,9.5,-23.25,1a
2019-07-12_145642:140,-0.49975600000000003,-0.075226,-0.077271,-0.051438,0.008451,0.027275,-37.68,8.0,-22.75,1a
2019-07-12_145642:160,-0.43927,-0.058960000000000005,0.012695,-0.049699,0.011503,0.019646,-37.68,8.0,-22.75,1a
2019-07-12_145642:180,-0.429596,0.023895,-0.114899,-0.056138,0.003599,-0.000923,-38.75,6.5,-21.559998999999998,1a
2019-07-12_145642:200,-0.42147799999999996,0.071686,-0.074738,-0.059007000000000004,0.008512,-0.020637,-38.75,6.5,-21.559998999999998,1a
2019-07-12_145642:220,-0.608582,0.122528,-0.062012,-0.066911,0.011503,-0.031562,-38.75,6.5,-21.559998999999998,1a
2019-07-12_145642:240,-0.624847,0.144897,-0.099121,-0.075669,0.01721,-0.027992000000000003,-39.25,6.5,-21.559998999999998,1a
2019-07-12_145642:260,-0.566864,0.12353499999999999,-0.058960000000000005,-0.08534299999999999,0.021329,-0.017311,-39.25,6.5,-21.559998999999998,1a
2019-07-12_145642:280,-0.546539,0.099121,-0.07928500000000001,-0.092698,0.017667,-0.0051649999999999995,-38.5,3.87,-22.559998999999998,1a
2019-07-12_145642:300,-0.567383,0.053375,-0.067108,-0.092576,0.018461,0.007836,-38.5,3.87,-22.559998999999998,1a
2019-07-12_145642:320,-0.5272220000000001,0.031006,-0.068115,-0.087388,0.017088,0.014580000000000001,-38.5,3.87,-22.559998999999998,1a
2019-07-12_145642:340,-0.43518100000000004,0.016266,-0.066071,-0.080247,0.014218999999999999,0.00988,-40.25,2.06,-21.370001000000002,1a
2019-07-12_145642:360,-0.381317,0.014740000000000001,-0.051849,-0.070756,0.0119,0.005303,-40.25,2.06,-21.370001000000002,1a
2019-07-12_145642:380,-0.348267,0.007111,-0.043213,-0.060654999999999994,0.008573,0.005822,-39.68,0.56,-21.370001000000002,1a
2019-07-12_145642:400,-0.341644,0.0025329999999999997,-0.033539,-0.053697,0.007444,0.008812,-39.68,0.56,-21.370001000000002,1a
2019-07-12_145642:420,-0.363007,0.002014,-0.010162000000000001,-0.048661,0.008726000000000001,0.012719,-39.68,0.56,-21.370001000000002,1a
2019-07-12_145642:440,-0.385376,-0.001495,-0.0030210000000000002,-0.045732,0.012112999999999999,0.016715999999999998,-40.25,-0.18,-20.18,1a
2019-07-12_145642:460,-0.40368699999999996,-0.0055850000000000006,0.009125,-0.044601999999999996,0.017544999999999998,0.018303,-40.25,-0.18,-20.18,1a
2019-07-12_145642:480,-0.404175,-0.011687999999999999,0.012695,-0.043199,0.02078,0.014916,-41.060001,-1.56,-20.18,1a
2019-07-12_145642:500,-0.369598,-0.010162000000000001,0.011687999999999999,-0.042344,0.02194,0.006951000000000001,-41.060001,-1.56,-20.18,1a
2019-07-12_145642:520,-0.401123,-0.014740000000000001,0.022858,-0.040544,0.017942,0.0014269999999999999,-41.060001,-1.56,-20.18,1a
2019-07-12_145642:540,-0.48196400000000006,-0.022858,0.008636,-0.037094999999999996,0.010526,0.001,-41.5,-2.0,-18.870001000000002,1a
2019-07-12_145642:560,-0.53891,-0.031006,0.014740000000000001,-0.030777999999999996,0.005399,0.0017629999999999998,-41.5,-2.0,-18.870001000000002,1a
2019-07-12_145642:580,-0.641602,-0.044219999999999995,0.01828,-0.023025999999999998,0.003324,-0.000496,-42.18,-1.56,-18.18,1a
2019-07-12_145642:600,-0.643646,-0.043213,0.008636,-0.015794,0.006589,-0.001381,-42.18,-1.56,-18.18,1a
2019-07-12_145642:620,-0.5770569999999999,-0.049316000000000006,0.0055850000000000006,-0.007951,0.010648000000000001,0.001,-42.18,-1.56,-18.18,1a
2019-07-12_145642:640,-0.695496,-0.069122,0.020844,0.001113,0.007536,-0.003914,-41.75,-2.68,-19.370001000000002,1a
2019-07-12_145642:660,-0.8643190000000001,-0.058441,-0.097595,0.007826999999999999,0.0072,-0.013527,-41.75,-2.68,-19.370001000000002,1a
2019-07-12_145642:680,-0.588745,-0.07928500000000001,-0.063538,0.012374,0.0119,-0.011268,-41.75,-2.68,-16.870001000000002,1a
2019-07-12_145642:700,-0.5109560000000001,-0.068634,-0.026917,0.02101,0.007993,-0.014044999999999998,-41.75,-2.68,-16.870001000000002,1a
2019-07-12_145642:720,-0.476379,-0.070648,-0.09963999999999999,0.017501,0.004728,-0.006874,-41.75,-2.68,-16.870001000000002,1a
2019-07-12_145642:740,-0.39859,-0.07775900000000001,-0.054901,0.016585,0.005918,0.009758,-41.75,-3.5,-15.37,1a
2019-07-12_145642:760,-0.517059,-0.101685,-0.031006,0.013930000000000001,0.002531,0.019554,-41.75,-3.5,-15.37,1a
2019-07-12_145642:780,-0.553162,-0.116425,-0.07421900000000001,0.009261,0.001829,0.014916,-41.75,-2.37,-16.68,1a
2019-07-12_145642:800,-0.477386,-0.115906,-0.037598,0.005965,0.001615,0.005974,-41.75,-2.37,-16.68,1a
2019-07-12_145642:820,-0.47689799999999993,-0.119476,-0.034058,0.003768,-0.004733,0.000206,-41.75,-2.37,-16.68,1a
2019-07-12_145642:840,-0.475372,-0.116425,-0.045745999999999995,0.000625,-0.009188,-0.002754,-42.18,-1.18,-16.25,1a
2019-07-12_145642:860,-0.42605600000000005,-0.117432,-0.031494,-0.002152,-0.012698000000000001,-0.004707,-42.18,-1.18,-16.25,1a
2019-07-12_145642:880,-0.412811,-0.114899,-0.031494,-0.00203,-0.017001,-0.010719,-42.560001,-2.0,-17.0,1a
2019-07-12_145642:900,-0.388428,-0.086914,-0.024902,-0.0018170000000000003,-0.017519,-0.021736000000000002,-42.560001,-2.0,-17.0,1a
2019-07-12_145642:920,-0.375214,-0.067596,-0.01828,-0.002,-0.016543000000000002,-0.03083,-42.560001,-2.0,-17.0,1a
2019-07-12_145642:940,-0.382324,-0.046752999999999996,-0.007111,-0.002152,-0.014407,-0.032356,-41.75,-2.0,-17.75,1a
2019-07-12_145642:960,-0.391968,-0.039642000000000004,0.0,-0.00316,-0.009982,-0.029976,-41.75,-2.0,-17.75,1a
2019-07-12_145642:980,-0.409271,-0.037108999999999996,0.006592,-0.004654999999999999,-0.004183,-0.027260000000000003,-43.0,-3.87,-19.5,1a
2019-07-12_145643:000,-0.41384899999999997,-0.033539,0.013213999999999998,-0.006364,0.0015539999999999998,-0.023811000000000002,-43.0,-3.87,-19.5,1a
2019-07-12_145643:020,-0.40774499999999997,-0.040161,0.012695,-0.006944,0.005674,-0.019813,-43.0,-3.87,-19.5,1a
2019-07-12_145643:040,-0.40368699999999996,-0.043213,0.012695,-0.006944,0.007932,-0.020149,-41.5,-5.37,-19.5,1a
2019-07-12_145643:060,-0.40570100000000003,-0.044219999999999995,0.010162000000000001,-0.007615,0.007139,-0.021339,-41.5,-5.37,-19.5,1a
2019-07-12_145643:080,-0.45043900000000003,-0.042694,0.018799,-0.007095999999999999,0.005979,-0.018684,-41.869999,-6.5,-18.18,1a
2019-07-12_145643:100,-0.523163,-0.037598,0.014740000000000001,-0.007615,0.00601,-0.0149,-41.869999,-6.5,-18.18,1a
2019-07-12_145643:120,-0.578583,-0.037108999999999996,0.034058,-0.009233,0.007261,-0.013130000000000001,-41.869999,-6.5,-18.18,1a
2019-07-12_145643:140,-0.614166,-0.032013,0.029968,-0.009629,0.008329000000000001,-0.014259,-42.68,-7.18,-16.25,1a
2019-07-12_145643:160,-0.594849,-0.022858,0.016753999999999998,-0.009019,0.009977,-0.015846000000000002,-42.68,-7.18,-16.25,1a
2019-07-12_145643:180,-0.551636,-0.009125,0.010162000000000001,-0.007370999999999999,0.009458,-0.014503,-41.869999,-8.0,-17.0,1a
2019-07-12_145643:200,-0.9141239999999999,0.004547,0.083374,-0.005784,0.004484,-0.0075450000000000005,-41.869999,-8.0,-17.0,1a
2019-07-12_145643:220,-0.7529600000000001,0.023895,-0.092529,-0.006639,0.001218,0.002709,-41.869999,-8.0,-17.0,1a
2019-07-12_145643:240,-0.5073850000000001,0.017273,0.026917,-0.0077069999999999994,0.003721,0.016503,-41.869999,-8.37,-17.0,1a
2019-07-12_145643:260,-0.445374,0.035583,-0.03302,-0.0029460000000000003,-0.003939,0.015709,-41.869999,-8.37,-17.0,1a
2019-07-12_145643:280,-0.327911,0.071167,-0.088959,-0.002275,-0.013705000000000002,0.002709,-42.68,-8.37,-16.68,1a
2019-07-12_145643:300,-0.412811,0.099121,-0.045745999999999995,-0.0008710000000000001,-0.022036,-0.011329,-42.68,-8.37,-16.68,1a
2019-07-12_145643:320,-0.677216,0.114899,-0.078278,-0.004654999999999999,-0.027041000000000003,-0.012123,-42.68,-8.37,-16.68,1a
2019-07-12_145643:340,-0.5933229999999999,0.111328,-0.085388,-0.009019,-0.023592,0.002587,-41.869999,-9.75,-16.68,1a
2019-07-12_145643:360,-0.515015,0.08743300000000001,-0.053863999999999995,-0.0132,-0.020052,0.01339,-41.869999,-9.75,-16.68,1a
2019-07-12_145643:380,-0.539917,0.067596,-0.067108,-0.01677,-0.019717,0.011803,-41.560001,-9.75,-18.18,1a
2019-07-12_145643:400,-0.494171,0.051849,-0.051849,-0.017564,-0.015931999999999998,0.011803,-41.560001,-9.75,-18.18,1a
2019-07-12_145643:420,-0.434692,0.027954000000000003,-0.052338,-0.016374,-0.015138999999999998,0.018456,-41.560001,-9.75,-18.18,1a
2019-07-12_145643:440,-0.384857,0.012695,-0.053863999999999995,-0.014512,-0.016268,0.021569,-42.0,-9.37,-17.75,1a
2019-07-12_145643:460,-0.366058,0.004547,-0.047791,-0.013261000000000002,-0.01694,0.019707,-42.0,-9.37,-17.75,1a
2019-07-12_145643:480,-0.37112399999999995,0.007111,-0.034058,-0.011276999999999999,-0.015994,0.018425,-41.25,-9.75,-19.0,1a
2019-07-12_145643:500,-0.389435,0.009644,-0.024902,-0.010606,-0.011415999999999999,0.018639,-41.25,-9.75,-19.0,1a
2019-07-12_145643:520,-0.418915,0.008118,-0.015228,-0.01146,-0.004061,0.018303,-41.25,-9.75,-19.0,1a
2019-07-12_145643:540,-0.408752,0.007111,-0.010651,-0.013261000000000002,0.004057,0.018578,-41.25,-8.37,-19.5,1a
2019-07-12_145643:560,-0.420441,0.005065999999999999,-0.000488,-0.014115,0.010159999999999999,0.016715999999999998,-41.25,-8.37,-19.5,1a
2019-07-12_145643:580,-0.421967,0.007599,0.0,-0.015519,0.014158,0.010277,-41.25,-8.37,-18.25,1a
2019-07-12_145643:600,-0.393005,0.000488,-0.0030210000000000002,-0.017442,0.014341,0.0054859999999999996,-41.25,-8.37,-18.25,1a
2019-07-12_145643:620,-0.435699,-0.0030210000000000002,0.004059,-0.016434999999999998,0.012173999999999999,0.004418,-41.25,-8.37,-18.25,1a
2019-07-12_145643:640,-0.460114,-0.011169,0.011169,-0.014603999999999999,0.009916,0.005242,-43.060001,-8.68,-17.75,1a
2019-07-12_145643:660,-0.5770569999999999,-0.013213999999999998,0.024902,-0.011337999999999999,0.009367,0.005547,-43.060001,-8.68,-17.75,1a
2019-07-12_145643:680,-0.652802,-0.016753999999999998,-0.01828,-0.00908,0.008237000000000001,0.007225,-41.560001,-8.37,-18.18,1a
2019-07-12_145643:700,-0.576538,-0.017792,-0.012695,-0.004869,0.008451,0.00927,-41.560001,-8.37,-18.18,1a
2019-07-12_145643:720,-0.537903,-0.031494,-0.001495,-0.00047400000000000003,0.005399,0.006157,-41.560001,-8.37,-18.18,1a
2019-07-12_145643:740,-0.9415889999999999,-0.033539,0.050323,0.004683,0.001401,-0.002113,-43.060001,-8.37,-17.5,1a
2019-07-12_145643:760,-0.688385,-0.036072,-0.108795,0.006667,0.002805,-0.0056229999999999995,-43.060001,-8.37,-17.5,1a
2019-07-12_145643:780,-0.523651,-0.069122,-0.008118,0.010482,0.009396999999999999,-0.004768,-42.68,-8.0,-17.75,1a
2019-07-12_145643:800,-0.489594,-0.0849,-0.100159,0.016189,-0.003146,-0.010322,-42.68,-8.0,-17.75,1a
2019-07-12_145643:820,-0.36248800000000003,-0.108276,-0.12506099999999998,0.017318,-0.010622,-0.00489,-42.68,-8.0,-17.75,1a
2019-07-12_145643:840,-0.49316400000000005,-0.12353499999999999,-0.044739,0.023543,-0.018191,0.012322,-41.560001,-8.37,-15.75,1a
2019-07-12_145643:860,-0.63855,-0.142853,-0.103699,0.026656,-0.023898,0.027214,-41.560001,-8.37,-15.75,1a
2019-07-12_145643:880,-0.490112,-0.159119,-0.097595,0.029922000000000004,-0.020449000000000002,0.028007999999999998,-42.68,-8.68,-16.68,1a
2019-07-12_145643:900,-0.482483,-0.144379,-0.07016,0.034682,-0.020724,0.010551999999999999,-42.68,-8.68,-16.68,1a
2019-07-12_145643:920,-0.49926800000000005,-0.095062,-0.10116599999999999,0.035171,-0.024386,-0.008278,-42.68,-8.68,-16.68,1a
2019-07-12_145643:940,-0.472321,-0.071686,-0.077271,0.032576999999999995,-0.023043,-0.012581,-41.18,-6.5,-17.75,1a
2019-07-12_145643:960,-0.425018,-0.053863999999999995,-0.071686,0.028731,-0.023500999999999998,-0.008156,-41.18,-6.5,-17.75,1a
2019-07-12_145643:980,-0.41384899999999997,-0.044739,-0.068115,0.022933000000000002,-0.021975,-0.01139,-40.75,-6.75,-19.5,1a
2019-07-12_145644:000,-0.394012,-0.032532,-0.055389,0.016829,-0.017123,-0.019905000000000003,-40.75,-6.75,-19.5,1a
2019-07-12_145644:020,-0.401123,-0.027435,-0.041687,0.012404,-0.009706999999999999,-0.025123,-40.75,-6.75,-19.5,1a
2019-07-12_145644:040,-0.409271,-0.025908999999999998,-0.032013,0.009475,-0.001376,-0.026802,-40.369999,-6.37,-19.5,1a
2019-07-12_145644:060,-0.41995200000000005,-0.023375999999999997,-0.020325,0.007795999999999999,0.007597,-0.027533999999999996,-40.369999,-6.37,-19.5,1a
2019-07-12_145644:080,-0.420959,-0.016753999999999998,-0.013213999999999998,0.006209,0.014950999999999999,-0.026588,-39.68,-7.5,-19.75,1a
2019-07-12_145644:100,-0.41333000000000003,-0.014740000000000001,-0.007599,0.005416,0.020811,-0.022072,-39.68,-7.5,-19.75,1a
2019-07-12_145644:120,-0.42248500000000005,-0.010651,-0.009125,0.0045,0.022855,-0.018226,-39.68,-7.5,-19.75,1a
2019-07-12_145644:140,-0.390961,-0.010651,-0.015747,0.002425,0.021603999999999998,-0.015113999999999999,-39.369999,-8.25,-19.5,1a
2019-07-12_145644:160,-0.432648,-0.012177,0.008636,0.001174,0.018156,-0.010414,-39.369999,-8.25,-19.5,1a
2019-07-12_145644:180,-0.521637,-0.011169,0.0,0.000258,0.014768,-0.00727,-40.060001,-9.25,-18.68,1a
2019-07-12_145644:200,-0.533844,-0.010651,0.013213999999999998,-0.002671,0.013883000000000001,-0.006751999999999999,-40.060001,-9.25,-18.68,1a
2019-07-12_145644:220,-0.601959,-0.005065999999999999,0.023895,-0.005082,0.015012000000000001,-0.0073620000000000005,-40.060001,-9.25,-18.68,1a
2019-07-12_145644:240,-0.590271,-0.008118,-0.010651,-0.008683,0.014341,-0.005012,-39.68,-9.0,-19.0,1a
2019-07-12_145644:260,-0.514496,0.0,0.0,-0.011337999999999999,0.013761,-0.00132,-39.68,-9.0,-19.0,1a
2019-07-12_145644:280,-0.8343200000000001,0.014740000000000001,0.073212,-0.01439,0.006712,0.000603,-39.369999,-10.75,-18.68,1a
2019-07-12_145644:300,-0.863281,0.01828,-0.082855,-0.020432,0.006651000000000001,0.004845,-39.369999,-10.75,-18.68,1a
2019-07-12_145644:320,-0.5480649999999999,-0.007111,0.004547,-0.027207,0.00839,0.022026,-39.369999,-10.75,-18.68,1a
2019-07-12_145644:340,-0.381317,0.008636,-0.03302,-0.024217,0.007932,0.028466,-40.060001,-10.06,-17.5,1a
2019-07-12_145644:360,-0.29232800000000003,0.029480000000000003,-0.085388,-0.022477,-0.001498,0.015250999999999999,-40.060001,-10.06,-17.5,1a
2019-07-12_145644:380,-0.5343319999999999,0.047791,-0.028442000000000002,-0.018052000000000002,-0.008851999999999999,-0.010414,-39.369999,-9.68,-15.75,1a
2019-07-12_145644:400,-0.6828,0.090485,-0.102173,-0.016038,-0.011172,-0.023811000000000002,-39.369999,-9.68,-15.75,1a
2019-07-12_145644:420,-0.558746,0.097595,-0.06149299999999999,-0.014726,-0.006899,-0.010414,-39.369999,-9.68,-15.75,1a
2019-07-12_145644:440,-0.525696,0.086914,-0.053375,-0.012589,-0.008181,0.006035,-40.18,-10.06,-15.75,1a
2019-07-12_145644:460,-0.532806,0.07928500000000001,-0.063019,-0.014665000000000001,-0.010622,0.013207,-40.18,-10.06,-15.75,1a
2019-07-12_145644:480,-0.459595,0.067596,-0.045226999999999996,-0.014329,-0.009158,0.017723,-39.5,-10.5,-16.68,1a
2019-07-12_145644:500,-0.425537,0.043213,-0.037598,-0.014543,-0.010897,0.02163,-39.5,-10.5,-16.68,1a
2019-07-12_145644:520,-0.391968,0.021851,-0.031006,-0.015183000000000002,-0.013368999999999999,0.021569,-39.5,-10.5,-16.68,1a
2019-07-12_145644:540,-0.35638400000000003,0.006592,-0.019318000000000002,-0.015519,-0.014559,0.02401,-38.68,-10.5,-15.5,1a
2019-07-12_145644:560,-0.358429,-0.009125,0.004059,-0.013719,-0.013827,0.028862,-38.68,-10.5,-15.5,1a
2019-07-12_145644:580,-0.38385,-0.01828,0.008636,-0.011674,-0.0069299999999999995,0.028588,-39.060001,-9.25,-17.75,1a
2019-07-12_145644:600,-0.401642,-0.019318000000000002,0.017273,-0.010942,-0.002718,0.026818,-39.060001,-9.25,-17.75,1a
2019-07-12_145644:620,-0.388916,-0.014740000000000001,0.024902,-0.010819,0.005064,0.024224000000000002,-39.060001,-9.25,-17.75,1a
2019-07-12_145644:640,-0.399597,-0.01828,0.020325,-0.010026,0.010251999999999999,0.022209,-38.0,-8.25,-17.75,1a
2019-07-12_145644:660,-0.385864,-0.010162000000000001,0.013702,-0.010942,0.010923,0.014518999999999999,-38.0,-8.25,-17.75,1a
2019-07-12_145644:680,-0.43011499999999997,-0.014221000000000001,0.019318000000000002,-0.011734999999999999,0.006864,0.011589,-37.560001,-7.87,-17.5,1a
2019-07-12_145644:700,-0.447388,-0.017792,0.001495,-0.010423,0.003141,0.010338,-37.560001,-7.87,-17.5,1a
2019-07-12_145644:720,-0.545532,-0.024902,0.029968,-0.008958,0.003324,0.005699,-37.560001,-7.87,-17.5,1a
2019-07-12_145644:740,-0.6370239999999999,-0.027435,0.013213999999999998,-0.008744,0.002012,0.000481,-38.68,-7.87,-16.68,1a
2019-07-12_145644:760,-0.626373,-0.029480000000000003,-0.0055850000000000006,-0.0072180000000000005,0.0026829999999999996,-0.000831,-38.68,-7.87,-16.68,1a
2019-07-12_145644:780,-0.562805,-0.037108999999999996,0.0,-0.005204,0.001401,-0.003029,-38.0,-7.87,-16.25,1a
2019-07-12_145644:800,-0.773285,-0.053863999999999995,0.037108999999999996,-0.0018780000000000001,0.000425,-0.010261,-38.0,-7.87,-16.25,1a
2019-07-12_145644:820,-0.734161,-0.039124,-0.104218,-0.000504,0.002225,-0.014594999999999999,-38.0,-7.87,-16.25,1a
2019-07-12_145644:840,-0.565338,-0.05996699999999999,-0.022369,-7.7e-05,0.009977,-0.017585,-38.369999,-7.06,-15.0,1a
2019-07-12_145644:860,-0.42248500000000005,-0.057434000000000006,-0.086914,0.000381,-0.001864,-0.022163,-38.369999,-7.06,-15.0,1a
2019-07-12_145644:880,-0.32486,-0.070648,-0.11386099999999999,-0.003282,-0.011111,-0.011665,-37.18,-8.25,-15.75,1a
2019-07-12_145644:900,-0.512482,-0.0849,-0.046752999999999996,-0.0036780000000000003,-0.018068999999999998,0.007836,-37.18,-8.25,-15.75,1a
2019-07-12_145644:920,-0.692444,-0.11233499999999999,-0.09149199999999999,-0.004319,-0.018343,0.019097,-37.18,-8.25,-15.75,1a
2019-07-12_145644:940,-0.514496,-0.140808,-0.086426,-0.003556,-0.013613,0.010674,-36.060001,-9.0,-15.0,1a
2019-07-12_145644:960,-0.515015,-0.131165,-0.05996699999999999,0.002486,-0.014894999999999999,-0.009468,-36.060001,-9.0,-15.0,1a
2019-07-12_145644:980,-0.5343319999999999,-0.097595,-0.101685,0.005935,-0.018282,-0.017189,-35.68,-8.25,-16.68,1a
2019-07-12_145645:000,-0.47995,-0.07928500000000001,-0.07928500000000001,0.009748999999999999,-0.019717,-0.0073620000000000005,-35.68,-8.25,-16.68,1a
2019-07-12_145645:020,-0.434174,-0.06253099999999999,-0.0737,0.010451,-0.02286,2.3e-05,-35.68,-8.25,-16.68,1a
2019-07-12_145645:040,-0.418915,-0.044739,-0.07016,0.008223999999999999,-0.022585,-0.005562,-35.0,-9.0,-16.25,1a
2019-07-12_145645:060,-0.379791,-0.013213999999999998,-0.050323,0.004043,-0.019412000000000002,-0.012916,-35.0,-9.0,-16.25,1a
2019-07-12_145645:080,-0.369598,-0.0030210000000000002,-0.039124,-0.000138,-0.014346000000000001,-0.015632,-34.560001,-7.87,-18.25,1a
2019-07-12_145645:100,-0.379791,-0.006592,-0.028961,-0.004258,-0.008303,-0.017311,-34.560001,-7.87,-18.25,1a
2019-07-12_145645:120,-0.391479,-0.011169,-0.023375999999999997,-0.00731,-0.002322,-0.017769,-34.560001,-7.87,-18.25,1a
2019-07-12_145645:140,-0.411285,-0.024384,-0.009644,-0.008164,0.003019,-0.015052000000000001,-33.5,-9.0,-19.0,1a
2019-07-12_145645:160,-0.41586300000000004,-0.034546,-0.009644,-0.007829000000000001,0.00778,-0.011116,-33.5,-9.0,-19.0,1a
2019-07-12_145645:180,-0.401642,-0.042694,-0.011687999999999999,-0.006761,0.009794,-0.007942,-33.869999,-9.25,-19.0,1a
2019-07-12_145645:200,-0.382812,-0.042175,-0.020844,-0.004685,0.008054,-0.008735,-33.869999,-9.25,-19.0,1a
2019-07-12_145645:220,-0.45196499999999995,-0.040161,-0.010651,-0.003404,0.005338,-0.010933,-33.869999,-9.25,-19.0,1a
2019-07-12_145645:240,-0.531799,-0.038116000000000004,-0.006592,-0.0029460000000000003,0.004209,-0.00782,-33.060001,-10.06,-17.5,1a
2019-07-12_145645:260,-0.551117,-0.029480000000000003,0.0,-0.002336,0.004606,-0.000251,-33.060001,-10.06,-17.5,1a
2019-07-12_145645:280,-0.624329,-0.035583,0.0055850000000000006,-0.003282,0.005796,0.002434,-32.369999,-10.06,-17.5,1a
2019-07-12_145645:300,-0.563812,-0.035583,-0.032532,-0.0036780000000000003,0.005521,2.3e-05,-32.369999,-10.06,-17.5,1a
2019-07-12_145645:320,-0.510437,-0.025908999999999998,-0.015228,-0.001542,0.004789,-0.00132,-32.369999,-10.06,-17.5,1a
2019-07-12_145645:340,-0.822601,-0.0030210000000000002,0.032532,0.000625,8.9e-05,-0.00018999999999999998,-32.0,-10.06,-17.0,1a
2019-07-12_145645:360,-0.768219,0.016266,-0.111847,-0.004075,-0.005526,0.007225,-32.0,-10.06,-17.0,1a
2019-07-12_145645:380,-0.575012,0.014221000000000001,-0.024902,-0.0067,-0.001437,0.02108,-31.68,-9.68,-16.68,1a
2019-07-12_145645:400,-0.469757,0.019318000000000002,-0.066589,-0.007615,-0.011294,0.025078,-31.68,-9.68,-16.68,1a
2019-07-12_145645:420,-0.236389,0.051849,-0.108276,-0.005723,-0.017336,0.010399,-31.68,-9.68,-16.68,1a
2019-07-12_145645:440,-0.418915,0.075745,-0.035065,-0.0035259999999999996,-0.020449000000000002,-0.016638999999999998,-31.68,-9.68,-18.68,1a
2019-07-12_145645:460,-0.684845,0.12454200000000001,-0.149475,-0.010606,-0.022067,-0.029396,-31.68,-9.68,-18.68,1a
2019-07-12_145645:480,-0.5495909999999999,0.133698,-0.115906,-0.013871000000000001,-0.012637,-0.009864,-30.870001000000002,-9.25,-17.75,1a
2019-07-12_145645:500,-0.516541,0.102692,-0.078278,-0.019029,-0.014497999999999999,0.004784,-30.870001000000002,-9.25,-17.75,1a
2019-07-12_145645:520,-0.555176,0.085388,-0.121002,-0.024766,-0.01581,0.002098,-30.870001000000002,-9.25,-17.75,1a
2019-07-12_145645:540,-0.5272220000000001,0.075226,-0.088959,-0.025894999999999998,-0.012819999999999998,0.000298,-29.75,-9.0,-19.5,1a
2019-07-12_145645:560,-0.49975600000000003,0.053863999999999995,-0.08743300000000001,-0.023637000000000002,-0.014741999999999998,0.00457,-29.75,-9.0,-19.5,1a
2019-07-12_145645:580,-0.45706199999999997,0.024902,-0.080322,-0.021226,-0.01462,0.004235,-30.25,-10.56,-19.5,1a
2019-07-12_145645:600,-0.40976,0.019318000000000002,-0.06405599999999999,-0.017381,-0.012362,0.004509,-30.25,-10.56,-19.5,1a
2019-07-12_145645:620,-0.376221,0.024384,-0.046752999999999996,-0.011399,-0.010043,0.009331,-30.25,-10.56,-19.5,1a
2019-07-12_145645:640,-0.378754,0.027435,-0.036591000000000005,-0.006944,-0.0059229999999999994,0.014397,-29.5,-10.87,-18.25,1a
2019-07-12_145645:660,-0.388428,0.035065,-0.025908999999999998,-0.004075,-3.3e-05,0.018364,-29.5,-10.87,-18.25,1a
2019-07-12_145645:680,-0.389435,0.039642000000000004,-0.018799,-0.0024879999999999998,0.006193,0.023949,-28.75,-10.87,-21.0,1a
2019-07-12_145645:700,-0.365021,0.037598,-0.011687999999999999,-0.002671,0.01077,0.029258999999999997,-28.75,-10.87,-21.0,1a
2019-07-12_145645:720,-0.36911,0.035065,-0.007111,-0.0035259999999999996,0.012052,0.029595,-28.75,-10.87,-21.0,1a
2019-07-12_145645:740,-0.388428,0.033539,-0.010162000000000001,-0.006089,0.010923,0.027062,-28.75,-10.18,-19.75,1a
2019-07-12_145645:760,-0.434692,0.025908999999999998,-0.006592,-0.009141,0.008573,0.028130000000000002,-28.75,-10.18,-19.75,1a
2019-07-12_145645:780,-0.458588,0.011169,-0.008636,-0.010362,0.006925,0.030999000000000002,-28.0,-9.0,-20.18,1a
2019-07-12_145645:800,-0.545532,0.001007,0.012695,-0.010087,0.006864,0.026787000000000002,-28.0,-9.0,-20.18,1a
2019-07-12_145645:820,-0.624847,0.008118,-0.040161,-0.010545,0.003721,0.019829,-28.0,-9.0,-20.18,1a
2019-07-12_145645:840,-0.549072,0.009644,-0.041168,-0.010209000000000001,0.002073,0.018119999999999997,-29.5,-8.25,-20.18,1a
2019-07-12_145645:860,-0.600952,-0.006592,0.0030210000000000002,-0.008683,-0.005372999999999999,0.015374,-29.5,-8.25,-20.18,1a
2019-07-12_145645:880,0.982666,-0.001007,-0.05285599999999999,-0.010087,-0.008242,0.00869,-29.5,-8.25,-19.75,1a
2019-07-12_145645:900,-0.686371,-0.010162000000000001,-0.0849,-0.014603999999999999,-0.007906,0.015587,-29.5,-8.25,-19.75,1a
2019-07-12_145645:920,-0.563812,-0.030487,-0.060486,-0.014726,-0.009036,0.010796,-29.5,-8.25,-19.75,1a
2019-07-12_145645:940,-0.331482,-0.051330999999999995,-0.194214,-0.023759,-0.014497999999999999,0.009087,-28.0,-7.87,-19.5,1a
2019-07-12_145645:960,-0.350281,-0.070648,-0.115906,-0.028183999999999997,-0.012240000000000001,0.014641,-28.0,-7.87,-19.5,1a
2019-07-12_145645:980,-0.69043,-0.10775799999999999,-0.159637,-0.035386,-0.012698000000000001,0.028312999999999998,-28.0,-7.87,-21.0,1a
2019-07-12_145646:000,-0.595856,-0.14743,-0.199799,-0.036363,-0.006503,0.041069,-28.0,-7.87,-21.0,1a
2019-07-12_145646:020,-0.485016,-0.183533,-0.11080899999999999,-0.031175,-0.002261,0.0252,-28.0,-7.87,-21.0,1a
2019-07-12_145646:040,-0.502808,-0.157593,-0.135223,-0.027389999999999998,-0.003664,-0.003822,-27.25,-8.25,-22.25,1a
2019-07-12_145646:060,-0.481476,-0.114899,-0.114899,-0.024278,0.000425,-0.011726,-27.25,-8.25,-22.25,1a
2019-07-12_145646:080,-0.437225,-0.10116599999999999,-0.10116599999999999,-0.020707,2.8000000000000003e-05,0.0014880000000000002,-27.68,-8.25,-20.68,1a
2019-07-12_145646:100,-0.434174,-0.097107,-0.083862,-0.019761,-0.00045999999999999996,0.0063100000000000005,-27.68,-8.25,-20.68,1a
2019-07-12_145646:120,-0.412811,-0.082336,-0.072693,-0.022294,0.002073,-0.002784,-27.68,-8.25,-20.68,1a
2019-07-12_145646:140,-0.38385,-0.06149299999999999,-0.044219999999999995,-0.023759,0.006071,-0.009681,-27.68,-8.56,-21.0,1a
2019-07-12_145646:160,-0.38739,-0.057953,-0.035583,-0.024827000000000002,0.010159999999999999,-0.011726,-27.68,-8.56,-21.0,1a
2019-07-12_145646:180,-0.388428,-0.055908000000000006,-0.029480000000000003,-0.026597000000000003,0.013578,-0.013800999999999999,-27.68,-8.87,-21.0,1a
2019-07-12_145646:200,-0.386902,-0.054901,-0.022858,-0.027420999999999997,0.014616,-0.013405000000000002,-27.68,-8.87,-21.0,1a
2019-07-12_145646:220,-0.401123,-0.057953,-0.021851,-0.027207,0.013944,-0.009590000000000001,-27.68,-8.87,-21.0,1a
2019-07-12_145646:240,-0.40774499999999997,-0.058960000000000005,-0.021851,-0.026414,0.012357,-0.0051649999999999995,-27.370001000000002,-10.68,-21.0,1a
2019-07-12_145646:260,-0.394012,-0.057434000000000006,-0.033539,-0.025071,0.009122,-0.004432,-27.370001000000002,-10.68,-21.0,1a
2019-07-12_145646:280,-0.379791,-0.047791,-0.031494,-0.024278,0.005674,-0.006233,-28.5,-10.68,-20.18,1a
2019-07-12_145646:300,-0.463654,-0.03302,-0.023895,-0.024766,0.002348,-0.0060799999999999995,-28.5,-10.68,-20.18,1a
2019-07-12_145646:320,-0.481476,-0.026427999999999997,-0.045745999999999995,-0.027207,0.002744,-0.0007700000000000001,-28.5,-10.68,-20.18,1a
2019-07-12_145646:340,-0.6212770000000001,-0.026917,0.0035399999999999997,-0.030869,0.007840999999999999,0.005974,-28.059998999999998,-11.06,-19.75,1a
2019-07-12_145646:360,-0.620758,-0.020844,-0.069122,-0.038835,0.008329000000000001,0.013604,-28.059998999999998,-11.06,-19.75,1a
2019-07-12_145646:380,-0.496704,-0.037108999999999996,-0.035583,-0.041337,0.011289,0.016503,-27.68,-12.18,-19.75,1a
2019-07-12_145646:400,-0.5872189999999999,-0.039642000000000004,-0.016266,-0.04506,0.006651000000000001,0.005242,-27.68,-12.18,-19.75,1a
2019-07-12_145646:420,-0.7565310000000001,-0.015747,-0.12454200000000001,-0.053208000000000005,0.005857,0.005638000000000001,-27.68,-12.18,-19.75,1a
2019-07-12_145646:440,-0.7687069999999999,-0.026427999999999997,-0.05996699999999999,-0.056657000000000006,0.008665,0.030999000000000002,-28.059998999999998,-11.87,-17.5,1a
2019-07-12_145646:460,-0.48553500000000005,-0.019318000000000002,-0.081848,-0.058732000000000006,0.002012,0.042748,-28.059998999999998,-11.87,-17.5,1a
2019-07-12_145646:480,-0.341125,0.030487,-0.107269,-0.05919,-0.000826,0.020347999999999998,-28.5,-12.56,-19.0,1a
2019-07-12_145646:500,-0.399109,0.070648,-0.08743300000000001,-0.057664,-0.005372999999999999,-0.013130000000000001,-28.5,-12.56,-19.0,1a
2019-07-12_145646:520,-0.625336,0.124054,-0.09454299999999999,-0.058671,-0.007906,-0.031166000000000003,-28.5,-12.56,-19.0,1a
2019-07-12_145646:540,-0.661957,0.144379,-0.091003,-0.063249,-0.0012230000000000001,-0.021034,-29.18,-13.37,-19.5,1a
2019-07-12_145646:560,-0.55365,0.131165,-0.067596,-0.066575,0.006742000000000001,0.002251,-29.18,-13.37,-19.5,1a
2019-07-12_145646:580,-0.5404359999999999,0.118958,-0.079803,-0.070298,0.009916,0.008140999999999999,-28.5,-15.06,-17.75,1a
2019-07-12_145646:600,-0.511444,0.12454200000000001,-0.07421900000000001,-0.07374700000000001,0.011686,0.007103,-28.5,-15.06,-17.75,1a
2019-07-12_145646:620,-0.489075,0.116425,-0.071686,-0.07557799999999999,0.009031,0.016655,-28.5,-15.06,-17.75,1a
2019-07-12_145646:640,-0.462128,0.080322,-0.083374,-0.07710399999999999,0.0026829999999999996,0.024681,-28.059998999999998,-16.559998999999998,-16.68,1a
2019-07-12_145646:660,-0.448425,0.063019,-0.076263,-0.079453,-0.004397,0.021691,-28.059998999999998,-16.559998999999998,-16.68,1a
2019-07-12_145646:680,-0.431641,0.044739,-0.068634,-0.07923999999999999,-0.009554,0.018639,-29.18,-16.870001000000002,-15.87,1a
2019-07-12_145646:700,-0.418915,0.029480000000000003,-0.055389,-0.075273,-0.009554,0.019646,-29.18,-16.870001000000002,-15.87,1a
2019-07-12_145646:720,-0.426544,0.022858,-0.038116000000000004,-0.071153,-0.004733,0.017784,-29.18,-16.870001000000002,-15.87,1a
2019-07-12_145646:740,-0.42147799999999996,0.020325,-0.029968,-0.063828,0.007047,0.018578,-29.559998999999998,-17.25,-14.37,1a
2019-07-12_145646:760,-0.401123,0.019318000000000002,-0.026917,-0.060989999999999996,0.011167,0.021111,-29.559998999999998,-17.25,-14.37,1a
2019-07-12_145646:780,-0.374176,0.015228,-0.020325,-0.055345000000000005,0.018491,0.023827,-28.870001000000002,-18.059998999999998,-13.87,1a
2019-07-12_145646:800,-0.355377,0.019806,-0.005065999999999999,-0.049973000000000004,0.023466,0.019829,-28.870001000000002,-18.059998999999998,-13.87,1a
2019-07-12_145646:820,-0.36911,0.025908999999999998,-0.001495,-0.046311,0.026577999999999997,0.015923,-28.870001000000002,-18.059998999999998,-13.87,1a
2019-07-12_145646:840,-0.48196400000000006,0.023895,0.019318000000000002,-0.043656,0.027311000000000002,0.019097,-29.559998999999998,-18.75,-13.06,1a
2019-07-12_145646:860,-0.551636,0.028961,0.010651,-0.042222,0.028837,0.025536,-29.559998999999998,-18.75,-13.06,1a
2019-07-12_145646:880,-0.582123,0.040161,0.028442000000000002,-0.042192,0.031004000000000004,0.029717,-31.059998999999998,-18.68,-9.87,1a
2019-07-12_145646:900,-0.610107,0.079803,0.021851,-0.044877,0.033689,0.025932999999999998,-31.059998999999998,-18.68,-9.87,1a
2019-07-12_145646:920,-0.548584,0.131165,-0.012695,-0.057388999999999996,0.038053,0.025994,-31.059998999999998,-18.68,-9.87,1a
2019-07-12_145646:940,-0.557739,0.114899,0.0,-0.074662,0.044614,0.030999000000000002,-32.060001,-18.0,-9.87,1a
2019-07-12_145646:960,-0.88974,0.075745,-0.022858,-0.094834,0.050076999999999997,0.031304000000000005,-32.060001,-18.0,-9.87,1a
2019-07-12_145646:980,-0.600433,0.037108999999999996,-0.109802,-0.11467100000000001,0.049345,0.04226,-32.060001,-18.25,-6.5,1a
2019-07-12_145647:000,-0.382324,-0.042694,-0.016266,-0.120072,0.048215,0.041344,-32.060001,-18.25,-6.5,1a
2019-07-12_145647:020,-0.323334,-0.048798,-0.08996599999999999,-0.12471099999999999,0.027494,0.023339,-32.060001,-18.25,-6.5,1a
2019-07-12_145647:040,-0.416382,-0.060486,-0.012695,-0.12318499999999999,0.017484,0.018975,-33.560001,-18.25,-3.68,1a
2019-07-12_145647:060,-0.595337,-0.064545,-0.020844,-0.126023,0.014828999999999998,0.032433,-33.560001,-18.25,-3.68,1a
2019-07-12_145647:080,-0.566376,-0.091003,-0.056915,-0.129228,0.018734999999999998,0.059044000000000006,-34.0,-18.0,-0.5,1a
2019-07-12_145647:100,-0.5205989999999999,-0.12353499999999999,-0.032013,-0.131761,0.022397999999999998,0.061791,-34.0,-18.0,-0.5,1a
2019-07-12_145647:120,-0.522644,-0.12149000000000001,-0.069641,-0.137773,0.014431999999999999,0.03814,-34.0,-18.0,-0.5,1a
2019-07-12_145647:140,-0.498749,-0.113373,-0.0737,-0.144151,0.006528,0.025872000000000003,-35.060001,-16.5,1.37,1a
2019-07-12_145647:160,-0.48754899999999995,-0.12353499999999999,-0.074738,-0.14714100000000002,0.000303,0.030785000000000003,-35.060001,-16.5,1.37,1a
2019-07-12_145647:180,-0.490601,-0.127106,-0.078796,-0.150071,-0.003542,0.025475,-33.869999,-13.87,3.0,1a
2019-07-12_145647:200,-0.495697,-0.10775799999999999,-0.071167,-0.15226800000000001,-0.004,0.005364,-33.869999,-13.87,3.0,1a
2019-07-12_145647:220,-0.503845,-0.094055,-0.068115,-0.152238,-0.001254,-0.009406999999999999,-33.869999,-13.87,3.0,1a
2019-07-12_145647:240,-0.488068,-0.07775900000000001,-0.060486,-0.149674,0.006925,-0.013771,-34.560001,-12.0,7.0,1a
2019-07-12_145647:260,-0.458588,-0.067596,-0.058960000000000005,-0.147325,0.016355,-0.018318,-34.560001,-12.0,7.0,1a
2019-07-12_145647:280,-0.432159,-0.048279,-0.05438200000000001,-0.146867,0.022733,-0.021034,-34.68,-11.75,8.56,1a
2019-07-12_145647:300,-0.437225,-0.048798,-0.054901,-0.14521900000000001,0.025724,-0.012855000000000002,-34.68,-11.75,8.56,1a
2019-07-12_145647:320,-0.445374,-0.068634,-0.056915,-0.142777,0.026577999999999997,0.000206,-34.68,-11.75,8.56,1a
2019-07-12_145647:340,-0.440796,-0.078278,-0.057953,-0.140489,0.026487,0.004296,-34.68,-10.25,10.56,1a
2019-07-12_145647:360,-0.423004,-0.073212,-0.071167,-0.13905399999999998,0.023435,-0.000984,-34.68,-10.25,10.56,1a
2019-07-12_145647:380,-0.423492,-0.066071,-0.083374,-0.140122,0.017728,-0.003547,-34.0,-10.37,12.18,1a
2019-07-12_145647:400,-0.45907600000000004,-0.065582,-0.102173,-0.14363199999999998,0.012052,0.0014880000000000002,-34.0,-10.37,12.18,1a
2019-07-12_145647:420,-0.489075,-0.083374,-0.104706,-0.150865,0.012357,0.006768000000000001,-34.0,-10.37,12.18,1a
2019-07-12_145647:440,-0.582123,-0.11538699999999999,-0.10116599999999999,-0.158891,0.018338999999999998,0.008934000000000001,-33.560001,-8.87,14.18,1a
2019-07-12_145647:460,-0.538391,-0.130127,-0.11691300000000002,-0.16325499999999998,0.027311000000000002,0.012596,-33.560001,-8.87,14.18,1a
2019-07-12_145647:480,-0.45553599999999994,-0.154022,-0.09301799999999999,-0.162614,0.036344,0.007012000000000001,-34.25,-5.06,15.0,1a
2019-07-12_145647:500,-0.45095799999999997,-0.14032,-0.09811399999999999,-0.162339,0.036649,-0.008948999999999999,-34.25,-5.06,15.0,1a
2019-07-12_145647:520,-0.6299130000000001,-0.148956,-0.029968,-0.159226,0.032224,-0.0102,-34.25,-5.06,15.0,1a
2019-07-12_145647:540,-0.696014,-0.126068,-0.096069,-0.157578,0.0249,0.008293,-33.060001,-2.75,17.75,1a
2019-07-12_145647:560,-0.61264,-0.149475,-0.067108,-0.149339,0.01782,0.034111,-33.060001,-2.75,17.75,1a
2019-07-12_145647:580,-0.40011599999999997,-0.149963,-0.043213,-0.13765,0.004484,0.021843,-32.369999,0.0,17.75,1a
2019-07-12_145647:600,-0.429596,-0.10116599999999999,-0.010162000000000001,-0.12303299999999999,-0.007234999999999999,-0.010657999999999999,-32.369999,0.0,17.75,1a
2019-07-12_145647:620,-0.538391,-0.031494,0.008118,-0.10719400000000001,-0.008912999999999999,-0.010353,-32.369999,0.0,17.75,1a
2019-07-12_145647:640,-0.618744,0.001007,0.027954000000000003,-0.087724,0.002195,0.018639,-31.25,2.56,19.0,1a
2019-07-12_145647:660,-0.640076,0.017273,0.041168,-0.078172,0.016752,0.0317,-31.25,2.56,19.0,1a
2019-07-12_145647:680,-0.576538,0.049316000000000006,0.045745999999999995,-0.074998,0.027769,0.016259,-31.68,4.5,17.870001000000002,1a
2019-07-12_145647:700,-0.488068,0.09301799999999999,0.044219999999999995,-0.075517,0.032804,0.011528,-31.68,4.5,17.870001000000002,1a
2019-07-12_145647:720,-0.457581,0.092529,0.023895,-0.076737,0.031034,0.026329,-31.68,4.5,17.870001000000002,1a
2019-07-12_145647:740,-0.461639,0.078278,0.0025329999999999997,-0.081162,0.025113999999999997,0.032708,-30.870001000000002,6.68,17.559998999999998,1a
2019-07-12_145647:760,-0.488068,0.07421900000000001,-0.004547,-0.090196,0.016599000000000003,0.025475,-30.870001000000002,6.68,17.559998999999998,1a
2019-07-12_145647:780,-0.501282,0.069122,-0.023375999999999997,-0.098557,0.010099,0.021508000000000003,-30.18,8.18,19.25,1a
2019-07-12_145647:800,-0.488068,0.048798,-0.025421,-0.104539,0.007261,0.01931,-30.18,8.18,19.25,1a
2019-07-12_145647:820,-0.460114,0.022369,-0.032013,-0.1093,0.006376,0.010001999999999999,-30.18,8.18,19.25,1a
2019-07-12_145647:840,-0.44638100000000003,0.010651,-0.034546,-0.110917,0.006803,0.000206,-29.0,10.75,18.0,1a
2019-07-12_145647:860,-0.434692,0.001495,-0.036591000000000005,-0.110246,0.007139,-0.000496,-29.0,10.75,18.0,1a
2019-07-12_145647:880,-0.441803,-0.004059,-0.040161,-0.106645,0.008268000000000001,0.005761,-28.68,12.68,17.25,1a
2019-07-12_145647:900,-0.451477,-0.018799,-0.030487,-0.10133500000000001,0.010038,0.008812,-28.68,12.68,17.25,1a
2019-07-12_145647:920,-0.433167,-0.012695,-0.027435,-0.09459,0.012631999999999999,0.006157,-28.68,12.68,17.25,1a
2019-07-12_145647:940,-0.443329,-0.012177,-0.018799,-0.08748,0.014341,0.007073,-29.0,14.18,15.25,1a
2019-07-12_145647:960,-0.44638100000000003,-0.014740000000000001,-0.013702,-0.07866000000000001,0.017728,0.01519,-29.0,14.18,15.25,1a
2019-07-12_145647:980,-0.503326,-0.037108999999999996,0.015228,-0.06855900000000001,0.023771,0.022209,-28.25,15.68,14.87,1a
2019-07-12_145648:000,-0.5267029999999999,-0.049316000000000006,0.002014,-0.059739,0.028439999999999997,0.025078,-28.25,15.68,14.87,1a
2019-07-12_145648:020,-0.508423,-0.072174,-0.001007,-0.050767,0.030363,0.024468,-28.25,15.68,14.87,1a
2019-07-12_145648:040,-0.511444,-0.08743300000000001,0.004059,-0.043931,0.028683999999999998,0.018578,-27.870001000000002,16.5,15.37,1a
2019-07-12_145648:060,-0.567902,-0.111847,0.014740000000000001,-0.03505,0.030149000000000002,0.013725999999999999,-27.870001000000002,16.5,15.37,1a
2019-07-12_145648:080,-0.8571780000000001,-0.095581,-0.046752999999999996,-0.032121,0.034879,0.032372000000000005,-25.68,17.559998999999998,14.5,1a
2019-07-12_145648:100,-0.627899,-0.12506099999999998,-0.075226,-0.025407,0.041105,0.023674,-25.68,17.559998999999998,14.5,1a
2019-07-12_145648:120,-0.44638100000000003,-0.138794,-0.06253099999999999,-0.028732999999999998,0.016996,-0.004158,-25.68,17.559998999999998,14.5,1a
2019-07-12_145648:140,-0.408752,-0.115906,-0.132172,-0.028732999999999998,0.006132,-0.013771,-24.559998999999998,18.68,15.68,1a
2019-07-12_145648:160,-0.399109,-0.11795,-0.12912,-0.022233000000000003,-0.019412000000000002,-0.022224,-24.559998999999998,18.68,15.68,1a
2019-07-12_145648:180,-0.535339,-0.12558,-0.094055,-0.020585,-0.019198,-0.025062,-26.0,19.5,16.0,1a
2019-07-12_145648:200,-0.6512760000000001,-0.11538699999999999,-0.105743,-0.015244,-0.008364,-0.019478,-26.0,19.5,16.0,1a
2019-07-12_145648:220,-0.5795899999999999,-0.12149000000000001,-0.08843999999999999,-0.005845,-3.3e-05,-0.02375,-26.0,19.5,16.0,1a
2019-07-12_145648:240,-0.585175,-0.119476,-0.064545,-0.001695,0.000669,-0.034492,-25.25,19.059998999999998,14.87,1a
2019-07-12_145648:260,-0.561279,-0.09353600000000001,-0.083374,0.0008380000000000001,-0.002016,-0.028052999999999998,-25.25,19.059998999999998,14.87,1a
2019-07-12_145648:280,-0.488068,-0.07775900000000001,-0.068634,0.002822,-0.009432,-0.015663,-25.68,17.559998999999998,13.75,1a
2019-07-12_145648:300,-0.471283,-0.083374,-0.07421900000000001,0.00209,-0.016756,-0.015846000000000002,-25.68,17.559998999999998,13.75,1a
2019-07-12_145648:320,-0.437225,-0.077271,-0.067596,0.0013880000000000001,-0.020784999999999998,-0.025519999999999998,-25.68,17.559998999999998,13.75,1a
2019-07-12_145648:340,-0.410278,-0.07016,-0.053375,0.0015710000000000001,-0.021639,-0.030128,-26.370001000000002,16.5,15.0,1a
2019-07-12_145648:360,-0.389954,-0.060486,-0.037598,0.003432,-0.018649000000000002,-0.038887,-26.370001000000002,16.5,15.0,1a
2019-07-12_145648:380,-0.384338,-0.050323,-0.025421,0.00389,-0.015931999999999998,-0.040199,-27.5,16.5,13.25,1a
2019-07-12_145648:400,-0.370636,-0.035065,-0.016266,0.004012,-0.007571,-0.036567,-27.5,16.5,13.25,1a
2019-07-12_145648:420,-0.37011700000000003,-0.026917,-0.015747,0.0032189999999999996,-0.001376,-0.029518,-27.5,16.5,13.25,1a
2019-07-12_145648:440,-0.409271,-0.023375999999999997,-0.006592,0.0013570000000000001,0.005521,-0.021156,-28.68,14.18,13.75,1a
2019-07-12_145648:460,-0.41995200000000005,-0.022858,-0.008118,0.000625,0.010435,-0.015846000000000002,-28.68,14.18,13.75,1a
2019-07-12_145648:480,-0.396057,-0.030487,-0.017273,-0.000352,0.011106,-0.016059999999999998,-28.25,14.0,13.68,1a
2019-07-12_145648:500,-0.376221,-0.034546,-0.025908999999999998,-0.001267,0.0072,-0.01551,-28.25,14.0,13.68,1a
2019-07-12_145648:520,-0.423492,-0.040649,-0.023375999999999997,-0.0016640000000000001,0.005064,-0.010139,-28.25,14.0,13.68,1a
2019-07-12_145648:540,-0.546021,-0.045226999999999996,0.0055850000000000006,-0.0034649999999999998,0.009061,-0.001564,-28.25,12.87,14.0,1a
2019-07-12_145648:560,-0.6238100000000001,-0.052338,0.006592,-0.004472,0.018949,0.004845,-28.25,12.87,14.0,1a
2019-07-12_145648:580,-0.614166,-0.06149299999999999,0.015747,-0.006425,0.024442,0.005181,-29.059998999999998,12.5,14.0,1a
2019-07-12_145648:600,-0.567902,-0.071167,0.004547,-0.008164,0.023923,0.004113,-29.059998999999998,12.5,14.0,1a
2019-07-12_145648:620,-0.530792,-0.069641,-0.014221000000000001,-0.00908,0.017271,0.005699,-29.059998999999998,12.5,14.0,1a
2019-07-12_145648:640,-0.574493,-0.069641,0.0,-0.009629,0.012907,0.005638000000000001,-28.370001000000002,12.87,14.87,1a
2019-07-12_145648:660,-0.984283,-0.058441,0.051849,-0.017197999999999998,0.0038729999999999997,0.012139,-28.370001000000002,12.87,14.87,1a
2019-07-12_145648:680,-0.5323180000000001,-0.036072,-0.084381,-0.016526,0.00897,0.016166999999999997,-28.75,11.75,14.5,1a
2019-07-12_145648:700,-0.48858599999999996,-0.027435,0.05285599999999999,-0.013871000000000001,0.002805,-0.003181,-28.75,11.75,14.5,1a
2019-07-12_145648:720,-0.45605500000000004,0.030487,-0.12658699999999998,-0.01146,-0.002078,-0.011054999999999999,-28.75,11.75,14.5,1a
2019-07-12_145648:740,-0.35638400000000003,0.063019,-0.10928299999999999,-0.007431999999999999,-0.009370999999999999,-0.020149,-27.559998999999998,12.18,13.25,1a
2019-07-12_145648:760,-0.596375,0.082336,-0.041168,-0.007554000000000001,-0.012972,-0.023994,-27.559998999999998,12.18,13.25,1a
2019-07-12_145648:780,-0.663483,0.113373,-0.097595,-0.006883,-0.005068,-0.013771,-28.75,12.5,13.68,1a
2019-07-12_145648:800,-0.5404359999999999,0.12454200000000001,-0.05285599999999999,-0.0074930000000000005,-0.0024129999999999998,-0.005836,-28.75,12.5,13.68,1a
2019-07-12_145648:820,-0.5134890000000001,0.119965,-0.05438200000000001,-0.011064000000000001,-0.003848,-0.002693,-28.75,12.5,13.68,1a
2019-07-12_145648:840,-0.514008,0.107269,-0.06253099999999999,-0.012620000000000001,-0.003329,0.001213,-28.0,12.18,13.68,1a
2019-07-12_145648:860,-0.453491,0.083862,-0.06253099999999999,-0.016434999999999998,-0.007967,0.021691,-28.0,12.18,13.68,1a
2019-07-12_145648:880,-0.386383,0.029480000000000003,-0.047791,-0.017259,-0.010165,0.025475,-29.870001000000002,11.0,14.06,1a
2019-07-12_145648:900,-0.367584,0.007111,-0.036591000000000005,-0.018785,-0.011446,0.026146,-29.870001000000002,11.0,14.06,1a
2019-07-12_145648:920,-0.367584,-0.013213999999999998,-0.017792,-0.017838,-0.007388,0.024742,-29.870001000000002,11.0,14.06,1a
2019-07-12_145648:940,-0.390442,-0.024902,-0.0030210000000000002,-0.01677,-0.001254,0.022698,-29.059998999999998,12.18,13.25,1a
2019-07-12_145648:960,-0.399597,-0.029968,0.001495,-0.01677,0.006193,0.020897,-29.059998999999998,12.18,13.25,1a
2019-07-12_145648:980,-0.374176,-0.034058,0.008636,-0.015855,0.011838,0.020439,-29.059998999999998,13.56,13.25,1a
2019-07-12_145649:000,-0.378754,-0.039124,0.014221000000000001,-0.013719,0.013486000000000001,0.016045,-29.059998999999998,13.56,13.25,1a
2019-07-12_145649:020,-0.408752,-0.03302,0.007599,-0.012254000000000001,0.013241999999999999,0.009331,-29.059998999999998,13.56,13.25,1a
2019-07-12_145649:040,-0.402161,-0.025421,0.004547,-0.011216,0.0119,0.007683,-29.059998999999998,14.68,13.25,1a
2019-07-12_145649:060,-0.439758,-0.017792,0.015228,-0.007035,0.004057,0.007958,-29.059998999999998,14.68,13.25,1a
2019-07-12_145649:080,-0.463654,-0.017792,0.0,-0.0063030000000000004,0.001157,0.008812,-29.059998999999998,14.68,12.56,1a
2019-07-12_145649:100,-0.5343319999999999,-0.021851,0.031494,-0.002885,-0.002139,0.010856999999999999,-29.059998999999998,14.68,12.56,1a
2019-07-12_145649:120,-0.6324770000000001,-0.021851,0.022369,-0.0022129999999999997,-0.002993,0.012871,-29.059998999999998,14.68,12.56,1a
2019-07-12_145649:140,-0.6324770000000001,-0.026427999999999997,-0.010162000000000001,-0.001206,-0.001559,0.014061,-29.5,14.68,13.37,1a
2019-07-12_145649:160,-0.553162,-0.03302,-0.005065999999999999,0.0018449999999999999,-0.002535,0.008140999999999999,-29.5,14.68,13.37,1a
2019-07-12_145649:180,-0.89328,-0.054901,0.077271,0.00331,-0.003848,0.003228,-28.75,14.68,12.56,1a
2019-07-12_145649:200,-0.9303889999999999,-0.020844,-0.092529,0.0005639999999999999,0.001066,0.0064930000000000005,-28.75,14.68,12.56,1a
2019-07-12_145649:220,-0.6212770000000001,-0.07775900000000001,0.021851,0.002578,0.014097,0.004845,-28.75,14.68,12.56,1a
2019-07-12_145649:240,-0.492126,-0.078796,-0.040161,0.0015710000000000001,0.005125,0.0007559999999999999,-29.870001000000002,14.25,13.37,1a
2019-07-12_145649:260,-0.34570300000000004,-0.112854,-0.12200899999999999,-0.0014199999999999998,-0.010043,0.003563,-29.870001000000002,14.25,13.37,1a
2019-07-12_145649:280,-0.319275,-0.130646,-0.084381,-0.000627,-0.016207,0.010948000000000001,-30.18,14.25,13.37,1a
2019-07-12_145649:300,-0.667542,-0.165222,-0.076752,0.0031579999999999998,-0.021334,0.027123,-30.18,14.25,13.37,1a
2019-07-12_145649:320,-0.613647,-0.193695,-0.13269,0.007155,-0.010226,0.017449,-30.18,14.25,13.37,1a
2019-07-12_145649:340,-0.48553500000000005,-0.199799,-0.053375,0.011733,-0.006991,0.005761,-30.5,14.68,11.37,1a
2019-07-12_145649:360,-0.49975600000000003,-0.164215,-0.0737,0.021894999999999998,-0.003725,-0.016517,-30.5,14.68,11.37,1a
2019-07-12_145649:380,-0.47842399999999996,-0.11795,-0.068634,0.023818000000000002,-0.00043,-0.015785,-30.5,14.68,11.37,1a
2019-07-12_145649:400,-0.426544,-0.09963999999999999,-0.045226999999999996,0.02568,0.003721,-0.010536,-30.18,15.06,11.0,1a
2019-07-12_145649:420,-0.40316799999999997,-0.076752,-0.036072,0.023543,0.004789,-0.018287,-30.18,15.06,11.0,1a
2019-07-12_145649:440,-0.377228,-0.054901,-0.029968,0.021894999999999998,0.0057350000000000005,-0.022956999999999998,-31.25,14.25,11.37,1a
2019-07-12_145649:460,-0.3396,-0.031006,-0.006072999999999999,0.016433,0.008665,-0.029700999999999998,-31.25,14.25,11.37,1a
2019-07-12_145649:480,-0.339111,-0.024384,0.0,0.014509999999999999,0.008573,-0.029639999999999996,-32.0,13.25,13.0,1a
2019-07-12_145649:500,-0.355896,-0.022858,0.005065999999999999,0.009536,0.00958,-0.030372000000000003,-32.0,13.25,13.0,1a
2019-07-12_145649:520,-0.364532,-0.021332,0.008636,0.006362,0.010191,-0.029914999999999997,-32.0,13.25,13.0,1a
2019-07-12_145649:540,-0.391968,-0.026427999999999997,0.011687999999999999,0.005691,0.010038,-0.029335000000000003,-32.369999,12.18,13.75,1a
2019-07-12_145649:560,-0.41485600000000006,-0.030487,0.004547,0.004561,0.007993,-0.029304000000000004,-32.369999,12.18,13.75,1a
2019-07-12_145649:580,-0.388428,-0.042175,-0.010651,0.0033710000000000003,0.003995,-0.028114,-32.369999,12.18,13.75,1a
2019-07-12_145649:600,-0.404694,-0.051330999999999995,-0.004059,0.0036149999999999997,-0.0016809999999999998,-0.023811000000000002,-32.0,11.0,13.37,1a
2019-07-12_145649:620,-0.506378,-0.061005,-0.021851,0.003036,-0.005068,-0.018043,-32.0,11.0,13.37,1a
2019-07-12_145649:640,-0.551636,-0.056427,-0.017273,0.003554,-0.004122,-0.018226,-33.5,9.18,13.75,1a
2019-07-12_145649:660,-0.66095,-0.022369,-0.012177,0.001174,-0.004061,-0.028327999999999996,-33.5,9.18,13.75,1a
2019-07-12_145649:680,-0.626373,0.010162000000000001,-0.050323,-0.00081,-0.0042439999999999995,-0.031226999999999998,-33.5,9.18,13.75,1a
2019-07-12_145649:700,-0.582123,0.044739,0.0030210000000000002,-0.004746,-0.001101,-0.031044,-34.18,8.75,14.06,1a
2019-07-12_145649:720,0.949097,0.06405599999999999,0.061005,-0.006028,0.004392,-0.027594999999999998,-34.18,8.75,14.06,1a
2019-07-12_145649:740,-0.765167,0.082336,-0.071686,-0.010667,0.007840999999999999,-0.010719,-33.869999,8.37,13.37,1a
2019-07-12_145649:760,-0.484497,0.0849,-0.004547,-0.011003,0.021207,0.0021899999999999997,-33.869999,8.37,13.37,1a
2019-07-12_145649:780,-0.338593,0.106232,-0.053863999999999995,-0.011064000000000001,0.010496,0.0064930000000000005,-33.869999,8.37,13.37,1a
2019-07-12_145649:800,-0.302002,0.12200899999999999,-0.07421900000000001,-0.012193,-0.003848,0.001549,-35.369999,7.25,12.56,1a
2019-07-12_145649:820,-0.589233,0.12454200000000001,-0.012177,-0.015244,-0.018008,-0.006691,-35.369999,7.25,12.56,1a
2019-07-12_145649:840,-0.644165,0.137756,-0.076263,-0.017044999999999998,-0.023043,-0.007423000000000001,-35.0,7.68,13.75,1a
2019-07-12_145649:860,-0.503845,0.130127,-0.032532,-0.018174,-0.017733000000000002,2.3e-05,-35.0,7.68,13.75,1a
2019-07-12_145649:880,-0.474854,0.12353499999999999,-0.023375999999999997,-0.018327,-0.018343,0.007622,-35.0,7.68,13.75,1a
2019-07-12_145649:900,-0.500793,0.10318,-0.06405599999999999,-0.017259,-0.020052,0.016198,-34.560001,6.87,13.0,1a
2019-07-12_145649:920,-0.44433599999999995,0.092529,-0.056915,-0.015458000000000001,-0.020846,0.023827,-34.560001,6.87,13.0,1a
2019-07-12_145649:940,-0.421967,0.065063,-0.050842,-0.016252000000000003,-0.025575999999999998,0.027183999999999996,-35.369999,8.75,11.75,1a
2019-07-12_145649:960,-0.40823400000000004,0.049805,-0.057953,-0.017716,-0.027682,0.029258999999999997,-35.369999,8.75,11.75,1a
2019-07-12_145649:980,-0.377747,0.027435,-0.039124,-0.017991,-0.024172,0.031914,-35.369999,8.75,11.75,1a
2019-07-12_145650:000,-0.379791,0.020844,-0.028442000000000002,-0.01793,-0.018343,0.032708,-35.369999,8.75,11.37,1a
2019-07-12_145650:020,-0.410797,0.019806,-0.017792,-0.017991,-0.009309999999999999,0.031517,-35.369999,8.75,11.37,1a
2019-07-12_145650:040,-0.414337,0.015747,-0.014221000000000001,-0.01851,8.9e-05,0.031914,-36.5,10.68,11.37,1a
2019-07-12_145650:060,-0.391968,0.011169,-0.013702,-0.018052000000000002,0.007261,0.032494,-36.5,10.68,11.37,1a
2019-07-12_145650:080,-0.374176,0.006592,-0.011169,-0.017564,0.010587000000000001,0.030510000000000002,-36.5,10.68,11.37,1a
2019-07-12_145650:100,-0.352844,0.007111,-0.016753999999999998,-0.016252000000000003,0.009245,0.02401,-36.5,11.75,11.0,1a
2019-07-12_145650:120,-0.41384899999999997,0.011687999999999999,0.0055850000000000006,-0.015641,0.007108,0.017571,-36.5,11.75,11.0,1a
2019-07-12_145650:140,-0.47180200000000005,0.014740000000000001,-0.010651,-0.014909,0.0054600000000000004,0.017449,-36.5,12.87,11.37,1a
2019-07-12_145650:160,-0.546021,0.0055850000000000006,0.015228,-0.01378,0.007261,0.020347999999999998,-36.5,12.87,11.37,1a
2019-07-12_145650:180,-0.640594,0.0030210000000000002,-0.008118,-0.012193,0.006589,0.019249000000000002,-36.5,12.87,11.37,1a
2019-07-12_145650:200,-0.613647,0.000488,-0.027954000000000003,-0.011399,0.005338,0.016442,-36.060001,13.25,10.56,1a
2019-07-12_145650:220,-0.5572199999999999,-0.015747,-0.008118,-0.010423,0.004545,0.016381,-36.060001,13.25,10.56,1a
2019-07-12_145650:240,-0.606537,-0.042175,-0.020325,-0.007279000000000001,0.002531,0.018425,-37.18,14.25,10.56,1a
2019-07-12_145650:260,0.9831540000000001,-0.05438200000000001,-0.030487,-0.003282,0.008512,0.014733000000000001,-37.18,14.25,10.56,1a
2019-07-12_145650:280,-0.623322,-0.069122,-0.148956,-0.005052,0.008665,0.012749,-37.18,14.25,10.56,1a
2019-07-12_145650:300,-0.427063,-0.102692,-0.008118,-0.001145,0.012631999999999999,0.00277,-35.68,14.68,11.0,1a
2019-07-12_145650:320,-0.377747,-0.09963999999999999,-0.10775799999999999,-0.000627,-0.0037869999999999996,-0.002113,-35.68,14.68,11.0,1a
2019-07-12_145650:340,-0.385376,-0.114899,-0.065063,0.001113,-0.006991,0.007408,-36.5,14.25,12.56,1a
2019-07-12_145650:360,-0.634003,-0.12506099999999998,-0.01828,0.002761,-0.007266,0.018119999999999997,-36.5,14.25,12.56,1a
2019-07-12_145650:380,-0.607056,-0.146423,-0.109802,0.001235,-0.00458,0.023888,-36.5,14.25,12.56,1a
2019-07-12_145650:400,-0.476379,-0.16217,-0.056427,0.004104,-9.4e-05,0.015526,-36.5,14.0,11.75,1a
2019-07-12_145650:420,-0.508911,-0.134216,-0.071167,0.009261,-0.0087,-0.002571,-36.5,14.0,11.75,1a
2019-07-12_145650:440,-0.509918,-0.109802,-0.08590700000000001,0.009719,-0.013674,-0.0084,-36.5,15.5,11.0,1a
2019-07-12_145650:460,-0.425018,-0.094055,-0.05285599999999999,0.010665000000000001,-0.016329,0.000359,-36.5,15.5,11.0,1a
2019-07-12_145650:480,-0.42453,-0.090485,-0.048279,0.010665000000000001,-0.018801,0.000878,-36.5,15.5,11.0,1a
2019-07-12_145650:500,-0.393494,-0.070648,-0.040161,0.008223999999999999,-0.015353,-0.011512,-36.869999,14.0,11.37,1a
2019-07-12_145650:520,-0.378754,-0.055389,-0.01828,0.006606,-0.007906,-0.020942,-36.869999,14.0,11.37,1a
2019-07-12_145650:540,-0.396545,-0.043701,-0.007599,0.005416,-3.3e-05,-0.021827000000000003,-37.5,14.0,11.37,1a
2019-07-12_145650:560,-0.402649,-0.045745999999999995,-0.0035399999999999997,0.00328,0.009061,-0.020302,-37.5,14.0,11.37,1a
2019-07-12_145650:580,-0.391479,-0.045226999999999996,0.009125,0.000625,0.016812999999999998,-0.019294,-37.5,14.0,11.37,1a
2019-07-12_145650:600,-0.399109,-0.047791,0.013702,-0.001084,0.021146,-0.016365,-37.869999,13.18,11.37,1a
2019-07-12_145650:620,-0.381805,-0.053863999999999995,0.0055850000000000006,-0.002,0.022062000000000002,-0.012855000000000002,-37.869999,13.18,11.37,1a
2019-07-12_145650:640,-0.344177,-0.054901,0.0055850000000000006,-0.0024879999999999998,0.019468,-0.013588,-38.25,11.68,11.75,1a
2019-07-12_145650:660,-0.427063,-0.047272,0.037108999999999996,-0.0035259999999999996,0.014494,-0.017372,-38.25,11.68,11.75,1a
