timestamp,AccX,AccY,AccZ,GyroX,GyroY,GyroZ,MagX,MagY,MagZ,Activity
2019-07-12_142805:540,-0.378265,-0.044739,-0.313171,-0.007156999999999999,-0.004794,0.002709,-26.370001000000002,25.059998999999998,-19.5,2d
2019-07-12_142805:560,-0.390961,-0.049805,-0.31723,-0.007615,-0.006503,0.003563,-26.370001000000002,25.059998999999998,-19.0,2d
2019-07-12_142805:580,-0.396545,-0.051330999999999995,-0.317749,-0.007829000000000001,-0.006899,0.003899,-26.370001000000002,25.059998999999998,-19.0,2d
2019-07-12_142805:600,-0.394012,-0.051849,-0.317749,-0.007431999999999999,-0.005404,0.00457,-26.370001000000002,25.059998999999998,-19.0,2d
2019-07-12_142805:620,-0.385376,-0.053375,-0.31723,-0.006973999999999999,-0.0028710000000000003,0.004967,-26.0,25.5,-19.75,2d
2019-07-12_142805:640,-0.36911,-0.050323,-0.316223,-0.0067,-0.000826,0.004235,-26.0,25.5,-19.75,2d
2019-07-12_142805:660,-0.358429,-0.046752999999999996,-0.314697,-0.007156999999999999,-9.4e-05,0.004296,-25.559998999999998,25.870001000000002,-19.75,2d
2019-07-12_142805:680,-0.35943600000000003,-0.047791,-0.314178,-0.00847,-0.000307,0.006157,-25.559998999999998,25.870001000000002,-19.75,2d
2019-07-12_142805:700,-0.36706500000000003,-0.05285599999999999,-0.316742,-0.009294,-0.0016809999999999998,0.007286,-25.559998999999998,25.870001000000002,-19.75,2d
2019-07-12_142805:720,-0.382812,-0.058441,-0.32132,-0.010087,-0.00339,0.007012000000000001,-25.559998999999998,25.5,-18.559998999999998,2d
2019-07-12_142805:740,-0.389435,-0.06253099999999999,-0.321808,-0.009477,-0.0042439999999999995,0.006829000000000001,-25.559998999999998,25.5,-18.559998999999998,2d
2019-07-12_142805:760,-0.397583,-0.066589,-0.323853,-0.008683,-0.0037869999999999996,0.0066760000000000005,-25.25,25.059998999999998,-19.370001000000002,2d
2019-07-12_142805:780,-0.402161,-0.069122,-0.322845,-0.007615,-0.002139,0.005974,-25.25,25.059998999999998,-19.370001000000002,2d
2019-07-12_142805:800,-0.394531,-0.064545,-0.320282,-0.006547,-9.4e-05,0.0054859999999999996,-25.25,25.059998999999998,-19.370001000000002,2d
2019-07-12_142805:820,-0.381805,-0.061005,-0.312653,-0.005265,0.002073,0.004021,-25.25,24.75,-19.5,2d
2019-07-12_142805:840,-0.364014,-0.050323,-0.309113,-0.005052,0.0032020000000000004,0.0017929999999999999,-25.25,24.75,-19.5,2d
2019-07-12_142805:860,-0.35791,-0.043213,-0.306061,-0.006089,0.0035380000000000003,0.002373,-25.25,25.059998999999998,-18.559998999999998,2d
2019-07-12_142805:880,-0.356903,-0.045226999999999996,-0.304535,-0.007890000000000001,0.002531,0.005547,-25.25,25.059998999999998,-18.559998999999998,2d
2019-07-12_142805:900,-0.368591,-0.051330999999999995,-0.31012,-0.009873,0.000608,0.007286,-25.25,25.059998999999998,-18.559998999999998,2d
2019-07-12_142805:920,-0.38028,-0.058960000000000005,-0.311646,-0.011155,-0.000643,0.006951000000000001,-25.559998999999998,25.059998999999998,-18.559998999999998,2d
2019-07-12_142805:940,-0.386383,-0.064545,-0.309113,-0.011216,-0.001559,0.007225,-25.559998999999998,25.059998999999998,-18.559998999999998,2d
2019-07-12_142805:960,-0.399109,-0.071686,-0.313171,-0.010484,-0.0018030000000000001,0.007622,-26.0,25.059998999999998,-19.370001000000002,2d
2019-07-12_142805:980,-0.399597,-0.074738,-0.312653,-0.009141,-0.001376,0.006554000000000001,-26.0,25.059998999999998,-19.370001000000002,2d
2019-07-12_142806:000,-0.394531,-0.071167,-0.311646,-0.007431999999999999,-0.000246,0.004631000000000001,-26.0,25.059998999999998,-19.370001000000002,2d
2019-07-12_142806:020,-0.384857,-0.066589,-0.312164,-0.006089,0.001493,0.0029219999999999997,-24.870001000000002,25.870001000000002,-19.370001000000002,2d
2019-07-12_142806:040,-0.369598,-0.055908000000000006,-0.303528,-0.006089,0.0032630000000000003,0.002709,-24.870001000000002,25.870001000000002,-19.370001000000002,2d
2019-07-12_142806:060,-0.359955,-0.052338,-0.302002,-0.007035,0.004331000000000001,0.004113,-24.5,25.059998999999998,-19.5,2d
2019-07-12_142806:080,-0.35943600000000003,-0.053863999999999995,-0.29943800000000004,-0.008836,0.003812,0.005364,-24.5,25.059998999999998,-19.5,2d
2019-07-12_142806:100,-0.368073,-0.058441,-0.30249000000000004,-0.010148,0.001615,0.005242,-24.5,25.059998999999998,-19.5,2d
2019-07-12_142806:120,-0.377747,-0.066589,-0.307587,-0.010758,-0.0009789999999999998,0.005547,-24.870001000000002,25.5,-20.18,2d
2019-07-12_142806:140,-0.386383,-0.0737,-0.309601,-0.010026,-0.003329,0.005761,-24.870001000000002,25.5,-20.18,2d
2019-07-12_142806:160,-0.396545,-0.078796,-0.314178,-0.008836,-0.005068,0.004845,-25.559998999999998,25.870001000000002,-19.0,2d
2019-07-12_142806:180,-0.399109,-0.07775900000000001,-0.314697,-0.007156999999999999,-0.004855,0.003258,-25.559998999999998,25.870001000000002,-19.0,2d
2019-07-12_142806:200,-0.394012,-0.070648,-0.309601,-0.005143,-0.002932,0.001213,-25.559998999999998,25.870001000000002,-19.0,2d
2019-07-12_142806:220,-0.37674,-0.06149299999999999,-0.308075,-0.004319,-0.00036899999999999997,-0.000587,-26.0,26.25,-18.559998999999998,2d
2019-07-12_142806:240,-0.361481,-0.047272,-0.304016,-0.005052,0.001066,-0.000526,-26.0,26.25,-18.559998999999998,2d
2019-07-12_142806:260,-0.356903,-0.045745999999999995,-0.304016,-0.006822,0.000944,0.0014880000000000002,-25.25,25.5,-19.75,2d
2019-07-12_142806:280,-0.36654699999999996,-0.051330999999999995,-0.304016,-0.009019,-0.0007650000000000001,0.003228,-25.25,25.5,-19.75,2d
2019-07-12_142806:300,-0.382324,-0.06149299999999999,-0.31012,-0.010423,-0.0027489999999999997,0.0034409999999999996,-25.25,25.5,-19.75,2d
2019-07-12_142806:320,-0.387909,-0.066071,-0.311646,-0.01027,-0.004519,0.0028309999999999997,-25.25,26.25,-18.559998999999998,2d
2019-07-12_142806:340,-0.397583,-0.071686,-0.315704,-0.008836,-0.005465,0.002892,-25.25,26.25,-18.559998999999998,2d
2019-07-12_142806:360,-0.40063499999999996,-0.071686,-0.316742,-0.006883,-0.005312,0.002587,-24.870001000000002,25.870001000000002,-20.18,2d
2019-07-12_142806:380,-0.388428,-0.064545,-0.310638,-0.004991,-0.003268,0.0019149999999999998,-24.870001000000002,25.870001000000002,-20.18,2d
2019-07-12_142806:400,-0.376221,-0.056915,-0.31012,-0.0035259999999999996,-0.000918,0.000481,-24.870001000000002,25.870001000000002,-20.18,2d
2019-07-12_142806:420,-0.358429,-0.042175,-0.306061,-0.004014,8.9e-05,2.3e-05,-24.870001000000002,25.870001000000002,-19.75,2d
2019-07-12_142806:440,-0.35180700000000004,-0.039642000000000004,-0.304535,-0.005845,0.00015,0.002495,-24.870001000000002,25.870001000000002,-19.75,2d
2019-07-12_142806:460,-0.361481,-0.050842,-0.307068,-0.008073,-0.0017420000000000003,0.005822,-24.870001000000002,25.059998999999998,-20.18,2d
2019-07-12_142806:480,-0.375214,-0.058960000000000005,-0.311646,-0.009965,-0.004519,0.006096,-24.870001000000002,25.059998999999998,-20.18,2d
2019-07-12_142806:500,-0.390442,-0.069122,-0.318268,-0.01027,-0.006776999999999999,0.005181,-24.870001000000002,25.059998999999998,-20.18,2d
2019-07-12_142806:520,-0.40063499999999996,-0.0737,-0.319794,-0.008805,-0.006991,0.00457,-24.870001000000002,25.5,-20.18,2d
2019-07-12_142806:540,-0.40774499999999997,-0.07421900000000001,-0.322327,-0.0074930000000000005,-0.0057090000000000005,0.004021,-24.870001000000002,25.5,-20.18,2d
2019-07-12_142806:560,-0.404175,-0.07016,-0.320801,-0.005906000000000001,-0.0036030000000000003,0.00396,-25.25,25.5,-20.18,2d
2019-07-12_142806:580,-0.378754,-0.063019,-0.312164,-0.0049299999999999995,-0.000521,0.0033799999999999998,-25.25,25.5,-20.18,2d
2019-07-12_142806:600,-0.365021,-0.057434000000000006,-0.309113,-0.004411,0.000822,0.001152,-25.25,25.5,-20.18,2d
2019-07-12_142806:620,-0.352325,-0.046265,-0.30654899999999996,-0.005784,0.0007,0.000359,-24.870001000000002,25.5,-19.75,2d
2019-07-12_142806:640,-0.347748,-0.046752999999999996,-0.304535,-0.008073,0.000364,0.0035020000000000003,-24.870001000000002,25.5,-19.75,2d
2019-07-12_142806:660,-0.367584,-0.05996699999999999,-0.30654899999999996,-0.010423,-0.001376,0.006279,-24.870001000000002,25.870001000000002,-21.0,2d
2019-07-12_142806:680,-0.375702,-0.07016,-0.309113,-0.011613,-0.0034509999999999996,0.005303,-24.870001000000002,25.870001000000002,-21.0,2d
2019-07-12_142806:700,-0.390961,-0.079803,-0.314697,-0.011155,-0.005251,0.003319,-24.870001000000002,25.870001000000002,-21.0,2d
2019-07-12_142806:720,-0.39502,-0.082855,-0.317749,-0.008805,-0.0059229999999999994,0.002892,-24.870001000000002,25.5,-19.0,2d
2019-07-12_142806:740,-0.40316799999999997,-0.080322,-0.323853,-0.006089,-0.005862,0.001854,-24.870001000000002,25.5,-19.0,2d
2019-07-12_142806:760,-0.399597,-0.0737,-0.323334,-0.0034649999999999998,-0.004183,0.000206,-24.5,25.5,-21.0,2d
2019-07-12_142806:780,-0.376221,-0.057434000000000006,-0.315704,-0.001359,-0.001955,-0.001381,-24.5,25.5,-21.0,2d
2019-07-12_142806:800,-0.361969,-0.047272,-0.314697,-0.001145,-0.00045999999999999996,-0.002357,-24.5,25.5,-21.0,2d
2019-07-12_142806:820,-0.348267,-0.038116000000000004,-0.308075,-0.003007,0.00015,-0.001106,-24.5,25.5,-21.0,2d
2019-07-12_142806:840,-0.34875500000000004,-0.040161,-0.307587,-0.0054789999999999995,-0.000582,0.0017629999999999998,-24.5,25.5,-21.0,2d
2019-07-12_142806:860,-0.36654699999999996,-0.05285599999999999,-0.312653,-0.008012,-0.0025960000000000002,0.003167,-24.18,25.5,-21.0,2d
2019-07-12_142806:880,-0.379272,-0.059479,-0.315704,-0.009294,-0.004855,0.002983,-24.18,25.5,-21.0,2d
2019-07-12_142806:900,-0.391479,-0.068634,-0.322845,-0.008744,-0.006197,0.002709,-24.18,25.5,-21.0,2d
2019-07-12_142806:920,-0.39859,-0.073212,-0.326385,-0.007095999999999999,-0.006197,0.002434,-25.25,25.5,-20.559998999999998,2d
2019-07-12_142806:940,-0.401642,-0.071167,-0.328949,-0.005052,-0.00519,0.002434,-25.25,25.5,-20.559998999999998,2d
2019-07-12_142806:960,-0.394531,-0.067108,-0.324371,-0.0029460000000000003,-0.002657,0.0019149999999999998,-24.870001000000002,25.870001000000002,-19.75,2d
2019-07-12_142806:980,-0.36911,-0.052338,-0.314178,-0.001603,0.00021099999999999998,0.000267,-24.870001000000002,25.870001000000002,-19.75,2d
2019-07-12_142807:000,-0.35739099999999996,-0.042694,-0.312653,-0.0024879999999999998,0.00134,-0.000923,-24.870001000000002,25.870001000000002,-19.75,2d
2019-07-12_142807:020,-0.34674099999999997,-0.037598,-0.307587,-0.005082,0.001401,0.001091,-24.870001000000002,25.059998999999998,-19.75,2d
2019-07-12_142807:040,-0.350281,-0.043701,-0.309601,-0.007890000000000001,-9.4e-05,0.004235,-24.870001000000002,25.059998999999998,-19.75,2d
2019-07-12_142807:060,-0.372162,-0.060486,-0.315216,-0.009934,-0.0024129999999999998,0.005425,-25.25,25.870001000000002,-19.75,2d
2019-07-12_142807:080,-0.382812,-0.069641,-0.317749,-0.01027,-0.004183,0.00515,-25.25,25.870001000000002,-19.75,2d
2019-07-12_142807:100,-0.396545,-0.077271,-0.323853,-0.008805,-0.004915999999999999,0.004631000000000001,-25.25,25.870001000000002,-19.75,2d
2019-07-12_142807:120,-0.401642,-0.078278,-0.326904,-0.006364,-0.003939,0.004052,-24.5,25.870001000000002,-19.5,2d
2019-07-12_142807:140,-0.39859,-0.075226,-0.322327,-0.004411,-0.002078,0.003624,-24.5,25.870001000000002,-19.5,2d
2019-07-12_142807:160,-0.384338,-0.069122,-0.320282,-0.0022129999999999997,0.00015,0.002495,-23.5,25.059998999999998,-20.559998999999998,2d
2019-07-12_142807:180,-0.360962,-0.05285599999999999,-0.309601,-0.001756,0.0017980000000000001,2.3e-05,-23.5,25.059998999999998,-20.559998999999998,2d
2019-07-12_142807:200,-0.35180700000000004,-0.043213,-0.309601,-0.003343,0.0014320000000000001,8.4e-05,-23.5,25.059998999999998,-20.559998999999998,2d
2019-07-12_142807:220,-0.352844,-0.047272,-0.306061,-0.00554,0.001005,0.0033799999999999998,-24.18,25.870001000000002,-21.0,2d
2019-07-12_142807:240,-0.36044299999999996,-0.054901,-0.30654899999999996,-0.007951,-0.00043,0.00515,-24.18,25.870001000000002,-21.0,2d
2019-07-12_142807:260,-0.374695,-0.066589,-0.311127,-0.009415999999999999,-0.0022,0.004235,-24.18,25.870001000000002,-19.75,2d
2019-07-12_142807:280,-0.382324,-0.073212,-0.314178,-0.009202,-0.003939,0.003105,-24.18,25.870001000000002,-19.75,2d
2019-07-12_142807:300,-0.390961,-0.07775900000000001,-0.320282,-0.007615,-0.004733,0.002526,-24.18,25.870001000000002,-19.75,2d
2019-07-12_142807:320,-0.396545,-0.077271,-0.322845,-0.005601,-0.004794,0.0021899999999999997,-24.870001000000002,24.75,-21.370001000000002,2d
2019-07-12_142807:340,-0.393494,-0.072693,-0.321808,-0.003861,-0.003542,0.0023120000000000003,-24.870001000000002,24.75,-21.370001000000002,2d
2019-07-12_142807:360,-0.38028,-0.065582,-0.318756,-0.002336,-0.0010400000000000001,0.0017629999999999998,-24.5,25.870001000000002,-21.0,2d
2019-07-12_142807:380,-0.361969,-0.051330999999999995,-0.314178,-0.0024879999999999998,0.000608,0.000359,-24.5,25.870001000000002,-21.0,2d
2019-07-12_142807:400,-0.35436999999999996,-0.045745999999999995,-0.312653,-0.004319,0.001401,0.000878,-24.5,25.870001000000002,-21.0,2d
2019-07-12_142807:420,-0.353851,-0.049805,-0.308075,-0.006883,0.001218,0.0030440000000000003,-24.870001000000002,25.5,-19.75,2d
2019-07-12_142807:440,-0.364532,-0.057434000000000006,-0.309113,-0.009415999999999999,-0.000643,0.004418,-24.870001000000002,25.5,-19.75,2d
2019-07-12_142807:460,-0.374695,-0.07016,-0.314178,-0.010758,-0.002078,0.004631000000000001,-24.059998999999998,25.870001000000002,-21.0,2d
2019-07-12_142807:480,-0.385376,-0.075745,-0.314697,-0.010484,-0.003848,0.004113,-24.059998999999998,25.870001000000002,-21.0,2d
2019-07-12_142807:500,-0.386902,-0.082336,-0.319275,-0.009233,-0.004122,0.003167,-24.059998999999998,25.870001000000002,-21.0,2d
2019-07-12_142807:520,-0.388916,-0.081848,-0.323334,-0.006973999999999999,-0.004458,0.0021899999999999997,-24.870001000000002,25.5,-20.18,2d
2019-07-12_142807:540,-0.385864,-0.075745,-0.32132,-0.004746,-0.003878,0.001335,-24.870001000000002,25.5,-20.18,2d
2019-07-12_142807:560,-0.374695,-0.067596,-0.318756,-0.00316,-0.002078,-9.9e-05,-24.870001000000002,25.5,-19.75,2d
2019-07-12_142807:580,-0.36044299999999996,-0.055908000000000006,-0.316223,-0.00316,-0.00045999999999999996,-0.000587,-24.870001000000002,25.5,-19.75,2d
2019-07-12_142807:600,-0.353851,-0.051849,-0.312164,-0.004472,0.0007,0.000359,-24.870001000000002,25.5,-19.75,2d
2019-07-12_142807:620,-0.35739099999999996,-0.056427,-0.31369,-0.006425,8.9e-05,0.001152,-24.5,25.059998999999998,-20.18,2d
2019-07-12_142807:640,-0.366058,-0.06405599999999999,-0.314178,-0.008164,-0.001498,0.000634,-24.5,25.059998999999998,-20.18,2d
2019-07-12_142807:660,-0.38028,-0.071686,-0.319275,-0.008622,-0.0034509999999999996,0.000145,-24.18,25.5,-20.18,2d
2019-07-12_142807:680,-0.384338,-0.076263,-0.321808,-0.007615,-0.004519,-0.000312,-24.18,25.5,-20.18,2d
2019-07-12_142807:700,-0.394012,-0.076752,-0.325378,-0.005815,-0.004855,-0.001045,-24.18,25.5,-20.18,2d
2019-07-12_142807:720,-0.396057,-0.072693,-0.325897,-0.003739,-0.004061,-0.00132,-24.870001000000002,24.75,-20.18,2d
2019-07-12_142807:740,-0.390442,-0.063019,-0.319794,-0.002091,-0.002016,-0.00132,-24.870001000000002,24.75,-20.18,2d
2019-07-12_142807:760,-0.371643,-0.053863999999999995,-0.314697,-0.001267,0.000364,-0.00251,-24.5,25.5,-21.0,2d
2019-07-12_142807:780,-0.358917,-0.043213,-0.308594,-0.001939,0.0016760000000000002,-0.003242,-24.5,25.5,-21.0,2d
2019-07-12_142807:800,-0.353333,-0.039124,-0.308594,-0.0036780000000000003,0.001737,-0.0022960000000000003,-24.5,25.5,-21.0,2d
2019-07-12_142807:820,-0.353851,-0.042694,-0.306061,-0.005967,0.0007610000000000001,-0.000526,-24.870001000000002,25.5,-20.559998999999998,2d
2019-07-12_142807:840,-0.37011700000000003,-0.053863999999999995,-0.312653,-0.008103,-0.0016809999999999998,0.001335,-24.870001000000002,25.5,-20.559998999999998,2d
2019-07-12_142807:860,-0.377228,-0.05996699999999999,-0.316223,-0.008683,-0.0042439999999999995,0.002373,-25.25,25.870001000000002,-21.0,2d
2019-07-12_142807:880,-0.38739,-0.068115,-0.319275,-0.008409,-0.005801,0.002709,-25.25,25.870001000000002,-21.0,2d
2019-07-12_142807:900,-0.39502,-0.069641,-0.323853,-0.007095999999999999,-0.006776999999999999,0.002648,-25.25,25.870001000000002,-21.0,2d
2019-07-12_142807:920,-0.39502,-0.068115,-0.323334,-0.005326,-0.0057399999999999994,0.002983,-24.5,25.5,-20.559998999999998,2d
2019-07-12_142807:940,-0.386902,-0.063019,-0.32132,-0.003617,-0.003481,0.002373,-24.5,25.5,-20.559998999999998,2d
2019-07-12_142807:960,-0.365021,-0.052338,-0.318756,-0.0028239999999999997,-0.001498,0.000359,-24.5,25.5,-19.75,2d
2019-07-12_142807:980,-0.35436999999999996,-0.043701,-0.313171,-0.00316,-3.3e-05,-0.000587,-24.5,25.5,-19.75,2d
2019-07-12_142808:000,-0.347748,-0.040649,-0.31012,-0.005052,0.00015,0.000695,-24.5,25.5,-19.75,2d
2019-07-12_142808:020,-0.355377,-0.044739,-0.312653,-0.0074930000000000005,-0.001101,0.001854,-25.25,24.75,-20.559998999999998,2d
2019-07-12_142808:040,-0.371643,-0.053375,-0.317749,-0.009538,-0.003207,0.00161,-25.25,24.75,-20.559998999999998,2d
2019-07-12_142808:060,-0.380798,-0.05996699999999999,-0.320801,-0.010423,-0.005007,0.0016710000000000002,-23.5,25.059998999999998,-19.75,2d
2019-07-12_142808:080,-0.393005,-0.066589,-0.327911,-0.009477,-0.006197,0.002373,-23.5,25.059998999999998,-19.75,2d
2019-07-12_142808:100,-0.395538,-0.069122,-0.329437,-0.007890000000000001,-0.006106,0.002495,-23.5,25.059998999999998,-19.75,2d
2019-07-12_142808:120,-0.394531,-0.065063,-0.327423,-0.006089,-0.00461,0.002648,-23.75,25.5,-21.0,2d
2019-07-12_142808:140,-0.381317,-0.061005,-0.325378,-0.004258,-0.002657,0.002648,-23.75,25.5,-21.0,2d
2019-07-12_142808:160,-0.364014,-0.052338,-0.318268,-0.0034649999999999998,-0.000704,0.0016710000000000002,-24.5,24.75,-20.559998999999998,2d
2019-07-12_142808:180,-0.353333,-0.045745999999999995,-0.315704,-0.003861,0.00021099999999999998,0.001,-24.5,24.75,-20.559998999999998,2d
2019-07-12_142808:200,-0.348267,-0.044739,-0.311127,-0.005386999999999999,0.000547,0.0019760000000000003,-24.5,24.75,-20.559998999999998,2d
2019-07-12_142808:220,-0.35180700000000004,-0.049805,-0.312653,-0.007095999999999999,-0.000704,0.003258,-24.5,25.5,-21.370001000000002,2d
2019-07-12_142808:240,-0.37011700000000003,-0.058441,-0.31723,-0.008683,-0.002322,0.003655,-24.5,25.5,-21.370001000000002,2d
2019-07-12_142808:260,-0.37316900000000003,-0.063538,-0.32132,-0.008836,-0.004183,0.003899,-24.5,25.870001000000002,-20.559998999999998,2d
2019-07-12_142808:280,-0.384338,-0.07016,-0.323853,-0.008225,-0.004915999999999999,0.004113,-24.5,25.870001000000002,-20.559998999999998,2d
2019-07-12_142808:300,-0.38385,-0.071686,-0.327911,-0.006883,-0.005007,0.0037770000000000004,-24.5,25.870001000000002,-20.559998999999998,2d
2019-07-12_142808:320,-0.388916,-0.07016,-0.32995599999999997,-0.005448,-0.005007,0.0033799999999999998,-24.870001000000002,25.5,-20.18,2d
2019-07-12_142808:340,-0.38739,-0.065063,-0.32995599999999997,-0.004136,-0.004336,0.002526,-24.870001000000002,25.5,-20.18,2d
2019-07-12_142808:360,-0.374176,-0.058441,-0.327423,-0.004014,-0.002322,0.0023120000000000003,-24.18,25.870001000000002,-19.75,2d
2019-07-12_142808:380,-0.368073,-0.055389,-0.325897,-0.004075,-0.001498,0.002526,-24.18,25.870001000000002,-19.75,2d
2019-07-12_142808:400,-0.35943600000000003,-0.055389,-0.32132,-0.0054789999999999995,-3.3e-05,0.002434,-24.18,25.870001000000002,-19.75,2d
2019-07-12_142808:420,-0.35638400000000003,-0.05438200000000001,-0.318268,-0.006822,0.0010960000000000002,0.002098,-24.5,25.059998999999998,-20.18,2d
2019-07-12_142808:440,-0.35943600000000003,-0.058960000000000005,-0.316742,-0.008225,0.000547,0.001335,-24.5,25.059998999999998,-20.18,2d
2019-07-12_142808:460,-0.36349499999999996,-0.062012,-0.316742,-0.008286,-0.000857,0.001396,-24.5,25.5,-21.0,2d
2019-07-12_142808:480,-0.368591,-0.066589,-0.319794,-0.0074930000000000005,-0.002322,0.00161,-24.5,25.5,-21.0,2d
2019-07-12_142808:500,-0.373688,-0.067596,-0.321808,-0.006364,-0.0036030000000000003,0.001549,-24.5,25.5,-21.0,2d
2019-07-12_142808:520,-0.375702,-0.067596,-0.325378,-0.004991,-0.004275,0.0016710000000000002,-23.75,25.870001000000002,-20.18,2d
2019-07-12_142808:540,-0.382812,-0.066589,-0.326385,-0.0038,-0.004183,0.0014880000000000002,-23.75,25.870001000000002,-20.18,2d
2019-07-12_142808:560,-0.371643,-0.062012,-0.32486,-0.003282,-0.002932,0.0014269999999999999,-23.75,25.059998999999998,-21.370001000000002,2d
2019-07-12_142808:580,-0.37112399999999995,-0.058960000000000005,-0.324371,-0.003129,-0.0022,0.000878,-23.75,25.059998999999998,-21.370001000000002,2d
2019-07-12_142808:600,-0.36706500000000003,-0.053863999999999995,-0.321808,-0.003861,-0.00162,0.000145,-23.75,25.059998999999998,-21.370001000000002,2d
2019-07-12_142808:620,-0.366058,-0.05285599999999999,-0.323853,-0.005052,-0.001437,0.000542,-23.75,24.75,-21.0,2d
2019-07-12_142808:640,-0.367584,-0.053375,-0.322845,-0.00615,-0.0011619999999999998,0.001213,-23.75,24.75,-21.0,2d
2019-07-12_142808:660,-0.367584,-0.055389,-0.32132,-0.007279000000000001,-0.001315,0.001335,-23.75,25.5,-19.75,2d
2019-07-12_142808:680,-0.369598,-0.05996699999999999,-0.322327,-0.007829000000000001,-0.00162,0.0014880000000000002,-23.75,25.5,-19.75,2d
2019-07-12_142808:700,-0.37316900000000003,-0.064545,-0.323853,-0.007554000000000001,-0.002016,0.0017929999999999999,-23.75,25.5,-19.75,2d
2019-07-12_142808:720,-0.373688,-0.068115,-0.325897,-0.006761,-0.002657,0.001274,-23.75,25.059998999999998,-20.559998999999998,2d
2019-07-12_142808:740,-0.375702,-0.068634,-0.32486,-0.005326,-0.002657,0.000603,-23.75,25.059998999999998,-20.559998999999998,2d
2019-07-12_142808:760,-0.373688,-0.065582,-0.325897,-0.0036780000000000003,-0.002718,0.000298,-23.75,25.059998999999998,-20.18,2d
2019-07-12_142808:780,-0.37112399999999995,-0.063538,-0.325897,-0.002427,-0.002322,0.000603,-23.75,25.059998999999998,-20.18,2d
2019-07-12_142808:800,-0.37112399999999995,-0.058441,-0.323853,-0.002152,-0.001559,0.000817,-23.75,25.059998999999998,-20.18,2d
2019-07-12_142808:820,-0.370636,-0.055908000000000006,-0.321808,-0.0024879999999999998,-0.0007650000000000001,0.000542,-23.5,27.0,-20.559998999999998,2d
2019-07-12_142808:840,-0.37011700000000003,-0.051330999999999995,-0.319275,-0.003282,-0.00043,-0.000251,-23.5,27.0,-20.559998999999998,2d
2019-07-12_142808:860,-0.370636,-0.050323,-0.318756,-0.004594,-0.000307,-0.000831,-25.25,25.870001000000002,-20.559998999999998,2d
2019-07-12_142808:880,-0.369598,-0.048798,-0.316223,-0.005845,-9.4e-05,-0.0007700000000000001,-25.25,25.870001000000002,-20.559998999999998,2d
2019-07-12_142808:900,-0.365021,-0.051849,-0.315216,-0.0065769999999999995,2.8000000000000003e-05,-0.000251,-25.25,25.870001000000002,-20.559998999999998,2d
2019-07-12_142808:920,-0.361969,-0.05438200000000001,-0.314697,-0.007035,-0.00036899999999999997,-0.00037400000000000004,-24.5,25.5,-21.0,2d
2019-07-12_142808:940,-0.360962,-0.054901,-0.315216,-0.006547,-0.001376,2.3e-05,-24.5,25.5,-21.0,2d
2019-07-12_142808:960,-0.361969,-0.055908000000000006,-0.319275,-0.0056619999999999995,-0.002535,0.000878,-23.5,25.059998999999998,-20.559998999999998,2d
2019-07-12_142808:980,-0.363007,-0.05438200000000001,-0.320801,-0.004807,-0.003481,0.00161,-23.5,25.059998999999998,-20.559998999999998,2d
2019-07-12_142809:000,-0.370636,-0.053863999999999995,-0.326904,-0.00435,-0.004183,0.0021899999999999997,-23.5,25.059998999999998,-20.559998999999998,2d
2019-07-12_142809:020,-0.373688,-0.052338,-0.327911,-0.004258,-0.004122,0.002709,-24.870001000000002,25.059998999999998,-21.0,2d
2019-07-12_142809:040,-0.382324,-0.052338,-0.328949,-0.004533,-0.0036030000000000003,0.0034409999999999996,-24.870001000000002,25.059998999999998,-21.0,2d
2019-07-12_142809:060,-0.382812,-0.054901,-0.330475,-0.005326,-0.001925,0.003655,-24.5,24.75,-21.0,2d
2019-07-12_142809:080,-0.37674,-0.056915,-0.324371,-0.00615,-0.0010400000000000001,0.003167,-24.5,24.75,-21.0,2d
2019-07-12_142809:100,-0.36654699999999996,-0.058441,-0.326385,-0.0065769999999999995,-0.000582,0.002037,-24.5,24.75,-21.0,2d
2019-07-12_142809:120,-0.36248800000000003,-0.058441,-0.327911,-0.006639,-0.0017420000000000003,0.00161,-23.5,25.059998999999998,-20.559998999999998,2d
2019-07-12_142809:140,-0.37112399999999995,-0.062012,-0.330963,-0.006425,-0.002932,0.0019760000000000003,-23.5,25.059998999999998,-20.559998999999998,2d
2019-07-12_142809:160,-0.381805,-0.065582,-0.334015,-0.006425,-0.0022,0.0038380000000000003,-24.870001000000002,25.5,-21.0,2d
2019-07-12_142809:180,-0.380798,-0.068115,-0.329437,-0.004991,8.9e-05,0.004692,-24.870001000000002,25.5,-21.0,2d
2019-07-12_142809:200,-0.37674,-0.069641,-0.325897,-0.0036780000000000003,0.0017980000000000001,0.002709,-24.870001000000002,25.5,-21.0,2d
2019-07-12_142809:220,-0.36654699999999996,-0.063019,-0.318756,-0.003007,0.002744,0.001091,-24.5,25.5,-19.75,2d
2019-07-12_142809:240,-0.358429,-0.055389,-0.312653,-0.002885,0.002561,0.0016710000000000002,-24.5,25.5,-19.75,2d
2019-07-12_142809:260,-0.356903,-0.053863999999999995,-0.311646,-0.0038,0.0010960000000000002,0.002892,-24.5,25.5,-21.370001000000002,2d
2019-07-12_142809:280,-0.35943600000000003,-0.05285599999999999,-0.309601,-0.005143,-0.000521,0.003624,-24.5,25.5,-21.370001000000002,2d
2019-07-12_142809:300,-0.36554000000000003,-0.055908000000000006,-0.312653,-0.006761,-0.002016,0.004418,-24.5,25.5,-21.370001000000002,2d
2019-07-12_142809:320,-0.372162,-0.063538,-0.317749,-0.007554000000000001,-0.003146,0.005028,-24.870001000000002,26.559998999999998,-20.559998999999998,2d
2019-07-12_142809:340,-0.382324,-0.068634,-0.320801,-0.007768000000000001,-0.0034509999999999996,0.004357,-24.870001000000002,26.559998999999998,-20.559998999999998,2d
2019-07-12_142809:360,-0.378265,-0.07016,-0.32132,-0.007431999999999999,-0.002322,0.0037770000000000004,-24.5,25.870001000000002,-21.0,2d
2019-07-12_142809:380,-0.38028,-0.072174,-0.322327,-0.006547,-0.0017420000000000003,0.003228,-24.5,25.870001000000002,-21.0,2d
2019-07-12_142809:400,-0.378265,-0.07016,-0.325378,-0.0056619999999999995,-0.000704,0.002098,-24.5,25.870001000000002,-21.0,2d
2019-07-12_142809:420,-0.375702,-0.067108,-0.324371,-0.005386999999999999,-0.00036899999999999997,0.001396,-22.68,25.5,-21.370001000000002,2d
2019-07-12_142809:440,-0.372162,-0.068634,-0.32486,-0.004594,-9.4e-05,0.00161,-22.68,25.5,-21.370001000000002,2d
2019-07-12_142809:460,-0.37112399999999995,-0.066071,-0.322327,-0.004258,-0.00036899999999999997,0.000603,-24.18,26.25,-20.559998999999998,2d
2019-07-12_142809:480,-0.37265,-0.062012,-0.318268,-0.004014,-3.3e-05,-0.00037400000000000004,-24.18,26.25,-20.559998999999998,2d
2019-07-12_142809:500,-0.36911,-0.059479,-0.317749,-0.004136,0.00021099999999999998,-0.000129,-24.18,26.25,-20.559998999999998,2d
2019-07-12_142809:520,-0.36654699999999996,-0.059479,-0.31723,-0.00435,-0.00036899999999999997,0.000145,-24.5,25.5,-20.559998999999998,2d
2019-07-12_142809:540,-0.368073,-0.057434000000000006,-0.315704,-0.004685,-0.000643,0.000206,-24.5,25.5,-20.559998999999998,2d
2019-07-12_142809:560,-0.369598,-0.057953,-0.317749,-0.005143,-0.001559,0.000267,-23.5,25.870001000000002,-21.0,2d
2019-07-12_142809:580,-0.368073,-0.056915,-0.315704,-0.005386999999999999,-0.001955,0.000481,-23.5,25.870001000000002,-21.0,2d
2019-07-12_142809:600,-0.369598,-0.058441,-0.318268,-0.005448,-0.0024739999999999996,0.0009390000000000001,-23.5,25.870001000000002,-21.0,2d
2019-07-12_142809:620,-0.37112399999999995,-0.058441,-0.317749,-0.005601,-0.002718,0.001549,-23.75,25.5,-20.18,2d
2019-07-12_142809:640,-0.37011700000000003,-0.058441,-0.319275,-0.005784,-0.0025960000000000002,0.001854,-23.75,25.5,-20.18,2d
2019-07-12_142809:660,-0.37011700000000003,-0.058441,-0.319275,-0.005967,-0.002932,0.0019760000000000003,-24.5,25.870001000000002,-19.75,2d
2019-07-12_142809:680,-0.371643,-0.059479,-0.322327,-0.0063030000000000004,-0.002718,0.002098,-24.5,25.870001000000002,-19.75,2d
2019-07-12_142809:700,-0.37265,-0.060486,-0.324371,-0.006425,-0.002657,0.002251,-24.5,25.870001000000002,-19.75,2d
2019-07-12_142809:720,-0.37316900000000003,-0.06253099999999999,-0.323853,-0.006639,-0.002322,0.0023120000000000003,-23.75,25.870001000000002,-21.0,2d
2019-07-12_142809:740,-0.37265,-0.065582,-0.323853,-0.006639,-0.002016,0.002251,-23.75,25.870001000000002,-21.0,2d
2019-07-12_142809:760,-0.373688,-0.065582,-0.324371,-0.005906000000000001,-0.0017420000000000003,0.001854,-24.5,25.5,-21.75,2d
2019-07-12_142809:780,-0.372162,-0.065063,-0.322845,-0.005082,-0.0016809999999999998,0.0014880000000000002,-24.5,25.5,-21.75,2d
2019-07-12_142809:800,-0.37265,-0.06405599999999999,-0.323853,-0.004472,-0.001498,0.0016710000000000002,-24.5,25.5,-21.75,2d
2019-07-12_142809:820,-0.37265,-0.061005,-0.321808,-0.004136,-0.0010400000000000001,0.001732,-23.75,25.5,-22.18,2d
2019-07-12_142809:840,-0.374176,-0.058441,-0.320801,-0.004197,-0.001101,0.0023120000000000003,-23.75,25.5,-22.18,2d
2019-07-12_142809:860,-0.37316900000000003,-0.061005,-0.319275,-0.004533,-0.000124,0.002983,-24.5,25.5,-19.0,2d
2019-07-12_142809:880,-0.37316900000000003,-0.059479,-0.318268,-0.005386999999999999,-3.3e-05,0.002434,-24.5,25.5,-19.0,2d
2019-07-12_142809:900,-0.36248800000000003,-0.062012,-0.316742,-0.006028,-0.000185,0.0017629999999999998,-24.5,25.5,-19.0,2d
2019-07-12_142809:920,-0.364532,-0.06253099999999999,-0.316223,-0.006028,-0.001559,0.0014880000000000002,-24.18,25.870001000000002,-22.18,2d
2019-07-12_142809:940,-0.371643,-0.063538,-0.32132,-0.0063030000000000004,-0.002657,0.001396,-24.18,25.870001000000002,-22.18,2d
2019-07-12_142809:960,-0.37112399999999995,-0.063538,-0.322845,-0.005906000000000001,-0.003207,0.0017929999999999999,-24.5,26.559998999999998,-21.370001000000002,2d
2019-07-12_142809:980,-0.378265,-0.065582,-0.323334,-0.005082,-0.00281,0.002373,-24.5,26.559998999999998,-21.370001000000002,2d
2019-07-12_142810:000,-0.37674,-0.065063,-0.324371,-0.004411,-0.001864,0.002037,-24.5,26.559998999999998,-21.370001000000002,2d
2019-07-12_142810:020,-0.373688,-0.063538,-0.321808,-0.004197,-0.0012230000000000001,0.0014880000000000002,-24.870001000000002,25.5,-19.75,2d
2019-07-12_142810:040,-0.370636,-0.061005,-0.320801,-0.00435,-0.000826,0.0016710000000000002,-24.870001000000002,25.5,-19.75,2d
2019-07-12_142810:060,-0.366058,-0.05996699999999999,-0.321808,-0.004533,-0.0009789999999999998,0.002251,-24.18,26.25,-21.0,2d
2019-07-12_142810:080,-0.36654699999999996,-0.059479,-0.319275,-0.005204,-0.0015890000000000001,0.0019149999999999998,-24.18,26.25,-21.0,2d
2019-07-12_142810:100,-0.37011700000000003,-0.058960000000000005,-0.319275,-0.005906000000000001,-0.0017420000000000003,0.0014880000000000002,-24.18,26.25,-21.0,2d
2019-07-12_142810:120,-0.37011700000000003,-0.059479,-0.319794,-0.0063030000000000004,-0.0024129999999999998,0.001732,-24.870001000000002,25.870001000000002,-19.0,2d
2019-07-12_142810:140,-0.376221,-0.062012,-0.321808,-0.006639,-0.002016,0.002037,-24.870001000000002,25.870001000000002,-19.0,2d
2019-07-12_142810:160,-0.37112399999999995,-0.063538,-0.321808,-0.006639,-0.001437,0.002495,-24.5,25.5,-21.0,2d
2019-07-12_142810:180,-0.372162,-0.066071,-0.320282,-0.005845,-0.0015890000000000001,0.002373,-24.5,25.5,-21.0,2d
2019-07-12_142810:200,-0.37265,-0.06405599999999999,-0.323334,-0.005784,-0.0015890000000000001,0.0017929999999999999,-24.5,25.5,-21.0,2d
2019-07-12_142810:220,-0.371643,-0.063538,-0.322327,-0.00554,-0.001559,0.002587,-24.870001000000002,25.5,-19.5,2d
2019-07-12_142810:240,-0.374176,-0.064545,-0.322845,-0.005204,-0.0015890000000000001,0.003655,-24.870001000000002,25.5,-19.5,2d
2019-07-12_142810:260,-0.375702,-0.065063,-0.320282,-0.0054789999999999995,-0.000857,0.0033799999999999998,-24.5,25.18,-20.18,2d
2019-07-12_142810:280,-0.37265,-0.063019,-0.319794,-0.0056619999999999995,-0.000643,0.00277,-24.5,25.18,-20.18,2d
2019-07-12_142810:300,-0.372162,-0.06405599999999999,-0.320282,-0.005815,-0.000582,0.002526,-24.5,25.18,-20.18,2d
2019-07-12_142810:320,-0.37265,-0.064545,-0.318268,-0.005845,-0.000521,0.002526,-24.18,25.5,-21.370001000000002,2d
2019-07-12_142810:340,-0.371643,-0.066071,-0.317749,-0.00615,-0.000582,0.002526,-24.18,25.5,-21.370001000000002,2d
2019-07-12_142810:360,-0.37011700000000003,-0.064545,-0.316223,-0.005845,-0.0010400000000000001,0.002526,-24.18,25.5,-20.18,2d
2019-07-12_142810:380,-0.37265,-0.066071,-0.316223,-0.005784,-0.0009789999999999998,0.002495,-24.18,25.5,-20.18,2d
2019-07-12_142810:400,-0.371643,-0.065063,-0.315704,-0.005967,-0.0012230000000000001,0.002709,-24.18,25.5,-20.18,2d
2019-07-12_142810:420,-0.368591,-0.065582,-0.316223,-0.005784,-0.0017420000000000003,0.003105,-23.75,26.559998999999998,-20.559998999999998,2d
2019-07-12_142810:440,-0.368591,-0.065582,-0.316742,-0.005601,-0.001925,0.002983,-23.75,26.559998999999998,-20.559998999999998,2d
2019-07-12_142810:460,-0.369598,-0.065582,-0.316742,-0.005845,-0.002352,0.002648,-24.870001000000002,25.5,-20.559998999999998,2d
2019-07-12_142810:480,-0.36911,-0.065582,-0.319275,-0.005906000000000001,-0.002139,0.0028309999999999997,-24.870001000000002,25.5,-20.559998999999998,2d
2019-07-12_142810:500,-0.36911,-0.065582,-0.320282,-0.005967,-0.002261,0.002892,-24.870001000000002,25.5,-20.559998999999998,2d
2019-07-12_142810:520,-0.37011700000000003,-0.067108,-0.320282,-0.005906000000000001,-0.002139,0.00277,-24.5,25.870001000000002,-19.75,2d
2019-07-12_142810:540,-0.36911,-0.068634,-0.32132,-0.005723,-0.002261,0.00277,-24.5,25.870001000000002,-19.75,2d
2019-07-12_142810:560,-0.373688,-0.068634,-0.323853,-0.005265,-0.0024129999999999998,0.002434,-23.75,26.25,-21.370001000000002,2d
2019-07-12_142810:580,-0.375214,-0.068634,-0.324371,-0.004685,-0.002535,0.0019760000000000003,-23.75,26.25,-21.370001000000002,2d
2019-07-12_142810:600,-0.37674,-0.067596,-0.324371,-0.004319,-0.002261,0.0017929999999999999,-23.75,26.25,-21.370001000000002,2d
2019-07-12_142810:620,-0.377747,-0.064545,-0.326385,-0.004075,-0.002078,0.00161,-24.870001000000002,25.870001000000002,-20.18,2d
2019-07-12_142810:640,-0.373688,-0.065063,-0.320801,-0.0036780000000000003,-0.0009789999999999998,0.001213,-24.870001000000002,25.870001000000002,-20.18,2d
2019-07-12_142810:660,-0.375702,-0.062012,-0.320801,-0.003739,-0.00045999999999999996,0.0014269999999999999,-23.5,25.870001000000002,-21.0,2d
2019-07-12_142810:680,-0.370636,-0.06253099999999999,-0.320801,-0.004014,-0.000246,0.0017929999999999999,-23.5,25.870001000000002,-21.0,2d
2019-07-12_142810:700,-0.376221,-0.058441,-0.319794,-0.004869,-0.00045999999999999996,0.002037,-23.5,25.870001000000002,-21.0,2d
2019-07-12_142810:720,-0.378754,-0.058960000000000005,-0.320282,-0.005448,-9.4e-05,0.002587,-24.18,25.870001000000002,-20.559998999999998,2d
2019-07-12_142810:740,-0.375702,-0.06149299999999999,-0.314178,-0.006761,0.0007,0.00396,-24.18,25.870001000000002,-20.559998999999998,2d
2019-07-12_142810:760,-0.37011700000000003,-0.065063,-0.314697,-0.007279000000000001,0.001218,0.0037770000000000004,-25.25,26.25,-19.75,2d
2019-07-12_142810:780,-0.364014,-0.066589,-0.312653,-0.008164,0.001218,0.002434,-25.25,26.25,-19.75,2d
2019-07-12_142810:800,-0.361969,-0.07016,-0.31012,-0.008012,0.000303,0.0028309999999999997,-25.25,26.25,-19.75,2d
2019-07-12_142810:820,-0.36349499999999996,-0.07421900000000001,-0.311127,-0.0076760000000000005,-0.00043,0.003105,-23.75,25.5,-20.559998999999998,2d
2019-07-12_142810:840,-0.364014,-0.075226,-0.312164,-0.006242,-0.001925,0.002983,-23.75,25.5,-20.559998999999998,2d
2019-07-12_142810:860,-0.36911,-0.073212,-0.316223,-0.005784,-0.0025960000000000002,0.0028309999999999997,-24.5,25.5,-19.0,2d
2019-07-12_142810:880,-0.369598,-0.072693,-0.319275,-0.004594,-0.004397,0.0021899999999999997,-24.5,25.5,-19.0,2d
2019-07-12_142810:900,-0.38028,-0.068634,-0.320282,-0.004411,-0.005251,0.0017929999999999999,-24.5,25.5,-19.0,2d
2019-07-12_142810:920,-0.379791,-0.066071,-0.326904,-0.00435,-0.005068,0.001854,-24.870001000000002,26.25,-19.5,2d
2019-07-12_142810:940,-0.386383,-0.064545,-0.327911,-0.004991,-0.003848,0.001335,-24.870001000000002,26.25,-19.5,2d
2019-07-12_142810:960,-0.385864,-0.062012,-0.32995599999999997,-0.00554,-0.001498,0.001152,-23.75,25.5,-19.75,2d
2019-07-12_142810:980,-0.381805,-0.059479,-0.323853,-0.00615,0.001066,0.002373,-23.75,25.5,-19.75,2d
2019-07-12_142811:000,-0.376221,-0.060486,-0.320282,-0.006944,0.002286,0.004448,-23.75,25.5,-19.75,2d
2019-07-12_142811:020,-0.36706500000000003,-0.06405599999999999,-0.314178,-0.007279000000000001,0.00247,0.005028,-23.75,25.5,-20.18,2d
2019-07-12_142811:040,-0.36349499999999996,-0.068115,-0.310638,-0.008622,0.0016760000000000002,0.004753,-23.75,25.5,-20.18,2d
2019-07-12_142811:060,-0.36248800000000003,-0.072174,-0.308075,-0.008805,0.001279,0.00457,-23.75,25.5,-20.18,2d
2019-07-12_142811:080,-0.35943600000000003,-0.076752,-0.307587,-0.008897,-0.000124,0.003899,-23.75,25.870001000000002,-20.18,2d
2019-07-12_142811:100,-0.359955,-0.082336,-0.307068,-0.008561,-0.000704,0.003624,-23.75,25.870001000000002,-20.18,2d
2019-07-12_142811:120,-0.361969,-0.082336,-0.309601,-0.007554000000000001,-0.0024129999999999998,0.002434,-24.5,25.5,-19.75,2d
2019-07-12_142811:140,-0.36911,-0.080322,-0.312653,-0.005845,-0.003939,0.001335,-24.5,25.5,-19.75,2d
2019-07-12_142811:160,-0.373688,-0.077271,-0.318756,-0.00435,-0.005465,0.000817,-23.75,26.25,-19.0,2d
2019-07-12_142811:180,-0.378265,-0.072174,-0.323853,-0.0034649999999999998,-0.006045,0.0007559999999999999,-23.75,26.25,-19.0,2d
2019-07-12_142811:200,-0.381317,-0.068115,-0.325378,-0.003221,-0.005465,0.000359,-23.75,26.25,-19.0,2d
2019-07-12_142811:220,-0.38385,-0.064545,-0.328949,-0.0034649999999999998,-0.004397,0.000298,-24.18,25.870001000000002,-19.75,2d
2019-07-12_142811:240,-0.382812,-0.062012,-0.325897,-0.004807,-0.000521,0.001152,-24.18,25.870001000000002,-19.75,2d
2019-07-12_142811:260,-0.374176,-0.06149299999999999,-0.324371,-0.00554,0.000547,0.0017929999999999999,-24.18,25.870001000000002,-19.75,2d
2019-07-12_142811:280,-0.372162,-0.063538,-0.320282,-0.007554000000000001,0.00134,0.0034409999999999996,-24.18,25.5,-20.18,2d
2019-07-12_142811:300,-0.37011700000000003,-0.068634,-0.31723,-0.008103,0.001066,0.0034409999999999996,-24.18,25.5,-20.18,2d
2019-07-12_142811:320,-0.368591,-0.07421900000000001,-0.314697,-0.008805,0.000822,0.003167,-24.18,26.559998999999998,-20.18,2d
2019-07-12_142811:340,-0.37112399999999995,-0.078278,-0.314697,-0.008744,-9.4e-05,0.00277,-24.18,26.559998999999998,-20.18,2d
2019-07-12_142811:360,-0.367584,-0.082336,-0.311646,-0.0077069999999999994,-0.00036899999999999997,0.002037,-24.5,25.870001000000002,-20.18,2d
2019-07-12_142811:380,-0.363007,-0.081329,-0.313171,-0.005448,-0.0016809999999999998,-3.8e-05,-24.5,25.870001000000002,-20.18,2d
2019-07-12_142811:400,-0.36248800000000003,-0.078278,-0.311646,-0.0036780000000000003,-0.003268,-0.000984,-24.5,25.870001000000002,-20.18,2d
2019-07-12_142811:420,-0.368073,-0.069122,-0.316742,-0.003068,-0.0037869999999999996,-0.00132,-24.18,25.870001000000002,-19.75,2d
2019-07-12_142811:440,-0.370636,-0.062012,-0.317749,-0.0024879999999999998,-0.004733,-0.000831,-24.18,25.870001000000002,-19.75,2d
2019-07-12_142811:460,-0.37674,-0.058441,-0.32132,-0.002885,-0.00461,-9.9e-05,-24.18,25.870001000000002,-19.75,2d
2019-07-12_142811:480,-0.380798,-0.056427,-0.321808,-0.004594,-0.003481,0.0014880000000000002,-24.5,25.870001000000002,-19.5,2d
2019-07-12_142811:500,-0.377228,-0.058441,-0.320801,-0.005326,-0.003085,0.0014269999999999999,-24.5,25.870001000000002,-19.5,2d
2019-07-12_142811:520,-0.375214,-0.058441,-0.322327,-0.007279000000000001,-0.0027489999999999997,0.001091,-23.75,25.870001000000002,-19.75,2d
2019-07-12_142811:540,-0.37011700000000003,-0.063538,-0.318756,-0.008286,-0.002016,0.0019760000000000003,-23.75,25.870001000000002,-19.75,2d
2019-07-12_142811:560,-0.36706500000000003,-0.070648,-0.319275,-0.00847,-0.0017420000000000003,0.002648,-23.75,25.870001000000002,-19.75,2d
2019-07-12_142811:580,-0.364532,-0.071686,-0.318268,-0.0077069999999999994,-0.001315,0.002373,-23.5,25.5,-19.5,2d
2019-07-12_142811:600,-0.365021,-0.069641,-0.319794,-0.0063030000000000004,-0.002078,0.002129,-23.5,25.5,-19.5,2d
2019-07-12_142811:620,-0.37112399999999995,-0.068634,-0.318756,-0.00554,-0.002932,0.002892,-24.18,25.870001000000002,-19.75,2d
2019-07-12_142811:640,-0.372162,-0.067596,-0.319794,-0.00554,-0.002932,0.0028309999999999997,-24.18,25.870001000000002,-19.75,2d
2019-07-12_142811:660,-0.375702,-0.067596,-0.320282,-0.005906000000000001,-0.003146,0.00161,-24.18,25.870001000000002,-19.75,2d
2019-07-12_142811:680,-0.375214,-0.065582,-0.323853,-0.00615,-0.003329,0.000359,-23.059998999999998,25.870001000000002,-19.75,2d
2019-07-12_142811:700,-0.37316900000000003,-0.064545,-0.323334,-0.0063030000000000004,-0.0028710000000000003,0.000206,-23.059998999999998,25.870001000000002,-19.75,2d
2019-07-12_142811:720,-0.371643,-0.064545,-0.323334,-0.005967,-0.002139,0.0014269999999999999,-24.18,25.059998999999998,-21.370001000000002,2d
2019-07-12_142811:740,-0.369598,-0.06405599999999999,-0.319794,-0.005601,-0.001925,0.002098,-24.18,25.059998999999998,-21.370001000000002,2d
2019-07-12_142811:760,-0.37316900000000003,-0.057434000000000006,-0.322327,-0.0056619999999999995,-0.001498,0.002098,-23.5,25.870001000000002,-20.559998999999998,2d
2019-07-12_142811:780,-0.37011700000000003,-0.055908000000000006,-0.32132,-0.006425,-0.001437,0.002587,-23.5,25.870001000000002,-20.559998999999998,2d
2019-07-12_142811:800,-0.36554000000000003,-0.054901,-0.317749,-0.007829000000000001,-0.001498,0.0038380000000000003,-23.5,25.870001000000002,-20.559998999999998,2d
2019-07-12_142811:820,-0.365021,-0.059479,-0.317749,-0.009294,-0.001437,0.004845,-23.75,25.5,-21.0,2d
2019-07-12_142811:840,-0.36349499999999996,-0.068634,-0.317749,-0.009873,-0.0015890000000000001,0.005181,-23.75,25.5,-21.0,2d
2019-07-12_142811:860,-0.361969,-0.075226,-0.316742,-0.009751000000000001,-0.001955,0.005242,-23.75,25.5,-21.0,2d
2019-07-12_142811:880,-0.36349499999999996,-0.078278,-0.318756,-0.008836,-0.003085,0.005181,-24.18,25.870001000000002,-21.0,2d
2019-07-12_142811:900,-0.36706500000000003,-0.079803,-0.322845,-0.0074930000000000005,-0.004122,0.004784,-24.18,25.870001000000002,-21.0,2d
2019-07-12_142811:920,-0.372162,-0.078278,-0.327911,-0.006028,-0.004794,0.0034409999999999996,-23.75,25.5,-21.5,2d
2019-07-12_142811:940,-0.37674,-0.07421900000000001,-0.327423,-0.0054789999999999995,-0.004672,0.0019760000000000003,-23.75,25.5,-21.5,2d
2019-07-12_142811:960,-0.378265,-0.068115,-0.330475,-0.005386999999999999,-0.003878,0.001213,-23.75,25.5,-21.5,2d
2019-07-12_142811:980,-0.380798,-0.066589,-0.330963,-0.005601,-0.003085,0.001091,-23.75,26.25,-20.18,2d
2019-07-12_142812:000,-0.37674,-0.066071,-0.32995599999999997,-0.006028,-0.0017420000000000003,0.001396,-23.75,26.25,-20.18,2d
2019-07-12_142812:020,-0.37316900000000003,-0.064545,-0.32843,-0.0063030000000000004,-0.000918,0.001854,-23.5,25.5,-21.370001000000002,2d
2019-07-12_142812:040,-0.36349499999999996,-0.065063,-0.323853,-0.006364,-3.3e-05,0.0028309999999999997,-23.5,25.5,-21.370001000000002,2d
2019-07-12_142812:060,-0.364532,-0.066071,-0.320801,-0.006486,0.000364,0.004021,-23.5,25.5,-21.370001000000002,2d
2019-07-12_142812:080,-0.365021,-0.070648,-0.320282,-0.006364,0.000425,0.004906000000000001,-24.18,26.25,-20.559998999999998,2d
2019-07-12_142812:100,-0.36911,-0.071686,-0.316742,-0.0067,-3.3e-05,0.004845,-24.18,26.25,-20.559998999999998,2d
2019-07-12_142812:120,-0.369598,-0.073212,-0.318268,-0.006761,-0.000643,0.003563,-23.059998999999998,25.5,-21.0,2d
2019-07-12_142812:140,-0.369598,-0.071167,-0.317749,-0.006822,-0.001437,0.00161,-23.059998999999998,25.5,-21.0,2d
2019-07-12_142812:160,-0.37112399999999995,-0.064545,-0.318756,-0.007095999999999999,-0.002261,-3.8e-05,-23.059998999999998,25.5,-21.0,2d
2019-07-12_142812:180,-0.367584,-0.063019,-0.319275,-0.007615,-0.002261,-0.00018999999999999998,-23.5,26.25,-19.5,2d
2019-07-12_142812:200,-0.364014,-0.067596,-0.320282,-0.0074930000000000005,-0.002016,0.0014880000000000002,-23.5,26.25,-19.5,2d
2019-07-12_142812:220,-0.364014,-0.069122,-0.318756,-0.007095999999999999,-0.001955,0.0023120000000000003,-23.75,26.25,-20.559998999999998,2d
2019-07-12_142812:240,-0.35943600000000003,-0.071167,-0.318268,-0.00615,-0.0024129999999999998,0.002983,-23.75,26.25,-20.559998999999998,2d
2019-07-12_142812:260,-0.35943600000000003,-0.072693,-0.32132,-0.004991,-0.002993,0.0037159999999999997,-23.75,26.25,-20.559998999999998,2d
2019-07-12_142812:280,-0.365021,-0.07016,-0.323334,-0.004014,-0.0037869999999999996,0.0037770000000000004,-23.5,25.870001000000002,-20.18,2d
2019-07-12_142812:300,-0.37112399999999995,-0.068115,-0.326385,-0.004136,-0.004794,0.0035020000000000003,-23.5,25.870001000000002,-20.18,2d
2019-07-12_142812:320,-0.379791,-0.064545,-0.33197,-0.005386999999999999,-0.005129,0.003167,-24.18,25.5,-20.559998999999998,2d
2019-07-12_142812:340,-0.384338,-0.064545,-0.332489,-0.006639,-0.004275,0.002129,-24.18,25.5,-20.559998999999998,2d
2019-07-12_142812:360,-0.378754,-0.06405599999999999,-0.327423,-0.008103,-0.002322,0.00042,-24.18,25.5,-20.559998999999998,2d
2019-07-12_142812:380,-0.36654699999999996,-0.063019,-0.327911,-0.009019,-0.000246,-0.00018999999999999998,-23.5,26.25,-20.559998999999998,2d
2019-07-12_142812:400,-0.3508,-0.07016,-0.320282,-0.009294,0.000608,0.0014269999999999999,-23.5,26.25,-20.559998999999998,2d
2019-07-12_142812:420,-0.352844,-0.073212,-0.32132,-0.0085,-0.00036899999999999997,0.002373,-22.68,25.870001000000002,-20.559998999999998,2d
2019-07-12_142812:440,-0.35638400000000003,-0.07775900000000001,-0.321808,-0.007156999999999999,-0.001955,0.002495,-22.68,25.870001000000002,-20.559998999999998,2d
2019-07-12_142812:460,-0.365021,-0.080322,-0.326385,-0.005052,-0.0036030000000000003,0.003167,-22.68,25.870001000000002,-20.559998999999998,2d
2019-07-12_142812:480,-0.37674,-0.07928500000000001,-0.330963,-0.003068,-0.004336,0.003105,-24.18,26.25,-20.18,2d
2019-07-12_142812:500,-0.38385,-0.075226,-0.33197,-0.0022129999999999997,-0.004122,0.002373,-24.18,26.25,-20.18,2d
2019-07-12_142812:520,-0.38739,-0.066589,-0.330963,-0.002732,-0.0027489999999999997,0.0014269999999999999,-23.5,25.5,-20.559998999999998,2d
2019-07-12_142812:540,-0.38028,-0.06253099999999999,-0.32843,-0.003861,-0.000704,0.000481,-23.5,25.5,-20.559998999999998,2d
2019-07-12_142812:560,-0.36248800000000003,-0.055389,-0.319794,-0.0054789999999999995,0.0007610000000000001,-0.001259,-23.5,25.5,-20.559998999999998,2d
2019-07-12_142812:580,-0.352325,-0.051849,-0.319275,-0.0076760000000000005,0.0010960000000000002,-0.001716,-24.18,25.5,-21.0,2d
2019-07-12_142812:600,-0.34368899999999997,-0.053375,-0.316223,-0.009538,0.000669,0.0007559999999999999,-24.18,25.5,-21.0,2d
2019-07-12_142812:620,-0.350281,-0.063019,-0.317749,-0.010331,-0.001101,0.0035020000000000003,-23.75,26.559998999999998,-21.370001000000002,2d
2019-07-12_142812:640,-0.365021,-0.075745,-0.322845,-0.009751000000000001,-0.002718,0.004448,-23.75,26.559998999999998,-21.370001000000002,2d
2019-07-12_142812:660,-0.370636,-0.081848,-0.32486,-0.007890000000000001,-0.004,0.004845,-23.75,26.559998999999998,-21.370001000000002,2d
2019-07-12_142812:680,-0.38028,-0.082855,-0.331482,-0.005265,-0.004794,0.004418,-23.059998999999998,25.870001000000002,-19.75,2d
2019-07-12_142812:700,-0.38739,-0.079803,-0.332489,-0.003282,-0.004,0.003899,-23.059998999999998,25.870001000000002,-19.75,2d
2019-07-12_142812:720,-0.386902,-0.07016,-0.330963,-0.002427,-0.002535,0.002709,-23.75,25.5,-21.0,2d
2019-07-12_142812:740,-0.372162,-0.062012,-0.323853,-0.002732,-9.4e-05,0.001274,-23.75,25.5,-21.0,2d
2019-07-12_142812:760,-0.3508,-0.049805,-0.318268,-0.004594,0.00048600000000000005,-0.001228,-23.75,25.5,-21.0,2d
2019-07-12_142812:780,-0.342163,-0.045226999999999996,-0.318268,-0.007615,0.00015,-0.000923,-23.5,25.870001000000002,-21.0,2d
2019-07-12_142812:800,-0.338593,-0.05285599999999999,-0.315216,-0.010606,-0.000857,0.002129,-23.5,25.870001000000002,-21.0,2d
2019-07-12_142812:820,-0.349792,-0.065582,-0.319794,-0.011857,-0.003085,0.004418,-23.5,26.559998999999998,-20.18,2d
2019-07-12_142812:840,-0.36654699999999996,-0.081329,-0.32486,-0.011125,-0.005372999999999999,0.004692,-23.5,26.559998999999998,-20.18,2d
2019-07-12_142812:860,-0.373688,-0.089478,-0.327911,-0.008348000000000001,-0.0059229999999999994,0.004296,-23.5,26.559998999999998,-20.18,2d
2019-07-12_142812:880,-0.381317,-0.092529,-0.337067,-0.005326,-0.005984000000000001,0.0034409999999999996,-23.5,25.559998999999998,-21.5,2d
2019-07-12_142812:900,-0.38739,-0.088959,-0.3396,-0.001756,-0.005465,0.001854,-23.5,25.559998999999998,-21.5,2d
2019-07-12_142812:920,-0.389954,-0.075226,-0.34063699999999997,0.000167,-0.003542,-9.9e-05,-23.75,26.25,-21.75,2d
2019-07-12_142812:940,-0.374695,-0.06253099999999999,-0.334015,0.000167,-0.001254,-0.0018989999999999999,-23.75,26.25,-21.75,2d
2019-07-12_142812:960,-0.353851,-0.052338,-0.326904,-0.001542,0.000669,-0.0026320000000000002,-23.75,26.25,-21.75,2d
2019-07-12_142812:980,-0.339111,-0.043213,-0.318268,-0.003953,0.002134,-0.001045,-23.059998999999998,25.870001000000002,-21.75,2d
2019-07-12_142813:000,-0.33758499999999997,-0.049316000000000006,-0.317749,-0.007156999999999999,0.001218,0.0017629999999999998,-23.059998999999998,25.870001000000002,-21.75,2d
2019-07-12_142813:020,-0.353333,-0.066071,-0.32132,-0.009629,-0.000918,0.003563,-23.5,25.870001000000002,-22.18,2d
2019-07-12_142813:040,-0.363007,-0.076263,-0.325897,-0.01027,-0.00339,0.0037159999999999997,-23.5,25.870001000000002,-22.18,2d
2019-07-12_142813:060,-0.37674,-0.0849,-0.33300799999999997,-0.008683,-0.005372999999999999,0.003105,-23.5,25.870001000000002,-22.18,2d
2019-07-12_142813:080,-0.384857,-0.087952,-0.336548,-0.006425,-0.005526,0.002709,-23.5,25.870001000000002,-20.559998999999998,2d
2019-07-12_142813:100,-0.392487,-0.083374,-0.3396,-0.003617,-0.004458,0.0021899999999999997,-23.5,25.870001000000002,-20.559998999999998,2d
2019-07-12_142813:120,-0.390442,-0.075226,-0.334534,-0.0016640000000000001,-0.0022,0.00103,-23.059998999999998,26.25,-21.370001000000002,2d
2019-07-12_142813:140,-0.359955,-0.058441,-0.322845,-0.0008710000000000001,0.000944,-0.000709,-23.059998999999998,26.25,-21.370001000000002,2d
2019-07-12_142813:160,-0.34674099999999997,-0.047272,-0.317749,-0.002336,0.002073,-0.0018989999999999999,-23.059998999999998,26.25,-21.370001000000002,2d
2019-07-12_142813:180,-0.335541,-0.043213,-0.31369,-0.005448,0.0018899999999999998,-0.000984,-23.75,25.18,-21.0,2d
2019-07-12_142813:200,-0.336548,-0.046752999999999996,-0.312164,-0.008561,0.000883,0.002129,-23.75,25.18,-21.0,2d
2019-07-12_142813:220,-0.353851,-0.067108,-0.320282,-0.010942,-0.0018030000000000001,0.004753,-23.059998999999998,25.870001000000002,-21.0,2d
2019-07-12_142813:240,-0.36554000000000003,-0.07775900000000001,-0.323853,-0.010819,-0.00461,0.005089,-23.059998999999998,25.870001000000002,-21.0,2d
2019-07-12_142813:260,-0.378754,-0.084381,-0.330963,-0.009294,-0.006106,0.004174000000000001,-23.059998999999998,25.870001000000002,-21.0,2d
2019-07-12_142813:280,-0.386383,-0.089478,-0.336548,-0.006761,-0.006776999999999999,0.0035020000000000003,-23.75,26.559998999999998,-20.18,2d
2019-07-12_142813:300,-0.395538,-0.0849,-0.338593,-0.003739,-0.0057090000000000005,0.0029219999999999997,-23.75,26.559998999999998,-20.18,2d
2019-07-12_142813:320,-0.383331,-0.07421900000000001,-0.334015,-0.001603,-0.0028710000000000003,0.001274,-22.68,26.25,-21.75,2d
2019-07-12_142813:340,-0.359955,-0.055908000000000006,-0.325897,-0.00081,-0.000643,-0.001442,-22.68,26.25,-21.75,2d
2019-07-12_142813:360,-0.345215,-0.046265,-0.323853,-0.002732,0.000822,-0.001777,-22.68,26.25,-21.75,2d
2019-07-12_142813:380,-0.33605999999999997,-0.045745999999999995,-0.316223,-0.005784,0.000883,0.001152,-23.5,26.25,-20.559998999999998,2d
2019-07-12_142813:400,-0.341644,-0.05285599999999999,-0.317749,-0.008561,-0.00045999999999999996,0.00396,-23.5,26.25,-20.559998999999998,2d
2019-07-12_142813:420,-0.356903,-0.071167,-0.323334,-0.010728,-0.0028710000000000003,0.004296,-23.059998999999998,26.25,-21.75,2d
2019-07-12_142813:440,-0.367584,-0.081848,-0.329437,-0.010423,-0.005068,0.004113,-23.059998999999998,26.25,-21.75,2d
2019-07-12_142813:460,-0.379272,-0.087952,-0.338593,-0.0085,-0.005984000000000001,0.0034409999999999996,-23.059998999999998,26.25,-21.75,2d
2019-07-12_142813:480,-0.388428,-0.089478,-0.34063699999999997,-0.006089,-0.0059229999999999994,0.002526,-23.5,25.5,-21.370001000000002,2d
2019-07-12_142813:500,-0.387909,-0.079803,-0.3396,-0.0034649999999999998,-0.004275,0.0014269999999999999,-23.5,25.5,-21.370001000000002,2d
2019-07-12_142813:520,-0.371643,-0.07016,-0.33605999999999997,-0.001695,-0.0015890000000000001,-0.000496,-23.5,25.870001000000002,-20.18,2d
2019-07-12_142813:540,-0.3508,-0.050842,-0.32843,-0.001756,8.9e-05,-0.002357,-23.5,25.870001000000002,-20.18,2d
2019-07-12_142813:560,-0.34063699999999997,-0.044739,-0.324371,-0.003922,0.0010960000000000002,-0.000923,-23.5,25.870001000000002,-20.18,2d
2019-07-12_142813:580,-0.338593,-0.051330999999999995,-0.319275,-0.006547,0.001157,0.002526,-22.25,26.25,-21.75,2d
2019-07-12_142813:600,-0.34570300000000004,-0.059479,-0.322327,-0.009019,-0.000582,0.004235,-22.25,26.25,-21.75,2d
2019-07-12_142813:620,-0.36248800000000003,-0.075745,-0.329437,-0.010087,-0.002932,0.004692,-22.68,25.870001000000002,-20.559998999999998,2d
2019-07-12_142813:640,-0.36911,-0.082855,-0.328949,-0.009019,-0.004122,0.004845,-22.68,25.870001000000002,-20.559998999999998,2d
2019-07-12_142813:660,-0.377228,-0.088959,-0.33758499999999997,-0.006883,-0.004397,0.0037159999999999997,-22.68,25.870001000000002,-20.559998999999998,2d
2019-07-12_142813:680,-0.380798,-0.086426,-0.338074,-0.004594,-0.00461,0.002251,-23.75,26.559998999999998,-21.370001000000002,2d
2019-07-12_142813:700,-0.377747,-0.073212,-0.337067,-0.0024879999999999998,-0.003664,0.000542,-23.75,26.559998999999998,-21.370001000000002,2d
2019-07-12_142813:720,-0.36654699999999996,-0.061005,-0.333496,-0.00203,-0.001955,-0.002235,-23.059998999999998,27.0,-21.75,2d
2019-07-12_142813:740,-0.348267,-0.047791,-0.329437,-0.003404,-0.000185,-0.0020210000000000002,-23.059998999999998,27.0,-21.75,2d
2019-07-12_142813:760,-0.34317,-0.048279,-0.327423,-0.005723,0.001005,0.0014269999999999999,-23.059998999999998,27.0,-21.75,2d
2019-07-12_142813:780,-0.344696,-0.060486,-0.323853,-0.007829000000000001,0.000364,0.0034409999999999996,-23.5,26.25,-20.18,2d
2019-07-12_142813:800,-0.349792,-0.067596,-0.325378,-0.009599,-0.000857,0.002892,-23.5,26.25,-20.18,2d
2019-07-12_142813:820,-0.364014,-0.078278,-0.329437,-0.009294,-0.0028710000000000003,0.002983,-22.68,26.25,-21.0,2d
2019-07-12_142813:840,-0.37011700000000003,-0.084381,-0.33300799999999997,-0.00731,-0.004183,0.003258,-22.68,26.25,-21.0,2d
2019-07-12_142813:860,-0.38385,-0.085388,-0.336548,-0.005052,-0.004733,0.002251,-22.68,26.25,-21.0,2d
2019-07-12_142813:880,-0.383331,-0.079803,-0.336548,-0.002885,-0.0037869999999999996,0.00103,-23.5,25.870001000000002,-21.5,2d
2019-07-12_142813:900,-0.369598,-0.065582,-0.330475,-0.001023,-0.001925,-0.000251,-23.5,25.870001000000002,-21.5,2d
2019-07-12_142813:920,-0.35943600000000003,-0.054901,-0.32995599999999997,-0.0016640000000000001,-0.000246,-0.001716,-23.75,25.870001000000002,-21.5,2d
2019-07-12_142813:940,-0.34317,-0.049316000000000006,-0.320801,-0.003739,0.000883,-0.000496,-23.75,25.870001000000002,-21.5,2d
2019-07-12_142813:960,-0.34063699999999997,-0.052338,-0.323853,-0.006089,0.000425,0.001854,-23.75,25.870001000000002,-21.5,2d
2019-07-12_142813:980,-0.349274,-0.06253099999999999,-0.32486,-0.008348000000000001,-0.001101,0.0028309999999999997,-23.5,26.25,-20.18,2d
2019-07-12_142814:000,-0.35638400000000003,-0.070648,-0.327423,-0.009355,-0.003054,0.0030440000000000003,-23.5,26.25,-20.18,2d
2019-07-12_142814:020,-0.370636,-0.081329,-0.335022,-0.008683,-0.004794,0.0037770000000000004,-22.68,25.870001000000002,-21.75,2d
2019-07-12_142814:040,-0.379791,-0.084381,-0.33605999999999997,-0.007035,-0.005068,0.0035020000000000003,-22.68,25.870001000000002,-21.75,2d
2019-07-12_142814:060,-0.384338,-0.081848,-0.339111,-0.005143,-0.004061,0.002648,-22.68,25.870001000000002,-21.75,2d
2019-07-12_142814:080,-0.377228,-0.076263,-0.334534,-0.003404,-0.002322,0.0017929999999999999,-23.059998999999998,26.25,-22.559998999999998,2d
2019-07-12_142814:100,-0.358429,-0.065063,-0.329437,-0.002397,-0.000582,0.000145,-23.059998999999998,26.25,-22.559998999999998,2d
2019-07-12_142814:120,-0.349274,-0.055389,-0.32843,-0.003404,0.000303,-0.001167,-22.0,26.25,-21.5,2d
2019-07-12_142814:140,-0.341644,-0.052338,-0.323334,-0.0054789999999999995,0.00048600000000000005,0.001,-22.0,26.25,-21.5,2d
2019-07-12_142814:160,-0.344177,-0.059479,-0.323853,-0.007370999999999999,-0.000307,0.003228,-22.0,26.25,-21.5,2d
2019-07-12_142814:180,-0.355896,-0.0737,-0.329437,-0.008897,-0.0018030000000000001,0.0028309999999999997,-22.68,26.25,-21.75,2d
2019-07-12_142814:200,-0.361481,-0.078278,-0.332489,-0.008622,-0.00339,0.002098,-22.68,26.25,-21.75,2d
2019-07-12_142814:220,-0.371643,-0.082336,-0.33605999999999997,-0.006944,-0.004183,0.002037,-23.5,25.870001000000002,-21.0,2d
2019-07-12_142814:240,-0.377747,-0.081848,-0.33758499999999997,-0.004991,-0.0042439999999999995,0.001213,-23.5,25.870001000000002,-21.0,2d
2019-07-12_142814:260,-0.374695,-0.074738,-0.335541,-0.00316,-0.003085,0.00042,-23.5,25.870001000000002,-21.0,2d
2019-07-12_142814:280,-0.36349499999999996,-0.066589,-0.33300799999999997,-0.002,-0.0015890000000000001,-0.000587,-23.75,25.870001000000002,-21.5,2d
2019-07-12_142814:300,-0.35180700000000004,-0.053375,-0.331482,-0.002549,-0.000643,-0.001716,-23.75,25.870001000000002,-21.5,2d
2019-07-12_142814:320,-0.34317,-0.051849,-0.326904,-0.004319,2.8000000000000003e-05,-0.000587,-24.18,26.25,-20.559998999999998,2d
2019-07-12_142814:340,-0.34368899999999997,-0.057434000000000006,-0.327911,-0.006242,-0.0007650000000000001,0.0017929999999999999,-24.18,26.25,-20.559998999999998,2d
2019-07-12_142814:360,-0.354858,-0.069122,-0.334534,-0.0077069999999999994,-0.002139,0.002526,-24.18,26.25,-20.559998999999998,2d
2019-07-12_142814:380,-0.365021,-0.074738,-0.335022,-0.007951,-0.003878,0.0016710000000000002,-23.059998999999998,26.25,-21.0,2d
2019-07-12_142814:400,-0.375214,-0.077271,-0.3396,-0.0067,-0.004458,0.00161,-23.059998999999998,26.25,-21.0,2d
2019-07-12_142814:420,-0.38385,-0.077271,-0.34063699999999997,-0.004991,-0.003848,0.002129,-23.059998999999998,26.25,-22.18,2d
2019-07-12_142814:440,-0.374176,-0.071686,-0.335541,-0.003404,-0.0024739999999999996,0.0023120000000000003,-23.059998999999998,26.25,-22.18,2d
2019-07-12_142814:460,-0.361969,-0.065063,-0.32843,-0.002671,2.8000000000000003e-05,0.001335,-23.059998999999998,26.25,-22.18,2d
2019-07-12_142814:480,-0.344177,-0.053375,-0.325897,-0.003343,0.001157,-0.000251,-24.18,25.870001000000002,-21.0,2d
2019-07-12_142814:500,-0.342163,-0.05285599999999999,-0.32486,-0.005143,0.0007,0.000267,-24.18,25.870001000000002,-21.0,2d
2019-07-12_142814:520,-0.347748,-0.058441,-0.328949,-0.006822,-0.000857,0.0019760000000000003,-23.5,26.559998999999998,-20.559998999999998,2d
2019-07-12_142814:540,-0.353851,-0.066589,-0.331482,-0.008683,-0.002261,0.00277,-23.5,26.559998999999998,-20.559998999999998,2d
2019-07-12_142814:560,-0.365021,-0.076752,-0.336548,-0.008622,-0.0036030000000000003,0.003167,-23.5,26.559998999999998,-20.559998999999998,2d
2019-07-12_142814:580,-0.370636,-0.08081100000000001,-0.338074,-0.007156999999999999,-0.003878,0.002709,-23.059998999999998,26.25,-21.0,2d
2019-07-12_142814:600,-0.377228,-0.07928500000000001,-0.338074,-0.005448,-0.003329,0.001549,-23.059998999999998,26.25,-21.0,2d
2019-07-12_142814:620,-0.377747,-0.075745,-0.338074,-0.003556,-0.002535,0.001335,-23.059998999999998,25.870001000000002,-21.0,2d
2019-07-12_142814:640,-0.366058,-0.065063,-0.332489,-0.002152,-0.0009789999999999998,0.00161,-23.059998999999998,25.870001000000002,-21.0,2d
2019-07-12_142814:660,-0.353851,-0.056915,-0.327911,-0.002397,0.000425,0.000542,-23.059998999999998,25.870001000000002,-21.0,2d
2019-07-12_142814:680,-0.34368899999999997,-0.050323,-0.324371,-0.004258,0.000944,-0.00043499999999999995,-23.059998999999998,25.18,-21.75,2d
2019-07-12_142814:700,-0.341125,-0.055389,-0.324371,-0.006639,0.000364,0.0014880000000000002,-23.059998999999998,25.18,-21.75,2d
2019-07-12_142814:720,-0.349274,-0.066071,-0.327423,-0.009415999999999999,-0.000857,0.003228,-22.68,25.870001000000002,-21.5,2d
2019-07-12_142814:740,-0.349792,-0.072174,-0.327911,-0.009751000000000001,-0.0018030000000000001,0.002892,-22.68,25.870001000000002,-21.5,2d
2019-07-12_142814:760,-0.364532,-0.081848,-0.335022,-0.008012,-0.004275,0.002373,-22.68,25.870001000000002,-21.5,2d
2019-07-12_142814:780,-0.375214,-0.082336,-0.338074,-0.006822,-0.004915999999999999,0.0019760000000000003,-23.75,26.559998999999998,-21.0,2d
2019-07-12_142814:800,-0.383331,-0.076752,-0.34063699999999997,-0.0035259999999999996,-0.003664,0.0021899999999999997,-23.75,26.559998999999998,-21.0,2d
2019-07-12_142814:820,-0.38028,-0.073212,-0.340118,-0.0022129999999999997,-0.001437,0.002434,-23.5,25.559998999999998,-21.5,2d
2019-07-12_142814:840,-0.365021,-0.05996699999999999,-0.334534,-0.002397,0.001218,0.001152,-23.5,25.559998999999998,-21.5,2d
2019-07-12_142814:860,-0.35739099999999996,-0.053375,-0.335541,-0.004654999999999999,0.002927,0.000634,-23.5,25.559998999999998,-21.5,2d
2019-07-12_142814:880,-0.355377,-0.05285599999999999,-0.33300799999999997,-0.007615,0.004453,0.002892,-23.059998999999998,26.25,-20.559998999999998,2d
2019-07-12_142814:900,-0.358429,-0.057953,-0.334015,-0.010423,0.005338,0.004296,-23.059998999999998,26.25,-20.559998999999998,2d
2019-07-12_142814:920,-0.36248800000000003,-0.071686,-0.335022,-0.012254000000000001,0.0052770000000000004,0.003228,-23.5,26.559998999999998,-22.18,2d
2019-07-12_142814:940,-0.36654699999999996,-0.077271,-0.335541,-0.011674,0.004545,0.002098,-23.5,26.559998999999998,-22.18,2d
2019-07-12_142814:960,-0.371643,-0.082855,-0.334015,-0.009599,0.0034159999999999998,0.0014880000000000002,-23.5,26.559998999999998,-22.18,2d
2019-07-12_142814:980,-0.378265,-0.083862,-0.330963,-0.006822,0.0026829999999999996,0.001335,-23.5,25.870001000000002,-21.0,2d
2019-07-12_142815:000,-0.373688,-0.078278,-0.322845,-0.004014,0.002866,0.001152,-23.5,25.870001000000002,-21.0,2d
2019-07-12_142815:020,-0.365021,-0.071686,-0.317749,-0.001695,0.00366,0.000481,-23.5,25.18,-21.5,2d
2019-07-12_142815:040,-0.35180700000000004,-0.057953,-0.312164,-0.0016640000000000001,0.003934,-0.00043499999999999995,-23.5,25.18,-21.5,2d
2019-07-12_142815:060,-0.34368899999999997,-0.051849,-0.310638,-0.002793,0.003751,0.0007559999999999999,-23.5,25.18,-21.5,2d
2019-07-12_142815:080,-0.342163,-0.05285599999999999,-0.309113,-0.004411,0.002409,0.002709,-23.059998999999998,25.870001000000002,-19.75,2d
2019-07-12_142815:100,-0.347748,-0.058441,-0.311127,-0.006486,2.8000000000000003e-05,0.0030440000000000003,-23.059998999999998,25.870001000000002,-19.75,2d
2019-07-12_142815:120,-0.359955,-0.066071,-0.316742,-0.007615,-0.0028710000000000003,0.0028309999999999997,-22.68,25.870001000000002,-20.18,2d
2019-07-12_142815:140,-0.366058,-0.070648,-0.320282,-0.007768000000000001,-0.005312,0.0028309999999999997,-22.68,25.870001000000002,-20.18,2d
2019-07-12_142815:160,-0.377228,-0.075226,-0.325897,-0.006944,-0.0069299999999999995,0.003167,-22.68,25.870001000000002,-20.18,2d
2019-07-12_142815:180,-0.386902,-0.077271,-0.329437,-0.005784,-0.0069299999999999995,0.002648,-23.5,25.870001000000002,-20.18,2d
2019-07-12_142815:200,-0.386383,-0.071167,-0.329437,-0.00435,-0.00458,0.0017629999999999998,-23.5,25.870001000000002,-20.18,2d
2019-07-12_142815:220,-0.372162,-0.064545,-0.326904,-0.003739,-0.002078,0.000481,-23.5,25.559998999999998,-21.75,2d
2019-07-12_142815:240,-0.36248800000000003,-0.05285599999999999,-0.323853,-0.004991,-0.00043,0.000878,-23.5,25.559998999999998,-21.75,2d
2019-07-12_142815:260,-0.350281,-0.052338,-0.321808,-0.007035,0.0007,0.0030440000000000003,-23.5,25.559998999999998,-21.75,2d
2019-07-12_142815:280,-0.353851,-0.06149299999999999,-0.319794,-0.009141,0.00015,0.004418,-23.75,26.25,-20.559998999999998,2d
2019-07-12_142815:300,-0.35436999999999996,-0.070648,-0.323334,-0.010087,-0.002016,0.003563,-23.75,26.25,-20.559998999999998,2d
2019-07-12_142815:320,-0.37011700000000003,-0.080322,-0.330475,-0.009415999999999999,-0.004733,0.0021899999999999997,-24.18,26.559998999999998,-20.559998999999998,2d
2019-07-12_142815:340,-0.382324,-0.081848,-0.335022,-0.0076760000000000005,-0.005862,0.002129,-24.18,26.559998999999998,-20.559998999999998,2d
2019-07-12_142815:360,-0.391968,-0.082855,-0.335541,-0.005143,-0.004915999999999999,0.002495,-24.18,26.559998999999998,-20.559998999999998,2d
2019-07-12_142815:380,-0.38739,-0.078796,-0.335541,-0.003221,-0.0024129999999999998,0.0019149999999999998,-23.5,25.870001000000002,-20.25,2d
2019-07-12_142815:400,-0.364532,-0.064545,-0.326385,-0.002336,0.00021099999999999998,0.000145,-23.5,25.870001000000002,-20.25,2d
2019-07-12_142815:420,-0.353851,-0.055908000000000006,-0.323853,-0.003556,0.001005,-0.000526,-23.5,25.870001000000002,-20.559998999999998,2d
2019-07-12_142815:440,-0.342163,-0.049805,-0.318268,-0.005784,0.001401,0.0014269999999999999,-23.5,25.870001000000002,-20.559998999999998,2d
2019-07-12_142815:460,-0.341644,-0.05438200000000001,-0.317749,-0.008073,0.000425,0.0035020000000000003,-23.5,25.870001000000002,-20.559998999999998,2d
2019-07-12_142815:480,-0.35180700000000004,-0.068115,-0.32132,-0.009629,-0.0016809999999999998,0.002587,-22.68,26.559998999999998,-21.5,2d
2019-07-12_142815:500,-0.35943600000000003,-0.073212,-0.32486,-0.009355,-0.004122,0.0014880000000000002,-22.68,26.559998999999998,-21.5,2d
2019-07-12_142815:520,-0.376221,-0.07928500000000001,-0.330475,-0.007615,-0.005647999999999999,0.001396,-23.75,26.25,-19.75,2d
2019-07-12_142815:540,-0.38385,-0.07928500000000001,-0.333496,-0.005448,-0.0057090000000000005,0.001549,-23.75,26.25,-19.75,2d
2019-07-12_142815:560,-0.384338,-0.07421900000000001,-0.334015,-0.003617,-0.004458,0.001396,-23.75,26.25,-19.75,2d
2019-07-12_142815:580,-0.37674,-0.066589,-0.335022,-0.002336,-0.002322,0.00042,-23.75,25.559998999999998,-21.75,2d
2019-07-12_142815:600,-0.363007,-0.05285599999999999,-0.329437,-0.0029460000000000003,-0.0007650000000000001,-0.00043499999999999995,-23.75,25.559998999999998,-21.75,2d
2019-07-12_142815:620,-0.35436999999999996,-0.047791,-0.32843,-0.005143,0.000425,0.0016710000000000002,-23.5,25.559998999999998,-21.5,2d
2019-07-12_142815:640,-0.348267,-0.05438200000000001,-0.322845,-0.0072180000000000005,0.000669,0.004509,-23.5,25.559998999999998,-21.5,2d
2019-07-12_142815:660,-0.353851,-0.06149299999999999,-0.324371,-0.009202,-0.0007650000000000001,0.004753,-23.5,25.559998999999998,-21.5,2d
2019-07-12_142815:680,-0.364532,-0.0737,-0.327911,-0.00969,-0.002261,0.003624,-23.75,26.559998999999998,-20.18,2d
2019-07-12_142815:700,-0.37674,-0.080322,-0.332489,-0.0085,-0.003329,0.003624,-23.75,26.559998999999998,-20.18,2d
2019-07-12_142815:720,-0.382324,-0.082336,-0.33197,-0.006639,-0.003085,0.003624,-23.5,26.25,-22.559998999999998,2d
2019-07-12_142815:740,-0.382812,-0.080322,-0.32995599999999997,-0.004807,-0.001955,0.002892,-23.5,26.25,-22.559998999999998,2d
2019-07-12_142815:760,-0.37265,-0.0737,-0.328949,-0.003404,-0.000582,0.0017929999999999999,-23.5,26.25,-22.559998999999998,2d
2019-07-12_142815:780,-0.35638400000000003,-0.05996699999999999,-0.321808,-0.002885,0.000272,0.000695,-22.0,25.870001000000002,-20.559998999999998,2d
2019-07-12_142815:800,-0.3508,-0.05438200000000001,-0.319275,-0.004411,0.000425,0.000817,-22.0,25.870001000000002,-20.559998999999998,2d
2019-07-12_142815:820,-0.34570300000000004,-0.056915,-0.31723,-0.006486,8.9e-05,0.0029219999999999997,-23.5,25.870001000000002,-21.75,2d
2019-07-12_142815:840,-0.348267,-0.064545,-0.317749,-0.008409,-0.000918,0.003655,-23.5,25.870001000000002,-21.75,2d
2019-07-12_142815:860,-0.358429,-0.075226,-0.322327,-0.009355,-0.0027489999999999997,0.002587,-23.5,25.870001000000002,-21.75,2d
2019-07-12_142815:880,-0.36554000000000003,-0.081848,-0.326904,-0.008409,-0.0042439999999999995,0.002098,-23.5,25.870001000000002,-20.559998999999998,2d
2019-07-12_142815:900,-0.37674,-0.085388,-0.330475,-0.006547,-0.005372999999999999,0.0017629999999999998,-23.5,25.870001000000002,-20.559998999999998,2d
2019-07-12_142815:920,-0.38385,-0.081848,-0.335022,-0.004472,-0.005129,0.001152,-23.5,26.559998999999998,-21.75,2d
2019-07-12_142815:940,-0.378754,-0.072693,-0.331482,-0.0029460000000000003,-0.0034509999999999996,0.000603,-23.5,26.559998999999998,-21.75,2d
2019-07-12_142815:960,-0.36706500000000003,-0.065063,-0.32843,-0.002275,-0.0018030000000000001,-0.000709,-23.5,26.559998999999998,-21.75,2d
2019-07-12_142815:980,-0.353851,-0.05285599999999999,-0.326385,-0.003556,-0.000643,-0.001167,-23.5,25.870001000000002,-21.5,2d
2019-07-12_142816:000,-0.347748,-0.052338,-0.323853,-0.005448,-0.000246,0.000542,-23.5,25.870001000000002,-21.5,2d
2019-07-12_142816:020,-0.352844,-0.06253099999999999,-0.325897,-0.007370999999999999,-0.001101,0.002129,-23.5,25.870001000000002,-20.559998999999998,2d
2019-07-12_142816:040,-0.35791,-0.07016,-0.326385,-0.00847,-0.002078,0.0019149999999999998,-23.5,25.870001000000002,-20.559998999999998,2d
2019-07-12_142816:060,-0.373688,-0.076263,-0.332489,-0.008012,-0.003146,0.0016710000000000002,-23.5,25.870001000000002,-20.559998999999998,2d
2019-07-12_142816:080,-0.374695,-0.079803,-0.33197,-0.006089,-0.003146,0.0019149999999999998,-23.059998999999998,26.559998999999998,-21.0,2d
2019-07-12_142816:100,-0.379791,-0.07775900000000001,-0.33300799999999997,-0.004411,-0.002657,0.001396,-23.059998999999998,26.559998999999998,-21.0,2d
2019-07-12_142816:120,-0.37112399999999995,-0.0737,-0.331482,-0.003129,-0.001925,0.000481,-23.5,26.25,-21.0,2d
2019-07-12_142816:140,-0.36349499999999996,-0.06149299999999999,-0.32843,-0.0024879999999999998,-0.0017420000000000003,-0.000526,-23.5,26.25,-21.0,2d
2019-07-12_142816:160,-0.359955,-0.055389,-0.327423,-0.003282,-0.001254,-0.001716,-23.5,26.25,-21.0,2d
2019-07-12_142816:180,-0.347748,-0.05285599999999999,-0.323853,-0.005448,-0.000582,-0.000251,-23.059998999999998,25.870001000000002,-21.0,2d
2019-07-12_142816:200,-0.349792,-0.058441,-0.322845,-0.006973999999999999,-0.00036899999999999997,0.0021899999999999997,-23.059998999999998,25.870001000000002,-21.0,2d
2019-07-12_142816:220,-0.352844,-0.068115,-0.325378,-0.007951,-0.001437,0.0019149999999999998,-23.5,26.25,-20.559998999999998,2d
2019-07-12_142816:240,-0.361481,-0.072174,-0.327911,-0.007890000000000001,-0.002993,0.000695,-23.5,26.25,-20.559998999999998,2d
2019-07-12_142816:260,-0.372162,-0.075745,-0.334015,-0.006547,-0.004061,0.001152,-23.5,26.25,-20.559998999999998,2d
2019-07-12_142816:280,-0.378265,-0.075745,-0.334015,-0.004807,-0.004275,0.00161,-23.5,25.870001000000002,-21.0,2d
2019-07-12_142816:300,-0.382324,-0.069641,-0.335541,-0.003556,-0.00339,0.001274,-23.5,25.870001000000002,-21.0,2d
2019-07-12_142816:320,-0.37265,-0.064545,-0.33300799999999997,-0.003129,-0.0017420000000000003,0.0007559999999999999,-24.18,26.25,-20.559998999999998,2d
2019-07-12_142816:340,-0.359955,-0.05438200000000001,-0.327423,-0.003404,-0.00036899999999999997,-0.000129,-24.18,26.25,-20.559998999999998,2d
2019-07-12_142816:360,-0.356903,-0.051849,-0.326385,-0.005082,0.000364,-0.000251,-24.18,26.25,-20.559998999999998,2d
2019-07-12_142816:380,-0.34368899999999997,-0.05438200000000001,-0.321808,-0.006973999999999999,0.001005,0.0017629999999999998,-23.5,26.559998999999998,-21.0,2d
2019-07-12_142816:400,-0.349792,-0.063538,-0.322845,-0.008164,-0.000307,0.0030440000000000003,-23.5,26.559998999999998,-21.0,2d
2019-07-12_142816:420,-0.36248800000000003,-0.067596,-0.327911,-0.008561,-0.002322,0.0017929999999999999,-23.5,25.18,-21.5,2d
2019-07-12_142816:440,-0.368591,-0.0737,-0.329437,-0.0077069999999999994,-0.003725,0.0017629999999999998,-23.5,25.18,-21.5,2d
2019-07-12_142816:460,-0.378265,-0.07775900000000001,-0.334534,-0.005601,-0.003878,0.003105,-23.5,25.18,-21.5,2d
2019-07-12_142816:480,-0.383331,-0.075745,-0.333496,-0.003922,-0.003207,0.00277,-23.5,25.870001000000002,-21.5,2d
2019-07-12_142816:500,-0.37316900000000003,-0.065582,-0.330475,-0.0029460000000000003,-0.0018030000000000001,0.00161,-23.5,25.870001000000002,-21.5,2d
2019-07-12_142816:520,-0.36349499999999996,-0.058441,-0.328949,-0.0029460000000000003,-0.00043,0.0007559999999999999,-23.5,26.25,-20.18,2d
2019-07-12_142816:540,-0.353333,-0.050842,-0.325897,-0.004533,0.0007,0.000695,-23.5,26.25,-20.18,2d
2019-07-12_142816:560,-0.344177,-0.05285599999999999,-0.320282,-0.006822,0.000883,0.002037,-23.5,26.25,-20.18,2d
2019-07-12_142816:580,-0.349792,-0.063019,-0.323334,-0.0085,-0.000246,0.003167,-23.059998999999998,26.559998999999998,-20.559998999999998,2d
2019-07-12_142816:600,-0.358429,-0.07016,-0.324371,-0.009294,-0.001925,0.002709,-23.059998999999998,26.559998999999998,-20.559998999999998,2d
2019-07-12_142816:620,-0.368591,-0.076263,-0.329437,-0.008348000000000001,-0.003848,0.0023120000000000003,-23.5,25.870001000000002,-21.5,2d
2019-07-12_142816:640,-0.374695,-0.07775900000000001,-0.332489,-0.006364,-0.004458,0.002526,-23.5,25.870001000000002,-21.5,2d
2019-07-12_142816:660,-0.38028,-0.075745,-0.334015,-0.004197,-0.004122,0.002648,-23.5,25.870001000000002,-21.5,2d
2019-07-12_142816:680,-0.378754,-0.07016,-0.332489,-0.003007,-0.002718,0.002129,-24.18,25.870001000000002,-20.25,2d
2019-07-12_142816:700,-0.36554000000000003,-0.05996699999999999,-0.328949,-0.003007,-0.001437,0.001213,-24.18,25.870001000000002,-20.25,2d
2019-07-12_142816:720,-0.355896,-0.054901,-0.327423,-0.00435,-0.000307,0.000817,-23.5,25.559998999999998,-19.5,2d
2019-07-12_142816:740,-0.347748,-0.052338,-0.323853,-0.0065769999999999995,8.9e-05,0.0016710000000000002,-23.5,25.559998999999998,-19.5,2d
2019-07-12_142816:760,-0.347229,-0.058441,-0.324371,-0.008683,-0.0007650000000000001,0.003258,-23.5,25.559998999999998,-19.5,2d
2019-07-12_142816:780,-0.358429,-0.070648,-0.327911,-0.009538,-0.002139,0.003228,-23.5,25.870001000000002,-21.0,2d
2019-07-12_142816:800,-0.361969,-0.073212,-0.328949,-0.00908,-0.003481,0.002709,-23.5,25.870001000000002,-21.0,2d
2019-07-12_142816:820,-0.37265,-0.07928500000000001,-0.334534,-0.007156999999999999,-0.004,0.002495,-23.75,25.559998999999998,-21.5,2d
2019-07-12_142816:840,-0.375214,-0.080322,-0.335541,-0.004807,-0.003725,0.002587,-23.75,25.559998999999998,-21.5,2d
2019-07-12_142816:860,-0.379791,-0.0737,-0.337067,-0.003129,-0.00281,0.0021899999999999997,-23.75,25.559998999999998,-21.5,2d
2019-07-12_142816:880,-0.375702,-0.07016,-0.335022,-0.002427,-0.0010400000000000001,0.0019760000000000003,-23.059998999999998,27.0,-21.5,2d
2019-07-12_142816:900,-0.356903,-0.056915,-0.326904,-0.00316,0.000669,0.0014880000000000002,-23.059998999999998,27.0,-21.5,2d
2019-07-12_142816:920,-0.35131799999999996,-0.05438200000000001,-0.326385,-0.005082,0.0016760000000000002,0.001335,-23.5,26.25,-21.0,2d
2019-07-12_142816:940,-0.33605999999999997,-0.056915,-0.319794,-0.007890000000000001,0.000944,0.002495,-23.5,26.25,-21.0,2d
2019-07-12_142816:960,-0.338593,-0.06253099999999999,-0.320801,-0.009629,-0.001101,0.003624,-23.5,26.25,-21.0,2d
2019-07-12_142816:980,-0.36044299999999996,-0.078796,-0.32843,-0.009934,-0.003664,0.0021899999999999997,-23.059998999999998,25.870001000000002,-21.75,2d
2019-07-12_142817:000,-0.36654699999999996,-0.080322,-0.329437,-0.008348000000000001,-0.0057090000000000005,0.001,-23.059998999999998,25.870001000000002,-21.75,2d
2019-07-12_142817:020,-0.379272,-0.0849,-0.340118,-0.0056619999999999995,-0.0059229999999999994,0.001396,-23.059998999999998,25.870001000000002,-21.75,2d
2019-07-12_142817:040,-0.384338,-0.083862,-0.34063699999999997,-0.003129,-0.004733,0.0014880000000000002,-23.059998999999998,25.870001000000002,-21.75,2d
2019-07-12_142817:060,-0.385376,-0.0737,-0.340118,-0.001359,-0.002139,0.000542,-23.059998999999998,25.870001000000002,-21.75,2d
2019-07-12_142817:080,-0.373688,-0.06405599999999999,-0.334534,-0.001267,0.00015,-0.000526,-23.059998999999998,25.870001000000002,-21.5,2d
2019-07-12_142817:100,-0.350281,-0.051330999999999995,-0.323853,-0.0029460000000000003,0.001157,-0.000923,-23.059998999999998,25.870001000000002,-21.5,2d
2019-07-12_142817:120,-0.34265100000000004,-0.045745999999999995,-0.324371,-0.005815,0.001005,0.000267,-24.18,26.25,-20.559998999999998,2d
2019-07-12_142817:140,-0.338074,-0.050323,-0.322327,-0.008744,-0.00043,0.002129,-24.18,26.25,-20.559998999999998,2d
2019-07-12_142817:160,-0.347748,-0.05996699999999999,-0.324371,-0.010484,-0.0024129999999999998,0.002373,-24.18,26.25,-20.559998999999998,2d
2019-07-12_142817:180,-0.363007,-0.07421900000000001,-0.330475,-0.010087,-0.004061,0.0019760000000000003,-23.75,26.559998999999998,-21.5,2d
2019-07-12_142817:200,-0.373688,-0.078278,-0.33197,-0.007768000000000001,-0.004794,0.0021899999999999997,-23.75,26.559998999999998,-21.5,2d
2019-07-12_142817:220,-0.379272,-0.081848,-0.338074,-0.006242,-0.004397,0.002495,-24.18,26.25,-21.0,2d
2019-07-12_142817:240,-0.384857,-0.079803,-0.338593,-0.002397,-0.002932,0.001854,-24.18,26.25,-21.0,2d
2019-07-12_142817:260,-0.379791,-0.067108,-0.33605999999999997,-0.0012980000000000001,-0.001101,0.000634,-24.18,26.25,-21.0,2d
2019-07-12_142817:280,-0.365021,-0.056427,-0.329437,-0.001603,0.000364,8.4e-05,-23.75,25.870001000000002,-21.5,2d
2019-07-12_142817:300,-0.34265100000000004,-0.044219999999999995,-0.322845,-0.003953,0.0007,0.000359,-23.75,25.870001000000002,-21.5,2d
2019-07-12_142817:320,-0.338593,-0.043213,-0.321808,-0.007035,0.0007,0.002526,-23.5,25.559998999999998,-22.18,2d
2019-07-12_142817:340,-0.341125,-0.053375,-0.320801,-0.009934,-0.000643,0.003899,-23.5,25.559998999999998,-22.18,2d
2019-07-12_142817:360,-0.35943600000000003,-0.07421900000000001,-0.329437,-0.011216,-0.002718,0.003563,-23.5,25.559998999999998,-22.18,2d
2019-07-12_142817:380,-0.364532,-0.07928500000000001,-0.331482,-0.010331,-0.004397,0.002892,-23.5,26.25,-22.18,2d
2019-07-12_142817:400,-0.37316900000000003,-0.083862,-0.335022,-0.0076760000000000005,-0.005526,0.002526,-23.5,26.25,-22.18,2d
2019-07-12_142817:420,-0.384338,-0.086426,-0.3396,-0.004533,-0.005007,0.0019149999999999998,-23.5,25.870001000000002,-20.559998999999998,2d
2019-07-12_142817:440,-0.389435,-0.07928500000000001,-0.342163,-0.0018780000000000001,-0.003146,0.001274,-23.5,25.870001000000002,-20.559998999999998,2d
2019-07-12_142817:460,-0.37316900000000003,-0.064545,-0.334534,-0.0008710000000000001,-0.000704,0.000817,-23.5,25.870001000000002,-20.559998999999998,2d
2019-07-12_142817:480,-0.358429,-0.055389,-0.327423,-0.00203,0.0007,-0.00018999999999999998,-23.5,26.25,-22.559998999999998,2d
2019-07-12_142817:500,-0.341125,-0.043213,-0.322845,-0.005082,0.001157,0.000878,-23.5,26.25,-22.559998999999998,2d
2019-07-12_142817:520,-0.33605999999999997,-0.045226999999999996,-0.32132,-0.008348000000000001,0.000425,0.0033799999999999998,-23.75,25.870001000000002,-20.25,2d
2019-07-12_142817:540,-0.34265100000000004,-0.060486,-0.321808,-0.011003,-0.001559,0.004021,-23.75,25.870001000000002,-20.25,2d
2019-07-12_142817:560,-0.35131799999999996,-0.07016,-0.326904,-0.011491,-0.003848,0.0030440000000000003,-23.75,25.870001000000002,-20.25,2d
2019-07-12_142817:580,-0.364014,-0.082336,-0.335541,-0.009477,-0.005801,0.002892,-23.5,25.870001000000002,-21.0,2d
2019-07-12_142817:600,-0.37265,-0.085388,-0.3396,-0.0065769999999999995,-0.006379999999999999,0.002526,-23.5,25.870001000000002,-21.0,2d
2019-07-12_142817:620,-0.386383,-0.081848,-0.34317,-0.003861,-0.005251,0.0019149999999999998,-23.059998999999998,25.559998999999998,-20.559998999999998,2d
2019-07-12_142817:640,-0.382812,-0.074738,-0.341125,-0.001939,-0.0028710000000000003,0.001335,-23.059998999999998,25.559998999999998,-20.559998999999998,2d
2019-07-12_142817:660,-0.364014,-0.061005,-0.33300799999999997,-0.0016640000000000001,-0.000704,0.00042,-23.059998999999998,25.559998999999998,-20.559998999999998,2d
2019-07-12_142817:680,-0.3508,-0.051849,-0.330963,-0.002397,2.8000000000000003e-05,8.4e-05,-23.5,26.25,-22.18,2d
2019-07-12_142817:700,-0.33758499999999997,-0.048279,-0.325378,-0.006486,0.000547,0.0023120000000000003,-23.5,26.25,-22.18,2d
2019-07-12_142817:720,-0.34063699999999997,-0.05438200000000001,-0.32486,-0.0076760000000000005,-0.000185,0.0033799999999999998,-23.059998999999998,25.870001000000002,-21.5,2d
2019-07-12_142817:740,-0.3508,-0.07016,-0.328949,-0.009873,-0.002718,0.003105,-23.059998999999998,25.870001000000002,-21.5,2d
2019-07-12_142817:760,-0.36248800000000003,-0.076263,-0.330963,-0.009019,-0.004458,0.002434,-23.059998999999998,25.870001000000002,-21.5,2d
2019-07-12_142817:780,-0.373688,-0.082336,-0.33758499999999997,-0.006883,-0.004183,0.002526,-23.5,25.870001000000002,-21.5,2d
2019-07-12_142817:800,-0.379791,-0.082336,-0.33758499999999997,-0.004685,-0.003664,0.001732,-23.5,25.870001000000002,-21.5,2d
2019-07-12_142817:820,-0.375702,-0.075226,-0.3396,-0.003953,-0.003146,0.0014269999999999999,-22.68,25.559998999999998,-21.0,2d
2019-07-12_142817:840,-0.36911,-0.068115,-0.33758499999999997,-0.0026100000000000003,-0.001498,-0.00018999999999999998,-22.68,25.559998999999998,-21.0,2d
2019-07-12_142817:860,-0.355896,-0.053863999999999995,-0.330963,-0.0038,-0.000704,-0.001655,-22.68,25.559998999999998,-21.0,2d
2019-07-12_142817:880,-0.342163,-0.049805,-0.327911,-0.005845,2.8000000000000003e-05,0.000542,-23.5,25.559998999999998,-21.0,2d
2019-07-12_142817:900,-0.342163,-0.056915,-0.325378,-0.0076760000000000005,-3.3e-05,0.003563,-23.5,25.559998999999998,-21.0,2d
2019-07-12_142817:920,-0.34875500000000004,-0.068634,-0.32843,-0.008286,-0.00036899999999999997,0.003563,-23.5,25.559998999999998,-21.0,2d
2019-07-12_142817:940,-0.354858,-0.07421900000000001,-0.33197,-0.008561,-0.00281,0.00103,-22.68,25.870001000000002,-21.5,2d
2019-07-12_142817:960,-0.366058,-0.07775900000000001,-0.337067,-0.0056619999999999995,-0.004183,0.0016710000000000002,-22.68,25.870001000000002,-21.5,2d
2019-07-12_142817:980,-0.372162,-0.075745,-0.338593,-0.003861,-0.004183,0.0014269999999999999,-23.5,26.25,-20.559998999999998,2d
2019-07-12_142818:000,-0.38028,-0.07016,-0.338593,-0.002885,-0.0027489999999999997,0.00103,-23.5,26.25,-20.559998999999998,2d
2019-07-12_142818:020,-0.374176,-0.064545,-0.338074,-0.002732,-0.001254,0.000542,-23.059998999999998,25.870001000000002,-21.5,2d
2019-07-12_142818:040,-0.354858,-0.054901,-0.334015,-0.004136,-0.000307,-0.000312,-23.059998999999998,25.870001000000002,-21.5,2d
2019-07-12_142818:060,-0.352325,-0.051330999999999995,-0.330475,-0.006242,0.0007,0.000878,-23.059998999999998,25.870001000000002,-21.5,2d
2019-07-12_142818:080,-0.337067,-0.051330999999999995,-0.326904,-0.007095999999999999,0.001005,0.0021899999999999997,-22.68,26.559998999999998,-21.5,2d
2019-07-12_142818:100,-0.3396,-0.061005,-0.324371,-0.0085,-0.000307,0.0034409999999999996,-22.68,26.559998999999998,-21.5,2d
2019-07-12_142818:120,-0.353851,-0.07016,-0.332489,-0.008958,-0.002718,0.0017629999999999998,-22.68,25.870001000000002,-22.18,2d
2019-07-12_142818:140,-0.361481,-0.07421900000000001,-0.336548,-0.007829000000000001,-0.004061,0.001732,-22.68,25.870001000000002,-22.18,2d
2019-07-12_142818:160,-0.372162,-0.077271,-0.339111,-0.004807,-0.00461,0.003167,-22.68,25.870001000000002,-22.18,2d
2019-07-12_142818:180,-0.380798,-0.076263,-0.341644,-0.003953,-0.004122,0.002892,-22.68,25.870001000000002,-21.0,2d
2019-07-12_142818:200,-0.375214,-0.068115,-0.33758499999999997,-0.0028239999999999997,-0.001376,0.0017929999999999999,-22.68,25.870001000000002,-21.0,2d
2019-07-12_142818:220,-0.36248800000000003,-0.06149299999999999,-0.33605999999999997,-0.002671,-0.000246,0.001396,-22.68,25.870001000000002,-21.0,2d
2019-07-12_142818:240,-0.347229,-0.05285599999999999,-0.330963,-0.005326,0.00048600000000000005,0.0009390000000000001,-22.68,26.25,-21.0,2d
2019-07-12_142818:260,-0.341644,-0.050323,-0.326904,-0.006425,0.000303,0.00161,-22.68,26.25,-21.0,2d
2019-07-12_142818:280,-0.34265100000000004,-0.05996699999999999,-0.329437,-0.008286,-0.000857,0.003563,-23.5,25.5,-20.559998999999998,2d
2019-07-12_142818:300,-0.35131799999999996,-0.068634,-0.331482,-0.009202,-0.002718,0.002983,-23.5,25.5,-20.559998999999998,2d
2019-07-12_142818:320,-0.364014,-0.075745,-0.33758499999999997,-0.008348000000000001,-0.004183,0.002098,-23.059998999999998,25.870001000000002,-21.75,2d
2019-07-12_142818:340,-0.36911,-0.079803,-0.34063699999999997,-0.005386999999999999,-0.004122,0.002434,-23.059998999999998,25.870001000000002,-21.75,2d
2019-07-12_142818:360,-0.38028,-0.078278,-0.341125,-0.0036780000000000003,-0.002993,0.0023120000000000003,-23.059998999999998,25.870001000000002,-21.75,2d
2019-07-12_142818:380,-0.381317,-0.072174,-0.341125,-0.003221,-0.001925,0.002129,-23.5,25.559998999999998,-19.75,2d
2019-07-12_142818:400,-0.364014,-0.063538,-0.335541,-0.0029460000000000003,0.001005,0.000878,-23.5,25.559998999999998,-19.75,2d
2019-07-12_142818:420,-0.35180700000000004,-0.056427,-0.33197,-0.0038,0.00134,0.000145,-23.5,25.559998999999998,-19.75,2d
2019-07-12_142818:440,-0.339111,-0.051330999999999995,-0.32843,-0.007095999999999999,0.0007,0.0019149999999999998,-23.5,25.5,-20.559998999999998,2d
2019-07-12_142818:460,-0.339111,-0.053863999999999995,-0.326385,-0.008103,0.00021099999999999998,0.003319,-23.5,25.5,-20.559998999999998,2d
2019-07-12_142818:480,-0.345215,-0.067596,-0.328949,-0.009355,-0.001376,0.004448,-22.25,25.870001000000002,-21.0,2d
2019-07-12_142818:500,-0.354858,-0.075745,-0.33197,-0.009294,-0.003146,0.0030440000000000003,-22.25,25.870001000000002,-21.0,2d
2019-07-12_142818:520,-0.36554000000000003,-0.08081100000000001,-0.338593,-0.0076760000000000005,-0.0042439999999999995,0.002373,-22.68,25.870001000000002,-19.75,2d
2019-07-12_142818:540,-0.37316900000000003,-0.082336,-0.341125,-0.005143,-0.00458,0.002526,-22.68,25.870001000000002,-19.75,2d
2019-07-12_142818:560,-0.382324,-0.07775900000000001,-0.34265100000000004,-0.003068,-0.003725,0.002373,-22.68,25.870001000000002,-19.75,2d
2019-07-12_142818:580,-0.378265,-0.071167,-0.3396,-0.00203,-0.00162,0.002037,-22.68,26.559998999999998,-21.0,2d
2019-07-12_142818:600,-0.364532,-0.061005,-0.332489,-0.0022129999999999997,8.9e-05,0.00161,-22.68,26.559998999999998,-21.0,2d
2019-07-12_142818:620,-0.34875500000000004,-0.053375,-0.328949,-0.003953,0.0017980000000000001,0.000542,-22.68,26.559998999999998,-21.0,2d
2019-07-12_142818:640,-0.335541,-0.050842,-0.322327,-0.006761,0.001737,0.001213,-23.059998999999998,25.870001000000002,-21.0,2d
2019-07-12_142818:660,-0.329437,-0.056427,-0.323334,-0.00908,0.000669,0.0033799999999999998,-23.059998999999998,25.870001000000002,-21.0,2d
2019-07-12_142818:680,-0.34570300000000004,-0.072174,-0.330963,-0.010087,-0.002352,0.003167,-22.68,26.25,-21.75,2d
2019-07-12_142818:700,-0.35739099999999996,-0.077271,-0.335541,-0.009934,-0.0049770000000000005,0.001335,-22.68,26.25,-21.75,2d
2019-07-12_142818:720,-0.371643,-0.0849,-0.34063699999999997,-0.007554000000000001,-0.005984000000000001,0.0014880000000000002,-22.68,26.25,-21.75,2d
2019-07-12_142818:740,-0.382324,-0.086426,-0.344177,-0.004411,-0.005068,0.002129,-23.059998999999998,26.25,-21.0,2d
2019-07-12_142818:760,-0.383331,-0.078278,-0.34265100000000004,-0.002091,-0.003085,0.001091,-23.059998999999998,26.25,-21.0,2d
2019-07-12_142818:780,-0.37316900000000003,-0.068634,-0.3396,-0.0008710000000000001,-0.0009789999999999998,0.000298,-23.059998999999998,26.559998999999998,-21.75,2d
2019-07-12_142818:800,-0.353851,-0.055908000000000006,-0.332489,-0.001542,0.000547,-0.00018999999999999998,-23.059998999999998,26.559998999999998,-21.75,2d
2019-07-12_142818:820,-0.34570300000000004,-0.049805,-0.329437,-0.0038,0.001066,-0.000129,-23.059998999999998,26.559998999999998,-21.75,2d
2019-07-12_142818:840,-0.340118,-0.049316000000000006,-0.325897,-0.0065769999999999995,0.001066,0.0014269999999999999,-22.25,25.870001000000002,-21.5,2d
2019-07-12_142818:860,-0.34063699999999997,-0.056915,-0.325378,-0.009934,-0.000857,0.002587,-22.25,25.870001000000002,-21.5,2d
2019-07-12_142818:880,-0.347229,-0.069641,-0.329437,-0.01027,-0.00162,0.002251,-23.059998999999998,25.870001000000002,-23.0,2d
2019-07-12_142818:900,-0.35943600000000003,-0.075226,-0.33197,-0.009538,-0.003542,0.0019149999999999998,-23.059998999999998,25.870001000000002,-23.0,2d
2019-07-12_142818:920,-0.367584,-0.081329,-0.33758499999999997,-0.00731,-0.004733,0.002037,-23.059998999999998,25.870001000000002,-23.0,2d
2019-07-12_142818:940,-0.376221,-0.08081100000000001,-0.339111,-0.004746,-0.00461,0.0014880000000000002,-23.75,25.870001000000002,-21.5,2d
2019-07-12_142818:960,-0.375214,-0.072174,-0.3396,-0.002549,-0.0034509999999999996,0.000542,-23.75,25.870001000000002,-21.5,2d
2019-07-12_142818:980,-0.363007,-0.064545,-0.337067,-0.001603,-0.001925,0.000298,-23.5,26.25,-21.0,2d
2019-07-12_142819:000,-0.35131799999999996,-0.05438200000000001,-0.334534,-0.002152,-0.00045999999999999996,0.000695,-23.5,26.25,-21.0,2d
2019-07-12_142819:020,-0.344696,-0.051849,-0.330475,-0.004258,-3.3e-05,0.0019760000000000003,-23.5,26.25,-21.0,2d
2019-07-12_142819:040,-0.344177,-0.058960000000000005,-0.330475,-0.0063030000000000004,-0.00045999999999999996,0.0029219999999999997,-23.059998999999998,25.870001000000002,-20.559998999999998,2d
2019-07-12_142819:060,-0.349792,-0.065582,-0.33300799999999997,-0.007829000000000001,-0.001864,0.002648,-23.059998999999998,25.870001000000002,-20.559998999999998,2d
2019-07-12_142819:080,-0.36349499999999996,-0.0737,-0.339111,-0.007951,-0.003481,0.0017629999999999998,-22.68,26.559998999999998,-21.0,2d
2019-07-12_142819:100,-0.370636,-0.076752,-0.3396,-0.006639,-0.0037869999999999996,0.001396,-22.68,26.559998999999998,-21.0,2d
2019-07-12_142819:120,-0.377747,-0.075745,-0.34063699999999997,-0.005265,-0.002993,0.000878,-22.68,26.559998999999998,-21.0,2d
2019-07-12_142819:140,-0.381317,-0.072693,-0.342163,-0.003953,-0.001925,0.001091,-22.0,27.0,-21.75,2d
2019-07-12_142819:160,-0.36654699999999996,-0.063538,-0.333496,-0.003068,-3.3e-05,0.001152,-22.0,27.0,-21.75,2d
2019-07-12_142819:180,-0.353851,-0.058441,-0.328949,-0.003343,0.001493,0.000145,-22.25,26.5,-22.18,2d
2019-07-12_142819:200,-0.339111,-0.051330999999999995,-0.32486,-0.005082,0.0014320000000000001,0.000145,-22.25,26.5,-22.18,2d
2019-07-12_142819:220,-0.336548,-0.055908000000000006,-0.32486,-0.0067,0.000822,0.002526,-22.25,26.5,-22.18,2d
2019-07-12_142819:240,-0.34317,-0.065582,-0.327423,-0.008409,-0.000704,0.0038380000000000003,-22.68,25.5,-20.25,2d
2019-07-12_142819:260,-0.358917,-0.0737,-0.33197,-0.00847,-0.0025960000000000002,0.0030440000000000003,-22.68,25.5,-20.25,2d
2019-07-12_142819:280,-0.364532,-0.078278,-0.334534,-0.0074930000000000005,-0.003878,0.002495,-23.75,25.559998999999998,-22.18,2d
2019-07-12_142819:300,-0.373688,-0.079803,-0.339111,-0.0056619999999999995,-0.004458,0.002648,-23.75,25.559998999999998,-22.18,2d
2019-07-12_142819:320,-0.379791,-0.078278,-0.340118,-0.0038,-0.003878,0.0021899999999999997,-23.75,25.559998999999998,-22.18,2d
2019-07-12_142819:340,-0.375702,-0.068634,-0.336548,-0.0026100000000000003,-0.00281,0.0017629999999999998,-22.68,25.870001000000002,-21.75,2d
2019-07-12_142819:360,-0.358917,-0.06149299999999999,-0.331482,-0.002397,-0.000643,0.000878,-22.68,25.870001000000002,-21.75,2d
2019-07-12_142819:380,-0.346222,-0.050323,-0.328949,-0.004014,0.000272,0.000481,-22.25,25.559998999999998,-20.25,2d
2019-07-12_142819:400,-0.338074,-0.049316000000000006,-0.32843,-0.006822,0.000547,0.0017629999999999998,-22.25,25.559998999999998,-20.25,2d
2019-07-12_142819:420,-0.33605999999999997,-0.06149299999999999,-0.325897,-0.009141,0.00015,0.0037159999999999997,-22.25,25.559998999999998,-20.25,2d
2019-07-12_142819:440,-0.34875500000000004,-0.069641,-0.329437,-0.010758,-0.0016809999999999998,0.0037770000000000004,-22.68,25.559998999999998,-20.25,2d
2019-07-12_142819:460,-0.355377,-0.081848,-0.337067,-0.010026,-0.004122,0.003228,-22.68,25.559998999999998,-20.25,2d
2019-07-12_142819:480,-0.37011700000000003,-0.085388,-0.344177,-0.007890000000000001,-0.006258,0.0023120000000000003,-23.5,25.870001000000002,-21.0,2d
2019-07-12_142819:500,-0.386383,-0.0849,-0.34674099999999997,-0.005326,-0.006442,0.0019760000000000003,-23.5,25.870001000000002,-21.0,2d
2019-07-12_142819:520,-0.38739,-0.079803,-0.346222,-0.0029460000000000003,-0.004519,0.0021899999999999997,-23.5,25.870001000000002,-21.0,2d
2019-07-12_142819:540,-0.36248800000000003,-0.068115,-0.338074,-0.001542,-0.000826,0.001213,-23.059998999999998,26.25,-21.5,2d
2019-07-12_142819:560,-0.347748,-0.055389,-0.332489,-0.0022129999999999997,0.001401,-0.001167,-23.059998999999998,26.25,-21.5,2d
2019-07-12_142819:580,-0.331482,-0.047272,-0.32843,-0.004654999999999999,0.001401,-0.001106,-22.25,26.559998999999998,-21.0,2d
2019-07-12_142819:600,-0.331482,-0.051330999999999995,-0.326385,-0.0072180000000000005,0.00048600000000000005,0.001854,-22.25,26.559998999999998,-21.0,2d
2019-07-12_142819:620,-0.341644,-0.065582,-0.33197,-0.009538,-0.0011619999999999998,0.0030440000000000003,-22.25,26.559998999999998,-21.0,2d
2019-07-12_142819:640,-0.353851,-0.073212,-0.336548,-0.01027,-0.00339,0.0019149999999999998,-23.059998999999998,25.870001000000002,-21.5,2d
2019-07-12_142819:660,-0.36706500000000003,-0.081329,-0.342163,-0.008622,-0.004733,0.0014880000000000002,-23.059998999999998,25.870001000000002,-21.5,2d
2019-07-12_142819:680,-0.38028,-0.083374,-0.34368899999999997,-0.00615,-0.0049770000000000005,0.001854,-23.059998999999998,26.25,-21.0,2d
2019-07-12_142819:700,-0.37674,-0.075745,-0.34368899999999997,-0.003861,-0.003329,0.001274,-23.059998999999998,26.25,-21.0,2d
2019-07-12_142819:720,-0.37011700000000003,-0.068634,-0.3396,-0.002152,-0.0010400000000000001,0.000206,-23.059998999999998,26.25,-21.0,2d
2019-07-12_142819:740,-0.35131799999999996,-0.052338,-0.335022,-0.002336,0.000547,-0.000892,-22.68,25.18,-21.75,2d
2019-07-12_142819:760,-0.34265100000000004,-0.047791,-0.331482,-0.004411,0.000944,-0.000129,-22.68,25.18,-21.75,2d
2019-07-12_142819:780,-0.34063699999999997,-0.052338,-0.330475,-0.006883,0.0007610000000000001,0.002526,-22.68,26.25,-21.75,2d
2019-07-12_142819:800,-0.34570300000000004,-0.06149299999999999,-0.32995599999999997,-0.008836,-0.000643,0.0037159999999999997,-22.68,26.25,-21.75,2d
2019-07-12_142819:820,-0.358917,-0.0737,-0.33605999999999997,-0.009233,-0.002016,0.0029219999999999997,-22.68,26.25,-21.75,2d
2019-07-12_142819:840,-0.367584,-0.076752,-0.335541,-0.008286,-0.003146,0.002495,-23.059998999999998,25.870001000000002,-20.25,2d
2019-07-12_142819:860,-0.37674,-0.079803,-0.339111,-0.006181,-0.003481,0.002648,-23.059998999999998,25.870001000000002,-20.25,2d
2019-07-12_142819:880,-0.381317,-0.076752,-0.3396,-0.004136,-0.0024129999999999998,0.0023120000000000003,-22.68,25.870001000000002,-21.0,2d
2019-07-12_142819:900,-0.373688,-0.07016,-0.334015,-0.002885,-0.0010400000000000001,0.001549,-22.68,25.870001000000002,-21.0,2d
2019-07-12_142819:920,-0.35791,-0.060486,-0.32995599999999997,-0.0022129999999999997,0.000608,0.001,-22.68,25.870001000000002,-21.0,2d
2019-07-12_142819:940,-0.342163,-0.051849,-0.32486,-0.003343,0.0010960000000000002,0.000695,-22.68,25.870001000000002,-21.0,2d
2019-07-12_142819:960,-0.33605999999999997,-0.048798,-0.324371,-0.005784,0.001005,0.002129,-22.68,25.870001000000002,-21.0,2d
2019-07-12_142819:980,-0.336548,-0.059479,-0.325897,-0.008286,-3.3e-05,0.004296,-23.059998999999998,25.870001000000002,-21.5,2d
2019-07-12_142820:000,-0.344177,-0.069122,-0.327911,-0.009934,-0.002016,0.004021,-23.059998999999998,25.870001000000002,-21.5,2d
2019-07-12_142820:020,-0.358917,-0.07928500000000001,-0.334015,-0.009812000000000001,-0.003664,0.0023120000000000003,-23.059998999999998,25.870001000000002,-21.5,2d
2019-07-12_142820:040,-0.36654699999999996,-0.082336,-0.338074,-0.008012,-0.00519,0.0019149999999999998,-23.059998999999998,26.25,-22.18,2d
2019-07-12_142820:060,-0.377747,-0.08081100000000001,-0.341125,-0.0054789999999999995,-0.005404,0.001549,-23.059998999999998,26.25,-22.18,2d
2019-07-12_142820:080,-0.376221,-0.075226,-0.34265100000000004,-0.003404,-0.0042439999999999995,0.001152,-22.25,25.870001000000002,-21.75,2d
2019-07-12_142820:100,-0.36044299999999996,-0.063538,-0.338593,-0.002,-0.0025960000000000002,0.000481,-22.25,25.870001000000002,-21.75,2d
2019-07-12_142820:120,-0.352325,-0.05438200000000001,-0.338593,-0.0024879999999999998,-0.001498,-0.0007700000000000001,-22.25,25.870001000000002,-21.75,2d
2019-07-12_142820:140,-0.342163,-0.048279,-0.336548,-0.004533,-0.000857,-0.000129,-23.059998999999998,25.870001000000002,-22.559998999999998,2d
2019-07-12_142820:160,-0.341644,-0.052338,-0.334534,-0.007156999999999999,-0.0010400000000000001,0.002526,-23.059998999999998,25.870001000000002,-22.559998999999998,2d
2019-07-12_142820:180,-0.355377,-0.067596,-0.340118,-0.008683,-0.001955,0.004113,-23.059998999999998,26.25,-21.75,2d
2019-07-12_142820:200,-0.36044299999999996,-0.07421900000000001,-0.340118,-0.008958,-0.002322,0.0035020000000000003,-23.059998999999998,26.25,-21.75,2d
2019-07-12_142820:220,-0.368073,-0.079803,-0.344177,-0.007615,-0.0024129999999999998,0.002495,-23.059998999999998,26.25,-21.75,2d
2019-07-12_142820:240,-0.370636,-0.081848,-0.34317,-0.005601,-0.0022,0.002037,-22.68,25.870001000000002,-21.5,2d
2019-07-12_142820:260,-0.377228,-0.075226,-0.344696,-0.003617,-0.001955,0.001274,-22.68,25.870001000000002,-21.5,2d
2019-07-12_142820:280,-0.37112399999999995,-0.066589,-0.3396,-0.0028239999999999997,-0.000582,0.0007559999999999999,-22.25,26.25,-22.559998999999998,2d
2019-07-12_142820:300,-0.34875500000000004,-0.058441,-0.330475,-0.003068,0.001157,0.000542,-22.25,26.25,-22.559998999999998,2d
2019-07-12_142820:320,-0.342163,-0.053863999999999995,-0.32995599999999997,-0.004533,0.0015539999999999998,0.000542,-22.25,26.25,-22.559998999999998,2d
2019-07-12_142820:340,-0.33197,-0.053375,-0.323853,-0.006822,0.001493,0.001274,-22.0,26.25,-21.75,2d
2019-07-12_142820:360,-0.338074,-0.058960000000000005,-0.32486,-0.008622,0.000272,0.002526,-22.0,26.25,-21.75,2d
2019-07-12_142820:380,-0.3508,-0.071686,-0.331482,-0.009477,-0.0016809999999999998,0.002373,-22.0,26.25,-21.5,2d
2019-07-12_142820:400,-0.358429,-0.076752,-0.334534,-0.008622,-0.003878,0.00161,-22.0,26.25,-21.5,2d
2019-07-12_142820:420,-0.37011700000000003,-0.08081100000000001,-0.34063699999999997,-0.0067,-0.005068,0.0014880000000000002,-22.0,26.25,-21.5,2d
2019-07-12_142820:440,-0.381317,-0.077271,-0.34368899999999997,-0.004472,-0.004855,0.001732,-23.059998999999998,26.25,-21.75,2d
2019-07-12_142820:460,-0.379791,-0.07016,-0.342163,-0.002793,-0.00339,0.001549,-23.059998999999998,26.25,-21.75,2d
2019-07-12_142820:480,-0.372162,-0.059479,-0.336548,-0.002427,-0.000918,0.001152,-23.059998999999998,25.870001000000002,-22.18,2d
2019-07-12_142820:500,-0.341644,-0.050323,-0.327911,-0.0036780000000000003,0.0010960000000000002,0.000145,-23.059998999999998,25.870001000000002,-22.18,2d
2019-07-12_142820:520,-0.335022,-0.048279,-0.32843,-0.006181,0.0010960000000000002,2.3e-05,-23.059998999999998,25.870001000000002,-22.18,2d
2019-07-12_142820:540,-0.337067,-0.05285599999999999,-0.327423,-0.008897,0.000272,0.0016710000000000002,-23.059998999999998,26.559998999999998,-21.75,2d
2019-07-12_142820:560,-0.344696,-0.064545,-0.330963,-0.010423,-0.001864,0.003258,-23.059998999999998,26.559998999999998,-21.75,2d
2019-07-12_142820:580,-0.361481,-0.076752,-0.338074,-0.01027,-0.003542,0.0037770000000000004,-23.5,25.870001000000002,-22.559998999999998,2d
2019-07-12_142820:600,-0.373688,-0.083374,-0.34265100000000004,-0.008286,-0.004855,0.003228,-23.5,25.870001000000002,-22.559998999999998,2d
2019-07-12_142820:620,-0.381317,-0.081848,-0.346222,-0.005386999999999999,-0.004336,0.002709,-23.5,25.870001000000002,-22.559998999999998,2d
2019-07-12_142820:640,-0.382812,-0.074738,-0.34317,-0.003129,-0.00281,0.0023120000000000003,-22.25,25.870001000000002,-21.5,2d
2019-07-12_142820:660,-0.374695,-0.066589,-0.339111,-0.0018170000000000003,-0.000643,0.002037,-22.25,25.870001000000002,-21.5,2d
2019-07-12_142820:680,-0.352325,-0.055908000000000006,-0.331482,-0.00203,0.0010960000000000002,0.001,-23.059998999999998,25.870001000000002,-21.0,2d
2019-07-12_142820:700,-0.340118,-0.047791,-0.327423,-0.004136,0.002225,-0.000709,-23.059998999999998,25.870001000000002,-21.0,2d
2019-07-12_142820:720,-0.33197,-0.048279,-0.323853,-0.007035,0.0016760000000000002,8.4e-05,-23.059998999999998,25.870001000000002,-21.0,2d
2019-07-12_142820:740,-0.336548,-0.056427,-0.326385,-0.009812000000000001,0.000303,0.002526,-23.5,25.559998999999998,-21.5,2d
2019-07-12_142820:760,-0.350281,-0.070648,-0.331482,-0.011613,-0.001925,0.0033799999999999998,-23.5,25.559998999999998,-21.5,2d
2019-07-12_142820:780,-0.358917,-0.07928500000000001,-0.335541,-0.011064000000000001,-0.004,0.002587,-23.059998999999998,26.559998999999998,-22.559998999999998,2d
2019-07-12_142820:800,-0.374695,-0.08590700000000001,-0.341644,-0.008683,-0.005068,0.0017629999999999998,-23.059998999999998,26.559998999999998,-22.559998999999998,2d
2019-07-12_142820:820,-0.383331,-0.084381,-0.342163,-0.005784,-0.005068,0.001396,-23.059998999999998,26.559998999999998,-22.559998999999998,2d
2019-07-12_142820:840,-0.378265,-0.073212,-0.34265100000000004,-0.003221,-0.003542,0.000878,-23.059998999999998,25.870001000000002,-21.75,2d
2019-07-12_142820:860,-0.365021,-0.063019,-0.338074,-0.001939,-0.001315,0.000542,-23.059998999999998,25.870001000000002,-21.75,2d
2019-07-12_142820:880,-0.344696,-0.048798,-0.334015,-0.002152,0.000303,-0.000892,-22.25,25.559998999999998,-22.18,2d
2019-07-12_142820:900,-0.33758499999999997,-0.044219999999999995,-0.33197,-0.004533,0.000883,-0.001655,-22.25,25.559998999999998,-22.18,2d
2019-07-12_142820:920,-0.33605999999999997,-0.049805,-0.329437,-0.007279000000000001,0.000669,0.000267,-22.25,25.559998999999998,-22.18,2d
2019-07-12_142820:940,-0.342163,-0.061005,-0.33197,-0.009599,-0.000521,0.002434,-23.75,26.25,-21.5,2d
2019-07-12_142820:960,-0.358429,-0.07421900000000001,-0.336548,-0.010087,-0.002352,0.002709,-23.75,26.25,-21.5,2d
2019-07-12_142820:980,-0.361481,-0.079803,-0.339111,-0.008409,-0.0036030000000000003,0.0030440000000000003,-23.75,26.25,-21.75,2d
2019-07-12_142821:000,-0.377228,-0.083862,-0.342163,-0.005448,-0.004122,0.0030440000000000003,-23.75,26.25,-21.75,2d
2019-07-12_142821:020,-0.375214,-0.07928500000000001,-0.341125,-0.002732,-0.0036030000000000003,0.002983,-23.75,26.25,-21.75,2d
2019-07-12_142821:040,-0.37011700000000003,-0.067596,-0.341644,-0.00081,-0.002718,0.002098,-23.059998999999998,25.870001000000002,-21.75,2d
2019-07-12_142821:060,-0.360962,-0.057953,-0.33605999999999997,-0.000962,-0.0011619999999999998,0.000145,-23.059998999999998,25.870001000000002,-21.75,2d
2019-07-12_142821:080,-0.341125,-0.049316000000000006,-0.334534,-0.004075,0.000883,-0.0007700000000000001,-22.25,25.870001000000002,-22.18,2d
2019-07-12_142821:100,-0.337067,-0.050842,-0.330475,-0.00554,0.001401,2.3e-05,-22.25,25.870001000000002,-22.18,2d
2019-07-12_142821:120,-0.340118,-0.061005,-0.33197,-0.0077069999999999994,0.000883,0.0014269999999999999,-22.25,25.870001000000002,-22.18,2d
2019-07-12_142821:140,-0.346222,-0.068634,-0.334534,-0.008836,-0.0010400000000000001,0.001335,-23.059998999999998,26.25,-22.559998999999998,2d
2019-07-12_142821:160,-0.361969,-0.075745,-0.336548,-0.007431999999999999,-0.00339,0.000481,-23.059998999999998,26.25,-22.559998999999998,2d
2019-07-12_142821:180,-0.368591,-0.076263,-0.341125,-0.005448,-0.0036030000000000003,8.4e-05,-23.059998999999998,25.559998999999998,-21.0,2d
2019-07-12_142821:200,-0.377228,-0.070648,-0.341125,-0.003617,-0.003268,-0.000312,-23.059998999999998,25.559998999999998,-21.0,2d
2019-07-12_142821:220,-0.375702,-0.065063,-0.340118,-0.002732,-0.002139,-0.000251,-23.059998999999998,25.559998999999998,-21.0,2d
2019-07-12_142821:240,-0.35943600000000003,-0.05438200000000001,-0.335541,-0.0024879999999999998,-0.0007650000000000001,-0.0007700000000000001,-22.68,26.559998999999998,-19.75,2d
2019-07-12_142821:260,-0.349792,-0.046752999999999996,-0.32995599999999997,-0.004411,0.000822,-0.001259,-22.68,26.559998999999998,-19.75,2d
2019-07-12_142821:280,-0.33197,-0.041168,-0.325897,-0.006944,0.0010960000000000002,0.000634,-23.059998999999998,26.559998999999998,-22.18,2d
2019-07-12_142821:300,-0.33300799999999997,-0.046752999999999996,-0.324371,-0.009202,8.9e-05,0.002587,-23.059998999999998,26.559998999999998,-22.18,2d
2019-07-12_142821:320,-0.345215,-0.056427,-0.328949,-0.011276999999999999,-0.002078,0.0021899999999999997,-23.059998999999998,26.559998999999998,-22.18,2d
2019-07-12_142821:340,-0.354858,-0.06405599999999999,-0.333496,-0.011337999999999999,-0.004458,0.002098,-23.5,25.559998999999998,-19.75,2d
2019-07-12_142821:360,-0.36911,-0.073212,-0.340118,-0.009415999999999999,-0.006319,0.003167,-23.5,25.559998999999998,-19.75,2d
2019-07-12_142821:380,-0.379272,-0.076752,-0.34317,-0.006486,-0.006319,0.004021,-23.5,25.18,-22.18,2d
2019-07-12_142821:400,-0.385864,-0.07421900000000001,-0.345215,-0.003861,-0.004672,0.004692,-23.5,25.18,-22.18,2d
2019-07-12_142821:420,-0.37674,-0.068634,-0.342163,-0.001695,-0.0022,0.005089,-23.5,25.18,-22.18,2d
2019-07-12_142821:440,-0.355896,-0.057953,-0.33605999999999997,-0.0016640000000000001,-3.3e-05,0.0035020000000000003,-23.059998999999998,25.559998999999998,-22.18,2d
2019-07-12_142821:460,-0.34368899999999997,-0.048798,-0.335022,-0.0036780000000000003,0.001218,0.002495,-23.059998999999998,25.559998999999998,-22.18,2d
2019-07-12_142821:480,-0.335541,-0.046265,-0.330475,-0.006425,0.001005,0.003655,-23.5,25.559998999999998,-21.75,2d
2019-07-12_142821:500,-0.338074,-0.05438200000000001,-0.32995599999999997,-0.009141,-0.000643,0.004906000000000001,-23.5,25.559998999999998,-21.75,2d
2019-07-12_142821:520,-0.35131799999999996,-0.068634,-0.336548,-0.010423,-0.002535,0.004296,-23.5,25.559998999999998,-21.75,2d
2019-07-12_142821:540,-0.359955,-0.075745,-0.340118,-0.009873,-0.0042439999999999995,0.003228,-23.75,25.559998999999998,-21.5,2d
2019-07-12_142821:560,-0.37316900000000003,-0.081848,-0.34317,-0.007554000000000001,-0.004733,0.0030440000000000003,-23.75,25.559998999999998,-21.5,2d
2019-07-12_142821:580,-0.379791,-0.082336,-0.34570300000000004,-0.0049299999999999995,-0.004,0.002648,-22.25,25.559998999999998,-22.559998999999998,2d
2019-07-12_142821:600,-0.375214,-0.074738,-0.341125,-0.002671,-0.002139,0.0019149999999999998,-22.25,25.559998999999998,-22.559998999999998,2d
2019-07-12_142821:620,-0.361481,-0.067108,-0.338593,-0.0014810000000000001,2.8000000000000003e-05,0.000695,-22.25,25.559998999999998,-22.559998999999998,2d
2019-07-12_142821:640,-0.344177,-0.053863999999999995,-0.332489,-0.002397,0.000883,-0.000312,-23.5,25.870001000000002,-22.18,2d
2019-07-12_142821:660,-0.335541,-0.047272,-0.330475,-0.004533,0.000883,0.000878,-23.5,25.870001000000002,-22.18,2d
2019-07-12_142821:680,-0.334015,-0.052338,-0.330963,-0.006973999999999999,-3.3e-05,0.0029219999999999997,-23.5,25.559998999999998,-20.559998999999998,2d
2019-07-12_142821:700,-0.34265100000000004,-0.05996699999999999,-0.332489,-0.008836,-0.002016,0.0030440000000000003,-23.5,25.559998999999998,-20.559998999999998,2d
2019-07-12_142821:720,-0.35638400000000003,-0.071686,-0.339111,-0.009141,-0.003878,0.002037,-23.5,25.559998999999998,-20.559998999999998,2d
2019-07-12_142821:740,-0.365021,-0.076263,-0.34265100000000004,-0.0076760000000000005,-0.005251,0.0021899999999999997,-22.25,25.870001000000002,-20.559998999999998,2d
2019-07-12_142821:760,-0.382324,-0.078278,-0.34570300000000004,-0.005386999999999999,-0.00458,0.0029219999999999997,-22.25,25.870001000000002,-20.559998999999998,2d
2019-07-12_142821:780,-0.378754,-0.076752,-0.34368899999999997,-0.003556,-0.0022,0.002983,-22.68,26.25,-21.0,2d
2019-07-12_142821:800,-0.363007,-0.067108,-0.33758499999999997,-0.0024879999999999998,2.8000000000000003e-05,0.002434,-22.68,26.25,-21.0,2d
2019-07-12_142821:820,-0.345215,-0.05996699999999999,-0.335022,-0.002793,0.000669,0.001335,-22.68,26.25,-21.0,2d
2019-07-12_142821:840,-0.34063699999999997,-0.051330999999999995,-0.335022,-0.004654999999999999,2.8000000000000003e-05,0.00103,-22.25,25.870001000000002,-21.0,2d
2019-07-12_142821:860,-0.3396,-0.051330999999999995,-0.33197,-0.007095999999999999,-0.00043,0.0028309999999999997,-22.25,25.870001000000002,-21.0,2d
2019-07-12_142821:880,-0.345215,-0.063019,-0.334015,-0.008958,-0.001315,0.004052,-22.68,25.870001000000002,-22.559998999999998,2d
2019-07-12_142821:900,-0.353851,-0.071686,-0.33758499999999997,-0.009415999999999999,-0.002322,0.003105,-22.68,25.870001000000002,-22.559998999999998,2d
2019-07-12_142821:920,-0.361481,-0.078796,-0.3396,-0.0085,-0.003054,0.0016710000000000002,-22.68,25.870001000000002,-22.559998999999998,2d
2019-07-12_142821:940,-0.36706500000000003,-0.080322,-0.34265100000000004,-0.006242,-0.003054,0.0014269999999999999,-22.25,26.559998999999998,-21.75,2d
2019-07-12_142821:960,-0.373688,-0.07775900000000001,-0.34317,-0.004075,-0.0025960000000000002,0.00161,-22.25,26.559998999999998,-21.75,2d
2019-07-12_142821:980,-0.370636,-0.072693,-0.340118,-0.002427,-0.001315,0.001335,-22.25,25.559998999999998,-22.18,2d
2019-07-12_142822:000,-0.355377,-0.06149299999999999,-0.334015,-0.002152,-3.3e-05,0.000481,-22.25,25.559998999999998,-22.18,2d
2019-07-12_142822:020,-0.348267,-0.053863999999999995,-0.335541,-0.003404,0.000272,-9.9e-05,-22.25,25.559998999999998,-22.18,2d
2019-07-12_142822:040,-0.34368899999999997,-0.049805,-0.329437,-0.0056619999999999995,0.000608,0.001,-22.68,25.870001000000002,-21.5,2d
2019-07-12_142822:060,-0.34063699999999997,-0.054901,-0.329437,-0.007829000000000001,0.00015,0.0028309999999999997,-22.68,25.870001000000002,-21.5,2d
2019-07-12_142822:080,-0.34674099999999997,-0.067108,-0.331482,-0.009233,-0.001498,0.002648,-22.68,25.18,-22.18,2d
2019-07-12_142822:100,-0.354858,-0.072174,-0.336548,-0.008836,-0.003542,0.001213,-22.68,25.18,-22.18,2d
2019-07-12_142822:120,-0.364532,-0.075745,-0.339111,-0.0072180000000000005,-0.004458,0.001213,-22.68,25.18,-22.18,2d
2019-07-12_142822:140,-0.377747,-0.077271,-0.342163,-0.005052,-0.004519,0.002037,-22.25,26.559998999999998,-20.559998999999998,2d
2019-07-12_142822:160,-0.371643,-0.072174,-0.338593,-0.003282,-0.00281,0.0023120000000000003,-22.25,26.559998999999998,-20.559998999999998,2d
2019-07-12_142822:180,-0.35638400000000003,-0.05996699999999999,-0.335022,-0.002336,-0.000857,0.001,-23.5,26.25,-21.0,2d
2019-07-12_142822:200,-0.347748,-0.052338,-0.33300799999999997,-0.003282,-9.4e-05,0.000298,-23.5,26.25,-21.0,2d
2019-07-12_142822:220,-0.340118,-0.050323,-0.32995599999999997,-0.005326,8.9e-05,0.002251,-23.5,26.25,-21.0,2d
2019-07-12_142822:240,-0.34368899999999997,-0.056427,-0.331482,-0.007615,-0.001101,0.003899,-22.68,26.25,-22.18,2d
2019-07-12_142822:260,-0.352325,-0.068634,-0.33758499999999997,-0.009019,-0.002657,0.003228,-22.68,26.25,-22.18,2d
2019-07-12_142822:280,-0.360962,-0.07421900000000001,-0.341644,-0.008958,-0.003725,0.0021899999999999997,-22.68,26.25,-21.75,2d
2019-07-12_142822:300,-0.37011700000000003,-0.078796,-0.341644,-0.0072180000000000005,-0.004122,0.002037,-22.68,26.25,-21.75,2d
2019-07-12_142822:320,-0.378754,-0.07928500000000001,-0.34368899999999997,-0.005204,-0.003481,0.002098,-22.68,26.25,-21.75,2d
2019-07-12_142822:340,-0.375214,-0.071167,-0.34063699999999997,-0.0035259999999999996,-0.0017420000000000003,0.002098,-23.059998999999998,25.870001000000002,-21.5,2d
2019-07-12_142822:360,-0.361481,-0.062012,-0.33605999999999997,-0.002671,0.000364,0.001213,-23.059998999999998,25.870001000000002,-21.5,2d
2019-07-12_142822:380,-0.344696,-0.051849,-0.330963,-0.003343,0.001401,-0.000129,-22.68,25.559998999999998,-21.5,2d
2019-07-12_142822:400,-0.33605999999999997,-0.047791,-0.327911,-0.005845,0.001218,0.000817,-22.68,25.559998999999998,-21.5,2d
2019-07-12_142822:420,-0.336548,-0.054901,-0.327423,-0.007951,0.000547,0.0034409999999999996,-22.68,25.559998999999998,-21.5,2d
2019-07-12_142822:440,-0.3396,-0.06405599999999999,-0.32995599999999997,-0.009538,-0.001101,0.004357,-22.0,26.25,-21.0,2d
2019-07-12_142822:460,-0.354858,-0.075745,-0.337067,-0.00969,-0.00339,0.003228,-22.0,26.25,-21.0,2d
2019-07-12_142822:480,-0.361969,-0.081848,-0.340118,-0.008012,-0.004794,0.002709,-23.5,25.870001000000002,-22.559998999999998,2d
2019-07-12_142822:500,-0.37674,-0.083374,-0.341644,-0.005326,-0.005251,0.002983,-23.5,25.870001000000002,-22.559998999999998,2d
2019-07-12_142822:520,-0.378754,-0.07928500000000001,-0.34317,-0.003007,-0.003848,0.002373,-23.5,25.870001000000002,-22.559998999999998,2d
2019-07-12_142822:540,-0.37011700000000003,-0.067596,-0.33605999999999997,-0.001756,-0.0017420000000000003,0.001549,-23.75,26.559998999999998,-21.5,2d
2019-07-12_142822:560,-0.353851,-0.058441,-0.334015,-0.002091,-9.4e-05,0.000817,-23.75,26.559998999999998,-21.5,2d
2019-07-12_142822:580,-0.338593,-0.047791,-0.33197,-0.004014,-0.000246,0.000145,-22.25,25.870001000000002,-23.0,2d
2019-07-12_142822:600,-0.336548,-0.045226999999999996,-0.33197,-0.007156999999999999,-0.0009789999999999998,0.0009390000000000001,-22.25,25.870001000000002,-23.0,2d
2019-07-12_142822:620,-0.341125,-0.057953,-0.335022,-0.009965,-0.001925,0.003655,-22.25,25.870001000000002,-23.0,2d
2019-07-12_142822:640,-0.347748,-0.07016,-0.33758499999999997,-0.011276999999999999,-0.002993,0.00457,-23.059998999999998,25.870001000000002,-22.18,2d
2019-07-12_142822:660,-0.356903,-0.081848,-0.341125,-0.010758,-0.004183,0.0028309999999999997,-23.059998999999998,25.870001000000002,-22.18,2d
2019-07-12_142822:680,-0.365021,-0.084381,-0.344696,-0.008409,-0.005007,0.00161,-23.5,25.870001000000002,-21.059998999999998,2d
2019-07-12_142822:700,-0.377747,-0.083374,-0.347229,-0.005326,-0.004672,0.0014880000000000002,-23.5,25.870001000000002,-21.059998999999998,2d
2019-07-12_142822:720,-0.378265,-0.078278,-0.345215,-0.002671,-0.003207,0.0014269999999999999,-23.5,25.870001000000002,-21.059998999999998,2d
2019-07-12_142822:740,-0.359955,-0.064545,-0.3396,-0.0014810000000000001,-0.0012230000000000001,0.0009390000000000001,-21.559998999999998,26.25,-21.5,2d
2019-07-12_142822:760,-0.346222,-0.053863999999999995,-0.335541,-0.0018780000000000001,2.8000000000000003e-05,-3.8e-05,-21.559998999999998,26.25,-21.5,2d
2019-07-12_142822:780,-0.335022,-0.044739,-0.331482,-0.004472,0.000303,-3.8e-05,-23.5,25.559998999999998,-21.75,2d
2019-07-12_142822:800,-0.337067,-0.045745999999999995,-0.327911,-0.007554000000000001,-0.000124,0.002251,-23.5,25.559998999999998,-21.75,2d
2019-07-12_142822:820,-0.335022,-0.061005,-0.331482,-0.01027,-0.001315,0.003899,-23.5,25.559998999999998,-21.75,2d
2019-07-12_142822:840,-0.34875500000000004,-0.072174,-0.338074,-0.011276999999999999,-0.003725,0.002434,-23.059998999999998,25.870001000000002,-21.059998999999998,2d
2019-07-12_142822:860,-0.363007,-0.078278,-0.34368899999999997,-0.010087,-0.005801,0.001,-23.059998999999998,25.870001000000002,-21.059998999999998,2d
2019-07-12_142822:880,-0.37265,-0.081848,-0.348267,-0.0074930000000000005,-0.006136,0.00161,-22.0,25.870001000000002,-22.18,2d
2019-07-12_142822:900,-0.379272,-0.078796,-0.349274,-0.004594,-0.0049770000000000005,0.002037,-22.0,25.870001000000002,-22.18,2d
2019-07-12_142822:920,-0.37316900000000003,-0.070648,-0.34875500000000004,-0.002397,-0.0024739999999999996,0.001854,-22.0,25.870001000000002,-22.18,2d
2019-07-12_142822:940,-0.35436999999999996,-0.058441,-0.342163,-0.0018780000000000001,-0.000307,0.000878,-22.25,25.559998999999998,-21.75,2d
2019-07-12_142822:960,-0.34317,-0.050323,-0.338074,-0.003343,0.000822,0.000542,-22.25,25.559998999999998,-21.75,2d
2019-07-12_142822:980,-0.334015,-0.049316000000000006,-0.33300799999999997,-0.005906000000000001,0.000883,0.0019149999999999998,-23.059998999999998,25.559998999999998,-21.5,2d
2019-07-12_142823:000,-0.335541,-0.054901,-0.330963,-0.008225,0.000272,0.0033799999999999998,-23.059998999999998,25.559998999999998,-21.5,2d
2019-07-12_142823:020,-0.345215,-0.067596,-0.335022,-0.009873,-0.0015890000000000001,0.002526,-23.059998999999998,25.559998999999998,-21.5,2d
2019-07-12_142823:040,-0.352844,-0.073212,-0.338074,-0.009538,-0.00339,0.001549,-22.0,25.559998999999998,-22.18,2d
2019-07-12_142823:060,-0.36349499999999996,-0.07775900000000001,-0.34317,-0.007829000000000001,-0.004519,0.0017629999999999998,-22.0,25.559998999999998,-22.18,2d
2019-07-12_142823:080,-0.367584,-0.075745,-0.344177,-0.005784,-0.00458,0.001732,-22.68,25.559998999999998,-22.559998999999998,2d
2019-07-12_142823:100,-0.365021,-0.068115,-0.34265100000000004,-0.004136,-0.0034509999999999996,0.0014269999999999999,-22.68,25.559998999999998,-22.559998999999998,2d
2019-07-12_142823:120,-0.353851,-0.06149299999999999,-0.3396,-0.003282,-0.001864,0.000298,-22.68,25.559998999999998,-22.559998999999998,2d
2019-07-12_142823:140,-0.341125,-0.050323,-0.33758499999999997,-0.003861,-0.001315,-0.000312,-21.559998999999998,25.18,-21.0,2d
2019-07-12_142823:160,-0.334015,-0.047791,-0.337067,-0.0056619999999999995,-0.001101,0.001152,-21.559998999999998,25.18,-21.0,2d
2019-07-12_142823:180,-0.338074,-0.055908000000000006,-0.341644,-0.007431999999999999,-0.002322,0.003228,-22.68,25.870001000000002,-21.0,2d
2019-07-12_142823:200,-0.350281,-0.064545,-0.34317,-0.008561,-0.003481,0.003258,-22.68,25.870001000000002,-21.0,2d
2019-07-12_142823:220,-0.363007,-0.0737,-0.34875500000000004,-0.00847,-0.004336,0.002587,-22.68,25.870001000000002,-21.0,2d
2019-07-12_142823:240,-0.37316900000000003,-0.076263,-0.35180700000000004,-0.006822,-0.004336,0.0028309999999999997,-22.0,25.870001000000002,-22.18,2d
2019-07-12_142823:260,-0.372162,-0.075745,-0.350281,-0.0049299999999999995,-0.0027489999999999997,0.00277,-22.0,25.870001000000002,-22.18,2d
2019-07-12_142823:280,-0.374176,-0.07016,-0.346222,-0.003556,-0.000826,0.002251,-22.0,25.559998999999998,-23.370001000000002,2d
2019-07-12_142823:300,-0.35131799999999996,-0.06253099999999999,-0.338074,-0.003129,0.000822,0.0014880000000000002,-22.0,25.559998999999998,-23.370001000000002,2d
2019-07-12_142823:320,-0.340118,-0.054901,-0.334015,-0.0036780000000000003,0.0010960000000000002,-9.9e-05,-22.0,25.559998999999998,-23.370001000000002,2d
2019-07-12_142823:340,-0.333496,-0.045745999999999995,-0.334015,-0.005845,2.8000000000000003e-05,-0.001045,-21.559998999999998,25.870001000000002,-21.75,2d
2019-07-12_142823:360,-0.330475,-0.050323,-0.333496,-0.008348000000000001,-0.0007650000000000001,0.0023120000000000003,-21.559998999999998,25.870001000000002,-21.75,2d
2019-07-12_142823:380,-0.34063699999999997,-0.067596,-0.337067,-0.009477,-0.0018030000000000001,0.005577,-22.25,26.559998999999998,-22.18,2d
2019-07-12_142823:400,-0.352844,-0.074738,-0.34063699999999997,-0.009599,-0.003146,0.004418,-22.25,26.559998999999998,-22.18,2d
2019-07-12_142823:420,-0.364014,-0.08081100000000001,-0.34674099999999997,-0.008164,-0.004061,0.0023120000000000003,-22.25,26.559998999999998,-22.18,2d
2019-07-12_142823:440,-0.37112399999999995,-0.081848,-0.349792,-0.005601,-0.003848,0.002434,-22.25,25.870001000000002,-22.18,2d
2019-07-12_142823:460,-0.376221,-0.077271,-0.348267,-0.003007,-0.002657,0.00277,-22.25,25.870001000000002,-22.18,2d
2019-07-12_142823:480,-0.367584,-0.069641,-0.344177,-0.002091,-0.0009789999999999998,0.0016710000000000002,-22.68,25.559998999999998,-22.559998999999998,2d
2019-07-12_142823:500,-0.347229,-0.056427,-0.336548,-0.00203,0.000608,-0.000251,-22.68,25.559998999999998,-22.559998999999998,2d
2019-07-12_142823:520,-0.332489,-0.043701,-0.334534,-0.003861,0.0007610000000000001,-0.001625,-22.68,25.559998999999998,-22.559998999999998,2d
2019-07-12_142823:540,-0.334015,-0.044739,-0.33197,-0.006883,0.000425,0.000145,-22.68,26.25,-22.18,2d
2019-07-12_142823:560,-0.332489,-0.057434000000000006,-0.332489,-0.009629,-0.000124,0.003563,-22.68,26.25,-22.18,2d
2019-07-12_142823:580,-0.345215,-0.069122,-0.34063699999999997,-0.011399,-0.002352,0.004052,-23.059998999999998,25.870001000000002,-21.75,2d
2019-07-12_142823:600,-0.363007,-0.077271,-0.345215,-0.011003,-0.004458,0.002129,-23.059998999999998,25.870001000000002,-21.75,2d
2019-07-12_142823:620,-0.367584,-0.082855,-0.34875500000000004,-0.008744,-0.005129,0.002434,-23.059998999999998,25.870001000000002,-21.75,2d
2019-07-12_142823:640,-0.380798,-0.083374,-0.3508,-0.00554,-0.004672,0.003228,-22.68,25.870001000000002,-22.559998999999998,2d
