timestamp,AccX,AccY,AccZ,GyroX,GyroY,GyroZ,MagX,MagY,MagZ,Activity
2019-07-12_111514:300,-0.42147799999999996,0.027954000000000003,-0.251648,-0.004581,-0.000995,0.002107,-29.370001000000002,20.559998999999998,-20.559998999999998,2c
2019-07-12_111514:320,-0.42248500000000005,0.025908999999999998,-0.24963400000000002,-0.004612,-0.0025210000000000002,0.0025039999999999997,-29.370001000000002,20.18,-21.75,2c
2019-07-12_111514:340,-0.42605600000000005,0.019318000000000002,-0.25012199999999996,-0.00394,-0.004108,0.003114,-29.370001000000002,20.18,-21.75,2c
2019-07-12_111514:360,-0.420959,0.013702,-0.250641,-0.002536,-0.005451,0.004182,-29.370001000000002,20.18,-21.75,2c
2019-07-12_111514:380,-0.425018,0.0035399999999999997,-0.248108,-0.000156,-0.007220999999999999,0.004457,-28.68,20.5,-21.75,2c
2019-07-12_111514:400,-0.432159,-0.000488,-0.25012199999999996,0.0033840000000000003,-0.008716,0.003633,-28.68,20.5,-21.75,2c
2019-07-12_111514:420,-0.432159,-0.005065999999999999,-0.250641,0.007504,-0.009509,0.002382,-29.75,20.18,-22.18,2c
2019-07-12_111514:440,-0.42858900000000005,-0.0055850000000000006,-0.248108,0.012448,-0.009113,0.000795,-29.75,20.18,-22.18,2c
2019-07-12_111514:460,-0.432648,-0.0030210000000000002,-0.251648,0.016903,-0.009723,-0.001219,-29.75,20.18,-22.18,2c
2019-07-12_111514:480,-0.42453,0.0,-0.25317399999999995,0.020291,-0.009876000000000001,-0.002806,-29.370001000000002,20.559998999999998,-20.559998999999998,2c
2019-07-12_111514:500,-0.423004,0.008636,-0.258759,0.022427000000000002,-0.011035,-0.003386,-29.370001000000002,20.559998999999998,-20.559998999999998,2c
2019-07-12_111514:520,-0.41842700000000005,0.012177,-0.263855,0.024136,-0.012165,-0.003996,-29.0,20.5,-21.0,2c
2019-07-12_111514:540,-0.423492,0.018799,-0.272491,0.024472,-0.013446000000000001,-0.005644,-29.0,20.5,-21.0,2c
2019-07-12_111514:560,-0.42858900000000005,0.020325,-0.276062,0.02435,-0.013843000000000001,-0.00659,-29.0,20.5,-21.0,2c
2019-07-12_111514:580,-0.43518100000000004,0.018799,-0.282166,0.023739,-0.012378,-0.006377000000000001,-28.68,21.68,-20.559998999999998,2c
2019-07-12_111514:600,-0.44027700000000003,0.016266,-0.284698,0.022824,-0.009204,-0.00659,-28.68,21.68,-20.559998999999998,2c
2019-07-12_111514:620,-0.44027700000000003,0.012695,-0.28369099999999997,0.021023,-0.001117,-0.009307,-29.0,21.25,-20.18,2c
2019-07-12_111514:640,-0.43011499999999997,0.014221000000000001,-0.279633,0.019955,0.001935,-0.009703,-29.0,21.25,-20.18,2c
2019-07-12_111514:660,-0.421967,0.016753999999999998,-0.272003,0.017575,0.006756,-0.008971,-29.0,21.25,-20.18,2c
2019-07-12_111514:680,-0.417389,0.021332,-0.261322,0.014187,0.009564,-0.008177,-29.75,20.870001000000002,-18.559998999999998,2c
2019-07-12_111514:700,-0.41384899999999997,0.029480000000000003,-0.253693,0.007504,0.007916,-0.009184000000000001,-29.75,20.870001000000002,-18.559998999999998,2c
2019-07-12_111514:720,-0.41232299999999994,0.035583,-0.250641,0.002896,0.00404,-0.0101,-30.5,21.0,-19.0,2c
2019-07-12_111514:740,-0.41842700000000005,0.047272,-0.251648,-0.002018,-0.0008119999999999999,-0.010709999999999999,-30.5,21.0,-19.0,2c
2019-07-12_111514:760,-0.420959,0.053863999999999995,-0.25521900000000003,-0.0065650000000000005,-0.0038640000000000002,-0.010039,-30.5,21.0,-19.0,2c
2019-07-12_111514:780,-0.421967,0.057953,-0.25521900000000003,-0.010806999999999999,-0.006397,-0.007445,-30.870001000000002,21.75,-18.559998999999998,2c
2019-07-12_111514:800,-0.42858900000000005,0.055908000000000006,-0.258759,-0.014927000000000001,-0.007465,-0.004058,-30.870001000000002,21.75,-18.559998999999998,2c
2019-07-12_111514:820,-0.43823199999999995,0.052338,-0.257751,-0.017887,-0.006548999999999999,0.000795,-31.18,21.25,-18.18,2c
2019-07-12_111514:840,-0.434174,0.048798,-0.254211,-0.020084,-0.004321,0.005525,-31.18,21.25,-18.18,2c
2019-07-12_111514:860,-0.43621800000000005,0.040649,-0.251648,-0.021671,-0.00185,0.009981,-31.18,21.25,-18.18,2c
2019-07-12_111514:880,-0.433167,0.03302,-0.25216700000000003,-0.022494999999999998,-0.00038500000000000003,0.013612,-31.18,20.68,-19.370001000000002,2c
2019-07-12_111514:900,-0.43011499999999997,0.024384,-0.246063,-0.022159,0.000256,0.01642,-31.18,20.68,-19.370001000000002,2c
2019-07-12_111514:920,-0.432648,0.016266,-0.248108,-0.02161,1.2e-05,0.018007,-30.870001000000002,19.5,-19.370001000000002,2c
2019-07-12_111514:940,-0.431122,0.007599,-0.246063,-0.020237,-0.000781,0.019197,-30.870001000000002,19.5,-19.370001000000002,2c
2019-07-12_111514:960,-0.429596,0.0030210000000000002,-0.24658200000000002,-0.018711000000000002,-0.001392,0.01941,-30.870001000000002,19.5,-19.370001000000002,2c
2019-07-12_111514:980,-0.43518100000000004,0.0,-0.245544,-0.016697,-0.0013310000000000002,0.018007,-30.5,20.870001000000002,-18.18,2c
2019-07-12_111515:000,-0.435699,0.0,-0.243011,-0.014988,-0.0008119999999999999,0.015413,-30.5,20.870001000000002,-18.18,2c
2019-07-12_111515:020,-0.435699,0.0,-0.245056,-0.013522999999999999,-0.000263,0.012758,-29.370001000000002,20.870001000000002,-20.18,2c
2019-07-12_111515:040,-0.43518100000000004,0.0035399999999999997,-0.242004,-0.011936,-4.9e-05,0.010957,-29.370001000000002,20.870001000000002,-20.18,2c
2019-07-12_111515:060,-0.432159,0.0055850000000000006,-0.242004,-0.010409999999999999,-0.00038500000000000003,0.009828,-29.370001000000002,20.870001000000002,-20.18,2c
2019-07-12_111515:080,-0.430634,0.009125,-0.242004,-0.009342,-0.001117,0.008638,-30.5,21.25,-19.0,2c
2019-07-12_111515:100,-0.433167,0.013702,-0.24096700000000001,-0.008823000000000001,-0.0014529999999999999,0.00818,-30.5,21.25,-19.0,2c
2019-07-12_111515:120,-0.43774399999999997,0.014221000000000001,-0.23895300000000003,-0.00867,-0.001575,0.008302,-31.559998999999998,20.870001000000002,-20.18,2c
2019-07-12_111515:140,-0.435699,0.013702,-0.23690799999999998,-0.008609,-0.001117,0.008454999999999999,-31.559998999999998,20.870001000000002,-20.18,2c
2019-07-12_111515:160,-0.43774399999999997,0.010162000000000001,-0.236389,-0.008091,-0.0008119999999999999,0.008119,-31.559998999999998,20.870001000000002,-20.18,2c
2019-07-12_111515:180,-0.43823199999999995,0.011687999999999999,-0.236389,-0.007755,-0.000995,0.0067150000000000005,-30.870001000000002,20.559998999999998,-19.0,2c
2019-07-12_111515:200,-0.43823199999999995,0.011687999999999999,-0.235382,-0.007084,-0.0014529999999999999,0.005739,-30.870001000000002,20.559998999999998,-19.0,2c
2019-07-12_111515:220,-0.43774399999999997,0.010651,-0.238434,-0.006687,-0.002704,0.006135,-30.5,21.25,-19.0,2c
2019-07-12_111515:240,-0.43774399999999997,0.013702,-0.237427,-0.0064730000000000005,-0.0032530000000000002,0.0069900000000000006,-30.5,21.25,-19.0,2c
2019-07-12_111515:260,-0.43823199999999995,0.014740000000000001,-0.23895300000000003,-0.006626000000000001,-0.004047,0.007112,-30.5,21.25,-19.0,2c
2019-07-12_111515:280,-0.43927,0.013213999999999998,-0.239441,-0.006809,-0.004169,0.007051000000000001,-30.059998999999998,20.559998999999998,-20.559998999999998,2c
2019-07-12_111515:300,-0.44384799999999996,0.014221000000000001,-0.23791500000000002,-0.007145,-0.003711,0.006044,-30.059998999999998,20.559998999999998,-20.559998999999998,2c
2019-07-12_111515:320,-0.445862,0.014740000000000001,-0.23791500000000002,-0.0076939999999999995,-0.0023989999999999997,0.005464,-29.75,20.870001000000002,-19.0,2c
2019-07-12_111515:340,-0.44891400000000004,0.016266,-0.23486300000000002,-0.008152,-0.000598,0.006654,-29.75,20.870001000000002,-19.0,2c
2019-07-12_111515:360,-0.447388,0.017273,-0.23486300000000002,-0.008762,0.00108,0.007997,-29.75,20.870001000000002,-19.0,2c
2019-07-12_111515:380,-0.44638100000000003,0.016753999999999998,-0.235382,-0.009342,0.002728,0.008119,-30.5,20.870001000000002,-19.370001000000002,2c
2019-07-12_111515:400,-0.443329,0.018799,-0.23233,-0.009739,0.003247,0.007387,-30.5,20.870001000000002,-19.370001000000002,2c
2019-07-12_111515:420,-0.440796,0.019318000000000002,-0.22979699999999997,-0.010288,0.0027890000000000002,0.007326000000000001,-31.559998999999998,21.25,-19.370001000000002,2c
2019-07-12_111515:440,-0.43774399999999997,0.017792,-0.226746,-0.010806999999999999,0.001843,0.007448000000000001,-31.559998999999998,21.25,-19.370001000000002,2c
2019-07-12_111515:460,-0.44281000000000004,0.015747,-0.22521999999999998,-0.011203,0.000866,0.007783,-31.559998999999998,21.25,-19.370001000000002,2c
2019-07-12_111515:480,-0.44638100000000003,0.015228,-0.224701,-0.011264,0.00047000000000000004,0.008119,-30.870001000000002,20.870001000000002,-17.870001000000002,2c
2019-07-12_111515:500,-0.44433599999999995,0.013213999999999998,-0.222687,-0.0116,0.000531,0.008333,-30.870001000000002,20.870001000000002,-17.870001000000002,2c
2019-07-12_111515:520,-0.44384799999999996,0.012177,-0.220642,-0.011814,0.00040899999999999997,0.00818,-30.870001000000002,20.870001000000002,-18.559998999999998,2c
2019-07-12_111515:540,-0.441803,0.012177,-0.22116100000000002,-0.012119,-4.9e-05,0.007905,-30.870001000000002,20.870001000000002,-18.559998999999998,2c
2019-07-12_111515:560,-0.44384799999999996,0.010651,-0.222687,-0.012058,-0.000598,0.0076,-30.870001000000002,20.870001000000002,-18.559998999999998,2c
2019-07-12_111515:580,-0.447906,0.011169,-0.22216799999999998,-0.011661,-0.001056,0.007112,-31.559998999999998,20.5,-18.559998999999998,2c
2019-07-12_111515:600,-0.447388,0.011169,-0.21859699999999999,-0.011326000000000001,-0.0009339999999999999,0.006470999999999999,-31.559998999999998,20.5,-18.559998999999998,2c
2019-07-12_111515:620,-0.44384799999999996,0.014740000000000001,-0.213013,-0.01099,-0.000781,0.006196,-29.370001000000002,20.870001000000002,-19.0,2c
2019-07-12_111515:640,-0.44384799999999996,0.016753999999999998,-0.213531,-0.010806999999999999,-0.001392,0.005739,-29.370001000000002,20.870001000000002,-19.0,2c
2019-07-12_111515:660,-0.43927,0.019318000000000002,-0.213013,-0.010532,-0.001789,0.005006,-29.370001000000002,20.870001000000002,-19.0,2c
2019-07-12_111515:680,-0.44638100000000003,0.020844,-0.21249400000000002,-0.010471,-0.002796,0.004396,-30.059998999999998,20.870001000000002,-18.18,2c
2019-07-12_111515:700,-0.444855,0.021851,-0.21505700000000003,-0.010471,-0.00307,0.004548,-30.059998999999998,20.870001000000002,-18.18,2c
2019-07-12_111515:720,-0.44638100000000003,0.019318000000000002,-0.21453899999999998,-0.010288,-0.004108,0.005311,-30.5,20.870001000000002,-18.18,2c
2019-07-12_111515:740,-0.45095799999999997,0.020325,-0.216583,-0.010074,-0.004718,0.005586,-30.5,20.870001000000002,-18.18,2c
2019-07-12_111515:760,-0.45196499999999995,0.017792,-0.21554600000000002,-0.009922,-0.0052369999999999995,0.0067150000000000005,-30.5,20.870001000000002,-18.18,2c
2019-07-12_111515:780,-0.452484,0.014740000000000001,-0.21759,-0.009556,-0.005298,0.008638,-29.75,20.559998999999998,-19.370001000000002,2c
2019-07-12_111515:800,-0.453491,0.009644,-0.21606399999999998,-0.009067,-0.005115,0.009248000000000001,-29.75,20.559998999999998,-19.370001000000002,2c
2019-07-12_111515:820,-0.45196499999999995,0.009125,-0.216583,-0.008426000000000001,-0.0045049999999999995,0.008058,-30.059998999999998,21.25,-20.18,2c
2019-07-12_111515:840,-0.449432,0.011687999999999999,-0.21606399999999998,-0.007633,-0.004169,0.0071730000000000006,-30.059998999999998,21.25,-20.18,2c
2019-07-12_111515:860,-0.44891400000000004,0.012695,-0.21554600000000002,-0.006962,-0.004229999999999999,0.006593000000000001,-30.059998999999998,21.25,-20.18,2c
2019-07-12_111515:880,-0.448425,0.012695,-0.21505700000000003,-0.006687,-0.004321,0.006074,-30.5,20.68,-20.18,2c
2019-07-12_111515:900,-0.44891400000000004,0.014221000000000001,-0.21554600000000002,-0.006626000000000001,-0.004993,0.0058,-30.5,20.68,-20.18,2c
2019-07-12_111515:920,-0.451477,0.013702,-0.21554600000000002,-0.0065650000000000005,-0.005054,0.005861,-30.5,21.0,-20.18,2c
2019-07-12_111515:940,-0.45043900000000003,0.014221000000000001,-0.213013,-0.0067480000000000005,-0.005115,0.005647,-30.5,21.0,-20.18,2c
2019-07-12_111515:960,-0.446899,0.013702,-0.21402,-0.0067480000000000005,-0.004779,0.005525,-30.5,21.0,-20.18,2c
2019-07-12_111515:980,-0.449432,0.011169,-0.21249400000000002,-0.006504,-0.004779,0.005678,-30.5,20.68,-19.370001000000002,2c
2019-07-12_111516:000,-0.44891400000000004,0.010651,-0.21048000000000003,-0.005771,-0.004961999999999999,0.004945000000000001,-30.5,20.68,-19.370001000000002,2c
2019-07-12_111516:020,-0.44384799999999996,0.012177,-0.20944200000000002,-0.005222,-0.005451,0.004732,-30.5,21.370001000000002,-19.75,2c
2019-07-12_111516:040,-0.445862,0.011169,-0.21148699999999998,-0.004398,-0.0066099999999999996,0.005678,-30.5,21.370001000000002,-19.75,2c
2019-07-12_111516:060,-0.44638100000000003,0.012695,-0.21453899999999998,-0.003879,-0.007923000000000001,0.006196,-30.5,21.370001000000002,-19.75,2c
2019-07-12_111516:080,-0.449432,0.013702,-0.21606399999999998,-0.00394,-0.008655,0.006441,-30.870001000000002,20.25,-19.370001000000002,2c
2019-07-12_111516:100,-0.452484,0.012177,-0.21911599999999998,-0.004123,-0.008716,0.0067150000000000005,-30.870001000000002,20.25,-19.370001000000002,2c
2019-07-12_111516:120,-0.45401,0.009125,-0.219635,-0.004581,-0.008472,0.006470999999999999,-30.059998999999998,21.0,-19.370001000000002,2c
2019-07-12_111516:140,-0.453003,0.008118,-0.21911599999999998,-0.004764,-0.007465,0.005983,-30.059998999999998,21.0,-19.370001000000002,2c
2019-07-12_111516:160,-0.45095799999999997,0.008636,-0.22116100000000002,-0.004947,-0.006488,0.005861,-30.059998999999998,21.0,-19.370001000000002,2c
2019-07-12_111516:180,-0.45196499999999995,0.008118,-0.220123,-0.004947,-0.0055119999999999995,0.0058,-30.5,20.559998999999998,-19.0,2c
2019-07-12_111516:200,-0.449432,0.007599,-0.21911599999999998,-0.005436,-0.005054,0.00525,-30.5,20.559998999999998,-19.0,2c
2019-07-12_111516:220,-0.45043900000000003,0.008118,-0.21911599999999998,-0.005436,-0.004993,0.004915,-30.870001000000002,21.75,-18.18,2c
2019-07-12_111516:240,-0.447388,0.007599,-0.21859699999999999,-0.005619,-0.004596,0.004671,-30.870001000000002,21.75,-18.18,2c
2019-07-12_111516:260,-0.448425,0.006592,-0.21911599999999998,-0.005954,-0.005359,0.00403,-30.870001000000002,21.75,-18.18,2c
2019-07-12_111516:280,-0.448425,0.008636,-0.21911599999999998,-0.005497,-0.005634,0.0034189999999999997,-30.5,21.370001000000002,-19.75,2c
2019-07-12_111516:300,-0.45043900000000003,0.007599,-0.21759,-0.004978,-0.006092,0.003511,-30.5,21.370001000000002,-19.75,2c
2019-07-12_111516:320,-0.45196499999999995,0.008636,-0.21859699999999999,-0.004764,-0.005939,0.003572,-30.870001000000002,21.0,-19.75,2c
2019-07-12_111516:340,-0.44995100000000005,0.009644,-0.217072,-0.004337,-0.0055119999999999995,0.0038159999999999995,-30.870001000000002,21.0,-19.75,2c
2019-07-12_111516:360,-0.44995100000000005,0.013702,-0.21911599999999998,-0.004337,-0.0055119999999999995,0.003908,-30.870001000000002,21.0,-19.75,2c
2019-07-12_111516:380,-0.449432,0.012695,-0.21911599999999998,-0.004520000000000001,-0.005115,0.004213000000000001,-31.18,21.75,-18.559998999999998,2c
2019-07-12_111516:400,-0.44891400000000004,0.011169,-0.21810900000000003,-0.0051,-0.005176,0.004518,-31.18,21.75,-18.559998999999998,2c
2019-07-12_111516:420,-0.448425,0.009644,-0.219635,-0.005497,-0.004993,0.004915,-29.75,21.370001000000002,-20.18,2c
2019-07-12_111516:440,-0.446899,0.007599,-0.217072,-0.005558,-0.005115,0.004548,-29.75,21.370001000000002,-20.18,2c
2019-07-12_111516:460,-0.444855,0.004547,-0.21505700000000003,-0.0052829999999999995,-0.006,0.004274,-29.75,21.370001000000002,-20.18,2c
2019-07-12_111516:480,-0.443329,-0.007599,-0.21148699999999998,-0.004337,-0.006945999999999999,0.0039689999999999994,-30.870001000000002,22.5,-18.559998999999998,2c
2019-07-12_111516:500,-0.44027700000000003,-0.026917,-0.21148699999999998,-0.001224,-0.008197,0.0029620000000000002,-30.870001000000002,22.5,-18.559998999999998,2c
2019-07-12_111516:520,-0.44027700000000003,-0.028442000000000002,-0.21402,0.005947,-0.010272,0.0007030000000000001,-30.870001000000002,21.0,-19.0,2c
2019-07-12_111516:540,-0.433655,-0.024902,-0.212006,0.01318,-0.012775,-0.001219,-30.870001000000002,21.0,-19.0,2c
2019-07-12_111516:560,-0.42248500000000005,-0.01828,-0.21402,0.020565,-0.016375999999999998,-0.001891,-30.870001000000002,21.0,-19.0,2c
2019-07-12_111516:580,-0.42147799999999996,-0.006592,-0.212006,0.026851999999999997,-0.020679,-0.002867,-30.870001000000002,21.370001000000002,-19.0,2c
2019-07-12_111516:600,-0.42248500000000005,0.012177,-0.213013,0.03027,-0.02486,-0.0036,-30.870001000000002,21.370001000000002,-19.0,2c
2019-07-12_111516:620,-0.432159,0.025908999999999998,-0.22216799999999998,0.030575,-0.027912,-0.0014939999999999999,-30.059998999999998,21.75,-19.75,2c
2019-07-12_111516:640,-0.44027700000000003,0.029968,-0.231812,0.028012000000000002,-0.028644,0.0032359999999999997,-30.059998999999998,21.75,-19.75,2c
2019-07-12_111516:660,-0.445374,0.029480000000000003,-0.238434,0.0238,-0.02779,0.00818,-30.059998999999998,21.75,-19.75,2c
2019-07-12_111516:680,-0.45043900000000003,0.022369,-0.24453699999999998,0.019101,-0.025867,0.011354000000000001,-30.5,22.059998999999998,-19.370001000000002,2c
2019-07-12_111516:700,-0.445862,0.015228,-0.246063,0.014859,-0.023395,0.011903,-30.5,22.059998999999998,-19.370001000000002,2c
2019-07-12_111516:720,-0.439758,0.004547,-0.248108,0.010952,-0.021686,0.011293000000000001,-29.0,22.75,-19.370001000000002,2c
2019-07-12_111516:740,-0.43823199999999995,0.0,-0.248108,0.007901,-0.020496,0.011049,-29.0,22.75,-19.370001000000002,2c
2019-07-12_111516:760,-0.43621800000000005,-0.0055850000000000006,-0.253693,0.005368,-0.019672,0.011964,-29.0,22.75,-19.370001000000002,2c
2019-07-12_111516:780,-0.43823199999999995,-0.009644,-0.256744,0.0028350000000000003,-0.018817,0.012025,-28.25,22.370001000000002,-17.370001000000002,2c
2019-07-12_111516:800,-0.440796,-0.014221000000000001,-0.260803,0.00079,-0.017414,0.010376999999999999,-28.25,22.370001000000002,-17.370001000000002,2c
2019-07-12_111516:820,-0.435699,-0.014740000000000001,-0.262329,-0.001011,-0.015949,0.008241,-27.870001000000002,23.559998999999998,-19.75,2c
2019-07-12_111516:840,-0.432648,-0.014740000000000001,-0.263855,-0.002659,-0.014240000000000001,0.007265000000000001,-27.870001000000002,23.559998999999998,-19.75,2c
2019-07-12_111516:860,-0.43011499999999997,-0.017792,-0.265381,-0.004001,-0.012714,0.007203,-27.870001000000002,23.559998999999998,-19.75,2c
2019-07-12_111516:880,-0.43011499999999997,-0.016266,-0.267426,-0.005344,-0.011646,0.006135,-28.25,23.25,-19.0,2c
2019-07-12_111516:900,-0.43011499999999997,-0.017273,-0.267914,-0.006962,-0.010456,0.005739,-28.25,23.25,-19.0,2c
2019-07-12_111516:920,-0.432159,-0.016753999999999998,-0.272491,-0.007816,-0.009387000000000001,0.006318,-28.25,24.0,-20.18,2c
2019-07-12_111516:940,-0.429108,-0.016753999999999998,-0.274017,-0.008884,-0.007526000000000001,0.0071730000000000006,-28.25,24.0,-20.18,2c
2019-07-12_111516:960,-0.431641,-0.014740000000000001,-0.275055,-0.009951999999999999,-0.005725,0.0076,-28.25,24.0,-20.18,2c
2019-07-12_111516:980,-0.433655,-0.013702,-0.277069,-0.011814,-0.0035280000000000003,0.007965999999999999,-28.25,23.559998999999998,-19.75,2c
2019-07-12_111517:000,-0.431641,-0.011687999999999999,-0.274536,-0.013706,-0.0013310000000000002,0.008454999999999999,-28.25,23.559998999999998,-19.75,2c
2019-07-12_111517:020,-0.430634,-0.011169,-0.274536,-0.016056,0.000256,0.008333,-27.5,23.559998999999998,-19.0,2c
2019-07-12_111517:040,-0.429108,-0.012177,-0.267426,-0.018313999999999997,0.001538,0.007844,-27.5,23.559998999999998,-19.0,2c
2019-07-12_111517:060,-0.42605600000000005,-0.011169,-0.264862,-0.020419999999999997,0.002118,0.007387,-27.5,23.559998999999998,-19.0,2c
2019-07-12_111517:080,-0.42401099999999997,-0.015747,-0.263336,-0.021824,0.00227,0.007326000000000001,-27.870001000000002,23.25,-20.18,2c
2019-07-12_111517:100,-0.42453,-0.021332,-0.260284,-0.022616999999999998,0.002179,0.007112,-27.870001000000002,23.25,-20.18,2c
2019-07-12_111517:120,-0.423004,-0.020325,-0.258759,-0.0228,0.001843,0.006868000000000001,-28.25,22.870001000000002,-19.370001000000002,2c
2019-07-12_111517:140,-0.42758199999999996,-0.022858,-0.25827,-0.022281,0.00108,0.007387,-28.25,22.870001000000002,-19.370001000000002,2c
2019-07-12_111517:160,-0.42758199999999996,-0.021851,-0.256226,-0.021427,0.001446,0.00757,-28.25,22.870001000000002,-19.370001000000002,2c
2019-07-12_111517:180,-0.429596,-0.020325,-0.2547,-0.020298,0.001782,0.007661,-27.870001000000002,23.25,-20.559998999999998,2c
2019-07-12_111517:200,-0.433655,-0.019318000000000002,-0.254211,-0.018955,0.0018739999999999998,0.007965999999999999,-27.870001000000002,23.25,-20.559998999999998,2c
2019-07-12_111517:220,-0.432648,-0.015228,-0.250641,-0.017765,0.002667,0.008058,-27.870001000000002,22.059998999999998,-21.370001000000002,2c
2019-07-12_111517:240,-0.42758199999999996,-0.013702,-0.24658200000000002,-0.016909999999999998,0.003186,0.008058,-27.870001000000002,22.059998999999998,-21.370001000000002,2c
2019-07-12_111517:260,-0.429596,-0.012695,-0.24758899999999998,-0.0163,0.002911,0.007997,-27.870001000000002,22.059998999999998,-21.370001000000002,2c
2019-07-12_111517:280,-0.429108,-0.012177,-0.245544,-0.015781,0.001935,0.00818,-27.5,23.25,-20.18,2c
2019-07-12_111517:300,-0.433167,-0.013702,-0.244019,-0.015262000000000001,0.001477,0.008394,-27.5,23.25,-20.18,2c
2019-07-12_111517:320,-0.43774399999999997,-0.013702,-0.242493,-0.014591,0.00108,0.008516,-28.68,22.870001000000002,-21.0,2c
2019-07-12_111517:340,-0.43621800000000005,-0.015228,-0.238434,-0.013981,0.000866,0.008302,-28.68,22.870001000000002,-21.0,2c
2019-07-12_111517:360,-0.43518100000000004,-0.014740000000000001,-0.23690799999999998,-0.013309,0.001141,0.007844,-28.68,22.870001000000002,-21.0,2c
2019-07-12_111517:380,-0.437225,-0.014221000000000001,-0.236389,-0.012577,0.001141,0.007051000000000001,-28.25,21.75,-20.559998999999998,2c
2019-07-12_111517:400,-0.432159,-0.013213999999999998,-0.235382,-0.011722,0.00108,0.006593000000000001,-28.25,21.75,-20.559998999999998,2c
2019-07-12_111517:420,-0.43823199999999995,-0.010651,-0.23895300000000003,-0.010806999999999999,0.000134,0.005739,-28.68,22.059998999999998,-20.559998999999998,2c
2019-07-12_111517:440,-0.43823199999999995,-0.010162000000000001,-0.23590100000000003,-0.010471,-0.000781,0.004732,-28.68,22.059998999999998,-20.559998999999998,2c
2019-07-12_111517:460,-0.435699,-0.010162000000000001,-0.235382,-0.0098,-0.001178,0.005342,-28.68,22.059998999999998,-20.559998999999998,2c
2019-07-12_111517:480,-0.43774399999999997,-0.012177,-0.236389,-0.00922,-0.001605,0.0058,-28.68,22.5,-19.75,2c
2019-07-12_111517:500,-0.43518100000000004,-0.011169,-0.234375,-0.008762,-0.0017280000000000002,0.005525,-28.68,22.5,-19.75,2c
2019-07-12_111517:520,-0.434174,-0.011169,-0.23284899999999997,-0.008091,-0.002246,0.005128,-28.68,22.059998999999998,-21.0,2c
2019-07-12_111517:540,-0.433655,-0.011687999999999999,-0.231323,-0.007267,-0.002918,0.004457,-28.68,22.059998999999998,-21.0,2c
2019-07-12_111517:560,-0.433167,-0.010651,-0.23028600000000002,-0.006687,-0.003833,0.004152,-28.68,22.059998999999998,-21.0,2c
2019-07-12_111517:580,-0.43670699999999996,-0.009125,-0.231323,-0.0060149999999999995,-0.0045049999999999995,0.0037549999999999997,-28.25,22.870001000000002,-20.559998999999998,2c
2019-07-12_111517:600,-0.43927,-0.007111,-0.23284899999999997,-0.005375,-0.005054,0.003633,-28.25,22.870001000000002,-20.559998999999998,2c
2019-07-12_111517:620,-0.447388,-0.006072999999999999,-0.23284899999999997,-0.004947,-0.004596,0.003694,-28.68,22.870001000000002,-19.75,2c
2019-07-12_111517:640,-0.444855,-0.004059,-0.23284899999999997,-0.004947,-0.003925,0.0038159999999999995,-28.68,22.870001000000002,-19.75,2c
2019-07-12_111517:660,-0.44384799999999996,-0.005065999999999999,-0.23486300000000002,-0.0051,-0.003192,0.004091,-28.68,22.870001000000002,-19.75,2c
2019-07-12_111517:680,-0.444855,-0.0035399999999999997,-0.236389,-0.005222,-0.002857,0.0032359999999999997,-28.68,22.059998999999998,-21.75,2c
2019-07-12_111517:700,-0.43823199999999995,-0.004059,-0.23590100000000003,-0.005558,-0.002643,0.003023,-28.68,22.059998999999998,-21.75,2c
2019-07-12_111517:720,-0.440796,-0.005065999999999999,-0.237427,-0.005619,-0.003467,0.004732,-28.68,22.5,-20.559998999999998,2c
2019-07-12_111517:740,-0.441803,-0.005065999999999999,-0.23233,-0.005619,-0.003589,0.005342,-28.68,22.5,-20.559998999999998,2c
2019-07-12_111517:760,-0.44027700000000003,-0.0055850000000000006,-0.231323,-0.005619,-0.0038640000000000002,0.005403,-28.68,22.5,-20.559998999999998,2c
2019-07-12_111517:780,-0.439758,-0.0055850000000000006,-0.23028600000000002,-0.0060149999999999995,-0.004169,0.005342,-28.68,22.870001000000002,-21.0,2c
2019-07-12_111517:800,-0.43670699999999996,-0.0055850000000000006,-0.228271,-0.006351,-0.005054,0.004609,-28.68,22.870001000000002,-21.0,2c
2019-07-12_111517:820,-0.431641,-0.008118,-0.226227,-0.0064730000000000005,-0.006275,0.0034189999999999997,-28.25,22.059998999999998,-20.559998999999998,2c
2019-07-12_111517:840,-0.42758199999999996,-0.009125,-0.224701,-0.005893,-0.008136,0.0026260000000000003,-28.25,22.059998999999998,-20.559998999999998,2c
2019-07-12_111517:860,-0.426544,-0.008636,-0.222687,-0.004825,-0.010578,0.002168,-28.25,22.059998999999998,-20.559998999999998,2c
2019-07-12_111517:880,-0.43011499999999997,-0.009644,-0.228271,-0.00394,-0.012714,0.002229,-28.68,22.5,-20.18,2c
2019-07-12_111517:900,-0.429108,-0.010651,-0.227753,-0.002994,-0.014240000000000001,0.003053,-28.68,22.5,-20.18,2c
2019-07-12_111517:920,-0.429596,-0.013213999999999998,-0.22979699999999997,-0.0019260000000000002,-0.015766,0.003175,-29.75,22.870001000000002,-21.370001000000002,2c
2019-07-12_111517:940,-0.432159,-0.013213999999999998,-0.233856,-0.000797,-0.016834000000000002,0.0019850000000000002,-29.75,22.870001000000002,-21.370001000000002,2c
2019-07-12_111517:960,-0.43518100000000004,-0.011169,-0.237427,0.000241,-0.017688,0.0005809999999999999,-29.75,22.870001000000002,-21.370001000000002,2c
2019-07-12_111517:980,-0.444855,-0.008118,-0.242004,0.0009119999999999999,-0.017230000000000002,-0.000273,-28.25,22.5,-20.559998999999998,2c
2019-07-12_111518:000,-0.446899,-0.005065999999999999,-0.24706999999999998,0.001126,-0.014972,-0.000365,-28.25,22.5,-20.559998999999998,2c
2019-07-12_111518:020,-0.444855,-0.001495,-0.248108,0.000698,-0.012836000000000002,0.000184,-27.870001000000002,22.870001000000002,-20.559998999999998,2c
2019-07-12_111518:040,-0.44433599999999995,-0.000488,-0.24758899999999998,0.000332,-0.011127,0.0007030000000000001,-27.870001000000002,22.870001000000002,-20.559998999999998,2c
2019-07-12_111518:060,-0.441284,0.001007,-0.248596,-0.000339,-0.009509,0.0007030000000000001,-27.870001000000002,22.870001000000002,-20.559998999999998,2c
2019-07-12_111518:080,-0.44281000000000004,0.002014,-0.25116,-0.001194,-0.008716,0.001588,-27.18,22.059998999999998,-21.370001000000002,2c
2019-07-12_111518:100,-0.435699,-0.000488,-0.25012199999999996,-0.0016820000000000001,-0.007739,0.003023,-27.18,22.059998999999998,-21.370001000000002,2c
2019-07-12_111518:120,-0.433167,-0.001007,-0.25012199999999996,-0.0022010000000000003,-0.007465,0.0034189999999999997,-27.18,22.5,-20.559998999999998,2c
2019-07-12_111518:140,-0.434692,-0.000488,-0.249115,-0.002872,-0.006548999999999999,0.0037549999999999997,-27.18,22.5,-20.559998999999998,2c
2019-07-12_111518:160,-0.42807,-0.0035399999999999997,-0.248596,-0.002994,-0.006793,0.004213000000000001,-27.18,22.5,-20.559998999999998,2c
2019-07-12_111518:180,-0.432159,-0.004547,-0.251648,-0.003055,-0.007526000000000001,0.003297,-28.68,22.5,-21.0,2c
2019-07-12_111518:200,-0.432648,-0.0030210000000000002,-0.25012199999999996,-0.0033299999999999996,-0.007739,0.001771,-28.68,22.5,-21.0,2c
2019-07-12_111518:220,-0.433655,-0.0030210000000000002,-0.25216700000000003,-0.003055,-0.007465,0.002443,-28.68,23.25,-21.370001000000002,2c
2019-07-12_111518:240,-0.433655,-0.0035399999999999997,-0.254211,-0.002933,-0.007129000000000001,0.00345,-28.68,23.25,-21.370001000000002,2c
2019-07-12_111518:260,-0.43011499999999997,-0.0030210000000000002,-0.2547,-0.003208,-0.006336,0.003358,-28.68,23.25,-21.370001000000002,2c
2019-07-12_111518:280,-0.43011499999999997,-0.001007,-0.2547,-0.003452,-0.005756,0.003572,-27.5,22.059998999999998,-21.370001000000002,2c
2019-07-12_111518:300,-0.429596,-0.0025329999999999997,-0.255707,-0.003788,-0.005725,0.004182,-27.5,22.059998999999998,-21.370001000000002,2c
2019-07-12_111518:320,-0.431122,-0.0035399999999999997,-0.256744,-0.004001,-0.005634,0.004396,-28.25,21.75,-21.75,2c
2019-07-12_111518:340,-0.434174,-0.004547,-0.25521900000000003,-0.0042450000000000005,-0.004657,0.004274,-28.25,21.75,-21.75,2c
2019-07-12_111518:360,-0.434174,-0.0035399999999999997,-0.256744,-0.004398,-0.0045049999999999995,0.004274,-28.25,21.75,-21.75,2c
2019-07-12_111518:380,-0.434174,-0.0035399999999999997,-0.25521900000000003,-0.004581,-0.004108,0.00403,-28.25,22.5,-21.75,2c
2019-07-12_111518:400,-0.434692,-0.004059,-0.25521900000000003,-0.004947,-0.003436,0.003511,-28.25,22.5,-21.75,2c
2019-07-12_111518:420,-0.432648,-0.0030210000000000002,-0.2547,-0.005039,-0.0031309999999999997,0.0032359999999999997,-27.5,23.25,-21.75,2c
2019-07-12_111518:440,-0.437225,-0.002014,-0.256226,-0.005679999999999999,-0.002796,0.003023,-27.5,23.25,-21.75,2c
2019-07-12_111518:460,-0.43823199999999995,-0.001495,-0.25521900000000003,-0.006168,-0.002002,0.0037549999999999997,-27.5,23.25,-21.75,2c
2019-07-12_111518:480,-0.441284,-0.0030210000000000002,-0.25521900000000003,-0.00687,-0.000781,0.004548,-28.25,22.5,-21.370001000000002,2c
2019-07-12_111518:500,-0.440796,-0.002014,-0.253693,-0.007145,0.000866,0.004945000000000001,-28.25,22.5,-21.370001000000002,2c
2019-07-12_111518:520,-0.44433599999999995,-0.004059,-0.254211,-0.0076939999999999995,0.0024530000000000003,0.005678,-27.870001000000002,22.5,-20.18,2c
2019-07-12_111518:540,-0.441284,-0.004547,-0.248108,-0.008091,0.003918,0.005525,-27.870001000000002,22.5,-20.18,2c
2019-07-12_111518:560,-0.437225,-0.0055850000000000006,-0.245544,-0.008334999999999999,0.004925,0.004457,-27.870001000000002,22.5,-20.18,2c
2019-07-12_111518:580,-0.433167,-0.004059,-0.239441,-0.008091,0.004986,0.003694,-28.68,22.870001000000002,-20.559998999999998,2c
2019-07-12_111518:600,-0.432159,-0.001495,-0.23233,-0.007999,0.004651,0.0034189999999999997,-28.68,22.870001000000002,-20.559998999999998,2c
2019-07-12_111518:620,-0.433655,-0.001007,-0.231812,-0.008029999999999999,0.003857,0.003694,-28.68,22.5,-20.559998999999998,2c
2019-07-12_111518:640,-0.433655,-0.001495,-0.228271,-0.007877,0.003125,0.004091,-28.68,22.5,-20.559998999999998,2c
2019-07-12_111518:660,-0.434692,-0.001495,-0.228271,-0.007755,0.00224,0.004457,-28.68,22.5,-20.559998999999998,2c
2019-07-12_111518:680,-0.43670699999999996,-0.000488,-0.22979699999999997,-0.007601999999999999,0.0009279999999999999,0.004671,-28.25,22.5,-20.18,2c
2019-07-12_111518:700,-0.43823199999999995,0.000488,-0.22879000000000002,-0.00748,-0.000263,0.004671,-28.25,22.5,-20.18,2c
2019-07-12_111518:720,-0.441803,0.0,-0.22879000000000002,-0.007541,-0.000995,0.004518,-29.370001000000002,21.370001000000002,-21.370001000000002,2c
2019-07-12_111518:740,-0.44384799999999996,0.001495,-0.228271,-0.007297,-0.0014529999999999999,0.004457,-29.370001000000002,21.370001000000002,-21.370001000000002,2c
2019-07-12_111518:760,-0.446899,0.0025329999999999997,-0.226746,-0.007541,-0.001056,0.004793,-29.370001000000002,21.370001000000002,-21.370001000000002,2c
2019-07-12_111518:780,-0.446899,0.004059,-0.22421300000000002,-0.0076939999999999995,-0.0008119999999999999,0.004915,-28.68,22.059998999999998,-19.75,2c
2019-07-12_111518:800,-0.44232200000000005,0.004059,-0.224701,-0.008152,-0.00047599999999999997,0.004915,-28.68,22.059998999999998,-19.75,2c
2019-07-12_111518:820,-0.440796,0.0025329999999999997,-0.224701,-0.008395999999999999,-0.000995,0.005128,-28.68,21.75,-20.18,2c
2019-07-12_111518:840,-0.444855,0.001495,-0.222687,-0.008487,-0.0015140000000000002,0.006044,-28.68,21.75,-20.18,2c
2019-07-12_111518:860,-0.444855,-0.002014,-0.224701,-0.008487,-0.0023989999999999997,0.006929,-28.68,21.75,-20.18,2c
2019-07-12_111518:880,-0.44027700000000003,-0.004059,-0.224701,-0.008274,-0.00246,0.007203,-29.370001000000002,22.5,-20.18,2c
2019-07-12_111518:900,-0.44638100000000003,-0.005065999999999999,-0.22216799999999998,-0.007601999999999999,-0.002643,0.006470999999999999,-29.370001000000002,22.5,-20.18,2c
2019-07-12_111518:920,-0.445374,-0.004547,-0.22164899999999998,-0.007084,-0.0021850000000000003,0.005678,-29.370001000000002,21.75,-20.18,2c
2019-07-12_111518:940,-0.44384799999999996,-0.0025329999999999997,-0.220123,-0.006168,-0.0020629999999999997,0.004854,-29.370001000000002,21.75,-20.18,2c
2019-07-12_111518:960,-0.445862,0.0,-0.22421300000000002,-0.005771,-0.00307,0.00345,-29.370001000000002,21.75,-20.18,2c
2019-07-12_111518:980,-0.444855,0.000488,-0.224701,-0.005619,-0.003711,0.003023,-29.370001000000002,22.059998999999998,-20.18,2c
2019-07-12_111519:000,-0.44638100000000003,0.0025329999999999997,-0.22421300000000002,-0.005558,-0.004229999999999999,0.003908,-29.370001000000002,22.059998999999998,-20.18,2c
2019-07-12_111519:020,-0.449432,0.001007,-0.22521999999999998,-0.005436,-0.004169,0.004793,-29.75,22.5,-19.370001000000002,2c
2019-07-12_111519:040,-0.44638100000000003,0.002014,-0.222687,-0.005497,-0.0035280000000000003,0.004548,-29.75,22.5,-19.370001000000002,2c
2019-07-12_111519:060,-0.445862,0.001007,-0.223694,-0.005679999999999999,-0.00307,0.004671,-29.75,22.5,-19.370001000000002,2c
2019-07-12_111519:080,-0.44433599999999995,0.0,-0.222687,-0.005436,-0.002979,0.005403,-29.0,22.059998999999998,-20.559998999999998,2c
2019-07-12_111519:100,-0.445374,0.0,-0.219635,-0.005436,-0.002857,0.005861,-29.0,22.059998999999998,-20.559998999999998,2c
2019-07-12_111519:120,-0.448425,-0.001495,-0.21759,-0.005619,-0.002735,0.006044,-29.0,21.75,-20.18,2c
2019-07-12_111519:140,-0.44433599999999995,-0.001007,-0.21505700000000003,-0.005497,-0.002643,0.0058,-29.0,21.75,-20.18,2c
2019-07-12_111519:160,-0.44281000000000004,-0.001007,-0.21759,-0.005558,-0.0031309999999999997,0.005342,-29.0,21.75,-20.18,2c
2019-07-12_111519:180,-0.43774399999999997,0.0,-0.220123,-0.005893,-0.004566,0.005342,-28.68,22.870001000000002,-19.370001000000002,2c
2019-07-12_111519:200,-0.444855,-0.0035399999999999997,-0.223175,-0.005771,-0.006336,0.005586,-28.68,22.870001000000002,-19.370001000000002,2c
2019-07-12_111519:220,-0.449432,-0.0035399999999999997,-0.224701,-0.006076,-0.007404000000000001,0.004915,-29.0,22.870001000000002,-20.559998999999998,2c
2019-07-12_111519:240,-0.453003,-0.005065999999999999,-0.222687,-0.005497,-0.006731999999999999,0.005128,-29.0,22.870001000000002,-20.559998999999998,2c
2019-07-12_111519:260,-0.45401,-0.004059,-0.222687,-0.004978,-0.005725,0.005464,-29.0,22.870001000000002,-20.559998999999998,2c
2019-07-12_111519:280,-0.45095799999999997,-0.001007,-0.22216799999999998,-0.004978,-0.004901,0.005006,-30.059998999999998,21.370001000000002,-19.75,2c
2019-07-12_111519:300,-0.448425,-0.001007,-0.220642,-0.005161,-0.00426,0.004854,-30.059998999999998,21.370001000000002,-19.75,2c
2019-07-12_111519:320,-0.448425,-0.001007,-0.220642,-0.005497,-0.0038640000000000002,0.005067,-29.75,22.059998999999998,-19.370001000000002,2c
2019-07-12_111519:340,-0.448425,-0.002014,-0.21859699999999999,-0.005954,-0.004169,0.004945000000000001,-29.75,22.059998999999998,-19.370001000000002,2c
2019-07-12_111519:360,-0.447388,-0.0025329999999999997,-0.220123,-0.0061070000000000004,-0.004169,0.004548,-29.75,22.059998999999998,-19.370001000000002,2c
2019-07-12_111519:380,-0.447906,-0.004059,-0.21810900000000003,-0.006351,-0.004383,0.004518,-29.370001000000002,21.0,-19.75,2c
2019-07-12_111519:400,-0.444855,-0.004059,-0.21759,-0.00629,-0.004596,0.005067,-29.370001000000002,21.0,-19.75,2c
2019-07-12_111519:420,-0.445374,-0.0055850000000000006,-0.220123,-0.006412,-0.005115,0.005403,-29.0,22.059998999999998,-19.75,2c
2019-07-12_111519:440,-0.444855,-0.007599,-0.21911599999999998,-0.006168,-0.005359,0.005525,-29.0,22.059998999999998,-19.75,2c
2019-07-12_111519:460,-0.447906,-0.009125,-0.220123,-0.005497,-0.005695,0.005403,-29.0,22.059998999999998,-19.75,2c
2019-07-12_111519:480,-0.45095799999999997,-0.006592,-0.21911599999999998,-0.004764,-0.0055119999999999995,0.004548,-29.370001000000002,22.059998999999998,-19.0,2c
2019-07-12_111519:500,-0.45095799999999997,-0.004547,-0.220123,-0.004275999999999999,-0.005298,0.003694,-29.370001000000002,22.059998999999998,-19.0,2c
2019-07-12_111519:520,-0.45095799999999997,-0.000488,-0.219635,-0.004184,-0.005054,0.003572,-29.0,22.059998999999998,-21.370001000000002,2c
2019-07-12_111519:540,-0.448425,0.0,-0.21859699999999999,-0.004612,-0.004901,0.0039689999999999994,-29.0,22.059998999999998,-21.370001000000002,2c
2019-07-12_111519:560,-0.447388,-0.001007,-0.21859699999999999,-0.0051,-0.005054,0.004091,-29.0,22.059998999999998,-21.370001000000002,2c
2019-07-12_111519:580,-0.445862,-0.002014,-0.21810900000000003,-0.005558,-0.0055119999999999995,0.00403,-29.370001000000002,22.5,-20.18,2c
2019-07-12_111519:600,-0.447388,-0.0030210000000000002,-0.21911599999999998,-0.005771,-0.0060609999999999995,0.0039689999999999994,-29.370001000000002,22.5,-20.18,2c
2019-07-12_111519:620,-0.44433599999999995,-0.0030210000000000002,-0.21606399999999998,-0.005497,-0.006488,0.0039689999999999994,-29.75,22.059998999999998,-20.559998999999998,2c
2019-07-12_111519:640,-0.44027700000000003,-0.005065999999999999,-0.21453899999999998,-0.005161,-0.007465,0.004152,-29.75,22.059998999999998,-20.559998999999998,2c
2019-07-12_111519:660,-0.43774399999999997,-0.004547,-0.21505700000000003,-0.004703,-0.008869,0.0034189999999999997,-29.75,22.059998999999998,-20.559998999999998,2c
2019-07-12_111519:680,-0.432648,-0.002014,-0.21402,-0.004612,-0.011066,0.00229,-29.0,22.870001000000002,-19.370001000000002,2c
2019-07-12_111519:700,-0.42858900000000005,0.0,-0.216583,-0.004703,-0.013721,0.001161,-29.0,22.870001000000002,-19.370001000000002,2c
2019-07-12_111519:720,-0.440796,-0.000488,-0.21402,-0.005619,-0.016345,-2.8999999999999997e-05,-29.370001000000002,22.5,-20.18,2c
2019-07-12_111519:740,-0.44891400000000004,0.000488,-0.220642,-0.006168,-0.015581999999999999,-0.000334,-29.370001000000002,22.5,-20.18,2c
2019-07-12_111519:760,-0.461639,-0.000488,-0.22879000000000002,-0.0064730000000000005,-0.012836000000000002,0.001161,-29.370001000000002,22.5,-20.18,2c
2019-07-12_111519:780,-0.46060200000000007,0.0,-0.231812,-0.0060149999999999995,-0.00954,0.002443,-29.370001000000002,22.5,-20.18,2c
2019-07-12_111519:800,-0.453491,-0.001007,-0.23233,-0.005344,-0.007862000000000001,0.0025039999999999997,-29.370001000000002,22.5,-20.18,2c
2019-07-12_111519:820,-0.453003,0.001007,-0.236389,-0.004703,-0.007129000000000001,0.002778,-29.0,21.75,-21.0,2c
2019-07-12_111519:840,-0.45043900000000003,0.002014,-0.23590100000000003,-0.003788,-0.007006999999999999,0.0037549999999999997,-29.0,21.75,-21.0,2c
2019-07-12_111519:860,-0.449432,0.001007,-0.235382,-0.003147,-0.006793,0.004671,-29.0,21.75,-21.0,2c
2019-07-12_111519:880,-0.449432,0.001007,-0.234375,-0.002872,-0.0060609999999999995,0.005006,-29.75,21.75,-20.559998999999998,2c
2019-07-12_111519:900,-0.447388,0.002014,-0.231812,-0.003116,-0.005359,0.005128,-29.75,21.75,-20.559998999999998,2c
2019-07-12_111519:920,-0.440796,0.001495,-0.22879000000000002,-0.0036049999999999997,-0.004901,0.005189,-28.68,22.5,-20.18,2c
2019-07-12_111519:940,-0.439758,0.002014,-0.227753,-0.004337,-0.004961999999999999,0.004793,-28.68,22.5,-20.18,2c
2019-07-12_111519:960,-0.434692,0.002014,-0.22521999999999998,-0.004886,-0.005451,0.004091,-28.68,22.5,-20.18,2c
2019-07-12_111519:980,-0.431641,0.001007,-0.22521999999999998,-0.0052829999999999995,-0.006945999999999999,0.00345,-29.0,22.059998999999998,-20.559998999999998,2c
2019-07-12_111520:000,-0.431641,-0.000488,-0.224701,-0.005222,-0.008319,0.003053,-29.0,22.059998999999998,-20.559998999999998,2c
2019-07-12_111520:020,-0.43823199999999995,-0.001007,-0.224701,-0.004886,-0.009143,0.003175,-28.68,22.059998999999998,-21.0,2c
2019-07-12_111520:040,-0.434174,-0.001495,-0.22421300000000002,-0.004337,-0.009845,0.003633,-28.68,22.059998999999998,-21.0,2c
2019-07-12_111520:060,-0.43621800000000005,-0.0030210000000000002,-0.225739,-0.003544,-0.010851999999999999,0.003023,-28.68,22.059998999999998,-21.0,2c
2019-07-12_111520:080,-0.434692,-0.001007,-0.22879000000000002,-0.002933,-0.012653,0.0025039999999999997,-29.0,22.059998999999998,-20.559998999999998,2c
2019-07-12_111520:100,-0.42858900000000005,-0.002014,-0.228271,-0.0022010000000000003,-0.014513999999999999,0.002839,-29.0,22.059998999999998,-20.559998999999998,2c
2019-07-12_111520:120,-0.431122,-0.006592,-0.23284899999999997,-0.001194,-0.017169,0.0027170000000000002,-29.370001000000002,22.059998999999998,-19.75,2c
2019-07-12_111520:140,-0.429596,-0.008118,-0.23486300000000002,0.00018,-0.019489,0.001924,-29.370001000000002,22.059998999999998,-19.75,2c
2019-07-12_111520:160,-0.42605600000000005,-0.011169,-0.233337,0.00198,-0.021808,0.001314,-29.370001000000002,22.059998999999998,-19.75,2c
2019-07-12_111520:180,-0.430634,-0.010162000000000001,-0.23590100000000003,0.0039030000000000002,-0.023456,0.001039,-29.0,21.75,-21.0,2c
2019-07-12_111520:200,-0.44384799999999996,-0.006592,-0.240479,0.005429,-0.022327,0.001588,-29.0,21.75,-21.0,2c
2019-07-12_111520:220,-0.449432,-0.0030210000000000002,-0.24706999999999998,0.005886,-0.019336000000000002,0.002168,-27.870001000000002,22.870001000000002,-21.75,2c
2019-07-12_111520:240,-0.44638100000000003,0.002014,-0.254211,0.005612,-0.015581999999999999,0.002046,-27.870001000000002,22.870001000000002,-21.75,2c
2019-07-12_111520:260,-0.44232200000000005,0.007111,-0.254211,0.004696,-0.013294,0.001161,-27.870001000000002,22.870001000000002,-21.75,2c
2019-07-12_111520:280,-0.44232200000000005,0.012695,-0.25827,0.004086,-0.012042,0.000642,-28.25,22.870001000000002,-21.0,2c
2019-07-12_111520:300,-0.440796,0.013702,-0.257751,0.001248,-0.008808,0.001161,-28.25,22.870001000000002,-21.0,2c
2019-07-12_111520:320,-0.43621800000000005,0.012177,-0.259796,0.000241,-0.008197,0.001924,-28.68,22.5,-21.0,2c
2019-07-12_111520:340,-0.434174,0.010162000000000001,-0.260284,-0.002079,-0.007465,0.004213000000000001,-28.68,22.5,-21.0,2c
2019-07-12_111520:360,-0.433655,0.0055850000000000006,-0.261322,-0.0033909999999999995,-0.00719,0.004732,-28.68,22.5,-21.0,2c
2019-07-12_111520:380,-0.432159,0.0030210000000000002,-0.260284,-0.004001,-0.0070680000000000005,0.004671,-27.18,22.059998999999998,-20.559998999999998,2c
2019-07-12_111520:400,-0.433655,-0.001007,-0.259277,-0.004764,-0.006092,0.004915,-27.18,22.059998999999998,-20.559998999999998,2c
2019-07-12_111520:420,-0.433655,-0.002014,-0.259277,-0.004642,-0.005359,0.005006,-27.5,22.5,-21.370001000000002,2c
2019-07-12_111520:440,-0.431122,-0.0035399999999999997,-0.257233,-0.004275999999999999,-0.00426,0.004793,-27.5,22.5,-21.370001000000002,2c
2019-07-12_111520:460,-0.43011499999999997,-0.001495,-0.255707,-0.0037270000000000003,-0.0037719999999999997,0.005128,-27.5,22.5,-21.370001000000002,2c
2019-07-12_111520:480,-0.429108,-0.0025329999999999997,-0.256226,-0.0036049999999999997,-0.0035280000000000003,0.005311,-28.25,22.5,-21.370001000000002,2c
2019-07-12_111520:500,-0.426544,-0.0035399999999999997,-0.254211,-0.0036659999999999996,-0.003589,0.005006,-28.25,22.5,-21.370001000000002,2c
2019-07-12_111520:520,-0.425537,-0.0025329999999999997,-0.253693,-0.0036049999999999997,-0.003711,0.004732,-28.25,22.5,-21.370001000000002,2c
2019-07-12_111520:540,-0.425537,-0.002014,-0.254211,-0.003849,-0.0045049999999999995,0.004609,-27.870001000000002,22.059998999999998,-21.0,2c
2019-07-12_111520:560,-0.426544,-0.0025329999999999997,-0.2547,-0.00394,-0.005176,0.004915,-27.870001000000002,22.059998999999998,-21.0,2c
2019-07-12_111520:580,-0.432648,-0.0030210000000000002,-0.25827,-0.004275999999999999,-0.005451,0.004793,-27.18,22.059998999999998,-21.75,2c
2019-07-12_111520:600,-0.430634,-0.002014,-0.25521900000000003,-0.004642,-0.004596,0.004915,-27.18,22.059998999999998,-21.75,2c
2019-07-12_111520:620,-0.433655,-0.004547,-0.255707,-0.004825,-0.004229999999999999,0.004945000000000001,-27.870001000000002,22.5,-20.559998999999998,2c
2019-07-12_111520:640,-0.434174,-0.008118,-0.254211,-0.005344,-0.002918,0.006074,-27.870001000000002,22.5,-20.559998999999998,2c
2019-07-12_111520:660,-0.432159,-0.010651,-0.25216700000000003,-0.005344,-0.002582,0.006318,-27.870001000000002,22.5,-20.559998999999998,2c
2019-07-12_111520:680,-0.433655,-0.012177,-0.256226,-0.005161,-0.002643,0.005922,-28.25,22.870001000000002,-21.0,2c
2019-07-12_111520:700,-0.432648,-0.011169,-0.25116,-0.004642,-0.002643,0.004396,-28.25,22.870001000000002,-21.0,2c
2019-07-12_111520:720,-0.434174,-0.010651,-0.251648,-0.0042450000000000005,-0.002582,0.004274,-27.5,22.5,-20.18,2c
2019-07-12_111520:740,-0.433655,-0.008636,-0.24963400000000002,-0.003544,-0.0020629999999999997,0.0029,-27.5,22.5,-20.18,2c
2019-07-12_111520:760,-0.42758199999999996,-0.004059,-0.24453699999999998,-0.0033909999999999995,-0.0020629999999999997,0.002168,-27.5,22.5,-20.18,2c
2019-07-12_111520:780,-0.426544,-0.0025329999999999997,-0.246063,-0.003208,-0.002582,0.002382,-28.25,22.5,-21.75,2c
2019-07-12_111520:800,-0.431122,-0.001007,-0.242493,-0.0036659999999999996,-0.002918,0.0032359999999999997,-28.25,22.5,-21.75,2c
2019-07-12_111520:820,-0.432159,0.001007,-0.245056,-0.004001,-0.002918,0.003358,-28.25,22.5,-21.75,2c
2019-07-12_111520:840,-0.432648,0.0,-0.245056,-0.005344,-0.003314,0.0038469999999999997,-28.25,22.5,-21.370001000000002,2c
2019-07-12_111520:860,-0.432648,-0.001495,-0.24658200000000002,-0.005893,-0.003467,0.004915,-28.25,22.5,-21.370001000000002,2c
2019-07-12_111520:880,-0.43823199999999995,-0.0055850000000000006,-0.24658200000000002,-0.0067480000000000005,-0.003589,0.005647,-27.870001000000002,22.870001000000002,-21.370001000000002,2c
2019-07-12_111520:900,-0.434692,-0.007111,-0.24706999999999998,-0.00687,-0.0035280000000000003,0.005678,-27.870001000000002,22.870001000000002,-21.370001000000002,2c
2019-07-12_111520:920,-0.441803,-0.010162000000000001,-0.24758899999999998,-0.006687,-0.0025210000000000002,0.004518,-28.68,22.059998999999998,-21.370001000000002,2c
2019-07-12_111520:940,-0.44433599999999995,-0.008118,-0.249115,-0.00629,-0.001117,0.003053,-28.68,22.059998999999998,-21.370001000000002,2c
2019-07-12_111520:960,-0.439758,-0.006592,-0.24096700000000001,-0.0052829999999999995,-0.000324,0.003023,-28.68,22.059998999999998,-21.370001000000002,2c
2019-07-12_111520:980,-0.434692,-0.0055850000000000006,-0.23895300000000003,-0.0051,-0.000202,0.003023,-28.68,22.059998999999998,-20.559998999999998,2c
2019-07-12_111521:000,-0.432159,-0.0035399999999999997,-0.234375,-0.004520000000000001,-0.001575,0.0029,-28.68,22.059998999999998,-20.559998999999998,2c
2019-07-12_111521:020,-0.429108,-0.0030210000000000002,-0.235382,-0.004275999999999999,-0.001941,0.003114,-28.68,22.059998999999998,-20.559998999999998,2c
2019-07-12_111521:040,-0.42758199999999996,-0.001007,-0.235382,-0.0042450000000000005,-0.003986,0.00345,-28.68,21.370001000000002,-21.0,2c
2019-07-12_111521:060,-0.42605600000000005,-0.0030210000000000002,-0.235382,-0.004275999999999999,-0.004779,0.003572,-28.68,21.370001000000002,-21.0,2c
2019-07-12_111521:080,-0.426544,-0.002014,-0.234375,-0.004398,-0.007129000000000001,0.003694,-29.370001000000002,22.5,-20.18,2c
2019-07-12_111521:100,-0.433167,-0.0025329999999999997,-0.23690799999999998,-0.004337,-0.007465,0.0038159999999999995,-29.370001000000002,22.5,-20.18,2c
2019-07-12_111521:120,-0.433167,-0.0025329999999999997,-0.23791500000000002,-0.004123,-0.007526000000000001,0.004152,-29.370001000000002,22.5,-20.18,2c
2019-07-12_111521:140,-0.43621800000000005,-0.002014,-0.242493,-0.004123,-0.008014,0.00345,-29.370001000000002,22.5,-19.75,2c
2019-07-12_111521:160,-0.439758,-0.001007,-0.24453699999999998,-0.004123,-0.0076170000000000005,0.002565,-29.370001000000002,22.5,-19.75,2c
2019-07-12_111521:180,-0.44281000000000004,0.000488,-0.245056,-0.004123,-0.007343000000000001,0.0029,-29.0,21.75,-21.0,2c
2019-07-12_111521:200,-0.44384799999999996,0.001007,-0.24353000000000002,-0.003879,-0.0055119999999999995,0.004152,-29.0,21.75,-21.0,2c
2019-07-12_111521:220,-0.438751,-0.000488,-0.24706999999999998,-0.0036659999999999996,-0.0052369999999999995,0.004182,-28.68,21.75,-20.559998999999998,2c
2019-07-12_111521:240,-0.43774399999999997,0.0,-0.245056,-0.0037270000000000003,-0.005054,0.004945000000000001,-28.68,21.75,-20.559998999999998,2c
2019-07-12_111521:260,-0.43518100000000004,-0.001495,-0.241486,-0.0036049999999999997,-0.005054,0.006135,-28.68,21.75,-20.559998999999998,2c
2019-07-12_111521:280,-0.43774399999999997,-0.004059,-0.241486,-0.0036659999999999996,-0.0052369999999999995,0.006441,-28.68,22.5,-20.18,2c
2019-07-12_111521:300,-0.433655,-0.004547,-0.23895300000000003,-0.003544,-0.005054,0.005586,-28.68,22.5,-20.18,2c
2019-07-12_111521:320,-0.431641,-0.004059,-0.23895300000000003,-0.0036659999999999996,-0.005634,0.005006,-28.25,22.5,-21.0,2c
2019-07-12_111521:340,-0.429596,-0.004059,-0.23895300000000003,-0.0032689999999999998,-0.006336,0.004854,-28.25,22.5,-21.0,2c
2019-07-12_111521:360,-0.43011499999999997,-0.004059,-0.23995999999999998,-0.003483,-0.0066099999999999996,0.004518,-28.25,22.5,-21.0,2c
2019-07-12_111521:380,-0.434692,0.0,-0.243011,-0.0037270000000000003,-0.007129000000000001,0.0038469999999999997,-27.870001000000002,22.5,-21.0,2c
2019-07-12_111521:400,-0.434692,0.0,-0.242493,-0.004642,-0.006854000000000001,0.0038159999999999995,-27.870001000000002,22.5,-21.0,2c
2019-07-12_111521:420,-0.431641,-0.001007,-0.242493,-0.005344,-0.00719,0.004182,-27.870001000000002,22.5,-21.0,2c
2019-07-12_111521:440,-0.438751,-0.0025329999999999997,-0.24453699999999998,-0.005954,-0.00719,0.004732,-28.25,22.059998999999998,-20.18,2c
2019-07-12_111521:460,-0.431641,-0.0055850000000000006,-0.244019,-0.00629,-0.0070680000000000005,0.005067,-28.25,22.059998999999998,-20.18,2c
2019-07-12_111521:480,-0.43621800000000005,-0.006592,-0.24658200000000002,-0.005954,-0.007862000000000001,0.004182,-27.870001000000002,21.75,-20.559998999999998,2c
2019-07-12_111521:500,-0.437225,-0.0055850000000000006,-0.24658200000000002,-0.005679999999999999,-0.008075,0.0034189999999999997,-27.870001000000002,21.75,-20.559998999999998,2c
2019-07-12_111521:520,-0.43670699999999996,-0.005065999999999999,-0.249115,-0.005344,-0.007862000000000001,0.00403,-27.870001000000002,21.75,-20.559998999999998,2c
2019-07-12_111521:540,-0.43774399999999997,-0.006072999999999999,-0.25116,-0.004581,-0.007465,0.004671,-28.25,22.059998999999998,-20.559998999999998,2c
2019-07-12_111521:560,-0.437225,-0.0025329999999999997,-0.250641,-0.004520000000000001,-0.006670999999999999,0.004274,-28.25,22.059998999999998,-20.559998999999998,2c
2019-07-12_111521:580,-0.433655,0.0,-0.248596,-0.005161,-0.006092,0.004518,-28.25,22.059998999999998,-20.559998999999998,2c
2019-07-12_111521:600,-0.433655,-0.001007,-0.24758899999999998,-0.005893,-0.005451,0.005861,-28.25,22.059998999999998,-20.559998999999998,2c
2019-07-12_111521:620,-0.43011499999999997,-0.006072999999999999,-0.246063,-0.0065650000000000005,-0.0052369999999999995,0.006318,-28.25,22.059998999999998,-20.559998999999998,2c
2019-07-12_111521:640,-0.432648,-0.008118,-0.24758899999999998,-0.007297,-0.005451,0.005525,-28.25,22.059998999999998,-21.0,2c
2019-07-12_111521:660,-0.431641,-0.011169,-0.246063,-0.007145,-0.005573,0.005342,-28.25,22.059998999999998,-21.0,2c
2019-07-12_111521:680,-0.431641,-0.011169,-0.24658200000000002,-0.006626000000000001,-0.005878,0.00525,-28.68,22.059998999999998,-20.18,2c
2019-07-12_111521:700,-0.431641,-0.011169,-0.24658200000000002,-0.005954,-0.005817,0.005006,-28.68,22.059998999999998,-20.18,2c
2019-07-12_111521:720,-0.429108,-0.011169,-0.24453699999999998,-0.005161,-0.006092,0.004854,-29.0,22.5,-19.75,2c
2019-07-12_111521:740,-0.434692,-0.009644,-0.24658200000000002,-0.004764,-0.006275,0.0037549999999999997,-29.0,22.5,-19.75,2c
2019-07-12_111521:760,-0.43621800000000005,-0.009644,-0.244019,-0.004275999999999999,-0.006092,0.0034189999999999997,-29.0,22.5,-19.75,2c
2019-07-12_111521:780,-0.43774399999999997,-0.009125,-0.24706999999999998,-0.003879,-0.006092,0.0039689999999999994,-27.870001000000002,22.059998999999998,-21.370001000000002,2c
2019-07-12_111521:800,-0.43823199999999995,-0.008118,-0.245544,-0.003483,-0.005695,0.00403,-27.870001000000002,22.059998999999998,-21.370001000000002,2c
2019-07-12_111521:820,-0.43518100000000004,-0.0055850000000000006,-0.24453699999999998,-0.003544,-0.0052369999999999995,0.0039689999999999994,-27.870001000000002,22.059998999999998,-21.370001000000002,2c
2019-07-12_111521:840,-0.433167,-0.007111,-0.24453699999999998,-0.003788,-0.004961999999999999,0.004182,-27.5,22.870001000000002,-21.0,2c
2019-07-12_111521:860,-0.432159,-0.006072999999999999,-0.242004,-0.004062,-0.005298,0.004091,-27.5,22.870001000000002,-21.0,2c
2019-07-12_111521:880,-0.431122,-0.007599,-0.244019,-0.0042450000000000005,-0.005695,0.0037549999999999997,-27.870001000000002,22.059998999999998,-21.75,2c
2019-07-12_111521:900,-0.431641,-0.008118,-0.244019,-0.0042450000000000005,-0.0061530000000000005,0.003511,-27.870001000000002,22.059998999999998,-21.75,2c
2019-07-12_111521:920,-0.431641,-0.007599,-0.24453699999999998,-0.00394,-0.0066099999999999996,0.003175,-27.870001000000002,22.059998999999998,-21.75,2c
2019-07-12_111521:940,-0.432159,-0.0035399999999999997,-0.245056,-0.0037270000000000003,-0.0070680000000000005,0.0025039999999999997,-28.25,22.5,-20.559998999999998,2c
2019-07-12_111521:960,-0.433167,-0.002014,-0.24758899999999998,-0.003788,-0.007220999999999999,0.002443,-28.25,22.5,-20.559998999999998,2c
2019-07-12_111521:980,-0.434174,-0.000488,-0.248108,-0.004398,-0.007129000000000001,0.003023,-27.870001000000002,22.059998999999998,-21.75,2c
2019-07-12_111522:000,-0.434174,0.0,-0.24758899999999998,-0.004947,-0.006793,0.0037549999999999997,-27.870001000000002,22.059998999999998,-21.75,2c
2019-07-12_111522:020,-0.433655,-0.0035399999999999997,-0.24758899999999998,-0.005497,-0.0061530000000000005,0.0038469999999999997,-27.870001000000002,22.059998999999998,-21.75,2c
2019-07-12_111522:040,-0.434174,-0.0055850000000000006,-0.25012199999999996,-0.0052829999999999995,-0.005939,0.003908,-27.870001000000002,22.5,-20.559998999999998,2c
2019-07-12_111522:060,-0.431122,-0.004547,-0.25012199999999996,-0.005161,-0.005939,0.0038159999999999995,-27.870001000000002,22.5,-20.559998999999998,2c
2019-07-12_111522:080,-0.432159,-0.004059,-0.24963400000000002,-0.004764,-0.006397,0.003694,-27.5,22.5,-21.370001000000002,2c
2019-07-12_111522:100,-0.433167,-0.0030210000000000002,-0.248596,-0.004612,-0.006336,0.003694,-27.5,22.5,-21.370001000000002,2c
2019-07-12_111522:120,-0.433655,-0.004059,-0.24963400000000002,-0.004520000000000001,-0.006275,0.0038159999999999995,-27.5,22.5,-21.370001000000002,2c
2019-07-12_111522:140,-0.432159,-0.004547,-0.249115,-0.004459,-0.005817,0.004152,-27.5,22.5,-21.370001000000002,2c
2019-07-12_111522:160,-0.431122,-0.004547,-0.248596,-0.004520000000000001,-0.005817,0.004396,-27.5,22.5,-21.370001000000002,2c
2019-07-12_111522:180,-0.42858900000000005,-0.0055850000000000006,-0.249115,-0.004520000000000001,-0.005878,0.004152,-27.870001000000002,22.870001000000002,-20.559998999999998,2c
2019-07-12_111522:200,-0.430634,-0.006592,-0.24758899999999998,-0.004642,-0.006336,0.003572,-27.870001000000002,22.870001000000002,-20.559998999999998,2c
2019-07-12_111522:220,-0.432648,-0.006592,-0.250641,-0.004520000000000001,-0.006854000000000001,0.0034189999999999997,-27.870001000000002,22.870001000000002,-20.559998999999998,2c
2019-07-12_111522:240,-0.434174,-0.006072999999999999,-0.250641,-0.0042450000000000005,-0.0066099999999999996,0.003175,-28.25,22.5,-21.0,2c
2019-07-12_111522:260,-0.437225,-0.006592,-0.250641,-0.003849,-0.006488,0.002839,-28.25,22.5,-21.0,2c
2019-07-12_111522:280,-0.433167,-0.0055850000000000006,-0.248596,-0.003147,-0.005573,0.003023,-27.870001000000002,22.870001000000002,-21.75,2c
2019-07-12_111522:300,-0.432159,-0.0030210000000000002,-0.24658200000000002,-0.002872,-0.005176,0.003023,-27.870001000000002,22.870001000000002,-21.75,2c
2019-07-12_111522:320,-0.432159,-0.002014,-0.248108,-0.003116,-0.004993,0.0032359999999999997,-27.870001000000002,22.870001000000002,-21.75,2c
2019-07-12_111522:340,-0.42858900000000005,0.0,-0.246063,-0.002872,-0.005451,0.00345,-28.68,22.059998999999998,-20.18,2c
2019-07-12_111522:360,-0.434692,-0.001495,-0.248108,-0.003055,-0.006397,0.003114,-28.68,22.059998999999998,-20.18,2c
2019-07-12_111522:380,-0.433167,0.0,-0.25012199999999996,-0.0033299999999999996,-0.006488,0.003023,-28.25,22.5,-20.18,2c
2019-07-12_111522:400,-0.435699,0.0,-0.248108,-0.003208,-0.006214,0.004182,-28.25,22.5,-20.18,2c
2019-07-12_111522:420,-0.432159,0.0,-0.24963400000000002,-0.0033299999999999996,-0.005695,0.004854,-28.25,22.5,-20.18,2c
2019-07-12_111522:440,-0.432648,0.0,-0.248108,-0.003788,-0.005573,0.004732,-27.5,22.5,-19.370001000000002,2c
2019-07-12_111522:460,-0.430634,-0.000488,-0.248596,-0.004398,-0.00539,0.004854,-27.5,22.5,-19.370001000000002,2c
2019-07-12_111522:480,-0.429108,-0.001007,-0.248596,-0.004978,-0.0055119999999999995,0.005067,-28.68,22.870001000000002,-21.370001000000002,2c
2019-07-12_111522:500,-0.430634,-0.0035399999999999997,-0.248596,-0.005161,-0.005725,0.005067,-28.68,22.870001000000002,-21.370001000000002,2c
2019-07-12_111522:520,-0.429596,-0.0035399999999999997,-0.25012199999999996,-0.005161,-0.005939,0.004854,-28.68,22.870001000000002,-21.370001000000002,2c
2019-07-12_111522:540,-0.43011499999999997,-0.005065999999999999,-0.251648,-0.004886,-0.006336,0.004548,-27.5,22.059998999999998,-20.559998999999998,2c
2019-07-12_111522:560,-0.432159,-0.004547,-0.248596,-0.004642,-0.006336,0.004457,-27.5,22.059998999999998,-20.559998999999998,2c
2019-07-12_111522:580,-0.429108,-0.0025329999999999997,-0.250641,-0.004642,-0.006092,0.004609,-27.5,22.870001000000002,-22.559998999999998,2c
2019-07-12_111522:600,-0.430634,-0.004059,-0.24758899999999998,-0.004520000000000001,-0.006092,0.004548,-27.5,22.870001000000002,-22.559998999999998,2c
2019-07-12_111522:620,-0.432648,0.0,-0.25012199999999996,-0.004764,-0.006275,0.00403,-27.5,22.870001000000002,-22.559998999999998,2c
2019-07-12_111522:640,-0.431641,-0.001007,-0.24963400000000002,-0.0052829999999999995,-0.006336,0.004793,-27.870001000000002,21.75,-20.559998999999998,2c
2019-07-12_111522:660,-0.432159,-0.0025329999999999997,-0.248108,-0.005679999999999999,-0.0066099999999999996,0.0058,-27.870001000000002,21.75,-20.559998999999998,2c
2019-07-12_111522:680,-0.431122,-0.0035399999999999997,-0.24963400000000002,-0.006229,-0.006670999999999999,0.005525,-27.870001000000002,22.059998999999998,-21.370001000000002,2c
2019-07-12_111522:700,-0.431122,-0.0055850000000000006,-0.250641,-0.0065650000000000005,-0.006488,0.005128,-27.870001000000002,22.059998999999998,-21.370001000000002,2c
2019-07-12_111522:720,-0.429108,-0.008636,-0.25317399999999995,-0.0067480000000000005,-0.006458,0.005922,-27.870001000000002,22.059998999999998,-21.370001000000002,2c
2019-07-12_111522:740,-0.429596,-0.010162000000000001,-0.25216700000000003,-0.006504,-0.006458,0.006196,-28.25,22.059998999999998,-19.370001000000002,2c
2019-07-12_111522:760,-0.42858900000000005,-0.011169,-0.25116,-0.006412,-0.006214,0.005525,-28.25,22.059998999999998,-19.370001000000002,2c
2019-07-12_111522:780,-0.432159,-0.010162000000000001,-0.25216700000000003,-0.005954,-0.0061530000000000005,0.005067,-27.870001000000002,22.059998999999998,-21.75,2c
2019-07-12_111522:800,-0.430634,-0.009125,-0.25116,-0.005619,-0.006092,0.004518,-27.870001000000002,22.059998999999998,-21.75,2c
2019-07-12_111522:820,-0.430634,-0.007111,-0.250641,-0.005436,-0.0060609999999999995,0.004274,-27.870001000000002,22.059998999999998,-21.75,2c
2019-07-12_111522:840,-0.434174,-0.005065999999999999,-0.25216700000000003,-0.005222,-0.0060609999999999995,0.004457,-27.5,22.5,-20.559998999999998,2c
2019-07-12_111522:860,-0.43670699999999996,-0.005065999999999999,-0.25216700000000003,-0.005497,-0.005573,0.004609,-27.5,22.5,-20.559998999999998,2c
2019-07-12_111522:880,-0.435699,-0.0025329999999999997,-0.253693,-0.0060149999999999995,-0.004901,0.004854,-28.25,22.059998999999998,-21.0,2c
2019-07-12_111522:900,-0.435699,-0.0030210000000000002,-0.252686,-0.006504,-0.003833,0.005311,-28.25,22.059998999999998,-21.0,2c
2019-07-12_111522:920,-0.43823199999999995,-0.0055850000000000006,-0.25827,-0.007084,-0.0030399999999999997,0.0058,-28.25,22.059998999999998,-21.0,2c
2019-07-12_111522:940,-0.43774399999999997,-0.004059,-0.256226,-0.00748,-0.001789,0.005739,-27.5,22.5,-22.18,2c
2019-07-12_111522:960,-0.43670699999999996,-0.005065999999999999,-0.254211,-0.008091,-0.000659,0.005678,-27.5,22.5,-22.18,2c
2019-07-12_111522:980,-0.430634,-0.005065999999999999,-0.25216700000000003,-0.008395999999999999,-0.00014099999999999998,0.005861,-28.68,21.370001000000002,-20.18,2c
2019-07-12_111523:000,-0.43011499999999997,-0.008118,-0.24706999999999998,-0.008548,-0.00038500000000000003,0.0058,-28.68,21.370001000000002,-20.18,2c
2019-07-12_111523:020,-0.431641,-0.006072999999999999,-0.24758899999999998,-0.008487,-0.000659,0.005006,-28.68,21.370001000000002,-20.18,2c
2019-07-12_111523:040,-0.430634,-0.0055850000000000006,-0.244019,-0.008426000000000001,-0.001117,0.004457,-27.870001000000002,22.5,-21.370001000000002,2c
2019-07-12_111523:060,-0.431122,-0.005065999999999999,-0.243011,-0.008091,-0.0014529999999999999,0.004609,-27.870001000000002,22.5,-21.370001000000002,2c
2019-07-12_111523:080,-0.432159,-0.008636,-0.242493,-0.007877,-0.0017280000000000002,0.004854,-28.25,22.870001000000002,-20.18,2c
2019-07-12_111523:100,-0.432159,-0.007111,-0.241486,-0.007145,-0.002124,0.004945000000000001,-28.25,22.870001000000002,-20.18,2c
2019-07-12_111523:120,-0.432159,-0.006592,-0.242493,-0.0067480000000000005,-0.002307,0.004915,-28.25,22.870001000000002,-20.18,2c
2019-07-12_111523:140,-0.432159,-0.005065999999999999,-0.242004,-0.0061070000000000004,-0.002735,0.004854,-28.68,22.5,-20.18,2c
2019-07-12_111523:160,-0.431122,-0.004059,-0.242004,-0.005619,-0.003375,0.004732,-28.68,22.5,-20.18,2c
2019-07-12_111523:180,-0.432648,-0.0035399999999999997,-0.242493,-0.005344,-0.004383,0.004732,-28.68,21.75,-22.18,2c
2019-07-12_111523:200,-0.432159,-0.0035399999999999997,-0.23791500000000002,-0.0052829999999999995,-0.004961999999999999,0.004854,-28.68,21.75,-22.18,2c
2019-07-12_111523:220,-0.43823199999999995,-0.0030210000000000002,-0.241486,-0.0051,-0.0055119999999999995,0.005342,-28.68,21.75,-22.18,2c
2019-07-12_111523:240,-0.432648,-0.0030210000000000002,-0.24096700000000001,-0.0052829999999999995,-0.005054,0.005342,-28.68,21.370001000000002,-20.18,2c
2019-07-12_111523:260,-0.43518100000000004,-0.004547,-0.23995999999999998,-0.005375,-0.004961999999999999,0.005128,-28.68,21.370001000000002,-20.18,2c
2019-07-12_111523:280,-0.43670699999999996,-0.0055850000000000006,-0.242493,-0.005619,-0.004961999999999999,0.004945000000000001,-28.68,22.5,-22.559998999999998,2c
2019-07-12_111523:300,-0.43518100000000004,-0.006592,-0.23995999999999998,-0.005558,-0.004596,0.005006,-28.68,22.5,-22.559998999999998,2c
2019-07-12_111523:320,-0.43823199999999995,-0.005065999999999999,-0.242493,-0.005436,-0.005054,0.004091,-28.68,22.5,-22.559998999999998,2c
2019-07-12_111523:340,-0.43518100000000004,-0.0055850000000000006,-0.24096700000000001,-0.005375,-0.005451,0.003908,-29.0,22.059998999999998,-21.370001000000002,2c
2019-07-12_111523:360,-0.43621800000000005,-0.004547,-0.242004,-0.005039,-0.005878,0.005067,-29.0,22.059998999999998,-21.370001000000002,2c
2019-07-12_111523:380,-0.434692,-0.007599,-0.241486,-0.004642,-0.006,0.005678,-28.68,23.559998999999998,-20.559998999999998,2c
2019-07-12_111523:400,-0.433655,-0.006592,-0.23995999999999998,-0.004642,-0.005939,0.005006,-28.68,23.559998999999998,-20.559998999999998,2c
2019-07-12_111523:420,-0.434174,-0.007599,-0.24096700000000001,-0.004703,-0.006092,0.004793,-28.68,23.559998999999998,-20.559998999999998,2c
2019-07-12_111523:440,-0.433167,-0.008636,-0.241486,-0.004642,-0.0061530000000000005,0.004457,-28.25,22.059998999999998,-21.0,2c
2019-07-12_111523:460,-0.432648,-0.008636,-0.23995999999999998,-0.004581,-0.006397,0.004182,-28.25,22.059998999999998,-21.0,2c
2019-07-12_111523:480,-0.43518100000000004,-0.006592,-0.24453699999999998,-0.004459,-0.0066099999999999996,0.0038469999999999997,-29.0,21.370001000000002,-21.370001000000002,2c
2019-07-12_111523:500,-0.434174,-0.008118,-0.243011,-0.004184,-0.006670999999999999,0.003908,-29.0,21.370001000000002,-21.370001000000002,2c
2019-07-12_111523:520,-0.43774399999999997,-0.006072999999999999,-0.242493,-0.004001,-0.006945999999999999,0.00403,-29.0,21.370001000000002,-21.370001000000002,2c
2019-07-12_111523:540,-0.431641,-0.006592,-0.24453699999999998,-0.004062,-0.00719,0.004182,-28.25,22.059998999999998,-21.370001000000002,2c
2019-07-12_111523:560,-0.427063,-0.010651,-0.23995999999999998,-0.0037270000000000003,-0.007739,0.004152,-28.25,22.059998999999998,-21.370001000000002,2c
2019-07-12_111523:580,-0.429108,-0.009644,-0.242493,-0.003452,-0.008808,0.003053,-28.25,22.059998999999998,-21.0,2c
2019-07-12_111523:600,-0.431122,-0.011687999999999999,-0.242493,-0.002872,-0.009937,0.0027170000000000002,-28.25,22.059998999999998,-21.0,2c
2019-07-12_111523:620,-0.42858900000000005,-0.011687999999999999,-0.243011,-0.001743,-0.010639000000000001,0.0034189999999999997,-28.25,22.059998999999998,-21.0,2c
2019-07-12_111523:640,-0.43011499999999997,-0.010651,-0.246063,-0.000614,-0.011309999999999999,0.0038159999999999995,-28.25,22.059998999999998,-20.559998999999998,2c
2019-07-12_111523:660,-0.42807,-0.009644,-0.24453699999999998,-3e-06,-0.012042,0.003297,-28.25,22.059998999999998,-20.559998999999998,2c
2019-07-12_111523:680,-0.430634,-0.007599,-0.24963400000000002,0.000393,-0.012103000000000001,0.003358,-28.25,22.059998999999998,-20.559998999999998,2c
2019-07-12_111523:700,-0.432159,-0.004547,-0.24758899999999998,0.000515,-0.012195000000000001,0.003297,-28.25,22.059998999999998,-20.559998999999998,2c
2019-07-12_111523:720,-0.431641,-0.0035399999999999997,-0.25317399999999995,-0.000217,-0.011706999999999999,0.00345,-28.25,22.059998999999998,-20.559998999999998,2c
2019-07-12_111523:740,-0.432159,-0.0035399999999999997,-0.254211,-0.0008269999999999999,-0.011309999999999999,0.0037549999999999997,-27.5,22.5,-21.0,2c
2019-07-12_111523:760,-0.434692,-0.0030210000000000002,-0.256226,-0.00159,-0.010578,0.004213000000000001,-27.5,22.5,-21.0,2c
2019-07-12_111523:780,-0.431122,-0.007111,-0.258759,-0.002323,-0.010242,0.004457,-28.68,22.870001000000002,-21.75,2c
2019-07-12_111523:800,-0.433167,-0.008636,-0.25827,-0.002597,-0.009876000000000001,0.004609,-28.68,22.870001000000002,-21.75,2c
2019-07-12_111523:820,-0.43518100000000004,-0.007599,-0.259277,-0.002659,-0.009143,0.004732,-28.68,22.870001000000002,-21.75,2c
2019-07-12_111523:840,-0.434174,-0.009125,-0.259796,-0.002933,-0.008197,0.004518,-27.18,22.870001000000002,-21.370001000000002,2c
2019-07-12_111523:860,-0.433655,-0.008636,-0.25827,-0.003147,-0.007465,0.004182,-27.18,22.870001000000002,-21.370001000000002,2c
2019-07-12_111523:880,-0.430634,-0.008636,-0.257233,-0.003208,-0.006731999999999999,0.004213000000000001,-27.18,22.5,-21.0,2c
2019-07-12_111523:900,-0.429596,-0.008118,-0.25827,-0.0036659999999999996,-0.0061530000000000005,0.003908,-27.18,22.5,-21.0,2c
2019-07-12_111523:920,-0.42807,-0.008636,-0.257233,-0.004184,-0.0060609999999999995,0.0037549999999999997,-27.18,22.5,-21.0,2c
2019-07-12_111523:940,-0.42807,-0.008118,-0.256744,-0.004398,-0.005725,0.0038159999999999995,-27.18,22.059998999999998,-20.559998999999998,2c
2019-07-12_111523:960,-0.42807,-0.008636,-0.255707,-0.004825,-0.005725,0.00403,-27.18,22.059998999999998,-20.559998999999998,2c
2019-07-12_111523:980,-0.42858900000000005,-0.009125,-0.257233,-0.004978,-0.005756,0.004152,-27.5,22.5,-20.559998999999998,2c
2019-07-12_111524:000,-0.42758199999999996,-0.010162000000000001,-0.2547,-0.005161,-0.005451,0.004274,-27.5,22.5,-20.559998999999998,2c
2019-07-12_111524:020,-0.425537,-0.010162000000000001,-0.25521900000000003,-0.004886,-0.005695,0.004213000000000001,-27.5,22.5,-20.559998999999998,2c
2019-07-12_111524:040,-0.425537,-0.009644,-0.256226,-0.004825,-0.005878,0.0038469999999999997,-27.870001000000002,22.5,-21.0,2c
2019-07-12_111524:060,-0.426544,-0.009125,-0.255707,-0.004886,-0.006,0.0038159999999999995,-27.870001000000002,22.5,-21.0,2c
2019-07-12_111524:080,-0.42807,-0.007599,-0.256226,-0.004642,-0.006,0.003694,-27.5,22.870001000000002,-21.75,2c
2019-07-12_111524:100,-0.42758199999999996,-0.008118,-0.253693,-0.004978,-0.005756,0.003572,-27.5,22.870001000000002,-21.75,2c
2019-07-12_111524:120,-0.42453,-0.007599,-0.2547,-0.005222,-0.006,0.003511,-27.5,22.870001000000002,-21.75,2c
2019-07-12_111524:140,-0.423492,-0.007599,-0.255707,-0.005344,-0.006731999999999999,0.004091,-27.18,22.5,-22.18,2c
2019-07-12_111524:160,-0.42858900000000005,-0.007111,-0.257233,-0.005436,-0.0070680000000000005,0.004518,-27.18,22.5,-22.18,2c
2019-07-12_111524:180,-0.432159,-0.008118,-0.25827,-0.005679999999999999,-0.006793,0.004671,-27.5,22.5,-21.75,2c
2019-07-12_111524:200,-0.42605600000000005,-0.010162000000000001,-0.255707,-0.005558,-0.006397,0.004396,-27.5,22.5,-21.75,2c
2019-07-12_111524:220,-0.425018,-0.008636,-0.257751,-0.005375,-0.005939,0.004182,-27.5,22.5,-21.75,2c
2019-07-12_111524:240,-0.42147799999999996,-0.008636,-0.256744,-0.0052829999999999995,-0.005939,0.004274,-27.5,22.059998999999998,-21.0,2c
2019-07-12_111524:260,-0.427063,-0.009125,-0.259277,-0.004886,-0.0066099999999999996,0.003633,-27.5,22.059998999999998,-21.0,2c
2019-07-12_111524:280,-0.431641,-0.007111,-0.26181,-0.004581,-0.006731999999999999,0.002565,-27.5,22.870001000000002,-23.0,2c
2019-07-12_111524:300,-0.432648,-0.004547,-0.259796,-0.004459,-0.006214,0.003175,-27.5,22.870001000000002,-23.0,2c
2019-07-12_111524:320,-0.43518100000000004,-0.004059,-0.26181,-0.004398,-0.005573,0.00403,-27.5,22.870001000000002,-23.0,2c
2019-07-12_111524:340,-0.431122,-0.002014,-0.25827,-0.004825,-0.004566,0.004152,-27.870001000000002,22.059998999999998,-21.0,2c
2019-07-12_111524:360,-0.42807,-0.001495,-0.258759,-0.005436,-0.00426,0.004274,-27.870001000000002,22.059998999999998,-21.0,2c
2019-07-12_111524:380,-0.426544,-0.006072999999999999,-0.257751,-0.005832,-0.004229999999999999,0.004854,-27.5,22.059998999999998,-22.18,2c
2019-07-12_111524:400,-0.42401099999999997,-0.007111,-0.25521900000000003,-0.005954,-0.00426,0.005067,-27.5,22.059998999999998,-22.18,2c
2019-07-12_111524:420,-0.42147799999999996,-0.008118,-0.256744,-0.005497,-0.004444,0.005067,-27.5,22.059998999999998,-22.18,2c
2019-07-12_111524:440,-0.42248500000000005,-0.008118,-0.254211,-0.0051,-0.004993,0.005342,-27.870001000000002,22.5,-21.0,2c
2019-07-12_111524:460,-0.421967,-0.006072999999999999,-0.253693,-0.004978,-0.005573,0.00525,-27.870001000000002,22.5,-21.0,2c
2019-07-12_111524:480,-0.429596,-0.007111,-0.256744,-0.0051,-0.005939,0.005006,-26.75,22.870001000000002,-22.18,2c
2019-07-12_111524:500,-0.427063,-0.0055850000000000006,-0.253693,-0.005436,-0.0060609999999999995,0.004732,-26.75,22.870001000000002,-22.18,2c
2019-07-12_111524:520,-0.432159,-0.004547,-0.257751,-0.005619,-0.006092,0.0038469999999999997,-26.75,22.870001000000002,-22.18,2c
2019-07-12_111524:540,-0.429596,-0.0035399999999999997,-0.25827,-0.005893,-0.005939,0.003572,-27.18,23.559998999999998,-21.370001000000002,2c
2019-07-12_111524:560,-0.42758199999999996,-0.005065999999999999,-0.25827,-0.0061070000000000004,-0.005756,0.005464,-27.18,23.559998999999998,-21.370001000000002,2c
2019-07-12_111524:580,-0.426544,-0.008636,-0.25827,-0.005832,-0.005359,0.006379,-27.870001000000002,22.870001000000002,-21.370001000000002,2c
2019-07-12_111524:600,-0.426544,-0.010162000000000001,-0.256226,-0.005893,-0.005176,0.006074,-27.870001000000002,22.870001000000002,-21.370001000000002,2c
2019-07-12_111524:620,-0.426544,-0.011687999999999999,-0.256744,-0.005741,-0.004961999999999999,0.006379,-27.870001000000002,22.870001000000002,-21.370001000000002,2c
2019-07-12_111524:640,-0.42807,-0.013213999999999998,-0.25521900000000003,-0.005679999999999999,-0.0052369999999999995,0.006441,-27.5,22.5,-21.0,2c
2019-07-12_111524:660,-0.432159,-0.014740000000000001,-0.25521900000000003,-0.005497,-0.0055119999999999995,0.006044,-27.5,22.5,-21.0,2c
2019-07-12_111524:680,-0.433655,-0.017273,-0.2547,-0.0052829999999999995,-0.005359,0.005647,-27.870001000000002,22.059998999999998,-21.0,2c
2019-07-12_111524:700,-0.433655,-0.017273,-0.25317399999999995,-0.004886,-0.005054,0.005067,-27.870001000000002,22.059998999999998,-21.0,2c
2019-07-12_111524:720,-0.429108,-0.015747,-0.254211,-0.004612,-0.004718,0.004274,-27.870001000000002,22.059998999999998,-21.0,2c
2019-07-12_111524:740,-0.421967,-0.013213999999999998,-0.252686,-0.004275999999999999,-0.00484,0.0037549999999999997,-27.5,22.870001000000002,-20.18,2c
2019-07-12_111524:760,-0.416901,-0.012695,-0.25216700000000003,-0.00394,-0.005054,0.003694,-27.5,22.870001000000002,-20.18,2c
2019-07-12_111524:780,-0.417908,-0.013213999999999998,-0.252686,-0.003879,-0.005695,0.0038159999999999995,-27.5,22.5,-21.370001000000002,2c
2019-07-12_111524:800,-0.421967,-0.013702,-0.254211,-0.003849,-0.005939,0.0037549999999999997,-27.5,22.5,-21.370001000000002,2c
2019-07-12_111524:820,-0.42858900000000005,-0.012177,-0.254211,-0.0037270000000000003,-0.006336,0.0034189999999999997,-27.5,22.5,-21.370001000000002,2c
2019-07-12_111524:840,-0.432159,-0.010162000000000001,-0.25521900000000003,-0.0036659999999999996,-0.006854000000000001,0.0029620000000000002,-27.5,23.25,-22.18,2c
2019-07-12_111524:860,-0.43621800000000005,-0.007599,-0.257751,-0.00394,-0.00719,0.0029620000000000002,-27.5,23.25,-22.18,2c
2019-07-12_111524:880,-0.43823199999999995,-0.007111,-0.257233,-0.004581,-0.0070680000000000005,0.003511,-27.5,22.870001000000002,-22.559998999999998,2c
2019-07-12_111524:900,-0.43774399999999997,-0.009125,-0.25827,-0.005344,-0.0066099999999999996,0.004671,-27.5,22.870001000000002,-22.559998999999998,2c
2019-07-12_111524:920,-0.433167,-0.012695,-0.257233,-0.005741,-0.006092,0.005067,-27.5,22.870001000000002,-22.559998999999998,2c
2019-07-12_111524:940,-0.42248500000000005,-0.017273,-0.255707,-0.005741,-0.004993,0.004213000000000001,-26.370001000000002,23.25,-22.18,2c
2019-07-12_111524:960,-0.414337,-0.017792,-0.252686,-0.005161,-0.00426,0.003114,-26.370001000000002,23.25,-22.18,2c
2019-07-12_111524:980,-0.411285,-0.017792,-0.25216700000000003,-0.004062,-0.004596,0.002443,-27.870001000000002,23.25,-21.370001000000002,2c
2019-07-12_111525:000,-0.415375,-0.014221000000000001,-0.252686,-0.003116,-0.0055119999999999995,0.002107,-27.870001000000002,23.25,-21.370001000000002,2c
2019-07-12_111525:020,-0.42605600000000005,-0.013702,-0.25521900000000003,-0.0022010000000000003,-0.007006999999999999,0.002443,-27.870001000000002,23.25,-21.370001000000002,2c
2019-07-12_111525:040,-0.432648,-0.010162000000000001,-0.259277,-0.001407,-0.008014,0.0025039999999999997,-27.18,22.5,-21.0,2c
2019-07-12_111525:060,-0.426544,-0.0035399999999999997,-0.257233,-0.001529,-0.008411,0.001924,-27.18,22.5,-21.0,2c
2019-07-12_111525:080,-0.429596,-0.000488,-0.262329,-0.002079,-0.009052,0.001832,-27.5,23.559998999999998,-21.370001000000002,2c
2019-07-12_111525:100,-0.429108,0.002014,-0.26181,-0.0033299999999999996,-0.008716,0.002229,-27.5,23.559998999999998,-21.370001000000002,2c
2019-07-12_111525:120,-0.421967,0.002014,-0.262848,-0.004612,-0.007862000000000001,0.002229,-27.5,23.559998999999998,-21.370001000000002,2c
2019-07-12_111525:140,-0.421967,0.002014,-0.267426,-0.005619,-0.007739,0.002168,-27.870001000000002,22.5,-21.370001000000002,2c
2019-07-12_111525:160,-0.421967,0.001007,-0.267426,-0.00687,-0.007281999999999999,0.0038159999999999995,-27.870001000000002,22.5,-21.370001000000002,2c
2019-07-12_111525:180,-0.42807,-0.007599,-0.269958,-0.007541,-0.006854000000000001,0.006318,-27.5,21.75,-21.0,2c
2019-07-12_111525:200,-0.433655,-0.014740000000000001,-0.268433,-0.007267,-0.006458,0.006776000000000001,-27.5,21.75,-21.0,2c
2019-07-12_111525:220,-0.434692,-0.01828,-0.266388,-0.006412,-0.005939,0.005861,-27.5,21.75,-21.0,2c
2019-07-12_111525:240,-0.434692,-0.01828,-0.266907,-0.004825,-0.005359,0.005586,-26.75,23.25,-21.75,2c
2019-07-12_111525:260,-0.435699,-0.017273,-0.263336,-0.003483,-0.004901,0.005647,-26.75,23.25,-21.75,2c
2019-07-12_111525:280,-0.43011499999999997,-0.014740000000000001,-0.262848,-0.00275,-0.004444,0.004945000000000001,-26.75,22.870001000000002,-22.559998999999998,2c
2019-07-12_111525:300,-0.41586300000000004,-0.009125,-0.259796,-0.00275,-0.003833,0.004152,-26.75,22.870001000000002,-22.559998999999998,2c
2019-07-12_111525:320,-0.410797,-0.007599,-0.258759,-0.003483,-0.003192,0.003175,-26.75,22.870001000000002,-22.559998999999998,2c
2019-07-12_111525:340,-0.412811,-0.006592,-0.2547,-0.004703,-0.002857,0.002687,-27.5,22.5,-22.18,2c
2019-07-12_111525:360,-0.406219,-0.007599,-0.254211,-0.005436,-0.002979,0.003175,-27.5,22.5,-22.18,2c
2019-07-12_111525:380,-0.42401099999999997,-0.011687999999999999,-0.257751,-0.005436,-0.004321,0.002839,-27.5,22.059998999999998,-20.559998999999998,2c
2019-07-12_111525:400,-0.431122,-0.010651,-0.25827,-0.005222,-0.005756,0.0016489999999999999,-27.5,22.059998999999998,-20.559998999999998,2c
2019-07-12_111525:420,-0.437225,-0.008636,-0.259277,-0.004337,-0.006548999999999999,0.00229,-27.5,22.059998999999998,-20.559998999999998,2c
2019-07-12_111525:440,-0.441803,-0.008118,-0.264374,-0.0036659999999999996,-0.007220999999999999,0.0037549999999999997,-27.870001000000002,21.75,-21.370001000000002,2c
2019-07-12_111525:460,-0.432159,-0.006072999999999999,-0.26181,-0.003452,-0.006885,0.004091,-27.870001000000002,21.75,-21.370001000000002,2c
2019-07-12_111525:480,-0.423004,-0.0025329999999999997,-0.260803,-0.003849,-0.0060609999999999995,0.003694,-26.370001000000002,22.870001000000002,-21.370001000000002,2c
2019-07-12_111525:500,-0.417908,0.0,-0.258759,-0.004581,-0.004901,0.00345,-26.370001000000002,22.870001000000002,-21.370001000000002,2c
2019-07-12_111525:520,-0.41232299999999994,0.0,-0.255707,-0.005619,-0.003375,0.0038159999999999995,-26.370001000000002,22.870001000000002,-21.370001000000002,2c
2019-07-12_111525:540,-0.41333000000000003,-0.0030210000000000002,-0.25521900000000003,-0.0065650000000000005,-0.002857,0.00403,-26.75,22.5,-21.0,2c
2019-07-12_111525:560,-0.420959,-0.005065999999999999,-0.256226,-0.007145,-0.0038640000000000002,0.004335,-26.75,22.5,-21.0,2c
2019-07-12_111525:580,-0.42807,-0.010651,-0.261322,-0.0067480000000000005,-0.005878,0.004945000000000001,-27.5,22.5,-21.370001000000002,2c
2019-07-12_111525:600,-0.435699,-0.013213999999999998,-0.263855,-0.005893,-0.007404000000000001,0.005739,-27.5,22.5,-21.370001000000002,2c
2019-07-12_111525:620,-0.447388,-0.015747,-0.2659,-0.004825,-0.007678,0.005922,-27.5,22.5,-21.370001000000002,2c
2019-07-12_111525:640,-0.45196499999999995,-0.013702,-0.264374,-0.00394,-0.006488,0.005739,-26.75,22.5,-21.0,2c
2019-07-12_111525:660,-0.44027700000000003,-0.010162000000000001,-0.26181,-0.0033909999999999995,-0.004657,0.005403,-26.75,22.5,-21.0,2c
2019-07-12_111525:680,-0.42605600000000005,-0.009644,-0.257233,-0.003879,-0.002979,0.0039689999999999994,-27.870001000000002,22.870001000000002,-21.370001000000002,2c
2019-07-12_111525:700,-0.411285,-0.008118,-0.24963400000000002,-0.004459,-0.0014529999999999999,0.002687,-27.870001000000002,22.870001000000002,-21.370001000000002,2c
2019-07-12_111525:720,-0.40570100000000003,-0.008636,-0.24658200000000002,-0.004886,-0.000659,0.002839,-27.870001000000002,22.870001000000002,-21.370001000000002,2c
2019-07-12_111525:740,-0.40368699999999996,-0.011687999999999999,-0.242004,-0.004612,-0.000995,0.0034189999999999997,-27.18,22.870001000000002,-21.370001000000002,2c
2019-07-12_111525:760,-0.41384899999999997,-0.011687999999999999,-0.242004,-0.003788,-0.002979,0.003023,-27.18,22.870001000000002,-21.370001000000002,2c
2019-07-12_111525:780,-0.426544,-0.008636,-0.246063,-0.002872,-0.0055119999999999995,0.0029,-27.5,22.059998999999998,-21.0,2c
2019-07-12_111525:800,-0.432648,-0.008636,-0.250641,-0.002018,-0.008319,0.003572,-27.5,22.059998999999998,-21.0,2c
2019-07-12_111525:820,-0.44281000000000004,-0.0035399999999999997,-0.256226,-0.001743,-0.009876000000000001,0.003633,-27.5,22.059998999999998,-21.0,2c
2019-07-12_111525:840,-0.441284,-0.001007,-0.259277,-0.002414,-0.010517,0.003694,-27.5,22.5,-21.370001000000002,2c
2019-07-12_111525:860,-0.42858900000000005,0.000488,-0.260803,-0.003788,-0.009937,0.004457,-27.5,22.5,-21.370001000000002,2c
2019-07-12_111525:880,-0.426544,0.0,-0.260803,-0.005375,-0.008533,0.005189,-27.5,22.5,-20.559998999999998,2c
2019-07-12_111525:900,-0.41232299999999994,-0.006592,-0.259277,-0.0067480000000000005,-0.006214,0.005403,-27.5,22.5,-20.559998999999998,2c
2019-07-12_111525:920,-0.412811,-0.013213999999999998,-0.260284,-0.007084,-0.005573,0.004274,-27.5,22.5,-20.559998999999998,2c
2019-07-12_111525:940,-0.423004,-0.014740000000000001,-0.262848,-0.006626000000000001,-0.005634,0.002778,-27.5,22.5,-21.370001000000002,2c
2019-07-12_111525:960,-0.429596,-0.013702,-0.263336,-0.005375,-0.006945999999999999,0.002687,-27.5,22.5,-21.370001000000002,2c
2019-07-12_111525:980,-0.43774399999999997,-0.012695,-0.268433,-0.003849,-0.008075,0.0034189999999999997,-27.5,22.059998999999998,-21.370001000000002,2c
2019-07-12_111526:000,-0.445862,-0.005065999999999999,-0.271484,-0.003055,-0.008869,0.003511,-27.5,22.059998999999998,-21.370001000000002,2c
2019-07-12_111526:020,-0.441803,-0.0025329999999999997,-0.271484,-0.0033299999999999996,-0.008594,0.004854,-27.5,22.059998999999998,-21.370001000000002,2c
2019-07-12_111526:040,-0.43621800000000005,-0.006592,-0.267914,-0.004612,-0.006945999999999999,0.005739,-26.75,22.870001000000002,-20.559998999999998,2c
2019-07-12_111526:060,-0.42248500000000005,-0.008118,-0.2659,-0.005741,-0.0045049999999999995,0.004609,-26.75,22.870001000000002,-20.559998999999998,2c
2019-07-12_111526:080,-0.40774499999999997,-0.014740000000000001,-0.257751,-0.0067480000000000005,-0.002307,0.003908,-27.18,21.75,-21.75,2c
2019-07-12_111526:100,-0.402161,-0.017273,-0.2547,-0.005893,-0.001575,0.003358,-27.18,21.75,-21.75,2c
2019-07-12_111526:120,-0.40570100000000003,-0.016753999999999998,-0.256226,-0.004703,-0.002735,0.002565,-27.18,21.75,-21.75,2c
2019-07-12_111526:140,-0.414337,-0.015228,-0.257751,-0.0033299999999999996,-0.004993,0.0025039999999999997,-27.5,22.059998999999998,-20.559998999999998,2c
2019-07-12_111526:160,-0.432159,-0.008118,-0.264862,-0.002262,-0.007220999999999999,0.002778,-27.5,22.059998999999998,-20.559998999999998,2c
2019-07-12_111526:180,-0.441284,-0.0035399999999999997,-0.267426,-0.002536,-0.008533,0.002321,-27.18,22.870001000000002,-21.75,2c
2019-07-12_111526:200,-0.44384799999999996,0.002014,-0.269958,-0.003788,-0.008075,0.002107,-27.18,22.870001000000002,-21.75,2c
2019-07-12_111526:220,-0.43774399999999997,0.002014,-0.267426,-0.005497,-0.006397,0.002565,-27.18,22.870001000000002,-21.75,2c
2019-07-12_111526:240,-0.425537,0.0,-0.264862,-0.007358,-0.004108,0.002687,-27.18,22.5,-21.0,2c
2019-07-12_111526:260,-0.41586300000000004,-0.005065999999999999,-0.260284,-0.008945,-0.0020629999999999997,0.003297,-27.18,22.5,-21.0,2c
2019-07-12_111526:280,-0.409271,-0.015747,-0.255707,-0.008732,-0.00072,0.004854,-27.870001000000002,23.25,-21.75,2c
2019-07-12_111526:300,-0.410278,-0.018799,-0.253693,-0.007145,-0.001209,0.004793,-27.870001000000002,23.25,-21.75,2c
2019-07-12_111526:320,-0.421967,-0.017792,-0.256226,-0.005161,-0.0030399999999999997,0.0034189999999999997,-27.870001000000002,23.25,-21.75,2c
2019-07-12_111526:340,-0.432648,-0.013213999999999998,-0.257751,-0.0027199999999999998,-0.004993,0.003114,-27.870001000000002,22.870001000000002,-21.370001000000002,2c
2019-07-12_111526:360,-0.443329,-0.004059,-0.259277,-0.001407,-0.006275,0.0034189999999999997,-27.870001000000002,22.870001000000002,-21.370001000000002,2c
2019-07-12_111526:380,-0.44281000000000004,0.001495,-0.259796,-0.001468,-0.006397,0.003511,-27.870001000000002,22.059998999999998,-21.0,2c
2019-07-12_111526:400,-0.43927,0.0025329999999999997,-0.25827,-0.003147,-0.005695,0.004182,-27.870001000000002,22.059998999999998,-21.0,2c
2019-07-12_111526:420,-0.43670699999999996,0.001007,-0.255707,-0.005344,-0.004169,0.004671,-27.870001000000002,22.059998999999998,-21.0,2c
2019-07-12_111526:440,-0.41995200000000005,-0.009125,-0.251648,-0.007297,-0.0023989999999999997,0.004609,-27.5,22.5,-22.18,2c
2019-07-12_111526:460,-0.411804,-0.015747,-0.24758899999999998,-0.007541,-0.0017280000000000002,0.00345,-27.5,22.5,-22.18,2c
2019-07-12_111526:480,-0.40774499999999997,-0.017792,-0.24658200000000002,-0.006412,-0.001941,0.001588,-27.870001000000002,21.75,-21.370001000000002,2c
2019-07-12_111526:500,-0.410278,-0.015747,-0.245544,-0.004337,-0.002735,0.000368,-27.870001000000002,21.75,-21.370001000000002,2c
2019-07-12_111526:520,-0.42453,-0.007599,-0.249115,-0.0022010000000000003,-0.004901,0.000245,-27.870001000000002,21.75,-21.370001000000002,2c
2019-07-12_111526:540,-0.43518100000000004,-0.000488,-0.250641,-0.0008269999999999999,-0.006731999999999999,0.000398,-27.5,22.5,-21.370001000000002,2c
2019-07-12_111526:560,-0.43670699999999996,0.008118,-0.253693,-0.000614,-0.008197,0.000795,-27.5,22.5,-21.370001000000002,2c
2019-07-12_111526:580,-0.43774399999999997,0.013702,-0.256226,-0.001468,-0.008716,0.0005200000000000001,-27.870001000000002,22.059998999999998,-21.0,2c
2019-07-12_111526:600,-0.43774399999999997,0.014740000000000001,-0.256226,-0.0033909999999999995,-0.008258,0.001314,-27.870001000000002,22.059998999999998,-21.0,2c
2019-07-12_111526:620,-0.433655,0.010651,-0.256744,-0.005344,-0.007281999999999999,0.00345,-27.870001000000002,22.059998999999998,-21.0,2c
2019-07-12_111526:640,-0.432648,0.007111,-0.256226,-0.0065650000000000005,-0.0061530000000000005,0.005464,-27.870001000000002,22.5,-20.18,2c
2019-07-12_111526:660,-0.42401099999999997,-0.007599,-0.2547,-0.0064730000000000005,-0.005298,0.005525,-27.870001000000002,22.5,-20.18,2c
2019-07-12_111526:680,-0.420959,-0.010162000000000001,-0.255707,-0.005039,-0.004961999999999999,0.004182,-28.25,22.059998999999998,-20.18,2c
2019-07-12_111526:700,-0.42401099999999997,-0.007111,-0.25317399999999995,-0.003483,-0.00484,0.003511,-28.25,22.059998999999998,-20.18,2c
2019-07-12_111526:720,-0.42758199999999996,0.001007,-0.25317399999999995,-0.0022010000000000003,-0.005451,0.00345,-28.25,22.059998999999998,-20.18,2c
2019-07-12_111526:740,-0.429596,0.002014,-0.2547,-0.002018,-0.006488,0.003694,-27.18,23.25,-21.0,2c
2019-07-12_111526:760,-0.425018,0.011687999999999999,-0.255707,-0.003147,-0.006885,0.0038159999999999995,-27.18,23.25,-21.0,2c
2019-07-12_111526:780,-0.42401099999999997,0.012695,-0.257233,-0.005161,-0.0076170000000000005,0.004091,-27.870001000000002,22.5,-21.370001000000002,2c
2019-07-12_111526:800,-0.431641,0.002014,-0.259277,-0.007206000000000001,-0.007343000000000001,0.004732,-27.870001000000002,22.5,-21.370001000000002,2c
2019-07-12_111526:820,-0.427063,0.000488,-0.259277,-0.007816,-0.006214,0.005403,-27.870001000000002,22.5,-21.370001000000002,2c
2019-07-12_111526:840,-0.425018,-0.008118,-0.259277,-0.007358,-0.0060609999999999995,0.005128,-28.25,23.25,-21.370001000000002,2c
2019-07-12_111526:860,-0.421967,-0.008636,-0.260284,-0.005832,-0.005939,0.005006,-28.25,23.25,-21.370001000000002,2c
2019-07-12_111526:880,-0.423004,-0.008636,-0.259796,-0.003788,-0.006214,0.006196,-27.5,22.870001000000002,-21.0,2c
2019-07-12_111526:900,-0.427063,-0.006072999999999999,-0.263855,-0.002323,-0.006458,0.006837,-27.5,22.870001000000002,-21.0,2c
2019-07-12_111526:920,-0.42453,0.0030210000000000002,-0.262848,-0.002353,-0.006945999999999999,0.006379,-27.5,22.870001000000002,-21.0,2c
2019-07-12_111526:940,-0.423492,0.0055850000000000006,-0.262848,-0.004062,-0.007220999999999999,0.006135,-27.5,22.5,-22.18,2c
2019-07-12_111526:960,-0.42807,0.0030210000000000002,-0.272491,-0.006229,-0.0076170000000000005,0.0058,-27.5,22.5,-22.18,2c
2019-07-12_111526:980,-0.431641,0.002014,-0.272491,-0.007877,-0.00719,0.004732,-27.18,22.059998999999998,-21.75,2c
2019-07-12_111527:000,-0.439758,-0.006072999999999999,-0.270966,-0.007541,-0.005359,0.005067,-27.18,22.059998999999998,-21.75,2c
2019-07-12_111527:020,-0.43774399999999997,-0.007599,-0.270966,-0.0052829999999999995,-0.0038640000000000002,0.008333,-27.18,22.059998999999998,-21.75,2c
2019-07-12_111527:040,-0.427063,-0.016266,-0.260803,-0.003208,-0.002338,0.011354000000000001,-27.5,22.870001000000002,-22.559998999999998,2c
2019-07-12_111527:060,-0.432159,-0.017792,-0.256226,-0.001072,-0.001666,0.01288,-27.5,22.870001000000002,-22.559998999999998,2c
2019-07-12_111527:080,-0.42605600000000005,-0.015747,-0.24706999999999998,0.000332,-0.001209,0.013153999999999999,-28.25,22.059998999999998,-21.75,2c
2019-07-12_111527:100,-0.425018,-0.014221000000000001,-0.24758899999999998,0.000637,-0.001178,0.01111,-28.25,22.059998999999998,-21.75,2c
2019-07-12_111527:120,-0.40976,-0.007111,-0.24658200000000002,-0.000797,-0.002124,0.009096,-28.25,22.059998999999998,-21.75,2c
2019-07-12_111527:140,-0.412811,-0.007111,-0.248108,-0.002811,-0.003986,0.008058,-27.18,22.870001000000002,-21.370001000000002,2c
2019-07-12_111527:160,-0.43621800000000005,-0.011687999999999999,-0.258759,-0.004612,-0.006275,0.006196,-27.18,22.870001000000002,-21.370001000000002,2c
2019-07-12_111527:180,-0.44232200000000005,-0.011169,-0.259796,-0.005344,-0.006731999999999999,0.002778,-26.75,23.25,-21.0,2c
2019-07-12_111527:200,-0.44384799999999996,-0.007599,-0.259277,-0.005679999999999999,-0.006336,0.0011,-26.75,23.25,-21.0,2c
2019-07-12_111527:220,-0.44232200000000005,-0.007599,-0.260803,-0.004764,-0.005451,0.0034189999999999997,-26.75,23.25,-21.0,2c
2019-07-12_111527:240,-0.434174,-0.013702,-0.263855,-0.004062,-0.004993,0.00525,-27.18,23.25,-21.0,2c
2019-07-12_111527:260,-0.432159,-0.012695,-0.264374,-0.002994,-0.004901,0.004793,-27.18,23.25,-21.0,2c
2019-07-12_111527:280,-0.423492,-0.011169,-0.266907,-0.00095,-0.004718,0.005983,-27.18,23.25,-21.75,2c
2019-07-12_111527:300,-0.42401099999999997,-0.010651,-0.266907,-0.00046100000000000004,-0.004383,0.007203,-27.18,23.25,-21.75,2c
2019-07-12_111527:320,-0.426544,-0.014740000000000001,-0.262848,0.00018,-0.002124,0.009309,-27.18,23.25,-21.75,2c
2019-07-12_111527:340,-0.425018,-0.017792,-0.259277,0.000515,-0.0014529999999999999,0.009126,-27.18,23.25,-21.0,2c
2019-07-12_111527:360,-0.420959,-0.020325,-0.251648,0.001187,1.2e-05,0.006868000000000001,-27.18,23.25,-21.0,2c
2019-07-12_111527:380,-0.415375,-0.017792,-0.25116,0.001431,-0.00072,0.005586,-26.75,23.25,-20.18,2c
2019-07-12_111527:400,-0.416382,-0.015747,-0.24963400000000002,0.001583,-0.002246,0.005586,-26.75,23.25,-20.18,2c
2019-07-12_111527:420,-0.417908,-0.013213999999999998,-0.25012199999999996,0.001309,-0.003986,0.006074,-26.75,23.25,-20.18,2c
2019-07-12_111527:440,-0.421967,-0.009125,-0.25216700000000003,0.000851,-0.005176,0.007051000000000001,-28.25,24.0,-21.370001000000002,2c
2019-07-12_111527:460,-0.42453,-0.006592,-0.252686,-0.000339,-0.005695,0.008577,-28.25,24.0,-21.370001000000002,2c
2019-07-12_111527:480,-0.430634,-0.0035399999999999997,-0.255707,-0.0022010000000000003,-0.0055119999999999995,0.009645,-27.5,24.0,-19.370001000000002,2c
2019-07-12_111527:500,-0.433167,-0.0035399999999999997,-0.256226,-0.004978,-0.0045049999999999995,0.011049,-27.5,24.0,-19.370001000000002,2c
2019-07-12_111527:520,-0.434692,-0.0055850000000000006,-0.2547,-0.008334999999999999,-0.002857,0.013153999999999999,-27.5,24.0,-19.370001000000002,2c
2019-07-12_111527:540,-0.433167,-0.010651,-0.251648,-0.011051,-0.001178,0.01468,-27.18,23.559998999999998,-20.18,2c
2019-07-12_111527:560,-0.42758199999999996,-0.022858,-0.24706999999999998,-0.013125999999999999,-0.00072,0.015352000000000001,-27.18,23.559998999999998,-20.18,2c
2019-07-12_111527:580,-0.42605600000000005,-0.029968,-0.24658200000000002,-0.013858,-0.001178,0.015413,-26.75,24.0,-20.18,2c
2019-07-12_111527:600,-0.429108,-0.040649,-0.246063,-0.013706,-0.002338,0.014894,-26.75,24.0,-20.18,2c
2019-07-12_111527:620,-0.432648,-0.044739,-0.24453699999999998,-0.012729,-0.002338,0.0141,-26.75,24.0,-20.18,2c
2019-07-12_111527:640,-0.42858900000000005,-0.050323,-0.24353000000000002,-0.011326000000000001,-0.0023989999999999997,0.013276,-27.18,24.370001000000002,-20.18,2c
2019-07-12_111527:660,-0.42758199999999996,-0.051849,-0.240479,-0.009861,-0.002735,0.012361,-27.18,24.370001000000002,-20.18,2c
2019-07-12_111527:680,-0.430634,-0.053375,-0.241486,-0.008945,-0.002796,0.012239,-26.75,24.0,-20.18,2c
2019-07-12_111527:700,-0.429108,-0.052338,-0.242004,-0.0065650000000000005,-0.003925,0.011384,-26.75,24.0,-20.18,2c
2019-07-12_111527:720,-0.430634,-0.052338,-0.246063,-0.005619,-0.004901,0.010316,-26.75,24.0,-20.18,2c
2019-07-12_111527:740,-0.431641,-0.051330999999999995,-0.245056,-0.005344,-0.005176,0.010255,-26.75,24.75,-20.559998999999998,2c
2019-07-12_111527:760,-0.433167,-0.051849,-0.24658200000000002,-0.004703,-0.005573,0.010499,-26.75,24.75,-20.559998999999998,2c
2019-07-12_111527:780,-0.43518100000000004,-0.05285599999999999,-0.249115,-0.004581,-0.005298,0.009828,-26.0,23.559998999999998,-20.559998999999998,2c
2019-07-12_111527:800,-0.435699,-0.049316000000000006,-0.245544,-0.0042450000000000005,-0.003986,0.0058,-26.0,23.559998999999998,-20.559998999999998,2c
2019-07-12_111527:820,-0.437225,-0.045745999999999995,-0.243011,-0.004612,-0.002796,0.00345,-26.0,23.559998999999998,-20.559998999999998,2c
2019-07-12_111527:840,-0.429596,-0.037598,-0.241486,-0.005222,-0.00246,0.003023,-26.370001000000002,24.0,-21.370001000000002,2c
2019-07-12_111527:860,-0.42605600000000005,-0.038116000000000004,-0.23995999999999998,-0.00687,-0.002643,0.004091,-26.370001000000002,24.0,-21.370001000000002,2c
2019-07-12_111527:880,-0.423004,-0.042175,-0.24096700000000001,-0.007297,-0.003192,0.004732,-26.0,24.75,-20.18,2c
2019-07-12_111527:900,-0.42248500000000005,-0.047272,-0.243011,-0.007541,-0.005054,0.006532,-26.0,24.75,-20.18,2c
2019-07-12_111527:920,-0.426544,-0.053375,-0.242493,-0.0065650000000000005,-0.006,0.006654,-26.0,24.75,-20.18,2c
2019-07-12_111527:940,-0.42758199999999996,-0.055389,-0.24453699999999998,-0.006076,-0.0061530000000000005,0.006593000000000001,-26.75,24.370001000000002,-20.559998999999998,2c
2019-07-12_111527:960,-0.433167,-0.05438200000000001,-0.24453699999999998,-0.004337,-0.0066099999999999996,0.00525,-26.75,24.370001000000002,-20.559998999999998,2c
2019-07-12_111527:980,-0.43670699999999996,-0.047791,-0.248596,-0.004184,-0.006214,0.004548,-26.0,24.0,-19.370001000000002,2c
2019-07-12_111528:000,-0.437225,-0.040161,-0.244019,-0.005039,-0.0055119999999999995,0.004152,-26.0,24.0,-19.370001000000002,2c
2019-07-12_111528:020,-0.43518100000000004,-0.037598,-0.244019,-0.005741,-0.005298,0.00403,-26.0,24.0,-19.370001000000002,2c
2019-07-12_111528:040,-0.432648,-0.039124,-0.243011,-0.0061070000000000004,-0.005451,0.0032359999999999997,-27.18,24.370001000000002,-21.75,2c
2019-07-12_111528:060,-0.433167,-0.036591000000000005,-0.244019,-0.00687,-0.005695,0.002168,-27.18,24.370001000000002,-21.75,2c
2019-07-12_111528:080,-0.434692,-0.036072,-0.23995999999999998,-0.006809,-0.005298,0.0026260000000000003,-26.0,24.75,-20.18,2c
2019-07-12_111528:100,-0.430634,-0.038635,-0.241486,-0.006687,-0.005176,0.004457,-26.0,24.75,-20.18,2c
2019-07-12_111528:120,-0.429108,-0.042175,-0.24096700000000001,-0.0060149999999999995,-0.005756,0.005067,-26.0,24.75,-20.18,2c
2019-07-12_111528:140,-0.425018,-0.040649,-0.242004,-0.005741,-0.006793,0.004671,-26.0,24.75,-20.18,2c
2019-07-12_111528:160,-0.43011499999999997,-0.038116000000000004,-0.24353000000000002,-0.0061070000000000004,-0.007465,0.004793,-26.0,24.75,-20.18,2c
2019-07-12_111528:180,-0.432648,-0.039124,-0.244019,-0.0067480000000000005,-0.007587000000000001,0.005067,-27.5,24.370001000000002,-21.0,2c
2019-07-12_111528:200,-0.43518100000000004,-0.043213,-0.24453699999999998,-0.00748,-0.006488,0.004213000000000001,-27.5,24.370001000000002,-21.0,2c
2019-07-12_111528:220,-0.432159,-0.046752999999999996,-0.244019,-0.00687,-0.005939,0.001832,-27.5,24.370001000000002,-21.0,2c
2019-07-12_111528:240,-0.430634,-0.045226999999999996,-0.243011,-0.006412,-0.006092,0.0007639999999999999,-25.68,23.559998999999998,-20.559998999999998,2c
2019-07-12_111528:260,-0.429108,-0.043213,-0.24453699999999998,-0.004459,-0.007343000000000001,0.000306,-25.68,23.559998999999998,-20.559998999999998,2c
2019-07-12_111528:280,-0.42807,-0.040649,-0.24706999999999998,-0.004062,-0.007739,0.000306,-25.68,23.559998999999998,-20.559998999999998,2c
2019-07-12_111528:300,-0.432159,-0.038116000000000004,-0.249115,-0.0033299999999999996,-0.008747,-0.000151,-25.68,24.0,-21.370001000000002,2c
2019-07-12_111528:320,-0.432159,-0.035583,-0.251648,-0.002994,-0.009052,6.2e-05,-25.68,24.0,-21.370001000000002,2c
2019-07-12_111528:340,-0.43774399999999997,-0.034058,-0.25521900000000003,-0.002659,-0.008869,0.000306,-26.0,24.0,-21.75,2c
2019-07-12_111528:360,-0.43927,-0.031006,-0.25317399999999995,-0.002475,-0.007923000000000001,-0.000365,-26.0,24.0,-21.75,2c
2019-07-12_111528:380,-0.431122,-0.026427999999999997,-0.25116,-0.002811,-0.0060609999999999995,-0.000426,-26.0,24.0,-21.75,2c
2019-07-12_111528:400,-0.425018,-0.025421,-0.252686,-0.0033909999999999995,-0.005725,0.000398,-26.0,23.559998999999998,-20.18,2c
2019-07-12_111528:420,-0.425018,-0.027954000000000003,-0.25216700000000003,-0.004642,-0.0060609999999999995,0.001192,-26.0,23.559998999999998,-20.18,2c
2019-07-12_111528:440,-0.42605600000000005,-0.029480000000000003,-0.24963400000000002,-0.004978,-0.006,0.001253,-27.18,24.0,-20.559998999999998,2c
2019-07-12_111528:460,-0.434692,-0.028442000000000002,-0.25012199999999996,-0.004886,-0.005573,0.000795,-27.18,24.0,-20.559998999999998,2c
2019-07-12_111528:480,-0.427063,-0.029968,-0.24706999999999998,-0.004886,-0.005298,0.000398,-27.18,24.0,-20.559998999999998,2c
2019-07-12_111528:500,-0.42605600000000005,-0.026427999999999997,-0.24758899999999998,-0.004612,-0.005634,0.0005809999999999999,-27.18,24.0,-21.370001000000002,2c
2019-07-12_111528:520,-0.427063,-0.025421,-0.24658200000000002,-0.004612,-0.005725,0.0011,-27.18,24.0,-21.370001000000002,2c
2019-07-12_111528:540,-0.426544,-0.025421,-0.245056,-0.004703,-0.006092,0.00229,-26.75,24.0,-21.370001000000002,2c
2019-07-12_111528:560,-0.426544,-0.026917,-0.246063,-0.004886,-0.007281999999999999,0.002107,-26.75,24.0,-21.370001000000002,2c
2019-07-12_111528:580,-0.42858900000000005,-0.025908999999999998,-0.248596,-0.004978,-0.008014,0.00229,-26.75,24.0,-21.370001000000002,2c
2019-07-12_111528:600,-0.430634,-0.028961,-0.25116,-0.004764,-0.008716,0.003297,-26.0,24.370001000000002,-21.0,2c
2019-07-12_111528:620,-0.433655,-0.032013,-0.252686,-0.0036659999999999996,-0.008319,0.004457,-26.0,24.370001000000002,-21.0,2c
2019-07-12_111528:640,-0.432159,-0.032013,-0.2547,-0.003544,-0.008014,0.004396,-26.370001000000002,24.0,-21.0,2c
2019-07-12_111528:660,-0.432648,-0.029968,-0.25317399999999995,-0.0036659999999999996,-0.0076170000000000005,0.004213000000000001,-26.370001000000002,24.0,-21.0,2c
2019-07-12_111528:680,-0.434174,-0.030487,-0.256744,-0.003849,-0.007404000000000001,0.004091,-26.75,24.0,-20.18,2c
2019-07-12_111528:700,-0.433655,-0.034546,-0.252686,-0.0042450000000000005,-0.006,0.003053,-26.75,24.0,-20.18,2c
2019-07-12_111528:720,-0.432159,-0.034546,-0.25317399999999995,-0.004275999999999999,-0.005756,0.002443,-26.75,24.0,-20.18,2c
2019-07-12_111528:740,-0.43011499999999997,-0.033539,-0.25317399999999995,-0.003849,-0.0052369999999999995,0.0017100000000000001,-26.75,23.25,-21.370001000000002,2c
2019-07-12_111528:760,-0.432648,-0.030487,-0.25012199999999996,-0.003452,-0.005054,0.001314,-26.75,23.25,-21.370001000000002,2c
2019-07-12_111528:780,-0.42605600000000005,-0.028442000000000002,-0.25012199999999996,-0.003147,-0.005176,0.001161,-26.75,23.25,-21.370001000000002,2c
2019-07-12_111528:800,-0.429108,-0.025421,-0.248108,-0.003055,-0.0055119999999999995,0.000917,-26.0,24.0,-20.559998999999998,2c
2019-07-12_111528:820,-0.431641,-0.020325,-0.250641,-0.0033909999999999995,-0.005939,3.2e-05,-26.0,24.0,-20.559998999999998,2c
2019-07-12_111528:840,-0.43011499999999997,-0.01828,-0.248596,-0.004123,-0.0060609999999999995,-9e-05,-26.370001000000002,23.559998999999998,-20.18,2c
2019-07-12_111528:860,-0.429108,-0.020325,-0.248108,-0.004642,-0.0061530000000000005,0.000978,-26.370001000000002,23.559998999999998,-20.18,2c
2019-07-12_111528:880,-0.42807,-0.021851,-0.249115,-0.004764,-0.006214,0.001527,-26.370001000000002,23.559998999999998,-20.18,2c
2019-07-12_111528:900,-0.427063,-0.020844,-0.25116,-0.004581,-0.006458,0.0017100000000000001,-27.18,24.0,-20.18,2c
2019-07-12_111528:920,-0.426544,-0.021851,-0.251648,-0.004001,-0.006793,0.0025039999999999997,-27.18,24.0,-20.18,2c
2019-07-12_111528:940,-0.42807,-0.021332,-0.2547,-0.0036049999999999997,-0.007220999999999999,0.00345,-26.75,22.870001000000002,-21.75,2c
2019-07-12_111528:960,-0.431122,-0.021851,-0.253693,-0.0036049999999999997,-0.007526000000000001,0.0038159999999999995,-26.75,22.870001000000002,-21.75,2c
2019-07-12_111528:980,-0.434692,-0.021851,-0.25521900000000003,-0.0036049999999999997,-0.007006999999999999,0.0038159999999999995,-26.75,22.870001000000002,-21.75,2c
2019-07-12_111529:000,-0.432159,-0.019806,-0.2547,-0.00394,-0.006670999999999999,0.003358,-27.18,22.870001000000002,-20.559998999999998,2c
2019-07-12_111529:020,-0.42807,-0.01828,-0.25521900000000003,-0.004703,-0.005939,0.003023,-27.18,22.870001000000002,-20.559998999999998,2c
2019-07-12_111529:040,-0.429596,-0.020325,-0.255707,-0.005436,-0.005817,0.0039689999999999994,-26.370001000000002,23.25,-21.0,2c
2019-07-12_111529:060,-0.431641,-0.024384,-0.253693,-0.005832,-0.0055119999999999995,0.004793,-26.370001000000002,23.25,-21.0,2c
2019-07-12_111529:080,-0.431641,-0.025421,-0.254211,-0.005741,-0.005176,0.004732,-26.370001000000002,23.25,-21.0,2c
2019-07-12_111529:100,-0.432159,-0.026427999999999997,-0.2547,-0.005832,-0.004657,0.004609,-26.0,23.559998999999998,-20.559998999999998,2c
2019-07-12_111529:120,-0.433655,-0.026917,-0.25521900000000003,-0.005222,-0.0045049999999999995,0.004671,-26.0,23.559998999999998,-20.559998999999998,2c
2019-07-12_111529:140,-0.435699,-0.027435,-0.256744,-0.004886,-0.0035280000000000003,0.004335,-27.18,23.25,-21.75,2c
2019-07-12_111529:160,-0.434174,-0.025908999999999998,-0.2547,-0.004581,-0.002918,0.0039689999999999994,-27.18,23.25,-21.75,2c
2019-07-12_111529:180,-0.432159,-0.023895,-0.253693,-0.004398,-0.002307,0.004091,-27.18,23.25,-21.75,2c
2019-07-12_111529:200,-0.427063,-0.022858,-0.25116,-0.004520000000000001,-0.001911,0.004152,-26.0,24.0,-22.18,2c
2019-07-12_111529:220,-0.429108,-0.022369,-0.25012199999999996,-0.004947,-0.002338,0.0038159999999999995,-26.0,24.0,-22.18,2c
2019-07-12_111529:240,-0.430634,-0.021851,-0.24963400000000002,-0.005619,-0.002246,0.003633,-26.75,23.25,-21.0,2c
2019-07-12_111529:260,-0.429108,-0.022858,-0.24758899999999998,-0.0060149999999999995,-0.002582,0.003694,-26.75,23.25,-21.0,2c
2019-07-12_111529:280,-0.431122,-0.022858,-0.248108,-0.006229,-0.0025210000000000002,0.004396,-26.75,23.25,-21.0,2c
2019-07-12_111529:300,-0.431641,-0.025908999999999998,-0.24706999999999998,-0.006076,-0.002735,0.004854,-27.870001000000002,24.0,-20.559998999999998,2c
2019-07-12_111529:320,-0.42758199999999996,-0.025908999999999998,-0.245544,-0.005771,-0.002857,0.005189,-27.870001000000002,24.0,-20.559998999999998,2c
2019-07-12_111529:340,-0.430634,-0.027435,-0.24658200000000002,-0.005619,-0.0031309999999999997,0.005189,-27.18,23.559998999999998,-21.0,2c
2019-07-12_111529:360,-0.432159,-0.026427999999999997,-0.24453699999999998,-0.005436,-0.0032530000000000002,0.004548,-27.18,23.559998999999998,-21.0,2c
2019-07-12_111529:380,-0.430634,-0.025421,-0.24706999999999998,-0.005161,-0.0035280000000000003,0.004274,-27.18,23.559998999999998,-21.0,2c
2019-07-12_111529:400,-0.432648,-0.023375999999999997,-0.24658200000000002,-0.005344,-0.0038640000000000002,0.003633,-26.370001000000002,23.559998999999998,-20.18,2c
2019-07-12_111529:420,-0.43011499999999997,-0.024902,-0.24453699999999998,-0.005679999999999999,-0.003986,0.003694,-26.370001000000002,23.559998999999998,-20.18,2c
2019-07-12_111529:440,-0.432159,-0.025421,-0.245544,-0.005619,-0.004229999999999999,0.004518,-27.18,24.0,-21.75,2c
2019-07-12_111529:460,-0.432159,-0.026427999999999997,-0.24658200000000002,-0.005436,-0.004383,0.004213000000000001,-27.18,24.0,-21.75,2c
2019-07-12_111529:480,-0.431122,-0.025421,-0.245544,-0.0052829999999999995,-0.00426,0.003358,-27.18,24.0,-21.75,2c
2019-07-12_111529:500,-0.430634,-0.023375999999999997,-0.248108,-0.005222,-0.00484,0.0032359999999999997,-27.5,23.25,-21.0,2c
2019-07-12_111529:520,-0.432648,-0.023895,-0.248108,-0.005161,-0.004961999999999999,0.003633,-27.5,23.25,-21.0,2c
2019-07-12_111529:540,-0.433167,-0.022858,-0.248596,-0.0052829999999999995,-0.004779,0.0034189999999999997,-27.18,24.0,-20.559998999999998,2c
2019-07-12_111529:560,-0.433655,-0.023375999999999997,-0.24758899999999998,-0.0052829999999999995,-0.004596,0.003297,-27.18,24.0,-20.559998999999998,2c
2019-07-12_111529:580,-0.433167,-0.023895,-0.24658200000000002,-0.0051,-0.004383,0.003297,-27.18,24.0,-20.559998999999998,2c
2019-07-12_111529:600,-0.434174,-0.021332,-0.245056,-0.004978,-0.004321,0.003175,-27.18,23.25,-21.370001000000002,2c
2019-07-12_111529:620,-0.431122,-0.022369,-0.245544,-0.005161,-0.004047,0.003694,-27.18,23.25,-21.370001000000002,2c
2019-07-12_111529:640,-0.432648,-0.023895,-0.242004,-0.004886,-0.003467,0.004091,-27.5,23.559998999999998,-21.370001000000002,2c
2019-07-12_111529:660,-0.434692,-0.022369,-0.244019,-0.0051,-0.004229999999999999,0.003358,-27.5,23.559998999999998,-21.370001000000002,2c
2019-07-12_111529:680,-0.433167,-0.022858,-0.246063,-0.005039,-0.004444,0.003297,-27.5,23.559998999999998,-21.370001000000002,2c
2019-07-12_111529:700,-0.43518100000000004,-0.023895,-0.246063,-0.004978,-0.004566,0.00403,-27.5,24.0,-21.0,2c
2019-07-12_111529:720,-0.434174,-0.023895,-0.24353000000000002,-0.004703,-0.004657,0.0039689999999999994,-27.5,24.0,-21.0,2c
2019-07-12_111529:740,-0.43518100000000004,-0.023895,-0.244019,-0.004703,-0.004596,0.003114,-27.18,22.059998999999998,-21.0,2c
2019-07-12_111529:760,-0.434692,-0.021851,-0.24096700000000001,-0.004612,-0.004229999999999999,0.0029,-27.18,22.059998999999998,-21.0,2c
2019-07-12_111529:780,-0.435699,-0.019806,-0.242004,-0.004337,-0.003986,0.0032359999999999997,-27.18,22.059998999999998,-21.0,2c
2019-07-12_111529:800,-0.434692,-0.019318000000000002,-0.242493,-0.004459,-0.004169,0.003175,-26.370001000000002,22.870001000000002,-21.370001000000002,2c
2019-07-12_111529:820,-0.43518100000000004,-0.018799,-0.240479,-0.004703,-0.004169,0.0034189999999999997,-26.370001000000002,22.870001000000002,-21.370001000000002,2c
2019-07-12_111529:840,-0.434174,-0.020844,-0.242493,-0.004978,-0.004169,0.0037549999999999997,-27.18,22.870001000000002,-20.559998999999998,2c
2019-07-12_111529:860,-0.43518100000000004,-0.020325,-0.24096700000000001,-0.0052829999999999995,-0.004779,0.0034189999999999997,-27.18,22.870001000000002,-20.559998999999998,2c
2019-07-12_111529:880,-0.434692,-0.021332,-0.24096700000000001,-0.005161,-0.004718,0.003358,-27.18,22.870001000000002,-20.559998999999998,2c
2019-07-12_111529:900,-0.43518100000000004,-0.021851,-0.242004,-0.0051,-0.004566,0.00345,-27.5,22.870001000000002,-20.559998999999998,2c
2019-07-12_111529:920,-0.43518100000000004,-0.019806,-0.241486,-0.004978,-0.004596,0.003694,-27.5,22.870001000000002,-20.559998999999998,2c
2019-07-12_111529:940,-0.434692,-0.019318000000000002,-0.24353000000000002,-0.004978,-0.004718,0.003694,-27.5,23.25,-21.0,2c
2019-07-12_111529:960,-0.43518100000000004,-0.020325,-0.240479,-0.004978,-0.004901,0.003572,-27.5,23.25,-21.0,2c
2019-07-12_111529:980,-0.43518100000000004,-0.01828,-0.242493,-0.005039,-0.004901,0.00345,-27.5,23.25,-21.0,2c
2019-07-12_111530:000,-0.43670699999999996,-0.018799,-0.24096700000000001,-0.005039,-0.004961999999999999,0.003511,-26.75,22.870001000000002,-20.559998999999998,2c
2019-07-12_111530:020,-0.435699,-0.020325,-0.242493,-0.005039,-0.00484,0.0038159999999999995,-26.75,22.870001000000002,-20.559998999999998,2c
2019-07-12_111530:040,-0.43621800000000005,-0.019806,-0.242004,-0.005161,-0.004718,0.004152,-27.18,22.870001000000002,-21.370001000000002,2c
2019-07-12_111530:060,-0.435699,-0.020325,-0.24096700000000001,-0.0051,-0.004566,0.004182,-27.18,22.870001000000002,-21.370001000000002,2c
2019-07-12_111530:080,-0.435699,-0.019806,-0.242004,-0.004978,-0.004657,0.004152,-27.18,22.870001000000002,-21.370001000000002,2c
2019-07-12_111530:100,-0.437225,-0.019318000000000002,-0.241486,-0.004703,-0.004566,0.0037549999999999997,-27.870001000000002,22.870001000000002,-19.75,2c
2019-07-12_111530:120,-0.43670699999999996,-0.018799,-0.241486,-0.004612,-0.004596,0.003572,-27.870001000000002,22.870001000000002,-19.75,2c
2019-07-12_111530:140,-0.43774399999999997,-0.018799,-0.242493,-0.004337,-0.004596,0.0037549999999999997,-27.18,23.25,-19.75,2c
2019-07-12_111530:160,-0.437225,-0.016753999999999998,-0.24096700000000001,-0.004184,-0.0045049999999999995,0.003572,-27.18,23.25,-19.75,2c
2019-07-12_111530:180,-0.434174,-0.014221000000000001,-0.242004,-0.004184,-0.004596,0.0037549999999999997,-27.18,23.25,-19.75,2c
2019-07-12_111530:200,-0.43774399999999997,-0.013702,-0.242004,-0.004581,-0.004321,0.004335,-27.5,23.559998999999998,-21.370001000000002,2c
2019-07-12_111530:220,-0.435699,-0.015747,-0.242004,-0.005161,-0.004169,0.005311,-27.5,23.559998999999998,-21.370001000000002,2c
2019-07-12_111530:240,-0.435699,-0.020325,-0.242004,-0.005771,-0.00426,0.005678,-28.25,23.25,-21.0,2c
2019-07-12_111530:260,-0.43670699999999996,-0.020325,-0.242004,-0.006076,-0.004779,0.005311,-28.25,23.25,-21.0,2c
2019-07-12_111530:280,-0.438751,-0.024384,-0.243011,-0.00629,-0.004993,0.005464,-28.25,23.25,-21.0,2c
2019-07-12_111530:300,-0.44027700000000003,-0.026917,-0.242004,-0.006076,-0.004444,0.006044,-26.68,23.25,-20.559998999999998,2c
2019-07-12_111530:320,-0.43823199999999995,-0.026917,-0.24096700000000001,-0.005558,-0.003986,0.005739,-26.68,23.25,-20.559998999999998,2c
2019-07-12_111530:340,-0.43774399999999997,-0.024902,-0.23995999999999998,-0.0051,-0.003589,0.004518,-27.18,23.25,-20.18,2c
2019-07-12_111530:360,-0.43621800000000005,-0.023375999999999997,-0.23995999999999998,-0.004825,-0.003314,0.004152,-27.18,23.25,-20.18,2c
2019-07-12_111530:380,-0.43518100000000004,-0.020844,-0.239441,-0.004703,-0.0032530000000000002,0.0038469999999999997,-27.18,23.25,-20.18,2c
2019-07-12_111530:400,-0.43774399999999997,-0.021332,-0.238434,-0.004764,-0.003436,0.003572,-27.870001000000002,23.25,-20.559998999999998,2c
2019-07-12_111530:420,-0.43823199999999995,-0.020844,-0.236389,-0.004642,-0.003436,0.0039689999999999994,-27.870001000000002,23.25,-20.559998999999998,2c
2019-07-12_111530:440,-0.43621800000000005,-0.020325,-0.23690799999999998,-0.004886,-0.0037719999999999997,0.004091,-27.870001000000002,23.559998999999998,-19.75,2c
2019-07-12_111530:460,-0.44027700000000003,-0.021851,-0.235382,-0.004978,-0.0038640000000000002,0.004152,-27.870001000000002,23.559998999999998,-19.75,2c
2019-07-12_111530:480,-0.433655,-0.023375999999999997,-0.234375,-0.005344,-0.0038640000000000002,0.004609,-27.870001000000002,23.559998999999998,-19.75,2c
2019-07-12_111530:500,-0.435699,-0.025908999999999998,-0.23690799999999998,-0.004886,-0.004961999999999999,0.004213000000000001,-27.870001000000002,22.870001000000002,-19.75,2c
2019-07-12_111530:520,-0.43518100000000004,-0.028442000000000002,-0.23590100000000003,-0.004184,-0.005634,0.0038469999999999997,-27.870001000000002,22.870001000000002,-19.75,2c
2019-07-12_111530:540,-0.438751,-0.028442000000000002,-0.236389,-0.002933,-0.005939,0.004396,-27.870001000000002,23.25,-21.0,2c
2019-07-12_111530:560,-0.439758,-0.027435,-0.235382,-0.001224,-0.005634,0.004732,-27.870001000000002,23.25,-21.0,2c
2019-07-12_111530:580,-0.438751,-0.025421,-0.23486300000000002,-0.000553,-0.005451,0.004091,-27.870001000000002,23.25,-21.0,2c
2019-07-12_111530:600,-0.43518100000000004,-0.020844,-0.237427,-9.499999999999999e-05,-0.005695,0.003633,-27.870001000000002,23.559998999999998,-20.18,2c
2019-07-12_111530:620,-0.437225,-0.01828,-0.238434,-0.0008269999999999999,-0.0061530000000000005,0.003114,-27.870001000000002,23.559998999999998,-20.18,2c
2019-07-12_111530:640,-0.43774399999999997,-0.017273,-0.242493,-0.0019260000000000002,-0.006731999999999999,0.002778,-27.5,22.870001000000002,-19.75,2c
2019-07-12_111530:660,-0.44027700000000003,-0.01828,-0.241486,-0.002933,-0.0066099999999999996,0.0027170000000000002,-27.5,22.870001000000002,-19.75,2c
2019-07-12_111530:680,-0.44232200000000005,-0.019318000000000002,-0.24353000000000002,-0.003483,-0.005634,0.00229,-27.5,22.870001000000002,-19.75,2c
2019-07-12_111530:700,-0.441284,-0.01828,-0.242004,-0.003788,-0.00484,0.001893,-27.5,22.870001000000002,-19.059998999999998,2c
2019-07-12_111530:720,-0.43927,-0.01828,-0.240479,-0.003483,-0.004169,0.002168,-27.5,22.870001000000002,-19.059998999999998,2c
2019-07-12_111530:740,-0.439758,-0.01828,-0.240479,-0.003452,-0.0035280000000000003,0.002839,-28.25,23.25,-20.559998999999998,2c
2019-07-12_111530:760,-0.440796,-0.015747,-0.236389,-0.003452,-0.00307,0.00403,-28.25,23.25,-20.559998999999998,2c
2019-07-12_111530:780,-0.441284,-0.016266,-0.237427,-0.004062,-0.002979,0.005128,-28.25,23.25,-20.559998999999998,2c
2019-07-12_111530:800,-0.441803,-0.014221000000000001,-0.236389,-0.004825,-0.002979,0.005067,-28.25,23.25,-19.370001000000002,2c
2019-07-12_111530:820,-0.444855,-0.012695,-0.23486300000000002,-0.005558,-0.002643,0.004182,-28.25,23.25,-19.370001000000002,2c
2019-07-12_111530:840,-0.44433599999999995,-0.011687999999999999,-0.234375,-0.0065650000000000005,-0.0021850000000000003,0.004457,-28.25,23.559998999999998,-19.75,2c
2019-07-12_111530:860,-0.443329,-0.011687999999999999,-0.231323,-0.007267,-0.001789,0.006318,-28.25,23.559998999999998,-19.75,2c
2019-07-12_111530:880,-0.44638100000000003,-0.013213999999999998,-0.230804,-0.008152,-0.001117,0.007661,-28.25,23.559998999999998,-19.75,2c
2019-07-12_111530:900,-0.452484,-0.012695,-0.227753,-0.008945,0.000134,0.0071730000000000006,-28.68,23.559998999999998,-19.370001000000002,2c
2019-07-12_111530:920,-0.449432,-0.009644,-0.22216799999999998,-0.010348999999999999,0.001599,0.005739,-28.68,23.559998999999998,-19.370001000000002,2c
2019-07-12_111530:940,-0.444855,-0.006592,-0.219635,-0.012394,0.002606,0.005647,-29.0,23.25,-19.059998999999998,2c
2019-07-12_111530:960,-0.441803,-0.009644,-0.21554600000000002,-0.014315999999999999,0.0027890000000000002,0.007203,-29.0,23.25,-19.059998999999998,2c
2019-07-12_111530:980,-0.441803,-0.014221000000000001,-0.213013,-0.016117,0.003003,0.008302,-29.0,23.25,-19.059998999999998,2c
2019-07-12_111531:000,-0.441284,-0.019318000000000002,-0.21048000000000003,-0.017429,0.002667,0.008577,-28.68,22.870001000000002,-19.370001000000002,2c
2019-07-12_111531:020,-0.44281000000000004,-0.023375999999999997,-0.20944200000000002,-0.0181,0.0018739999999999998,0.008912,-28.68,22.870001000000002,-19.370001000000002,2c
2019-07-12_111531:040,-0.434174,-0.028442000000000002,-0.21148699999999998,-0.017917,0.000653,0.009126,-28.68,23.559998999999998,-20.559998999999998,2c
2019-07-12_111531:060,-0.432159,-0.031494,-0.21505700000000003,-0.017185,-0.0015140000000000002,0.009767,-28.68,23.559998999999998,-20.559998999999998,2c
2019-07-12_111531:080,-0.440796,-0.036591000000000005,-0.21911599999999998,-0.016391,-0.003375,0.010713,-28.68,23.559998999999998,-20.559998999999998,2c
2019-07-12_111531:100,-0.435699,-0.039642000000000004,-0.220642,-0.014713,-0.005115,0.010713,-28.68,22.870001000000002,-19.75,2c
2019-07-12_111531:120,-0.44232200000000005,-0.040649,-0.22521999999999998,-0.012729,-0.006488,0.009126,-28.68,22.870001000000002,-19.75,2c
2019-07-12_111531:140,-0.443329,-0.039124,-0.225739,-0.010348999999999999,-0.0076170000000000005,0.007722,-27.870001000000002,23.25,-19.370001000000002,2c
2019-07-12_111531:160,-0.44891400000000004,-0.035065,-0.226746,-0.008213,-0.008075,0.0067150000000000005,-27.870001000000002,23.25,-19.370001000000002,2c
2019-07-12_111531:180,-0.44995100000000005,-0.031494,-0.23028600000000002,-0.0067480000000000005,-0.007739,0.004854,-27.870001000000002,23.25,-19.370001000000002,2c
2019-07-12_111531:200,-0.447906,-0.025908999999999998,-0.230804,-0.0060149999999999995,-0.007220999999999999,0.003175,-28.25,22.5,-20.18,2c
2019-07-12_111531:220,-0.447388,-0.020325,-0.23233,-0.005679999999999999,-0.007404000000000001,0.00345,-28.25,22.5,-20.18,2c
2019-07-12_111531:240,-0.447906,-0.020325,-0.231812,-0.005222,-0.007129000000000001,0.0037549999999999997,-28.25,22.870001000000002,-19.75,2c
2019-07-12_111531:260,-0.445862,-0.017792,-0.231812,-0.005161,-0.006548999999999999,0.0034189999999999997,-28.25,22.870001000000002,-19.75,2c
2019-07-12_111531:280,-0.44433599999999995,-0.016266,-0.22879000000000002,-0.005039,-0.005573,0.004335,-28.25,22.870001000000002,-19.75,2c
2019-07-12_111531:300,-0.441284,-0.01828,-0.227753,-0.004642,-0.004596,0.005311,-27.870001000000002,23.559998999999998,-21.0,2c
2019-07-12_111531:320,-0.441284,-0.019318000000000002,-0.224701,-0.004459,-0.004169,0.005128,-27.870001000000002,23.559998999999998,-21.0,2c
2019-07-12_111531:340,-0.434174,-0.020844,-0.226746,-0.004398,-0.00426,0.0058,-27.870001000000002,22.870001000000002,-20.559998999999998,2c
2019-07-12_111531:360,-0.43927,-0.023895,-0.226227,-0.003849,-0.005176,0.006379,-27.870001000000002,22.870001000000002,-20.559998999999998,2c
2019-07-12_111531:380,-0.44433599999999995,-0.023375999999999997,-0.22927899999999998,-0.003544,-0.005939,0.005006,-27.870001000000002,22.870001000000002,-20.559998999999998,2c
2019-07-12_111531:400,-0.44638100000000003,-0.021851,-0.227753,-0.003544,-0.006275,0.004335,-28.25,22.5,-20.18,2c
2019-07-12_111531:420,-0.447906,-0.022369,-0.22879000000000002,-0.003483,-0.0060609999999999995,0.004945000000000001,-28.25,22.5,-20.18,2c
2019-07-12_111531:440,-0.447906,-0.022858,-0.227264,-0.0036659999999999996,-0.005725,0.004548,-28.25,22.870001000000002,-21.0,2c
2019-07-12_111531:460,-0.44638100000000003,-0.022369,-0.22521999999999998,-0.004123,-0.00539,0.0037549999999999997,-28.25,22.870001000000002,-21.0,2c
2019-07-12_111531:480,-0.44638100000000003,-0.021332,-0.226746,-0.004275999999999999,-0.005115,0.003358,-28.25,22.870001000000002,-21.0,2c
2019-07-12_111531:500,-0.45196499999999995,-0.020325,-0.22521999999999998,-0.004612,-0.004718,0.002839,-27.870001000000002,23.25,-21.0,2c
2019-07-12_111531:520,-0.45196499999999995,-0.018799,-0.22421300000000002,-0.004947,-0.003833,0.002443,-27.870001000000002,23.25,-21.0,2c
2019-07-12_111531:540,-0.452484,-0.017792,-0.22116100000000002,-0.005222,-0.002857,0.002687,-27.870001000000002,23.25,-21.0,2c
2019-07-12_111531:560,-0.451477,-0.017792,-0.21911599999999998,-0.005741,-0.00246,0.003053,-27.870001000000002,23.25,-21.0,2c
2019-07-12_111531:580,-0.449432,-0.01828,-0.22116100000000002,-0.0060149999999999995,-0.0021850000000000003,0.003053,-27.870001000000002,23.25,-21.0,2c
2019-07-12_111531:600,-0.447906,-0.019806,-0.21911599999999998,-0.006168,-0.0023989999999999997,0.003114,-28.68,24.0,-21.370001000000002,2c
2019-07-12_111531:620,-0.44891400000000004,-0.019318000000000002,-0.21911599999999998,-0.0060149999999999995,-0.002735,0.003175,-28.68,24.0,-21.370001000000002,2c
2019-07-12_111531:640,-0.448425,-0.020325,-0.21759,-0.005679999999999999,-0.002918,0.003511,-27.18,23.559998999999998,-20.559998999999998,2c
2019-07-12_111531:660,-0.444855,-0.019806,-0.21554600000000002,-0.005375,-0.0030399999999999997,0.004274,-27.18,23.559998999999998,-20.559998999999998,2c
2019-07-12_111531:680,-0.44384799999999996,-0.020325,-0.216583,-0.005161,-0.00307,0.004793,-27.18,23.559998999999998,-20.559998999999998,2c
