timestamp,AccX,AccY,AccZ,GyroX,GyroY,GyroZ,MagX,MagY,MagZ,Activity
2019-07-12_111243:600,-0.415375,-0.153015,-0.387909,-0.104404,0.001996,0.08709800000000001,-33.869999,-7.06,-5.87,1a
2019-07-12_111243:620,-0.40976,-0.136749,-0.363007,-0.105137,0.015881,0.076753,-33.869999,-7.06,-5.87,1a
2019-07-12_111243:640,-0.38739,-0.121002,-0.344177,-0.10791400000000001,0.02995,0.0701,-33.869999,-7.06,-5.87,1a
2019-07-12_111243:660,-0.368073,-0.108276,-0.318268,-0.11084300000000001,0.039837,0.066194,-35.0,-5.18,-5.18,1a
2019-07-12_111243:680,-0.528748,-0.12149000000000001,-0.295898,-0.114811,0.039013,0.066652,-35.0,-5.18,-5.18,1a
2019-07-12_111243:700,-0.36554000000000003,-0.12353499999999999,-0.364532,-0.11468900000000001,0.028424,0.079591,-35.0,-3.87,-3.5,1a
2019-07-12_111243:720,-0.36554000000000003,-0.07928500000000001,-0.239441,-0.10406800000000001,0.036114,0.062929,-35.0,-3.87,-3.5,1a
2019-07-12_111243:740,-0.29995700000000003,-0.013702,-0.258759,-0.10391600000000001,0.0341,0.035463,-35.0,-3.87,-3.5,1a
2019-07-12_111243:760,-0.342163,0.032013,-0.266907,-0.0947,0.033734,0.034517,-35.75,-1.25,-2.68,1a
2019-07-12_111243:780,-0.444855,0.060486,-0.324371,-0.08871799999999999,0.020641999999999997,0.042512,-35.75,-1.25,-2.68,1a
2019-07-12_111243:800,-0.44891400000000004,0.09201000000000001,-0.33197,-0.088077,0.006451,0.033479,-35.0,-0.5,-0.25,1a
2019-07-12_111243:820,-0.46060200000000007,0.145386,-0.316742,-0.090519,-0.003833,0.025422,-35.0,-0.5,-0.25,1a
2019-07-12_111243:840,-0.44995100000000005,0.159119,-0.318268,-0.092167,-0.005359,0.04178,-35.0,-0.5,-0.25,1a
2019-07-12_111243:860,-0.41232299999999994,0.145386,-0.316223,-0.09488300000000001,0.00108,0.068391,-34.68,0.18,-1.06,1a
2019-07-12_111243:880,-0.391479,0.126068,-0.322845,-0.099674,0.004986,0.084993,-34.68,0.18,-1.06,1a
2019-07-12_111243:900,-0.378265,0.0849,-0.309113,-0.103244,0.006695,0.09274400000000001,-35.369999,1.75,0.18,1a
2019-07-12_111243:920,-0.381805,0.05438200000000001,-0.30249000000000004,-0.104191,0.007886,0.097871,-35.369999,1.75,0.18,1a
2019-07-12_111243:940,-0.388916,0.016266,-0.270966,-0.102451,0.013012000000000001,0.098909,-35.369999,1.75,0.18,1a
2019-07-12_111243:960,-0.375214,0.000488,-0.25012199999999996,-0.099949,0.021161000000000003,0.095674,-34.68,5.5,-0.18,1a
2019-07-12_111243:980,-0.340118,-0.01828,-0.22521999999999998,-0.096683,0.027081,0.09247000000000001,-34.68,5.5,-0.18,1a
2019-07-12_111244:000,-0.3396,-0.03302,-0.21402,-0.092502,0.028485000000000003,0.088899,-34.369999,8.75,1.0,1a
2019-07-12_111244:020,-0.36349499999999996,-0.042694,-0.213531,-0.088199,0.024548,0.081605,-34.369999,8.75,1.0,1a
2019-07-12_111244:040,-0.36706500000000003,-0.044739,-0.208954,-0.083866,0.020031999999999998,0.072755,-34.369999,8.75,1.0,1a
2019-07-12_111244:060,-0.35943600000000003,-0.042694,-0.19927999999999998,-0.079441,0.016644,0.065065,-33.68,10.56,-0.18,1a
2019-07-12_111244:080,-0.349792,-0.043213,-0.206909,-0.074527,0.012402,0.058015,-33.68,10.56,-0.18,1a
2019-07-12_111244:100,-0.373688,-0.051330999999999995,-0.208954,-0.068607,0.006756,0.049745,-32.560001,12.06,-0.68,1a
2019-07-12_111244:120,-0.40011599999999997,-0.053863999999999995,-0.220123,-0.06232000000000001,0.001996,0.04236,-32.560001,12.06,-0.68,1a
2019-07-12_111244:140,-0.393494,-0.063019,-0.205902,-0.053013,0.002972,0.038911,-32.560001,12.06,-0.68,1a
2019-07-12_111244:160,-0.431641,-0.069641,-0.21402,-0.042392,0.003735,0.031618,-32.5,14.75,-1.68,1a
2019-07-12_111244:180,-0.495697,-0.063538,-0.258759,-0.032626999999999996,1.2e-05,0.022584,-32.5,14.75,-1.68,1a
2019-07-12_111244:200,-0.529755,-0.065582,-0.248596,-0.022434,-0.000598,0.019929,-32.18,14.75,-0.87,1a
2019-07-12_111244:220,-0.665009,-0.07016,-0.274536,-0.016239,-0.000537,0.022584,-32.18,14.75,-0.87,1a
2019-07-12_111244:240,-0.634491,-0.113373,-0.29742399999999997,-0.011051,-0.00365,0.030945999999999998,-32.18,14.75,-0.87,1a
2019-07-12_111244:260,-0.525696,-0.12454200000000001,-0.381805,-0.007358,-0.007923000000000001,0.031952999999999995,-31.370001000000002,15.5,-1.68,1a
2019-07-12_111244:280,-0.370636,-0.139801,-0.386902,-0.0036049999999999997,-0.019,0.031007,-31.370001000000002,15.5,-1.68,1a
2019-07-12_111244:300,-0.263855,-0.14743,-0.42401099999999997,-0.001072,-0.033618,0.022127,-31.370001000000002,15.5,-2.06,1a
2019-07-12_111244:320,-0.33300799999999997,-0.149963,-0.460114,-0.002353,-0.045489999999999996,0.020326,-31.370001000000002,15.5,-2.06,1a
2019-07-12_111244:340,-0.348267,-0.17337,-0.416901,0.002652,-0.031635,0.018739,-31.370001000000002,15.5,-2.06,1a
2019-07-12_111244:360,-0.404175,-0.144897,-0.36349499999999996,0.003689,-0.009052,-0.004058,-31.0,17.5,-4.06,1a
2019-07-12_111244:380,-0.390961,-0.11438,-0.35739099999999996,0.001248,0.003796,-0.022307,-31.0,17.5,-4.06,1a
2019-07-12_111244:400,-0.33605999999999997,-0.105743,-0.305542,0.0032310000000000004,0.013287,-0.020842,-30.18,17.5,-3.68,1a
2019-07-12_111244:420,-0.339111,-0.101685,-0.273529,0.0014609999999999998,0.014752000000000001,-0.024626,-30.18,17.5,-3.68,1a
2019-07-12_111244:440,-0.347748,-0.083374,-0.268951,-0.002475,0.010570999999999999,-0.031279,-30.18,17.5,-3.68,1a
2019-07-12_111244:460,-0.333496,-0.08590700000000001,-0.261322,-0.003055,0.0045899999999999995,-0.02423,-31.68,16.0,-2.87,1a
2019-07-12_111244:480,-0.336548,-0.09301799999999999,-0.263336,-0.0027199999999999998,-0.003833,-0.017728999999999998,-31.68,16.0,-2.87,1a
2019-07-12_111244:500,-0.35791,-0.08743300000000001,-0.266388,-0.004520000000000001,-0.012378,-0.023436000000000002,-32.060001,14.87,-2.5,1a
2019-07-12_111244:520,-0.383331,-0.078796,-0.254211,-0.005771,-0.017475,-0.029692000000000003,-32.060001,14.87,-2.5,1a
2019-07-12_111244:540,-0.394531,-0.076263,-0.24353000000000002,-0.005222,-0.017414,-0.031218,-32.060001,14.87,-2.5,1a
2019-07-12_111244:560,-0.40011599999999997,-0.069122,-0.226746,-0.005679999999999999,-0.013385,-0.033415,-32.5,14.5,-3.68,1a
2019-07-12_111244:580,-0.389954,-0.06149299999999999,-0.213013,-0.005558,-0.005725,-0.033415,-32.5,14.5,-3.68,1a
2019-07-12_111244:600,-0.365021,-0.051849,-0.19775399999999999,-0.0042450000000000005,-0.002582,-0.030272000000000004,-32.5,13.37,-3.25,1a
2019-07-12_111244:620,-0.352844,-0.047272,-0.189117,-0.003208,-0.001941,-0.029020999999999998,-32.5,13.37,-3.25,1a
2019-07-12_111244:640,-0.348267,-0.037598,-0.188599,-0.002079,-0.003925,-0.02777,-32.5,13.37,-3.25,1a
2019-07-12_111244:660,-0.34570300000000004,-0.032532,-0.195221,-0.000614,-0.008472,-0.024718,-32.869999,11.87,-4.37,1a
2019-07-12_111244:680,-0.34368899999999997,-0.032013,-0.209961,-0.000339,-0.013781999999999999,-0.020597999999999998,-32.869999,11.87,-4.37,1a
2019-07-12_111244:700,-0.338593,-0.032013,-0.21810900000000003,-0.000736,-0.017841,-0.0166,-33.560001,11.18,-3.68,1a
2019-07-12_111244:720,-0.376221,-0.040161,-0.23284899999999997,-0.00159,-0.01955,-0.013091,-33.560001,11.18,-3.68,1a
2019-07-12_111244:740,-0.41485600000000006,-0.041687,-0.23690799999999998,-0.004581,-0.019428,-0.009123000000000001,-33.560001,11.18,-3.68,1a
2019-07-12_111244:760,-0.40570100000000003,-0.041687,-0.28927600000000003,-0.007267,-0.017108,-0.002867,-32.869999,10.75,-4.37,1a
2019-07-12_111244:780,-0.431641,-0.046752999999999996,-0.291321,-0.011539,-0.019672,0.000245,-32.869999,10.75,-4.37,1a
2019-07-12_111244:800,-0.44995100000000005,-0.045226999999999996,-0.341644,-0.013981,-0.019091999999999998,-0.0017989999999999998,-33.869999,9.68,-5.56,1a
2019-07-12_111244:820,-0.469757,-0.036072,-0.381317,-0.015597999999999999,-0.012165,-0.012358,-33.869999,9.68,-5.56,1a
2019-07-12_111244:840,-0.556213,-0.020325,-0.354858,-0.020023,-0.011188,-0.020781,-33.869999,9.68,-5.56,1a
2019-07-12_111244:860,-0.64975,0.042175,-0.511444,-0.023746,-0.015552000000000002,-0.016356,-33.18,9.68,-6.37,1a
2019-07-12_111244:880,-0.5211180000000001,0.051849,-0.409271,-0.02515,-0.003986,0.004152,-33.18,9.68,-6.37,1a
2019-07-12_111244:900,-0.40011599999999997,0.084381,-0.43670699999999996,-0.028873000000000003,-0.00719,0.006532,-34.0,8.87,-6.37,1a
2019-07-12_111244:920,-0.40316799999999997,0.092529,-0.426544,-0.028385000000000004,0.003796,0.001893,-34.0,8.87,-6.37,1a
2019-07-12_111244:940,-0.2547,0.124054,-0.392487,-0.027988,0.010631999999999999,-0.0036,-34.0,8.87,-6.37,1a
2019-07-12_111244:960,-0.279633,0.131165,-0.35638400000000003,-0.030246,0.011944,6.2e-05,-33.68,8.87,-7.56,1a
2019-07-12_111244:980,-0.48858599999999996,0.13269,-0.37316900000000003,-0.030521,0.010968,0.02231,-33.68,8.87,-7.56,1a
2019-07-12_111245:000,-0.44281000000000004,0.12048299999999999,-0.383331,-0.027408,0.012402,0.039766,-35.5,8.87,-7.18,1a
2019-07-12_111245:020,-0.375214,0.08081100000000001,-0.304535,-0.025608,0.012616,0.035127,-35.5,8.87,-7.18,1a
2019-07-12_111245:040,-0.433655,0.063538,-0.286224,-0.022434,0.017193,0.026826,-35.5,8.87,-7.18,1a
2019-07-12_111245:060,-0.44638100000000003,0.059479,-0.27301,-0.019687,0.018658,0.027498,-33.68,9.0,-6.06,1a
2019-07-12_111245:080,-0.388428,0.047791,-0.258759,-0.013187,0.014813,0.032686,-33.68,9.0,-6.06,1a
2019-07-12_111245:100,-0.32995599999999997,0.025908999999999998,-0.227753,-0.01218,0.012402,0.031679,-35.060001,9.75,-6.75,1a
2019-07-12_111245:120,-0.315216,0.024902,-0.20843499999999998,-0.008274,0.006756,0.035127,-35.060001,9.75,-6.75,1a
2019-07-12_111245:140,-0.319275,0.017792,-0.18096900000000002,-0.004581,0.0055049999999999995,0.040101,-35.060001,9.75,-6.75,1a
2019-07-12_111245:160,-0.330963,0.010162000000000001,-0.164215,-0.0033909999999999995,0.005719,0.038728,-34.369999,10.87,-5.18,1a
2019-07-12_111245:180,-0.33758499999999997,0.013702,-0.151001,-0.002353,0.0045899999999999995,0.038301,-34.369999,10.87,-5.18,1a
2019-07-12_111245:200,-0.34570300000000004,0.005065999999999999,-0.144897,-0.001468,0.001324,0.04059,-34.75,12.0,-5.56,1a
2019-07-12_111245:220,-0.35739099999999996,-0.0030210000000000002,-0.145386,-0.000736,-0.0030399999999999997,0.039033,-34.75,12.0,-5.56,1a
2019-07-12_111245:240,-0.368073,-0.009644,-0.143372,0.000241,-0.005695,0.031862,-34.75,12.0,-5.56,1a
2019-07-12_111245:260,-0.388428,-0.012695,-0.14032,0.000973,-0.0060609999999999995,0.024385,-34.369999,13.18,-6.37,1a
2019-07-12_111245:280,-0.404175,-0.008636,-0.148956,0.0027129999999999997,-0.004444,0.024324000000000002,-34.369999,13.18,-6.37,1a
2019-07-12_111245:300,-0.40774499999999997,-0.011687999999999999,-0.157074,0.004574,-0.004321,0.024628999999999998,-34.25,14.18,-5.18,1a
2019-07-12_111245:320,-0.44638100000000003,-0.026917,-0.17690999999999998,0.005429,-0.008808,0.018861000000000003,-34.25,14.18,-5.18,1a
2019-07-12_111245:340,-0.478912,-0.026427999999999997,-0.225739,0.0062829999999999995,-0.017414,0.01587,-34.25,14.18,-5.18,1a
2019-07-12_111245:360,-0.516541,-0.031006,-0.23590100000000003,0.0077480000000000005,-0.018756000000000002,0.01587,-33.560001,14.18,-5.56,1a
2019-07-12_111245:380,-0.498749,-0.037598,-0.23995999999999998,0.007687,-0.017963,0.014740999999999999,-33.560001,14.18,-5.56,1a
2019-07-12_111245:400,-0.484497,-0.066071,-0.273529,0.007626000000000001,-0.01781,0.014344999999999998,-33.560001,15.25,-5.18,1a
2019-07-12_111245:420,-0.700592,-0.108276,-0.266388,0.006558,-0.027698,0.020784,-33.560001,15.25,-5.18,1a
2019-07-12_111245:440,-0.43670699999999996,-0.11080899999999999,-0.46060200000000007,0.01022,-0.029162999999999998,0.027437,-33.560001,15.25,-5.18,1a
2019-07-12_111245:460,-0.40368699999999996,-0.141846,-0.279633,0.015316,-0.023456,0.016939,-33.560001,16.059998999999998,-6.75,1a
2019-07-12_111245:480,-0.334015,-0.126068,-0.421967,0.011013,-0.034931,-0.016142,-33.560001,16.059998999999998,-6.75,1a
2019-07-12_111245:500,-0.280121,-0.11538699999999999,-0.43518100000000004,0.016049,-0.031695999999999995,-0.012969,-33.560001,16.059998999999998,-7.18,1a
2019-07-12_111245:520,-0.344696,-0.144379,-0.401123,0.018032,-0.029987,0.001924,-33.560001,16.059998999999998,-7.18,1a
2019-07-12_111245:540,-0.519073,-0.154541,-0.423004,0.018093,-0.023731,-0.003203,-33.560001,16.059998999999998,-7.18,1a
2019-07-12_111245:560,-0.46060200000000007,-0.144379,-0.396057,0.01791,-0.01781,-0.005461,-33.18,16.68,-8.75,1a
2019-07-12_111245:580,-0.43011499999999997,-0.138275,-0.341125,0.019375,-0.007739,-0.011626000000000001,-33.18,16.68,-8.75,1a
2019-07-12_111245:600,-0.410278,-0.12658699999999998,-0.328949,0.01791,-0.0055119999999999995,-0.012816,-33.18,16.68,-8.75,1a
2019-07-12_111245:620,-0.38028,-0.121002,-0.301483,0.01611,-0.005359,-0.009368000000000001,-34.369999,16.0,-9.18,1a
2019-07-12_111245:640,-0.310638,-0.12200899999999999,-0.288269,0.016964,-0.010669,-0.013212999999999999,-34.369999,16.0,-9.18,1a
2019-07-12_111245:660,-0.304016,-0.109802,-0.274536,0.01611,-0.014453,-0.025054,-34.369999,15.56,-7.56,1a
2019-07-12_111245:680,-0.312653,-0.086426,-0.24758899999999998,0.015713,-0.012775,-0.03308,-34.369999,15.56,-7.56,1a
2019-07-12_111245:700,-0.312653,-0.068634,-0.23028600000000002,0.014462000000000001,-0.007862000000000001,-0.035338,-34.75,14.87,-9.56,1a
2019-07-12_111245:720,-0.309601,-0.056427,-0.201324,0.011470999999999999,-0.00365,-0.036772000000000006,-34.75,14.87,-9.56,1a
2019-07-12_111245:740,-0.317749,-0.048279,-0.195221,0.0075650000000000005,-0.001911,-0.036009,-34.75,14.87,-9.56,1a
2019-07-12_111245:760,-0.329437,-0.044739,-0.193695,0.006375,-0.00185,-0.034148000000000005,-35.060001,14.06,-8.37,1a
2019-07-12_111245:780,-0.333496,-0.044739,-0.193176,0.0032310000000000004,-0.004169,-0.029539999999999997,-35.060001,14.06,-8.37,1a
2019-07-12_111245:800,-0.34063699999999997,-0.039642000000000004,-0.200317,0.0017050000000000001,-0.005634,-0.029235,-36.560001,12.68,-8.37,1a
2019-07-12_111245:820,-0.32843,-0.038635,-0.217072,-0.001865,-0.011188,-0.025511000000000002,-36.560001,12.68,-8.37,1a
2019-07-12_111245:840,-0.327423,-0.037108999999999996,-0.240479,-0.003788,-0.017566,-0.022978,-36.560001,12.68,-8.37,1a
2019-07-12_111245:860,-0.34875500000000004,-0.037108999999999996,-0.263336,-0.004520000000000001,-0.020465,-0.022856,-37.0,11.56,-9.18,1a
2019-07-12_111245:880,-0.39502,-0.032013,-0.29180900000000004,-0.0076939999999999995,-0.023334,-0.022734,-37.0,11.56,-9.18,1a
2019-07-12_111245:900,-0.42605600000000005,-0.028442000000000002,-0.300476,-0.009006,-0.023456,-0.021178,-37.0,11.56,-9.18,1a
2019-07-12_111245:920,-0.426544,-0.023895,-0.347229,-0.013004,-0.023273,-0.015562999999999999,-37.0,11.56,-9.18,1a
2019-07-12_111245:940,-0.44232200000000005,-0.025421,-0.341125,-0.014041999999999999,-0.021686,-0.016478,-37.0,11.56,-9.18,1a
2019-07-12_111245:960,-0.48553500000000005,-0.012695,-0.377747,-0.017429,-0.018756000000000002,-0.019255,-38.5,10.37,-10.37,1a
2019-07-12_111245:980,-0.476379,-0.002014,-0.383331,-0.018894,-0.012256,-0.018553,-38.5,10.37,-10.37,1a
2019-07-12_111246:000,-0.721436,0.01828,-0.391479,-0.020878,-0.009998,-0.016478,-38.5,10.37,-10.37,1a
2019-07-12_111246:020,-0.5343319999999999,0.027435,-0.47689799999999993,-0.026218,-0.012775,-0.004454,-37.25,9.68,-10.37,1a
2019-07-12_111246:040,-0.394531,0.037598,-0.34063699999999997,-0.02634,-0.004901,0.009767,-37.25,9.68,-10.37,1a
2019-07-12_111246:060,-0.364014,0.053863999999999995,-0.415375,-0.027195,-0.009937,0.007661,-37.68,8.56,-11.56,1a
2019-07-12_111246:080,-0.318756,0.085388,-0.40011599999999997,-0.023746,-0.006336,-0.005797,-37.68,8.56,-11.56,1a
2019-07-12_111246:100,-0.253693,0.11438,-0.37316900000000003,-0.022831,-0.004718,-0.00772,-37.68,8.56,-11.56,1a
2019-07-12_111246:120,-0.404694,0.138794,-0.35180700000000004,-0.023472,-0.002643,0.001893,-38.0,8.56,-11.87,1a
2019-07-12_111246:140,-0.44433599999999995,0.149963,-0.389435,-0.024418000000000002,-0.003192,0.010376999999999999,-38.0,8.56,-11.87,1a
2019-07-12_111246:160,-0.347229,0.142853,-0.35180700000000004,-0.025547,-0.003833,0.026887,-39.5,8.87,-11.56,1a
2019-07-12_111246:180,-0.379791,0.12200899999999999,-0.32995599999999997,-0.027988,-0.008075,0.030549,-39.5,8.87,-11.56,1a
2019-07-12_111246:200,-0.411804,0.105743,-0.340118,-0.031376,-0.008990999999999999,0.030733,-39.5,8.87,-11.56,1a
2019-07-12_111246:220,-0.359955,0.092529,-0.320282,-0.030764999999999997,-0.008655,0.040895,-38.369999,7.37,-12.18,1a
2019-07-12_111246:240,-0.342163,0.056427,-0.301483,-0.030857,-0.011249,0.048799,-38.369999,7.37,-12.18,1a
2019-07-12_111246:260,-0.326385,0.041687,-0.28418000000000004,-0.031498000000000005,-0.010851999999999999,0.049074,-38.0,9.0,-12.56,1a
2019-07-12_111246:280,-0.330475,0.027954000000000003,-0.23995999999999998,-0.029911,-0.007587000000000001,0.051210000000000006,-38.0,9.0,-12.56,1a
2019-07-12_111246:300,-0.338074,0.018799,-0.22927899999999998,-0.026981,-0.003467,0.05352899999999999,-38.0,9.0,-12.56,1a
2019-07-12_111246:320,-0.337067,0.011169,-0.21148699999999998,-0.02454,0.000989,0.050325,-38.0,10.5,-12.56,1a
2019-07-12_111246:340,-0.338593,0.011687999999999999,-0.20486500000000002,-0.022434,0.004101,0.0459,-38.0,10.5,-12.56,1a
2019-07-12_111246:360,-0.3508,0.007599,-0.204376,-0.020541999999999998,0.004497999999999999,0.045137000000000004,-37.68,12.0,-13.37,1a
2019-07-12_111246:380,-0.354858,0.0025329999999999997,-0.201843,-0.019015999999999998,0.004651,0.045747,-37.68,12.0,-13.37,1a
2019-07-12_111246:400,-0.354858,-0.006072999999999999,-0.20285,-0.017307,0.004132,0.042573,-37.68,12.0,-13.37,1a
2019-07-12_111246:420,-0.36554000000000003,-0.014221000000000001,-0.20639000000000002,-0.014835,0.005566,0.035401999999999996,-37.25,13.5,-13.37,1a
2019-07-12_111246:440,-0.390442,-0.014740000000000001,-0.213531,-0.011997,0.009503,0.028962,-37.25,13.5,-13.37,1a
2019-07-12_111246:460,-0.369598,-0.019318000000000002,-0.22927899999999998,-0.008762,0.009686,0.02823,-37.68,14.56,-12.18,1a
2019-07-12_111246:480,-0.43670699999999996,-0.031494,-0.26944,-0.005771,0.003583,0.027375999999999998,-37.68,14.56,-12.18,1a
2019-07-12_111246:500,-0.47079499999999996,-0.037598,-0.302002,-0.003879,-0.004961999999999999,0.025514,-37.68,14.56,-12.18,1a
2019-07-12_111246:520,-0.477386,-0.048798,-0.28927600000000003,-9.499999999999999e-05,-0.006336,0.023530000000000002,-37.68,15.18,-11.5,1a
2019-07-12_111246:540,-0.47280900000000003,-0.058441,-0.309113,0.00079,-0.004657,0.022706,-37.68,15.18,-11.5,1a
2019-07-12_111246:560,-0.657379,-0.103699,-0.315704,0.002194,-0.00185,0.025636000000000003,-36.5,16.0,-13.37,1a
2019-07-12_111246:580,-0.654846,-0.09149199999999999,-0.44891400000000004,0.00198,-0.010669,0.030031,-36.5,16.0,-13.37,1a
2019-07-12_111246:600,-0.504333,-0.14743,-0.322327,0.008023,-0.006548999999999999,0.026581999999999998,-36.5,16.0,-13.37,1a
2019-07-12_111246:620,-0.432648,-0.134216,-0.42248500000000005,0.010403,-0.010181,0.000398,-38.0,16.68,-12.18,1a
2019-07-12_111246:640,-0.355377,-0.11843900000000002,-0.390442,0.011349,-0.005939,-0.008727,-38.0,16.68,-12.18,1a
2019-07-12_111246:660,-0.19574,-0.135742,-0.354858,0.015041999999999998,0.001324,0.004915,-36.5,17.5,-13.75,1a
2019-07-12_111246:680,-0.28418000000000004,-0.156067,-0.33300799999999997,0.014126,0.003522,0.013429,-36.5,17.5,-13.75,1a
2019-07-12_111246:700,-0.44433599999999995,-0.157074,-0.395538,0.011746,0.001385,0.011567000000000001,-36.5,17.5,-13.75,1a
2019-07-12_111246:720,-0.393005,-0.169281,-0.359955,0.012539,0.004925,0.008577,-37.68,17.5,-12.56,1a
2019-07-12_111246:740,-0.38028,-0.171326,-0.320282,0.015713,0.005902,-0.0075060000000000005,-37.68,17.5,-12.56,1a
2019-07-12_111246:760,-0.40774499999999997,-0.153015,-0.322845,0.014400999999999999,0.006024,-0.028745999999999997,-37.68,17.059998999999998,-12.56,1a
2019-07-12_111246:780,-0.381317,-0.141327,-0.29895,0.015377000000000002,0.009564,-0.030425,-37.68,17.059998999999998,-12.56,1a
2019-07-12_111246:800,-0.355896,-0.144379,-0.29284699999999997,0.018429,0.009289,-0.022581999999999998,-37.68,17.059998999999998,-12.56,1a
2019-07-12_111246:820,-0.320801,-0.132172,-0.279633,0.020169,0.007367,-0.030272000000000004,-38.369999,17.059998999999998,-11.5,1a
2019-07-12_111246:840,-0.318268,-0.10675,-0.26944,0.020413,0.0053219999999999995,-0.047728,-38.369999,17.059998999999998,-11.5,1a
2019-07-12_111246:860,-0.32995599999999997,-0.068115,-0.254211,0.022274000000000002,0.00404,-0.056914,-39.5,15.56,-10.56,1a
2019-07-12_111246:880,-0.330963,-0.047272,-0.23791500000000002,0.022671,0.005627,-0.061888,-39.5,15.56,-10.56,1a
2019-07-12_111246:900,-0.339111,-0.014221000000000001,-0.217072,0.019436000000000002,0.008221,-0.066741,-39.5,15.56,-10.56,1a
2019-07-12_111246:920,-0.336548,0.0035399999999999997,-0.21249400000000002,0.016568,0.009625,-0.06552000000000001,-40.560001,13.68,-9.5,1a
2019-07-12_111246:940,-0.3396,0.021851,-0.19927999999999998,0.014187,0.010296,-0.060301,-40.560001,13.68,-9.5,1a
2019-07-12_111246:960,-0.340118,0.031006,-0.195221,0.011073999999999999,0.009961,-0.056914,-41.68,11.18,-9.87,1a
2019-07-12_111246:980,-0.335541,0.045226999999999996,-0.186584,0.007504,0.008832,-0.052062,-41.68,11.18,-9.87,1a
2019-07-12_111247:000,-0.330475,0.048279,-0.187073,0.004635,0.007306,-0.042906,-41.68,11.18,-9.87,1a
2019-07-12_111247:020,-0.385864,0.047272,-0.18249500000000002,0.0017050000000000001,0.005169,-0.033019,-40.18,8.18,-9.5,1a
2019-07-12_111247:040,-0.394531,0.046265,-0.196747,-0.002262,0.002514,-0.023894,-40.18,8.18,-9.5,1a
2019-07-12_111247:060,-0.44433599999999995,0.038635,-0.190125,-0.004642,0.001477,-0.015135,-42.060001,7.37,-7.87,1a
2019-07-12_111247:080,-0.461121,0.03302,-0.21859699999999999,-0.0069,-0.002796,-0.008695999999999999,-42.060001,7.37,-7.87,1a
2019-07-12_111247:100,-0.515015,0.029480000000000003,-0.23233,-0.007937999999999999,-0.006548999999999999,-0.007262,-42.060001,7.37,-7.87,1a
2019-07-12_111247:120,-0.477905,0.034546,-0.25827,-0.009159,-0.009509,-0.00659,-42.060001,6.68,-8.25,1a
2019-07-12_111247:140,-0.639587,0.051849,-0.22927899999999998,-0.010593,-0.009387000000000001,-9e-05,-42.060001,6.68,-8.25,1a
2019-07-12_111247:160,-0.697021,0.071686,-0.367584,-0.0163,-0.017566,0.011354000000000001,-42.5,6.0,-7.5,1a
2019-07-12_111247:180,-0.554688,0.044739,-0.28112800000000004,-0.021824,-0.023517,0.024965,-42.5,6.0,-7.5,1a
2019-07-12_111247:200,-0.45706199999999997,0.057434000000000006,-0.340118,-0.023197,-0.023944,0.019197,-42.5,6.0,-7.5,1a
2019-07-12_111247:220,-0.37316900000000003,0.078278,-0.35739099999999996,-0.028385000000000004,-0.025531,0.0038159999999999995,-43.18,6.0,-9.06,1a
2019-07-12_111247:240,-0.31369,0.10116599999999999,-0.335541,-0.024997,-0.018756000000000002,-0.006437999999999999,-43.18,6.0,-9.06,1a
2019-07-12_111247:260,-0.398071,0.132172,-0.33758499999999997,-0.024265000000000002,-0.015552000000000002,-0.014495,-42.060001,6.0,-9.87,1a
2019-07-12_111247:280,-0.46926899999999994,0.154022,-0.354858,-0.025669,-0.014362,-0.016814,-42.060001,6.0,-9.87,1a
2019-07-12_111247:300,-0.407227,0.163177,-0.349792,-0.028506999999999998,-0.015155000000000002,-0.0005480000000000001,-42.060001,6.0,-9.87,1a
2019-07-12_111247:320,-0.390442,0.142334,-0.322327,-0.028843,-0.014422999999999998,0.023897,-43.560001,4.5,-9.87,1a
2019-07-12_111247:340,-0.43011499999999997,0.10775799999999999,-0.314178,-0.030246,-0.011524,0.035585000000000006,-43.560001,4.5,-9.87,1a
2019-07-12_111247:360,-0.445374,0.095581,-0.29995700000000003,-0.031039999999999998,-0.00719,0.038576,-43.18,4.06,-11.5,1a
2019-07-12_111247:380,-0.41333000000000003,0.066589,-0.288269,-0.028995,-0.006458,0.045869,-43.18,4.06,-11.5,1a
2019-07-12_111247:400,-0.386383,0.049316000000000006,-0.265381,-0.025791,-0.0052369999999999995,0.04886,-43.18,4.06,-11.5,1a
2019-07-12_111247:420,-0.352325,0.040161,-0.23895300000000003,-0.023929,-0.002582,0.044160000000000005,-42.060001,5.18,-11.5,1a
2019-07-12_111247:440,-0.349792,0.038116000000000004,-0.223175,-0.02161,0.000348,0.044343,-42.060001,5.18,-11.5,1a
2019-07-12_111247:460,-0.35131799999999996,0.026917,-0.199799,-0.018894,0.0047729999999999995,0.049989,-42.060001,6.68,-10.56,1a
2019-07-12_111247:480,-0.353851,0.024902,-0.18454,-0.017643,0.008374,0.052186,-42.060001,6.68,-10.56,1a
2019-07-12_111247:500,-0.353851,0.021851,-0.174896,-0.017703999999999998,0.010205,0.050263999999999996,-42.060001,6.68,-10.56,1a
2019-07-12_111247:520,-0.355377,0.020844,-0.164703,-0.017703999999999998,0.010693000000000001,0.048188999999999996,-42.869999,8.18,-11.75,1a
2019-07-12_111247:540,-0.355896,0.016266,-0.155548,-0.018436,0.010205,0.046296,-42.869999,8.18,-11.75,1a
2019-07-12_111247:560,-0.34875500000000004,0.010651,-0.154541,-0.019565,0.008771,0.044220999999999996,-42.5,9.25,-11.0,1a
2019-07-12_111247:580,-0.367584,-0.0055850000000000006,-0.139801,-0.01984,0.006848000000000001,0.041505,-42.5,9.25,-11.0,1a
2019-07-12_111247:600,-0.397064,-0.010162000000000001,-0.151001,-0.019443000000000002,0.005047,0.038515,-42.5,9.25,-11.0,1a
2019-07-12_111247:620,-0.410278,-0.026917,-0.145386,-0.017368,0.001843,0.036134,-42.5,11.18,-10.25,1a
2019-07-12_111247:640,-0.45401,-0.032013,-0.171844,-0.011783,-0.011371,0.025575,-42.5,11.18,-10.25,1a
2019-07-12_111247:660,-0.49365200000000004,-0.039642000000000004,-0.227264,-0.005375,-0.023395,0.01822,-41.68,11.87,-10.25,1a
2019-07-12_111247:680,-0.466217,-0.043701,-0.227753,0.000241,-0.03017,0.014039,-41.68,11.87,-10.25,1a
2019-07-12_111247:700,-0.575531,-0.065582,-0.21148699999999998,0.005642,-0.032489,0.013153999999999999,-41.68,11.87,-10.25,1a
2019-07-12_111247:720,-0.7768550000000001,-0.063538,-0.322327,0.008297,-0.042316,0.016206,-41.68,12.68,-9.75,1a
2019-07-12_111247:740,-0.56839,-0.103699,-0.318756,0.015103,-0.034625,0.016817,-41.68,12.68,-9.75,1a
2019-07-12_111247:760,-0.45706199999999997,-0.100159,-0.308075,0.018765,-0.032428,0.0029620000000000002,-42.060001,13.06,-10.68,1a
2019-07-12_111247:780,-0.327423,-0.106232,-0.360962,0.01965,-0.02547,-0.0008230000000000001,-42.060001,13.06,-10.68,1a
2019-07-12_111247:800,-0.242493,-0.10775799999999999,-0.35436999999999996,0.019313999999999998,-0.019824,0.013429,-42.060001,13.06,-10.68,1a
2019-07-12_111247:820,-0.447388,-0.141327,-0.37112399999999995,0.016323,-0.025256999999999998,0.032808,-41.0,13.06,-12.18,1a
2019-07-12_111247:840,-0.447388,-0.170319,-0.445862,0.015927,-0.02544,0.038057,-41.0,13.06,-12.18,1a
2019-07-12_111247:860,-0.381805,-0.21048000000000003,-0.36911,0.016995,-0.02193,0.016084,-41.369999,13.37,-13.0,1a
2019-07-12_111247:880,-0.396057,-0.20385699999999998,-0.398071,0.016781,-0.022083000000000002,-0.00891,-41.369999,13.37,-13.0,1a
2019-07-12_111247:900,-0.397583,-0.184021,-0.393005,0.019039,-0.016559,-0.016538999999999998,-41.369999,13.37,-13.0,1a
2019-07-12_111247:920,-0.36706500000000003,-0.177948,-0.382812,0.021481,-0.014911,-0.020781,-41.25,13.37,-13.0,1a
2019-07-12_111247:940,-0.37265,-0.14743,-0.356903,0.021878,-0.012195000000000001,-0.037596,-41.25,13.37,-13.0,1a
2019-07-12_111247:960,-0.367584,-0.113373,-0.334534,0.020962,-0.007220999999999999,-0.052397000000000006,-40.869999,13.37,-14.18,1a
2019-07-12_111247:980,-0.340118,-0.071167,-0.290802,0.02084,-0.000781,-0.055510000000000004,-40.869999,13.37,-14.18,1a
2019-07-12_111248:000,-0.32486,-0.054901,-0.262329,0.019619,0.005047,-0.0567,-40.869999,13.37,-14.18,1a
2019-07-12_111248:020,-0.309113,-0.037598,-0.22979699999999997,0.017178,0.009167,-0.059355,-42.0,11.56,-12.56,1a
2019-07-12_111248:040,-0.310638,-0.024384,-0.213531,0.016049,0.010296,-0.05609,-42.0,11.56,-12.56,1a
2019-07-12_111248:060,-0.315216,-0.017273,-0.19927999999999998,0.016568,0.008954,-0.048796,-42.369999,9.68,-12.56,1a
2019-07-12_111248:080,-0.316742,-0.015747,-0.192688,0.016842,0.006024,-0.044036,-42.369999,9.68,-12.56,1a
2019-07-12_111248:100,-0.314178,-0.007111,-0.189117,0.017056,0.001721,-0.039855,-42.369999,9.68,-12.56,1a
2019-07-12_111248:120,-0.310638,-0.000488,-0.190643,0.017787999999999998,-0.002643,-0.032744,-43.5,7.06,-11.5,1a
2019-07-12_111248:140,-0.330963,0.002014,-0.194214,0.017514,-0.0061530000000000005,-0.026579000000000002,-43.5,7.06,-11.5,1a
2019-07-12_111248:160,-0.387909,0.013213999999999998,-0.204376,0.014706,-0.008594,-0.021971,-43.869999,5.56,-11.68,1a
2019-07-12_111248:180,-0.399597,0.021851,-0.220642,0.009549,-0.010578,-0.013152,-43.869999,5.56,-11.68,1a
2019-07-12_111248:200,-0.45095799999999997,0.021332,-0.230804,0.002255,-0.0125,-0.0016769999999999999,-43.869999,5.56,-11.68,1a
2019-07-12_111248:220,-0.46926899999999994,0.014221000000000001,-0.273529,-0.00629,-0.017291,0.006257,-43.869999,4.87,-11.37,1a
2019-07-12_111248:240,-0.50943,0.001495,-0.29895,-0.012272,-0.018695,0.004609,-43.869999,4.87,-11.37,1a
2019-07-12_111248:260,-0.46469099999999997,0.001495,-0.312653,-0.017643,-0.017169,-0.002806,-43.869999,3.37,-12.5,1a
2019-07-12_111248:280,-0.730072,0.025908999999999998,-0.355377,-0.022494999999999998,-0.020404,-0.0015550000000000002,-43.869999,3.37,-12.5,1a
2019-07-12_111248:300,-0.561279,0.028442000000000002,-0.47689799999999993,-0.027988,-0.030567,0.015535,-43.869999,3.37,-12.5,1a
2019-07-12_111248:320,-0.47689799999999993,0.029968,-0.35638400000000003,-0.029331,-0.021869,0.022767,-43.869999,3.68,-12.06,1a
2019-07-12_111248:340,-0.37316900000000003,0.047791,-0.42758199999999996,-0.034305,-0.027179000000000002,0.015535,-43.869999,3.68,-12.06,1a
2019-07-12_111248:360,-0.26181,0.072174,-0.373688,-0.030368,-0.016040000000000002,0.006257,-43.869999,3.68,-12.87,1a
2019-07-12_111248:380,-0.322327,0.08590700000000001,-0.361969,-0.027195,-0.012897,-0.004943,-43.869999,3.68,-12.87,1a
2019-07-12_111248:400,-0.43774399999999997,0.11795,-0.41232299999999994,-0.02692,-0.01192,-0.007109000000000001,-43.869999,3.68,-12.87,1a
2019-07-12_111248:420,-0.40063499999999996,0.132172,-0.402649,-0.026737,-0.012103000000000001,0.011293000000000001,-44.25,3.0,-14.06,1a
2019-07-12_111248:440,-0.383331,0.103699,-0.378754,-0.02634,-0.013507,0.035127,-44.25,3.0,-14.06,1a
2019-07-12_111248:460,-0.415375,0.0737,-0.36248800000000003,-0.026798000000000002,-0.00893,0.042756,-44.0,2.18,-15.25,1a
2019-07-12_111248:480,-0.42807,0.055908000000000006,-0.34063699999999997,-0.027134,-0.002582,0.042238,-44.0,2.18,-15.25,1a
2019-07-12_111248:500,-0.402161,0.039642000000000004,-0.334534,-0.025089,7.3e-05,0.046876,-44.0,2.18,-15.25,1a
2019-07-12_111248:520,-0.361969,0.013213999999999998,-0.293854,-0.023136,0.003064,0.047212,-44.0,3.5,-14.06,1a
2019-07-12_111248:540,-0.334534,0.005065999999999999,-0.273529,-0.02222,0.004895,0.041627,-44.0,3.5,-14.06,1a
2019-07-12_111248:560,-0.322327,0.000488,-0.245544,-0.019625999999999998,0.006634,0.040833999999999995,-44.0,4.18,-14.06,1a
2019-07-12_111248:580,-0.319275,-0.002014,-0.22421300000000002,-0.015964,0.008679000000000001,0.043153,-44.0,4.18,-14.06,1a
2019-07-12_111248:600,-0.317749,-0.004547,-0.20385699999999998,-0.014315999999999999,0.010235,0.04117,-44.0,4.18,-14.06,1a
2019-07-12_111248:620,-0.311646,-0.005065999999999999,-0.196747,-0.013645,0.009106,0.039827,-44.68,5.25,-14.06,1a
2019-07-12_111248:640,-0.309601,-0.009644,-0.18811,-0.012729,0.006177,0.041901999999999995,-44.68,5.25,-14.06,1a
2019-07-12_111248:660,-0.318756,-0.016753999999999998,-0.184021,-0.012577,0.001782,0.041901999999999995,-44.68,6.68,-14.87,1a
2019-07-12_111248:680,-0.32132,-0.020844,-0.182007,-0.013065,-0.0020629999999999997,0.038331,-44.68,6.68,-14.87,1a
2019-07-12_111248:700,-0.331482,-0.028442000000000002,-0.18096900000000002,-0.012790000000000001,-0.005115,0.03354,-44.68,6.68,-14.87,1a
2019-07-12_111248:720,-0.378265,-0.033539,-0.19165,-0.011081,-0.007465,0.027437,-44.25,8.25,-14.56,1a
2019-07-12_111248:740,-0.36248800000000003,-0.037598,-0.21505700000000003,-0.008884,-0.010333,0.021669,-44.25,8.25,-14.56,1a
2019-07-12_111248:760,-0.445862,-0.043213,-0.242004,-0.004642,-0.016375999999999998,0.016267,-45.369999,9.0,-14.06,1a
2019-07-12_111248:780,-0.490112,-0.042694,-0.307587,-0.001468,-0.027698,0.013276,-45.369999,9.0,-14.06,1a
2019-07-12_111248:800,-0.49468999999999996,-0.041168,-0.29895,0.004177,-0.028582999999999997,0.011506,-45.369999,9.0,-14.06,1a
2019-07-12_111248:820,-0.49111899999999997,-0.051330999999999995,-0.309113,0.005947,-0.02547,0.00937,-44.560001,10.06,-12.87,1a
2019-07-12_111248:840,-0.699066,-0.055908000000000006,-0.40823400000000004,0.007168000000000001,-0.026386,0.011567000000000001,-44.560001,10.06,-12.87,1a
2019-07-12_111248:860,-0.5048520000000001,-0.078796,-0.460114,0.007809,-0.029620999999999998,0.021791,-44.560001,9.25,-14.18,1a
2019-07-12_111248:880,-0.471283,-0.099121,-0.423492,0.012142,-0.026111000000000002,0.016541999999999998,-44.560001,9.25,-14.18,1a
2019-07-12_111248:900,-0.43670699999999996,-0.11080899999999999,-0.440796,0.010159,-0.02367,0.007051000000000001,-44.560001,9.25,-14.18,1a
2019-07-12_111248:920,-0.276062,-0.11080899999999999,-0.414337,0.013211,-0.014025999999999999,0.009492,-43.869999,10.37,-15.25,1a
2019-07-12_111248:940,-0.245056,-0.128113,-0.376221,0.012142,-0.003986,0.019716,-43.869999,10.37,-15.25,1a
2019-07-12_111248:960,-0.41333000000000003,-0.151489,-0.389954,0.009487,-0.0021850000000000003,0.029024,-44.5,11.87,-15.68,1a
2019-07-12_111248:980,-0.36706500000000003,-0.17385899999999999,-0.41586300000000004,0.008938,-0.00185,0.032625,-44.5,11.87,-15.68,1a
2019-07-12_111249:000,-0.308594,-0.192169,-0.3396,0.01141,-0.0008730000000000001,0.015474000000000002,-44.5,11.87,-15.68,1a
2019-07-12_111249:020,-0.330475,-0.17996199999999998,-0.337067,0.010617,-0.0031309999999999997,-0.011351,-44.18,11.87,-16.0,1a
2019-07-12_111249:040,-0.36044299999999996,-0.153534,-0.330475,0.011593000000000001,-0.002704,-0.0231,-44.18,11.87,-16.0,1a
2019-07-12_111249:060,-0.354858,-0.146912,-0.31723,0.013119,-0.00426,-0.021238999999999997,-44.5,13.06,-15.68,1a
2019-07-12_111249:080,-0.352325,-0.130127,-0.293854,0.013729,-0.0060609999999999995,-0.024108,-44.5,13.06,-15.68,1a
2019-07-12_111249:100,-0.355377,-0.10928299999999999,-0.272491,0.012875,-0.004047,-0.033476,-44.5,13.06,-15.68,1a
2019-07-12_111249:120,-0.352325,-0.076752,-0.240479,0.011746,0.000866,-0.038329,-44.18,11.56,-15.68,1a
2019-07-12_111249:140,-0.333496,-0.064545,-0.22216799999999998,0.010556,0.0062380000000000005,-0.037993,-44.18,11.56,-15.68,1a
2019-07-12_111249:160,-0.312653,-0.05438200000000001,-0.19927999999999998,0.007809,0.008679000000000001,-0.038298,-45.25,10.75,-14.06,1a
2019-07-12_111249:180,-0.308594,-0.048279,-0.195221,0.004971,0.0069700000000000005,-0.037047000000000004,-45.25,10.75,-14.06,1a
2019-07-12_111249:200,-0.29895,-0.045226999999999996,-0.194702,0.00372,0.0024530000000000003,-0.031615,-45.25,10.75,-14.06,1a
2019-07-12_111249:220,-0.295898,-0.045745999999999995,-0.196747,0.0032310000000000004,-0.004108,-0.028166000000000004,-46.68,8.87,-13.68,1a
2019-07-12_111249:240,-0.29895,-0.043701,-0.21048000000000003,0.002499,-0.012042,-0.028013999999999997,-46.68,8.87,-13.68,1a
2019-07-12_111249:260,-0.31012,-0.041168,-0.224701,0.002896,-0.019489,-0.026182999999999998,-46.25,6.37,-14.87,1a
2019-07-12_111249:280,-0.336548,-0.038116000000000004,-0.237427,0.003628,-0.02367,-0.024108,-46.25,6.37,-14.87,1a
2019-07-12_111249:300,-0.391479,-0.033539,-0.25216700000000003,0.0027129999999999997,-0.024066,-0.023833,-46.25,6.37,-14.87,1a
2019-07-12_111249:320,-0.41995200000000005,-0.025421,-0.286224,0.000729,-0.021594,-0.018614,-47.5,5.56,-14.06,1a
2019-07-12_111249:340,-0.46670500000000004,-0.021851,-0.29284699999999997,-0.002536,-0.018482,-0.009429,-47.5,5.56,-14.06,1a
2019-07-12_111249:360,-0.44281000000000004,-0.028442000000000002,-0.33605999999999997,-0.0069,-0.018878,-0.003325,-47.5,4.87,-14.5,1a
2019-07-12_111249:380,-0.46875,-0.026427999999999997,-0.322845,-0.011081,-0.014422999999999998,-0.007201000000000001,-47.5,4.87,-14.5,1a
2019-07-12_111249:400,-0.471283,-0.016266,-0.35131799999999996,-0.015444999999999999,-0.012653,-0.010039,-47.5,4.87,-14.5,1a
2019-07-12_111249:420,-0.644165,0.0055850000000000006,-0.389435,-0.020176,-0.017841,-0.004943,-47.060001,4.06,-16.0,1a
2019-07-12_111249:440,-0.502808,0.014221000000000001,-0.41485600000000006,-0.025669,-0.022663,0.010988,-47.060001,4.06,-16.0,1a
2019-07-12_111249:460,-0.45401,0.036591000000000005,-0.40316799999999997,-0.032322000000000004,-0.02074,0.018281,-46.68,3.0,-16.370001000000002,1a
2019-07-12_111249:480,-0.42248500000000005,0.07775900000000001,-0.460114,-0.038669,-0.023273,0.020143,-46.68,3.0,-16.370001000000002,1a
2019-07-12_111249:500,-0.3508,0.09963999999999999,-0.45553599999999994,-0.042606,-0.02016,0.013368000000000001,-46.68,3.0,-16.370001000000002,1a
2019-07-12_111249:520,-0.334534,0.130646,-0.41384899999999997,-0.046176999999999996,-0.011859,-0.0005480000000000001,-46.25,3.0,-16.870001000000002,1a
2019-07-12_111249:540,-0.368073,0.150482,-0.378754,-0.049167,0.003399,-0.005248,-46.25,3.0,-16.870001000000002,1a
2019-07-12_111249:560,-0.37112399999999995,0.174377,-0.393005,-0.053074,0.010754000000000001,0.010499,-46.25,3.0,-16.870001000000002,1a
2019-07-12_111249:580,-0.316742,0.167755,-0.390442,-0.056583,0.010296,0.033082,-46.25,3.0,-16.870001000000002,1a
2019-07-12_111249:600,-0.345215,0.145386,-0.365021,-0.060123,0.008221,0.039186,-46.25,3.0,-16.870001000000002,1a
2019-07-12_111249:620,-0.366058,0.141846,-0.37265,-0.063846,0.005047,0.039583,-47.5,1.18,-16.370001000000002,1a
2019-07-12_111249:640,-0.374695,0.12048299999999999,-0.366058,-0.063175,0.003247,0.052125,-47.5,1.18,-16.370001000000002,1a
2019-07-12_111249:660,-0.360962,0.081848,-0.349792,-0.061588,0.0024530000000000003,0.063264,-45.560001,2.56,-16.370001000000002,1a
2019-07-12_111249:680,-0.3508,0.068115,-0.336548,-0.06024500000000001,0.003186,0.064546,-45.560001,2.56,-16.370001000000002,1a
2019-07-12_111249:700,-0.334534,0.05438200000000001,-0.304535,-0.056583,0.007702,0.069063,-45.560001,2.56,-16.370001000000002,1a
2019-07-12_111249:720,-0.333496,0.043213,-0.28418000000000004,-0.052004999999999996,0.012555,0.075685,-46.75,4.06,-17.18,1a
2019-07-12_111249:740,-0.322845,0.035583,-0.258759,-0.048984,0.018047999999999998,0.075685,-46.75,4.06,-17.18,1a
2019-07-12_111249:760,-0.314697,0.036072,-0.244019,-0.047641,0.021985,0.07281599999999999,-47.18,6.37,-16.0,1a
2019-07-12_111249:780,-0.308075,0.027954000000000003,-0.22879000000000002,-0.04697,0.022687,0.073488,-47.18,6.37,-16.0,1a
2019-07-12_111249:800,-0.307587,0.023895,-0.223694,-0.047367,0.021313,0.074037,-47.18,6.37,-16.0,1a
2019-07-12_111249:820,-0.31723,0.006592,-0.212006,-0.048556999999999996,0.019299,0.07190099999999999,-45.560001,8.18,-15.25,1a
2019-07-12_111249:840,-0.326385,-0.0025329999999999997,-0.20639000000000002,-0.048893,0.017773,0.068788,-45.560001,8.18,-15.25,1a
2019-07-12_111249:860,-0.36554000000000003,-0.021851,-0.19622799999999999,-0.047031,0.01759,0.06302,-46.25,10.75,-13.25,1a
2019-07-12_111249:880,-0.379272,-0.027435,-0.198273,-0.044650999999999996,0.018262,0.053712,-46.25,10.75,-13.25,1a
2019-07-12_111249:900,-0.44638100000000003,-0.029968,-0.19622799999999999,-0.041324,0.019452,0.046662999999999996,-46.25,10.75,-13.25,1a
2019-07-12_111249:920,-0.465179,-0.034058,-0.236389,-0.038334,0.014081,0.045808,-46.25,11.87,-12.06,1a
2019-07-12_111249:940,-0.519592,-0.037598,-0.246063,-0.034031,0.008496,0.045288999999999996,-46.25,11.87,-12.06,1a
2019-07-12_111249:960,-0.506897,-0.031494,-0.240479,-0.031252999999999996,0.007916,0.040773000000000004,-45.560001,14.5,-12.56,1a
2019-07-12_111249:980,-0.45095799999999997,-0.043213,-0.2547,-0.029911,0.010876,0.039522,-45.560001,14.5,-12.56,1a
2019-07-12_111250:000,-0.610107,-0.075226,-0.271484,-0.028995,0.007763,0.044374000000000004,-45.560001,14.5,-12.56,1a
2019-07-12_111250:020,-0.525696,-0.089478,-0.396057,-0.029636000000000003,-0.0070680000000000005,0.054262,-44.18,15.18,-12.56,1a
2019-07-12_111250:040,-0.537384,-0.108795,-0.285217,-0.023929,-0.004993,0.049348,-44.18,15.18,-12.56,1a
2019-07-12_111250:060,-0.512482,-0.08743300000000001,-0.37011700000000003,-0.024479,-0.013568,0.030152999999999996,-44.869999,17.059998999999998,-13.37,1a
2019-07-12_111250:080,-0.37011700000000003,-0.067108,-0.3508,-0.018833000000000003,-0.007862000000000001,0.02762,-44.869999,17.059998999999998,-13.37,1a
2019-07-12_111250:100,-0.23028600000000002,-0.05438200000000001,-0.282166,-0.015384,0.005231,0.030152999999999996,-44.869999,17.059998999999998,-13.37,1a
2019-07-12_111250:120,-0.258759,-0.049316000000000006,-0.294373,-0.017368,0.008679000000000001,0.031160000000000004,-43.369999,17.870001000000002,-13.0,1a
2019-07-12_111250:140,-0.43774399999999997,-0.051849,-0.334015,-0.020084,0.006848000000000001,0.040773000000000004,-43.369999,17.870001000000002,-13.0,1a
2019-07-12_111250:160,-0.39502,-0.06253099999999999,-0.3396,-0.022007,0.0055049999999999995,0.054230999999999994,-43.0,19.0,-12.56,1a
2019-07-12_111250:180,-0.35180700000000004,-0.07928500000000001,-0.291321,-0.02454,0.003857,0.045808,-43.0,19.0,-12.56,1a
2019-07-12_111250:200,-0.391479,-0.067108,-0.315216,-0.031498000000000005,-0.002002,0.028810000000000002,-43.0,19.0,-12.56,1a
2019-07-12_111250:220,-0.384857,-0.075226,-0.317749,-0.033451,-0.002338,0.036714,-42.25,20.370001000000002,-12.18,1a
2019-07-12_111250:240,-0.374176,-0.089478,-0.331482,-0.034427,-0.005695,0.049652999999999996,-42.25,20.370001000000002,-12.18,1a
2019-07-12_111250:260,-0.396057,-0.08081100000000001,-0.322845,-0.038363999999999995,-0.010456,0.042482,-40.75,21.559998999999998,-12.56,1a
2019-07-12_111250:280,-0.402649,-0.066589,-0.300964,-0.043186,-0.008869,0.031160000000000004,-40.75,21.559998999999998,-12.56,1a
2019-07-12_111250:300,-0.402649,-0.052338,-0.28064,-0.044802999999999996,-0.0012699999999999999,0.030275,-40.75,21.559998999999998,-12.56,1a
2019-07-12_111250:320,-0.389954,-0.048798,-0.262329,-0.049564,0.009961,0.031221,-40.0,23.370001000000002,-14.06,1a
2019-07-12_111250:340,-0.367584,-0.046752999999999996,-0.235382,-0.055607000000000004,0.019177,0.031952999999999995,-40.0,23.370001000000002,-14.06,1a
2019-07-12_111250:360,-0.35943600000000003,-0.05285599999999999,-0.226227,-0.060367,0.023816,0.036378,-39.369999,23.059998999999998,-13.68,1a
2019-07-12_111250:380,-0.344177,-0.065582,-0.21249400000000002,-0.064151,0.024212,0.038179000000000005,-39.369999,23.059998999999998,-13.68,1a
2019-07-12_111250:400,-0.338074,-0.069641,-0.20742800000000003,-0.06708099999999999,0.021893,0.033937,-39.369999,23.059998999999998,-13.68,1a
2019-07-12_111250:420,-0.35638400000000003,-0.076263,-0.21505700000000003,-0.06927799999999999,0.016247,0.030549,-38.25,23.75,-14.06,1a
2019-07-12_111250:440,-0.370636,-0.077271,-0.220642,-0.070194,0.009747,0.030427,-38.25,23.75,-14.06,1a
2019-07-12_111250:460,-0.385864,-0.078278,-0.226746,-0.071079,0.003918,0.029602999999999997,-39.369999,24.68,-14.87,1a
2019-07-12_111250:480,-0.406219,-0.076752,-0.22979699999999997,-0.073398,-0.0014529999999999999,0.028352,-39.369999,24.68,-14.87,1a
2019-07-12_111250:500,-0.43011499999999997,-0.071167,-0.242493,-0.07678600000000001,-0.003467,0.033388,-39.369999,24.68,-14.87,1a
2019-07-12_111250:520,-0.40823400000000004,-0.081329,-0.227264,-0.07996,0.000317,0.040712,-38.68,24.68,-15.68,1a
2019-07-12_111250:540,-0.395538,-0.073212,-0.271484,-0.086734,0.002667,0.042299,-38.68,24.68,-15.68,1a
2019-07-12_111250:560,-0.35436999999999996,-0.08843999999999999,-0.266388,-0.09045800000000001,0.001446,0.043245,-37.869999,24.25,-18.0,1a
2019-07-12_111250:580,-0.40570100000000003,-0.096588,-0.272491,-0.093845,-0.000781,0.032289,-37.869999,24.25,-18.0,1a
2019-07-12_111250:600,-0.380798,-0.080322,-0.280121,-0.095432,-0.0008119999999999999,0.023042,-37.869999,24.25,-18.0,1a
2019-07-12_111250:620,-0.45654300000000003,-0.069122,-0.24758899999999998,-0.092441,0.00346,0.022004,-36.75,24.68,-18.0,1a
2019-07-12_111250:640,-0.671112,-0.042694,-0.32995599999999997,-0.094516,-0.005115,0.0235,-36.75,24.68,-18.0,1a
2019-07-12_111250:660,-0.641602,-0.014221000000000001,-0.37316900000000003,-0.09335700000000001,-0.019153,0.042634,-35.68,23.870001000000002,-19.559998999999998,1a
2019-07-12_111250:680,-0.42605600000000005,0.022858,-0.393005,-0.096012,-0.023119999999999998,0.041566000000000006,-35.68,23.870001000000002,-19.559998999999998,1a
2019-07-12_111250:700,-0.461121,0.108276,-0.365021,-0.097233,-0.027514999999999998,0.028169,-35.68,23.870001000000002,-19.559998999999998,1a
2019-07-12_111250:720,-0.521637,0.166748,-0.402649,-0.102665,-0.024982,0.029298,-35.25,23.059998999999998,-21.870001000000002,1a
2019-07-12_111250:740,-0.49111899999999997,0.20233199999999998,-0.320282,-0.10995799999999999,0.014203,0.058961,-35.25,23.059998999999998,-21.870001000000002,1a
2019-07-12_111250:760,-0.472321,0.21606399999999998,-0.298431,-0.123386,0.038098,0.071382,-33.75,22.25,-25.370001000000002,1a
2019-07-12_111250:780,-0.395538,0.21859699999999999,-0.32843,-0.137241,0.049267,0.09439199999999999,-33.75,22.25,-25.370001000000002,1a
2019-07-12_111250:800,-0.345215,0.161652,-0.30249000000000004,-0.146122,0.051648,0.106477,-33.75,22.25,-25.370001000000002,1a
2019-07-12_111250:820,-0.318756,0.09811399999999999,-0.288269,-0.152591,0.042554,0.098848,-33.5,20.75,-25.75,1a
2019-07-12_111250:840,-0.35436999999999996,0.07016,-0.287231,-0.151249,0.030255,0.093477,-33.5,20.75,-25.75,1a
2019-07-12_111250:860,-0.37316900000000003,0.032532,-0.285706,-0.1431,0.01817,0.0907,-32.0,20.059998999999998,-26.559998999999998,1a
2019-07-12_111250:880,-0.388916,0.022369,-0.28112800000000004,-0.134708,0.005383,0.076997,-32.0,20.059998999999998,-26.559998999999998,1a
2019-07-12_111250:900,-0.41232299999999994,0.020325,-0.268951,-0.125553,-0.004779,0.062287999999999996,-32.0,20.059998999999998,-26.559998999999998,1a
2019-07-12_111250:920,-0.416382,0.015747,-0.252686,-0.11221700000000001,-0.008990999999999999,0.0589,-31.25,19.68,-28.5,1a
2019-07-12_111250:940,-0.420441,0.011687999999999999,-0.22521999999999998,-0.09888,-0.006548999999999999,0.056184000000000005,-31.25,19.68,-28.5,1a
2019-07-12_111250:960,-0.412811,0.026917,-0.209961,-0.08899299999999999,-0.000324,0.054779999999999995,-30.870001000000002,17.059998999999998,-29.68,1a
2019-07-12_111250:980,-0.399109,0.049316000000000006,-0.193695,-0.08075299999999999,0.005566,0.061341999999999994,-30.870001000000002,17.059998999999998,-29.68,1a
2019-07-12_111251:000,-0.391479,0.05285599999999999,-0.189117,-0.07669400000000001,0.008679000000000001,0.066713,-30.870001000000002,17.059998999999998,-29.68,1a
2019-07-12_111251:020,-0.36911,0.040161,-0.170319,-0.075779,0.009228,0.066469,-29.370001000000002,15.56,-30.870001000000002,1a
2019-07-12_111251:040,-0.35943600000000003,0.029968,-0.161163,-0.074711,0.00758,0.067994,-29.370001000000002,15.56,-30.870001000000002,1a
2019-07-12_111251:060,-0.353333,0.0,-0.152008,-0.071018,0.005383,0.07055800000000001,-29.370001000000002,16.0,-30.559998999999998,1a
2019-07-12_111251:080,-0.345215,-0.020325,-0.145386,-0.065952,0.003399,0.06713999999999999,-29.370001000000002,16.0,-30.559998999999998,1a
2019-07-12_111251:100,-0.347229,-0.037598,-0.134216,-0.058475,0.00227,0.05948,-29.370001000000002,16.0,-30.559998999999998,1a
2019-07-12_111251:120,-0.365021,-0.043701,-0.131653,-0.047916,-0.00038500000000000003,0.050599,-29.75,15.5,-32.869999,1a
2019-07-12_111251:140,-0.522125,-0.043213,-0.14032,-0.038669,-0.0070680000000000005,0.042695,-29.75,15.5,-32.869999,1a
2019-07-12_111251:160,-0.547546,-0.034058,-0.197266,-0.028995,-0.013324,0.04178,-28.25,14.75,-33.369999,1a
2019-07-12_111251:180,-0.514496,-0.030487,-0.187073,-0.020633000000000002,-0.011524,0.029939,-28.25,14.75,-33.369999,1a
2019-07-12_111251:200,-0.692444,0.001007,-0.24353000000000002,-0.018222,-0.010578,0.020387,-28.25,14.75,-33.369999,1a
2019-07-12_111251:220,-0.605011,-0.014740000000000001,-0.317749,-0.012851,-0.008655,0.040651,-26.75,15.56,-33.369999,1a
2019-07-12_111251:240,-0.65332,-0.024384,-0.36911,-0.014133000000000001,-0.01305,0.053041,-26.75,15.56,-33.369999,1a
2019-07-12_111251:260,-0.547546,-0.028961,-0.426544,-0.013981,-0.017230000000000002,0.054323,-26.059998999999998,14.87,-34.060001,1a
2019-07-12_111251:280,-0.18249500000000002,-0.000488,-0.361969,-0.016513999999999997,-0.014636000000000001,0.033875999999999996,-26.059998999999998,14.87,-34.060001,1a
2019-07-12_111251:300,-0.227753,0.017273,-0.355377,-0.019687,-0.013385,0.023134000000000002,-26.059998999999998,14.87,-34.060001,1a
2019-07-12_111251:320,-0.314178,0.016753999999999998,-0.352844,-0.026279000000000004,-0.005817,0.04117,-24.559998999999998,14.87,-34.5,1a
2019-07-12_111251:340,-0.43670699999999996,0.010162000000000001,-0.384338,-0.033054,0.001721,0.067506,-24.559998999999998,14.87,-34.5,1a
2019-07-12_111251:360,-0.421967,-0.001495,-0.37011700000000003,-0.043522000000000005,0.004895,0.061555,-24.18,15.18,-34.5,1a
2019-07-12_111251:380,-0.42807,-0.031494,-0.347229,-0.05588099999999999,0.005108,0.040254000000000005,-24.18,15.18,-34.5,1a
2019-07-12_111251:400,-0.431122,-0.032532,-0.34368899999999997,-0.060795,0.009961,0.042573,-24.18,15.18,-34.5,1a
2019-07-12_111251:420,-0.399597,-0.049316000000000006,-0.316742,-0.0611,0.015790000000000002,0.051576,-24.559998999999998,15.56,-34.869999,1a
2019-07-12_111251:440,-0.404175,-0.061005,-0.29742399999999997,-0.064884,0.017193,0.044008,-24.559998999999998,15.56,-34.869999,1a
2019-07-12_111251:460,-0.406219,-0.05438200000000001,-0.286224,-0.06729500000000001,0.018323,0.035249,-23.75,14.87,-34.869999,1a
2019-07-12_111251:480,-0.40570100000000003,-0.047272,-0.262848,-0.06866799999999999,0.021374,0.037599,-23.75,14.87,-34.869999,1a
2019-07-12_111251:500,-0.41943400000000003,-0.056427,-0.212006,-0.06927799999999999,0.027081,0.043611000000000004,-23.75,14.87,-34.869999,1a
2019-07-12_111251:520,-0.41995200000000005,-0.058441,-0.198273,-0.071659,0.033856,0.047792,-23.370001000000002,14.5,-35.25,1a
2019-07-12_111251:540,-0.386383,-0.066071,-0.16217,-0.073246,0.036847000000000005,0.051912,-23.370001000000002,14.5,-35.25,1a
2019-07-12_111251:560,-0.374695,-0.072693,-0.157593,-0.075321,0.034375,0.053499,-24.18,11.87,-36.060001,1a
2019-07-12_111251:580,-0.337067,-0.092529,-0.159119,-0.076236,0.027081,0.049928,-24.18,11.87,-36.060001,1a
2019-07-12_111251:600,-0.330475,-0.09963999999999999,-0.16217,-0.07712100000000001,0.017468,0.044343,-24.18,11.87,-36.060001,1a
2019-07-12_111251:620,-0.327911,-0.121002,-0.182007,-0.076236,0.007824,0.039827,-25.25,10.87,-35.68,1a
2019-07-12_111251:640,-0.327911,-0.12658699999999998,-0.190643,-0.074314,-0.00038500000000000003,0.033601,-25.25,10.87,-35.68,1a
2019-07-12_111251:660,-0.35791,-0.137268,-0.21554600000000002,-0.072666,-0.005359,0.025789,-26.059998999999998,9.0,-34.869999,1a
2019-07-12_111251:680,-0.364014,-0.137268,-0.222687,-0.071018,-0.007129000000000001,0.022798,-26.059998999999998,9.0,-34.869999,1a
2019-07-12_111251:700,-0.402649,-0.144379,-0.2659,-0.070469,-0.009265,0.024904,-26.059998999999998,9.0,-34.869999,1a
2019-07-12_111251:720,-0.40011599999999997,-0.143372,-0.276062,-0.069797,-0.010394,0.022706,-24.75,7.5,-35.369999,1a
2019-07-12_111251:740,-0.47332799999999997,-0.159119,-0.278595,-0.070133,-0.014759,0.016359000000000002,-24.75,7.5,-35.369999,1a
2019-07-12_111251:760,-0.52417,-0.165741,-0.32486,-0.064884,-0.01073,0.013887,-25.18,5.0,-37.369999,1a
2019-07-12_111251:780,-0.490112,-0.159119,-0.29742399999999997,-0.060001,-0.003711,0.010255,-25.18,5.0,-37.369999,1a
2019-07-12_111251:800,-0.698059,-0.166748,-0.252686,-0.060978,-0.00719,0.021272,-25.18,5.0,-37.369999,1a
2019-07-12_111251:820,-0.556702,-0.145905,-0.384338,-0.050358,0.004376,0.033815,-25.18,3.5,-36.560001,1a
2019-07-12_111251:840,-0.626862,-0.112854,-0.258759,-0.053409000000000005,-0.00307,0.023316999999999997,-25.18,3.5,-36.560001,1a
2019-07-12_111251:860,-0.495697,-0.059479,-0.337067,-0.043735,-0.0032530000000000002,0.007051000000000001,-25.559998999999998,1.56,-36.18,1a
2019-07-12_111251:880,-0.41333000000000003,-0.012695,-0.31369,-0.035220999999999995,0.001721,-0.0166,-25.559998999999998,1.56,-36.18,1a
2019-07-12_111251:900,-0.355896,0.051330999999999995,-0.245056,-0.026400999999999997,0.011151000000000001,-0.040892000000000005,-25.559998999999998,1.56,-36.18,1a
2019-07-12_111251:920,-0.473846,0.151001,-0.25521900000000003,-0.025943,0.019847999999999998,-0.032927,-25.559998999999998,0.5,-36.18,1a
2019-07-12_111251:940,-0.496704,0.19165,-0.264862,-0.027530000000000002,0.023846,0.007783,-25.559998999999998,0.5,-36.18,1a
2019-07-12_111251:960,-0.391479,0.177429,-0.246063,-0.031986,0.020459,0.032136,-26.25,-1.0,-36.25,1a
2019-07-12_111251:980,-0.40774499999999997,0.151489,-0.22927899999999998,-0.041874,0.011944,0.027284,-26.25,-1.0,-36.25,1a
2019-07-12_111252:000,-0.433655,0.134705,-0.22979699999999997,-0.048556999999999996,0.005566,0.032869,-26.25,-1.0,-36.25,1a
2019-07-12_111252:020,-0.41485600000000006,0.10775799999999999,-0.23233,-0.050113,0.001477,0.042634,-27.5,-1.68,-35.060001,1a
2019-07-12_111252:040,-0.37265,0.045745999999999995,-0.23028600000000002,-0.056461000000000004,-0.012042,0.052858,-27.5,-1.68,-35.060001,1a
2019-07-12_111252:060,-0.34875500000000004,0.020325,-0.22879000000000002,-0.058658,-0.016222999999999998,0.049867,-27.5,-2.5,-35.060001,1a
2019-07-12_111252:080,-0.346222,-0.0035399999999999997,-0.20843499999999998,-0.056063999999999996,-0.019763,0.050081,-27.5,-2.5,-35.060001,1a
2019-07-12_111252:100,-0.355896,-0.019318000000000002,-0.199799,-0.05243300000000001,-0.017108,0.04886,-27.5,-2.5,-35.060001,1a
2019-07-12_111252:120,-0.35638400000000003,-0.026427999999999997,-0.187592,-0.050296,-0.012653,0.042482,-27.5,-2.75,-35.5,1a
2019-07-12_111252:140,-0.35436999999999996,-0.024384,-0.177948,-0.048435,-0.009876000000000001,0.039125,-27.5,-2.75,-35.5,1a
2019-07-12_111252:160,-0.35943600000000003,-0.024384,-0.177429,-0.047245,-0.008990999999999999,0.040101,-26.68,-4.0,-35.060001,1a
2019-07-12_111252:180,-0.364014,-0.027954000000000003,-0.17944300000000002,-0.047306,-0.010059,0.04004,-26.68,-4.0,-35.060001,1a
2019-07-12_111252:200,-0.37112399999999995,-0.036591000000000005,-0.180481,-0.046726,-0.011585,0.037843,-26.68,-4.0,-35.060001,1a
2019-07-12_111252:220,-0.37265,-0.044219999999999995,-0.184021,-0.04578,-0.011798000000000001,0.036134,-27.5,-4.0,-35.869999,1a
2019-07-12_111252:240,-0.389435,-0.054901,-0.183014,-0.040287,-0.010639000000000001,0.028566,-27.5,-4.0,-35.869999,1a
2019-07-12_111252:260,-0.401642,-0.058960000000000005,-0.194214,-0.037814999999999994,-0.009784000000000001,0.025789,-28.18,-4.68,-34.25,1a
2019-07-12_111252:280,-0.503845,-0.065063,-0.201843,-0.02866,-0.01073,0.020112,-28.18,-4.68,-34.25,1a
2019-07-12_111252:300,-0.546539,-0.069122,-0.240479,-0.02161,-0.010974,0.019014,-28.18,-4.68,-34.25,1a
2019-07-12_111252:320,-0.55365,-0.077271,-0.233337,-0.017490000000000002,-0.009723,0.016817,-28.18,-5.06,-35.060001,1a
2019-07-12_111252:340,-0.546539,-0.078278,-0.239441,-0.007601999999999999,-0.005115,0.007326000000000001,-28.18,-5.06,-35.060001,1a
2019-07-12_111252:360,-0.59433,-0.094055,-0.24353000000000002,-0.004275999999999999,-0.004383,0.006593000000000001,-28.18,-5.06,-35.060001,1a
2019-07-12_111252:380,-0.626862,-0.078278,-0.33197,0.001065,-0.018421,0.017213,-28.18,-5.5,-35.060001,1a
2019-07-12_111252:400,-0.537903,-0.118958,-0.298431,0.007626000000000001,-0.022387999999999998,0.015747999999999998,-28.18,-5.5,-35.060001,1a
2019-07-12_111252:420,-0.429596,-0.119476,-0.379791,0.007901,-0.035694,0.006318,-27.5,-6.25,-34.68,1a
2019-07-12_111252:440,-0.29538000000000003,-0.119476,-0.379272,0.01492,-0.03667,0.000306,-27.5,-6.25,-34.68,1a
2019-07-12_111252:460,-0.262329,-0.12048299999999999,-0.375214,0.017575,-0.031481999999999996,-0.005582999999999999,-26.68,-5.06,-36.0,1a
2019-07-12_111252:480,-0.46469099999999997,-0.124054,-0.349274,0.015927,-0.020221,-0.0068650000000000004,-26.68,-5.06,-36.0,1a
2019-07-12_111252:500,-0.45907600000000004,-0.11538699999999999,-0.382324,0.014706,-0.010333,0.009096,-26.68,-5.06,-36.0,1a
2019-07-12_111252:520,-0.365021,-0.137268,-0.326904,0.016444999999999998,-0.005695,0.013612,-25.559998999999998,-3.68,-38.0,1a
2019-07-12_111252:540,-0.364532,-0.148956,-0.314697,0.013607,-8e-05,-0.012114,-25.559998999999998,-3.68,-38.0,1a
2019-07-12_111252:560,-0.402649,-0.130127,-0.28979499999999997,0.013516,0.002514,-0.021178,-26.25,-3.68,-38.0,1a
2019-07-12_111252:580,-0.377747,-0.118958,-0.273529,0.016628999999999998,0.0057799999999999995,-0.015685,-26.25,-3.68,-38.0,1a
2019-07-12_111252:600,-0.360962,-0.12454200000000001,-0.25116,0.01672,0.001721,-0.016356,-26.25,-3.68,-38.0,1a
2019-07-12_111252:620,-0.350281,-0.116425,-0.24706999999999998,0.015377000000000002,-0.001056,-0.021788,-26.0,-4.06,-36.369999,1a
2019-07-12_111252:640,-0.332489,-0.088959,-0.228271,0.013455000000000002,-0.008014,-0.033873,-26.0,-4.06,-36.369999,1a
2019-07-12_111252:660,-0.335022,-0.076752,-0.21810900000000003,0.012722,-0.009662,-0.035246,-26.68,-3.25,-36.75,1a
2019-07-12_111252:680,-0.3396,-0.063538,-0.20486500000000002,0.006558,-0.011188,-0.044554,-26.68,-3.25,-36.75,1a
2019-07-12_111252:700,-0.33758499999999997,-0.053375,-0.198273,0.002194,-0.011127,-0.047942,-26.68,-3.25,-36.75,1a
2019-07-12_111252:720,-0.335022,-0.044219999999999995,-0.19574,0.000576,-0.011309999999999999,-0.047209,-24.5,-3.68,-37.560001,1a
2019-07-12_111252:740,-0.33758499999999997,-0.038635,-0.19775399999999999,-0.003147,-0.013628999999999999,-0.048125,-24.5,-3.68,-37.560001,1a
2019-07-12_111252:760,-0.3396,-0.028442000000000002,-0.20944200000000002,-0.003879,-0.014453,-0.049651,-24.75,-4.75,-37.18,1a
2019-07-12_111252:780,-0.340118,-0.020325,-0.213531,-0.004581,-0.015552000000000002,-0.049864,-24.75,-4.75,-37.18,1a
2019-07-12_111252:800,-0.38385,-0.012695,-0.21249400000000002,-0.0033299999999999996,-0.013721,-0.043944,-24.75,-4.75,-37.18,1a
2019-07-12_111252:820,-0.408752,-0.005065999999999999,-0.22979699999999997,-0.003483,-0.012103000000000001,-0.041289,-24.75,-5.5,-36.75,1a
2019-07-12_111252:840,-0.438751,0.000488,-0.235382,-0.004764,-0.008716,-0.026488,-24.75,-5.5,-36.75,1a
2019-07-12_111252:860,-0.470276,0.006072999999999999,-0.275543,-0.005893,-0.011035,-0.019744,-24.75,-5.5,-36.75,1a
2019-07-12_111252:880,-0.489594,0.006072999999999999,-0.304535,-0.007267,-0.015155000000000002,-0.008329999999999999,-24.5,-7.75,-38.25,1a
2019-07-12_111252:900,-0.48095699999999997,0.012177,-0.31012,-0.007999,-0.015491,-0.009703,-24.5,-7.75,-38.25,1a
2019-07-12_111252:920,-0.662445,0.03302,-0.334534,-0.010135,-0.015979,-0.010832,-23.25,-7.75,-37.560001,1a
2019-07-12_111252:940,-0.564331,0.057953,-0.459595,-0.014041999999999999,-0.026660000000000003,0.001924,-23.25,-7.75,-37.560001,1a
2019-07-12_111252:960,-0.484009,0.056915,-0.37674,-0.016056,-0.022144,0.016206,-24.059998999999998,-8.5,-37.560001,1a
2019-07-12_111252:980,-0.425537,0.069641,-0.439758,-0.021274,-0.029956,0.018616999999999998,-24.059998999999998,-8.5,-37.560001,1a
2019-07-12_111253:000,-0.35131799999999996,0.089478,-0.460114,-0.022281,-0.033007999999999996,0.013215000000000001,-24.059998999999998,-8.5,-37.560001,1a
2019-07-12_111253:020,-0.320282,0.10116599999999999,-0.411285,-0.020237,-0.029651,0.006654,-22.18,-8.5,-37.5,1a
2019-07-12_111253:040,-0.457581,0.122528,-0.377228,-0.018772,-0.010456,-0.018798,-22.18,-8.5,-37.5,1a
2019-07-12_111253:060,-0.452484,0.146912,-0.384338,-0.019169,-0.003986,-0.017728999999999998,-22.18,-8.5,-37.5,1a
2019-07-12_111253:080,-0.330963,0.1586,-0.347229,-0.019778999999999998,0.006024,0.0141,-21.18,-9.25,-38.0,1a
2019-07-12_111253:100,-0.34265100000000004,0.139801,-0.32486,-0.02103,0.00636,0.022981,-21.18,-9.25,-38.0,1a
2019-07-12_111253:120,-0.365021,0.11386099999999999,-0.31012,-0.024875,0.006024,0.031800999999999996,-22.559998999999998,-10.0,-38.25,1a
2019-07-12_111253:140,-0.3508,0.09811399999999999,-0.295898,-0.02692,0.004651,0.038392,-22.559998999999998,-10.0,-38.25,1a
2019-07-12_111253:160,-0.33197,0.065063,-0.271484,-0.027469,0.0007440000000000001,0.045167,-22.559998999999998,-10.0,-38.25,1a
2019-07-12_111253:180,-0.306061,0.041168,-0.25827,-0.02866,-0.0030399999999999997,0.045564,-22.18,-9.56,-37.560001,1a
2019-07-12_111253:200,-0.305054,0.018799,-0.23590100000000003,-0.027988,-0.007281999999999999,0.040986,-22.18,-9.56,-37.560001,1a
2019-07-12_111253:220,-0.321808,0.004547,-0.23233,-0.02634,-0.008258,0.039644,-22.18,-9.56,-37.18,1a
2019-07-12_111253:240,-0.32995599999999997,-0.004547,-0.21505700000000003,-0.022739,-0.008258,0.035341000000000004,-22.18,-9.56,-37.18,1a
2019-07-12_111253:260,-0.328949,-0.001495,-0.20639000000000002,-0.019015999999999998,-0.006885,0.029085000000000003,-22.18,-9.56,-37.18,1a
2019-07-12_111253:280,-0.33197,0.0055850000000000006,-0.201843,-0.015506,-0.006397,0.025911,-23.68,-9.56,-37.560001,1a
2019-07-12_111253:300,-0.336548,0.007599,-0.20233199999999998,-0.012577,-0.007281999999999999,0.026764999999999997,-23.68,-9.56,-37.560001,1a
2019-07-12_111253:320,-0.3396,0.004547,-0.203369,-0.010135,-0.008594,0.027772,-23.68,-9.25,-38.0,1a
2019-07-12_111253:340,-0.347229,0.0025329999999999997,-0.200317,-0.007418999999999999,-0.008808,0.026918,-23.68,-9.25,-38.0,1a
2019-07-12_111253:360,-0.404694,0.000488,-0.21148699999999998,-0.004459,-0.007281999999999999,0.023378,-23.68,-9.25,-38.0,1a
2019-07-12_111253:380,-0.393494,0.004059,-0.24096700000000001,-0.001011,-0.004961999999999999,0.019258,-22.559998999999998,-8.87,-37.560001,1a
2019-07-12_111253:400,-0.44027700000000003,-0.000488,-0.242004,0.002957,-0.002735,0.01642,-22.559998999999998,-8.87,-37.560001,1a
2019-07-12_111253:420,-0.478912,-0.004547,-0.314697,0.005612,-0.011585,0.016206,-24.059998999999998,-8.87,-38.0,1a
2019-07-12_111253:440,-0.48754899999999995,-0.016753999999999998,-0.309601,0.009335,-0.015705,0.019868,-24.059998999999998,-8.87,-38.0,1a
2019-07-12_111253:460,-0.45043900000000003,-0.034546,-0.31369,0.012051000000000001,-0.014118,0.021669,-24.059998999999998,-8.87,-38.0,1a
2019-07-12_111253:480,-0.64975,-0.083862,-0.344696,0.012722,-0.014178999999999999,0.019594,-24.059998999999998,-8.5,-36.369999,1a
2019-07-12_111253:500,-0.514496,-0.107269,-0.5211180000000001,0.0126,-0.027514999999999998,0.021242,-24.059998999999998,-8.5,-36.369999,1a
2019-07-12_111253:520,-0.563812,-0.128601,-0.391479,0.018185,-0.028033999999999996,0.018616999999999998,-23.68,-7.75,-38.25,1a
2019-07-12_111253:540,-0.429596,-0.141327,-0.44891400000000004,0.020503999999999998,-0.026599,-0.0054,-23.68,-7.75,-38.25,1a
2019-07-12_111253:560,-0.315704,-0.124054,-0.406219,0.018765,-0.010791,-0.017272,-23.68,-7.75,-38.25,1a
2019-07-12_111253:580,-0.255707,-0.145386,-0.34570300000000004,0.018704,0.005047,-0.00186,-23.0,-6.25,-37.560001,1a
2019-07-12_111253:600,-0.36706500000000003,-0.166229,-0.368073,0.016444999999999998,0.007824,0.0123,-23.0,-6.25,-37.560001,1a
2019-07-12_111253:620,-0.320282,-0.17996199999999998,-0.397064,0.014523,0.000866,0.00525,-23.68,-5.5,-38.68,1a
2019-07-12_111253:640,-0.275055,-0.176422,-0.348267,0.015194,-0.004566,-0.017728999999999998,-23.68,-5.5,-38.68,1a
2019-07-12_111253:660,-0.344696,-0.150482,-0.361969,0.017391999999999998,-0.013568,-0.035521,-23.68,-5.5,-38.68,1a
2019-07-12_111253:680,-0.373688,-0.141846,-0.354858,0.019101,-0.014575,-0.035063,-23.25,-4.75,-38.18,1a
2019-07-12_111253:700,-0.35739099999999996,-0.135742,-0.330475,0.021297999999999997,-0.011646,-0.028166000000000004,-23.25,-4.75,-38.18,1a
2019-07-12_111253:720,-0.37112399999999995,-0.116425,-0.316742,0.023007,-0.008716,-0.031401,-23.0,-5.5,-39.5,1a
2019-07-12_111253:740,-0.344696,-0.078796,-0.27301,0.024136,-0.0025210000000000002,-0.042754,-23.0,-5.5,-39.5,1a
2019-07-12_111253:760,-0.32995599999999997,-0.053863999999999995,-0.244019,0.023495,0.005383,-0.05197,-23.0,-5.5,-39.5,1a
2019-07-12_111253:780,-0.31369,-0.029480000000000003,-0.220123,0.021023,0.01048,-0.05371,-22.18,-4.75,-40.18,1a
2019-07-12_111253:800,-0.316742,-0.023895,-0.201843,0.016964,0.013928,-0.049681,-22.18,-4.75,-40.18,1a
2019-07-12_111253:820,-0.311127,-0.021851,-0.190643,0.011013,0.013623,-0.041716,-23.0,-5.5,-39.060001,1a
2019-07-12_111253:840,-0.305542,-0.024384,-0.187073,0.009549,0.012463,-0.040312,-23.0,-5.5,-39.060001,1a
2019-07-12_111253:860,-0.311127,-0.022858,-0.201324,0.007901,0.007428,-0.039916,-23.0,-5.5,-39.060001,1a
2019-07-12_111253:880,-0.306061,-0.021332,-0.208954,0.0068319999999999995,0.001324,-0.041167,-23.0,-6.25,-39.369999,1a
2019-07-12_111253:900,-0.309601,-0.016266,-0.22164899999999998,0.006161,-0.005115,-0.038298,-23.0,-6.25,-39.369999,1a
2019-07-12_111253:920,-0.350281,-0.010651,-0.227753,0.005703,-0.006488,-0.03366,-23.25,-6.56,-39.369999,1a
2019-07-12_111253:940,-0.390961,0.0035399999999999997,-0.261322,0.0032310000000000004,-0.008075,-0.029936,-23.25,-6.56,-39.369999,1a
2019-07-12_111253:960,-0.384857,0.018799,-0.283173,-0.000675,-0.01073,-0.024382,-23.25,-6.56,-39.369999,1a
2019-07-12_111253:980,-0.461639,0.035583,-0.315704,-0.006687,-0.017169,-0.015165999999999999,-23.0,-7.37,-39.060001,1a
2019-07-12_111254:000,-0.475861,0.032013,-0.34674099999999997,-0.011417,-0.018938999999999998,-0.008634999999999999,-23.0,-7.37,-39.060001,1a
2019-07-12_111254:020,-0.655853,0.047272,-0.36349499999999996,-0.016117,-0.021686,-0.011290000000000001,-22.68,-8.06,-39.369999,1a
2019-07-12_111254:040,-0.587708,0.055908000000000006,-0.46670500000000004,-0.021152,-0.029620999999999998,-0.006804000000000001,-22.68,-8.06,-39.369999,1a
2019-07-12_111254:060,-0.431122,0.05996699999999999,-0.452484,-0.021700999999999998,-0.03136,0.0038159999999999995,-22.68,-8.06,-39.369999,1a
2019-07-12_111254:080,-0.328949,0.065063,-0.432648,-0.022556,-0.032215,0.010316,-22.25,-8.87,-39.369999,1a
2019-07-12_111254:100,-0.20742800000000003,0.09201000000000001,-0.45806899999999995,-0.019962,-0.031299,0.005403,-22.25,-8.87,-39.369999,1a
2019-07-12_111254:120,-0.364014,0.087952,-0.452484,-0.018222,-0.03429,-0.009368000000000001,-21.559998999999998,-10.0,-39.369999,1a
2019-07-12_111254:140,-0.425537,0.132172,-0.477386,-0.017643,-0.027118,-0.015227000000000001,-21.559998999999998,-10.0,-39.369999,1a
2019-07-12_111254:160,-0.388916,0.145905,-0.431122,-0.016117,-0.01955,-0.002135,-21.559998999999998,-10.0,-39.369999,1a
2019-07-12_111254:180,-0.390442,0.12912,-0.399109,-0.016391,-0.011706999999999999,0.012819,-21.25,-10.68,-40.560001,1a
2019-07-12_111254:200,-0.391479,0.119476,-0.375702,-0.017368,-0.00014099999999999998,0.02231,-21.25,-10.68,-40.560001,1a
2019-07-12_111254:220,-0.35180700000000004,0.104706,-0.350281,-0.017643,0.005658,0.031679,-19.75,-11.06,-40.18,1a
2019-07-12_111254:240,-0.323334,0.084381,-0.327423,-0.017429,0.005627,0.039307999999999996,-19.75,-11.06,-40.18,1a
2019-07-12_111254:260,-0.29995700000000003,0.053863999999999995,-0.304535,-0.017765,0.002575,0.040498,-19.75,-11.06,-40.18,1a
2019-07-12_111254:280,-0.29284699999999997,0.041168,-0.285706,-0.017124,-0.000202,0.039827,-19.75,-11.06,-39.369999,1a
2019-07-12_111254:300,-0.291321,0.026427999999999997,-0.2659,-0.014774,-0.001911,0.039307999999999996,-19.75,-11.06,-39.369999,1a
2019-07-12_111254:320,-0.301483,0.022369,-0.253693,-0.011936,-0.001911,0.036043,-21.559998999999998,-11.06,-41.0,1a
2019-07-12_111254:340,-0.316742,0.021851,-0.24353000000000002,-0.009067,-0.002124,0.032594,-21.559998999999998,-11.06,-41.0,1a
2019-07-12_111254:360,-0.322327,0.023895,-0.238434,-0.006229,-0.002307,0.03235,-21.559998999999998,-11.06,-41.0,1a
2019-07-12_111254:380,-0.327911,0.022369,-0.224701,-0.004184,-0.002307,0.032594,-22.0,-10.68,-39.869999,1a
2019-07-12_111254:400,-0.331482,0.022369,-0.21911599999999998,-0.002811,-0.0017280000000000002,0.030366000000000004,-22.0,-10.68,-39.869999,1a
2019-07-12_111254:420,-0.325378,0.024902,-0.21402,-0.002323,-0.000659,0.027039999999999998,-23.059998999999998,-10.25,-39.18,1a
2019-07-12_111254:440,-0.311646,0.024902,-0.21505700000000003,-0.0018039999999999998,-0.000202,0.023712999999999998,-23.059998999999998,-10.25,-39.18,1a
2019-07-12_111254:460,-0.381805,0.022369,-0.21911599999999998,-0.000492,-0.000324,0.020387,-23.059998999999998,-10.25,-39.18,1a
2019-07-12_111254:480,-0.402649,0.01828,-0.249115,0.00137,-0.00047599999999999997,0.017824,-22.68,-10.0,-39.060001,1a
2019-07-12_111254:500,-0.44891400000000004,0.014221000000000001,-0.249115,0.00491,-0.000781,0.013093,-22.68,-10.0,-39.060001,1a
2019-07-12_111254:520,-0.49926800000000005,0.015228,-0.29538000000000003,0.007137999999999999,-0.007006999999999999,0.008058,-23.059998999999998,-9.56,-39.369999,1a
2019-07-12_111254:540,-0.465179,0.016753999999999998,-0.290802,0.01022,-0.005634,0.007997,-23.059998999999998,-9.56,-39.369999,1a
2019-07-12_111254:560,-0.409271,0.013213999999999998,-0.305054,0.011531999999999999,-0.007343000000000001,0.01111,-23.059998999999998,-9.56,-39.369999,1a
2019-07-12_111254:580,-0.588745,-0.017792,-0.345215,0.012081,-0.013843000000000001,0.011384,-23.370001000000002,-10.0,-38.68,1a
2019-07-12_111254:600,-0.517548,-0.018799,-0.5205989999999999,0.009793000000000001,-0.037219,0.013947999999999999,-23.370001000000002,-10.0,-38.68,1a
2019-07-12_111254:620,-0.52774,-0.051330999999999995,-0.40316799999999997,0.013729,-0.037799,0.011842,-23.059998999999998,-8.87,-39.369999,1a
2019-07-12_111254:640,-0.467224,-0.065063,-0.48196400000000006,0.011196,-0.037952,0.001832,-23.059998999999998,-8.87,-39.369999,1a
2019-07-12_111254:660,-0.396545,-0.072693,-0.43670699999999996,0.009549,-0.018604,-0.000426,-23.059998999999998,-8.87,-39.369999,1a
2019-07-12_111254:680,-0.279633,-0.089478,-0.40316799999999997,0.006619,0.001599,0.011384,-22.0,-8.5,-39.369999,1a
2019-07-12_111254:700,-0.3396,-0.12048299999999999,-0.364014,0.004361,0.012676999999999999,0.021791,-22.0,-8.5,-39.369999,1a
2019-07-12_111254:720,-0.33605999999999997,-0.139801,-0.407227,0.003445,0.012218999999999999,0.023591,-22.25,-8.5,-39.369999,1a
2019-07-12_111254:740,-0.295898,-0.157074,-0.34368899999999997,0.007077,0.010815,0.01291,-22.25,-8.5,-39.369999,1a
2019-07-12_111254:760,-0.305054,-0.159119,-0.33300799999999997,0.011807,0.003796,-0.004850999999999999,-22.25,-8.5,-39.369999,1a
2019-07-12_111254:780,-0.33300799999999997,-0.145905,-0.332489,0.016323,0.000714,-0.019072,-22.559998999999998,-8.06,-38.68,1a
2019-07-12_111254:800,-0.330475,-0.135742,-0.326904,0.020687,-0.0031309999999999997,-0.021391999999999998,-22.559998999999998,-8.06,-38.68,1a
2019-07-12_111254:820,-0.32843,-0.115906,-0.325897,0.025021,-0.007404000000000001,-0.019652,-22.559998999999998,-7.37,-38.18,1a
2019-07-12_111254:840,-0.341125,-0.09811399999999999,-0.31012,0.026882,-0.008472,-0.026641,-22.559998999999998,-7.37,-38.18,1a
2019-07-12_111254:860,-0.355377,-0.05285599999999999,-0.282166,0.025723000000000003,-0.004657,-0.035674000000000004,-22.559998999999998,-7.37,-38.18,1a
2019-07-12_111254:880,-0.355377,-0.027435,-0.2659,0.022305000000000002,0.0007440000000000001,-0.036802999999999995,-23.0,-7.37,-38.18,1a
2019-07-12_111254:900,-0.3508,-0.013702,-0.242004,0.01791,0.0062380000000000005,-0.034056,-23.0,-7.37,-38.18,1a
2019-07-12_111254:920,-0.338074,-0.008636,-0.226746,0.012051000000000001,0.009807999999999999,-0.030699,-22.559998999999998,-5.75,-38.18,1a
2019-07-12_111254:940,-0.327911,-0.006592,-0.21554600000000002,0.008206,0.009503,-0.025359,-22.559998999999998,-5.75,-38.18,1a
2019-07-12_111254:960,-0.32486,-0.009125,-0.21810900000000003,0.00549,0.006116,-0.019927,-22.559998999999998,-5.75,-38.18,1a
2019-07-12_111254:980,-0.325378,-0.014740000000000001,-0.219635,0.0039030000000000002,0.001782,-0.015624,-22.18,-6.5,-38.68,1a
2019-07-12_111255:000,-0.33300799999999997,-0.015747,-0.220123,0.002987,-0.0020629999999999997,-0.010954,-22.18,-6.5,-38.68,1a
2019-07-12_111255:020,-0.359955,-0.020325,-0.227264,0.002896,-0.004229999999999999,-0.0063159999999999996,-22.18,-7.68,-37.869999,1a
2019-07-12_111255:040,-0.401642,-0.01828,-0.22927899999999998,0.002194,-0.002796,-0.004607,-22.18,-7.68,-37.869999,1a
2019-07-12_111255:060,-0.40823400000000004,-0.013213999999999998,-0.254211,0.00011899999999999999,-4.9e-05,-0.002288,-22.18,-7.68,-37.869999,1a
2019-07-12_111255:080,-0.417389,-0.017792,-0.276581,-0.002323,-0.0012699999999999999,0.0037549999999999997,-21.870001000000002,-6.5,-38.18,1a
2019-07-12_111255:100,-0.46670500000000004,-0.016266,-0.311127,-0.005741,-0.006731999999999999,0.010103000000000001,-21.870001000000002,-6.5,-38.18,1a
2019-07-12_111255:120,-0.45196499999999995,-0.022858,-0.32995599999999997,-0.008487,-0.01012,0.014039,-21.5,-6.18,-38.18,1a
2019-07-12_111255:140,-0.41943400000000003,-0.023895,-0.33758499999999997,-0.011142,-0.01192,0.011751000000000001,-21.5,-6.18,-38.18,1a
2019-07-12_111255:160,-0.6370239999999999,-0.022369,-0.375214,-0.014194,-0.015766,0.009187,-21.5,-6.18,-38.18,1a
2019-07-12_111255:180,-0.515015,-0.015747,-0.482483,-0.019565,-0.025867,0.018341999999999997,-22.559998999999998,-6.5,-37.060001,1a
2019-07-12_111255:200,-0.417389,-0.016266,-0.385376,-0.021671,-0.017627,0.02997,-22.559998999999998,-6.5,-37.060001,1a
2019-07-12_111255:220,-0.354858,-0.015228,-0.441803,-0.026004000000000003,-0.020557,0.027894,-22.18,-7.25,-37.869999,1a
2019-07-12_111255:240,-0.280121,0.014740000000000001,-0.439758,-0.024997,-0.017505,0.013276,-22.18,-7.25,-37.869999,1a
2019-07-12_111255:260,-0.36911,0.028961,-0.390961,-0.02222,-0.009784000000000001,-0.004668,-22.18,-7.25,-37.869999,1a
2019-07-12_111255:280,-0.444855,0.068634,-0.42248500000000005,-0.021213,-0.002307,-0.016356,-21.5,-8.0,-36.68,1a
2019-07-12_111255:300,-0.377747,0.0849,-0.394012,-0.023288,0.005566,-0.006529000000000001,-21.5,-8.0,-36.68,1a
2019-07-12_111255:320,-0.34674099999999997,0.075226,-0.36044299999999996,-0.025058,0.00758,0.018525,-21.18,-8.0,-35.5,1a
2019-07-12_111255:340,-0.372162,0.052338,-0.353851,-0.027530000000000002,0.007824,0.036378,-21.18,-8.0,-35.5,1a
2019-07-12_111255:360,-0.375702,0.027435,-0.338593,-0.029452999999999997,0.007367,0.038789,-21.18,-8.0,-35.5,1a
2019-07-12_111255:380,-0.37011700000000003,0.016753999999999998,-0.324371,-0.030704000000000002,0.004651,0.039247000000000004,-21.870001000000002,-8.75,-35.869999,1a
2019-07-12_111255:400,-0.368073,-0.011169,-0.28875700000000004,-0.029514,0.0036439999999999997,0.043092,-21.870001000000002,-8.75,-35.869999,1a
2019-07-12_111255:420,-0.35180700000000004,-0.028961,-0.2659,-0.028141000000000003,0.0062380000000000005,0.04297,-22.18,-8.75,-35.5,1a
2019-07-12_111255:440,-0.332489,-0.042175,-0.23284899999999997,-0.025882,0.008893,0.039186,-22.18,-8.75,-35.5,1a
2019-07-12_111255:460,-0.32843,-0.044219999999999995,-0.22216799999999998,-0.021884999999999998,0.009839,0.036714,-22.18,-8.75,-35.5,1a
2019-07-12_111255:480,-0.325897,-0.047791,-0.207916,-0.017825999999999998,0.009228,0.033937,-23.25,-9.18,-35.5,1a
2019-07-12_111255:500,-0.319275,-0.046752999999999996,-0.201324,-0.014774,0.0062380000000000005,0.029602999999999997,-23.25,-9.18,-35.5,1a
2019-07-12_111255:520,-0.318268,-0.043701,-0.195221,-0.011539,0.0016600000000000002,0.026094,-23.0,-7.68,-33.869999,1a
2019-07-12_111255:540,-0.322327,-0.043213,-0.193695,-0.008548,-0.003711,0.02292,-23.0,-7.68,-33.869999,1a
2019-07-12_111255:560,-0.328949,-0.040161,-0.198792,-0.005832,-0.008197,0.018403,-23.0,-7.68,-33.869999,1a
2019-07-12_111255:580,-0.3396,-0.035065,-0.200317,-0.002353,-0.010578,0.012636,-23.370001000000002,-8.0,-33.869999,1a
2019-07-12_111255:600,-0.393494,-0.034546,-0.20843499999999998,0.001583,-0.010059,0.007051000000000001,-23.370001000000002,-8.0,-33.869999,1a
2019-07-12_111255:620,-0.387909,-0.027954000000000003,-0.23284899999999997,0.004849,-0.009509,0.003053,-23.75,-8.0,-33.560001,1a
2019-07-12_111255:640,-0.47180200000000005,-0.026427999999999997,-0.26181,0.008938,-0.010456,0.000123,-23.75,-8.0,-33.560001,1a
2019-07-12_111255:660,-0.505371,-0.023895,-0.30654899999999996,0.011134999999999999,-0.01781,-0.000762,-23.75,-8.0,-33.560001,1a
2019-07-12_111255:680,-0.475861,-0.015747,-0.293335,0.014706,-0.016712,-0.0005480000000000001,-23.059998999999998,-6.87,-33.869999,1a
2019-07-12_111255:700,-0.462128,-0.025908999999999998,-0.287231,0.01492,-0.014025999999999999,-2.8999999999999997e-05,-23.059998999999998,-6.87,-33.869999,1a
2019-07-12_111255:720,-0.53891,-0.034546,-0.444855,0.012813999999999999,-0.023334,0.004152,-22.0,-7.68,-33.560001,1a
2019-07-12_111255:740,-0.505371,-0.070648,-0.41943400000000003,0.011073999999999999,-0.031909,0.015535,-22.0,-7.68,-33.560001,1a
2019-07-12_111255:760,-0.467224,-0.09454299999999999,-0.46926899999999994,0.010403,-0.042133,0.015747999999999998,-22.0,-7.68,-33.560001,1a
2019-07-12_111255:780,-0.46823100000000006,-0.10928299999999999,-0.44281000000000004,0.008877,-0.035082999999999996,0.006074,-21.25,-6.87,-33.869999,1a
2019-07-12_111255:800,-0.276581,-0.113373,-0.39502,0.0072900000000000005,-0.017505,-0.002471,-21.25,-6.87,-33.869999,1a
2019-07-12_111255:820,-0.304535,-0.12048299999999999,-0.36248800000000003,0.0045130000000000005,-0.002338,0.0029620000000000002,-19.75,-5.75,-34.68,1a
2019-07-12_111255:840,-0.382812,-0.151001,-0.42605600000000005,0.00259,-0.001911,0.020936,-19.75,-5.75,-34.68,1a
2019-07-12_111255:860,-0.330963,-0.17690999999999998,-0.40823400000000004,0.0038420000000000004,-0.0023989999999999997,0.02762,-19.75,-5.75,-34.68,1a
2019-07-12_111255:880,-0.312653,-0.18811,-0.358917,0.005154,-0.004779,0.012147,-19.75,-5.75,-33.560001,1a
2019-07-12_111255:900,-0.3508,-0.177429,-0.365021,0.007412,-0.0060609999999999995,-0.004607,-19.75,-5.75,-33.560001,1a
2019-07-12_111255:920,-0.352844,-0.166229,-0.345215,0.010128,-0.002338,-0.008452,-18.25,-5.0,-34.25,1a
2019-07-12_111255:940,-0.341644,-0.162689,-0.337067,0.011807,-0.002246,-0.008237999999999999,-18.25,-5.0,-34.25,1a
2019-07-12_111255:960,-0.34265100000000004,-0.14032,-0.304535,0.011868,-0.0008730000000000001,-0.015898,-18.25,-5.0,-34.25,1a
2019-07-12_111255:980,-0.326385,-0.117432,-0.28112800000000004,0.010464,0.0024530000000000003,-0.028105,-18.25,-4.68,-33.560001,1a
2019-07-12_111256:000,-0.312164,-0.08996599999999999,-0.252686,0.008877,0.005902,-0.03784,-18.25,-4.68,-33.560001,1a
2019-07-12_111256:020,-0.301483,-0.077271,-0.238434,0.005947,0.007916,-0.044097000000000004,-17.870001000000002,-5.0,-33.869999,1a
2019-07-12_111256:040,-0.29943800000000004,-0.063538,-0.21810900000000003,0.003445,0.007428,-0.044951,-17.870001000000002,-5.0,-33.869999,1a
2019-07-12_111256:060,-0.303528,-0.062012,-0.212006,0.0018579999999999998,0.004437,-0.041838,-17.870001000000002,-5.0,-33.869999,1a
2019-07-12_111256:080,-0.311127,-0.060486,-0.212006,0.000973,0.000531,-0.038512,-19.370001000000002,-5.37,-32.68,1a
2019-07-12_111256:100,-0.31369,-0.057434000000000006,-0.21606399999999998,0.001248,-0.004229999999999999,-0.035795999999999994,-19.370001000000002,-5.37,-32.68,1a
2019-07-12_111256:120,-0.320282,-0.050842,-0.222687,0.00259,-0.007862000000000001,-0.033324,-17.870001000000002,-5.75,-32.369999,1a
2019-07-12_111256:140,-0.32843,-0.047791,-0.23028600000000002,0.004116,-0.009265,-0.030699,-17.870001000000002,-5.75,-32.369999,1a
2019-07-12_111256:160,-0.355896,-0.038635,-0.248108,0.005368,-0.009387000000000001,-0.025572,-17.870001000000002,-5.75,-32.369999,1a
2019-07-12_111256:180,-0.389954,-0.034058,-0.255707,0.005642,-0.008136,-0.018004,-17.5,-6.5,-33.560001,1a
2019-07-12_111256:200,-0.37265,-0.027435,-0.291321,0.00372,-0.008014,-0.008298999999999999,-17.5,-6.5,-33.560001,1a
2019-07-12_111256:220,-0.41485600000000006,-0.028442000000000002,-0.290283,-0.000278,-0.008716,0.001314,-17.059998999999998,-6.18,-32.68,1a
2019-07-12_111256:240,-0.46569799999999995,-0.026917,-0.3508,-0.005954,-0.01305,0.007997,-17.059998999999998,-6.18,-32.68,1a
2019-07-12_111256:260,-0.460114,-0.028442000000000002,-0.34265100000000004,-0.00922,-0.010974,0.006135,-17.059998999999998,-6.18,-32.68,1a
2019-07-12_111256:280,-0.42758199999999996,-0.023375999999999997,-0.355896,-0.015262000000000001,-0.010333,-0.002867,-16.059998999999998,-6.5,-32.0,1a
2019-07-12_111256:300,-0.5983890000000001,-0.023895,-0.378265,-0.020237,-0.015186000000000002,0.000398,-16.059998999999998,-6.5,-32.0,1a
2019-07-12_111256:320,-0.514496,-0.032013,-0.47995,-0.025669,-0.029773,0.020326,-14.87,-6.87,-32.369999,1a
2019-07-12_111256:340,-0.514008,-0.033539,-0.406738,-0.027408,-0.023517,0.029481,-14.87,-6.87,-32.369999,1a
2019-07-12_111256:360,-0.425537,-0.008118,-0.439758,-0.031894,-0.023059,0.021516,-14.87,-6.87,-32.369999,1a
2019-07-12_111256:380,-0.315216,0.013213999999999998,-0.40368699999999996,-0.027712999999999998,-0.008808,0.011049,-14.87,-7.25,-32.369999,1a
2019-07-12_111256:400,-0.312653,0.03302,-0.35131799999999996,-0.022616999999999998,0.0055049999999999995,-0.00421,-14.87,-7.25,-32.369999,1a
2019-07-12_111256:420,-0.376221,0.062012,-0.36554000000000003,-0.021366,0.013988999999999998,-0.016692,-14.56,-8.5,-31.559998999999998,1a
2019-07-12_111256:440,-0.33605999999999997,0.08590700000000001,-0.36349499999999996,-0.021305,0.016583,-0.00479,-14.56,-8.5,-31.559998999999998,1a
2019-07-12_111256:460,-0.303528,0.077271,-0.344696,-0.020084,0.011761,0.020112,-14.56,-8.5,-31.559998999999998,1a
2019-07-12_111256:480,-0.354858,0.051330999999999995,-0.335541,-0.020878,0.005902,0.030366000000000004,-14.87,-8.87,-30.870001000000002,1a
2019-07-12_111256:500,-0.399109,0.042175,-0.333496,-0.02161,0.0033079999999999997,0.028291000000000004,-14.87,-8.87,-30.870001000000002,1a
2019-07-12_111256:520,-0.385864,0.031006,-0.338593,-0.020176,0.0018739999999999998,0.032411,-14.56,-8.87,-32.5,1a
2019-07-12_111256:540,-0.384338,0.0035399999999999997,-0.322845,-0.017825999999999998,-0.000263,0.039583,-14.56,-8.87,-32.5,1a
2019-07-12_111256:560,-0.382324,-0.0055850000000000006,-0.31369,-0.017643,-4.9e-05,0.039827,-14.56,-8.87,-32.5,1a
2019-07-12_111256:580,-0.386902,-0.015228,-0.277069,-0.016391,0.004437,0.040833999999999995,-14.87,-9.56,-32.75,1a
2019-07-12_111256:600,-0.391968,-0.01828,-0.255707,-0.014072,0.011273,0.043306,-14.87,-9.56,-32.75,1a
2019-07-12_111256:620,-0.373688,-0.018799,-0.224701,-0.013065,0.019847999999999998,0.040986,-15.25,-9.25,-32.060001,1a
2019-07-12_111256:640,-0.35180700000000004,-0.015747,-0.209961,-0.013462,0.025555,0.035066,-15.25,-9.25,-32.060001,1a
2019-07-12_111256:660,-0.338593,-0.014740000000000001,-0.19622799999999999,-0.014438,0.027081,0.032075,-15.25,-9.25,-32.060001,1a
2019-07-12_111256:680,-0.330475,-0.015228,-0.187592,-0.015719999999999998,0.024762,0.032686,-16.370001000000002,-8.06,-31.25,1a
2019-07-12_111256:700,-0.324371,-0.031494,-0.166229,-0.018833000000000003,0.016522,0.032197,-16.75,-8.37,-30.370001000000002,1a
2019-07-12_111256:720,-0.327911,-0.035065,-0.165222,-0.019015999999999998,0.014203,0.030610000000000002,-16.75,-8.37,-30.370001000000002,1a
2019-07-12_111256:740,-0.352325,-0.044219999999999995,-0.167267,-0.019046,0.01167,0.028352,-16.75,-8.37,-30.370001000000002,1a
2019-07-12_111256:760,-0.386902,-0.048279,-0.17690999999999998,-0.017765,0.0062380000000000005,0.023836000000000003,-16.75,-8.37,-30.370001000000002,1a
2019-07-12_111256:780,-0.421967,-0.057434000000000006,-0.183533,-0.015781,-0.00038500000000000003,0.020447999999999997,-18.25,-8.37,-30.370001000000002,1a
2019-07-12_111256:800,-0.48553500000000005,-0.059479,-0.21554600000000002,-0.012516,-0.008075,0.016481,-18.25,-8.37,-30.370001000000002,1a
2019-07-12_111256:820,-0.514008,-0.062012,-0.241486,-0.0076939999999999995,-0.016895,0.013612,-17.5,-8.37,-29.559998999999998,1a
2019-07-12_111256:840,-0.472321,-0.063538,-0.244019,-0.0060149999999999995,-0.016498,0.012697,-17.5,-8.37,-29.559998999999998,1a
2019-07-12_111256:860,-0.443329,-0.085388,-0.28418000000000004,-0.002353,-0.015368999999999999,0.00757,-17.5,-8.37,-29.559998999999998,1a
2019-07-12_111256:880,-0.6599119999999999,-0.109802,-0.316742,-0.001224,-0.025988999999999998,0.006868000000000001,-16.75,-8.75,-29.18,1a
2019-07-12_111256:900,-0.512482,-0.10775799999999999,-0.495697,0.0018579999999999998,-0.038988999999999996,0.015535,-16.75,-8.75,-29.18,1a
2019-07-12_111256:920,-0.539429,-0.119476,-0.320282,0.010006000000000001,-0.024127000000000003,-0.0061329999999999996,-17.059998999999998,-8.37,-29.18,1a
2019-07-12_111256:940,-0.44027700000000003,-0.0849,-0.434692,0.006741,-0.022479,-0.029235,-17.059998999999998,-8.37,-29.18,1a
2019-07-12_111256:960,-0.31723,-0.06149299999999999,-0.38739,0.012661,-0.0013310000000000002,-0.02014,-17.059998999999998,-8.37,-29.18,1a
2019-07-12_111256:980,-0.300476,-0.078796,-0.30249000000000004,0.010128,0.007428,0.001893,-15.25,-8.75,-31.18,1a
2019-07-12_111257:000,-0.410278,-0.089478,-0.365021,0.007504,0.003583,0.020204,-15.25,-8.75,-31.18,1a
2019-07-12_111257:020,-0.373688,-0.11233499999999999,-0.344696,0.007016,0.008099,0.025636000000000003,-14.87,-8.37,-31.18,1a
2019-07-12_111257:040,-0.34570300000000004,-0.12301600000000001,-0.29995700000000003,0.006497,0.004651,0.01291,-14.87,-8.37,-31.18,1a
2019-07-12_111257:060,-0.395538,-0.11538699999999999,-0.330963,0.004574,-0.000263,-0.0011279999999999999,-14.87,-8.37,-31.18,1a
2019-07-12_111257:080,-0.387909,-0.111328,-0.315704,0.002255,-8e-05,-0.001464,-14.87,-6.5,-31.18,1a
2019-07-12_111257:100,-0.355377,-0.114899,-0.304535,0.001126,-0.002338,0.001192,-14.87,-6.5,-31.18,1a
2019-07-12_111257:120,-0.368591,-0.108276,-0.293335,-0.00159,-0.0030399999999999997,-0.009307,-15.0,-7.68,-31.18,1a
2019-07-12_111257:140,-0.384338,-0.081848,-0.264862,-0.004123,0.000317,-0.024047,-15.0,-7.68,-31.18,1a
2019-07-12_111257:160,-0.376221,-0.066589,-0.24758899999999998,-0.005344,0.006116,-0.031951,-15.0,-7.68,-31.18,1a
2019-07-12_111257:180,-0.36248800000000003,-0.054901,-0.219635,-0.006412,0.012066,-0.035338,-14.87,-7.25,-31.559998999999998,1a
2019-07-12_111257:200,-0.361969,-0.050842,-0.207916,-0.007206000000000001,0.015544999999999998,-0.035185,-14.87,-7.25,-31.559998999999998,1a
2019-07-12_111257:220,-0.358917,-0.053375,-0.204376,-0.005679999999999999,0.017131999999999998,-0.031889999999999995,-13.75,-8.0,-31.18,1a
2019-07-12_111257:240,-0.355377,-0.049316000000000006,-0.199799,-0.002353,0.01701,-0.030944,-13.75,-8.0,-31.18,1a
2019-07-12_111257:260,-0.35131799999999996,-0.037598,-0.19927999999999998,0.000393,0.014599,-0.031554,-13.75,-8.0,-31.18,1a
2019-07-12_111257:280,-0.358429,-0.025421,-0.20080599999999998,0.004116,0.011761,-0.029082,-14.56,-8.0,-30.0,1a
2019-07-12_111257:300,-0.35436999999999996,-0.007599,-0.20486500000000002,0.005825,0.009045000000000001,-0.025054,-14.56,-8.0,-30.0,1a
2019-07-12_111257:320,-0.378754,0.002014,-0.19775399999999999,0.0055509999999999995,0.00755,-0.021788,-15.25,-8.37,-30.370001000000002,1a
2019-07-12_111257:340,-0.427063,0.024902,-0.207916,0.0017670000000000001,0.006848000000000001,-0.014037,-15.25,-8.37,-30.370001000000002,1a
2019-07-12_111257:360,-0.44384799999999996,0.025908999999999998,-0.201843,-0.003055,0.008159999999999999,-0.002806,-15.25,-8.37,-30.370001000000002,1a
2019-07-12_111257:380,-0.504333,0.025421,-0.233856,-0.011081,0.004315,0.004518,-14.56,-8.75,-31.870001000000002,1a
2019-07-12_111257:400,-0.45605500000000004,0.026427999999999997,-0.274017,-0.017643,-0.0012699999999999999,0.006837,-14.56,-8.75,-31.870001000000002,1a
2019-07-12_111257:420,-0.45553599999999994,0.033539,-0.25827,-0.024753,-0.00539,-0.000151,-15.25,-9.18,-30.68,1a
2019-07-12_111257:440,-0.51297,0.038116000000000004,-0.260803,-0.033024,-0.008411,-0.001952,-15.25,-9.18,-30.68,1a
2019-07-12_111257:460,-0.602966,0.06405599999999999,-0.37316900000000003,-0.041782,-0.015581999999999999,0.01291,-15.25,-9.18,-30.68,1a
2019-07-12_111257:480,-0.59433,0.025908999999999998,-0.283173,-0.044254,-0.004961999999999999,0.024171,-15.25,-10.56,-30.25,1a
2019-07-12_111257:500,-0.481476,0.055908000000000006,-0.3396,-0.050235,-0.009204,0.021974,-15.25,-10.56,-30.25,1a
2019-07-12_111257:520,-0.352325,0.071167,-0.340118,-0.048435,-0.006854000000000001,0.019806999999999998,-14.18,-10.56,-30.25,1a
2019-07-12_111257:540,-0.334534,0.095581,-0.285217,-0.045658,-0.004993,0.007387,-14.18,-10.56,-30.25,1a
2019-07-12_111257:560,-0.42605600000000005,0.12454200000000001,-0.312653,-0.045963,-0.0025210000000000002,-0.003264,-14.18,-10.56,-30.25,1a
2019-07-12_111257:580,-0.47079499999999996,0.16217,-0.315704,-0.04578,0.002118,0.006593000000000001,-14.56,-12.06,-30.25,1a
2019-07-12_111257:600,-0.41384899999999997,0.163177,-0.29895,-0.045261,0.002392,0.021730000000000003,-14.56,-12.06,-30.25,1a
2019-07-12_111257:620,-0.44281000000000004,0.163177,-0.30300900000000003,-0.049381,-0.0012699999999999999,0.023897,-14.56,-13.18,-29.5,1a
2019-07-12_111257:640,-0.423492,0.167755,-0.30300900000000003,-0.052767999999999995,-0.003925,0.029756,-14.56,-13.18,-29.5,1a
2019-07-12_111257:660,-0.381805,0.151001,-0.30300900000000003,-0.054935000000000005,-0.009662,0.044282,-14.56,-13.18,-29.5,1a
2019-07-12_111257:680,-0.37674,0.119476,-0.306061,-0.058475,-0.016712,0.051515,-14.87,-14.25,-28.68,1a
2019-07-12_111257:700,-0.384338,0.083374,-0.29538000000000003,-0.060062,-0.020008,0.054109000000000004,-14.87,-14.25,-28.68,1a
2019-07-12_111257:720,-0.387909,0.06405599999999999,-0.28369099999999997,-0.057071000000000004,-0.017353,0.05941900000000001,-14.87,-15.75,-28.25,1a
2019-07-12_111257:740,-0.38739,0.046265,-0.25521900000000003,-0.052828999999999994,-0.009998,0.062227,-14.87,-15.75,-28.25,1a
2019-07-12_111257:760,-0.381805,0.044739,-0.233856,-0.049747,-0.00047599999999999997,0.061159000000000005,-14.87,-15.75,-28.25,1a
2019-07-12_111257:780,-0.36706500000000003,0.05285599999999999,-0.213013,-0.047916,0.006573000000000001,0.063356,-16.059998999999998,-16.5,-28.0,1a
2019-07-12_111257:800,-0.35131799999999996,0.051330999999999995,-0.20080599999999998,-0.047031,0.010570999999999999,0.066652,-16.059998999999998,-16.5,-28.0,1a
2019-07-12_111257:820,-0.33605999999999997,0.046265,-0.187592,-0.048893,0.011029,0.066011,-16.75,-16.18,-28.25,1a
2019-07-12_111257:840,-0.325378,0.044219999999999995,-0.178955,-0.050631999999999996,0.010754000000000001,0.063936,-16.75,-16.18,-28.25,1a
2019-07-12_111257:860,-0.326385,0.033539,-0.162689,-0.051822,0.010968,0.061464,-16.75,-16.18,-28.25,1a
2019-07-12_111257:880,-0.34063699999999997,0.029968,-0.159119,-0.052951,0.01228,0.0571,-17.5,-16.370001000000002,-28.68,1a
2019-07-12_111257:900,-0.435699,0.015228,-0.164703,-0.052738,0.014203,0.05444500000000001,-17.5,-16.370001000000002,-28.68,1a
2019-07-12_111257:920,-0.457581,0.010651,-0.177948,-0.053013,0.012555,0.055238,-20.059998999999998,-17.559998999999998,-25.559998999999998,1a
2019-07-12_111257:940,-0.560272,-0.011687999999999999,-0.231323,-0.052158,0.00755,0.054658000000000005,-20.059998999999998,-17.559998999999998,-25.559998999999998,1a
2019-07-12_111257:960,-0.544006,-0.021851,-0.223694,-0.049777999999999996,0.009167,0.051210000000000006,-20.059998999999998,-17.559998999999998,-25.559998999999998,1a
2019-07-12_111257:980,-0.47280900000000003,-0.027954000000000003,-0.20080599999999998,-0.047245,0.014934999999999999,0.046754000000000004,-20.870001000000002,-16.75,-25.68,1a
2019-07-12_111258:000,-0.764648,-0.055389,-0.223175,-0.045963,0.01286,0.048555,-20.870001000000002,-16.75,-25.68,1a
2019-07-12_111258:020,-0.729065,-0.014740000000000001,-0.352325,-0.047702,-0.006854000000000001,0.06488200000000001,-22.0,-18.25,-24.0,1a
2019-07-12_111258:040,-0.43774399999999997,-0.072693,-0.212006,-0.039737,-0.0013310000000000002,0.051729,-22.0,-18.25,-24.0,1a
2019-07-12_111258:060,-0.33300799999999997,-0.051330999999999995,-0.295898,-0.044193,-0.014759,0.016939,-22.0,-18.25,-24.0,1a
2019-07-12_111258:080,-0.325897,-0.017273,-0.31369,-0.039889999999999995,-0.015155000000000002,0.016481,-23.25,-16.68,-22.870001000000002,1a
2019-07-12_111258:100,-0.34063699999999997,-0.037108999999999996,-0.317749,-0.036227999999999996,-0.014697,0.038972,-23.25,-16.68,-22.870001000000002,1a
2019-07-12_111258:120,-0.508911,-0.055908000000000006,-0.277069,-0.035618000000000004,-0.007006999999999999,0.036927999999999996,-23.0,-17.870001000000002,-23.25,1a
2019-07-12_111258:140,-0.525177,-0.031494,-0.300964,-0.040012,0.002911,0.034456,-23.0,-17.870001000000002,-23.25,1a
2019-07-12_111258:160,-0.433655,-0.033539,-0.245056,-0.036106,0.014141999999999998,0.04886,-23.0,-17.870001000000002,-23.25,1a
2019-07-12_111258:180,-0.416382,-0.037108999999999996,-0.23233,-0.040348,0.017529,0.047822,-23.68,-17.5,-21.0,1a
2019-07-12_111258:200,-0.38739,-0.021851,-0.242493,-0.048618,0.014081,0.046998000000000005,-23.68,-17.5,-21.0,1a
2019-07-12_111258:220,-0.390442,-0.03302,-0.260284,-0.054477,0.005231,0.066133,-24.75,-17.559998999999998,-20.18,1a
2019-07-12_111258:240,-0.392487,-0.045745999999999995,-0.270477,-0.060917,-0.00539,0.076936,-24.75,-17.559998999999998,-20.18,1a
2019-07-12_111258:260,-0.409271,-0.061005,-0.25827,-0.071323,-0.010456,0.066133,-24.75,-17.559998999999998,-20.18,1a
2019-07-12_111258:280,-0.42147799999999996,-0.055389,-0.25827,-0.079288,-0.007587000000000001,0.056032000000000005,-25.559998999999998,-16.75,-18.559998999999998,1a
2019-07-12_111258:300,-0.433655,-0.033539,-0.255707,-0.086918,0.0007440000000000001,0.050142,-25.559998999999998,-16.75,-18.559998999999998,1a
2019-07-12_111258:320,-0.432648,-0.031006,-0.25216700000000003,-0.09589,0.008099,0.037599,-27.5,-17.18,-18.18,1a
2019-07-12_111258:340,-0.411804,-0.012177,-0.24706999999999998,-0.10373299999999999,0.012738,0.023927,-27.5,-17.18,-18.18,1a
2019-07-12_111258:360,-0.401642,-0.006072999999999999,-0.245056,-0.108555,0.013134999999999999,0.018678,-27.5,-17.18,-18.18,1a
2019-07-12_111258:380,-0.388916,0.007111,-0.242004,-0.11194200000000001,0.011273,0.018953,-28.18,-17.559998999999998,-17.75,1a
2019-07-12_111258:400,-0.384338,0.008636,-0.236389,-0.115024,0.009411,0.023530000000000002,-28.18,-17.559998999999998,-17.75,1a
2019-07-12_111258:420,-0.39859,0.0030210000000000002,-0.23791500000000002,-0.114628,0.008374,0.031618,-29.68,-18.68,-14.68,1a
2019-07-12_111258:440,-0.397064,-0.011687999999999999,-0.239441,-0.11136199999999999,0.009442,0.034730000000000004,-29.68,-18.68,-14.68,1a
2019-07-12_111258:460,-0.409271,-0.025421,-0.224701,-0.108036,0.011273,0.034517,-29.68,-18.68,-14.68,1a
2019-07-12_111258:480,-0.41995200000000005,-0.022369,-0.234375,-0.10477,0.012738,0.04117,-28.75,-19.75,-10.75,1a
2019-07-12_111258:500,-0.41586300000000004,-0.029968,-0.225739,-0.103183,0.01402,0.049196,-28.75,-19.75,-10.75,1a
2019-07-12_111258:520,-0.453003,-0.037598,-0.222687,-0.10532000000000001,0.011822,0.053773,-30.68,-19.870001000000002,-10.0,1a
2019-07-12_111258:540,-0.378265,-0.045745999999999995,-0.24658200000000002,-0.10406800000000001,0.011334,0.056245,-30.68,-19.870001000000002,-10.0,1a
2019-07-12_111258:560,-0.396545,-0.054901,-0.21554600000000002,-0.107578,0.0036439999999999997,0.051515,-30.68,-19.870001000000002,-10.0,1a
2019-07-12_111258:580,-0.430634,-0.059479,-0.272003,-0.10858499999999999,-0.003314,0.052247,-31.370001000000002,-18.75,-6.5,1a
2019-07-12_111258:600,-0.516541,-0.073212,-0.253693,-0.111149,-0.015094,0.057619000000000004,-31.370001000000002,-18.75,-6.5,1a
2019-07-12_111258:620,-0.5073850000000001,-0.09201000000000001,-0.31012,-0.108646,-0.018146000000000002,0.056702999999999996,-32.560001,-18.370001000000002,-5.25,1a
2019-07-12_111258:640,-0.622803,-0.049316000000000006,-0.28875700000000004,-0.11294900000000001,-0.021472,0.054109000000000004,-32.560001,-18.370001000000002,-5.25,1a
2019-07-12_111258:660,-0.535858,-0.009125,-0.33197,-0.10968399999999999,-0.017108,0.05291900000000001,-32.560001,-18.370001000000002,-5.25,1a
2019-07-12_111258:680,-0.465179,0.025908999999999998,-0.344696,-0.11084300000000001,-0.011585,0.036378,-34.369999,-16.870001000000002,-4.5,1a
2019-07-12_111258:700,-0.46926899999999994,0.072693,-0.294373,-0.10916500000000001,0.006177,0.012819,-34.369999,-16.870001000000002,-4.5,1a
2019-07-12_111258:720,-0.42401099999999997,0.119965,-0.256744,-0.106327,0.02995,0.007112,-34.0,-16.18,-2.18,1a
2019-07-12_111258:740,-0.417908,0.18096900000000002,-0.21505700000000003,-0.10666199999999999,0.039776,0.018587,-34.0,-16.18,-2.18,1a
2019-07-12_111258:760,-0.404694,0.20944200000000002,-0.248596,-0.11163699999999999,0.035107,0.031679,-34.0,-16.18,-2.18,1a
2019-07-12_111258:780,-0.307587,0.226227,-0.245544,-0.11389500000000001,0.029461,0.034212,-34.0,-15.06,0.37,1a
2019-07-12_111258:800,-0.345215,0.226746,-0.240479,-0.12601099999999998,-0.000995,0.037995999999999995,-34.0,-15.06,0.37,1a
2019-07-12_111258:820,-0.423004,0.20742800000000003,-0.276581,-0.127689,-0.00893,0.044099,-34.369999,-14.37,3.25,1a
2019-07-12_111258:840,-0.42858900000000005,0.170807,-0.294373,-0.129795,-0.024921000000000002,0.058503999999999994,-34.369999,-14.37,3.25,1a
2019-07-12_111258:860,-0.43518100000000004,0.146912,-0.303528,-0.128025,-0.032215,0.058015,-34.369999,-14.37,3.25,1a
2019-07-12_111258:880,-0.46417200000000003,0.122528,-0.30249000000000004,-0.12106700000000001,-0.030352999999999998,0.061006,-34.369999,-12.18,2.87,1a
2019-07-12_111258:900,-0.449432,0.11691300000000002,-0.28064,-0.11182,-0.020893000000000002,0.06884900000000001,-34.369999,-12.18,2.87,1a
2019-07-12_111258:920,-0.410797,0.107269,-0.254211,-0.104709,-0.010912999999999999,0.0766,-35.869999,-9.56,4.87,1a
2019-07-12_111258:940,-0.392487,0.100647,-0.241486,-0.09854500000000001,-0.003192,0.083467,-35.869999,-9.56,4.87,1a
2019-07-12_111258:960,-0.368591,0.087952,-0.219635,-0.09424199999999999,0.001141,0.087953,-35.869999,-9.56,4.87,1a
2019-07-12_111258:980,-0.35791,0.07775900000000001,-0.20385699999999998,-0.09271599999999999,0.002179,0.088838,-36.18,-7.0,4.87,1a
2019-07-12_111259:000,-0.361481,0.057434000000000006,-0.186584,-0.089176,0.0016600000000000002,0.086824,-36.18,-7.0,4.87,1a
2019-07-12_111259:020,-0.372162,0.042175,-0.17944300000000002,-0.087742,0.001324,0.085115,-35.5,-3.25,5.75,1a
2019-07-12_111259:040,-0.370636,0.026917,-0.1698,-0.081089,-0.0013310000000000002,0.07800399999999999,-35.5,-3.25,5.75,1a
2019-07-12_111259:060,-0.35739099999999996,0.022369,-0.169281,-0.075535,-0.003589,0.071962,-35.5,-3.25,5.75,1a
2019-07-12_111259:080,-0.36911,0.012695,-0.168274,-0.072117,-0.00484,0.069063,-36.18,-0.25,5.0,1a
2019-07-12_111259:100,-0.406738,0.002014,-0.167755,-0.061649,-0.007404000000000001,0.059938,-36.18,-0.25,5.0,1a
2019-07-12_111259:120,-0.48095699999999997,0.000488,-0.21249400000000002,-0.058475,-0.009845,0.056977999999999994,-35.869999,2.18,5.0,1a
2019-07-12_111259:140,-0.49722299999999997,0.001495,-0.236389,-0.04871,-0.014362,0.051515,-35.869999,2.18,5.0,1a
2019-07-12_111259:160,-0.535858,-0.023375999999999997,-0.21402,-0.044376,-0.011768,0.047731,-35.869999,2.18,5.0,1a
2019-07-12_111259:180,-0.715332,0.012177,-0.26181,-0.044193,-0.011859,0.047212,-36.0,4.56,4.68,1a
2019-07-12_111259:200,-0.571442,-0.032013,-0.272491,-0.044712,-0.005725,0.057771,-36.0,4.56,4.68,1a
2019-07-12_111259:220,-0.46569799999999995,-0.023895,-0.320801,-0.049564,-0.007923000000000001,0.053193,-36.0,5.68,5.06,1a
2019-07-12_111259:240,-0.366058,-0.041687,-0.381317,-0.061771000000000006,-0.016681,0.054627999999999996,-36.0,5.68,5.06,1a
2019-07-12_111259:260,-0.348267,-0.0737,-0.381805,-0.066166,-0.01781,0.058046,-36.0,5.68,5.06,1a
2019-07-12_111259:280,-0.391968,-0.115906,-0.384857,-0.066227,-0.015033000000000001,0.053315999999999995,-34.5,7.18,4.0,1a
2019-07-12_111259:300,-0.429596,-0.12048299999999999,-0.340118,-0.059604,0.008159999999999999,0.015077000000000002,-34.5,7.18,4.0,1a
2019-07-12_111259:320,-0.429108,-0.091003,-0.293854,-0.056797,0.015271000000000002,0.004274,-34.5,7.18,4.0,1a
2019-07-12_111259:340,-0.380798,-0.076263,-0.276062,-0.046299,0.023694,0.002565,-34.5,9.37,3.18,1a
2019-07-12_111259:360,-0.347229,-0.082336,-0.22879000000000002,-0.042453,0.022838999999999998,0.004793,-34.5,9.37,3.18,1a
2019-07-12_111259:380,-0.378754,-0.081329,-0.224701,-0.03754,0.015606,0.005006,-34.5,10.25,4.0,1a
2019-07-12_111259:400,-0.369598,-0.07928500000000001,-0.23486300000000002,-0.031528,0.004925,0.012483,-34.5,10.25,4.0,1a
2019-07-12_111259:420,-0.388916,-0.086426,-0.22116100000000002,-0.021488,-0.00365,0.021242,-33.369999,10.25,5.06,1a
2019-07-12_111259:440,-0.432159,-0.071167,-0.23233,-0.016178,-0.012378,0.01642,-33.369999,10.25,5.06,1a
2019-07-12_111259:460,-0.443329,-0.048279,-0.230804,-0.011722,-0.018817,0.011781,-33.369999,10.25,5.06,1a
2019-07-12_111259:480,-0.44232200000000005,-0.039124,-0.228271,-0.011936,-0.019153,0.012819,-33.369999,10.56,4.75,1a
2019-07-12_111259:500,-0.437225,-0.036072,-0.223175,-0.018497,-0.014972,0.009035,-33.369999,10.56,4.75,1a
2019-07-12_111259:520,-0.425018,-0.037598,-0.21505700000000003,-0.020968999999999998,-0.012592,0.007722,-33.369999,10.56,4.75,1a
2019-07-12_111259:540,-0.420441,-0.045226999999999996,-0.21453899999999998,-0.025272,-0.007129000000000001,0.0071730000000000006,-33.68,9.87,3.56,1a
2019-07-12_111259:560,-0.40570100000000003,-0.05285599999999999,-0.205902,-0.025730000000000003,-0.005298,0.004518,-33.68,9.87,3.56,1a
2019-07-12_111259:580,-0.394012,-0.049316000000000006,-0.20538299999999998,-0.02634,-0.003589,-0.005187,-32.68,11.0,2.68,1a
2019-07-12_111259:600,-0.39859,-0.041687,-0.21048000000000003,-0.025791,-0.0037719999999999997,-0.012114,-32.68,11.0,2.68,1a
2019-07-12_111259:620,-0.391479,-0.039642000000000004,-0.21759,-0.024082,-0.00539,-0.014891,-33.0,10.25,2.75,1a
2019-07-12_111259:640,-0.394531,-0.034058,-0.216583,-0.022556,-0.006458,-0.01779,-33.0,10.25,2.75,1a
2019-07-12_111259:660,-0.406219,-0.029480000000000003,-0.217072,-0.019565,-0.0052369999999999995,-0.019530000000000002,-33.0,10.25,2.75,1a
2019-07-12_111259:680,-0.42453,-0.024384,-0.21048000000000003,-0.018497,-0.00307,-0.018187000000000002,-34.060001,10.25,3.06,1a
2019-07-12_111259:700,-0.453003,-0.022369,-0.20944200000000002,-0.017307,0.001141,-0.008513,-34.060001,10.25,3.06,1a
2019-07-12_111259:720,-0.43011499999999997,-0.021332,-0.24096700000000001,-0.017429,7.3e-05,-0.003539,-34.060001,10.25,3.06,1a
2019-07-12_111259:740,-0.45605500000000004,-0.029480000000000003,-0.231323,-0.016056,-0.00047599999999999997,0.0037549999999999997,-32.68,9.06,2.68,1a
2019-07-12_111259:760,-0.505371,-0.028442000000000002,-0.254211,-0.017307,-0.003925,0.004457,-32.68,9.06,2.68,1a
2019-07-12_111259:780,-0.49365200000000004,-0.021332,-0.264374,-0.018558,-0.004657,0.007965999999999999,-33.68,9.06,1.18,1a
2019-07-12_111259:800,-0.500275,-0.024902,-0.260803,-0.019747999999999998,-0.003833,0.014223,-33.68,9.06,1.18,1a
2019-07-12_111259:820,-0.699585,-0.015228,-0.271484,-0.022556,-0.005939,0.013307,-33.68,9.06,1.18,1a
2019-07-12_111259:840,-0.541443,-0.021332,-0.339111,-0.027012,-0.016895,0.017091,-33.0,9.06,1.87,1a
2019-07-12_111259:860,-0.52774,-0.009125,-0.29895,-0.023075,-0.011859,0.01468,-33.0,9.06,1.87,1a
2019-07-12_111259:880,-0.452484,0.022858,-0.316223,-0.022831,-0.010456,0.006379,-33.0,9.5,1.18,1a
2019-07-12_111259:900,-0.402161,0.053863999999999995,-0.315216,-0.01984,-0.007923000000000001,0.006196,-33.0,9.5,1.18,1a
2019-07-12_111259:920,-0.31723,0.068115,-0.28418000000000004,-0.012790000000000001,0.001721,-0.007932999999999999,-33.0,9.5,1.18,1a
2019-07-12_111259:940,-0.47180200000000005,0.098633,-0.25216700000000003,-0.011081,0.008496,-0.0231,-33.369999,10.25,0.0,1a
2019-07-12_111259:960,-0.44384799999999996,0.156586,-0.280121,-0.012577,0.013806,-0.013884,-33.369999,10.25,0.0,1a
2019-07-12_111259:980,-0.384857,0.164215,-0.24096700000000001,-0.012607,0.013623,0.004793,-33.0,9.87,0.75,1a
2019-07-12_111300:000,-0.41232299999999994,0.141846,-0.21810900000000003,-0.018558,0.009228,0.010773999999999999,-33.0,9.87,0.75,1a
2019-07-12_111300:020,-0.412811,0.13623,-0.224701,-0.022494999999999998,0.005261,0.018922,-33.0,9.87,0.75,1a
2019-07-12_111300:040,-0.36554000000000003,0.103699,-0.21148699999999998,-0.023807,-0.00246,0.037385,-33.0,9.06,1.25,1a
2019-07-12_111300:060,-0.341125,0.066589,-0.20843499999999998,-0.025486,-0.011768,0.048188999999999996,-33.0,9.06,1.25,1a
2019-07-12_111300:080,-0.322845,0.03302,-0.21148699999999998,-0.027347000000000003,-0.020496,0.04886,-33.0,9.18,1.25,1a
2019-07-12_111300:100,-0.341644,0.023895,-0.20486500000000002,-0.026858999999999997,-0.026202999999999997,0.049592000000000004,-33.0,9.18,1.25,1a
2019-07-12_111300:120,-0.377747,0.004547,-0.21048000000000003,-0.025394,-0.027576,0.048188999999999996,-33.0,9.18,1.25,1a
2019-07-12_111300:140,-0.391479,-0.000488,-0.20080599999999998,-0.024265000000000002,-0.023853,0.041719,-32.68,10.68,1.25,1a
2019-07-12_111300:160,-0.404694,0.0035399999999999997,-0.195221,-0.023929,-0.018756000000000002,0.037904,-32.68,10.68,1.25,1a
2019-07-12_111300:180,-0.404175,0.0025329999999999997,-0.192688,-0.022892,-0.013904,0.039766,-31.870001000000002,11.5,-1.06,1a
2019-07-12_111300:200,-0.385864,-0.006592,-0.183014,-0.022098,-0.011066,0.039857,-31.870001000000002,11.5,-1.06,1a
2019-07-12_111300:220,-0.375702,-0.014740000000000001,-0.18811,-0.021549000000000002,-0.010578,0.035646,-31.870001000000002,11.5,-1.06,1a
2019-07-12_111300:240,-0.376221,-0.01828,-0.188599,-0.019687,-0.011249,0.032625,-32.68,11.87,0.0,1a
2019-07-12_111300:260,-0.393494,-0.022369,-0.189117,-0.016391,-0.010456,0.030945999999999998,-32.68,11.87,0.0,1a
2019-07-12_111300:280,-0.412811,-0.023375999999999997,-0.207916,-0.013125999999999999,-0.010517,0.026552,-32.25,13.68,-2.37,1a
2019-07-12_111300:300,-0.46569799999999995,-0.01828,-0.203369,-0.008884,-0.009723,0.019075,-32.25,13.68,-2.37,1a
2019-07-12_111300:320,-0.5048520000000001,-0.014221000000000001,-0.251648,-0.0069,-0.015430000000000001,0.015931,-32.25,13.68,-2.37,1a
2019-07-12_111300:340,-0.492645,-0.014221000000000001,-0.262848,-0.002933,-0.016284,0.018616999999999998,-30.75,13.68,-0.75,1a
2019-07-12_111300:360,-0.45907600000000004,-0.021851,-0.274536,-0.000889,-0.016773,0.019075,-30.75,13.68,-0.75,1a
2019-07-12_111300:380,-0.600952,-0.050842,-0.302002,-0.00046100000000000004,-0.019672,0.018587,-31.18,14.37,-3.18,1a
2019-07-12_111300:400,-0.649231,-0.047272,-0.423004,-0.001957,-0.030567,0.026764999999999997,-31.18,14.37,-3.18,1a
2019-07-12_111300:420,-0.646179,-0.10675,-0.35943600000000003,0.002163,-0.029620999999999998,0.031465,-31.18,14.37,-3.18,1a
2019-07-12_111300:440,-0.5073850000000001,-0.117432,-0.444855,0.0018579999999999998,-0.031695999999999995,0.013826,-31.5,15.18,-4.0,1a
2019-07-12_111300:460,-0.36706500000000003,-0.11843900000000002,-0.416382,0.002102,-0.023119999999999998,0.005678,-31.5,15.18,-4.0,1a
2019-07-12_111300:480,-0.29895,-0.12353499999999999,-0.401642,0.004116,-0.015581999999999999,0.017457,-30.75,15.5,-5.5,1a
2019-07-12_111300:500,-0.345215,-0.154022,-0.34368899999999997,0.004635,-0.003436,0.026491000000000004,-30.75,15.5,-5.5,1a
2019-07-12_111300:520,-0.408752,-0.156067,-0.321808,0.00317,0.010876,0.023042,-30.75,15.5,-5.5,1a
2019-07-12_111300:540,-0.33758499999999997,-0.162689,-0.309601,0.004299,0.017651,0.016481,-31.5,16.25,-4.25,1a
2019-07-12_111300:560,-0.319794,-0.164215,-0.275543,0.0075650000000000005,0.018597,0.0037549999999999997,-31.5,16.25,-4.25,1a
2019-07-12_111300:580,-0.344696,-0.155548,-0.252686,0.00787,0.015393,-0.012084000000000001,-31.18,17.0,-3.56,1a
2019-07-12_111300:600,-0.379272,-0.142853,-0.23284899999999997,0.008938,0.013074,-0.015806999999999998,-31.18,17.0,-3.56,1a
2019-07-12_111300:620,-0.346222,-0.139801,-0.22421300000000002,0.010403,0.008709999999999999,-0.011504,-31.18,17.0,-3.56,1a
2019-07-12_111300:640,-0.334015,-0.135742,-0.21810900000000003,0.010525,0.001446,-0.017089,-30.75,16.68,-3.56,1a
2019-07-12_111300:660,-0.322845,-0.11538699999999999,-0.226227,0.009335,-0.007862000000000001,-0.029296,-30.75,16.68,-3.56,1a
2019-07-12_111300:680,-0.325378,-0.102173,-0.222687,0.010128,-0.016162,-0.037718,-31.870001000000002,16.25,-1.87,1a
2019-07-12_111300:700,-0.338593,-0.086426,-0.225739,0.010739,-0.022266,-0.04428,-31.870001000000002,16.25,-1.87,1a
2019-07-12_111300:720,-0.352325,-0.074738,-0.22216799999999998,0.011593000000000001,-0.024127000000000003,-0.050658,-31.870001000000002,16.25,-1.87,1a
2019-07-12_111300:740,-0.37674,-0.059479,-0.21859699999999999,0.012387,-0.02193,-0.053313,-32.68,15.5,-5.06,1a
2019-07-12_111300:760,-0.378265,-0.048279,-0.22216799999999998,0.013577,-0.01781,-0.05078,-32.68,15.5,-5.06,1a
2019-07-12_111300:780,-0.364014,-0.037108999999999996,-0.227753,0.014584,-0.014178999999999999,-0.04727,-33.369999,14.0,-5.0,1a
2019-07-12_111300:800,-0.365021,-0.028442000000000002,-0.231812,0.014981,-0.011309999999999999,-0.045134,-33.369999,14.0,-5.0,1a
2019-07-12_111300:820,-0.374695,-0.016753999999999998,-0.235382,0.015103,-0.007678,-0.042174,-33.369999,14.0,-5.0,1a
2019-07-12_111300:840,-0.401123,-0.009644,-0.23486300000000002,0.014736,-0.0032530000000000002,-0.037902,-34.060001,12.18,-4.18,1a
2019-07-12_111300:860,-0.43927,0.0035399999999999997,-0.25827,0.012142,-0.001178,-0.031859,-34.060001,12.18,-4.18,1a
2019-07-12_111300:880,-0.44027700000000003,0.008118,-0.264862,0.007809,-0.00047599999999999997,-0.022643,-33.75,10.68,-5.0,1a
2019-07-12_111300:900,-0.48095699999999997,0.006592,-0.269958,0.002102,-0.000781,-0.013365,-33.75,10.68,-5.0,1a
2019-07-12_111300:920,-0.495697,-0.001007,-0.277588,-0.003208,1.2e-05,-0.008634999999999999,-33.75,10.68,-5.0,1a
2019-07-12_111300:940,-0.46569799999999995,0.0,-0.28064,-0.0067480000000000005,0.001141,-0.010954,-34.75,10.0,-4.68,1a
2019-07-12_111300:960,-0.60553,0.010651,-0.278595,-0.010348999999999999,-0.003467,-0.013884,-34.75,10.0,-4.68,1a
2019-07-12_111300:980,-0.516541,0.022369,-0.399597,-0.014865999999999999,-0.017902,-0.0051259999999999995,-34.060001,9.56,-5.87,1a
2019-07-12_111301:000,-0.535339,0.025908999999999998,-0.319794,-0.015719999999999998,-0.020281999999999998,0.004915,-34.060001,9.56,-5.87,1a
2019-07-12_111301:020,-0.455017,0.034058,-0.388916,-0.018253,-0.027912,0.0076,-34.060001,9.56,-5.87,1a
2019-07-12_111301:040,-0.397064,0.053375,-0.397583,-0.015659,-0.026202999999999997,0.001253,-34.5,9.06,-5.37,1a
2019-07-12_111301:060,-0.36349499999999996,0.081329,-0.379791,-0.012607,-0.019031,-0.010314,-34.5,9.06,-5.37,1a
2019-07-12_111301:080,-0.375214,0.105743,-0.35638400000000003,-0.009006,-0.004229999999999999,-0.018614,-35.560001,9.87,-6.18,1a
2019-07-12_111301:100,-0.42401099999999997,0.13269,-0.33300799999999997,-0.00922,0.007640999999999999,-0.011778,-35.560001,9.87,-6.18,1a
2019-07-12_111301:120,-0.367584,0.137756,-0.335022,-0.011417,0.01167,0.010255,-35.560001,9.87,-6.18,1a
2019-07-12_111301:140,-0.35131799999999996,0.11691300000000002,-0.280121,-0.013645,0.01289,0.031099,-36.0,9.06,-6.18,1a
2019-07-12_111301:160,-0.384857,0.098633,-0.277588,-0.017978,0.009167,0.039461,-36.0,9.06,-6.18,1a
2019-07-12_111301:180,-0.378265,0.078796,-0.26944,-0.020298,0.006024,0.042634,-36.0,8.75,-5.87,1a
2019-07-12_111301:200,-0.345215,0.067596,-0.255707,-0.021549000000000002,0.00105,0.04535,-36.0,8.75,-5.87,1a
2019-07-12_111301:220,-0.33605999999999997,0.044739,-0.260284,-0.023929,-0.005756,0.047151,-36.0,8.75,-5.87,1a
2019-07-12_111301:240,-0.33300799999999997,0.031494,-0.260284,-0.026400999999999997,-0.011188,0.051210000000000006,-36.0,9.56,-6.18,1a
2019-07-12_111301:260,-0.353851,0.011169,-0.238434,-0.027134,-0.013628999999999999,0.055025,-36.0,9.56,-6.18,1a
2019-07-12_111301:280,-0.364014,0.001007,-0.230804,-0.027866000000000002,-0.012592,0.052522000000000006,-36.25,11.06,-5.37,1a
2019-07-12_111301:300,-0.37011700000000003,-0.0030210000000000002,-0.20285,-0.028873000000000003,-0.008136,0.046602,-36.25,11.06,-5.37,1a
2019-07-12_111301:320,-0.366058,-0.007599,-0.197266,-0.029452999999999997,-0.004229999999999999,0.042573,-36.25,11.06,-5.37,1a
2019-07-12_111301:340,-0.364532,-0.01828,-0.189636,-0.030032999999999997,-0.0012699999999999999,0.039369,-34.68,12.18,-6.56,1a
2019-07-12_111301:360,-0.371643,-0.024902,-0.184021,-0.030368,0.000195,0.035524,-34.68,12.18,-6.56,1a
2019-07-12_111301:380,-0.368073,-0.035583,-0.185059,-0.029056,0.000805,0.031952999999999995,-34.68,13.68,-7.75,1a
2019-07-12_111301:400,-0.386383,-0.041168,-0.178955,-0.026126999999999997,0.001538,0.027223,-34.68,13.68,-7.75,1a
2019-07-12_111301:420,-0.396057,-0.041687,-0.20285,-0.022007,0.001599,0.020723,-34.68,13.68,-7.75,1a
2019-07-12_111301:440,-0.368591,-0.043213,-0.217072,-0.016391,-0.0009339999999999999,0.013368000000000001,-35.060001,14.37,-8.56,1a
2019-07-12_111301:460,-0.446899,-0.029968,-0.283173,-0.011142,-0.010394,0.0076,-35.060001,14.37,-8.56,1a
2019-07-12_111301:480,-0.462646,-0.022858,-0.305054,-0.005375,-0.017475,0.009248000000000001,-35.5,14.75,-7.0,1a
2019-07-12_111301:500,-0.415375,-0.024902,-0.308594,0.000515,-0.020343,0.01111,-35.5,14.75,-7.0,1a
2019-07-12_111301:520,-0.537384,-0.049316000000000006,-0.321808,0.003048,-0.025072999999999998,0.009584,-35.5,14.75,-7.0,1a
2019-07-12_111301:540,-0.6828,-0.043213,-0.5185850000000001,0.004086,-0.038715,0.015625999999999998,-34.68,15.06,-7.75,1a
2019-07-12_111301:560,-0.691956,-0.088959,-0.36349499999999996,0.010952,-0.020954,0.019716,-34.68,15.06,-7.75,1a
2019-07-12_111301:580,-0.552643,-0.08081100000000001,-0.44891400000000004,0.009426,-0.018938999999999998,0.0027170000000000002,-35.060001,15.37,-10.18,1a
2019-07-12_111301:600,-0.459595,-0.084381,-0.40063499999999996,0.009793000000000001,-0.004383,-0.00128,-35.060001,15.37,-10.18,1a
2019-07-12_111301:620,-0.269958,-0.101685,-0.338074,0.0108,0.006573000000000001,0.013887,-35.060001,15.37,-10.18,1a
2019-07-12_111301:640,-0.254211,-0.12454200000000001,-0.304016,0.009609999999999999,0.012218999999999999,0.025361,-35.060001,15.75,-9.37,1a
2019-07-12_111301:660,-0.37011700000000003,-0.144379,-0.311646,0.007229000000000001,0.011609,0.027437,-35.060001,15.75,-9.37,1a
2019-07-12_111301:680,-0.328949,-0.160645,-0.323334,0.009396,0.00935,0.021852,-35.5,16.559998999999998,-9.37,1a
2019-07-12_111301:700,-0.290802,-0.168793,-0.26944,0.012661,0.004895,0.003511,-35.5,16.559998999999998,-9.37,1a
2019-07-12_111301:720,-0.322845,-0.160645,-0.274536,0.013913,-0.001911,-0.019255,-35.5,16.559998999999998,-9.37,1a
2019-07-12_111301:740,-0.360962,-0.142853,-0.275055,0.016232,-0.004779,-0.026763,-35.5,16.870001000000002,-8.18,1a
2019-07-12_111301:760,-0.35436999999999996,-0.142334,-0.274536,0.020108,-0.008594,-0.021575,-35.5,16.870001000000002,-8.18,1a
2019-07-12_111301:780,-0.349274,-0.133179,-0.272003,0.022946,-0.013172,-0.024382,-35.5,16.559998999999998,-9.0,1a
2019-07-12_111301:800,-0.349274,-0.114899,-0.259796,0.024075,-0.014819999999999998,-0.037718,-35.5,16.559998999999998,-9.0,1a
2019-07-12_111301:820,-0.35638400000000003,-0.076263,-0.249115,0.025021,-0.013294,-0.048674,-35.5,16.559998999999998,-9.0,1a
2019-07-12_111301:840,-0.350281,-0.051330999999999995,-0.23233,0.025082,-0.010333,-0.051726,-36.18,15.75,-7.75,1a
2019-07-12_111301:860,-0.344177,-0.040161,-0.22216799999999998,0.023831,-0.007678,-0.052184,-36.18,15.75,-7.75,1a
2019-07-12_111301:880,-0.338593,-0.022858,-0.213013,0.021633000000000003,-0.005817,-0.051329,-37.369999,14.25,-8.18,1a
2019-07-12_111301:900,-0.348267,-0.014221000000000001,-0.210968,0.020413,-0.006336,-0.047942,-37.369999,14.25,-8.18,1a
2019-07-12_111301:920,-0.358429,-0.0035399999999999997,-0.21453899999999998,0.01965,-0.007801000000000001,-0.045226,-37.369999,14.25,-8.18,1a
2019-07-12_111301:940,-0.361481,0.004547,-0.210968,0.018521,-0.007404000000000001,-0.043975,-38.060001,13.56,-9.0,1a
2019-07-12_111301:960,-0.37674,0.019318000000000002,-0.213013,0.017238999999999997,-0.006,-0.040373,-38.060001,13.56,-9.0,1a
2019-07-12_111301:980,-0.402161,0.024902,-0.21402,0.015041999999999998,-0.003314,-0.033141000000000004,-38.869999,11.37,-7.37,1a
2019-07-12_111302:000,-0.437225,0.029480000000000003,-0.223694,0.011257,0.000989,-0.024626,-38.869999,11.37,-7.37,1a
2019-07-12_111302:020,-0.441803,0.031494,-0.23690799999999998,0.005947,0.003186,-0.015074,-38.869999,11.37,-7.37,1a
2019-07-12_111302:040,-0.502319,0.027954000000000003,-0.250641,-9.499999999999999e-05,0.0016600000000000002,-0.00598,-40.25,9.87,-8.18,1a
2019-07-12_111302:060,-0.48043800000000003,0.025421,-0.276581,-0.006229,-0.002979,-0.000273,-40.25,9.87,-8.18,1a
2019-07-12_111302:080,-0.461639,0.023895,-0.286224,-0.010532,-0.004657,-0.00067,-40.25,9.06,-8.18,1a
2019-07-12_111302:100,-0.445374,0.027954000000000003,-0.307068,-0.015567,-0.008990999999999999,-0.0038740000000000003,-40.25,9.06,-8.18,1a
2019-07-12_111302:120,-0.725006,0.047272,-0.354858,-0.019778999999999998,-0.015888,0.001497,-40.25,9.06,-8.18,1a
2019-07-12_111302:140,-0.49722299999999997,0.044219999999999995,-0.46823100000000006,-0.027744,-0.032428,0.018463999999999998,-39.18,8.75,-7.37,1a
2019-07-12_111302:160,-0.478912,0.044739,-0.354858,-0.031039999999999998,-0.022022,0.030488,-39.18,8.75,-7.37,1a
2019-07-12_111302:180,-0.46316499999999994,0.055389,-0.41842700000000005,-0.038761000000000004,-0.024524,0.026185000000000003,-40.25,9.06,-8.18,1a
2019-07-12_111302:200,-0.33605999999999997,0.07421900000000001,-0.405212,-0.039737,-0.016773,0.019258,-40.25,9.06,-8.18,1a
2019-07-12_111302:220,-0.309601,0.080322,-0.355377,-0.03873,-0.006945999999999999,0.009706000000000001,-40.25,9.06,-8.18,1a
2019-07-12_111302:240,-0.46060200000000007,0.104706,-0.35943600000000003,-0.038669,0.000714,-0.004515,-40.25,9.06,-9.68,1a
2019-07-12_111302:260,-0.42807,0.12301600000000001,-0.361481,-0.042118,0.0062380000000000005,-0.002257,-40.25,9.06,-9.68,1a
2019-07-12_111302:280,-0.3508,0.111847,-0.308075,-0.041813,0.009411,0.018525,-38.869999,9.5,-9.75,1a
2019-07-12_111302:300,-0.378754,0.087952,-0.296387,-0.043583,0.008038,0.032991,-38.869999,9.5,-9.75,1a
2019-07-12_111302:320,-0.394012,0.069122,-0.279633,-0.044712,0.008435,0.036469999999999995,-38.869999,9.5,-9.75,1a
2019-07-12_111302:340,-0.365021,0.053375,-0.26944,-0.043338,0.007824,0.043092,-39.560001,9.06,-8.18,1a
2019-07-12_111302:360,-0.339111,0.024902,-0.25012199999999996,-0.040012,0.004315,0.049989,-39.560001,9.06,-8.18,1a
2019-07-12_111302:380,-0.32995599999999997,0.010162000000000001,-0.236389,-0.038028,0.000805,0.049408999999999995,-39.869999,9.5,-9.68,1a
2019-07-12_111302:400,-0.32843,-0.002014,-0.21554600000000002,-0.034977,-0.0015140000000000002,0.04947,-39.869999,9.5,-9.68,1a
2019-07-12_111302:420,-0.333496,-0.009125,-0.20080599999999998,-0.031039999999999998,-0.0015140000000000002,0.052064,-39.869999,9.5,-9.68,1a
2019-07-12_111302:440,-0.3508,-0.014221000000000001,-0.185059,-0.027591,-0.000598,0.050477,-40.25,11.37,-9.37,1a
2019-07-12_111302:460,-0.352844,-0.009125,-0.186066,-0.025669,-0.000598,0.045564,-40.25,11.37,-9.37,1a
2019-07-12_111302:480,-0.349274,-0.007599,-0.18096900000000002,-0.02396,-0.0020629999999999997,0.042421,-39.560001,12.87,-10.5,1a
2019-07-12_111302:500,-0.36044299999999996,-0.009644,-0.17843599999999998,-0.023014,-0.005115,0.040712,-39.560001,12.87,-10.5,1a
2019-07-12_111302:520,-0.360962,-0.013213999999999998,-0.186066,-0.022037,-0.007678,0.038331,-39.560001,12.87,-10.5,1a
2019-07-12_111302:540,-0.353333,-0.017792,-0.185059,-0.020755000000000003,-0.008716,0.034547,-39.18,13.56,-10.18,1a
2019-07-12_111302:560,-0.408752,-0.021332,-0.18454,-0.017825999999999998,-0.008716,0.029146,-39.18,13.56,-10.18,1a
2019-07-12_111302:580,-0.398071,-0.024902,-0.21249400000000002,-0.014315999999999999,-0.009265,0.025422,-38.869999,14.68,-10.87,1a
2019-07-12_111302:600,-0.48300200000000004,-0.028961,-0.21859699999999999,-0.009403,-0.009784000000000001,0.02292,-38.869999,14.68,-10.87,1a
2019-07-12_111302:620,-0.536377,-0.032532,-0.263336,-0.006504,-0.015705,0.021608000000000002,-38.869999,14.68,-10.87,1a
2019-07-12_111302:640,-0.536377,-0.035065,-0.263855,-0.002933,-0.017169,0.023530000000000002,-38.869999,15.37,-11.68,1a
2019-07-12_111302:660,-0.48349,-0.055389,-0.25116,-0.0004,-0.011066,0.024782,-38.869999,15.37,-11.68,1a
2019-07-12_111302:680,-0.710754,-0.07928500000000001,-0.316223,0.000241,-0.009052,0.02231,-38.5,16.18,-11.37,1a
2019-07-12_111302:700,-0.5419619999999999,-0.08843999999999999,-0.44027700000000003,-0.001285,-0.022724,0.027498,-38.5,16.18,-11.37,1a
2019-07-12_111302:720,-0.5058590000000001,-0.118958,-0.345215,0.005093,-0.025318,0.026246,-38.5,16.18,-11.37,1a
2019-07-12_111302:740,-0.477386,-0.121002,-0.402649,0.005215,-0.0331,0.004396,-38.060001,17.25,-12.87,1a
2019-07-12_111302:760,-0.352325,-0.103699,-0.373688,0.00848,-0.026172000000000004,-0.007659,-38.060001,17.25,-12.87,1a
2019-07-12_111302:780,-0.284698,-0.11843900000000002,-0.34875500000000004,0.011073999999999999,-0.016834000000000002,0.002107,-38.869999,17.25,-12.87,1a
2019-07-12_111302:800,-0.390961,-0.134705,-0.34063699999999997,0.011807,-0.009998,0.011964,-38.869999,17.25,-12.87,1a
2019-07-12_111302:820,-0.44384799999999996,-0.141327,-0.364014,0.011531999999999999,-0.006092,0.013704,-38.869999,17.25,-12.87,1a
2019-07-12_111302:840,-0.346222,-0.150482,-0.32843,0.013668000000000001,-0.001575,0.009035,-38.0,16.870001000000002,-11.37,1a
2019-07-12_111302:860,-0.336548,-0.151489,-0.305054,0.016842,-0.002307,-0.004149,-38.0,16.870001000000002,-11.37,1a
2019-07-12_111302:880,-0.36706500000000003,-0.137268,-0.309113,0.017117,-0.005634,-0.016661000000000002,-38.75,17.68,-12.87,1a
2019-07-12_111302:900,-0.35739099999999996,-0.13269,-0.301483,0.018093,-0.006458,-0.013548,-38.75,17.68,-12.87,1a
2019-07-12_111302:920,-0.346222,-0.131653,-0.28418000000000004,0.020047,-0.010181,-0.010222,-38.75,17.68,-12.87,1a
