timestamp,AccX,AccY,AccZ,GyroX,GyroY,GyroZ,MagX,MagY,MagZ,Activity
2019-07-12_124624:160,-0.407227,-0.031006,-0.282166,-0.007877,-0.0037719999999999997,0.005647,-26.25,24.18,-20.059998999999998,2c
2019-07-12_124624:180,-0.404694,-0.028442000000000002,-0.279633,-0.006412,-0.0037719999999999997,0.004793,-26.25,24.18,-20.059998999999998,2c
2019-07-12_124624:200,-0.404175,-0.025421,-0.278595,-0.005771,-0.003986,0.004274,-26.25,24.18,-20.059998999999998,2c
2019-07-12_124624:220,-0.40570100000000003,-0.022858,-0.279114,-0.005497,-0.004047,0.004274,-25.75,25.25,-19.75,2c
2019-07-12_124624:240,-0.406738,-0.023375999999999997,-0.277588,-0.005344,-0.00484,0.005006,-25.75,25.25,-19.75,2c
2019-07-12_124624:260,-0.409271,-0.024902,-0.279633,-0.0052829999999999995,-0.004779,0.005128,-25.059998999999998,24.5,-20.18,2c
2019-07-12_124624:280,-0.409271,-0.025908999999999998,-0.279114,-0.005039,-0.0045049999999999995,0.005189,-25.059998999999998,24.5,-20.18,2c
2019-07-12_124624:300,-0.408752,-0.024384,-0.277588,-0.004581,-0.00426,0.005006,-25.059998999999998,24.5,-20.18,2c
2019-07-12_124624:320,-0.407227,-0.022858,-0.279114,-0.004337,-0.004229999999999999,0.004732,-25.059998999999998,24.870001000000002,-19.75,2c
2019-07-12_124624:340,-0.40570100000000003,-0.021332,-0.276581,-0.004459,-0.004961999999999999,0.004732,-25.059998999999998,24.870001000000002,-19.75,2c
2019-07-12_124624:360,-0.40774499999999997,-0.021332,-0.278107,-0.004612,-0.005359,0.004854,-26.559998999999998,24.870001000000002,-19.75,2c
2019-07-12_124624:380,-0.40368699999999996,-0.020325,-0.278107,-0.005344,-0.006092,0.004945000000000001,-26.559998999999998,24.870001000000002,-19.75,2c
2019-07-12_124624:400,-0.408752,-0.019806,-0.280121,-0.005558,-0.006214,0.004793,-26.559998999999998,24.870001000000002,-19.75,2c
2019-07-12_124624:420,-0.404694,-0.019806,-0.280121,-0.006229,-0.006336,0.004945000000000001,-25.870001000000002,24.870001000000002,-20.559998999999998,2c
2019-07-12_124624:440,-0.404694,-0.021851,-0.278107,-0.0067480000000000005,-0.006731999999999999,0.004915,-25.870001000000002,24.870001000000002,-20.559998999999998,2c
2019-07-12_124624:460,-0.411285,-0.022858,-0.284698,-0.007023000000000001,-0.007220999999999999,0.004213000000000001,-25.5,24.5,-20.18,2c
2019-07-12_124624:480,-0.410797,-0.022369,-0.28418000000000004,-0.007023000000000001,-0.0070680000000000005,0.004091,-25.5,24.5,-20.18,2c
2019-07-12_124624:500,-0.40976,-0.025908999999999998,-0.285217,-0.006168,-0.006548999999999999,0.004915,-25.5,24.5,-20.18,2c
2019-07-12_124624:520,-0.411285,-0.025421,-0.283173,-0.005954,-0.006458,0.004671,-25.870001000000002,25.25,-20.559998999999998,2c
2019-07-12_124624:540,-0.407227,-0.024902,-0.282166,-0.004886,-0.005359,0.004274,-25.870001000000002,25.25,-20.559998999999998,2c
2019-07-12_124624:560,-0.406738,-0.023895,-0.283173,-0.004764,-0.0052369999999999995,0.004152,-25.870001000000002,24.18,-19.370001000000002,2c
2019-07-12_124624:580,-0.404694,-0.023375999999999997,-0.28418000000000004,-0.0042450000000000005,-0.00484,0.003358,-25.870001000000002,24.18,-19.370001000000002,2c
2019-07-12_124624:600,-0.406738,-0.019806,-0.28418000000000004,-0.004062,-0.004779,0.0029,-25.870001000000002,24.18,-19.370001000000002,2c
2019-07-12_124624:620,-0.410278,-0.019318000000000002,-0.287231,-0.0042450000000000005,-0.004596,0.003023,-25.059998999999998,24.5,-20.18,2c
2019-07-12_124624:640,-0.411285,-0.020325,-0.288269,-0.004612,-0.00426,0.003114,-25.059998999999998,24.5,-20.18,2c
2019-07-12_124624:660,-0.41485600000000006,-0.019318000000000002,-0.28979499999999997,-0.004947,-0.003436,0.003023,-25.5,25.370001000000002,-18.870001000000002,2c
2019-07-12_124624:680,-0.40976,-0.020325,-0.290802,-0.005344,-0.00185,0.003023,-25.5,25.370001000000002,-18.870001000000002,2c
2019-07-12_124624:700,-0.40570100000000003,-0.024384,-0.28418000000000004,-0.005222,-0.00047599999999999997,0.003053,-25.5,25.370001000000002,-18.870001000000002,2c
2019-07-12_124624:720,-0.405212,-0.021332,-0.286224,-0.004978,-0.00014099999999999998,0.0027170000000000002,-26.25,24.5,-20.559998999999998,2c
2019-07-12_124624:740,-0.40368699999999996,-0.021332,-0.281647,-0.004703,1.2e-05,0.002565,-26.25,24.5,-20.559998999999998,2c
2019-07-12_124624:760,-0.40368699999999996,-0.021332,-0.280121,-0.004062,0.000195,0.003358,-26.25,24.5,-20.559998999999998,2c
2019-07-12_124624:780,-0.405212,-0.020325,-0.277069,-0.003879,-0.00041500000000000006,0.0038159999999999995,-25.870001000000002,24.18,-20.559998999999998,2c
2019-07-12_124624:800,-0.40823400000000004,-0.020325,-0.278595,-0.003788,-0.001392,0.0038469999999999997,-25.870001000000002,24.18,-20.559998999999998,2c
2019-07-12_124624:820,-0.411285,-0.020325,-0.275543,-0.003544,-0.001789,0.0039689999999999994,-25.870001000000002,24.25,-20.18,2c
2019-07-12_124624:840,-0.40976,-0.019806,-0.27301,-0.00394,-0.002246,0.0037549999999999997,-25.870001000000002,24.25,-20.18,2c
2019-07-12_124624:860,-0.41333000000000003,-0.01828,-0.273529,-0.004275999999999999,-0.002643,0.003358,-25.870001000000002,24.25,-20.18,2c
2019-07-12_124624:880,-0.417908,-0.01828,-0.27301,-0.004612,-0.002918,0.003175,-25.870001000000002,24.559998999999998,-19.75,2c
2019-07-12_124624:900,-0.41995200000000005,-0.017273,-0.272491,-0.004886,-0.002857,0.002778,-25.870001000000002,24.559998999999998,-19.75,2c
2019-07-12_124624:920,-0.41943400000000003,-0.017273,-0.270966,-0.005497,-0.002307,0.002778,-26.559998999999998,24.559998999999998,-20.18,2c
2019-07-12_124624:940,-0.41842700000000005,-0.017792,-0.268433,-0.005619,-0.001941,0.003023,-26.559998999999998,24.559998999999998,-20.18,2c
2019-07-12_124624:960,-0.412811,-0.019318000000000002,-0.268951,-0.005954,-0.001575,0.0038469999999999997,-26.559998999999998,24.559998999999998,-20.18,2c
2019-07-12_124624:980,-0.41485600000000006,-0.021851,-0.268951,-0.005832,-0.0017280000000000002,0.0038469999999999997,-25.75,25.0,-19.370001000000002,2c
2019-07-12_124625:000,-0.41384899999999997,-0.024384,-0.269958,-0.0052829999999999995,-0.001789,0.003511,-25.75,25.0,-19.370001000000002,2c
2019-07-12_124625:020,-0.412811,-0.026917,-0.270477,-0.004459,-0.001575,0.002687,-26.25,24.559998999999998,-20.559998999999998,2c
2019-07-12_124625:040,-0.40976,-0.029480000000000003,-0.269958,-0.003849,-0.001056,0.0017100000000000001,-26.25,24.559998999999998,-20.559998999999998,2c
2019-07-12_124625:060,-0.410278,-0.030487,-0.276062,-0.003208,-0.00047599999999999997,0.002443,-26.25,24.559998999999998,-20.559998999999998,2c
2019-07-12_124625:080,-0.41333000000000003,-0.031006,-0.278595,-0.003208,-0.000263,0.0038469999999999997,-25.370001000000002,24.25,-18.559998999999998,2c
2019-07-12_124625:100,-0.42248500000000005,-0.035583,-0.285217,-0.0036659999999999996,-0.00041500000000000006,0.0029620000000000002,-25.370001000000002,24.25,-18.559998999999998,2c
2019-07-12_124625:120,-0.429596,-0.038116000000000004,-0.286224,-0.004062,0.00040899999999999997,0.0007030000000000001,-26.559998999999998,24.5,-19.75,2c
2019-07-12_124625:140,-0.431641,-0.040649,-0.286224,-0.004062,0.001843,-0.001952,-26.559998999999998,24.5,-19.75,2c
2019-07-12_124625:160,-0.43774399999999997,-0.039642000000000004,-0.282654,-0.003879,0.0036439999999999997,-0.0034170000000000003,-26.559998999999998,24.5,-19.75,2c
2019-07-12_124625:180,-0.443329,-0.039642000000000004,-0.278595,-0.0036659999999999996,0.0057799999999999995,-0.0034170000000000003,-27.0,24.18,-19.370001000000002,2c
2019-07-12_124625:200,-0.44232200000000005,-0.041687,-0.272003,-0.00214,0.007763,-0.002806,-27.0,24.18,-19.370001000000002,2c
2019-07-12_124625:220,-0.417908,-0.034546,-0.263336,-0.00046100000000000004,0.009015,-0.004546,-27.25,25.0,-19.370001000000002,2c
2019-07-12_124625:240,-0.404694,-0.024384,-0.2547,0.000515,0.009167,-0.00659,-27.25,25.0,-19.370001000000002,2c
2019-07-12_124625:260,-0.391968,-0.007599,-0.24353000000000002,-6.500000000000001e-05,0.008556999999999999,-0.0060409999999999995,-27.25,25.0,-19.370001000000002,2c
2019-07-12_124625:280,-0.401123,0.006592,-0.240479,-0.002536,0.0071530000000000005,-0.004332,-27.25,24.0,-19.370001000000002,2c
2019-07-12_124625:300,-0.42758199999999996,0.009644,-0.23590100000000003,-0.006626000000000001,0.007367,-0.003722,-27.25,24.0,-19.370001000000002,2c
2019-07-12_124625:320,-0.432648,0.006072999999999999,-0.231323,-0.0098,0.007428,-0.005461,-28.0,24.18,-18.559998999999998,2c
2019-07-12_124625:340,-0.44281000000000004,0.010162000000000001,-0.231323,-0.011142,0.006573000000000001,-0.006194,-28.0,24.18,-18.559998999999998,2c
2019-07-12_124625:360,-0.440796,0.013702,-0.23233,-0.012454999999999999,0.005841,-0.006774,-28.0,24.18,-18.559998999999998,2c
2019-07-12_124625:380,-0.431641,0.027954000000000003,-0.23791500000000002,-0.014988,0.003125,-0.006712999999999999,-28.370001000000002,23.5,-18.18,2c
2019-07-12_124625:400,-0.43774399999999997,0.031494,-0.23995999999999998,-0.018558,1.2e-05,-0.003478,-28.370001000000002,23.5,-18.18,2c
2019-07-12_124625:420,-0.43774399999999997,0.025908999999999998,-0.239441,-0.021824,-0.0009339999999999999,-0.000365,-28.75,22.5,-17.370001000000002,2c
2019-07-12_124625:440,-0.434692,0.022369,-0.23690799999999998,-0.024997,-0.00038500000000000003,3.2e-05,-28.75,22.5,-17.370001000000002,2c
2019-07-12_124625:460,-0.434692,0.014221000000000001,-0.233337,-0.027012,0.0016600000000000002,0.001314,-28.75,22.5,-17.370001000000002,2c
2019-07-12_124625:480,-0.43011499999999997,0.0055850000000000006,-0.23028600000000002,-0.026981,0.003979,0.003023,-30.0,22.5,-17.75,2c
2019-07-12_124625:500,-0.43011499999999997,-0.002014,-0.223175,-0.025272,0.005566,0.002565,-30.0,22.5,-17.75,2c
2019-07-12_124625:520,-0.429596,-0.005065999999999999,-0.22116100000000002,-0.022831,0.0057799999999999995,0.0025039999999999997,-30.0,22.75,-18.18,2c
2019-07-12_124625:540,-0.433655,-0.006072999999999999,-0.220642,-0.019747999999999998,0.003857,0.004213000000000001,-30.0,22.75,-18.18,2c
2019-07-12_124625:560,-0.44232200000000005,-0.007111,-0.220123,-0.016178,0.002575,0.005739,-30.0,22.75,-18.18,2c
2019-07-12_124625:580,-0.447906,-0.008118,-0.210968,-0.011722,0.0033079999999999997,0.004915,-30.0,22.5,-18.870001000000002,2c
2019-07-12_124625:600,-0.44232200000000005,0.0,-0.212006,-0.0069,0.003064,0.002443,-30.0,22.5,-18.870001000000002,2c
2019-07-12_124625:620,-0.43823199999999995,0.007111,-0.21402,-0.002536,0.001385,0.0016489999999999999,-30.25,21.68,-18.870001000000002,2c
2019-07-12_124625:640,-0.426544,0.016266,-0.210968,0.000302,-0.0009339999999999999,0.00229,-30.25,21.68,-18.870001000000002,2c
2019-07-12_124625:660,-0.431122,0.023375999999999997,-0.207916,0.003781,-0.0014529999999999999,0.001375,-30.25,21.68,-18.870001000000002,2c
2019-07-12_124625:680,-0.429596,0.037108999999999996,-0.204376,0.00491,-0.001605,-0.0031420000000000003,-30.25,22.059998999999998,-18.18,2c
2019-07-12_124625:700,-0.42807,0.046265,-0.20385699999999998,0.004635,-0.00307,-0.005278,-30.25,22.059998999999998,-18.18,2c
2019-07-12_124625:720,-0.43011499999999997,0.048798,-0.212006,0.0032920000000000002,-0.006092,-0.003478,-30.25,22.75,-19.75,2c
2019-07-12_124625:740,-0.43670699999999996,0.047791,-0.21453899999999998,0.001065,-0.008533,-0.0016769999999999999,-30.25,22.75,-19.75,2c
2019-07-12_124625:760,-0.429108,0.045226999999999996,-0.217072,-0.000797,-0.010851999999999999,-0.000762,-30.25,22.75,-19.75,2c
2019-07-12_124625:780,-0.43011499999999997,0.041687,-0.223694,-0.0018039999999999998,-0.012775,0.000306,-31.370001000000002,21.68,-17.0,2c
2019-07-12_124625:800,-0.42858900000000005,0.037598,-0.231812,-0.0027199999999999998,-0.015247,0.00229,-31.370001000000002,21.68,-17.0,2c
2019-07-12_124625:820,-0.43518100000000004,0.034058,-0.23791500000000002,-0.0032689999999999998,-0.016956,0.005006,-30.25,21.370001000000002,-18.870001000000002,2c
2019-07-12_124625:840,-0.44433599999999995,0.025421,-0.242004,-0.003055,-0.017414,0.0076,-30.25,21.370001000000002,-18.870001000000002,2c
2019-07-12_124625:860,-0.45043900000000003,0.019806,-0.24353000000000002,-0.002811,-0.016222999999999998,0.009309,-30.25,21.370001000000002,-18.870001000000002,2c
2019-07-12_124625:880,-0.44995100000000005,0.015228,-0.244019,-0.002018,-0.013843000000000001,0.010652,-30.68,21.370001000000002,-17.75,2c
2019-07-12_124625:900,-0.448425,0.013213999999999998,-0.24453699999999998,-0.0011330000000000001,-0.011524,0.011903,-30.68,21.370001000000002,-17.75,2c
2019-07-12_124625:920,-0.445374,0.012177,-0.245056,-0.000736,-0.009601,0.012086,-29.870001000000002,21.370001000000002,-18.559998999999998,2c
2019-07-12_124625:940,-0.437225,0.011687999999999999,-0.242493,-0.000675,-0.008319,0.012025,-29.870001000000002,21.370001000000002,-18.559998999999998,2c
2019-07-12_124625:960,-0.43774399999999997,0.014740000000000001,-0.244019,-0.0008269999999999999,-0.007801000000000001,0.011231999999999999,-29.870001000000002,21.370001000000002,-18.559998999999998,2c
2019-07-12_124625:980,-0.43823199999999995,0.016266,-0.24453699999999998,-0.0019260000000000002,-0.007923000000000001,0.009492,-29.5,22.18,-17.370001000000002,2c
2019-07-12_124626:000,-0.434692,0.020844,-0.24758899999999998,-0.0033299999999999996,-0.008411,0.007965999999999999,-29.5,22.18,-17.370001000000002,2c
2019-07-12_124626:020,-0.43823199999999995,0.021851,-0.248108,-0.005497,-0.008655,0.006379,-29.18,22.18,-17.75,2c
2019-07-12_124626:040,-0.44384799999999996,0.019806,-0.24758899999999998,-0.007877,-0.008533,0.004854,-29.18,22.18,-17.75,2c
2019-07-12_124626:060,-0.443329,0.017273,-0.244019,-0.010288,-0.00719,0.005464,-29.18,22.18,-17.75,2c
2019-07-12_124626:080,-0.444855,0.006592,-0.241486,-0.011203,-0.006397,0.006837,-29.5,22.18,-18.559998999999998,2c
2019-07-12_124626:100,-0.440796,-0.000488,-0.23995999999999998,-0.01099,-0.00484,0.006074,-29.5,22.18,-18.559998999999998,2c
2019-07-12_124626:120,-0.42858900000000005,-0.0030210000000000002,-0.23590100000000003,-0.009281000000000001,-0.004229999999999999,0.004457,-28.370001000000002,23.25,-18.18,2c
2019-07-12_124626:140,-0.431122,-0.005065999999999999,-0.231323,-0.0067480000000000005,-0.004169,0.0038469999999999997,-28.370001000000002,23.25,-18.18,2c
2019-07-12_124626:160,-0.42401099999999997,-0.009125,-0.22879000000000002,-0.00394,-0.0045049999999999995,0.003053,-28.370001000000002,23.25,-18.18,2c
2019-07-12_124626:180,-0.42453,-0.011169,-0.22979699999999997,-0.000797,-0.006275,0.001436,-29.18,22.559998999999998,-20.18,2c
2019-07-12_124626:200,-0.427063,-0.010162000000000001,-0.23590100000000003,0.003109,-0.008808,-0.00128,-29.18,22.559998999999998,-20.18,2c
2019-07-12_124626:220,-0.42758199999999996,-0.0030210000000000002,-0.23690799999999998,0.0061,-0.011401999999999999,-0.004058,-28.370001000000002,22.559998999999998,-17.75,2c
2019-07-12_124626:240,-0.431122,0.007111,-0.23995999999999998,0.00787,-0.012988,-0.005248,-28.370001000000002,22.559998999999998,-17.75,2c
2019-07-12_124626:260,-0.43518100000000004,0.016266,-0.242004,0.008662999999999999,-0.01369,-0.004943,-28.370001000000002,22.559998999999998,-17.75,2c
2019-07-12_124626:280,-0.437225,0.025908999999999998,-0.24706999999999998,0.0077480000000000005,-0.012988,-0.004393,-29.5,22.18,-18.18,2c
2019-07-12_124626:300,-0.44027700000000003,0.031006,-0.248596,0.005947,-0.011859,-0.003935,-29.5,22.18,-18.18,2c
2019-07-12_124626:320,-0.434174,0.03302,-0.248596,0.0032920000000000002,-0.010639000000000001,-0.002593,-29.5,22.18,-18.18,2c
2019-07-12_124626:340,-0.432159,0.032532,-0.245544,0.000454,-0.009845,-0.000273,-29.5,22.18,-18.18,2c
2019-07-12_124626:360,-0.435699,0.028961,-0.246063,-0.002262,-0.009448,0.001832,-29.5,22.18,-18.18,2c
2019-07-12_124626:380,-0.434692,0.023375999999999997,-0.24758899999999998,-0.004184,-0.008716,0.002778,-28.75,21.75,-17.75,2c
2019-07-12_124626:400,-0.43518100000000004,0.017792,-0.249115,-0.005619,-0.008136,0.003175,-28.75,21.75,-17.75,2c
2019-07-12_124626:420,-0.42758199999999996,0.016266,-0.250641,-0.006229,-0.008014,0.003511,-29.18,22.559998999999998,-19.370001000000002,2c
2019-07-12_124626:440,-0.432648,0.012695,-0.250641,-0.006229,-0.007984,0.003053,-29.18,22.559998999999998,-19.370001000000002,2c
2019-07-12_124626:460,-0.43518100000000004,0.014740000000000001,-0.25216700000000003,-0.005771,-0.007343000000000001,0.002321,-29.18,22.559998999999998,-19.370001000000002,2c
2019-07-12_124626:480,-0.437225,0.014221000000000001,-0.24963400000000002,-0.005344,-0.006488,0.002778,-28.75,22.559998999999998,-18.18,2c
2019-07-12_124626:500,-0.434692,0.013213999999999998,-0.248596,-0.005161,-0.0060609999999999995,0.004518,-28.75,22.559998999999998,-18.18,2c
2019-07-12_124626:520,-0.42453,0.012177,-0.245056,-0.004703,-0.006,0.005922,-29.5,21.75,-18.18,2c
2019-07-12_124626:540,-0.425537,0.010651,-0.245056,-0.004275999999999999,-0.006458,0.006868000000000001,-29.5,21.75,-18.18,2c
2019-07-12_124626:560,-0.423492,0.010651,-0.24453699999999998,-0.003849,-0.006488,0.006074,-29.5,21.75,-18.18,2c
2019-07-12_124626:580,-0.425018,0.013213999999999998,-0.24658200000000002,-0.0036049999999999997,-0.007526000000000001,0.005189,-28.75,23.25,-18.18,2c
2019-07-12_124626:600,-0.429108,0.014221000000000001,-0.250641,-0.0033909999999999995,-0.008594,0.005128,-28.75,23.25,-18.18,2c
2019-07-12_124626:620,-0.429596,0.015228,-0.252686,-0.003879,-0.009052,0.004548,-29.5,22.18,-19.370001000000002,2c
2019-07-12_124626:640,-0.430634,0.017792,-0.25216700000000003,-0.004520000000000001,-0.008808,0.003358,-29.5,22.18,-19.370001000000002,2c
2019-07-12_124626:660,-0.430634,0.019318000000000002,-0.25116,-0.004978,-0.007343000000000001,0.003175,-29.5,22.18,-19.370001000000002,2c
2019-07-12_124626:680,-0.432159,0.016266,-0.249115,-0.005619,-0.006,0.004396,-28.75,23.25,-19.370001000000002,2c
2019-07-12_124626:700,-0.427063,0.010651,-0.248108,-0.005832,-0.004961999999999999,0.005739,-28.75,23.25,-19.370001000000002,2c
2019-07-12_124626:720,-0.423004,0.006072999999999999,-0.24658200000000002,-0.005436,-0.0052369999999999995,0.006196,-29.18,22.559998999999998,-19.0,2c
2019-07-12_124626:740,-0.420441,0.004547,-0.245544,-0.00394,-0.005725,0.005403,-29.18,22.559998999999998,-19.0,2c
2019-07-12_124626:760,-0.423492,0.0055850000000000006,-0.25012199999999996,-0.0027199999999999998,-0.00719,0.004182,-29.18,22.559998999999998,-19.0,2c
2019-07-12_124626:780,-0.43011499999999997,0.010162000000000001,-0.253693,-0.001743,-0.008655,0.003572,-29.5,22.18,-18.559998999999998,2c
2019-07-12_124626:800,-0.43518100000000004,0.016753999999999998,-0.257233,-0.00159,-0.009143,0.003358,-29.5,22.18,-18.559998999999998,2c
2019-07-12_124626:820,-0.43670699999999996,0.023895,-0.259277,-0.002536,-0.009448,0.002687,-28.75,22.18,-18.870001000000002,2c
2019-07-12_124626:840,-0.43011499999999997,0.024902,-0.258759,-0.004275999999999999,-0.009052,0.00229,-28.75,22.18,-18.870001000000002,2c
2019-07-12_124626:860,-0.431641,0.026917,-0.257233,-0.005741,-0.007862000000000001,0.0029,-28.75,22.18,-18.870001000000002,2c
2019-07-12_124626:880,-0.42401099999999997,0.021851,-0.253693,-0.007816,-0.006092,0.005067,-29.5,22.18,-19.75,2c
2019-07-12_124626:900,-0.41943400000000003,0.014740000000000001,-0.25216700000000003,-0.008609,-0.00484,0.00757,-29.5,22.18,-19.75,2c
2019-07-12_124626:920,-0.414337,0.005065999999999999,-0.248108,-0.008548,-0.0045049999999999995,0.008241,-29.18,21.75,-18.870001000000002,2c
2019-07-12_124626:940,-0.415375,0.000488,-0.246063,-0.007358,-0.004718,0.007051000000000001,-29.18,21.75,-18.870001000000002,2c
2019-07-12_124626:960,-0.41842700000000005,0.001495,-0.25216700000000003,-0.005619,-0.006,0.006379,-29.18,21.75,-18.870001000000002,2c
2019-07-12_124626:980,-0.417908,0.000488,-0.25521900000000003,-0.003788,-0.008075,0.0058,-28.75,21.370001000000002,-18.559998999999998,2c
2019-07-12_124627:000,-0.434692,0.008118,-0.262848,-0.002262,-0.01012,0.00403,-28.75,21.370001000000002,-18.559998999999998,2c
2019-07-12_124627:020,-0.435699,0.015228,-0.266388,-0.001865,-0.010517,0.0029,-29.18,22.559998999999998,-20.18,2c
2019-07-12_124627:040,-0.437225,0.023375999999999997,-0.262329,-0.002475,-0.009143,0.002839,-29.18,22.559998999999998,-20.18,2c
2019-07-12_124627:060,-0.43011499999999997,0.027435,-0.261322,-0.004275999999999999,-0.006731999999999999,0.003297,-29.18,22.559998999999998,-20.18,2c
2019-07-12_124627:080,-0.420441,0.026427999999999997,-0.256744,-0.006412,-0.004657,0.004671,-29.18,21.75,-18.18,2c
2019-07-12_124627:100,-0.41842700000000005,0.015747,-0.256744,-0.007937999999999999,-0.004444,0.005861,-29.18,21.75,-18.18,2c
2019-07-12_124627:120,-0.41586300000000004,0.008118,-0.253693,-0.008732,-0.004383,0.004945000000000001,-29.18,22.18,-19.370001000000002,2c
2019-07-12_124627:140,-0.417389,0.006072999999999999,-0.256226,-0.007999,-0.005176,0.0039689999999999994,-29.18,22.18,-19.370001000000002,2c
2019-07-12_124627:160,-0.42147799999999996,0.004547,-0.259277,-0.006412,-0.0066099999999999996,0.004671,-29.18,22.18,-19.370001000000002,2c
2019-07-12_124627:180,-0.432159,0.007599,-0.264862,-0.004825,-0.008014,0.005678,-28.75,21.75,-19.370001000000002,2c
2019-07-12_124627:200,-0.44027700000000003,0.012177,-0.267426,-0.004184,-0.008472,0.005922,-28.75,21.75,-19.370001000000002,2c
2019-07-12_124627:220,-0.433167,0.020844,-0.26944,-0.004642,-0.007801000000000001,0.005525,-29.18,22.870001000000002,-19.370001000000002,2c
2019-07-12_124627:240,-0.43621800000000005,0.018799,-0.264862,-0.0060149999999999995,-0.006092,0.004457,-29.18,22.870001000000002,-19.370001000000002,2c
2019-07-12_124627:260,-0.431122,0.015747,-0.260284,-0.007937999999999999,-0.003314,0.004457,-29.18,22.870001000000002,-19.370001000000002,2c
2019-07-12_124627:280,-0.42147799999999996,0.010162000000000001,-0.252686,-0.009159,-0.00038500000000000003,0.005983,-27.68,22.559998999999998,-19.370001000000002,2c
2019-07-12_124627:300,-0.409271,0.0025329999999999997,-0.25012199999999996,-0.008487,0.0007440000000000001,0.0058,-27.68,22.559998999999998,-19.370001000000002,2c
2019-07-12_124627:320,-0.406219,0.007599,-0.249115,-0.006962,-4.9e-05,0.0038469999999999997,-28.370001000000002,21.75,-19.370001000000002,2c
2019-07-12_124627:340,-0.41586300000000004,0.008118,-0.250641,-0.005832,-0.0031309999999999997,0.003175,-28.370001000000002,21.75,-19.370001000000002,2c
2019-07-12_124627:360,-0.429108,0.008636,-0.253693,-0.004123,-0.005725,0.004213000000000001,-28.370001000000002,21.75,-19.370001000000002,2c
2019-07-12_124627:380,-0.441803,0.012177,-0.255707,-0.0036659999999999996,-0.006885,0.005403,-28.75,22.870001000000002,-19.75,2c
2019-07-12_124627:400,-0.441803,0.014740000000000001,-0.255707,-0.0033909999999999995,-0.006214,0.006196,-28.75,22.870001000000002,-19.75,2c
2019-07-12_124627:420,-0.431641,0.019318000000000002,-0.255707,-0.004184,-0.00539,0.005464,-28.75,22.18,-20.18,2c
2019-07-12_124627:440,-0.42858900000000005,0.020844,-0.24963400000000002,-0.005436,-0.004229999999999999,0.004274,-28.75,22.18,-20.18,2c
2019-07-12_124627:460,-0.423492,0.014740000000000001,-0.246063,-0.007206000000000001,-0.002918,0.005128,-28.75,22.18,-20.18,2c
2019-07-12_124627:480,-0.423004,0.007599,-0.241486,-0.008152,-0.002124,0.0071730000000000006,-28.370001000000002,22.559998999999998,-18.559998999999998,2c
2019-07-12_124627:500,-0.41384899999999997,0.0,-0.239441,-0.007755,-0.002002,0.006837,-28.370001000000002,22.559998999999998,-18.559998999999998,2c
2019-07-12_124627:520,-0.412811,0.000488,-0.238434,-0.0060149999999999995,-0.0035280000000000003,0.005311,-28.75,22.559998999999998,-18.559998999999998,2c
2019-07-12_124627:540,-0.41586300000000004,0.0025329999999999997,-0.241486,-0.004123,-0.006397,0.004182,-28.75,22.559998999999998,-18.559998999999998,2c
2019-07-12_124627:560,-0.42605600000000005,0.006072999999999999,-0.24658200000000002,-0.002079,-0.009052,0.003511,-28.75,22.559998999999998,-18.559998999999998,2c
2019-07-12_124627:580,-0.43011499999999997,0.016266,-0.250641,-0.00095,-0.010791,0.002229,-28.370001000000002,22.559998999999998,-18.559998999999998,2c
2019-07-12_124627:600,-0.429596,0.026917,-0.255707,-0.0011330000000000001,-0.012256,0.001192,-28.370001000000002,22.559998999999998,-18.559998999999998,2c
2019-07-12_124627:620,-0.41995200000000005,0.031006,-0.256744,-0.002597,-0.01305,0.0017100000000000001,-28.75,22.870001000000002,-20.18,2c
2019-07-12_124627:640,-0.420959,0.031494,-0.25521900000000003,-0.004703,-0.013172,0.003114,-28.75,22.870001000000002,-20.18,2c
2019-07-12_124627:660,-0.41333000000000003,0.024384,-0.25521900000000003,-0.0069,-0.012714,0.005586,-28.75,22.870001000000002,-20.18,2c
2019-07-12_124627:680,-0.41333000000000003,0.019318000000000002,-0.25317399999999995,-0.008213,-0.012592,0.007783,-28.75,22.559998999999998,-19.0,2c
2019-07-12_124627:700,-0.414337,0.010162000000000001,-0.2547,-0.009159,-0.013111000000000001,0.008577,-28.75,22.559998999999998,-19.0,2c
2019-07-12_124627:720,-0.41384899999999997,0.0055850000000000006,-0.257233,-0.00922,-0.013904,0.008058,-28.0,22.18,-20.18,2c
2019-07-12_124627:740,-0.425537,0.002014,-0.265381,-0.008334999999999999,-0.014636000000000001,0.007203,-28.0,22.18,-20.18,2c
2019-07-12_124627:760,-0.423492,0.001495,-0.269958,-0.0067480000000000005,-0.014911,0.006593000000000001,-28.0,22.18,-20.18,2c
2019-07-12_124627:780,-0.433167,0.004059,-0.278595,-0.005344,-0.015033000000000001,0.005342,-28.370001000000002,22.18,-19.75,2c
2019-07-12_124627:800,-0.432159,0.011169,-0.283173,-0.004398,-0.014636000000000001,0.003572,-28.370001000000002,22.18,-19.75,2c
2019-07-12_124627:820,-0.425537,0.014740000000000001,-0.283173,-0.004459,-0.012714,0.002443,-28.0,22.559998999999998,-21.370001000000002,2c
2019-07-12_124627:840,-0.426544,0.016753999999999998,-0.282654,-0.004825,-0.010242,0.0029620000000000002,-28.0,22.559998999999998,-21.370001000000002,2c
2019-07-12_124627:860,-0.417908,0.015228,-0.277588,-0.005436,-0.007129000000000001,0.004274,-28.0,22.559998999999998,-21.370001000000002,2c
2019-07-12_124627:880,-0.411804,0.012177,-0.272491,-0.005436,-0.004718,0.005311,-27.68,22.559998999999998,-20.870001000000002,2c
2019-07-12_124627:900,-0.405212,0.008118,-0.267914,-0.005222,-0.004383,0.005006,-27.68,22.559998999999998,-20.870001000000002,2c
2019-07-12_124627:920,-0.404175,0.009644,-0.268951,-0.004275999999999999,-0.00539,0.004915,-26.870001000000002,22.559998999999998,-19.75,2c
2019-07-12_124627:940,-0.405212,0.013702,-0.272003,-0.003116,-0.007678,0.005647,-26.870001000000002,22.559998999999998,-19.75,2c
2019-07-12_124627:960,-0.417389,0.015747,-0.277588,-0.002994,-0.010272,0.006776000000000001,-26.870001000000002,22.559998999999998,-19.75,2c
2019-07-12_124627:980,-0.426544,0.016753999999999998,-0.279633,-0.00394,-0.011798000000000001,0.0076,-27.68,23.25,-20.870001000000002,2c
2019-07-12_124628:000,-0.42758199999999996,0.014221000000000001,-0.276062,-0.005954,-0.010851999999999999,0.008119,-27.68,23.25,-20.870001000000002,2c
2019-07-12_124628:020,-0.42453,0.011169,-0.273529,-0.007297,-0.008594,0.008790000000000001,-27.68,22.18,-20.559998999999998,2c
2019-07-12_124628:040,-0.41943400000000003,0.004547,-0.266907,-0.008487,-0.005451,0.008851000000000001,-27.68,22.18,-20.559998999999998,2c
2019-07-12_124628:060,-0.410797,-0.000488,-0.268433,-0.008274,-0.003925,0.007203,-27.68,22.18,-20.559998999999998,2c
2019-07-12_124628:080,-0.404694,-0.001007,-0.267914,-0.007633,-0.004229999999999999,0.005525,-26.5,22.870001000000002,-20.18,2c
2019-07-12_124628:100,-0.407227,-0.0030210000000000002,-0.268951,-0.00629,-0.005817,0.005647,-26.5,22.870001000000002,-20.18,2c
2019-07-12_124628:120,-0.41384899999999997,-0.0030210000000000002,-0.270966,-0.0042450000000000005,-0.006885,0.0058,-27.68,22.870001000000002,-21.75,2c
2019-07-12_124628:140,-0.42248500000000005,0.0035399999999999997,-0.273529,-0.003879,-0.007404000000000001,0.005311,-27.68,22.870001000000002,-21.75,2c
2019-07-12_124628:160,-0.42807,0.004547,-0.275055,-0.0033909999999999995,-0.0070680000000000005,0.004854,-27.68,22.870001000000002,-21.75,2c
2019-07-12_124628:180,-0.41995200000000005,0.011169,-0.274017,-0.004275999999999999,-0.006458,0.0037549999999999997,-26.5,22.559998999999998,-20.18,2c
2019-07-12_124628:200,-0.412811,0.013702,-0.273529,-0.005679999999999999,-0.005939,0.003023,-26.5,22.559998999999998,-20.18,2c
2019-07-12_124628:220,-0.408752,0.012695,-0.270966,-0.007206000000000001,-0.004596,0.0039689999999999994,-27.25,22.559998999999998,-22.18,2c
2019-07-12_124628:240,-0.407227,0.008118,-0.267914,-0.007937999999999999,-0.003925,0.005342,-27.25,22.559998999999998,-22.18,2c
2019-07-12_124628:260,-0.404694,-0.000488,-0.267914,-0.007541,-0.003986,0.005189,-27.25,22.559998999999998,-22.18,2c
2019-07-12_124628:280,-0.404175,-0.001007,-0.268433,-0.00629,-0.005359,0.004732,-27.25,23.25,-20.559998999999998,2c
2019-07-12_124628:300,-0.40774499999999997,-0.002014,-0.274017,-0.004642,-0.007006999999999999,0.005128,-27.25,23.25,-20.559998999999998,2c
2019-07-12_124628:320,-0.410797,-0.001495,-0.276581,-0.0033909999999999995,-0.008747,0.004671,-26.5,23.25,-20.870001000000002,2c
2019-07-12_124628:340,-0.42401099999999997,0.0025329999999999997,-0.28064,-0.002811,-0.009204,0.0034189999999999997,-26.5,23.25,-20.870001000000002,2c
2019-07-12_124628:360,-0.429108,0.008118,-0.283173,-0.0027199999999999998,-0.008747,0.002443,-26.5,23.25,-20.870001000000002,2c
2019-07-12_124628:380,-0.423492,0.013702,-0.28418000000000004,-0.003483,-0.006854000000000001,0.0011,-27.25,22.18,-20.18,2c
2019-07-12_124628:400,-0.421967,0.01828,-0.28064,-0.004764,-0.004779,0.000795,-27.25,22.18,-20.18,2c
2019-07-12_124628:420,-0.41485600000000006,0.018799,-0.277588,-0.006168,-0.002704,0.002687,-27.25,22.559998999999998,-20.870001000000002,2c
2019-07-12_124628:440,-0.408752,0.014221000000000001,-0.273529,-0.0069,-0.001575,0.004609,-27.25,22.559998999999998,-20.870001000000002,2c
2019-07-12_124628:460,-0.409271,0.006072999999999999,-0.26944,-0.0069,-0.001056,0.004945000000000001,-27.25,22.559998999999998,-20.870001000000002,2c
2019-07-12_124628:480,-0.404175,0.0035399999999999997,-0.267914,-0.0060149999999999995,-0.001911,0.004793,-27.25,22.870001000000002,-20.870001000000002,2c
2019-07-12_124628:500,-0.408752,0.002014,-0.270477,-0.004947,-0.00307,0.005189,-27.25,22.870001000000002,-20.870001000000002,2c
2019-07-12_124628:520,-0.41384899999999997,0.004547,-0.27301,-0.003879,-0.004566,0.004732,-27.25,22.870001000000002,-20.559998999999998,2c
2019-07-12_124628:540,-0.415375,0.007111,-0.274017,-0.003483,-0.005756,0.003572,-27.25,22.870001000000002,-20.559998999999998,2c
2019-07-12_124628:560,-0.42401099999999997,0.013702,-0.278107,-0.003849,-0.006458,0.0026260000000000003,-27.25,22.870001000000002,-20.559998999999998,2c
2019-07-12_124628:580,-0.41842700000000005,0.019318000000000002,-0.278595,-0.004520000000000001,-0.005756,0.002168,-28.0,22.559998999999998,-20.559998999999998,2c
2019-07-12_124628:600,-0.41943400000000003,0.020844,-0.274017,-0.006076,-0.004779,0.002168,-28.0,22.559998999999998,-20.559998999999998,2c
2019-07-12_124628:620,-0.417389,0.019318000000000002,-0.274017,-0.007206000000000001,-0.0031309999999999997,0.0038159999999999995,-27.68,22.18,-19.75,2c
2019-07-12_124628:640,-0.412811,0.010162000000000001,-0.26944,-0.007601999999999999,-0.001789,0.006379,-27.68,22.18,-19.75,2c
2019-07-12_124628:660,-0.408752,0.005065999999999999,-0.265381,-0.007084,-0.001605,0.007722,-27.68,22.18,-19.75,2c
2019-07-12_124628:680,-0.410278,0.004547,-0.267426,-0.006351,-0.001941,0.007112,-27.25,23.25,-21.0,2c
2019-07-12_124628:700,-0.410797,0.006592,-0.267914,-0.005771,-0.003314,0.0067150000000000005,-27.25,23.25,-21.0,2c
2019-07-12_124628:720,-0.416901,0.007111,-0.271484,-0.005679999999999999,-0.005054,0.006135,-27.68,23.25,-21.370001000000002,2c
2019-07-12_124628:740,-0.420959,0.009644,-0.270966,-0.005619,-0.006,0.005067,-27.68,23.25,-21.370001000000002,2c
2019-07-12_124628:760,-0.417908,0.012177,-0.272003,-0.005679999999999999,-0.006,0.0034189999999999997,-27.68,23.25,-21.370001000000002,2c
2019-07-12_124628:780,-0.41995200000000005,0.015228,-0.272491,-0.006076,-0.005115,0.002321,-26.18,22.870001000000002,-19.0,2c
2019-07-12_124628:800,-0.418915,0.017792,-0.26944,-0.0067480000000000005,-0.003925,0.003633,-26.18,22.870001000000002,-19.0,2c
2019-07-12_124628:820,-0.418915,0.013213999999999998,-0.267426,-0.007358,-0.003467,0.006074,-27.68,23.68,-21.370001000000002,2c
2019-07-12_124628:840,-0.412811,0.0035399999999999997,-0.266388,-0.007084,-0.003375,0.007051000000000001,-27.68,23.68,-21.370001000000002,2c
2019-07-12_124628:860,-0.414337,0.0025329999999999997,-0.2659,-0.005679999999999999,-0.003314,0.005922,-27.68,23.68,-21.370001000000002,2c
2019-07-12_124628:880,-0.412811,0.0035399999999999997,-0.264374,-0.004978,-0.003986,0.004457,-27.68,22.870001000000002,-20.559998999999998,2c
2019-07-12_124628:900,-0.41586300000000004,0.005065999999999999,-0.266388,-0.003452,-0.005298,0.004671,-27.68,22.870001000000002,-20.559998999999998,2c
2019-07-12_124628:920,-0.42248500000000005,0.007111,-0.26944,-0.002872,-0.006336,0.004335,-27.68,22.559998999999998,-20.18,2c
2019-07-12_124628:940,-0.42147799999999996,0.013213999999999998,-0.267914,-0.002933,-0.0070680000000000005,0.0029620000000000002,-27.68,22.559998999999998,-20.18,2c
2019-07-12_124628:960,-0.412811,0.021332,-0.26944,-0.003788,-0.006885,0.0025039999999999997,-27.68,22.559998999999998,-20.18,2c
2019-07-12_124628:980,-0.41384899999999997,0.024902,-0.267914,-0.005679999999999999,-0.006670999999999999,0.003358,-27.68,22.559998999999998,-20.18,2c
2019-07-12_124629:000,-0.41485600000000006,0.020844,-0.2659,-0.007633,-0.005634,0.005311,-27.68,22.559998999999998,-20.18,2c
2019-07-12_124629:020,-0.411285,0.014221000000000001,-0.267426,-0.009067,-0.004901,0.0069900000000000006,-26.870001000000002,22.870001000000002,-19.75,2c
2019-07-12_124629:040,-0.41232299999999994,0.0035399999999999997,-0.263855,-0.009159,-0.005054,0.007326000000000001,-26.870001000000002,22.870001000000002,-19.75,2c
2019-07-12_124629:060,-0.412811,0.0,-0.265381,-0.008213,-0.005298,0.0071730000000000006,-26.870001000000002,22.870001000000002,-19.75,2c
2019-07-12_124629:080,-0.41384899999999997,-0.001495,-0.26944,-0.0065650000000000005,-0.0060609999999999995,0.0069900000000000006,-27.25,22.870001000000002,-20.559998999999998,2c
2019-07-12_124629:100,-0.417389,-0.000488,-0.269958,-0.0052829999999999995,-0.007343000000000001,0.006379,-27.25,22.870001000000002,-20.559998999999998,2c
2019-07-12_124629:120,-0.42758199999999996,0.004059,-0.274536,-0.0042450000000000005,-0.008197,0.005311,-27.25,22.559998999999998,-21.370001000000002,2c
2019-07-12_124629:140,-0.42605600000000005,0.009125,-0.27301,-0.00394,-0.007801000000000001,0.004091,-27.25,22.559998999999998,-21.370001000000002,2c
2019-07-12_124629:160,-0.421967,0.016266,-0.275055,-0.004642,-0.006731999999999999,0.0034189999999999997,-27.25,22.559998999999998,-21.370001000000002,2c
2019-07-12_124629:180,-0.418915,0.018799,-0.273529,-0.006351,-0.004961999999999999,0.0039689999999999994,-26.870001000000002,22.18,-20.870001000000002,2c
2019-07-12_124629:200,-0.41232299999999994,0.012177,-0.26944,-0.007755,-0.00365,0.005403,-26.870001000000002,22.18,-20.870001000000002,2c
2019-07-12_124629:220,-0.409271,0.005065999999999999,-0.268433,-0.008213,-0.003314,0.006532,-28.370001000000002,22.559998999999998,-21.370001000000002,2c
2019-07-12_124629:240,-0.40823400000000004,-0.0025329999999999997,-0.264862,-0.007633,-0.0037719999999999997,0.006135,-28.370001000000002,22.559998999999998,-21.370001000000002,2c
2019-07-12_124629:260,-0.408752,-0.004059,-0.2659,-0.005954,-0.004718,0.005342,-28.370001000000002,22.559998999999998,-21.370001000000002,2c
2019-07-12_124629:280,-0.412811,-0.0030210000000000002,-0.268433,-0.0042450000000000005,-0.005817,0.004732,-27.68,22.870001000000002,-20.870001000000002,2c
2019-07-12_124629:300,-0.417908,0.0,-0.27301,-0.002597,-0.007220999999999999,0.003908,-27.68,22.870001000000002,-20.870001000000002,2c
2019-07-12_124629:320,-0.42605600000000005,0.007599,-0.274536,-0.0019260000000000002,-0.007739,0.0025039999999999997,-26.5,22.870001000000002,-21.75,2c
2019-07-12_124629:340,-0.42605600000000005,0.013702,-0.273529,-0.001957,-0.007465,0.0019850000000000002,-26.5,22.870001000000002,-21.75,2c
2019-07-12_124629:360,-0.425018,0.018799,-0.274536,-0.0033299999999999996,-0.006488,0.002107,-26.5,22.870001000000002,-21.75,2c
2019-07-12_124629:380,-0.418915,0.020325,-0.273529,-0.004978,-0.004657,0.003175,-27.25,23.25,-20.18,2c
2019-07-12_124629:400,-0.41333000000000003,0.014740000000000001,-0.265381,-0.006687,-0.0032530000000000002,0.004732,-27.25,23.25,-20.18,2c
2019-07-12_124629:420,-0.41232299999999994,0.008636,-0.265381,-0.00748,-0.0025210000000000002,0.005922,-27.68,22.18,-20.870001000000002,2c
2019-07-12_124629:440,-0.407227,0.000488,-0.260803,-0.007084,-0.0030399999999999997,0.005922,-27.68,22.18,-20.870001000000002,2c
2019-07-12_124629:460,-0.411285,-0.002014,-0.264862,-0.005954,-0.004383,0.004548,-27.68,22.18,-20.870001000000002,2c
2019-07-12_124629:480,-0.41232299999999994,-0.000488,-0.268433,-0.004275999999999999,-0.005634,0.00403,-27.68,23.68,-21.75,2c
2019-07-12_124629:500,-0.414337,0.000488,-0.272003,-0.002536,-0.007129000000000001,0.004152,-27.68,23.68,-21.75,2c
2019-07-12_124629:520,-0.42401099999999997,0.008118,-0.274536,-0.0018039999999999998,-0.008319,0.0038469999999999997,-28.370001000000002,22.870001000000002,-19.75,2c
2019-07-12_124629:540,-0.425018,0.013213999999999998,-0.274017,-0.0022010000000000003,-0.008014,0.0027170000000000002,-28.370001000000002,22.870001000000002,-19.75,2c
2019-07-12_124629:560,-0.423492,0.017273,-0.276581,-0.003544,-0.006731999999999999,0.0025039999999999997,-28.370001000000002,22.870001000000002,-19.75,2c
2019-07-12_124629:580,-0.41995200000000005,0.01828,-0.275543,-0.0051,-0.005176,0.003053,-27.25,22.870001000000002,-21.0,2c
2019-07-12_124629:600,-0.41384899999999997,0.013702,-0.268433,-0.0069,-0.0037719999999999997,0.0038159999999999995,-27.25,22.870001000000002,-21.0,2c
2019-07-12_124629:620,-0.411285,0.007599,-0.268433,-0.007633,-0.003436,0.00403,-26.870001000000002,23.25,-22.059998999999998,2c
2019-07-12_124629:640,-0.412811,0.001495,-0.264374,-0.00687,-0.003589,0.0037549999999999997,-26.870001000000002,23.25,-22.059998999999998,2c
2019-07-12_124629:660,-0.41485600000000006,0.0,-0.264374,-0.005436,-0.004047,0.003023,-26.870001000000002,23.25,-22.059998999999998,2c
2019-07-12_124629:680,-0.41232299999999994,0.002014,-0.267426,-0.003544,-0.004993,0.002839,-27.68,22.870001000000002,-20.559998999999998,2c
2019-07-12_124629:700,-0.41485600000000006,0.0035399999999999997,-0.262848,-0.001743,-0.005573,0.002778,-27.68,22.870001000000002,-20.559998999999998,2c
2019-07-12_124629:720,-0.41842700000000005,0.013702,-0.270966,-0.001194,-0.006548999999999999,0.002229,-26.5,22.559998999999998,-20.870001000000002,2c
2019-07-12_124629:740,-0.41995200000000005,0.018799,-0.26944,-0.001621,-0.006488,0.002382,-26.5,22.559998999999998,-20.870001000000002,2c
2019-07-12_124629:760,-0.418915,0.021332,-0.269958,-0.002933,-0.006336,0.0038159999999999995,-26.5,22.559998999999998,-20.870001000000002,2c
2019-07-12_124629:780,-0.420441,0.020844,-0.269958,-0.004825,-0.00539,0.004396,-28.0,23.25,-22.18,2c
2019-07-12_124629:800,-0.415375,0.016753999999999998,-0.267426,-0.006626000000000001,-0.004718,0.004457,-28.0,23.25,-22.18,2c
2019-07-12_124629:820,-0.414337,0.011687999999999999,-0.266388,-0.007601999999999999,-0.0045049999999999995,0.004732,-27.25,22.870001000000002,-21.75,2c
2019-07-12_124629:840,-0.414337,0.0055850000000000006,-0.263855,-0.007755,-0.004901,0.004335,-27.25,22.870001000000002,-21.75,2c
2019-07-12_124629:860,-0.41485600000000006,0.004547,-0.264862,-0.006687,-0.005451,0.0039689999999999994,-27.25,22.870001000000002,-21.75,2c
2019-07-12_124629:880,-0.416382,0.0055850000000000006,-0.266388,-0.0052829999999999995,-0.005878,0.0037549999999999997,-27.25,22.559998999999998,-20.870001000000002,2c
2019-07-12_124629:900,-0.415375,0.007599,-0.267426,-0.00394,-0.006458,0.003694,-27.25,22.559998999999998,-20.870001000000002,2c
2019-07-12_124629:920,-0.41384899999999997,0.013702,-0.270966,-0.003116,-0.007220999999999999,0.003511,-27.68,22.18,-20.870001000000002,2c
2019-07-12_124629:940,-0.41485600000000006,0.017792,-0.270966,-0.0033299999999999996,-0.007343000000000001,0.004213000000000001,-27.68,22.18,-20.870001000000002,2c
2019-07-12_124629:960,-0.41995200000000005,0.017273,-0.272491,-0.004123,-0.007404000000000001,0.005128,-27.68,22.18,-20.870001000000002,2c
2019-07-12_124629:980,-0.41995200000000005,0.015747,-0.274017,-0.0052829999999999995,-0.006458,0.005525,-27.68,22.870001000000002,-20.559998999999998,2c
2019-07-12_124630:000,-0.418915,0.012695,-0.272003,-0.006229,-0.005725,0.005067,-27.68,22.870001000000002,-20.559998999999998,2c
2019-07-12_124630:020,-0.416382,0.009125,-0.270966,-0.006687,-0.0055119999999999995,0.004915,-27.25,22.18,-20.870001000000002,2c
2019-07-12_124630:040,-0.416382,0.007599,-0.270477,-0.0065650000000000005,-0.005573,0.005189,-27.25,22.18,-20.870001000000002,2c
2019-07-12_124630:060,-0.417908,0.007111,-0.269958,-0.006076,-0.005695,0.005647,-27.25,22.18,-20.870001000000002,2c
2019-07-12_124630:080,-0.416901,0.0055850000000000006,-0.272491,-0.005893,-0.005939,0.005861,-26.870001000000002,22.559998999999998,-20.559998999999998,2c
2019-07-12_124630:100,-0.41995200000000005,0.006072999999999999,-0.270477,-0.005679999999999999,-0.005573,0.005861,-26.870001000000002,22.559998999999998,-20.559998999999998,2c
2019-07-12_124630:120,-0.41943400000000003,0.0035399999999999997,-0.267914,-0.0052829999999999995,-0.005298,0.005403,-27.68,22.559998999999998,-21.75,2c
2019-07-12_124630:140,-0.412811,0.0030210000000000002,-0.267914,-0.004825,-0.004718,0.004609,-27.68,22.559998999999998,-21.75,2c
2019-07-12_124630:160,-0.411804,0.004059,-0.268433,-0.004337,-0.004657,0.0038159999999999995,-27.68,22.559998999999998,-21.75,2c
2019-07-12_124630:180,-0.412811,0.006072999999999999,-0.267914,-0.003788,-0.005298,0.003572,-27.68,22.559998999999998,-21.75,2c
2019-07-12_124630:200,-0.415375,0.008118,-0.268951,-0.0036659999999999996,-0.006,0.0039689999999999994,-27.68,22.559998999999998,-21.75,2c
2019-07-12_124630:220,-0.420959,0.009125,-0.268951,-0.004001,-0.0061530000000000005,0.004671,-27.25,22.18,-21.370001000000002,2c
2019-07-12_124630:240,-0.42248500000000005,0.009125,-0.268951,-0.004123,-0.005817,0.004396,-27.25,22.18,-21.370001000000002,2c
2019-07-12_124630:260,-0.414337,0.008636,-0.266907,-0.005039,-0.005359,0.0038159999999999995,-27.25,22.18,-21.370001000000002,2c
2019-07-12_124630:280,-0.41485600000000006,0.008636,-0.266907,-0.005375,-0.00484,0.003694,-27.68,22.870001000000002,-20.870001000000002,2c
2019-07-12_124630:300,-0.414337,0.006072999999999999,-0.267914,-0.005344,-0.005115,0.0038469999999999997,-27.68,22.870001000000002,-20.870001000000002,2c
2019-07-12_124630:320,-0.411804,0.006072999999999999,-0.268433,-0.004947,-0.005359,0.0032359999999999997,-27.68,22.18,-20.559998999999998,2c
2019-07-12_124630:340,-0.41943400000000003,0.009125,-0.270966,-0.004337,-0.006275,0.002443,-27.68,22.18,-20.559998999999998,2c
2019-07-12_124630:360,-0.41943400000000003,0.011169,-0.270966,-0.004062,-0.006092,0.0029,-27.68,22.18,-20.559998999999998,2c
2019-07-12_124630:380,-0.417908,0.011687999999999999,-0.272491,-0.003788,-0.005756,0.0039689999999999994,-26.870001000000002,22.870001000000002,-21.75,2c
2019-07-12_124630:400,-0.41842700000000005,0.012177,-0.271484,-0.004062,-0.004961999999999999,0.004213000000000001,-26.870001000000002,22.870001000000002,-21.75,2c
2019-07-12_124630:420,-0.415375,0.013213999999999998,-0.270477,-0.004612,-0.004566,0.0038469999999999997,-26.5,22.559998999999998,-20.559998999999998,2c
2019-07-12_124630:440,-0.41232299999999994,0.012695,-0.270966,-0.0051,-0.004901,0.003908,-26.5,22.559998999999998,-20.559998999999998,2c
2019-07-12_124630:460,-0.41333000000000003,0.009644,-0.271484,-0.005497,-0.005298,0.0039689999999999994,-26.5,22.559998999999998,-20.559998999999998,2c
2019-07-12_124630:480,-0.415375,0.008118,-0.271484,-0.005619,-0.005725,0.0037549999999999997,-28.0,22.559998999999998,-20.870001000000002,2c
2019-07-12_124630:500,-0.417389,0.006592,-0.27301,-0.005375,-0.005756,0.003511,-28.0,22.559998999999998,-20.870001000000002,2c
2019-07-12_124630:520,-0.417908,0.007111,-0.273529,-0.004642,-0.005939,0.003358,-27.25,22.18,-20.559998999999998,2c
2019-07-12_124630:540,-0.423492,0.009125,-0.269958,-0.003879,-0.005634,0.003023,-27.25,22.18,-20.559998999999998,2c
2019-07-12_124630:560,-0.41943400000000003,0.009644,-0.271484,-0.0033299999999999996,-0.005054,0.003511,-27.25,22.18,-20.559998999999998,2c
2019-07-12_124630:580,-0.417908,0.011169,-0.267914,-0.003147,-0.004566,0.003633,-27.68,22.18,-20.559998999999998,2c
2019-07-12_124630:600,-0.418915,0.013213999999999998,-0.268951,-0.0036049999999999997,-0.004229999999999999,0.0029,-27.68,22.18,-20.559998999999998,2c
2019-07-12_124630:620,-0.417908,0.014221000000000001,-0.266907,-0.003879,-0.004444,0.0032359999999999997,-27.68,22.18,-20.559998999999998,2c
2019-07-12_124630:640,-0.417908,0.014221000000000001,-0.267426,-0.004520000000000001,-0.004383,0.004182,-27.68,22.18,-20.559998999999998,2c
2019-07-12_124630:660,-0.414337,0.013213999999999998,-0.2659,-0.004825,-0.004566,0.004152,-27.68,22.18,-20.559998999999998,2c
2019-07-12_124630:680,-0.414337,0.012177,-0.267426,-0.005222,-0.00484,0.004182,-28.0,22.559998999999998,-20.870001000000002,2c
2019-07-12_124630:700,-0.41384899999999997,0.010651,-0.2659,-0.005375,-0.005359,0.004457,-28.0,22.559998999999998,-20.870001000000002,2c
2019-07-12_124630:720,-0.415375,0.011169,-0.266907,-0.005222,-0.005695,0.004457,-28.0,22.870001000000002,-21.75,2c
2019-07-12_124630:740,-0.41485600000000006,0.010162000000000001,-0.267426,-0.005161,-0.0061530000000000005,0.004457,-28.0,22.870001000000002,-21.75,2c
2019-07-12_124630:760,-0.41485600000000006,0.009125,-0.267426,-0.004825,-0.006214,0.004396,-28.0,22.870001000000002,-21.75,2c
2019-07-12_124630:780,-0.417908,0.008636,-0.268951,-0.004642,-0.0066099999999999996,0.004182,-28.0,22.559998999999998,-20.870001000000002,2c
2019-07-12_124630:800,-0.417908,0.010651,-0.268951,-0.004581,-0.006488,0.004213000000000001,-28.0,22.559998999999998,-20.870001000000002,2c
2019-07-12_124630:820,-0.41943400000000003,0.013213999999999998,-0.270966,-0.004703,-0.006092,0.004396,-27.68,22.559998999999998,-21.0,2c
2019-07-12_124630:840,-0.41995200000000005,0.011169,-0.269958,-0.004825,-0.005817,0.004518,-27.68,22.559998999999998,-21.0,2c
2019-07-12_124630:860,-0.416382,0.011687999999999999,-0.268433,-0.004978,-0.005634,0.004548,-27.68,22.559998999999998,-21.0,2c
2019-07-12_124630:880,-0.415375,0.012177,-0.270477,-0.004978,-0.005756,0.004335,-27.68,22.559998999999998,-20.870001000000002,2c
2019-07-12_124630:900,-0.415375,0.011687999999999999,-0.270966,-0.004947,-0.005756,0.004396,-27.68,22.559998999999998,-20.870001000000002,2c
2019-07-12_124630:920,-0.416901,0.010162000000000001,-0.271484,-0.004825,-0.0060609999999999995,0.004671,-27.68,22.870001000000002,-19.370001000000002,2c
2019-07-12_124630:940,-0.41842700000000005,0.010651,-0.271484,-0.004886,-0.005725,0.004793,-27.68,22.870001000000002,-19.370001000000002,2c
2019-07-12_124630:960,-0.420441,0.010162000000000001,-0.269958,-0.004947,-0.0055119999999999995,0.004915,-27.68,22.870001000000002,-19.370001000000002,2c
2019-07-12_124630:980,-0.41842700000000005,0.009644,-0.270966,-0.004978,-0.004657,0.005067,-27.68,22.18,-21.370001000000002,2c
2019-07-12_124631:000,-0.41943400000000003,0.009644,-0.271484,-0.005161,-0.004596,0.005128,-27.68,22.18,-21.370001000000002,2c
2019-07-12_124631:020,-0.42147799999999996,0.011169,-0.272491,-0.005436,-0.004169,0.005464,-27.25,21.75,-20.870001000000002,2c
2019-07-12_124631:040,-0.41995200000000005,0.008636,-0.272491,-0.005619,-0.003436,0.005861,-27.25,21.75,-20.870001000000002,2c
2019-07-12_124631:060,-0.416382,0.008636,-0.272003,-0.005771,-0.003375,0.005861,-27.25,21.75,-20.870001000000002,2c
2019-07-12_124631:080,-0.41485600000000006,0.007599,-0.272491,-0.005771,-0.003711,0.005311,-28.0,22.559998999999998,-20.18,2c
2019-07-12_124631:100,-0.416901,0.008118,-0.270966,-0.005832,-0.004169,0.004518,-28.0,22.559998999999998,-20.18,2c
2019-07-12_124631:120,-0.423004,0.007599,-0.272491,-0.005832,-0.003986,0.004671,-27.68,22.18,-20.559998999999998,2c
2019-07-12_124631:140,-0.416382,0.008118,-0.267426,-0.005619,-0.003589,0.005189,-27.68,22.18,-20.559998999999998,2c
2019-07-12_124631:160,-0.41943400000000003,0.006072999999999999,-0.264862,-0.005679999999999999,-0.003192,0.005525,-27.68,22.18,-20.559998999999998,2c
2019-07-12_124631:180,-0.416901,0.005065999999999999,-0.264862,-0.005497,-0.002735,0.005403,-28.0,22.559998999999998,-20.18,2c
2019-07-12_124631:200,-0.41485600000000006,0.006072999999999999,-0.260803,-0.004947,-0.00307,0.004732,-28.0,22.559998999999998,-20.18,2c
2019-07-12_124631:220,-0.420441,0.005065999999999999,-0.263855,-0.004703,-0.00365,0.00403,-27.68,22.559998999999998,-20.870001000000002,2c
2019-07-12_124631:240,-0.41842700000000005,0.006072999999999999,-0.26181,-0.004275999999999999,-0.004108,0.004182,-27.68,22.559998999999998,-20.870001000000002,2c
2019-07-12_124631:260,-0.41995200000000005,0.007111,-0.26181,-0.0042450000000000005,-0.004444,0.004854,-27.68,22.559998999999998,-20.870001000000002,2c
2019-07-12_124631:280,-0.418915,0.007111,-0.262848,-0.003849,-0.0045049999999999995,0.004945000000000001,-27.25,22.870001000000002,-20.559998999999998,2c
2019-07-12_124631:300,-0.417908,0.007599,-0.261322,-0.004275999999999999,-0.004596,0.004091,-27.25,22.870001000000002,-20.559998999999998,2c
2019-07-12_124631:320,-0.41586300000000004,0.008118,-0.261322,-0.004459,-0.004779,0.003908,-27.68,22.559998999999998,-20.559998999999998,2c
2019-07-12_124631:340,-0.417389,0.008636,-0.260803,-0.004764,-0.005054,0.0039689999999999994,-27.68,22.559998999999998,-20.559998999999998,2c
2019-07-12_124631:360,-0.417908,0.008118,-0.261322,-0.004947,-0.005298,0.0039689999999999994,-27.68,22.559998999999998,-20.559998999999998,2c
2019-07-12_124631:380,-0.41995200000000005,0.008118,-0.263336,-0.004978,-0.005573,0.004152,-27.68,22.870001000000002,-21.370001000000002,2c
2019-07-12_124631:400,-0.42401099999999997,0.008118,-0.264374,-0.004825,-0.005573,0.004091,-27.68,22.870001000000002,-21.370001000000002,2c
2019-07-12_124631:420,-0.429596,0.007599,-0.264374,-0.004886,-0.005115,0.004274,-28.370001000000002,22.870001000000002,-20.18,2c
2019-07-12_124631:440,-0.423004,0.008118,-0.266907,-0.004764,-0.003986,0.005464,-28.370001000000002,22.870001000000002,-20.18,2c
2019-07-12_124631:460,-0.41943400000000003,0.007599,-0.264374,-0.0051,-0.003925,0.005525,-28.370001000000002,22.870001000000002,-20.18,2c
2019-07-12_124631:480,-0.41943400000000003,0.006072999999999999,-0.266388,-0.0052829999999999995,-0.0038640000000000002,0.004671,-27.25,22.870001000000002,-19.370001000000002,2c
2019-07-12_124631:500,-0.417389,0.006072999999999999,-0.263336,-0.005039,-0.004383,0.004548,-27.25,22.870001000000002,-19.370001000000002,2c
2019-07-12_124631:520,-0.416901,0.005065999999999999,-0.265381,-0.004642,-0.00484,0.003908,-28.75,22.559998999999998,-19.75,2c
2019-07-12_124631:540,-0.416382,0.006072999999999999,-0.263336,-0.004612,-0.0052369999999999995,0.003358,-28.75,22.559998999999998,-19.75,2c
2019-07-12_124631:560,-0.416382,0.009125,-0.263336,-0.004703,-0.005573,0.0032359999999999997,-28.75,22.559998999999998,-19.75,2c
2019-07-12_124631:580,-0.41842700000000005,0.010162000000000001,-0.263336,-0.004642,-0.006,0.0032359999999999997,-28.0,22.559998999999998,-21.370001000000002,2c
2019-07-12_124631:600,-0.41842700000000005,0.008636,-0.263336,-0.004947,-0.006397,0.003175,-28.0,22.559998999999998,-21.370001000000002,2c
2019-07-12_124631:620,-0.41995200000000005,0.009644,-0.264374,-0.004703,-0.006214,0.003358,-27.25,22.559998999999998,-20.559998999999998,2c
2019-07-12_124631:640,-0.420959,0.009644,-0.263336,-0.004612,-0.006214,0.003511,-27.25,22.559998999999998,-20.559998999999998,2c
2019-07-12_124631:660,-0.423492,0.009644,-0.265381,-0.004642,-0.0061530000000000005,0.003572,-27.25,22.559998999999998,-20.559998999999998,2c
2019-07-12_124631:680,-0.423004,0.010651,-0.265381,-0.004581,-0.005817,0.003908,-28.0,22.559998999999998,-21.0,2c
2019-07-12_124631:700,-0.423004,0.010162000000000001,-0.262329,-0.004703,-0.00539,0.004182,-28.0,22.559998999999998,-21.0,2c
2019-07-12_124631:720,-0.421967,0.010162000000000001,-0.263855,-0.004825,-0.005176,0.003908,-27.68,22.18,-21.370001000000002,2c
2019-07-12_124631:740,-0.42147799999999996,0.011169,-0.262848,-0.004947,-0.005359,0.0038469999999999997,-27.68,22.18,-21.370001000000002,2c
2019-07-12_124631:760,-0.420959,0.010162000000000001,-0.261322,-0.004978,-0.004993,0.0037549999999999997,-27.68,22.18,-21.370001000000002,2c
2019-07-12_124631:780,-0.41943400000000003,0.010651,-0.261322,-0.005344,-0.005115,0.0038159999999999995,-28.0,22.870001000000002,-22.18,2c
2019-07-12_124631:800,-0.416901,0.011687999999999999,-0.260284,-0.0052829999999999995,-0.005725,0.003908,-28.0,22.870001000000002,-22.18,2c
2019-07-12_124631:820,-0.418915,0.009125,-0.262848,-0.0051,-0.005725,0.00403,-27.25,22.559998999999998,-19.0,2c
2019-07-12_124631:840,-0.41943400000000003,0.010162000000000001,-0.263336,-0.005039,-0.006092,0.004335,-27.25,22.559998999999998,-19.0,2c
2019-07-12_124631:860,-0.421967,0.009644,-0.263855,-0.004886,-0.006214,0.004396,-27.25,22.559998999999998,-19.0,2c
2019-07-12_124631:880,-0.420959,0.008636,-0.263336,-0.004825,-0.0061530000000000005,0.004518,-26.870001000000002,22.559998999999998,-20.559998999999998,2c
2019-07-12_124631:900,-0.421967,0.008636,-0.262848,-0.004642,-0.0060609999999999995,0.004457,-26.870001000000002,22.559998999999998,-20.559998999999998,2c
2019-07-12_124631:920,-0.421967,0.008118,-0.264374,-0.004642,-0.005878,0.004548,-27.25,22.870001000000002,-20.870001000000002,2c
2019-07-12_124631:940,-0.420441,0.007599,-0.2659,-0.004642,-0.005939,0.004152,-27.25,22.870001000000002,-20.870001000000002,2c
2019-07-12_124631:960,-0.42147799999999996,0.007599,-0.264374,-0.004642,-0.005695,0.00403,-27.25,22.870001000000002,-20.870001000000002,2c
2019-07-12_124631:980,-0.41943400000000003,0.008636,-0.264374,-0.004581,-0.005573,0.0039689999999999994,-28.0,22.559998999999998,-20.559998999999998,2c
2019-07-12_124632:000,-0.41842700000000005,0.011169,-0.262329,-0.004581,-0.005756,0.004213000000000001,-28.0,22.559998999999998,-20.559998999999998,2c
2019-07-12_124632:020,-0.42248500000000005,0.008636,-0.265381,-0.004612,-0.005878,0.004213000000000001,-27.68,22.559998999999998,-20.18,2c
2019-07-12_124632:040,-0.420441,0.009644,-0.265381,-0.004642,-0.005359,0.004335,-27.68,22.559998999999998,-20.18,2c
2019-07-12_124632:060,-0.416901,0.010162000000000001,-0.262329,-0.0051,-0.005634,0.004609,-27.68,22.559998999999998,-20.18,2c
2019-07-12_124632:080,-0.423492,0.008636,-0.262848,-0.0051,-0.0055119999999999995,0.004732,-27.25,22.18,-21.370001000000002,2c
2019-07-12_124632:100,-0.417908,0.007111,-0.262329,-0.005222,-0.005573,0.004182,-27.25,22.18,-21.370001000000002,2c
2019-07-12_124632:120,-0.421967,0.006072999999999999,-0.263855,-0.004947,-0.005939,0.003511,-27.25,22.870001000000002,-20.559998999999998,2c
2019-07-12_124632:140,-0.423004,0.007599,-0.266388,-0.004825,-0.005878,0.0038159999999999995,-27.25,22.870001000000002,-20.559998999999998,2c
2019-07-12_124632:160,-0.41995200000000005,0.008636,-0.263855,-0.004459,-0.005695,0.004854,-27.25,22.870001000000002,-20.559998999999998,2c
2019-07-12_124632:180,-0.420441,0.009125,-0.266388,-0.004612,-0.0055119999999999995,0.004548,-28.0,22.870001000000002,-20.559998999999998,2c
2019-07-12_124632:200,-0.41943400000000003,0.009644,-0.264374,-0.004825,-0.005298,0.004152,-28.0,22.870001000000002,-20.559998999999998,2c
2019-07-12_124632:220,-0.417908,0.010162000000000001,-0.263336,-0.005039,-0.005176,0.00403,-27.68,22.870001000000002,-20.559998999999998,2c
2019-07-12_124632:240,-0.41842700000000005,0.009125,-0.263855,-0.004825,-0.005176,0.0039689999999999994,-27.68,22.870001000000002,-20.559998999999998,2c
2019-07-12_124632:260,-0.417389,0.008636,-0.263855,-0.004978,-0.005634,0.003908,-27.68,22.870001000000002,-20.559998999999998,2c
2019-07-12_124632:280,-0.420959,0.009125,-0.2659,-0.004703,-0.005878,0.004091,-27.25,21.75,-20.18,2c
2019-07-12_124632:300,-0.423004,0.008118,-0.264862,-0.004642,-0.005939,0.004457,-27.25,21.75,-20.18,2c
2019-07-12_124632:320,-0.42453,0.010162000000000001,-0.265381,-0.004581,-0.005451,0.004213000000000001,-27.68,23.25,-20.870001000000002,2c
2019-07-12_124632:340,-0.42605600000000005,0.009125,-0.266388,-0.004581,-0.005054,0.004396,-27.68,23.25,-20.870001000000002,2c
2019-07-12_124632:360,-0.418915,0.009125,-0.260803,-0.004886,-0.004566,0.004548,-27.68,23.25,-20.870001000000002,2c
2019-07-12_124632:380,-0.41943400000000003,0.008636,-0.265381,-0.005161,-0.005054,0.0038159999999999995,-27.68,23.25,-21.370001000000002,2c
2019-07-12_124632:400,-0.418915,0.009644,-0.262329,-0.005222,-0.004993,0.00403,-27.68,23.25,-21.370001000000002,2c
2019-07-12_124632:420,-0.41943400000000003,0.007599,-0.262848,-0.005497,-0.0052369999999999995,0.00525,-27.68,23.25,-21.370001000000002,2c
2019-07-12_124632:440,-0.418915,0.0055850000000000006,-0.263336,-0.005558,-0.005298,0.005464,-26.870001000000002,21.75,-20.18,2c
2019-07-12_124632:460,-0.421967,0.0030210000000000002,-0.262848,-0.005558,-0.005115,0.004609,-26.870001000000002,21.75,-20.18,2c
2019-07-12_124632:480,-0.420959,0.0025329999999999997,-0.26181,-0.005222,-0.004718,0.0039689999999999994,-27.370001000000002,22.870001000000002,-20.559998999999998,2c
2019-07-12_124632:500,-0.41995200000000005,0.0025329999999999997,-0.25827,-0.004764,-0.004718,0.003023,-27.370001000000002,22.870001000000002,-20.559998999999998,2c
2019-07-12_124632:520,-0.417389,0.006592,-0.26181,-0.00394,-0.005298,0.002565,-27.370001000000002,22.870001000000002,-20.559998999999998,2c
2019-07-12_124632:540,-0.41842700000000005,0.008636,-0.26181,-0.0036049999999999997,-0.005634,0.002778,-28.059998999999998,22.559998999999998,-21.370001000000002,2c
2019-07-12_124632:560,-0.421967,0.011687999999999999,-0.263855,-0.003452,-0.005939,0.003114,-28.059998999999998,22.559998999999998,-21.370001000000002,2c
2019-07-12_124632:580,-0.42147799999999996,0.013213999999999998,-0.263336,-0.003849,-0.005878,0.003358,-27.25,22.870001000000002,-20.559998999999998,2c
2019-07-12_124632:600,-0.420441,0.012177,-0.262329,-0.004581,-0.005817,0.00345,-27.25,22.870001000000002,-20.559998999999998,2c
2019-07-12_124632:620,-0.420441,0.011169,-0.263336,-0.004886,-0.005756,0.0037549999999999997,-28.370001000000002,23.25,-20.559998999999998,2c
2019-07-12_124632:640,-0.420441,0.009125,-0.263336,-0.005039,-0.005725,0.0038469999999999997,-28.370001000000002,23.25,-20.559998999999998,2c
2019-07-12_124632:660,-0.41995200000000005,0.009125,-0.262329,-0.004825,-0.005634,0.0038469999999999997,-28.370001000000002,23.25,-20.559998999999998,2c
2019-07-12_124632:680,-0.41943400000000003,0.009644,-0.263855,-0.004703,-0.005756,0.0037549999999999997,-27.68,22.870001000000002,-20.870001000000002,2c
2019-07-12_124632:700,-0.41995200000000005,0.009125,-0.26181,-0.0042450000000000005,-0.005817,0.0037549999999999997,-27.68,22.870001000000002,-20.870001000000002,2c
2019-07-12_124632:720,-0.420441,0.012177,-0.263336,-0.004275999999999999,-0.006,0.003633,-26.870001000000002,22.870001000000002,-20.18,2c
2019-07-12_124632:740,-0.420441,0.012177,-0.263855,-0.004275999999999999,-0.005817,0.003908,-26.870001000000002,22.870001000000002,-20.18,2c
2019-07-12_124632:760,-0.42147799999999996,0.012177,-0.264862,-0.004520000000000001,-0.005817,0.003908,-26.870001000000002,22.870001000000002,-20.18,2c
2019-07-12_124632:780,-0.42401099999999997,0.013702,-0.264374,-0.004764,-0.0055119999999999995,0.004152,-28.370001000000002,22.18,-20.870001000000002,2c
2019-07-12_124632:800,-0.421967,0.012695,-0.264374,-0.004978,-0.005573,0.004396,-28.370001000000002,22.18,-20.870001000000002,2c
2019-07-12_124632:820,-0.41943400000000003,0.010651,-0.263855,-0.005039,-0.00539,0.004671,-28.370001000000002,22.18,-20.870001000000002,2c
2019-07-12_124632:840,-0.41943400000000003,0.010162000000000001,-0.263855,-0.005039,-0.00539,0.004732,-28.0,23.25,-20.870001000000002,2c
2019-07-12_124632:860,-0.41943400000000003,0.009644,-0.264374,-0.0051,-0.005634,0.004548,-28.0,23.25,-20.870001000000002,2c
2019-07-12_124632:880,-0.41943400000000003,0.008636,-0.263855,-0.0051,-0.005817,0.004457,-27.68,22.870001000000002,-20.559998999999998,2c
2019-07-12_124632:900,-0.418915,0.010162000000000001,-0.263855,-0.004978,-0.005573,0.004457,-27.68,22.870001000000002,-20.559998999999998,2c
2019-07-12_124632:920,-0.418915,0.009125,-0.264862,-0.004978,-0.005695,0.004396,-28.0,23.25,-20.18,2c
2019-07-12_124632:940,-0.420441,0.009644,-0.264374,-0.004703,-0.005451,0.004457,-28.0,23.25,-20.18,2c
2019-07-12_124632:960,-0.42453,0.010162000000000001,-0.264862,-0.004764,-0.005695,0.004793,-28.0,23.25,-20.18,2c
2019-07-12_124632:980,-0.421967,0.009644,-0.264374,-0.004703,-0.005054,0.004915,-27.68,22.559998999999998,-21.75,2c
2019-07-12_124633:000,-0.418915,0.009125,-0.260803,-0.004947,-0.005054,0.005006,-27.68,22.559998999999998,-21.75,2c
2019-07-12_124633:020,-0.425537,0.008636,-0.264374,-0.0051,-0.005176,0.004793,-27.68,22.559998999999998,-21.75,2c
2019-07-12_124633:040,-0.416901,0.007599,-0.260284,-0.0051,-0.004718,0.004518,-27.25,22.559998999999998,-21.75,2c
2019-07-12_124633:060,-0.41995200000000005,0.006072999999999999,-0.262329,-0.004886,-0.005359,0.0039689999999999994,-27.25,22.559998999999998,-21.75,2c
2019-07-12_124633:080,-0.420959,0.010162000000000001,-0.26181,-0.004764,-0.005573,0.0037549999999999997,-26.870001000000002,23.25,-20.559998999999998,2c
2019-07-12_124633:100,-0.41842700000000005,0.009125,-0.261322,-0.004520000000000001,-0.005725,0.004457,-26.870001000000002,23.25,-20.559998999999998,2c
2019-07-12_124633:120,-0.420959,0.009125,-0.264862,-0.004520000000000001,-0.006,0.005128,-27.25,23.25,-20.18,2c
2019-07-12_124633:140,-0.416901,0.009125,-0.262848,-0.004825,-0.005756,0.004915,-27.25,23.25,-20.18,2c
2019-07-12_124633:160,-0.418915,0.008118,-0.264374,-0.005497,-0.005725,0.004854,-27.25,23.25,-20.18,2c
2019-07-12_124633:180,-0.420441,0.006072999999999999,-0.2659,-0.0060149999999999995,-0.005878,0.004854,-27.68,22.870001000000002,-20.870001000000002,2c
2019-07-12_124633:200,-0.421967,0.0030210000000000002,-0.263855,-0.00629,-0.005451,0.004518,-27.68,22.870001000000002,-20.870001000000002,2c
2019-07-12_124633:220,-0.42401099999999997,0.001495,-0.264374,-0.005771,-0.005359,0.003908,-27.68,22.870001000000002,-20.870001000000002,2c
2019-07-12_124633:240,-0.42147799999999996,0.002014,-0.264374,-0.004886,-0.004961999999999999,0.003297,-26.870001000000002,22.559998999999998,-20.18,2c
2019-07-12_124633:260,-0.417908,0.0035399999999999997,-0.262329,-0.003788,-0.0052369999999999995,0.002443,-26.870001000000002,22.559998999999998,-20.18,2c
2019-07-12_124633:280,-0.420959,0.009125,-0.264374,-0.0032689999999999998,-0.005359,0.002565,-27.25,22.559998999999998,-20.870001000000002,2c
2019-07-12_124633:300,-0.416382,0.011169,-0.259277,-0.003208,-0.0052369999999999995,0.0032359999999999997,-27.25,22.559998999999998,-20.870001000000002,2c
2019-07-12_124633:320,-0.42147799999999996,0.010651,-0.263855,-0.003788,-0.005725,0.0029,-27.25,22.559998999999998,-20.870001000000002,2c
2019-07-12_124633:340,-0.418915,0.011169,-0.262329,-0.004520000000000001,-0.005634,0.002321,-27.68,22.559998999999998,-20.870001000000002,2c
2019-07-12_124633:360,-0.418915,0.008118,-0.260803,-0.004825,-0.005939,0.0029,-27.68,22.559998999999998,-20.870001000000002,2c
2019-07-12_124633:380,-0.418915,0.005065999999999999,-0.262848,-0.004459,-0.006275,0.002382,-27.68,22.559998999999998,-21.370001000000002,2c
2019-07-12_124633:400,-0.417908,0.006072999999999999,-0.260803,-0.004001,-0.006214,0.001497,-27.68,22.559998999999998,-21.370001000000002,2c
2019-07-12_124633:420,-0.417908,0.007111,-0.262329,-0.003208,-0.006458,0.001436,-27.68,22.559998999999998,-21.370001000000002,2c
2019-07-12_124633:440,-0.41943400000000003,0.012177,-0.26181,-0.0027199999999999998,-0.006793,0.001436,-28.370001000000002,21.75,-21.75,2c
2019-07-12_124633:460,-0.421967,0.014221000000000001,-0.262848,-0.002872,-0.006885,0.001375,-28.370001000000002,21.75,-21.75,2c
2019-07-12_124633:480,-0.42401099999999997,0.016266,-0.266388,-0.0033299999999999996,-0.006793,0.001832,-28.0,22.559998999999998,-21.370001000000002,2c
2019-07-12_124633:500,-0.423004,0.016753999999999998,-0.266388,-0.003788,-0.006336,0.002321,-28.0,22.559998999999998,-21.370001000000002,2c
2019-07-12_124633:520,-0.423004,0.017792,-0.265381,-0.004459,-0.006092,0.002443,-28.0,22.559998999999998,-21.370001000000002,2c
2019-07-12_124633:540,-0.421967,0.016266,-0.2659,-0.004642,-0.0060609999999999995,0.003114,-27.25,22.18,-20.559998999999998,2c
2019-07-12_124633:560,-0.41995200000000005,0.013213999999999998,-0.264374,-0.004703,-0.005756,0.0039689999999999994,-27.25,22.18,-20.559998999999998,2c
2019-07-12_124633:580,-0.41842700000000005,0.013213999999999998,-0.264374,-0.004642,-0.005573,0.004213000000000001,-27.68,22.870001000000002,-19.75,2c
2019-07-12_124633:600,-0.416901,0.012695,-0.260803,-0.004581,-0.005817,0.004182,-27.68,22.870001000000002,-19.75,2c
2019-07-12_124633:620,-0.415375,0.013702,-0.263336,-0.004459,-0.005878,0.004091,-27.68,22.870001000000002,-19.75,2c
2019-07-12_124633:640,-0.415375,0.013702,-0.263336,-0.004398,-0.006214,0.00403,-28.370001000000002,22.18,-20.559998999999998,2c
2019-07-12_124633:660,-0.41943400000000003,0.012695,-0.266388,-0.004520000000000001,-0.006458,0.0038159999999999995,-28.370001000000002,22.18,-20.559998999999998,2c
2019-07-12_124633:680,-0.42147799999999996,0.012695,-0.266388,-0.004764,-0.007006999999999999,0.0037549999999999997,-26.870001000000002,22.18,-21.370001000000002,2c
2019-07-12_124633:700,-0.42401099999999997,0.012695,-0.266388,-0.004764,-0.006885,0.00345,-26.870001000000002,22.18,-21.370001000000002,2c
2019-07-12_124633:720,-0.42248500000000005,0.012695,-0.266907,-0.004642,-0.006458,0.003297,-26.870001000000002,22.18,-21.370001000000002,2c
2019-07-12_124633:740,-0.420441,0.012177,-0.264862,-0.004398,-0.006214,0.003358,-27.25,22.559998999999998,-20.559998999999998,2c
2019-07-12_124633:760,-0.418915,0.012177,-0.2659,-0.004275999999999999,-0.005939,0.0038159999999999995,-27.25,22.559998999999998,-20.559998999999998,2c
2019-07-12_124633:780,-0.417908,0.012695,-0.263336,-0.003788,-0.005817,0.0039689999999999994,-28.0,22.18,-19.75,2c
2019-07-12_124633:800,-0.416382,0.013213999999999998,-0.263855,-0.0036659999999999996,-0.005756,0.003572,-28.0,22.18,-19.75,2c
2019-07-12_124633:820,-0.417908,0.013702,-0.2659,-0.0036049999999999997,-0.005939,0.003572,-28.0,22.18,-19.75,2c
2019-07-12_124633:840,-0.417908,0.016266,-0.266388,-0.0036659999999999996,-0.006458,0.003358,-27.68,22.18,-19.75,2c
2019-07-12_124633:860,-0.41995200000000005,0.018799,-0.266388,-0.004123,-0.006458,0.003694,-27.68,22.18,-19.75,2c
2019-07-12_124633:880,-0.42401099999999997,0.016753999999999998,-0.267914,-0.004459,-0.006854000000000001,0.004213000000000001,-27.68,22.870001000000002,-20.18,2c
2019-07-12_124633:900,-0.41586300000000004,0.017273,-0.2659,-0.005222,-0.006275,0.004274,-27.68,22.870001000000002,-20.18,2c
2019-07-12_124633:920,-0.415375,0.015228,-0.266907,-0.005619,-0.005725,0.004793,-27.68,22.870001000000002,-20.18,2c
2019-07-12_124633:940,-0.420441,0.010651,-0.267914,-0.005893,-0.005725,0.005647,-27.68,22.870001000000002,-21.370001000000002,2c
2019-07-12_124633:960,-0.414337,0.009125,-0.266907,-0.005497,-0.005756,0.005678,-27.68,22.870001000000002,-21.370001000000002,2c
2019-07-12_124633:980,-0.423004,0.009125,-0.269958,-0.004825,-0.006397,0.004945000000000001,-28.0,22.18,-20.559998999999998,2c
2019-07-12_124634:000,-0.42248500000000005,0.012695,-0.270966,-0.004398,-0.007006999999999999,0.004396,-28.0,22.18,-20.559998999999998,2c
2019-07-12_124634:020,-0.42453,0.014221000000000001,-0.272003,-0.004459,-0.0066099999999999996,0.005006,-28.0,22.18,-20.559998999999998,2c
2019-07-12_124634:040,-0.42248500000000005,0.014221000000000001,-0.270477,-0.004703,-0.005725,0.005586,-27.68,22.559998999999998,-21.370001000000002,2c
2019-07-12_124634:060,-0.414337,0.012695,-0.266907,-0.005619,-0.004596,0.005403,-27.68,22.559998999999998,-21.370001000000002,2c
2019-07-12_124634:080,-0.412811,0.009644,-0.2659,-0.006229,-0.004566,0.005342,-28.0,22.18,-19.75,2c
2019-07-12_124634:100,-0.41333000000000003,0.0055850000000000006,-0.264862,-0.006229,-0.004718,0.005678,-28.0,22.18,-19.75,2c
2019-07-12_124634:120,-0.416901,0.0025329999999999997,-0.266388,-0.0060149999999999995,-0.0052369999999999995,0.005647,-28.0,22.18,-19.75,2c
2019-07-12_124634:140,-0.41943400000000003,0.0030210000000000002,-0.266907,-0.005375,-0.005878,0.004854,-27.68,22.18,-20.18,2c
2019-07-12_124634:160,-0.423492,0.004059,-0.269958,-0.004459,-0.0061530000000000005,0.0038159999999999995,-27.68,22.18,-20.18,2c
2019-07-12_124634:180,-0.42758199999999996,0.010162000000000001,-0.269958,-0.003879,-0.006,0.0029620000000000002,-28.75,22.559998999999998,-19.75,2c
2019-07-12_124634:200,-0.42605600000000005,0.012177,-0.270477,-0.004123,-0.005298,0.002443,-28.75,22.559998999999998,-19.75,2c
2019-07-12_124634:220,-0.42147799999999996,0.013702,-0.2659,-0.004520000000000001,-0.004108,0.0025039999999999997,-28.75,22.559998999999998,-19.75,2c
2019-07-12_124634:240,-0.420959,0.012177,-0.268433,-0.005222,-0.003589,0.002168,-27.68,22.559998999999998,-20.559998999999998,2c
2019-07-12_124634:260,-0.417908,0.011687999999999999,-0.263336,-0.005741,-0.003589,0.002321,-27.68,22.559998999999998,-20.559998999999998,2c
2019-07-12_124634:280,-0.417389,0.009644,-0.264374,-0.005832,-0.00365,0.002839,-27.68,21.75,-20.18,2c
2019-07-12_124634:300,-0.41485600000000006,0.008636,-0.262848,-0.005679999999999999,-0.00365,0.002443,-27.68,21.75,-20.18,2c
2019-07-12_124634:320,-0.414337,0.010162000000000001,-0.262329,-0.004947,-0.003986,0.0016489999999999999,-27.68,21.75,-20.18,2c
2019-07-12_124634:340,-0.416901,0.013702,-0.265381,-0.0042450000000000005,-0.004596,0.001375,-28.0,22.559998999999998,-21.0,2c
2019-07-12_124634:360,-0.41842700000000005,0.016753999999999998,-0.264374,-0.00394,-0.004901,0.001253,-28.0,22.559998999999998,-21.0,2c
2019-07-12_124634:380,-0.420441,0.020325,-0.265381,-0.004123,-0.005054,0.000917,-28.75,21.75,-20.870001000000002,2c
2019-07-12_124634:400,-0.420959,0.021851,-0.263336,-0.0042450000000000005,-0.00484,0.001253,-28.75,21.75,-20.870001000000002,2c
2019-07-12_124634:420,-0.41995200000000005,0.021851,-0.263336,-0.004642,-0.004566,0.001893,-28.75,21.75,-20.870001000000002,2c
2019-07-12_124634:440,-0.416382,0.019318000000000002,-0.259796,-0.004978,-0.0045049999999999995,0.003023,-27.68,21.75,-20.18,2c
2019-07-12_124634:460,-0.415375,0.017273,-0.260284,-0.004947,-0.004901,0.004182,-27.68,21.75,-20.18,2c
2019-07-12_124634:480,-0.416901,0.016266,-0.264374,-0.004612,-0.005573,0.004518,-27.68,21.75,-20.870001000000002,2c
2019-07-12_124634:500,-0.420441,0.016753999999999998,-0.264374,-0.004398,-0.006275,0.004274,-27.68,21.75,-20.870001000000002,2c
2019-07-12_124634:520,-0.423492,0.018799,-0.266907,-0.004184,-0.006731999999999999,0.004213000000000001,-27.68,21.75,-20.870001000000002,2c
2019-07-12_124634:540,-0.425537,0.021851,-0.266907,-0.004398,-0.0066099999999999996,0.004152,-28.0,22.18,-19.75,2c
2019-07-12_124634:560,-0.423492,0.022369,-0.2659,-0.005039,-0.005878,0.0038159999999999995,-28.0,22.18,-19.75,2c
2019-07-12_124634:580,-0.420441,0.021851,-0.266907,-0.005893,-0.004779,0.003908,-28.75,22.559998999999998,-19.75,2c
2019-07-12_124634:600,-0.417389,0.018799,-0.260803,-0.0065650000000000005,-0.0038640000000000002,0.004854,-28.75,22.559998999999998,-19.75,2c
2019-07-12_124634:620,-0.414337,0.012177,-0.260284,-0.006626000000000001,-0.003711,0.006196,-28.75,22.559998999999998,-19.75,2c
2019-07-12_124634:640,-0.41232299999999994,0.006072999999999999,-0.260284,-0.005771,-0.004383,0.007112,-27.68,22.559998999999998,-20.18,2c
2019-07-12_124634:660,-0.412811,0.006592,-0.261322,-0.004459,-0.005298,0.006257,-27.68,22.559998999999998,-20.18,2c
2019-07-12_124634:680,-0.41586300000000004,0.008636,-0.264374,-0.0032689999999999998,-0.006548999999999999,0.004793,-27.68,21.370001000000002,-20.18,2c
2019-07-12_124634:700,-0.42147799999999996,0.016266,-0.267914,-0.00275,-0.0076170000000000005,0.004152,-27.68,21.370001000000002,-20.18,2c
2019-07-12_124634:720,-0.426544,0.019318000000000002,-0.268433,-0.0032689999999999998,-0.008075,0.003908,-27.68,21.370001000000002,-20.18,2c
2019-07-12_124634:740,-0.43670699999999996,0.024384,-0.271484,-0.004520000000000001,-0.007984,0.003572,-28.0,21.75,-19.370001000000002,2c
2019-07-12_124634:760,-0.430634,0.024384,-0.266907,-0.006168,-0.006336,0.003175,-28.0,21.75,-19.370001000000002,2c
2019-07-12_124634:780,-0.42401099999999997,0.021332,-0.263855,-0.007541,-0.004596,0.003358,-28.0,22.18,-19.370001000000002,2c
2019-07-12_124634:800,-0.41943400000000003,0.013702,-0.259796,-0.008334999999999999,-0.003314,0.005128,-28.0,22.18,-19.370001000000002,2c
2019-07-12_124634:820,-0.402161,0.0025329999999999997,-0.25521900000000003,-0.00748,-0.0025210000000000002,0.006776000000000001,-28.0,22.18,-19.370001000000002,2c
2019-07-12_124634:840,-0.40316799999999997,0.0,-0.255707,-0.005619,-0.003986,0.005586,-27.25,22.18,-19.75,2c
2019-07-12_124634:860,-0.40774499999999997,0.0035399999999999997,-0.262329,-0.0036049999999999997,-0.006336,0.00345,-27.25,22.18,-19.75,2c
2019-07-12_124634:880,-0.414337,0.008636,-0.266907,-0.000675,-0.009784000000000001,0.003511,-27.68,22.18,-20.559998999999998,2c
2019-07-12_124634:900,-0.426544,0.01828,-0.272491,-0.000675,-0.010059,0.0029,-27.68,22.18,-20.559998999999998,2c
2019-07-12_124634:920,-0.43518100000000004,0.025908999999999998,-0.274017,-0.0018039999999999998,-0.008655,0.002107,-27.68,22.18,-20.559998999999998,2c
2019-07-12_124634:940,-0.43927,0.032013,-0.276062,-0.004001,-0.006397,0.002565,-27.25,21.75,-20.870001000000002,2c
2019-07-12_124634:960,-0.431122,0.031494,-0.272003,-0.006504,-0.004961999999999999,0.004152,-27.25,21.75,-20.870001000000002,2c
2019-07-12_124634:980,-0.417908,0.023375999999999997,-0.265381,-0.008732,-0.003467,0.005983,-27.25,22.18,-20.18,2c
2019-07-12_124635:000,-0.410797,0.013702,-0.259277,-0.009159,-0.00246,0.00757,-27.25,22.18,-20.18,2c
2019-07-12_124635:020,-0.40368699999999996,0.002014,-0.25827,-0.008487,-0.0030399999999999997,0.0067150000000000005,-27.25,22.18,-20.18,2c
2019-07-12_124635:040,-0.40774499999999997,-0.000488,-0.260284,-0.0064730000000000005,-0.004961999999999999,0.005342,-28.370001000000002,22.18,-20.559998999999998,2c
2019-07-12_124635:060,-0.411804,0.0,-0.264374,-0.003879,-0.006885,0.004915,-28.370001000000002,22.18,-20.559998999999998,2c
2019-07-12_124635:080,-0.41943400000000003,0.001007,-0.2659,-0.0019260000000000002,-0.007739,0.0032359999999999997,-27.68,21.75,-20.559998999999998,2c
2019-07-12_124635:100,-0.42807,0.012177,-0.27301,-0.001285,-0.007923000000000001,0.001314,-27.68,21.75,-20.559998999999998,2c
2019-07-12_124635:120,-0.43621800000000005,0.019806,-0.271484,-0.0013460000000000002,-0.0070680000000000005,0.001497,-27.68,21.75,-20.559998999999998,2c
2019-07-12_124635:140,-0.432648,0.025908999999999998,-0.270966,-0.002659,-0.00539,0.002778,-27.68,21.75,-20.870001000000002,2c
2019-07-12_124635:160,-0.423492,0.026427999999999997,-0.267426,-0.004703,-0.004169,0.0038159999999999995,-27.68,21.75,-20.870001000000002,2c
2019-07-12_124635:180,-0.41384899999999997,0.022858,-0.261322,-0.006351,-0.002643,0.004548,-28.0,22.18,-20.870001000000002,2c
2019-07-12_124635:200,-0.405212,0.016753999999999998,-0.256744,-0.007418999999999999,-0.002338,0.004548,-28.0,22.18,-20.870001000000002,2c
2019-07-12_124635:220,-0.40570100000000003,0.010162000000000001,-0.256744,-0.007267,-0.003589,0.004274,-28.0,22.18,-20.870001000000002,2c
2019-07-12_124635:240,-0.411804,0.006072999999999999,-0.259796,-0.0061070000000000004,-0.005817,0.0037549999999999997,-27.68,22.18,-19.75,2c
2019-07-12_124635:260,-0.41485600000000006,0.007111,-0.263855,-0.004337,-0.007862000000000001,0.002565,-27.68,22.18,-19.75,2c
2019-07-12_124635:280,-0.421967,0.013702,-0.270477,-0.002811,-0.008716,0.002046,-27.68,21.75,-21.370001000000002,2c
2019-07-12_124635:300,-0.42858900000000005,0.017273,-0.271484,-0.001621,-0.008747,0.002321,-27.68,21.75,-21.370001000000002,2c
2019-07-12_124635:320,-0.435699,0.023895,-0.273529,-0.001865,-0.007862000000000001,0.003175,-27.68,21.75,-21.370001000000002,2c
2019-07-12_124635:340,-0.431122,0.026917,-0.270966,-0.003055,-0.006214,0.004152,-28.0,22.870001000000002,-21.370001000000002,2c
2019-07-12_124635:360,-0.418915,0.025421,-0.2659,-0.004581,-0.00426,0.004274,-28.0,22.870001000000002,-21.370001000000002,2c
2019-07-12_124635:380,-0.412811,0.024384,-0.262848,-0.006412,-0.002918,0.00403,-28.0,22.18,-19.75,2c
2019-07-12_124635:400,-0.404694,0.017273,-0.257751,-0.007358,-0.002857,0.004335,-28.0,22.18,-19.75,2c
2019-07-12_124635:420,-0.407227,0.012695,-0.261322,-0.007297,-0.004444,0.004609,-28.0,22.18,-19.75,2c
2019-07-12_124635:440,-0.417908,0.009644,-0.262329,-0.006412,-0.006275,0.003511,-27.68,21.370001000000002,-20.559998999999998,2c
2019-07-12_124635:460,-0.41943400000000003,0.010162000000000001,-0.267914,-0.004764,-0.007587000000000001,0.003114,-27.68,21.370001000000002,-20.559998999999998,2c
2019-07-12_124635:480,-0.426544,0.013702,-0.272491,-0.003208,-0.007984,0.003572,-28.0,22.18,-20.559998999999998,2c
2019-07-12_124635:500,-0.432648,0.01828,-0.273529,-0.002414,-0.007343000000000001,0.004152,-28.0,22.18,-20.559998999999998,2c
2019-07-12_124635:520,-0.431641,0.021332,-0.272003,-0.0027199999999999998,-0.005817,0.004854,-28.0,22.18,-20.559998999999998,2c
2019-07-12_124635:540,-0.421967,0.023895,-0.266907,-0.003208,-0.00426,0.004396,-28.0,21.75,-19.75,2c
2019-07-12_124635:560,-0.409271,0.025908999999999998,-0.26181,-0.004642,-0.0031309999999999997,0.003511,-28.0,21.75,-19.75,2c
2019-07-12_124635:580,-0.405212,0.024384,-0.258759,-0.006076,-0.0032530000000000002,0.004091,-26.5,21.370001000000002,-19.370001000000002,2c
2019-07-12_124635:600,-0.412811,0.017273,-0.259796,-0.0067480000000000005,-0.004108,0.005403,-26.5,21.370001000000002,-19.370001000000002,2c
2019-07-12_124635:620,-0.411804,0.013702,-0.262329,-0.0069,-0.005359,0.004945000000000001,-26.5,21.370001000000002,-19.370001000000002,2c
2019-07-12_124635:640,-0.421967,0.012177,-0.266907,-0.00629,-0.006670999999999999,0.004274,-27.25,22.18,-20.870001000000002,2c
2019-07-12_124635:660,-0.42453,0.010162000000000001,-0.269958,-0.004978,-0.00719,0.005128,-27.25,22.18,-20.870001000000002,2c
2019-07-12_124635:680,-0.42605600000000005,0.008636,-0.269958,-0.004123,-0.00719,0.005586,-26.870001000000002,21.75,-21.0,2c
2019-07-12_124635:700,-0.43518100000000004,0.011169,-0.273529,-0.0032689999999999998,-0.006793,0.004793,-26.870001000000002,21.75,-21.0,2c
2019-07-12_124635:720,-0.426544,0.016266,-0.267426,-0.002994,-0.00539,0.004213000000000001,-26.870001000000002,21.75,-21.0,2c
2019-07-12_124635:740,-0.417389,0.019318000000000002,-0.265381,-0.003452,-0.003986,0.0038159999999999995,-27.68,22.18,-19.370001000000002,2c
2019-07-12_124635:760,-0.410797,0.024902,-0.262329,-0.004703,-0.0032530000000000002,0.003358,-27.68,22.18,-19.370001000000002,2c
2019-07-12_124635:780,-0.406738,0.025421,-0.25827,-0.005832,-0.0032530000000000002,0.004274,-28.0,21.370001000000002,-20.870001000000002,2c
2019-07-12_124635:800,-0.40823400000000004,0.018799,-0.259796,-0.006626000000000001,-0.004229999999999999,0.005128,-28.0,21.370001000000002,-20.870001000000002,2c
2019-07-12_124635:820,-0.412811,0.016266,-0.263855,-0.007145,-0.005756,0.005189,-28.0,21.370001000000002,-20.870001000000002,2c
2019-07-12_124635:840,-0.41943400000000003,0.010162000000000001,-0.267426,-0.0067480000000000005,-0.006854000000000001,0.005647,-27.68,21.75,-19.75,2c
2019-07-12_124635:860,-0.42401099999999997,0.007111,-0.269958,-0.005558,-0.007984,0.006318,-27.68,21.75,-19.75,2c
2019-07-12_124635:880,-0.433655,0.0055850000000000006,-0.27301,-0.004520000000000001,-0.007678,0.006196,-26.870001000000002,22.559998999999998,-21.370001000000002,2c
2019-07-12_124635:900,-0.43823199999999995,0.006592,-0.269958,-0.003483,-0.006336,0.005525,-26.870001000000002,22.559998999999998,-21.370001000000002,2c
2019-07-12_124635:920,-0.423492,0.012695,-0.267914,-0.002994,-0.004229999999999999,0.004213000000000001,-26.870001000000002,22.559998999999998,-21.370001000000002,2c
2019-07-12_124635:940,-0.41384899999999997,0.017273,-0.259796,-0.0036659999999999996,-0.002918,0.002229,-28.0,22.870001000000002,-20.870001000000002,2c
2019-07-12_124635:960,-0.40823400000000004,0.023375999999999997,-0.259277,-0.004581,-0.002643,0.0017100000000000001,-28.0,22.870001000000002,-20.870001000000002,2c
2019-07-12_124635:980,-0.409271,0.023375999999999997,-0.256744,-0.005497,-0.0035280000000000003,0.003297,-28.0,21.75,-20.18,2c
2019-07-12_124636:000,-0.41232299999999994,0.014740000000000001,-0.259277,-0.006412,-0.00484,0.004091,-28.0,21.75,-20.18,2c
2019-07-12_124636:020,-0.416382,0.013213999999999998,-0.262848,-0.006351,-0.0061530000000000005,0.004274,-28.0,21.75,-20.18,2c
2019-07-12_124636:040,-0.420441,0.009125,-0.2659,-0.005679999999999999,-0.007281999999999999,0.004915,-28.0,22.18,-20.18,2c
2019-07-12_124636:060,-0.42401099999999997,0.007111,-0.267426,-0.004398,-0.007862000000000001,0.005067,-28.0,22.18,-20.18,2c
2019-07-12_124636:080,-0.432159,0.007599,-0.26944,-0.003147,-0.00719,0.004396,-28.0,22.18,-20.559998999999998,2c
2019-07-12_124636:100,-0.429108,0.011169,-0.266907,-0.002323,-0.006,0.003023,-28.0,22.18,-20.559998999999998,2c
2019-07-12_124636:120,-0.41586300000000004,0.022369,-0.263336,-0.002414,-0.004596,0.001314,-28.0,22.18,-20.559998999999998,2c
2019-07-12_124636:140,-0.411804,0.028961,-0.262329,-0.0036049999999999997,-0.004383,0.001192,-28.0,22.18,-20.559998999999998,2c
2019-07-12_124636:160,-0.40976,0.028442000000000002,-0.261322,-0.004703,-0.004657,0.0029620000000000002,-28.0,22.18,-20.559998999999998,2c
2019-07-12_124636:180,-0.41485600000000006,0.024902,-0.26181,-0.0061070000000000004,-0.005451,0.004182,-26.870001000000002,22.18,-20.870001000000002,2c
2019-07-12_124636:200,-0.41943400000000003,0.016266,-0.263336,-0.007023000000000001,-0.006488,0.004335,-26.870001000000002,22.18,-20.870001000000002,2c
2019-07-12_124636:220,-0.42248500000000005,0.012177,-0.267426,-0.0065650000000000005,-0.007220999999999999,0.005403,-26.870001000000002,22.18,-20.870001000000002,2c
2019-07-12_124636:240,-0.42401099999999997,0.007111,-0.268433,-0.005558,-0.00719,0.006196,-28.370001000000002,21.059998999999998,-20.18,2c
2019-07-12_124636:260,-0.42858900000000005,0.004059,-0.267426,-0.004275999999999999,-0.006885,0.006135,-28.370001000000002,21.059998999999998,-20.18,2c
2019-07-12_124636:280,-0.42807,0.006592,-0.267426,-0.002872,-0.0055119999999999995,0.004915,-26.870001000000002,22.18,-21.370001000000002,2c
2019-07-12_124636:300,-0.416901,0.013702,-0.265381,-0.002323,-0.004993,0.002168,-26.870001000000002,22.18,-21.370001000000002,2c
2019-07-12_124636:320,-0.412811,0.027954000000000003,-0.264862,-0.002994,-0.005298,0.0005809999999999999,-26.870001000000002,22.18,-21.370001000000002,2c
2019-07-12_124636:340,-0.410278,0.031006,-0.2659,-0.004520000000000001,-0.005451,0.002168,-26.5,22.18,-19.370001000000002,2c
2019-07-12_124636:360,-0.412811,0.027435,-0.265381,-0.006168,-0.00539,0.00403,-26.5,22.18,-19.370001000000002,2c
2019-07-12_124636:380,-0.417908,0.020844,-0.2659,-0.007297,-0.005939,0.004457,-27.25,21.75,-20.18,2c
2019-07-12_124636:400,-0.423492,0.013213999999999998,-0.267426,-0.007084,-0.006275,0.005311,-27.25,21.75,-20.18,2c
2019-07-12_124636:420,-0.42758199999999996,0.007599,-0.271484,-0.005679999999999999,-0.006458,0.006044,-27.25,21.75,-20.18,2c
2019-07-12_124636:440,-0.426544,0.004547,-0.26944,-0.004001,-0.006548999999999999,0.006593000000000001,-28.370001000000002,22.18,-20.870001000000002,2c
2019-07-12_124636:460,-0.431122,0.0055850000000000006,-0.267426,-0.002018,-0.0061530000000000005,0.006196,-28.370001000000002,22.18,-20.870001000000002,2c
2019-07-12_124636:480,-0.42401099999999997,0.012695,-0.2659,-0.0011330000000000001,-0.004444,0.0038159999999999995,-27.25,21.75,-20.870001000000002,2c
2019-07-12_124636:500,-0.407227,0.024384,-0.259277,-0.001468,-0.003589,0.001039,-27.25,21.75,-20.870001000000002,2c
2019-07-12_124636:520,-0.411804,0.034058,-0.260284,-0.0036659999999999996,-0.003986,0.001497,-27.25,21.75,-20.870001000000002,2c
2019-07-12_124636:540,-0.40774499999999997,0.034546,-0.260803,-0.0060149999999999995,-0.00426,0.003572,-28.0,21.75,-20.18,2c
2019-07-12_124636:560,-0.412811,0.024384,-0.261322,-0.008395999999999999,-0.00539,0.004274,-28.0,21.75,-20.18,2c
2019-07-12_124636:580,-0.41842700000000005,0.019318000000000002,-0.265381,-0.009281000000000001,-0.006458,0.004732,-27.68,22.18,-20.18,2c
2019-07-12_124636:600,-0.423004,0.0055850000000000006,-0.267426,-0.008762,-0.006945999999999999,0.006379,-27.68,22.18,-20.18,2c
2019-07-12_124636:620,-0.425537,-0.000488,-0.271484,-0.006626000000000001,-0.0070680000000000005,0.007722,-27.68,22.18,-20.18,2c
2019-07-12_124636:640,-0.429596,-0.004547,-0.26944,-0.004123,-0.006548999999999999,0.007387,-27.68,21.75,-20.18,2c
2019-07-12_124636:660,-0.429108,-0.001007,-0.266907,-0.001529,-0.005634,0.005342,-27.68,21.75,-20.18,2c
2019-07-12_124636:680,-0.414337,0.011169,-0.262848,-0.000217,-0.004901,0.0026260000000000003,-28.370001000000002,22.18,-20.559998999999998,2c
2019-07-12_124636:700,-0.412811,0.022369,-0.261322,-0.000736,-0.005054,0.0008560000000000001,-28.370001000000002,22.18,-20.559998999999998,2c
2019-07-12_124636:720,-0.411285,0.03302,-0.262848,-0.00275,-0.0052369999999999995,0.001436,-28.370001000000002,22.18,-20.559998999999998,2c
2019-07-12_124636:740,-0.410797,0.03302,-0.262329,-0.005436,-0.005359,0.002687,-28.370001000000002,22.559998999999998,-21.370001000000002,2c
2019-07-12_124636:760,-0.414337,0.026427999999999997,-0.265381,-0.007816,-0.005695,0.003694,-28.370001000000002,22.559998999999998,-21.370001000000002,2c
2019-07-12_124636:780,-0.42401099999999997,0.013702,-0.268951,-0.008823000000000001,-0.0061530000000000005,0.005189,-27.68,22.18,-19.370001000000002,2c
2019-07-12_124636:800,-0.421967,0.007599,-0.267426,-0.008426000000000001,-0.006548999999999999,0.006593000000000001,-27.68,22.18,-19.370001000000002,2c
2019-07-12_124636:820,-0.42858900000000005,0.001007,-0.270966,-0.006229,-0.006945999999999999,0.006532,-27.68,22.18,-19.370001000000002,2c
2019-07-12_124636:840,-0.429596,0.0025329999999999997,-0.268433,-0.0036659999999999996,-0.006275,0.004915,-27.68,22.18,-19.75,2c
2019-07-12_124636:860,-0.41842700000000005,0.010651,-0.262329,-0.00159,-0.004718,0.0026260000000000003,-27.68,22.18,-19.75,2c
2019-07-12_124636:880,-0.41333000000000003,0.022369,-0.261322,-0.000889,-0.003711,0.001436,-28.0,21.75,-20.870001000000002,2c
2019-07-12_124636:900,-0.409271,0.029968,-0.258759,-0.001529,-0.003925,0.002382,-28.0,21.75,-20.870001000000002,2c
2019-07-12_124636:920,-0.40976,0.032532,-0.262329,-0.0033299999999999996,-0.005176,0.003358,-28.0,21.75,-20.870001000000002,2c
2019-07-12_124636:940,-0.41586300000000004,0.029968,-0.264862,-0.005741,-0.006397,0.004091,-27.68,22.559998999999998,-20.559998999999998,2c
2019-07-12_124636:960,-0.417908,0.023375999999999997,-0.268433,-0.007358,-0.007343000000000001,0.00525,-27.68,22.559998999999998,-20.559998999999998,2c
2019-07-12_124636:980,-0.42453,0.010162000000000001,-0.274017,-0.008091,-0.007739,0.006196,-28.370001000000002,22.559998999999998,-20.559998999999998,2c
2019-07-12_124637:000,-0.429596,0.004547,-0.272003,-0.0076939999999999995,-0.007129000000000001,0.006470999999999999,-28.370001000000002,22.559998999999998,-20.559998999999998,2c
2019-07-12_124637:020,-0.432159,0.001007,-0.271484,-0.0061070000000000004,-0.0061530000000000005,0.006044,-28.370001000000002,22.559998999999998,-20.559998999999998,2c
2019-07-12_124637:040,-0.42401099999999997,0.002014,-0.268433,-0.004062,-0.004961999999999999,0.004671,-28.0,22.18,-19.370001000000002,2c
2019-07-12_124637:060,-0.410797,0.011687999999999999,-0.262848,-0.002414,-0.0037719999999999997,0.002778,-28.0,22.18,-19.370001000000002,2c
2019-07-12_124637:080,-0.406738,0.020325,-0.261322,-0.0019260000000000002,-0.004047,0.0026260000000000003,-28.370001000000002,21.370001000000002,-21.0,2c
2019-07-12_124637:100,-0.40823400000000004,0.024902,-0.260284,-0.002079,-0.004596,0.004396,-28.370001000000002,21.370001000000002,-21.0,2c
2019-07-12_124637:120,-0.411285,0.025908999999999998,-0.264374,-0.003452,-0.00539,0.005067,-28.370001000000002,21.370001000000002,-21.0,2c
2019-07-12_124637:140,-0.41586300000000004,0.023895,-0.268951,-0.005497,-0.006336,0.004915,-28.0,22.18,-20.559998999999998,2c
2019-07-12_124637:160,-0.41943400000000003,0.017792,-0.269958,-0.00687,-0.006793,0.005922,-28.0,22.18,-20.559998999999998,2c
2019-07-12_124637:180,-0.42858900000000005,0.007599,-0.274536,-0.007755,-0.007404000000000001,0.006318,-28.75,21.75,-20.870001000000002,2c
2019-07-12_124637:200,-0.43823199999999995,0.0030210000000000002,-0.27301,-0.007297,-0.006885,0.0058,-28.75,21.75,-20.870001000000002,2c
2019-07-12_124637:220,-0.433167,0.002014,-0.271484,-0.0060149999999999995,-0.005756,0.004518,-28.75,21.75,-20.870001000000002,2c
2019-07-12_124637:240,-0.42147799999999996,0.006072999999999999,-0.266907,-0.004184,-0.003986,0.002443,-28.0,21.75,-20.18,2c
2019-07-12_124637:260,-0.410278,0.016266,-0.260284,-0.0032689999999999998,-0.002246,0.0011,-28.0,21.75,-20.18,2c
2019-07-12_124637:280,-0.40368699999999996,0.020844,-0.257233,-0.003055,-0.001789,0.002687,-28.370001000000002,22.18,-20.870001000000002,2c
2019-07-12_124637:300,-0.406219,0.020844,-0.256744,-0.003208,-0.002857,0.004457,-28.370001000000002,22.18,-20.870001000000002,2c
2019-07-12_124637:320,-0.412811,0.020844,-0.260803,-0.0042450000000000005,-0.004993,0.004518,-28.370001000000002,22.18,-20.870001000000002,2c
2019-07-12_124637:340,-0.415375,0.018799,-0.2659,-0.0051,-0.006854000000000001,0.004396,-26.870001000000002,22.18,-20.559998999999998,2c
2019-07-12_124637:360,-0.41842700000000005,0.014740000000000001,-0.267914,-0.005832,-0.008136,0.004915,-26.870001000000002,22.18,-20.559998999999998,2c
2019-07-12_124637:380,-0.43927,0.008636,-0.27301,-0.0060149999999999995,-0.008472,0.004793,-28.0,21.75,-20.18,2c
2019-07-12_124637:400,-0.435699,0.008118,-0.270477,-0.005497,-0.006885,0.004518,-28.0,21.75,-20.18,2c
2019-07-12_124637:420,-0.42758199999999996,0.009644,-0.267914,-0.004337,-0.005176,0.003358,-28.0,21.75,-20.18,2c
2019-07-12_124637:440,-0.418915,0.013702,-0.2659,-0.0036049999999999997,-0.003589,0.001893,-27.68,21.75,-20.870001000000002,2c
2019-07-12_124637:460,-0.40316799999999997,0.019806,-0.256744,-0.0036049999999999997,-0.002796,0.003114,-27.68,21.75,-20.870001000000002,2c
2019-07-12_124637:480,-0.404694,0.019806,-0.260284,-0.003116,-0.003925,0.005647,-27.68,22.18,-20.559998999999998,2c
2019-07-12_124637:500,-0.411285,0.017273,-0.263336,-0.00394,-0.00539,0.005739,-27.68,22.18,-20.559998999999998,2c
2019-07-12_124637:520,-0.41232299999999994,0.017273,-0.266907,-0.004825,-0.0070680000000000005,0.004732,-27.68,22.18,-20.559998999999998,2c
2019-07-12_124637:540,-0.423004,0.012695,-0.276062,-0.005497,-0.008197,0.005128,-27.25,21.370001000000002,-20.870001000000002,2c
2019-07-12_124637:560,-0.431641,0.008118,-0.278107,-0.005497,-0.008258,0.005189,-27.25,21.370001000000002,-20.870001000000002,2c
2019-07-12_124637:580,-0.441803,0.006592,-0.28112800000000004,-0.005039,-0.006458,0.004457,-27.68,21.75,-20.18,2c
2019-07-12_124637:600,-0.43774399999999997,0.007111,-0.279633,-0.004184,-0.004657,0.003511,-27.68,21.75,-20.18,2c
2019-07-12_124637:620,-0.42401099999999997,0.009644,-0.274536,-0.003452,-0.002857,0.002229,-27.68,21.75,-20.18,2c
2019-07-12_124637:640,-0.423492,0.009644,-0.274536,-0.003055,-0.0013310000000000002,0.001893,-28.75,22.18,-20.559998999999998,2c
2019-07-12_124637:660,-0.414337,0.007599,-0.268951,-0.002872,0.00047000000000000004,0.003694,-28.75,22.18,-20.559998999999998,2c
2019-07-12_124637:680,-0.416901,0.005065999999999999,-0.274536,-0.002659,0.000866,0.0038469999999999997,-28.370001000000002,22.18,-20.559998999999998,2c
2019-07-12_124637:700,-0.423004,0.005065999999999999,-0.277588,-0.0027199999999999998,0.000348,0.0017100000000000001,-28.370001000000002,22.18,-20.559998999999998,2c
2019-07-12_124637:720,-0.426544,0.0025329999999999997,-0.285706,-0.002323,-0.000537,0.001161,-28.370001000000002,22.18,-20.559998999999998,2c
2019-07-12_124637:740,-0.44384799999999996,-0.004547,-0.28979499999999997,-0.002018,-0.000537,0.001375,-28.0,21.75,-19.370001000000002,2c
2019-07-12_124637:760,-0.46060200000000007,-0.010162000000000001,-0.28112800000000004,-0.000736,0.002118,6.2e-05,-28.0,21.75,-19.370001000000002,2c
2019-07-12_124637:780,-0.45806899999999995,-0.006072999999999999,-0.276581,0.002316,0.006451,-0.002349,-28.370001000000002,21.75,-20.559998999999998,2c
2019-07-12_124637:800,-0.43774399999999997,0.006072999999999999,-0.253693,0.006344,0.010357,-0.005675,-28.370001000000002,21.75,-20.559998999999998,2c
2019-07-12_124637:820,-0.414337,0.031006,-0.240479,0.009670999999999999,0.012218999999999999,-0.0073230000000000005,-28.370001000000002,21.75,-20.559998999999998,2c
2019-07-12_124637:840,-0.39502,0.039642000000000004,-0.230804,0.0108,0.01167,-0.00598,-28.75,21.75,-19.370001000000002,2c
2019-07-12_124637:860,-0.396057,0.050842,-0.22164899999999998,0.009732,0.009961,-0.002593,-28.75,21.75,-19.370001000000002,2c
2019-07-12_124637:880,-0.40063499999999996,0.051849,-0.220123,0.0068319999999999995,0.0069700000000000005,0.000642,-29.870001000000002,22.18,-18.18,2c
2019-07-12_124637:900,-0.410278,0.051330999999999995,-0.22164899999999998,0.0033840000000000003,0.003186,0.003511,-29.870001000000002,22.18,-18.18,2c
2019-07-12_124637:920,-0.42401099999999997,0.045226999999999996,-0.227753,-0.00095,-0.00047599999999999997,0.006135,-29.870001000000002,22.18,-18.18,2c
2019-07-12_124637:940,-0.43774399999999997,0.036591000000000005,-0.23233,-0.004978,-0.00307,0.008058,-29.870001000000002,21.370001000000002,-19.370001000000002,2c
2019-07-12_124637:960,-0.441284,0.031494,-0.235382,-0.008395999999999999,-0.004383,0.008577,-29.870001000000002,21.370001000000002,-19.370001000000002,2c
2019-07-12_124637:980,-0.441803,0.023375999999999997,-0.239441,-0.011203,-0.004229999999999999,0.007448000000000001,-29.870001000000002,21.370001000000002,-18.18,2c
2019-07-12_124638:000,-0.441284,0.016266,-0.23895300000000003,-0.013187,-0.003467,0.006929,-29.870001000000002,21.370001000000002,-18.18,2c
2019-07-12_124638:020,-0.43518100000000004,0.007599,-0.23791500000000002,-0.013645,-0.002307,0.00757,-29.870001000000002,21.370001000000002,-18.18,2c
2019-07-12_124638:040,-0.434692,0.0035399999999999997,-0.23791500000000002,-0.012668,-0.000781,0.007509,-29.5,22.18,-19.75,2c
2019-07-12_124638:060,-0.43011499999999997,0.005065999999999999,-0.23284899999999997,-0.010868000000000001,0.000989,0.006868000000000001,-29.5,22.18,-19.75,2c
2019-07-12_124638:080,-0.42858900000000005,0.007111,-0.231323,-0.008548,0.001996,0.006257,-30.25,21.68,-18.18,2c
2019-07-12_124638:100,-0.426544,0.011169,-0.227264,-0.006626000000000001,0.0018739999999999998,0.007326000000000001,-30.25,21.68,-18.18,2c
2019-07-12_124638:120,-0.429596,0.011169,-0.22879000000000002,-0.004825,0.000714,0.009492,-30.25,21.68,-18.18,2c
2019-07-12_124638:140,-0.433167,0.012695,-0.22979699999999997,-0.003116,-0.0009339999999999999,0.010773999999999999,-29.5,22.059998999999998,-17.75,2c
2019-07-12_124638:160,-0.446899,0.013702,-0.227753,-0.001865,-0.001911,0.011354000000000001,-29.5,22.059998999999998,-17.75,2c
2019-07-12_124638:180,-0.446899,0.014221000000000001,-0.227264,-0.000553,-0.00185,0.01291,-30.25,21.68,-18.18,2c
2019-07-12_124638:200,-0.445862,0.015228,-0.224701,-0.000614,-0.001209,0.013429,-30.25,21.68,-18.18,2c
2019-07-12_124638:220,-0.452484,0.015747,-0.226227,-0.001529,0.000653,0.016023,-30.25,21.68,-18.18,2c
2019-07-12_124638:240,-0.45553599999999994,0.016753999999999998,-0.224701,-0.001957,0.001599,0.017,-29.18,23.18,-18.559998999999998,2c
2019-07-12_124638:260,-0.44995100000000005,0.013702,-0.216583,-0.003879,0.004132,0.01819,-29.18,23.18,-18.559998999999998,2c
2019-07-12_124638:280,-0.44995100000000005,0.009644,-0.21759,-0.004886,0.005231,0.017946,-29.18,22.75,-17.75,2c
2019-07-12_124638:300,-0.441284,0.010651,-0.21402,-0.005679999999999999,0.005902,0.017274,-29.18,22.75,-17.75,2c
2019-07-12_124638:320,-0.44232200000000005,0.007599,-0.210968,-0.006229,0.006756,0.017,-29.18,22.75,-17.75,2c
2019-07-12_124638:340,-0.44384799999999996,-0.001007,-0.21048000000000003,-0.006076,0.007916,0.016481,-29.18,24.0,-17.0,2c
2019-07-12_124638:360,-0.441284,-0.0030210000000000002,-0.209961,-0.005375,0.007763,0.015413,-29.18,24.0,-17.0,2c
2019-07-12_124638:380,-0.431122,-0.015747,-0.207916,-0.003788,0.006024,0.013887,-29.18,23.68,-17.0,2c
2019-07-12_124638:400,-0.439758,-0.017273,-0.20080599999999998,-0.001407,0.004712,0.012483,-29.18,23.68,-17.0,2c
2019-07-12_124638:420,-0.441284,-0.016266,-0.198273,0.000576,0.005261,0.012025,-29.18,23.68,-17.0,2c
2019-07-12_124638:440,-0.438751,-0.014221000000000001,-0.197266,0.0023769999999999998,0.006573000000000001,0.011445,-29.18,24.370001000000002,-16.18,2c
2019-07-12_124638:460,-0.423004,0.0030210000000000002,-0.184021,0.002438,0.007245000000000001,0.010713,-29.18,24.370001000000002,-16.18,2c
2019-07-12_124638:480,-0.42147799999999996,0.009644,-0.186584,-6.500000000000001e-05,0.0027890000000000002,0.011506,-29.559998999999998,24.68,-15.37,2c
2019-07-12_124638:500,-0.41384899999999997,0.013702,-0.213013,-0.005161,-0.00484,0.015077000000000002,-29.559998999999998,24.68,-15.37,2c
2019-07-12_124638:520,-0.431641,0.014221000000000001,-0.216583,-0.010471,-0.008258,0.018007,-29.559998999999998,24.68,-15.37,2c
2019-07-12_124638:540,-0.461639,-0.001495,-0.223694,-0.016513999999999997,-0.007984,0.018129,-28.870001000000002,24.68,-15.0,2c
2019-07-12_124638:560,-0.45706199999999997,-0.005065999999999999,-0.223694,-0.021700999999999998,-0.008594,0.0188,-28.870001000000002,24.68,-15.0,2c
2019-07-12_124638:580,-0.46469099999999997,-0.015228,-0.230804,-0.025791,-0.008594,0.020387,-28.5,24.68,-16.18,2c
2019-07-12_124638:600,-0.466217,-0.023895,-0.23690799999999998,-0.028720999999999997,-0.007465,0.019533000000000002,-28.5,24.68,-16.18,2c
2019-07-12_124638:620,-0.45907600000000004,-0.035583,-0.23284899999999997,-0.030795999999999997,-0.004657,0.017396000000000002,-28.5,24.68,-16.18,2c
2019-07-12_124638:640,-0.453003,-0.038116000000000004,-0.22979699999999997,-0.031192,-0.002857,0.017549000000000002,-27.370001000000002,25.870001000000002,-16.18,2c
2019-07-12_124638:660,-0.439758,-0.041168,-0.227753,-0.031314999999999996,-0.002582,0.018403,-27.370001000000002,25.870001000000002,-16.18,2c
2019-07-12_124638:680,-0.445862,-0.043701,-0.22979699999999997,-0.031162,-0.002002,0.018068,-27.75,25.059998999999998,-16.559998999999998,2c
2019-07-12_124638:700,-0.45401,-0.049805,-0.227264,-0.030307,-0.000202,0.017488,-27.75,25.059998999999998,-16.559998999999998,2c
2019-07-12_124638:720,-0.44995100000000005,-0.054901,-0.226227,-0.028782,0.001446,0.017,-27.75,25.059998999999998,-16.559998999999998,2c
2019-07-12_124638:740,-0.440796,-0.057953,-0.219635,-0.026676,0.001202,0.016603,-27.370001000000002,25.870001000000002,-18.18,2c
2019-07-12_124638:760,-0.434174,-0.066589,-0.21859699999999999,-0.023197,0.000195,0.017152,-27.370001000000002,25.870001000000002,-18.18,2c
2019-07-12_124638:780,-0.44433599999999995,-0.083374,-0.224701,-0.016971,-8e-05,0.017213,-27.0,24.75,-17.25,2c
2019-07-12_124638:800,-0.453003,-0.09201000000000001,-0.226746,-0.010256999999999999,0.001385,0.014497,-27.0,24.75,-17.25,2c
2019-07-12_124638:820,-0.46469099999999997,-0.095581,-0.22216799999999998,-0.003483,0.004254,0.01056,-27.0,24.75,-17.25,2c
2019-07-12_124638:840,-0.462646,-0.09353600000000001,-0.22421300000000002,0.003109,0.00758,0.007965999999999999,-27.75,25.18,-18.5,2c
2019-07-12_124638:860,-0.46060200000000007,-0.082855,-0.224701,0.008145,0.009686,0.004335,-27.75,25.18,-18.5,2c
2019-07-12_124638:880,-0.462646,-0.069641,-0.22116100000000002,0.01022,0.010570999999999999,0.000306,-27.75,25.559998999999998,-18.059998999999998,2c
2019-07-12_124638:900,-0.47280900000000003,-0.043701,-0.21554600000000002,0.009609999999999999,0.010968,-0.002196,-27.75,25.559998999999998,-18.059998999999998,2c
2019-07-12_124638:920,-0.46823100000000006,-0.035065,-0.20486500000000002,0.0068319999999999995,0.010296,-0.003386,-27.75,25.559998999999998,-18.059998999999998,2c
2019-07-12_124638:940,-0.45907600000000004,-0.027954000000000003,-0.194702,0.003445,0.008556999999999999,-0.0034170000000000003,-27.75,25.870001000000002,-17.0,2c
2019-07-12_124638:960,-0.452484,-0.024384,-0.18454,5.7999999999999994e-05,0.00639,-0.0024100000000000002,-27.75,25.870001000000002,-17.0,2c
2019-07-12_124638:980,-0.44995100000000005,-0.021851,-0.17944300000000002,-0.003116,0.003735,-0.001738,-27.75,25.5,-16.18,2c
2019-07-12_124639:000,-0.45043900000000003,-0.022858,-0.17385899999999999,-0.005893,0.001538,-0.001738,-27.75,25.5,-16.18,2c
2019-07-12_124639:020,-0.44281000000000004,-0.025421,-0.168274,-0.007755,-0.0009339999999999999,-0.0011279999999999999,-27.75,25.5,-16.18,2c
2019-07-12_124639:040,-0.44638100000000003,-0.028961,-0.167267,-0.008609,-0.0030399999999999997,-0.000334,-28.5,25.870001000000002,-16.059998999999998,2c
2019-07-12_124639:060,-0.448425,-0.028442000000000002,-0.163696,-0.009006,-0.003833,-0.000762,-28.5,25.870001000000002,-16.059998999999998,2c
2019-07-12_124639:080,-0.452484,-0.031494,-0.163696,-0.008609,-0.003925,-0.001006,-28.5,26.18,-16.870001000000002,2c
2019-07-12_124639:100,-0.452484,-0.029480000000000003,-0.168274,-0.007358,-0.004169,0.000642,-28.5,26.18,-16.870001000000002,2c
2019-07-12_124639:120,-0.461639,-0.022858,-0.175903,-0.0069,-0.003925,0.0025039999999999997,-28.5,26.18,-16.870001000000002,2c
2019-07-12_124639:140,-0.46417200000000003,-0.017792,-0.180481,-0.007084,-0.003467,0.002778,-27.75,25.059998999999998,-16.870001000000002,2c
2019-07-12_124639:160,-0.45706199999999997,-0.016753999999999998,-0.177948,-0.009159,-0.002582,0.002778,-27.75,25.059998999999998,-16.870001000000002,2c
2019-07-12_124639:180,-0.454529,-0.015228,-0.178955,-0.009739,-0.0023989999999999997,0.002443,-29.25,25.18,-16.059998999999998,2c
2019-07-12_124639:200,-0.44891400000000004,-0.016266,-0.175903,-0.011814,-0.0030399999999999997,-0.000151,-29.25,25.18,-16.059998999999998,2c
2019-07-12_124639:220,-0.447906,-0.016266,-0.176422,-0.013065,-0.004047,-0.001402,-29.25,25.18,-16.059998999999998,2c
2019-07-12_124639:240,-0.455017,-0.020844,-0.17843599999999998,-0.013187,-0.004169,-0.0014939999999999999,-29.25,25.059998999999998,-16.5,2c
2019-07-12_124639:260,-0.45095799999999997,-0.024902,-0.17843599999999998,-0.012577,-0.006275,-0.001402,-29.25,25.059998999999998,-16.5,2c
2019-07-12_124639:280,-0.452484,-0.025421,-0.17944300000000002,-0.011875,-0.007404000000000001,-0.001464,-30.0,24.5,-17.25,2c
2019-07-12_124639:300,-0.46060200000000007,-0.024902,-0.18096900000000002,-0.009678,-0.010517,-0.002196,-30.0,24.5,-17.25,2c
2019-07-12_124639:320,-0.46926899999999994,-0.021851,-0.17944300000000002,-0.008152,-0.011188,-0.0017989999999999998,-30.0,24.5,-17.25,2c
2019-07-12_124639:340,-0.475372,-0.018799,-0.17996199999999998,-0.006809,-0.010974,-0.0024100000000000002,-29.25,23.75,-16.5,2c
2019-07-12_124639:360,-0.47943100000000005,-0.014221000000000001,-0.177429,-0.005954,-0.009601,-0.002593,-29.25,23.75,-16.5,2c
2019-07-12_124639:380,-0.477386,-0.010651,-0.178955,-0.005497,-0.00893,-0.00186,-29.25,24.5,-16.559998999999998,2c
2019-07-12_124639:400,-0.47079499999999996,-0.012177,-0.176422,-0.004612,-0.007801000000000001,0.000795,-29.25,24.5,-16.559998999999998,2c
2019-07-12_124639:420,-0.461639,-0.014740000000000001,-0.174377,-0.003147,-0.007587000000000001,0.002168,-29.25,24.5,-16.559998999999998,2c
2019-07-12_124639:440,-0.446899,-0.017792,-0.169281,-0.002323,-0.008014,0.0026260000000000003,-29.25,23.75,-16.559998999999998,2c
2019-07-12_124639:460,-0.435699,-0.015747,-0.1698,0.00018,-0.010974,0.004457,-29.25,23.75,-16.559998999999998,2c
2019-07-12_124639:480,-0.44433599999999995,-0.0030210000000000002,-0.17538499999999999,0.000454,-0.012165,0.004793,-29.25,23.25,-17.370001000000002,2c
2019-07-12_124639:500,-0.458588,0.005065999999999999,-0.17996199999999998,-0.002079,-0.012714,0.00403,-29.25,23.25,-17.370001000000002,2c
2019-07-12_124639:520,-0.462128,0.0025329999999999997,-0.187073,-0.0051,-0.011463,0.004609,-29.25,23.25,-17.370001000000002,2c
2019-07-12_124639:540,-0.457581,-0.006592,-0.189117,-0.006229,-0.011371,0.006868000000000001,-29.559998999999998,24.68,-18.18,2c
2019-07-12_124639:560,-0.45196499999999995,-0.024384,-0.192688,-0.005222,-0.011798000000000001,0.007722,-29.559998999999998,24.68,-18.18,2c
2019-07-12_124639:580,-0.454529,-0.031494,-0.194214,-0.004275999999999999,-0.011859,0.007265000000000001,-29.25,24.5,-17.0,2c
2019-07-12_124639:600,-0.45553599999999994,-0.025908999999999998,-0.201324,-0.001407,-0.010974,0.006379,-29.25,24.5,-17.0,2c
2019-07-12_124639:620,-0.45706199999999997,-0.019806,-0.201324,-0.000736,-0.009326000000000001,0.005586,-29.25,24.5,-17.0,2c
2019-07-12_124639:640,-0.455017,-0.016753999999999998,-0.201324,-0.0008269999999999999,-0.008472,0.005128,-29.25,24.5,-17.370001000000002,2c
2019-07-12_124639:660,-0.453491,-0.016266,-0.200317,-0.0018039999999999998,-0.007465,0.004915,-29.25,24.5,-17.370001000000002,2c
2019-07-12_124639:680,-0.45401,-0.020325,-0.20285,-0.002262,-0.007862000000000001,0.004915,-29.25,24.18,-17.75,2c
2019-07-12_124639:700,-0.45605500000000004,-0.023895,-0.20385699999999998,-0.002018,-0.009113,0.003297,-29.25,24.18,-17.75,2c
2019-07-12_124639:720,-0.46060200000000007,-0.026427999999999997,-0.20486500000000002,-0.0011330000000000001,-0.009876000000000001,0.0017100000000000001,-29.25,24.18,-17.75,2c
2019-07-12_124639:740,-0.467224,-0.021332,-0.205902,-0.00095,-0.010059,0.000795,-28.5,24.5,-17.25,2c
2019-07-12_124639:760,-0.469757,-0.014740000000000001,-0.20385699999999998,-0.000675,-0.009143,-0.0005480000000000001,-28.5,24.5,-17.25,2c
2019-07-12_124639:780,-0.47180200000000005,-0.012695,-0.203369,-0.001072,-0.008716,-0.000731,-28.5,24.5,-17.25,2c
2019-07-12_124639:800,-0.47280900000000003,-0.009644,-0.197266,-0.001743,-0.0070680000000000005,-0.000212,-28.870001000000002,24.5,-18.18,2c
2019-07-12_124639:820,-0.46469099999999997,-0.009644,-0.193176,-0.002323,-0.006336,0.000184,-28.870001000000002,24.5,-18.18,2c
2019-07-12_124639:840,-0.45095799999999997,-0.006592,-0.186584,-0.002811,-0.005359,0.000459,-28.059998999999998,24.18,-17.75,2c
2019-07-12_124639:860,-0.44638100000000003,-0.007111,-0.183533,-0.0036659999999999996,-0.004993,0.000459,-28.059998999999998,24.18,-17.75,2c
2019-07-12_124639:880,-0.44638100000000003,-0.008118,-0.185059,-0.004184,-0.005176,0.000795,-29.559998999999998,24.370001000000002,-17.75,2c
2019-07-12_124639:900,-0.440796,-0.009125,-0.18454,-0.004337,-0.006336,0.001588,-29.559998999999998,24.370001000000002,-17.75,2c
2019-07-12_124639:920,-0.446899,-0.012177,-0.189636,-0.0036659999999999996,-0.007739,0.001497,-29.559998999999998,24.370001000000002,-17.75,2c
2019-07-12_124639:940,-0.448425,-0.012695,-0.195221,-0.003452,-0.008533,0.001375,-28.5,24.5,-18.559998999999998,2c
2019-07-12_124639:960,-0.445862,-0.011687999999999999,-0.198273,-0.001865,-0.009937,0.003023,-28.5,24.5,-18.559998999999998,2c
2019-07-12_124639:980,-0.448425,-0.011687999999999999,-0.204376,-0.001468,-0.010394,0.003114,-28.5,24.5,-18.559998999999998,2c
2019-07-12_124640:000,-0.445374,-0.010162000000000001,-0.205902,-0.001072,-0.009723,0.0027170000000000002,-30.0,23.68,-17.370001000000002,2c
2019-07-12_124640:020,-0.445862,-0.008118,-0.20944200000000002,-0.001194,-0.008808,0.002443,-30.0,23.68,-17.370001000000002,2c
2019-07-12_124640:040,-0.449432,-0.007599,-0.209961,-0.001468,-0.008258,0.002778,-28.870001000000002,23.75,-17.75,2c
2019-07-12_124640:060,-0.44995100000000005,-0.009125,-0.209961,-0.001865,-0.0076170000000000005,0.00345,-28.870001000000002,23.75,-17.75,2c
2019-07-12_124640:080,-0.454529,-0.010651,-0.21249400000000002,-0.002353,-0.007220999999999999,0.0039689999999999994,-28.059998999999998,24.18,-17.75,2c
2019-07-12_124640:100,-0.459595,-0.011687999999999999,-0.21249400000000002,-0.0027199999999999998,-0.007220999999999999,0.004335,-28.059998999999998,24.18,-17.75,2c
2019-07-12_124640:120,-0.46469099999999997,-0.012695,-0.208954,-0.002475,-0.007220999999999999,0.004182,-28.059998999999998,24.18,-17.75,2c
2019-07-12_124640:140,-0.465179,-0.011687999999999999,-0.209961,-0.002323,-0.006793,0.004396,-29.25,24.059998999999998,-17.75,2c
2019-07-12_124640:160,-0.46060200000000007,-0.014221000000000001,-0.203369,-0.001865,-0.006793,0.004945000000000001,-29.25,24.059998999999998,-17.75,2c
2019-07-12_124640:180,-0.458588,-0.013213999999999998,-0.20385699999999998,-0.00159,-0.006548999999999999,0.004854,-29.25,24.059998999999998,-17.75,2c
2019-07-12_124640:200,-0.46823100000000006,-0.011169,-0.201324,-0.001285,-0.0061530000000000005,0.005739,-29.25,24.370001000000002,-17.75,2c
2019-07-12_124640:220,-0.469757,-0.008118,-0.19775399999999999,-0.001529,-0.00539,0.006868000000000001,-29.25,24.370001000000002,-17.75,2c
2019-07-12_124640:240,-0.46569799999999995,-0.0035399999999999997,-0.19622799999999999,-0.002597,-0.003986,0.008638,-29.25,24.370001000000002,-18.559998999999998,2c
2019-07-12_124640:260,-0.45605500000000004,-0.0035399999999999997,-0.195221,-0.004703,-0.002338,0.008729,-29.25,24.370001000000002,-18.559998999999998,2c
2019-07-12_124640:280,-0.44433599999999995,-0.007599,-0.192688,-0.007084,-0.002307,0.007783,-29.25,24.370001000000002,-18.559998999999998,2c
2019-07-12_124640:300,-0.43823199999999995,-0.013213999999999998,-0.19165,-0.008609,-0.002857,0.006379,-29.25,24.68,-17.370001000000002,2c
2019-07-12_124640:320,-0.43774399999999997,-0.020325,-0.190125,-0.00922,-0.004321,0.0058,-29.25,24.68,-17.370001000000002,2c
2019-07-12_124640:340,-0.43823199999999995,-0.024384,-0.192169,-0.008274,-0.005817,0.005647,-27.75,24.370001000000002,-19.0,2c
2019-07-12_124640:360,-0.441803,-0.024902,-0.193695,-0.006412,-0.006945999999999999,0.005586,-27.75,24.370001000000002,-19.0,2c
2019-07-12_124640:380,-0.441803,-0.023895,-0.19927999999999998,-0.005039,-0.007923000000000001,0.005342,-27.75,24.370001000000002,-19.0,2c
2019-07-12_124640:400,-0.44232200000000005,-0.020325,-0.203369,-0.004062,-0.009052,0.004945000000000001,-28.870001000000002,24.370001000000002,-17.0,2c
2019-07-12_124640:420,-0.44281000000000004,-0.017792,-0.20639000000000002,-0.003208,-0.009265,0.005311,-28.870001000000002,24.370001000000002,-17.0,2c
2019-07-12_124640:440,-0.44638100000000003,-0.017792,-0.209961,-0.0032689999999999998,-0.009662,0.005189,-29.25,24.68,-17.0,2c
2019-07-12_124640:460,-0.45095799999999997,-0.020325,-0.210968,-0.0036659999999999996,-0.009143,0.005403,-29.25,24.68,-17.0,2c
2019-07-12_124640:480,-0.455017,-0.023375999999999997,-0.212006,-0.0036659999999999996,-0.008808,0.005922,-29.25,24.68,-17.0,2c
2019-07-12_124640:500,-0.462128,-0.025421,-0.213013,-0.0037270000000000003,-0.008472,0.0058,-28.5,24.059998999999998,-19.0,2c
2019-07-12_124640:520,-0.466217,-0.025421,-0.21402,-0.0036659999999999996,-0.0076170000000000005,0.005311,-28.5,24.059998999999998,-19.0,2c
2019-07-12_124640:540,-0.465179,-0.023375999999999997,-0.21249400000000002,-0.003208,-0.006731999999999999,0.004518,-27.0,25.059998999999998,-17.0,2c
2019-07-12_124640:560,-0.463654,-0.020325,-0.209961,-0.0033299999999999996,-0.006214,0.003511,-27.0,25.059998999999998,-17.0,2c
2019-07-12_124640:580,-0.461639,-0.016266,-0.20742800000000003,-0.003208,-0.004993,0.003114,-27.0,25.059998999999998,-17.0,2c
2019-07-12_124640:600,-0.45654300000000003,-0.014221000000000001,-0.204376,-0.003788,-0.004566,0.003175,-28.5,24.059998999999998,-17.0,2c
2019-07-12_124640:620,-0.452484,-0.013213999999999998,-0.20080599999999998,-0.004398,-0.0038640000000000002,0.00345,-28.5,24.059998999999998,-17.0,2c
2019-07-12_124640:640,-0.445862,-0.013213999999999998,-0.19775399999999999,-0.005497,-0.003833,0.00403,-28.870001000000002,24.68,-17.75,2c
2019-07-12_124640:660,-0.443329,-0.017273,-0.196747,-0.006504,-0.003986,0.004945000000000001,-28.870001000000002,24.68,-17.75,2c
2019-07-12_124640:680,-0.44384799999999996,-0.020844,-0.196747,-0.006687,-0.004596,0.005311,-28.870001000000002,24.68,-17.75,2c
2019-07-12_124640:700,-0.435699,-0.024902,-0.19622799999999999,-0.006504,-0.005176,0.004915,-29.25,24.68,-17.75,2c
2019-07-12_124640:720,-0.441284,-0.026427999999999997,-0.19775399999999999,-0.005436,-0.0061530000000000005,0.004548,-29.25,24.68,-17.75,2c
2019-07-12_124640:740,-0.440796,-0.028442000000000002,-0.203369,-0.004184,-0.007404000000000001,0.004548,-28.059998999999998,23.68,-18.18,2c
2019-07-12_124640:760,-0.441803,-0.026917,-0.203369,-0.002872,-0.008594,0.004182,-28.059998999999998,23.68,-18.18,2c
2019-07-12_124640:780,-0.447388,-0.022369,-0.21048000000000003,-0.0016820000000000001,-0.009998,0.003023,-28.059998999999998,23.68,-18.18,2c
2019-07-12_124640:800,-0.44995100000000005,-0.018799,-0.212006,-0.00159,-0.009937,0.0027170000000000002,-28.5,25.059998999999998,-17.0,2c
2019-07-12_124640:820,-0.449432,-0.019318000000000002,-0.21505700000000003,-0.0016820000000000001,-0.009326000000000001,0.003358,-28.5,25.059998999999998,-17.0,2c
2019-07-12_124640:840,-0.453003,-0.01828,-0.216583,-0.002018,-0.008258,0.003297,-29.25,24.68,-17.0,2c
2019-07-12_124640:860,-0.452484,-0.020844,-0.21453899999999998,-0.002597,-0.00719,0.003175,-29.25,24.68,-17.0,2c
2019-07-12_124640:880,-0.453491,-0.021851,-0.21453899999999998,-0.002933,-0.006275,0.003175,-29.25,24.68,-17.0,2c
2019-07-12_124640:900,-0.45706199999999997,-0.021332,-0.21402,-0.002933,-0.006092,0.002778,-28.059998999999998,24.059998999999998,-18.559998999999998,2c
2019-07-12_124640:920,-0.45706199999999997,-0.020844,-0.21402,-0.003116,-0.005817,0.0026260000000000003,-28.059998999999998,24.059998999999998,-18.559998999999998,2c
2019-07-12_124640:940,-0.45806899999999995,-0.016753999999999998,-0.213531,-0.003055,-0.005878,0.0027170000000000002,-28.870001000000002,24.370001000000002,-17.75,2c
2019-07-12_124640:960,-0.45654300000000003,-0.016753999999999998,-0.212006,-0.003544,-0.005634,0.002778,-28.870001000000002,24.370001000000002,-17.75,2c
2019-07-12_124640:980,-0.458588,-0.014740000000000001,-0.20944200000000002,-0.004184,-0.004596,0.002778,-28.870001000000002,24.370001000000002,-17.75,2c
2019-07-12_124641:000,-0.448425,-0.016266,-0.20538299999999998,-0.004825,-0.0035280000000000003,0.003297,-28.5,24.059998999999998,-17.75,2c
2019-07-12_124641:020,-0.44281000000000004,-0.020325,-0.203369,-0.0052829999999999995,-0.0030399999999999997,0.003572,-28.5,24.059998999999998,-17.75,2c
2019-07-12_124641:040,-0.44281000000000004,-0.019318000000000002,-0.20233199999999998,-0.005375,-0.003467,0.002839,-28.870001000000002,24.68,-18.18,2c
2019-07-12_124641:060,-0.43927,-0.020844,-0.201324,-0.0051,-0.004229999999999999,0.0029620000000000002,-28.870001000000002,24.68,-18.18,2c
2019-07-12_124641:080,-0.440796,-0.020844,-0.20285,-0.004337,-0.005054,0.003633,-28.870001000000002,24.68,-18.18,2c
2019-07-12_124641:100,-0.441284,-0.019318000000000002,-0.20233199999999998,-0.003483,-0.006214,0.003694,-28.059998999999998,24.059998999999998,-18.559998999999998,2c
2019-07-12_124641:120,-0.44281000000000004,-0.01828,-0.20285,-0.002811,-0.007281999999999999,0.0038469999999999997,-28.059998999999998,24.059998999999998,-18.559998999999998,2c
2019-07-12_124641:140,-0.443329,-0.017792,-0.20742800000000003,-0.002353,-0.008594,0.004091,-28.5,24.370001000000002,-17.370001000000002,2c
2019-07-12_124641:160,-0.445374,-0.015228,-0.20843499999999998,-0.002536,-0.009509,0.004091,-28.5,24.370001000000002,-17.370001000000002,2c
2019-07-12_124641:180,-0.45095799999999997,-0.014740000000000001,-0.21453899999999998,-0.002872,-0.009601,0.004091,-28.5,24.370001000000002,-17.370001000000002,2c
2019-07-12_124641:200,-0.452484,-0.013213999999999998,-0.21554600000000002,-0.0037270000000000003,-0.009265,0.003908,-29.25,24.68,-17.75,2c
2019-07-12_124641:220,-0.45401,-0.012695,-0.217072,-0.004398,-0.008747,0.0034189999999999997,-29.25,24.68,-17.75,2c
2019-07-12_124641:240,-0.455017,-0.013702,-0.21810900000000003,-0.005497,-0.007739,0.003572,-27.75,24.68,-18.18,2c
2019-07-12_124641:260,-0.45605500000000004,-0.016753999999999998,-0.21453899999999998,-0.006351,-0.0070680000000000005,0.0038159999999999995,-27.75,24.68,-18.18,2c
2019-07-12_124641:280,-0.45654300000000003,-0.018799,-0.216583,-0.006626000000000001,-0.006214,0.004091,-27.75,24.68,-18.18,2c
2019-07-12_124641:300,-0.45706199999999997,-0.019318000000000002,-0.213531,-0.006412,-0.00539,0.0039689999999999994,-28.5,24.370001000000002,-17.75,2c
2019-07-12_124641:320,-0.454529,-0.019806,-0.210968,-0.005893,-0.00484,0.004152,-28.5,24.370001000000002,-17.75,2c
2019-07-12_124641:340,-0.449432,-0.014740000000000001,-0.20944200000000002,-0.0052829999999999995,-0.004657,0.0038469999999999997,-28.059998999999998,24.68,-17.370001000000002,2c
2019-07-12_124641:360,-0.446899,-0.011687999999999999,-0.205902,-0.005222,-0.004657,0.004182,-28.059998999999998,24.68,-17.370001000000002,2c
2019-07-12_124641:380,-0.44232200000000005,-0.011169,-0.20538299999999998,-0.005619,-0.00484,0.004732,-28.059998999999998,24.68,-17.370001000000002,2c
2019-07-12_124641:400,-0.441284,-0.012695,-0.20486500000000002,-0.0064730000000000005,-0.0052369999999999995,0.005739,-29.25,24.68,-19.0,2c
2019-07-12_124641:420,-0.43823199999999995,-0.020325,-0.20486500000000002,-0.0069,-0.005573,0.006593000000000001,-29.25,24.68,-19.0,2c
2019-07-12_124641:440,-0.437225,-0.022858,-0.205902,-0.006687,-0.006670999999999999,0.006257,-28.5,24.370001000000002,-18.18,2c
2019-07-12_124641:460,-0.440796,-0.025908999999999998,-0.20742800000000003,-0.006168,-0.007129000000000001,0.005922,-28.5,24.370001000000002,-18.18,2c
2019-07-12_124641:480,-0.44281000000000004,-0.027954000000000003,-0.210968,-0.005039,-0.007862000000000001,0.005678,-28.5,24.370001000000002,-18.18,2c
2019-07-12_124641:500,-0.44384799999999996,-0.026427999999999997,-0.213531,-0.003788,-0.008533,0.005586,-28.5,24.059998999999998,-17.75,2c
2019-07-12_124641:520,-0.448425,-0.023375999999999997,-0.21759,-0.002811,-0.008594,0.005586,-28.5,24.059998999999998,-17.75,2c
2019-07-12_124641:540,-0.445374,-0.023375999999999997,-0.21810900000000003,-0.002414,-0.007801000000000001,0.004793,-27.75,24.059998999999998,-18.18,2c
2019-07-12_124641:560,-0.44638100000000003,-0.022369,-0.21859699999999999,-0.002536,-0.007281999999999999,0.004182,-27.75,24.059998999999998,-18.18,2c
2019-07-12_124641:580,-0.455017,-0.021332,-0.22116100000000002,-0.00275,-0.006793,0.0038469999999999997,-27.75,24.059998999999998,-18.18,2c
2019-07-12_124641:600,-0.44995100000000005,-0.020844,-0.22116100000000002,-0.003147,-0.006397,0.00345,-28.059998999999998,24.370001000000002,-16.559998999999998,2c
2019-07-12_124641:620,-0.45401,-0.019806,-0.220642,-0.003544,-0.0066099999999999996,0.002443,-28.059998999999998,24.370001000000002,-16.559998999999998,2c
2019-07-12_124641:640,-0.454529,-0.018799,-0.220123,-0.004123,-0.006336,0.0019850000000000002,-27.370001000000002,24.370001000000002,-17.370001000000002,2c
2019-07-12_124641:660,-0.452484,-0.017273,-0.21606399999999998,-0.004764,-0.005573,0.002321,-27.370001000000002,24.370001000000002,-17.370001000000002,2c
2019-07-12_124641:680,-0.44891400000000004,-0.01828,-0.21505700000000003,-0.0051,-0.005054,0.002565,-27.370001000000002,24.370001000000002,-17.370001000000002,2c
2019-07-12_124641:700,-0.445862,-0.017792,-0.21402,-0.0052829999999999995,-0.004657,0.002443,-27.370001000000002,24.68,-18.559998999999998,2c
2019-07-12_124641:720,-0.441803,-0.018799,-0.209961,-0.0052829999999999995,-0.004596,0.002687,-27.370001000000002,24.68,-18.559998999999998,2c
2019-07-12_124641:740,-0.440796,-0.020844,-0.20944200000000002,-0.004703,-0.004961999999999999,0.0029620000000000002,-28.059998999999998,24.370001000000002,-17.75,2c
2019-07-12_124641:760,-0.441284,-0.019318000000000002,-0.208954,-0.0042450000000000005,-0.00539,0.003114,-28.059998999999998,24.370001000000002,-17.75,2c
