timestamp,AccX,AccY,AccZ,GyroX,GyroY,GyroZ,MagX,MagY,MagZ,Activity
2019-07-12_115152:240,-0.364014,-0.034058,-0.312653,-0.004764,-0.001605,0.0032359999999999997,-25.25,24.370001000000002,-21.870001000000002,2d
2019-07-12_115152:260,-0.35791,-0.026427999999999997,-0.304535,-0.003879,-0.001666,0.002687,-25.25,24.370001000000002,-21.870001000000002,2d
2019-07-12_115152:280,-0.35791,-0.021332,-0.30654899999999996,-0.004459,-0.00307,0.0034189999999999997,-24.5,24.370001000000002,-22.18,2d
2019-07-12_115152:300,-0.359955,-0.019318000000000002,-0.306061,-0.005679999999999999,-0.004657,0.005006,-24.5,24.370001000000002,-22.18,2d
2019-07-12_115152:320,-0.366058,-0.022858,-0.31012,-0.006962,-0.006885,0.005403,-24.5,24.370001000000002,-22.18,2d
2019-07-12_115152:340,-0.37112399999999995,-0.031006,-0.318268,-0.008029999999999999,-0.008747,0.004152,-26.0,24.0,-21.5,2d
2019-07-12_115152:360,-0.37011700000000003,-0.034546,-0.320282,-0.00748,-0.010272,0.003023,-26.0,24.0,-21.5,2d
2019-07-12_115152:380,-0.377228,-0.036591000000000005,-0.330475,-0.0061070000000000004,-0.011035,0.0027170000000000002,-24.870001000000002,24.0,-22.559998999999998,2d
2019-07-12_115152:400,-0.380798,-0.036072,-0.331482,-0.004581,-0.010394,0.003297,-24.870001000000002,24.0,-22.559998999999998,2d
2019-07-12_115152:420,-0.385376,-0.031494,-0.334534,-0.002994,-0.008869,0.004335,-24.870001000000002,24.0,-22.559998999999998,2d
2019-07-12_115152:440,-0.385376,-0.027954000000000003,-0.33605999999999997,-0.0022010000000000003,-0.006945999999999999,0.004793,-25.25,23.68,-21.5,2d
2019-07-12_115152:460,-0.38028,-0.021332,-0.335022,-0.002872,-0.005725,0.005006,-25.25,23.68,-21.5,2d
2019-07-12_115152:480,-0.381317,-0.020844,-0.33300799999999997,-0.004062,-0.0052369999999999995,0.005678,-25.559998999999998,24.370001000000002,-21.5,2d
2019-07-12_115152:500,-0.384857,-0.024902,-0.329437,-0.005558,-0.004718,0.006257,-25.559998999999998,24.370001000000002,-21.5,2d
2019-07-12_115152:520,-0.384338,-0.028961,-0.326904,-0.0064730000000000005,-0.004444,0.006196,-25.559998999999998,24.370001000000002,-21.5,2d
2019-07-12_115152:540,-0.377747,-0.035583,-0.324371,-0.006626000000000001,-0.004169,0.006044,-24.870001000000002,23.68,-22.18,2d
2019-07-12_115152:560,-0.374695,-0.040161,-0.319794,-0.005741,-0.003925,0.004945000000000001,-24.870001000000002,23.68,-22.18,2d
2019-07-12_115152:580,-0.367584,-0.036072,-0.315216,-0.004459,-0.003314,0.003053,-25.25,24.370001000000002,-22.18,2d
2019-07-12_115152:600,-0.368591,-0.032532,-0.314178,-0.0033909999999999995,-0.002857,0.001771,-25.25,24.370001000000002,-22.18,2d
2019-07-12_115152:620,-0.35739099999999996,-0.023375999999999997,-0.309601,-0.0033909999999999995,-0.003314,0.001497,-25.25,24.370001000000002,-22.18,2d
2019-07-12_115152:640,-0.361969,-0.01828,-0.312653,-0.004337,-0.00484,0.002046,-24.5,24.0,-22.18,2d
2019-07-12_115152:660,-0.370636,-0.018799,-0.314697,-0.005741,-0.006458,0.003175,-24.5,24.0,-22.18,2d
2019-07-12_115152:680,-0.37265,-0.023375999999999997,-0.319275,-0.0067480000000000005,-0.007678,0.0038469999999999997,-24.059998999999998,23.68,-22.18,2d
2019-07-12_115152:700,-0.376221,-0.030487,-0.322845,-0.0067480000000000005,-0.008411,0.003694,-24.059998999999998,23.68,-22.18,2d
2019-07-12_115152:720,-0.374176,-0.032013,-0.32486,-0.005741,-0.008716,0.004091,-24.059998999999998,23.68,-22.18,2d
2019-07-12_115152:740,-0.376221,-0.034058,-0.327911,-0.004337,-0.00838,0.004732,-25.25,23.68,-21.75,2d
2019-07-12_115152:760,-0.377228,-0.031494,-0.32843,-0.00275,-0.007801000000000001,0.004518,-25.25,23.68,-21.75,2d
2019-07-12_115152:780,-0.376221,-0.024902,-0.329437,-0.002414,-0.00719,0.004732,-25.25,24.370001000000002,-22.559998999999998,2d
2019-07-12_115152:800,-0.37674,-0.022369,-0.327423,-0.002994,-0.006731999999999999,0.005525,-25.25,24.370001000000002,-22.559998999999998,2d
2019-07-12_115152:820,-0.379272,-0.020844,-0.330963,-0.004459,-0.006670999999999999,0.005586,-25.25,24.370001000000002,-22.559998999999998,2d
2019-07-12_115152:840,-0.381805,-0.022369,-0.32843,-0.0061070000000000004,-0.006458,0.005189,-24.870001000000002,24.370001000000002,-20.870001000000002,2d
2019-07-12_115152:860,-0.382812,-0.027954000000000003,-0.326904,-0.007267,-0.006,0.005311,-24.870001000000002,24.370001000000002,-20.870001000000002,2d
2019-07-12_115152:880,-0.378265,-0.032532,-0.327423,-0.007358,-0.0055119999999999995,0.0058,-25.559998999999998,24.75,-22.059998999999998,2d
2019-07-12_115152:900,-0.374695,-0.039124,-0.323853,-0.0064730000000000005,-0.0052369999999999995,0.005342,-25.559998999999998,24.75,-22.059998999999998,2d
2019-07-12_115152:920,-0.371643,-0.038116000000000004,-0.321808,-0.005161,-0.004779,0.0039689999999999994,-25.559998999999998,24.75,-22.059998999999998,2d
2019-07-12_115152:940,-0.374176,-0.032532,-0.319794,-0.0037270000000000003,-0.004596,0.002687,-24.870001000000002,24.0,-21.75,2d
2019-07-12_115152:960,-0.37112399999999995,-0.025421,-0.318268,-0.003208,-0.004444,0.001527,-24.870001000000002,24.0,-21.75,2d
2019-07-12_115152:980,-0.368591,-0.014740000000000001,-0.318756,-0.004123,-0.005115,0.0019850000000000002,-24.870001000000002,24.370001000000002,-21.75,2d
2019-07-12_115153:000,-0.37112399999999995,-0.014221000000000001,-0.320282,-0.005832,-0.005359,0.003358,-24.870001000000002,24.370001000000002,-21.75,2d
2019-07-12_115153:020,-0.368073,-0.01828,-0.318268,-0.007877,-0.0055119999999999995,0.0038159999999999995,-24.870001000000002,24.370001000000002,-21.75,2d
2019-07-12_115153:040,-0.371643,-0.026917,-0.323334,-0.009067,-0.0061530000000000005,0.00403,-24.5,24.0,-21.75,2d
2019-07-12_115153:060,-0.370636,-0.034546,-0.321808,-0.008487,-0.006397,0.004396,-24.5,24.0,-21.75,2d
2019-07-12_115153:080,-0.37316900000000003,-0.036591000000000005,-0.32486,-0.006687,-0.0070680000000000005,0.004518,-24.5,23.68,-22.059998999999998,2d
2019-07-12_115153:100,-0.372162,-0.035065,-0.325378,-0.004581,-0.007220999999999999,0.004945000000000001,-24.5,23.68,-22.059998999999998,2d
2019-07-12_115153:120,-0.374695,-0.032013,-0.32995599999999997,-0.002597,-0.007587000000000001,0.005647,-24.5,23.68,-22.059998999999998,2d
2019-07-12_115153:140,-0.372162,-0.026427999999999997,-0.330963,-0.001865,-0.007129000000000001,0.005678,-24.5,24.0,-21.75,2d
2019-07-12_115153:160,-0.379791,-0.022858,-0.330475,-0.002536,-0.006945999999999999,0.006135,-24.5,24.0,-21.75,2d
2019-07-12_115153:180,-0.379791,-0.023375999999999997,-0.332489,-0.003849,-0.006458,0.006470999999999999,-24.5,24.0,-22.870001000000002,2d
2019-07-12_115153:200,-0.377228,-0.027954000000000003,-0.329437,-0.005161,-0.006397,0.005678,-24.5,24.0,-22.870001000000002,2d
2019-07-12_115153:220,-0.380798,-0.028961,-0.32995599999999997,-0.0061070000000000004,-0.006397,0.004457,-24.5,24.0,-22.870001000000002,2d
2019-07-12_115153:240,-0.37316900000000003,-0.034058,-0.326385,-0.006351,-0.005817,0.004671,-24.059998999999998,24.0,-22.5,2d
2019-07-12_115153:260,-0.373688,-0.038635,-0.323853,-0.005679999999999999,-0.005695,0.005006,-24.059998999999998,24.0,-22.5,2d
2019-07-12_115153:280,-0.368591,-0.038635,-0.322327,-0.004337,-0.005298,0.0038469999999999997,-25.25,24.0,-21.370001000000002,2d
2019-07-12_115153:300,-0.37011700000000003,-0.032013,-0.320282,-0.003208,-0.005115,0.001436,-25.25,24.0,-21.370001000000002,2d
2019-07-12_115153:320,-0.368073,-0.021851,-0.321808,-0.002872,-0.005298,-0.000273,-25.25,24.0,-21.370001000000002,2d
2019-07-12_115153:340,-0.367584,-0.015747,-0.32132,-0.0037270000000000003,-0.005725,0.0005200000000000001,-25.25,24.0,-22.059998999999998,2d
2019-07-12_115153:360,-0.368073,-0.014740000000000001,-0.321808,-0.0051,-0.006397,0.0019850000000000002,-25.25,24.0,-22.059998999999998,2d
2019-07-12_115153:380,-0.36911,-0.017792,-0.325378,-0.006626000000000001,-0.006548999999999999,0.002443,-23.370001000000002,24.0,-22.559998999999998,2d
2019-07-12_115153:400,-0.372162,-0.026427999999999997,-0.325897,-0.007601999999999999,-0.006793,0.003053,-23.370001000000002,24.0,-22.559998999999998,2d
2019-07-12_115153:420,-0.372162,-0.032013,-0.327423,-0.00687,-0.006793,0.0034189999999999997,-23.370001000000002,24.0,-22.559998999999998,2d
2019-07-12_115153:440,-0.37316900000000003,-0.033539,-0.327911,-0.005161,-0.0066099999999999996,0.003297,-24.870001000000002,24.370001000000002,-22.870001000000002,2d
2019-07-12_115153:460,-0.36654699999999996,-0.031006,-0.326904,-0.003544,-0.006458,0.0039689999999999994,-24.870001000000002,24.370001000000002,-22.870001000000002,2d
2019-07-12_115153:480,-0.37112399999999995,-0.026427999999999997,-0.330475,-0.002018,-0.0070680000000000005,0.004457,-24.870001000000002,23.25,-22.559998999999998,2d
2019-07-12_115153:500,-0.374176,-0.020325,-0.330963,-0.001865,-0.007465,0.004518,-24.870001000000002,23.25,-22.559998999999998,2d
2019-07-12_115153:520,-0.376221,-0.016266,-0.33197,-0.003147,-0.007465,0.005739,-24.870001000000002,23.25,-22.559998999999998,2d
2019-07-12_115153:540,-0.379791,-0.019806,-0.334534,-0.004886,-0.0070680000000000005,0.007265000000000001,-23.75,24.0,-22.059998999999998,2d
2019-07-12_115153:560,-0.379791,-0.024902,-0.332489,-0.006229,-0.006336,0.007326000000000001,-23.75,24.0,-22.059998999999998,2d
2019-07-12_115153:580,-0.378754,-0.028961,-0.331482,-0.007541,-0.00539,0.006868000000000001,-25.25,24.0,-22.559998999999998,2d
2019-07-12_115153:600,-0.37316900000000003,-0.035583,-0.327423,-0.007541,-0.00484,0.006654,-25.25,24.0,-22.559998999999998,2d
2019-07-12_115153:620,-0.367584,-0.038635,-0.325378,-0.00687,-0.004444,0.0058,-25.25,24.0,-22.559998999999998,2d
2019-07-12_115153:640,-0.363007,-0.038116000000000004,-0.322327,-0.005497,-0.004444,0.004274,-24.870001000000002,23.68,-22.870001000000002,2d
2019-07-12_115153:660,-0.36248800000000003,-0.034058,-0.321808,-0.004062,-0.004566,0.0027170000000000002,-24.870001000000002,23.68,-22.870001000000002,2d
2019-07-12_115153:680,-0.364532,-0.026427999999999997,-0.321808,-0.002994,-0.0052369999999999995,0.001314,-24.059998999999998,24.370001000000002,-22.059998999999998,2d
2019-07-12_115153:700,-0.36349499999999996,-0.020325,-0.320801,-0.002933,-0.006092,0.000368,-24.059998999999998,24.370001000000002,-22.059998999999998,2d
2019-07-12_115153:720,-0.37011700000000003,-0.015747,-0.325378,-0.003879,-0.007281999999999999,0.001375,-24.059998999999998,24.370001000000002,-22.059998999999998,2d
2019-07-12_115153:740,-0.372162,-0.016266,-0.327423,-0.004886,-0.007862000000000001,0.002778,-23.75,24.0,-22.559998999999998,2d
2019-07-12_115153:760,-0.374695,-0.020325,-0.327423,-0.006168,-0.007923000000000001,0.002839,-23.75,24.0,-22.559998999999998,2d
2019-07-12_115153:780,-0.374695,-0.023895,-0.328949,-0.0064730000000000005,-0.007404000000000001,0.003023,-25.25,23.68,-22.059998999999998,2d
2019-07-12_115153:800,-0.372162,-0.025908999999999998,-0.32843,-0.006076,-0.007465,0.003694,-25.25,23.68,-22.059998999999998,2d
2019-07-12_115153:820,-0.370636,-0.028961,-0.32995599999999997,-0.0051,-0.007129000000000001,0.004274,-25.25,23.68,-22.059998999999998,2d
2019-07-12_115153:840,-0.369598,-0.026427999999999997,-0.330475,-0.003879,-0.006945999999999999,0.004609,-24.5,24.370001000000002,-23.25,2d
2019-07-12_115153:860,-0.369598,-0.024902,-0.330475,-0.003147,-0.006854000000000001,0.005311,-24.5,24.370001000000002,-23.25,2d
2019-07-12_115153:880,-0.367584,-0.021332,-0.33197,-0.003208,-0.006854000000000001,0.0058,-24.870001000000002,24.370001000000002,-21.75,2d
2019-07-12_115153:900,-0.368591,-0.020325,-0.331482,-0.004123,-0.007006999999999999,0.006044,-24.870001000000002,24.370001000000002,-21.75,2d
2019-07-12_115153:920,-0.368591,-0.022369,-0.332489,-0.005344,-0.006793,0.006441,-24.870001000000002,24.370001000000002,-21.75,2d
2019-07-12_115153:940,-0.370636,-0.023895,-0.334015,-0.0065650000000000005,-0.006793,0.006470999999999999,-24.870001000000002,23.25,-22.559998999999998,2d
2019-07-12_115153:960,-0.37011700000000003,-0.027435,-0.333496,-0.007541,-0.006397,0.006196,-24.870001000000002,23.25,-22.559998999999998,2d
2019-07-12_115153:980,-0.370636,-0.030487,-0.33300799999999997,-0.007877,-0.005878,0.005678,-24.059998999999998,24.75,-22.870001000000002,2d
2019-07-12_115154:000,-0.370636,-0.033539,-0.332489,-0.007358,-0.005725,0.005067,-24.059998999999998,24.75,-22.870001000000002,2d
2019-07-12_115154:020,-0.368073,-0.034546,-0.332489,-0.0065650000000000005,-0.0055119999999999995,0.004609,-24.059998999999998,24.75,-22.870001000000002,2d
2019-07-12_115154:040,-0.37011700000000003,-0.032013,-0.33300799999999997,-0.005679999999999999,-0.005573,0.004518,-24.5,23.68,-22.059998999999998,2d
2019-07-12_115154:060,-0.367584,-0.031494,-0.32995599999999997,-0.004886,-0.0055119999999999995,0.004182,-24.5,23.68,-22.059998999999998,2d
2019-07-12_115154:080,-0.36911,-0.029968,-0.330475,-0.004703,-0.005298,0.003297,-23.75,24.370001000000002,-22.5,2d
2019-07-12_115154:100,-0.36706500000000003,-0.027435,-0.332489,-0.004886,-0.0052369999999999995,0.0029,-23.75,24.370001000000002,-22.5,2d
2019-07-12_115154:120,-0.366058,-0.028961,-0.333496,-0.005039,-0.00539,0.002687,-23.75,24.370001000000002,-22.5,2d
2019-07-12_115154:140,-0.369598,-0.027435,-0.334534,-0.005222,-0.005756,0.001588,-23.059998999999998,24.0,-22.559998999999998,2d
2019-07-12_115154:160,-0.371643,-0.025908999999999998,-0.335541,-0.005497,-0.005817,0.001253,-23.059998999999998,24.0,-22.559998999999998,2d
2019-07-12_115154:180,-0.37265,-0.025908999999999998,-0.334015,-0.005344,-0.004993,0.002107,-24.870001000000002,23.68,-23.25,2d
2019-07-12_115154:200,-0.368073,-0.026427999999999997,-0.330475,-0.004947,-0.004383,0.002046,-24.870001000000002,23.68,-23.25,2d
2019-07-12_115154:220,-0.368591,-0.024902,-0.331482,-0.004886,-0.003986,0.001314,-24.870001000000002,23.68,-23.25,2d
2019-07-12_115154:240,-0.36554000000000003,-0.022369,-0.327911,-0.004886,-0.003925,0.001314,-25.25,24.0,-22.059998999999998,2d
2019-07-12_115154:260,-0.366058,-0.020325,-0.325378,-0.004642,-0.004169,0.0017100000000000001,-25.25,24.0,-22.059998999999998,2d
2019-07-12_115154:280,-0.364532,-0.020325,-0.325897,-0.004764,-0.004383,0.002046,-24.059998999999998,24.0,-21.370001000000002,2d
2019-07-12_115154:300,-0.365021,-0.019806,-0.32486,-0.004642,-0.004993,0.002321,-24.059998999999998,24.0,-21.370001000000002,2d
2019-07-12_115154:320,-0.368073,-0.021851,-0.328949,-0.004886,-0.005634,0.0026260000000000003,-24.059998999999998,24.0,-21.370001000000002,2d
2019-07-12_115154:340,-0.36911,-0.020325,-0.327911,-0.004275999999999999,-0.005756,0.002778,-24.870001000000002,24.0,-22.059998999999998,2d
2019-07-12_115154:360,-0.37011700000000003,-0.020325,-0.32843,-0.0042450000000000005,-0.005756,0.003358,-24.870001000000002,24.0,-22.059998999999998,2d
2019-07-12_115154:380,-0.367584,-0.020325,-0.328949,-0.004062,-0.005878,0.003908,-24.059998999999998,23.25,-22.68,2d
2019-07-12_115154:400,-0.369598,-0.019318000000000002,-0.32995599999999997,-0.0037270000000000003,-0.006397,0.0038159999999999995,-24.059998999999998,23.25,-22.68,2d
2019-07-12_115154:420,-0.372162,-0.016266,-0.32995599999999997,-0.004123,-0.006670999999999999,0.0037549999999999997,-24.059998999999998,23.25,-22.68,2d
2019-07-12_115154:440,-0.37316900000000003,-0.019318000000000002,-0.331482,-0.0042450000000000005,-0.006275,0.005403,-24.5,24.370001000000002,-22.18,2d
2019-07-12_115154:460,-0.37265,-0.020325,-0.330963,-0.004581,-0.006214,0.006044,-24.5,24.370001000000002,-22.18,2d
2019-07-12_115154:480,-0.37112399999999995,-0.020844,-0.330963,-0.005039,-0.005695,0.005189,-24.5,23.25,-23.0,2d
2019-07-12_115154:500,-0.370636,-0.022369,-0.327911,-0.005497,-0.005176,0.004945000000000001,-24.5,23.25,-23.0,2d
2019-07-12_115154:520,-0.368591,-0.025421,-0.328949,-0.005679999999999999,-0.00484,0.005006,-24.5,23.25,-23.0,2d
2019-07-12_115154:540,-0.36706500000000003,-0.025908999999999998,-0.32843,-0.005832,-0.005115,0.004548,-24.5,23.25,-22.18,2d
2019-07-12_115154:560,-0.367584,-0.026427999999999997,-0.329437,-0.005679999999999999,-0.005176,0.004213000000000001,-24.5,23.25,-22.18,2d
2019-07-12_115154:580,-0.368591,-0.026917,-0.32995599999999997,-0.004978,-0.005359,0.0039689999999999994,-24.5,24.0,-22.18,2d
2019-07-12_115154:600,-0.368591,-0.025421,-0.328949,-0.004612,-0.005359,0.003511,-24.5,24.0,-22.18,2d
2019-07-12_115154:620,-0.36911,-0.024384,-0.32995599999999997,-0.0042450000000000005,-0.005725,0.0029620000000000002,-24.5,24.0,-22.18,2d
2019-07-12_115154:640,-0.368591,-0.023895,-0.330475,-0.004001,-0.005634,0.003114,-24.059998999999998,23.68,-23.370001000000002,2d
2019-07-12_115154:660,-0.368591,-0.023375999999999997,-0.329437,-0.004001,-0.00539,0.003053,-24.059998999999998,23.68,-23.370001000000002,2d
2019-07-12_115154:680,-0.368073,-0.022369,-0.32995599999999997,-0.004062,-0.005176,0.002778,-24.870001000000002,24.370001000000002,-21.870001000000002,2d
2019-07-12_115154:700,-0.368591,-0.019806,-0.328949,-0.004581,-0.005573,0.002382,-24.870001000000002,24.370001000000002,-21.870001000000002,2d
2019-07-12_115154:720,-0.368073,-0.020844,-0.329437,-0.004612,-0.00539,0.002229,-24.870001000000002,24.370001000000002,-21.870001000000002,2d
2019-07-12_115154:740,-0.368591,-0.021332,-0.327423,-0.004978,-0.005451,0.002687,-24.870001000000002,24.0,-22.18,2d
2019-07-12_115154:760,-0.37112399999999995,-0.022369,-0.32843,-0.004978,-0.00539,0.0029620000000000002,-24.870001000000002,24.0,-22.18,2d
2019-07-12_115154:780,-0.368073,-0.021851,-0.327911,-0.004886,-0.005634,0.003175,-24.5,24.370001000000002,-23.0,2d
2019-07-12_115154:800,-0.366058,-0.020844,-0.326904,-0.004947,-0.005756,0.0038159999999999995,-24.5,24.370001000000002,-23.0,2d
2019-07-12_115154:820,-0.368591,-0.020844,-0.32843,-0.004886,-0.005817,0.0038469999999999997,-24.5,24.370001000000002,-23.0,2d
2019-07-12_115154:840,-0.36911,-0.022369,-0.32843,-0.0051,-0.0060609999999999995,0.0039689999999999994,-24.870001000000002,23.68,-22.18,2d
2019-07-12_115154:860,-0.37011700000000003,-0.022858,-0.32995599999999997,-0.005039,-0.006275,0.003908,-24.870001000000002,23.68,-22.18,2d
2019-07-12_115154:880,-0.370636,-0.023375999999999997,-0.330475,-0.004825,-0.006548999999999999,0.003694,-24.5,24.370001000000002,-23.870001000000002,2d
2019-07-12_115154:900,-0.368073,-0.020844,-0.32995599999999997,-0.004398,-0.006458,0.00345,-24.5,24.370001000000002,-23.870001000000002,2d
2019-07-12_115154:920,-0.37011700000000003,-0.020325,-0.331482,-0.004001,-0.006458,0.003175,-24.5,24.370001000000002,-23.870001000000002,2d
2019-07-12_115154:940,-0.37011700000000003,-0.01828,-0.332489,-0.003879,-0.0061530000000000005,0.003358,-24.059998999999998,23.25,-21.0,2d
2019-07-12_115154:960,-0.368591,-0.017792,-0.33197,-0.003849,-0.006,0.0037549999999999997,-24.059998999999998,23.25,-21.0,2d
2019-07-12_115154:980,-0.373688,-0.01828,-0.334015,-0.004001,-0.006,0.004274,-25.559998999999998,23.68,-22.18,2d
2019-07-12_115155:000,-0.365021,-0.01828,-0.330963,-0.0042450000000000005,-0.005725,0.004396,-25.559998999999998,23.68,-22.18,2d
2019-07-12_115155:020,-0.36911,-0.019806,-0.330963,-0.004581,-0.005725,0.00403,-25.559998999999998,23.68,-22.18,2d
2019-07-12_115155:040,-0.367584,-0.019806,-0.33197,-0.004764,-0.005725,0.003908,-24.5,24.0,-22.68,2d
2019-07-12_115155:060,-0.368591,-0.019806,-0.330475,-0.004612,-0.005817,0.0038469999999999997,-24.5,24.0,-22.68,2d
2019-07-12_115155:080,-0.373688,-0.019318000000000002,-0.332489,-0.004703,-0.006275,0.003175,-24.5,24.370001000000002,-21.870001000000002,2d
2019-07-12_115155:100,-0.368591,-0.018799,-0.330963,-0.004642,-0.006092,0.004182,-24.5,24.370001000000002,-21.870001000000002,2d
2019-07-12_115155:120,-0.370636,-0.019318000000000002,-0.334534,-0.004612,-0.0060609999999999995,0.004854,-24.5,24.370001000000002,-21.870001000000002,2d
2019-07-12_115155:140,-0.368073,-0.019318000000000002,-0.332489,-0.004764,-0.0055119999999999995,0.004213000000000001,-25.559998999999998,23.68,-22.68,2d
2019-07-12_115155:160,-0.368073,-0.019318000000000002,-0.330475,-0.004764,-0.0055119999999999995,0.0038159999999999995,-25.559998999999998,23.68,-22.68,2d
2019-07-12_115155:180,-0.36654699999999996,-0.019318000000000002,-0.331482,-0.004612,-0.00539,0.004182,-24.5,23.68,-22.68,2d
2019-07-12_115155:200,-0.368591,-0.018799,-0.327911,-0.004642,-0.0055119999999999995,0.004182,-24.5,23.68,-22.68,2d
2019-07-12_115155:220,-0.36554000000000003,-0.01828,-0.32995599999999997,-0.004764,-0.005451,0.004548,-24.5,23.68,-22.68,2d
2019-07-12_115155:240,-0.36554000000000003,-0.01828,-0.328949,-0.004886,-0.005573,0.004854,-24.5,24.0,-21.870001000000002,2d
2019-07-12_115155:260,-0.36654699999999996,-0.01828,-0.32995599999999997,-0.005161,-0.006,0.005067,-24.5,24.0,-21.870001000000002,2d
2019-07-12_115155:280,-0.36654699999999996,-0.01828,-0.329437,-0.005558,-0.0061530000000000005,0.005128,-25.25,24.0,-21.870001000000002,2d
2019-07-12_115155:300,-0.36654699999999996,-0.019318000000000002,-0.32843,-0.005893,-0.005817,0.005586,-25.25,24.0,-21.870001000000002,2d
2019-07-12_115155:320,-0.361481,-0.020325,-0.32843,-0.005741,-0.0061530000000000005,0.005647,-25.25,24.0,-21.870001000000002,2d
2019-07-12_115155:340,-0.37011700000000003,-0.021332,-0.33197,-0.005832,-0.006731999999999999,0.004945000000000001,-24.5,23.25,-22.18,2d
2019-07-12_115155:360,-0.36911,-0.021332,-0.330475,-0.005741,-0.006945999999999999,0.005647,-24.5,23.25,-22.18,2d
2019-07-12_115155:380,-0.369598,-0.022858,-0.332489,-0.005375,-0.007129000000000001,0.006470999999999999,-25.25,24.370001000000002,-22.18,2d
2019-07-12_115155:400,-0.37265,-0.023375999999999997,-0.334015,-0.0052829999999999995,-0.006397,0.006044,-25.25,24.370001000000002,-22.18,2d
2019-07-12_115155:420,-0.36911,-0.023375999999999997,-0.334015,-0.005436,-0.006336,0.005464,-25.25,24.370001000000002,-22.18,2d
2019-07-12_115155:440,-0.368591,-0.024384,-0.33300799999999997,-0.005222,-0.005695,0.005342,-25.25,23.559998999999998,-22.18,2d
2019-07-12_115155:460,-0.368073,-0.024384,-0.33197,-0.005222,-0.005725,0.005006,-25.25,23.559998999999998,-22.18,2d
2019-07-12_115155:480,-0.36706500000000003,-0.024902,-0.33300799999999997,-0.0051,-0.005756,0.004274,-24.059998999999998,24.0,-22.18,2d
2019-07-12_115155:500,-0.367584,-0.025421,-0.331482,-0.004886,-0.005817,0.004274,-24.059998999999998,24.0,-22.18,2d
2019-07-12_115155:520,-0.36654699999999996,-0.024902,-0.33197,-0.004642,-0.005878,0.0037549999999999997,-24.059998999999998,24.0,-22.18,2d
2019-07-12_115155:540,-0.36706500000000003,-0.022369,-0.331482,-0.004398,-0.006,0.003633,-24.870001000000002,23.68,-21.870001000000002,2d
2019-07-12_115155:560,-0.367584,-0.020844,-0.331482,-0.004459,-0.005939,0.004213000000000001,-24.870001000000002,23.68,-21.870001000000002,2d
2019-07-12_115155:580,-0.368073,-0.020844,-0.332489,-0.004642,-0.005634,0.004518,-24.059998999999998,24.0,-23.0,2d
2019-07-12_115155:600,-0.366058,-0.020325,-0.330963,-0.004947,-0.005634,0.004396,-24.059998999999998,24.0,-23.0,2d
2019-07-12_115155:620,-0.364532,-0.020325,-0.33197,-0.005222,-0.006092,0.004274,-24.059998999999998,24.0,-23.0,2d
2019-07-12_115155:640,-0.365021,-0.021332,-0.33197,-0.005344,-0.0061530000000000005,0.004457,-24.5,24.0,-23.370001000000002,2d
2019-07-12_115155:660,-0.36554000000000003,-0.023375999999999997,-0.33300799999999997,-0.0051,-0.006092,0.004274,-24.5,24.0,-23.370001000000002,2d
2019-07-12_115155:680,-0.368591,-0.022858,-0.333496,-0.004825,-0.006,0.004213000000000001,-24.870001000000002,24.0,-22.68,2d
2019-07-12_115155:700,-0.368591,-0.021851,-0.333496,-0.004947,-0.005817,0.004548,-24.870001000000002,24.0,-22.68,2d
2019-07-12_115155:720,-0.36911,-0.021851,-0.332489,-0.004947,-0.0055119999999999995,0.004915,-24.870001000000002,24.0,-22.68,2d
2019-07-12_115155:740,-0.368591,-0.022369,-0.332489,-0.005436,-0.005298,0.004671,-24.5,23.25,-22.68,2d
2019-07-12_115155:760,-0.36554000000000003,-0.022858,-0.331482,-0.005497,-0.005298,0.004915,-24.5,23.25,-22.68,2d
2019-07-12_115155:780,-0.36554000000000003,-0.023895,-0.335022,-0.005161,-0.0055119999999999995,0.004732,-24.5,24.0,-23.0,2d
2019-07-12_115155:800,-0.365021,-0.025421,-0.333496,-0.004947,-0.005725,0.004091,-24.5,24.0,-23.0,2d
2019-07-12_115155:820,-0.368591,-0.024902,-0.33300799999999997,-0.004703,-0.005634,0.004609,-24.5,24.0,-23.0,2d
2019-07-12_115155:840,-0.366058,-0.025421,-0.33300799999999997,-0.004275999999999999,-0.005634,0.004915,-24.5,24.370001000000002,-23.0,2d
2019-07-12_115155:860,-0.369598,-0.023895,-0.33197,-0.004337,-0.00539,0.004152,-24.5,24.370001000000002,-23.0,2d
2019-07-12_115155:880,-0.361969,-0.021851,-0.330963,-0.004520000000000001,-0.005298,0.0039689999999999994,-24.5,24.0,-22.68,2d
2019-07-12_115155:900,-0.36706500000000003,-0.022369,-0.331482,-0.004581,-0.005451,0.0038159999999999995,-24.5,24.0,-22.68,2d
2019-07-12_115155:920,-0.36654699999999996,-0.023895,-0.332489,-0.004337,-0.005695,0.003633,-24.5,24.0,-22.68,2d
2019-07-12_115155:940,-0.363007,-0.023895,-0.332489,-0.004398,-0.006488,0.002687,-24.5,24.0,-22.559998999999998,2d
2019-07-12_115155:960,-0.369598,-0.020844,-0.335022,-0.004337,-0.006397,0.003114,-24.5,24.0,-22.559998999999998,2d
2019-07-12_115155:980,-0.370636,-0.019806,-0.33758499999999997,-0.0042450000000000005,-0.005634,0.004671,-23.75,23.68,-23.0,2d
2019-07-12_115156:000,-0.371643,-0.021851,-0.336548,-0.004337,-0.004779,0.004732,-23.75,23.68,-23.0,2d
2019-07-12_115156:020,-0.368073,-0.021851,-0.335022,-0.004581,-0.003986,0.003633,-23.75,23.68,-23.0,2d
2019-07-12_115156:040,-0.36349499999999996,-0.021851,-0.333496,-0.004764,-0.004047,0.003114,-24.870001000000002,24.0,-22.68,2d
2019-07-12_115156:060,-0.361969,-0.021332,-0.332489,-0.004703,-0.004229999999999999,0.0034189999999999997,-24.870001000000002,24.0,-22.68,2d
2019-07-12_115156:080,-0.363007,-0.021851,-0.33197,-0.004642,-0.004596,0.00403,-23.75,24.0,-21.75,2d
2019-07-12_115156:100,-0.36349499999999996,-0.021332,-0.331482,-0.004703,-0.004718,0.004274,-23.75,24.0,-21.75,2d
2019-07-12_115156:120,-0.361969,-0.021851,-0.329437,-0.004703,-0.005176,0.004182,-23.75,24.0,-21.75,2d
2019-07-12_115156:140,-0.363007,-0.022369,-0.330963,-0.004886,-0.005939,0.004091,-24.059998999999998,24.0,-23.25,2d
2019-07-12_115156:160,-0.365021,-0.021851,-0.32995599999999997,-0.0051,-0.006336,0.004609,-24.059998999999998,24.0,-23.25,2d
2019-07-12_115156:180,-0.368591,-0.022858,-0.33300799999999997,-0.004947,-0.005939,0.00525,-24.870001000000002,23.68,-23.25,2d
2019-07-12_115156:200,-0.367584,-0.024384,-0.330963,-0.004886,-0.005939,0.004793,-24.870001000000002,23.68,-23.25,2d
2019-07-12_115156:220,-0.371643,-0.023895,-0.332489,-0.005039,-0.006,0.003633,-24.870001000000002,23.68,-23.25,2d
2019-07-12_115156:240,-0.37265,-0.022858,-0.33300799999999997,-0.0051,-0.006,0.004457,-24.5,24.370001000000002,-23.25,2d
2019-07-12_115156:260,-0.373688,-0.026427999999999997,-0.33300799999999997,-0.004764,-0.005695,0.005067,-24.5,24.370001000000002,-23.25,2d
2019-07-12_115156:280,-0.376221,-0.027435,-0.334534,-0.004520000000000001,-0.005115,0.0039689999999999994,-24.870001000000002,23.68,-22.559998999999998,2d
2019-07-12_115156:300,-0.369598,-0.024902,-0.330963,-0.004001,-0.0045049999999999995,0.003297,-24.870001000000002,23.68,-22.559998999999998,2d
2019-07-12_115156:320,-0.368591,-0.024902,-0.329437,-0.0036049999999999997,-0.00426,0.0032359999999999997,-24.870001000000002,23.68,-22.559998999999998,2d
2019-07-12_115156:340,-0.36554000000000003,-0.023895,-0.326904,-0.0033909999999999995,-0.004229999999999999,0.002839,-24.059998999999998,24.370001000000002,-22.059998999999998,2d
2019-07-12_115156:360,-0.364014,-0.021851,-0.326904,-0.0036049999999999997,-0.004229999999999999,0.001588,-24.059998999999998,24.370001000000002,-22.059998999999998,2d
2019-07-12_115156:380,-0.36349499999999996,-0.015747,-0.32843,-0.003879,-0.004444,0.001527,-24.059998999999998,23.559998999999998,-22.5,2d
2019-07-12_115156:400,-0.365021,-0.014740000000000001,-0.327423,-0.004764,-0.005725,0.002229,-24.059998999999998,23.559998999999998,-22.5,2d
2019-07-12_115156:420,-0.36654699999999996,-0.014740000000000001,-0.32843,-0.005375,-0.006,0.002839,-24.059998999999998,23.559998999999998,-22.5,2d
2019-07-12_115156:440,-0.36654699999999996,-0.016753999999999998,-0.330475,-0.005558,-0.006488,0.003023,-24.059998999999998,24.25,-22.870001000000002,2d
2019-07-12_115156:460,-0.36706500000000003,-0.019806,-0.329437,-0.005558,-0.006488,0.0039689999999999994,-24.059998999999998,24.25,-22.870001000000002,2d
2019-07-12_115156:480,-0.365021,-0.022369,-0.331482,-0.005161,-0.006488,0.004152,-24.870001000000002,24.25,-22.559998999999998,2d
2019-07-12_115156:500,-0.36554000000000003,-0.022858,-0.332489,-0.0036659999999999996,-0.006885,0.004793,-24.870001000000002,24.25,-22.559998999999998,2d
2019-07-12_115156:520,-0.364014,-0.020325,-0.333496,-0.003055,-0.007006999999999999,0.004854,-24.870001000000002,24.25,-22.559998999999998,2d
2019-07-12_115156:540,-0.364532,-0.017273,-0.334015,-0.003055,-0.00719,0.005006,-24.059998999999998,23.559998999999998,-23.25,2d
2019-07-12_115156:560,-0.366058,-0.014221000000000001,-0.335541,-0.003879,-0.0070680000000000005,0.0058,-24.059998999999998,23.559998999999998,-23.25,2d
2019-07-12_115156:580,-0.368591,-0.014740000000000001,-0.338593,-0.004612,-0.00719,0.006135,-24.870001000000002,23.870001000000002,-22.059998999999998,2d
2019-07-12_115156:600,-0.37011700000000003,-0.016753999999999998,-0.338074,-0.005893,-0.007006999999999999,0.006135,-24.870001000000002,23.870001000000002,-22.059998999999998,2d
2019-07-12_115156:620,-0.37112399999999995,-0.020325,-0.339111,-0.00748,-0.006275,0.005678,-24.870001000000002,23.870001000000002,-22.059998999999998,2d
2019-07-12_115156:640,-0.369598,-0.024902,-0.340118,-0.007633,-0.005817,0.005678,-24.870001000000002,24.25,-22.059998999999998,2d
2019-07-12_115156:660,-0.368591,-0.026427999999999997,-0.335541,-0.007023000000000001,-0.004779,0.006074,-24.870001000000002,24.25,-22.059998999999998,2d
2019-07-12_115156:680,-0.36706500000000003,-0.029968,-0.337067,-0.006687,-0.00426,0.006135,-24.870001000000002,24.25,-22.059998999999998,2d
2019-07-12_115156:700,-0.35943600000000003,-0.028961,-0.33197,-0.0051,-0.00365,0.005189,-24.059998999999998,23.559998999999998,-22.870001000000002,2d
2019-07-12_115156:720,-0.364532,-0.029480000000000003,-0.331482,-0.004703,-0.00365,0.004793,-24.059998999999998,23.559998999999998,-22.870001000000002,2d
2019-07-12_115156:740,-0.356903,-0.027954000000000003,-0.330475,-0.003849,-0.003833,0.004548,-24.870001000000002,23.559998999999998,-22.870001000000002,2d
2019-07-12_115156:760,-0.36044299999999996,-0.026427999999999997,-0.331482,-0.003208,-0.005054,0.004091,-24.870001000000002,23.559998999999998,-22.870001000000002,2d
2019-07-12_115156:780,-0.36349499999999996,-0.021851,-0.33300799999999997,-0.003452,-0.006092,0.002839,-24.870001000000002,23.559998999999998,-22.870001000000002,2d
2019-07-12_115156:800,-0.36706500000000003,-0.020325,-0.334015,-0.003849,-0.0066099999999999996,0.003511,-24.5,23.870001000000002,-22.870001000000002,2d
2019-07-12_115156:820,-0.369598,-0.021851,-0.33605999999999997,-0.004062,-0.006458,0.005006,-24.5,23.870001000000002,-22.870001000000002,2d
2019-07-12_115156:840,-0.370636,-0.023895,-0.337067,-0.004275999999999999,-0.006092,0.004671,-24.059998999999998,24.25,-22.870001000000002,2d
2019-07-12_115156:860,-0.37011700000000003,-0.023895,-0.335541,-0.004581,-0.005695,0.003908,-24.059998999999998,24.25,-22.870001000000002,2d
2019-07-12_115156:880,-0.373688,-0.023895,-0.336548,-0.004398,-0.004961999999999999,0.003908,-24.870001000000002,24.25,-22.559998999999998,2d
2019-07-12_115156:900,-0.372162,-0.023375999999999997,-0.335541,-0.004184,-0.004779,0.004152,-24.870001000000002,24.25,-22.559998999999998,2d
2019-07-12_115156:920,-0.369598,-0.022858,-0.332489,-0.004337,-0.0045049999999999995,0.003908,-24.870001000000002,24.25,-22.559998999999998,2d
2019-07-12_115156:940,-0.369598,-0.022858,-0.333496,-0.004275999999999999,-0.0045049999999999995,0.0039689999999999994,-24.5,23.870001000000002,-22.870001000000002,2d
2019-07-12_115156:960,-0.372162,-0.021851,-0.329437,-0.004337,-0.004169,0.00345,-24.5,23.870001000000002,-22.870001000000002,2d
2019-07-12_115156:980,-0.371643,-0.017792,-0.327911,-0.004581,-0.004047,0.002229,-24.5,23.870001000000002,-22.870001000000002,2d
2019-07-12_115157:000,-0.361481,-0.013213999999999998,-0.325897,-0.005161,-0.003467,0.0026260000000000003,-24.5,23.559998999999998,-22.059998999999998,2d
2019-07-12_115157:020,-0.36248800000000003,-0.014740000000000001,-0.322327,-0.005893,-0.003711,0.004091,-24.5,23.559998999999998,-22.059998999999998,2d
2019-07-12_115157:040,-0.36248800000000003,-0.018799,-0.325378,-0.0069,-0.00365,0.004213000000000001,-24.870001000000002,24.370001000000002,-22.559998999999998,2d
2019-07-12_115157:060,-0.361969,-0.025421,-0.324371,-0.007297,-0.00426,0.004457,-24.870001000000002,24.370001000000002,-22.559998999999998,2d
2019-07-12_115157:080,-0.364532,-0.03302,-0.328949,-0.0061070000000000004,-0.005115,0.005586,-24.870001000000002,24.370001000000002,-22.559998999999998,2d
2019-07-12_115157:100,-0.36654699999999996,-0.035065,-0.330475,-0.004062,-0.006214,0.005189,-24.5,24.25,-22.559998999999998,2d
2019-07-12_115157:120,-0.368591,-0.028961,-0.330475,-0.002018,-0.006945999999999999,0.004609,-24.5,24.25,-22.559998999999998,2d
2019-07-12_115157:140,-0.367584,-0.022369,-0.33197,-0.0008269999999999999,-0.006945999999999999,0.005006,-24.5,23.559998999999998,-22.5,2d
2019-07-12_115157:160,-0.36554000000000003,-0.012177,-0.331482,-0.001407,-0.006854000000000001,0.004854,-24.5,23.559998999999998,-22.5,2d
2019-07-12_115157:180,-0.368073,-0.008636,-0.334534,-0.00394,-0.006670999999999999,0.005128,-24.5,23.559998999999998,-22.5,2d
2019-07-12_115157:200,-0.369598,-0.015228,-0.334015,-0.006809,-0.006793,0.005861,-24.059998999999998,23.870001000000002,-22.059998999999998,2d
2019-07-12_115157:220,-0.370636,-0.023375999999999997,-0.334015,-0.008884,-0.006397,0.0058,-24.059998999999998,23.870001000000002,-22.059998999999998,2d
2019-07-12_115157:240,-0.371643,-0.034546,-0.334534,-0.00922,-0.0060609999999999995,0.004945000000000001,-24.870001000000002,23.870001000000002,-23.75,2d
2019-07-12_115157:260,-0.368591,-0.039642000000000004,-0.335022,-0.007601999999999999,-0.005878,0.005006,-24.870001000000002,23.870001000000002,-23.75,2d
2019-07-12_115157:280,-0.368591,-0.041687,-0.33197,-0.004520000000000001,-0.005939,0.004732,-24.870001000000002,23.870001000000002,-23.75,2d
2019-07-12_115157:300,-0.367584,-0.036072,-0.332489,-0.0016820000000000001,-0.005695,0.0032359999999999997,-24.059998999999998,23.559998999999998,-22.559998999999998,2d
2019-07-12_115157:320,-0.367584,-0.020844,-0.332489,0.000332,-0.005634,0.001527,-24.059998999999998,23.559998999999998,-22.559998999999998,2d
2019-07-12_115157:340,-0.370636,-0.011687999999999999,-0.332489,0.00011899999999999999,-0.005695,0.0005809999999999999,-24.059998999999998,23.870001000000002,-22.870001000000002,2d
2019-07-12_115157:360,-0.374695,-0.001495,-0.331482,-0.001957,-0.005878,0.0007639999999999999,-24.059998999999998,23.870001000000002,-22.870001000000002,2d
2019-07-12_115157:380,-0.368591,-0.001495,-0.33300799999999997,-0.005161,-0.005756,0.002046,-24.059998999999998,23.870001000000002,-22.870001000000002,2d
2019-07-12_115157:400,-0.367584,-0.009125,-0.32995599999999997,-0.008091,-0.005115,0.003633,-24.870001000000002,23.870001000000002,-20.559998999999998,2d
2019-07-12_115157:420,-0.36248800000000003,-0.018799,-0.329437,-0.010074,-0.004657,0.004396,-24.870001000000002,23.870001000000002,-20.559998999999998,2d
2019-07-12_115157:440,-0.36044299999999996,-0.032532,-0.326385,-0.0098,-0.00426,0.005464,-24.5,24.0,-22.870001000000002,2d
2019-07-12_115157:460,-0.360962,-0.040161,-0.327423,-0.007206000000000001,-0.004718,0.006074,-24.5,24.0,-22.870001000000002,2d
2019-07-12_115157:480,-0.36349499999999996,-0.039124,-0.32995599999999997,-0.003544,-0.005756,0.005922,-24.5,24.0,-22.870001000000002,2d
2019-07-12_115157:500,-0.368591,-0.032013,-0.334015,-0.00046100000000000004,-0.006945999999999999,0.005525,-23.75,23.68,-22.559998999999998,2d
2019-07-12_115157:520,-0.36706500000000003,-0.017273,-0.334015,0.000729,-0.0070680000000000005,0.005647,-23.75,23.68,-22.559998999999998,2d
2019-07-12_115157:540,-0.366058,-0.013213999999999998,-0.335022,-0.000614,-0.0070680000000000005,0.005678,-23.75,23.25,-22.559998999999998,2d
2019-07-12_115157:560,-0.37011700000000003,-0.008636,-0.337067,-0.003452,-0.0070680000000000005,0.005739,-23.75,23.25,-22.559998999999998,2d
2019-07-12_115157:580,-0.36554000000000003,-0.013702,-0.336548,-0.006809,-0.006488,0.005861,-23.75,23.25,-22.559998999999998,2d
2019-07-12_115157:600,-0.374176,-0.024902,-0.3396,-0.00922,-0.006488,0.005189,-24.870001000000002,24.0,-21.75,2d
2019-07-12_115157:620,-0.371643,-0.030487,-0.338074,-0.010013,-0.005756,0.004915,-24.870001000000002,24.0,-21.75,2d
2019-07-12_115157:640,-0.36654699999999996,-0.039642000000000004,-0.335022,-0.008732,-0.005176,0.005464,-24.5,24.0,-22.559998999999998,2d
2019-07-12_115157:660,-0.365021,-0.042694,-0.332489,-0.005954,-0.004901,0.004945000000000001,-24.5,24.0,-22.559998999999998,2d
2019-07-12_115157:680,-0.364014,-0.034058,-0.33197,-0.003208,-0.005054,0.002839,-24.5,24.0,-22.559998999999998,2d
2019-07-12_115157:700,-0.366058,-0.024384,-0.331482,-0.001468,-0.005359,0.0011,-24.5,23.25,-22.870001000000002,2d
2019-07-12_115157:720,-0.369598,-0.012177,-0.330963,-0.001407,-0.005725,0.0008560000000000001,-24.5,23.25,-22.870001000000002,2d
2019-07-12_115157:740,-0.36654699999999996,-0.007111,-0.33300799999999997,-0.002994,-0.005756,0.001832,-23.75,24.0,-22.059998999999998,2d
2019-07-12_115157:760,-0.364532,-0.008636,-0.330475,-0.005222,-0.005451,0.002382,-23.75,24.0,-22.059998999999998,2d
2019-07-12_115157:780,-0.364014,-0.013702,-0.333496,-0.00748,-0.004961999999999999,0.003114,-23.75,24.0,-22.059998999999998,2d
2019-07-12_115157:800,-0.36349499999999996,-0.025908999999999998,-0.329437,-0.008029999999999999,-0.004657,0.004396,-25.25,24.0,-22.559998999999998,2d
2019-07-12_115157:820,-0.364532,-0.032532,-0.330963,-0.007145,-0.004566,0.005189,-25.25,24.0,-22.559998999999998,2d
2019-07-12_115157:840,-0.35943600000000003,-0.034546,-0.32843,-0.005375,-0.004779,0.005525,-24.059998999999998,24.370001000000002,-22.870001000000002,2d
2019-07-12_115157:860,-0.363007,-0.027435,-0.330475,-0.002933,-0.006,0.004854,-24.059998999999998,24.370001000000002,-22.870001000000002,2d
2019-07-12_115157:880,-0.36654699999999996,-0.020844,-0.334534,-0.001865,-0.007006999999999999,0.0038469999999999997,-24.059998999999998,24.370001000000002,-22.870001000000002,2d
2019-07-12_115157:900,-0.368591,-0.013213999999999998,-0.335541,-0.002018,-0.007587000000000001,0.004915,-24.5,24.0,-22.059998999999998,2d
2019-07-12_115157:920,-0.372162,-0.014221000000000001,-0.33758499999999997,-0.0036659999999999996,-0.007281999999999999,0.006318,-24.5,24.0,-22.059998999999998,2d
2019-07-12_115157:940,-0.372162,-0.016753999999999998,-0.338593,-0.005893,-0.006854000000000001,0.006257,-24.5,24.370001000000002,-21.75,2d
2019-07-12_115157:960,-0.36911,-0.022858,-0.33605999999999997,-0.007937999999999999,-0.0061530000000000005,0.006257,-24.5,24.370001000000002,-21.75,2d
2019-07-12_115157:980,-0.370636,-0.032532,-0.335541,-0.008762,-0.005176,0.006257,-24.5,24.370001000000002,-21.75,2d
2019-07-12_115158:000,-0.36654699999999996,-0.036591000000000005,-0.333496,-0.008152,-0.004779,0.005586,-24.059998999999998,23.559998999999998,-22.870001000000002,2d
2019-07-12_115158:020,-0.360962,-0.038116000000000004,-0.331482,-0.006168,-0.004657,0.004671,-24.059998999999998,23.559998999999998,-22.870001000000002,2d
2019-07-12_115158:040,-0.360962,-0.036591000000000005,-0.326904,-0.00394,-0.004566,0.003511,-23.75,23.68,-22.059998999999998,2d
2019-07-12_115158:060,-0.35943600000000003,-0.026427999999999997,-0.328949,-0.0018039999999999998,-0.00484,0.001253,-23.75,23.68,-22.059998999999998,2d
2019-07-12_115158:080,-0.361969,-0.017792,-0.330963,-0.000614,-0.005451,-0.000273,-23.75,23.68,-22.059998999999998,2d
2019-07-12_115158:100,-0.369598,-0.007599,-0.333496,-0.00095,-0.0060609999999999995,-0.000334,-24.870001000000002,24.0,-22.559998999999998,2d
2019-07-12_115158:120,-0.372162,-0.005065999999999999,-0.335541,-0.002414,-0.0066099999999999996,0.001314,-24.870001000000002,24.0,-22.559998999999998,2d
2019-07-12_115158:140,-0.37674,-0.007599,-0.338593,-0.005375,-0.006885,0.003694,-24.5,23.68,-21.75,2d
2019-07-12_115158:160,-0.377747,-0.012177,-0.334534,-0.006351,-0.006458,0.00403,-24.5,23.68,-21.75,2d
2019-07-12_115158:180,-0.37011700000000003,-0.019806,-0.333496,-0.007877,-0.004718,0.004609,-24.5,23.68,-21.75,2d
2019-07-12_115158:200,-0.366058,-0.025421,-0.330963,-0.0076939999999999995,-0.004169,0.004732,-24.059998999999998,24.0,-21.75,2d
2019-07-12_115158:220,-0.356903,-0.027435,-0.327423,-0.0061070000000000004,-0.002979,0.005983,-24.059998999999998,24.0,-21.75,2d
2019-07-12_115158:240,-0.355377,-0.027954000000000003,-0.323853,-0.004764,-0.003467,0.007112,-23.75,23.68,-22.559998999999998,2d
2019-07-12_115158:260,-0.355377,-0.027435,-0.325897,-0.003879,-0.005054,0.006868000000000001,-23.75,23.68,-22.559998999999998,2d
2019-07-12_115158:280,-0.35638400000000003,-0.024902,-0.32995599999999997,-0.0037270000000000003,-0.007129000000000001,0.005983,-23.75,23.68,-22.559998999999998,2d
2019-07-12_115158:300,-0.365021,-0.020844,-0.334534,-0.004337,-0.008594,0.005678,-24.059998999999998,24.0,-22.559998999999998,2d
2019-07-12_115158:320,-0.367584,-0.020844,-0.33758499999999997,-0.0051,-0.00893,0.006196,-24.059998999999998,24.0,-22.559998999999998,2d
2019-07-12_115158:340,-0.377228,-0.023375999999999997,-0.342163,-0.006412,-0.008594,0.006379,-24.5,24.0,-22.559998999999998,2d
2019-07-12_115158:360,-0.380798,-0.023375999999999997,-0.342163,-0.0069,-0.006885,0.006379,-24.5,24.0,-22.559998999999998,2d
2019-07-12_115158:380,-0.375702,-0.029480000000000003,-0.338593,-0.007358,-0.005451,0.006318,-24.5,24.0,-22.559998999999998,2d
2019-07-12_115158:400,-0.377228,-0.032013,-0.33758499999999997,-0.007084,-0.004383,0.005983,-24.5,24.25,-22.059998999999998,2d
2019-07-12_115158:420,-0.361969,-0.035583,-0.32995599999999997,-0.005893,-0.004047,0.005464,-24.5,24.25,-22.059998999999998,2d
2019-07-12_115158:440,-0.35791,-0.037598,-0.328949,-0.004275999999999999,-0.004718,0.0038159999999999995,-24.5,23.18,-22.870001000000002,2d
2019-07-12_115158:460,-0.35739099999999996,-0.032013,-0.325897,-0.002994,-0.005176,0.0019850000000000002,-24.5,23.18,-22.870001000000002,2d
2019-07-12_115158:480,-0.356903,-0.026917,-0.329437,-0.001743,-0.005573,0.001253,-24.5,23.18,-22.870001000000002,2d
2019-07-12_115158:500,-0.361481,-0.017792,-0.330475,-0.001407,-0.005756,0.0005200000000000001,-23.75,23.870001000000002,-23.75,2d
2019-07-12_115158:520,-0.36248800000000003,-0.011169,-0.33197,-0.00275,-0.006336,0.000306,-23.75,23.870001000000002,-23.75,2d
2019-07-12_115158:540,-0.36554000000000003,-0.009125,-0.336548,-0.004581,-0.006945999999999999,0.001771,-24.059998999999998,24.370001000000002,-22.870001000000002,2d
2019-07-12_115158:560,-0.369598,-0.011169,-0.337067,-0.006168,-0.007129000000000001,0.0029,-24.059998999999998,24.370001000000002,-22.870001000000002,2d
2019-07-12_115158:580,-0.373688,-0.019806,-0.338593,-0.006809,-0.006397,0.003175,-24.059998999999998,24.370001000000002,-22.870001000000002,2d
2019-07-12_115158:600,-0.37112399999999995,-0.023895,-0.338074,-0.006076,-0.005451,0.003633,-23.75,24.0,-22.059998999999998,2d
2019-07-12_115158:620,-0.369598,-0.026427999999999997,-0.335541,-0.004642,-0.004779,0.004518,-23.75,24.0,-22.059998999999998,2d
2019-07-12_115158:640,-0.364532,-0.024384,-0.334534,-0.0033299999999999996,-0.004657,0.004671,-24.059998999999998,23.870001000000002,-22.870001000000002,2d
2019-07-12_115158:660,-0.36706500000000003,-0.019806,-0.331482,-0.002475,-0.004596,0.005464,-24.059998999999998,23.870001000000002,-22.870001000000002,2d
2019-07-12_115158:680,-0.35943600000000003,-0.01828,-0.331482,-0.00275,-0.004566,0.006196,-24.059998999999998,23.870001000000002,-22.870001000000002,2d
2019-07-12_115158:700,-0.358917,-0.015747,-0.332489,-0.004001,-0.00539,0.005647,-24.870001000000002,23.68,-22.559998999999998,2d
2019-07-12_115158:720,-0.360962,-0.014740000000000001,-0.332489,-0.005375,-0.006336,0.005403,-24.870001000000002,23.68,-22.559998999999998,2d
2019-07-12_115158:740,-0.36349499999999996,-0.020325,-0.336548,-0.0065650000000000005,-0.006945999999999999,0.006868000000000001,-23.75,24.75,-22.559998999999998,2d
2019-07-12_115158:760,-0.366058,-0.025421,-0.336548,-0.007297,-0.006670999999999999,0.007448000000000001,-23.75,24.75,-22.559998999999998,2d
2019-07-12_115158:780,-0.368591,-0.028442000000000002,-0.338074,-0.00748,-0.0060609999999999995,0.006441,-23.75,24.75,-22.559998999999998,2d
2019-07-12_115158:800,-0.368591,-0.032013,-0.338074,-0.006809,-0.0055119999999999995,0.005647,-24.059998999999998,23.18,-22.559998999999998,2d
2019-07-12_115158:820,-0.36654699999999996,-0.032013,-0.335022,-0.005832,-0.005054,0.005067,-24.059998999999998,23.18,-22.559998999999998,2d
2019-07-12_115158:840,-0.365021,-0.029968,-0.335541,-0.004825,-0.005054,0.004182,-24.5,24.370001000000002,-22.870001000000002,2d
2019-07-12_115158:860,-0.36349499999999996,-0.026427999999999997,-0.333496,-0.004062,-0.005054,0.0038159999999999995,-24.5,24.370001000000002,-22.870001000000002,2d
2019-07-12_115158:880,-0.364532,-0.025908999999999998,-0.333496,-0.0036049999999999997,-0.005451,0.0037549999999999997,-24.5,24.370001000000002,-22.870001000000002,2d
2019-07-12_115158:900,-0.36349499999999996,-0.023375999999999997,-0.332489,-0.003544,-0.00539,0.003694,-24.5,24.0,-22.559998999999998,2d
2019-07-12_115158:920,-0.36349499999999996,-0.021851,-0.332489,-0.003849,-0.005817,0.004152,-24.5,24.0,-22.559998999999998,2d
2019-07-12_115158:940,-0.36248800000000003,-0.022369,-0.332489,-0.004275999999999999,-0.005878,0.004518,-23.75,24.0,-22.870001000000002,2d
2019-07-12_115158:960,-0.365021,-0.021332,-0.334015,-0.004764,-0.0060609999999999995,0.004671,-23.75,24.0,-22.870001000000002,2d
2019-07-12_115158:980,-0.367584,-0.023895,-0.335541,-0.005222,-0.006092,0.004548,-23.75,24.0,-22.870001000000002,2d
2019-07-12_115159:000,-0.36706500000000003,-0.025421,-0.335022,-0.005375,-0.005878,0.004609,-23.75,24.0,-22.870001000000002,2d
2019-07-12_115159:020,-0.36654699999999996,-0.025421,-0.33605999999999997,-0.005558,-0.005756,0.004457,-23.75,24.0,-22.870001000000002,2d
2019-07-12_115159:040,-0.36654699999999996,-0.024902,-0.335022,-0.005344,-0.005634,0.004213000000000001,-24.059998999999998,24.0,-22.870001000000002,2d
2019-07-12_115159:060,-0.36654699999999996,-0.026427999999999997,-0.334015,-0.005344,-0.005451,0.004335,-24.059998999999998,24.0,-22.870001000000002,2d
2019-07-12_115159:080,-0.36654699999999996,-0.026427999999999997,-0.335022,-0.005161,-0.005359,0.004609,-24.059998999999998,24.0,-22.870001000000002,2d
2019-07-12_115159:100,-0.36706500000000003,-0.027435,-0.335541,-0.004947,-0.005176,0.004671,-23.059998999999998,25.18,-22.559998999999998,2d
2019-07-12_115159:120,-0.36706500000000003,-0.026917,-0.332489,-0.004520000000000001,-0.004901,0.004335,-23.059998999999998,25.18,-22.559998999999998,2d
2019-07-12_115159:140,-0.36554000000000003,-0.026427999999999997,-0.332489,-0.004062,-0.004901,0.0037549999999999997,-23.75,23.68,-22.559998999999998,2d
2019-07-12_115159:160,-0.361969,-0.023895,-0.330475,-0.0037270000000000003,-0.004993,0.003297,-23.75,23.68,-22.559998999999998,2d
2019-07-12_115159:180,-0.360962,-0.020325,-0.330475,-0.0037270000000000003,-0.005634,0.003053,-23.75,23.68,-22.559998999999998,2d
2019-07-12_115159:200,-0.36248800000000003,-0.01828,-0.33197,-0.004123,-0.0061530000000000005,0.00403,-24.5,24.370001000000002,-21.370001000000002,2d
2019-07-12_115159:220,-0.36706500000000003,-0.01828,-0.332489,-0.004703,-0.006731999999999999,0.005006,-24.5,24.370001000000002,-21.370001000000002,2d
2019-07-12_115159:240,-0.360962,-0.020325,-0.33300799999999997,-0.005558,-0.006275,0.005464,-24.059998999999998,24.0,-23.25,2d
2019-07-12_115159:260,-0.36706500000000003,-0.024384,-0.332489,-0.005954,-0.006275,0.005342,-24.059998999999998,24.0,-23.25,2d
2019-07-12_115159:280,-0.361481,-0.027954000000000003,-0.334534,-0.006076,-0.0060609999999999995,0.00525,-24.059998999999998,24.0,-23.25,2d
2019-07-12_115159:300,-0.361481,-0.028961,-0.335022,-0.005375,-0.006458,0.004609,-24.059998999999998,24.370001000000002,-22.559998999999998,2d
2019-07-12_115159:320,-0.36706500000000003,-0.026427999999999997,-0.338593,-0.005039,-0.006885,0.003694,-24.059998999999998,24.370001000000002,-22.559998999999998,2d
2019-07-12_115159:340,-0.367584,-0.026917,-0.338074,-0.004520000000000001,-0.006548999999999999,0.004457,-23.75,24.0,-21.75,2d
2019-07-12_115159:360,-0.368073,-0.025421,-0.338593,-0.004123,-0.006092,0.00525,-23.75,24.0,-21.75,2d
2019-07-12_115159:380,-0.36554000000000003,-0.024384,-0.33758499999999997,-0.004062,-0.0055119999999999995,0.004548,-23.75,24.0,-21.75,2d
2019-07-12_115159:400,-0.361969,-0.022858,-0.335022,-0.004581,-0.005359,0.003908,-24.5,24.75,-22.18,2d
2019-07-12_115159:420,-0.36248800000000003,-0.023895,-0.334534,-0.004947,-0.0052369999999999995,0.004457,-24.5,24.75,-22.18,2d
2019-07-12_115159:440,-0.360962,-0.025421,-0.334534,-0.005222,-0.005298,0.004274,-23.75,23.25,-23.25,2d
2019-07-12_115159:460,-0.36248800000000003,-0.026427999999999997,-0.334015,-0.0052829999999999995,-0.005634,0.004152,-23.75,23.25,-23.25,2d
2019-07-12_115159:480,-0.361481,-0.026427999999999997,-0.335022,-0.004978,-0.005756,0.004335,-23.75,23.25,-23.25,2d
2019-07-12_115159:500,-0.361969,-0.026427999999999997,-0.337067,-0.004612,-0.006548999999999999,0.004518,-24.059998999999998,24.0,-22.870001000000002,2d
2019-07-12_115159:520,-0.37112399999999995,-0.026427999999999997,-0.335541,-0.004459,-0.006548999999999999,0.004274,-24.059998999999998,24.0,-22.870001000000002,2d
2019-07-12_115159:540,-0.36248800000000003,-0.024902,-0.33758499999999997,-0.004275999999999999,-0.005725,0.005006,-24.059998999999998,24.0,-22.870001000000002,2d
2019-07-12_115159:560,-0.365021,-0.025421,-0.33758499999999997,-0.004184,-0.005756,0.004732,-24.059998999999998,24.0,-22.870001000000002,2d
2019-07-12_115159:580,-0.364532,-0.023895,-0.336548,-0.004581,-0.005939,0.0034189999999999997,-24.059998999999998,24.0,-22.870001000000002,2d
2019-07-12_115159:600,-0.363007,-0.023895,-0.334534,-0.004947,-0.005817,0.004091,-24.059998999999998,24.0,-23.25,2d
2019-07-12_115159:620,-0.36554000000000003,-0.024384,-0.33605999999999997,-0.004947,-0.005817,0.005403,-24.059998999999998,24.0,-23.25,2d
2019-07-12_115159:640,-0.363007,-0.024384,-0.335022,-0.0052829999999999995,-0.005756,0.004945000000000001,-24.059998999999998,23.68,-22.870001000000002,2d
2019-07-12_115159:660,-0.363007,-0.026427999999999997,-0.334534,-0.005497,-0.006,0.004732,-24.059998999999998,23.68,-22.870001000000002,2d
2019-07-12_115159:680,-0.364014,-0.028961,-0.33605999999999997,-0.0052829999999999995,-0.006,0.00525,-24.059998999999998,23.68,-22.870001000000002,2d
2019-07-12_115159:700,-0.364014,-0.031006,-0.33300799999999997,-0.0052829999999999995,-0.005939,0.004609,-23.75,23.68,-22.559998999999998,2d
2019-07-12_115159:720,-0.361969,-0.031006,-0.335541,-0.004886,-0.005878,0.0038469999999999997,-23.75,23.68,-22.559998999999998,2d
2019-07-12_115159:740,-0.360962,-0.028961,-0.333496,-0.004001,-0.006214,0.003908,-23.059998999999998,23.68,-23.25,2d
2019-07-12_115159:760,-0.363007,-0.026427999999999997,-0.334534,-0.0036049999999999997,-0.006397,0.003572,-23.059998999999998,23.68,-23.25,2d
2019-07-12_115159:780,-0.363007,-0.024384,-0.33605999999999997,-0.0033299999999999996,-0.006731999999999999,0.0034189999999999997,-23.059998999999998,23.68,-23.25,2d
2019-07-12_115159:800,-0.36554000000000003,-0.023375999999999997,-0.335022,-0.0033909999999999995,-0.0066099999999999996,0.0038159999999999995,-23.75,24.0,-22.559998999999998,2d
2019-07-12_115159:820,-0.364014,-0.022858,-0.334534,-0.003788,-0.006458,0.004213000000000001,-23.75,24.0,-22.559998999999998,2d
2019-07-12_115159:840,-0.363007,-0.022858,-0.337067,-0.004398,-0.006397,0.0038159999999999995,-23.370001000000002,24.370001000000002,-22.870001000000002,2d
2019-07-12_115159:860,-0.363007,-0.024384,-0.335541,-0.004886,-0.006397,0.0038469999999999997,-23.370001000000002,24.370001000000002,-22.870001000000002,2d
2019-07-12_115159:880,-0.364532,-0.025421,-0.338593,-0.005161,-0.006397,0.0039689999999999994,-23.370001000000002,24.370001000000002,-22.870001000000002,2d
2019-07-12_115159:900,-0.363007,-0.025908999999999998,-0.338074,-0.005161,-0.006548999999999999,0.004091,-23.75,24.0,-22.059998999999998,2d
2019-07-12_115159:920,-0.36554000000000003,-0.026917,-0.338074,-0.004978,-0.006214,0.00403,-23.75,24.0,-22.059998999999998,2d
2019-07-12_115159:940,-0.365021,-0.026917,-0.338074,-0.004764,-0.006214,0.00403,-24.059998999999998,24.0,-23.25,2d
2019-07-12_115159:960,-0.364014,-0.024384,-0.338593,-0.004398,-0.005756,0.004152,-24.059998999999998,24.0,-23.25,2d
2019-07-12_115159:980,-0.36349499999999996,-0.025421,-0.338074,-0.004275999999999999,-0.005573,0.004152,-24.059998999999998,24.0,-23.25,2d
2019-07-12_115200:000,-0.364014,-0.024384,-0.337067,-0.004520000000000001,-0.005634,0.004213000000000001,-23.370001000000002,24.75,-23.25,2d
2019-07-12_115200:020,-0.363007,-0.023895,-0.337067,-0.004764,-0.005634,0.004274,-23.370001000000002,24.75,-23.25,2d
2019-07-12_115200:040,-0.364532,-0.026427999999999997,-0.338074,-0.004764,-0.005695,0.004609,-24.059998999999998,23.68,-22.870001000000002,2d
2019-07-12_115200:060,-0.36654699999999996,-0.026427999999999997,-0.33605999999999997,-0.004825,-0.005573,0.004274,-24.059998999999998,23.68,-22.870001000000002,2d
2019-07-12_115200:080,-0.359955,-0.026427999999999997,-0.334534,-0.004825,-0.0052369999999999995,0.0038469999999999997,-24.059998999999998,23.68,-22.870001000000002,2d
2019-07-12_115200:100,-0.363007,-0.025421,-0.33605999999999997,-0.005039,-0.0052369999999999995,0.003908,-24.870001000000002,24.0,-23.25,2d
2019-07-12_115200:120,-0.35436999999999996,-0.025908999999999998,-0.332489,-0.004947,-0.005695,0.00403,-24.870001000000002,24.0,-23.25,2d
2019-07-12_115200:140,-0.35943600000000003,-0.023895,-0.33758499999999997,-0.004764,-0.0066099999999999996,0.003572,-24.5,24.370001000000002,-23.25,2d
2019-07-12_115200:160,-0.364014,-0.021332,-0.33758499999999997,-0.005161,-0.007129000000000001,0.003511,-24.5,24.370001000000002,-23.25,2d
2019-07-12_115200:180,-0.363007,-0.021851,-0.339111,-0.005222,-0.00719,0.004854,-24.5,24.370001000000002,-23.25,2d
2019-07-12_115200:200,-0.364532,-0.025421,-0.338593,-0.005344,-0.006548999999999999,0.005678,-23.059998999999998,24.0,-23.75,2d
2019-07-12_115200:220,-0.36248800000000003,-0.026427999999999997,-0.338074,-0.005741,-0.0061530000000000005,0.004915,-23.059998999999998,24.0,-23.75,2d
2019-07-12_115200:240,-0.361481,-0.026427999999999997,-0.339111,-0.005619,-0.005939,0.004518,-23.75,24.0,-22.870001000000002,2d
2019-07-12_115200:260,-0.358429,-0.028442000000000002,-0.338074,-0.005161,-0.006,0.004793,-23.75,24.0,-22.870001000000002,2d
2019-07-12_115200:280,-0.36248800000000003,-0.027954000000000003,-0.3396,-0.004978,-0.006092,0.004457,-23.75,24.0,-22.870001000000002,2d
2019-07-12_115200:300,-0.36044299999999996,-0.027435,-0.338593,-0.004612,-0.0060609999999999995,0.0039689999999999994,-24.5,24.370001000000002,-22.559998999999998,2d
2019-07-12_115200:320,-0.36248800000000003,-0.026427999999999997,-0.338593,-0.004520000000000001,-0.006,0.00403,-24.5,24.370001000000002,-22.559998999999998,2d
2019-07-12_115200:340,-0.361969,-0.025421,-0.340118,-0.004520000000000001,-0.0061530000000000005,0.004274,-23.75,24.370001000000002,-23.25,2d
2019-07-12_115200:360,-0.36554000000000003,-0.025421,-0.338593,-0.004886,-0.005939,0.004335,-23.75,24.370001000000002,-23.25,2d
2019-07-12_115200:380,-0.35791,-0.024902,-0.336548,-0.004886,-0.005359,0.004793,-23.75,24.370001000000002,-23.25,2d
2019-07-12_115200:400,-0.359955,-0.026427999999999997,-0.338593,-0.004947,-0.005725,0.004335,-24.059998999999998,24.0,-22.870001000000002,2d
2019-07-12_115200:420,-0.361481,-0.025421,-0.33758499999999997,-0.005344,-0.0060609999999999995,0.0034189999999999997,-24.059998999999998,24.0,-22.870001000000002,2d
2019-07-12_115200:440,-0.361969,-0.024902,-0.339111,-0.005161,-0.006275,0.004457,-23.75,24.0,-23.75,2d
2019-07-12_115200:460,-0.361481,-0.026917,-0.338593,-0.004886,-0.005939,0.005464,-23.75,24.0,-23.75,2d
2019-07-12_115200:480,-0.361969,-0.026917,-0.337067,-0.004947,-0.005878,0.004793,-23.75,24.0,-23.75,2d
2019-07-12_115200:500,-0.360962,-0.025908999999999998,-0.338593,-0.004825,-0.005817,0.004396,-23.370001000000002,24.0,-22.059998999999998,2d
2019-07-12_115200:520,-0.359955,-0.026427999999999997,-0.33758499999999997,-0.004886,-0.005695,0.004548,-23.370001000000002,24.0,-22.059998999999998,2d
2019-07-12_115200:540,-0.360962,-0.026427999999999997,-0.33758499999999997,-0.004978,-0.005817,0.00403,-24.5,24.0,-22.559998999999998,2d
2019-07-12_115200:560,-0.361481,-0.026427999999999997,-0.33758499999999997,-0.0051,-0.005939,0.004274,-24.5,24.0,-22.559998999999998,2d
2019-07-12_115200:580,-0.361481,-0.026917,-0.339111,-0.004886,-0.005817,0.004335,-24.5,24.0,-22.559998999999998,2d
2019-07-12_115200:600,-0.361481,-0.026427999999999997,-0.338593,-0.004703,-0.005878,0.004182,-23.75,24.0,-23.25,2d
2019-07-12_115200:620,-0.35943600000000003,-0.025421,-0.3396,-0.004612,-0.006,0.004152,-23.75,24.0,-23.25,2d
2019-07-12_115200:640,-0.36044299999999996,-0.025908999999999998,-0.338593,-0.004612,-0.005939,0.004548,-24.059998999999998,24.0,-23.25,2d
2019-07-12_115200:660,-0.35943600000000003,-0.024902,-0.338074,-0.004581,-0.005878,0.004548,-24.059998999999998,24.0,-23.25,2d
2019-07-12_115200:680,-0.360962,-0.024902,-0.34063699999999997,-0.004612,-0.0060609999999999995,0.004182,-24.059998999999998,24.0,-23.25,2d
2019-07-12_115200:700,-0.360962,-0.024902,-0.339111,-0.004886,-0.005939,0.004213000000000001,-24.5,23.68,-23.75,2d
2019-07-12_115200:720,-0.36044299999999996,-0.026427999999999997,-0.339111,-0.004978,-0.0060609999999999995,0.004518,-24.5,23.68,-23.75,2d
2019-07-12_115200:740,-0.358917,-0.027954000000000003,-0.3396,-0.0052829999999999995,-0.006,0.004548,-23.75,24.370001000000002,-23.25,2d
2019-07-12_115200:760,-0.359955,-0.028442000000000002,-0.338593,-0.005222,-0.005817,0.004396,-23.75,24.370001000000002,-23.25,2d
2019-07-12_115200:780,-0.359955,-0.028442000000000002,-0.34063699999999997,-0.004947,-0.0060609999999999995,0.004274,-23.75,24.370001000000002,-23.25,2d
2019-07-12_115200:800,-0.360962,-0.026917,-0.34063699999999997,-0.004612,-0.006,0.004182,-23.75,24.0,-23.25,2d
2019-07-12_115200:820,-0.35739099999999996,-0.026427999999999997,-0.34063699999999997,-0.004520000000000001,-0.005878,0.004457,-23.75,24.0,-23.25,2d
2019-07-12_115200:840,-0.361481,-0.025908999999999998,-0.341125,-0.004398,-0.005634,0.004945000000000001,-23.370001000000002,24.75,-22.870001000000002,2d
2019-07-12_115200:860,-0.359955,-0.025908999999999998,-0.340118,-0.004612,-0.005756,0.004548,-23.370001000000002,24.75,-22.870001000000002,2d
2019-07-12_115200:880,-0.355377,-0.026427999999999997,-0.338074,-0.004764,-0.005115,0.004213000000000001,-23.370001000000002,24.75,-22.870001000000002,2d
2019-07-12_115200:900,-0.360962,-0.027954000000000003,-0.338593,-0.005039,-0.00539,0.004518,-23.059998999999998,23.68,-23.25,2d
2019-07-12_115200:920,-0.352844,-0.027954000000000003,-0.338074,-0.004978,-0.005695,0.004518,-23.059998999999998,23.68,-23.25,2d
2019-07-12_115200:940,-0.361969,-0.028442000000000002,-0.34265100000000004,-0.004642,-0.006275,0.003908,-23.75,24.370001000000002,-23.75,2d
2019-07-12_115200:960,-0.364014,-0.026917,-0.342163,-0.004703,-0.006731999999999999,0.003694,-23.75,24.370001000000002,-23.75,2d
2019-07-12_115200:980,-0.36554000000000003,-0.029480000000000003,-0.341644,-0.004612,-0.006275,0.004793,-23.75,24.370001000000002,-23.75,2d
2019-07-12_115201:000,-0.36349499999999996,-0.028442000000000002,-0.34265100000000004,-0.004398,-0.005634,0.005067,-23.370001000000002,24.0,-22.870001000000002,2d
2019-07-12_115201:020,-0.35791,-0.027435,-0.3396,-0.004520000000000001,-0.004779,0.0037549999999999997,-23.370001000000002,24.0,-22.870001000000002,2d
2019-07-12_115201:040,-0.355896,-0.025908999999999998,-0.339111,-0.004612,-0.004657,0.003114,-24.5,24.370001000000002,-23.75,2d
2019-07-12_115201:060,-0.35739099999999996,-0.027435,-0.337067,-0.004520000000000001,-0.005115,0.003572,-24.5,24.370001000000002,-23.75,2d
2019-07-12_115201:080,-0.35739099999999996,-0.026427999999999997,-0.338593,-0.004581,-0.005451,0.003633,-24.5,24.370001000000002,-23.75,2d
2019-07-12_115201:100,-0.358917,-0.027435,-0.338074,-0.0042450000000000005,-0.005695,0.003694,-23.75,23.68,-22.559998999999998,2d
2019-07-12_115201:120,-0.358917,-0.024902,-0.339111,-0.0042450000000000005,-0.005878,0.003694,-23.75,23.68,-22.559998999999998,2d
2019-07-12_115201:140,-0.36248800000000003,-0.024902,-0.339111,-0.004398,-0.006,0.003572,-23.75,24.0,-24.5,2d
2019-07-12_115201:160,-0.365021,-0.025421,-0.3396,-0.004459,-0.005939,0.003633,-23.75,24.0,-24.5,2d
2019-07-12_115201:180,-0.35943600000000003,-0.025908999999999998,-0.337067,-0.004275999999999999,-0.0055119999999999995,0.004213000000000001,-23.75,24.0,-24.5,2d
2019-07-12_115201:200,-0.36044299999999996,-0.025421,-0.341644,-0.004062,-0.005725,0.003572,-23.370001000000002,23.25,-22.870001000000002,2d
2019-07-12_115201:220,-0.360962,-0.022369,-0.341125,-0.004612,-0.005878,0.003358,-23.370001000000002,23.25,-22.870001000000002,2d
2019-07-12_115201:240,-0.359955,-0.022369,-0.34265100000000004,-0.004581,-0.005878,0.004915,-23.059998999999998,24.0,-23.75,2d
2019-07-12_115201:260,-0.360962,-0.024902,-0.339111,-0.004825,-0.005725,0.004854,-23.059998999999998,24.0,-23.75,2d
2019-07-12_115201:280,-0.361481,-0.022858,-0.340118,-0.0051,-0.005298,0.004213000000000001,-23.059998999999998,24.0,-23.75,2d
2019-07-12_115201:300,-0.35943600000000003,-0.024902,-0.3396,-0.005222,-0.005176,0.004671,-23.75,23.68,-24.059998999999998,2d
2019-07-12_115201:320,-0.358429,-0.025908999999999998,-0.338593,-0.005436,-0.0052369999999999995,0.004518,-23.75,23.68,-24.059998999999998,2d
2019-07-12_115201:340,-0.35791,-0.025908999999999998,-0.338593,-0.005497,-0.005451,0.004732,-23.370001000000002,23.68,-23.75,2d
2019-07-12_115201:360,-0.35791,-0.028961,-0.3396,-0.005161,-0.005878,0.004915,-23.370001000000002,23.68,-23.75,2d
2019-07-12_115201:380,-0.359955,-0.028961,-0.34063699999999997,-0.004703,-0.005878,0.004671,-23.370001000000002,23.68,-23.75,2d
2019-07-12_115201:400,-0.36044299999999996,-0.027954000000000003,-0.341125,-0.004520000000000001,-0.005725,0.00403,-23.370001000000002,24.0,-23.25,2d
2019-07-12_115201:420,-0.358429,-0.025908999999999998,-0.340118,-0.004275999999999999,-0.005634,0.003572,-23.370001000000002,24.0,-23.25,2d
2019-07-12_115201:440,-0.36044299999999996,-0.024384,-0.339111,-0.004520000000000001,-0.005451,0.0037549999999999997,-24.059998999999998,23.68,-23.75,2d
2019-07-12_115201:460,-0.35943600000000003,-0.021332,-0.33758499999999997,-0.005039,-0.005359,0.004213000000000001,-24.059998999999998,23.68,-23.75,2d
2019-07-12_115201:480,-0.36044299999999996,-0.022858,-0.338593,-0.005771,-0.005115,0.004609,-24.059998999999998,23.68,-23.75,2d
2019-07-12_115201:500,-0.358917,-0.025908999999999998,-0.3396,-0.006351,-0.00539,0.004671,-24.059998999999998,24.0,-23.75,2d
2019-07-12_115201:520,-0.358917,-0.026917,-0.339111,-0.00629,-0.005451,0.004518,-24.059998999999998,24.0,-23.75,2d
2019-07-12_115201:540,-0.35739099999999996,-0.029480000000000003,-0.338593,-0.006076,-0.005695,0.004548,-23.75,23.68,-23.25,2d
2019-07-12_115201:560,-0.358429,-0.030487,-0.338593,-0.0052829999999999995,-0.006,0.004671,-23.75,23.68,-23.25,2d
2019-07-12_115201:580,-0.359955,-0.029968,-0.340118,-0.004642,-0.006,0.004457,-23.75,23.68,-23.25,2d
2019-07-12_115201:600,-0.36044299999999996,-0.027954000000000003,-0.340118,-0.004062,-0.006,0.004335,-23.370001000000002,23.68,-21.75,2d
2019-07-12_115201:620,-0.364532,-0.027435,-0.34317,-0.003788,-0.0055119999999999995,0.004671,-23.370001000000002,23.68,-21.75,2d
2019-07-12_115201:640,-0.358429,-0.026917,-0.34063699999999997,-0.0033909999999999995,-0.004961999999999999,0.004609,-23.370001000000002,24.370001000000002,-22.559998999999998,2d
2019-07-12_115201:660,-0.35791,-0.023375999999999997,-0.34063699999999997,-0.004001,-0.005451,0.004274,-23.370001000000002,24.370001000000002,-22.559998999999998,2d
2019-07-12_115201:680,-0.363007,-0.021851,-0.341644,-0.004886,-0.005176,0.004548,-23.370001000000002,24.370001000000002,-22.559998999999998,2d
2019-07-12_115201:700,-0.358429,-0.022369,-0.339111,-0.005832,-0.005054,0.004518,-24.059998999999998,24.75,-23.75,2d
2019-07-12_115201:720,-0.36349499999999996,-0.022858,-0.341125,-0.007023000000000001,-0.005359,0.003297,-24.059998999999998,24.75,-23.75,2d
2019-07-12_115201:740,-0.36349499999999996,-0.022858,-0.341644,-0.007755,-0.005054,0.0032359999999999997,-23.75,24.370001000000002,-23.25,2d
2019-07-12_115201:760,-0.361969,-0.025908999999999998,-0.338593,-0.008029999999999999,-0.005176,0.004213000000000001,-23.75,24.370001000000002,-23.25,2d
2019-07-12_115201:780,-0.360962,-0.031494,-0.34063699999999997,-0.007601999999999999,-0.004901,0.004396,-23.75,24.370001000000002,-23.25,2d
2019-07-12_115201:800,-0.359955,-0.031494,-0.3396,-0.0065650000000000005,-0.00484,0.0038159999999999995,-23.75,24.75,-23.25,2d
2019-07-12_115201:820,-0.35739099999999996,-0.031494,-0.33758499999999997,-0.005344,-0.005115,0.00345,-23.75,24.75,-23.25,2d
2019-07-12_115201:840,-0.355896,-0.029968,-0.338593,-0.004275999999999999,-0.005573,0.003511,-24.5,23.870001000000002,-24.059998999999998,2d
2019-07-12_115201:860,-0.355896,-0.027954000000000003,-0.33605999999999997,-0.003483,-0.005725,0.003511,-24.5,23.870001000000002,-24.059998999999998,2d
2019-07-12_115201:880,-0.354858,-0.024902,-0.339111,-0.0032689999999999998,-0.006275,0.0032359999999999997,-24.5,23.870001000000002,-24.059998999999998,2d
2019-07-12_115201:900,-0.35791,-0.021851,-0.340118,-0.003544,-0.006336,0.003175,-23.370001000000002,23.870001000000002,-24.059998999999998,2d
2019-07-12_115201:920,-0.363007,-0.020325,-0.338074,-0.00394,-0.006275,0.003572,-23.370001000000002,23.870001000000002,-24.059998999999998,2d
2019-07-12_115201:940,-0.364532,-0.020844,-0.339111,-0.004612,-0.005817,0.004213000000000001,-23.75,24.0,-22.870001000000002,2d
2019-07-12_115201:960,-0.356903,-0.025908999999999998,-0.338074,-0.004886,-0.0060609999999999995,0.004274,-23.75,24.0,-22.870001000000002,2d
2019-07-12_115201:980,-0.35791,-0.024902,-0.34063699999999997,-0.004947,-0.006336,0.003297,-23.75,24.0,-22.870001000000002,2d
2019-07-12_115202:000,-0.361969,-0.025421,-0.34063699999999997,-0.004520000000000001,-0.006397,0.00345,-23.370001000000002,24.0,-24.059998999999998,2d
2019-07-12_115202:020,-0.36248800000000003,-0.025908999999999998,-0.34063699999999997,-0.0037270000000000003,-0.0060609999999999995,0.004518,-23.370001000000002,24.0,-24.059998999999998,2d
2019-07-12_115202:040,-0.360962,-0.024902,-0.342163,-0.0036049999999999997,-0.005756,0.004793,-23.370001000000002,23.68,-23.25,2d
2019-07-12_115202:060,-0.360962,-0.024384,-0.34317,-0.0036659999999999996,-0.005756,0.004396,-23.370001000000002,23.68,-23.25,2d
2019-07-12_115202:080,-0.360962,-0.025421,-0.34368899999999997,-0.004123,-0.00539,0.004671,-23.370001000000002,23.68,-23.25,2d
2019-07-12_115202:100,-0.360962,-0.025421,-0.342163,-0.004581,-0.005054,0.004457,-23.75,23.68,-22.870001000000002,2d
2019-07-12_115202:120,-0.358917,-0.026917,-0.34063699999999997,-0.004886,-0.005054,0.0038159999999999995,-23.75,23.68,-22.870001000000002,2d
2019-07-12_115202:140,-0.358429,-0.027954000000000003,-0.34063699999999997,-0.005161,-0.004993,0.0034189999999999997,-23.059998999999998,24.370001000000002,-23.75,2d
2019-07-12_115202:160,-0.358917,-0.026917,-0.340118,-0.004703,-0.005298,0.003053,-23.059998999999998,24.370001000000002,-23.75,2d
2019-07-12_115202:180,-0.35943600000000003,-0.027954000000000003,-0.340118,-0.004337,-0.005298,0.002839,-23.059998999999998,24.370001000000002,-23.75,2d
2019-07-12_115202:200,-0.35739099999999996,-0.024902,-0.338593,-0.004184,-0.0055119999999999995,0.003023,-23.75,24.0,-23.25,2d
2019-07-12_115202:220,-0.35791,-0.026427999999999997,-0.339111,-0.00394,-0.005573,0.003358,-23.75,24.0,-23.25,2d
2019-07-12_115202:240,-0.358917,-0.024902,-0.338593,-0.003879,-0.005939,0.003572,-24.870001000000002,23.68,-23.75,2d
2019-07-12_115202:260,-0.35943600000000003,-0.024384,-0.337067,-0.003849,-0.005695,0.00345,-24.870001000000002,23.68,-23.75,2d
2019-07-12_115202:280,-0.359955,-0.023375999999999997,-0.3396,-0.0042450000000000005,-0.0060609999999999995,0.00345,-24.870001000000002,23.68,-23.75,2d
2019-07-12_115202:300,-0.359955,-0.021851,-0.339111,-0.004642,-0.005939,0.0039689999999999994,-24.5,23.68,-22.870001000000002,2d
2019-07-12_115202:320,-0.36044299999999996,-0.022858,-0.338593,-0.0051,-0.006092,0.004152,-24.5,23.68,-22.870001000000002,2d
2019-07-12_115202:340,-0.358429,-0.024902,-0.340118,-0.0052829999999999995,-0.006275,0.00403,-24.059998999999998,24.0,-23.25,2d
2019-07-12_115202:360,-0.359955,-0.024902,-0.341644,-0.005161,-0.0061530000000000005,0.003908,-24.059998999999998,24.0,-23.25,2d
2019-07-12_115202:380,-0.35943600000000003,-0.025908999999999998,-0.341644,-0.005039,-0.0060609999999999995,0.004213000000000001,-24.059998999999998,24.0,-23.25,2d
2019-07-12_115202:400,-0.35739099999999996,-0.025421,-0.341125,-0.004642,-0.0061530000000000005,0.004671,-23.059998999999998,23.68,-23.25,2d
2019-07-12_115202:420,-0.36248800000000003,-0.026427999999999997,-0.341125,-0.004581,-0.005756,0.004518,-23.059998999999998,23.68,-23.25,2d
2019-07-12_115202:440,-0.35791,-0.025421,-0.34063699999999997,-0.004337,-0.005573,0.00403,-23.370001000000002,24.0,-22.059998999999998,2d
2019-07-12_115202:460,-0.361969,-0.024902,-0.3396,-0.004612,-0.0055119999999999995,0.0039689999999999994,-23.370001000000002,24.0,-22.059998999999998,2d
2019-07-12_115202:480,-0.35791,-0.024902,-0.34063699999999997,-0.004642,-0.005359,0.0038159999999999995,-23.370001000000002,24.0,-22.059998999999998,2d
2019-07-12_115202:500,-0.355896,-0.026427999999999997,-0.3396,-0.004703,-0.006458,0.0026260000000000003,-23.370001000000002,24.75,-22.870001000000002,2d
2019-07-12_115202:520,-0.35943600000000003,-0.024384,-0.34317,-0.004612,-0.0066099999999999996,0.002443,-23.370001000000002,24.75,-22.870001000000002,2d
2019-07-12_115202:540,-0.36044299999999996,-0.022369,-0.344177,-0.004184,-0.006397,0.004182,-23.370001000000002,24.0,-22.870001000000002,2d
2019-07-12_115202:560,-0.361481,-0.025421,-0.34368899999999997,-0.004062,-0.005756,0.004518,-23.370001000000002,24.0,-22.870001000000002,2d
2019-07-12_115202:580,-0.35943600000000003,-0.024384,-0.34368899999999997,-0.0042450000000000005,-0.005298,0.003908,-23.370001000000002,24.0,-22.870001000000002,2d
2019-07-12_115202:600,-0.356903,-0.021851,-0.342163,-0.004275999999999999,-0.005176,0.0038469999999999997,-23.75,24.370001000000002,-23.75,2d
2019-07-12_115202:620,-0.35638400000000003,-0.023895,-0.34063699999999997,-0.004612,-0.005298,0.004182,-23.75,24.370001000000002,-23.75,2d
2019-07-12_115202:640,-0.35739099999999996,-0.023895,-0.341644,-0.004642,-0.005634,0.0039689999999999994,-23.75,23.68,-22.870001000000002,2d
2019-07-12_115202:660,-0.356903,-0.023375999999999997,-0.34063699999999997,-0.004703,-0.005451,0.004091,-23.75,23.68,-22.870001000000002,2d
2019-07-12_115202:680,-0.355896,-0.024902,-0.342163,-0.004581,-0.005695,0.004152,-23.75,23.68,-22.870001000000002,2d
2019-07-12_115202:700,-0.358917,-0.024902,-0.34317,-0.004520000000000001,-0.005817,0.004213000000000001,-24.059998999999998,23.68,-23.25,2d
2019-07-12_115202:720,-0.364532,-0.023895,-0.341125,-0.004337,-0.005573,0.004274,-24.059998999999998,23.68,-23.25,2d
2019-07-12_115202:740,-0.35638400000000003,-0.022858,-0.341644,-0.0042450000000000005,-0.0052369999999999995,0.004396,-24.870001000000002,24.75,-23.25,2d
2019-07-12_115202:760,-0.358917,-0.025421,-0.340118,-0.004184,-0.005725,0.0038159999999999995,-24.870001000000002,24.75,-23.25,2d
2019-07-12_115202:780,-0.360962,-0.021851,-0.34317,-0.00394,-0.005756,0.0038159999999999995,-24.870001000000002,24.75,-23.25,2d
2019-07-12_115202:800,-0.36248800000000003,-0.021851,-0.341644,-0.004062,-0.005634,0.004854,-23.75,24.370001000000002,-23.25,2d
2019-07-12_115202:820,-0.36349499999999996,-0.021332,-0.340118,-0.004062,-0.005054,0.005342,-23.75,24.370001000000002,-23.25,2d
2019-07-12_115202:840,-0.360962,-0.021332,-0.340118,-0.004703,-0.004779,0.004945000000000001,-24.059998999999998,24.0,-24.5,2d
2019-07-12_115202:860,-0.359955,-0.022369,-0.34063699999999997,-0.005161,-0.004718,0.005189,-24.059998999999998,24.0,-24.5,2d
2019-07-12_115202:880,-0.35791,-0.024384,-0.339111,-0.005375,-0.004718,0.00525,-24.059998999999998,24.0,-24.5,2d
2019-07-12_115202:900,-0.358917,-0.026427999999999997,-0.339111,-0.005741,-0.005054,0.005311,-23.059998999999998,23.68,-22.870001000000002,2d
2019-07-12_115202:920,-0.356903,-0.026427999999999997,-0.337067,-0.005558,-0.0052369999999999995,0.005403,-23.059998999999998,23.68,-22.870001000000002,2d
2019-07-12_115202:940,-0.356903,-0.028442000000000002,-0.338593,-0.0052829999999999995,-0.005695,0.005403,-24.059998999999998,24.370001000000002,-22.870001000000002,2d
2019-07-12_115202:960,-0.35638400000000003,-0.027435,-0.33758499999999997,-0.0051,-0.006,0.005128,-24.059998999999998,24.370001000000002,-22.870001000000002,2d
2019-07-12_115202:980,-0.355896,-0.027435,-0.339111,-0.004886,-0.006458,0.005128,-24.059998999999998,24.370001000000002,-22.870001000000002,2d
2019-07-12_115203:000,-0.35791,-0.027435,-0.338593,-0.004886,-0.006488,0.005006,-24.059998999999998,24.370001000000002,-23.75,2d
2019-07-12_115203:020,-0.358917,-0.027954000000000003,-0.338593,-0.004886,-0.006548999999999999,0.004732,-24.059998999999998,24.370001000000002,-23.75,2d
2019-07-12_115203:040,-0.36044299999999996,-0.027954000000000003,-0.34063699999999997,-0.004703,-0.006397,0.004396,-23.75,24.370001000000002,-23.75,2d
2019-07-12_115203:060,-0.35943600000000003,-0.027954000000000003,-0.341125,-0.004947,-0.006214,0.004609,-23.75,24.370001000000002,-23.75,2d
2019-07-12_115203:080,-0.35791,-0.027435,-0.34317,-0.005039,-0.006458,0.004457,-23.75,24.370001000000002,-23.75,2d
2019-07-12_115203:100,-0.35791,-0.027435,-0.342163,-0.0051,-0.006458,0.004274,-23.059998999999998,24.0,-22.870001000000002,2d
2019-07-12_115203:120,-0.35943600000000003,-0.028961,-0.34063699999999997,-0.004947,-0.006275,0.004609,-23.059998999999998,24.0,-22.870001000000002,2d
2019-07-12_115203:140,-0.359955,-0.031006,-0.341644,-0.004184,-0.005939,0.004518,-23.370001000000002,24.370001000000002,-22.559998999999998,2d
2019-07-12_115203:160,-0.356903,-0.029968,-0.340118,-0.003544,-0.0061530000000000005,0.003694,-23.370001000000002,24.370001000000002,-22.559998999999998,2d
2019-07-12_115203:180,-0.355377,-0.027435,-0.34317,-0.0033299999999999996,-0.006548999999999999,0.003572,-23.370001000000002,24.370001000000002,-22.559998999999998,2d
2019-07-12_115203:200,-0.355377,-0.025421,-0.344696,-0.0032689999999999998,-0.006548999999999999,0.0038159999999999995,-22.68,24.370001000000002,-22.870001000000002,2d
2019-07-12_115203:220,-0.361481,-0.024384,-0.344177,-0.004123,-0.006548999999999999,0.004213000000000001,-22.68,24.370001000000002,-22.870001000000002,2d
2019-07-12_115203:240,-0.358429,-0.026427999999999997,-0.344177,-0.004459,-0.0061530000000000005,0.004213000000000001,-23.059998999999998,23.559998999999998,-24.059998999999998,2d
2019-07-12_115203:260,-0.35739099999999996,-0.027954000000000003,-0.342163,-0.004978,-0.005359,0.00345,-23.059998999999998,23.559998999999998,-24.059998999999998,2d
2019-07-12_115203:280,-0.35436999999999996,-0.026427999999999997,-0.34368899999999997,-0.005161,-0.005176,0.003175,-23.059998999999998,23.559998999999998,-24.059998999999998,2d
2019-07-12_115203:300,-0.35131799999999996,-0.026917,-0.342163,-0.004642,-0.0060609999999999995,0.002778,-22.68,23.870001000000002,-22.559998999999998,2d
2019-07-12_115203:320,-0.358429,-0.022369,-0.344696,-0.004459,-0.0066099999999999996,0.0026260000000000003,-22.68,23.870001000000002,-22.559998999999998,2d
2019-07-12_115203:340,-0.361481,-0.022858,-0.34674099999999997,-0.004764,-0.0061530000000000005,0.004518,-23.370001000000002,23.559998999999998,-24.059998999999998,2d
2019-07-12_115203:360,-0.361481,-0.025908999999999998,-0.344177,-0.004886,-0.005695,0.005403,-23.370001000000002,23.559998999999998,-24.059998999999998,2d
2019-07-12_115203:380,-0.359955,-0.025908999999999998,-0.344177,-0.005222,-0.004596,0.00525,-23.370001000000002,23.559998999999998,-24.059998999999998,2d
2019-07-12_115203:400,-0.352325,-0.028442000000000002,-0.34265100000000004,-0.005375,-0.004596,0.004793,-23.370001000000002,23.870001000000002,-22.559998999999998,2d
2019-07-12_115203:420,-0.352325,-0.027435,-0.340118,-0.005344,-0.005451,0.004396,-23.370001000000002,23.870001000000002,-22.559998999999998,2d
2019-07-12_115203:440,-0.355896,-0.029480000000000003,-0.34265100000000004,-0.005222,-0.005695,0.004854,-23.370001000000002,23.870001000000002,-23.25,2d
2019-07-12_115203:460,-0.35739099999999996,-0.028961,-0.341644,-0.005039,-0.005756,0.004396,-23.370001000000002,23.870001000000002,-23.25,2d
2019-07-12_115203:480,-0.358429,-0.028442000000000002,-0.34265100000000004,-0.004978,-0.005634,0.004274,-23.370001000000002,23.870001000000002,-23.25,2d
2019-07-12_115203:500,-0.35791,-0.028961,-0.34368899999999997,-0.004764,-0.005634,0.0037549999999999997,-23.059998999999998,24.25,-24.5,2d
2019-07-12_115203:520,-0.361481,-0.028961,-0.34063699999999997,-0.004764,-0.005573,0.003633,-23.059998999999998,24.25,-24.5,2d
2019-07-12_115203:540,-0.355896,-0.029480000000000003,-0.34265100000000004,-0.004642,-0.005054,0.0039689999999999994,-23.059998999999998,23.870001000000002,-22.870001000000002,2d
2019-07-12_115203:560,-0.35791,-0.031006,-0.341644,-0.0042450000000000005,-0.005176,0.00403,-23.059998999999998,23.870001000000002,-22.870001000000002,2d
2019-07-12_115203:580,-0.35791,-0.027954000000000003,-0.344177,-0.00394,-0.005725,0.002321,-23.059998999999998,23.870001000000002,-22.870001000000002,2d
2019-07-12_115203:600,-0.358917,-0.026427999999999997,-0.342163,-0.003849,-0.005756,0.0027170000000000002,-23.75,23.870001000000002,-24.059998999999998,2d
2019-07-12_115203:620,-0.35739099999999996,-0.025421,-0.341644,-0.003849,-0.005634,0.003633,-23.75,23.870001000000002,-24.059998999999998,2d
2019-07-12_115203:640,-0.358429,-0.025421,-0.341644,-0.003879,-0.005695,0.0034189999999999997,-22.68,23.68,-23.25,2d
2019-07-12_115203:660,-0.35739099999999996,-0.025421,-0.341125,-0.004612,-0.005573,0.003114,-22.68,23.68,-23.25,2d
2019-07-12_115203:680,-0.35638400000000003,-0.025421,-0.3396,-0.004581,-0.005451,0.003175,-22.68,23.68,-23.25,2d
2019-07-12_115203:700,-0.356903,-0.026427999999999997,-0.341644,-0.004764,-0.0055119999999999995,0.003114,-23.370001000000002,24.370001000000002,-22.870001000000002,2d
2019-07-12_115203:720,-0.352844,-0.025421,-0.339111,-0.004825,-0.005634,0.003114,-23.370001000000002,24.370001000000002,-22.870001000000002,2d
2019-07-12_115203:740,-0.353333,-0.025421,-0.341125,-0.004612,-0.006092,0.00345,-23.370001000000002,24.370001000000002,-22.870001000000002,2d
2019-07-12_115203:760,-0.356903,-0.025908999999999998,-0.341644,-0.004337,-0.006548999999999999,0.00345,-23.370001000000002,23.68,-23.75,2d
2019-07-12_115203:780,-0.356903,-0.025908999999999998,-0.34317,-0.004062,-0.006854000000000001,0.003358,-23.370001000000002,23.68,-23.75,2d
2019-07-12_115203:800,-0.35791,-0.024384,-0.344177,-0.00394,-0.006548999999999999,0.003633,-24.059998999999998,24.0,-23.25,2d
2019-07-12_115203:820,-0.358917,-0.023895,-0.34265100000000004,-0.003849,-0.006397,0.003908,-24.059998999999998,24.0,-23.25,2d
2019-07-12_115203:840,-0.35791,-0.022858,-0.344177,-0.004398,-0.0061530000000000005,0.0038469999999999997,-23.059998999999998,24.370001000000002,-22.559998999999998,2d
2019-07-12_115203:860,-0.35739099999999996,-0.022858,-0.344696,-0.004581,-0.005817,0.0038469999999999997,-23.059998999999998,24.370001000000002,-22.559998999999998,2d
2019-07-12_115203:880,-0.35739099999999996,-0.023895,-0.34265100000000004,-0.004764,-0.005725,0.0039689999999999994,-23.059998999999998,24.370001000000002,-22.559998999999998,2d
2019-07-12_115203:900,-0.356903,-0.023895,-0.344177,-0.0051,-0.005634,0.004152,-23.059998999999998,24.0,-23.75,2d
2019-07-12_115203:920,-0.35791,-0.024902,-0.34317,-0.005222,-0.005725,0.004396,-23.059998999999998,24.0,-23.75,2d
2019-07-12_115203:940,-0.358429,-0.026427999999999997,-0.34265100000000004,-0.0052829999999999995,-0.00539,0.004213000000000001,-23.059998999999998,24.0,-23.75,2d
2019-07-12_115203:960,-0.356903,-0.026427999999999997,-0.34317,-0.0051,-0.0055119999999999995,0.004274,-23.75,24.0,-22.059998999999998,2d
2019-07-12_115203:980,-0.353333,-0.025908999999999998,-0.34368899999999997,-0.004612,-0.005634,0.004152,-23.75,24.0,-22.059998999999998,2d
2019-07-12_115204:000,-0.354858,-0.024902,-0.344177,-0.004459,-0.005573,0.00403,-23.75,24.0,-23.25,2d
2019-07-12_115204:020,-0.356903,-0.023375999999999997,-0.34265100000000004,-0.004275999999999999,-0.005756,0.004091,-23.75,24.0,-23.25,2d
2019-07-12_115204:040,-0.355377,-0.023895,-0.34265100000000004,-0.004184,-0.0055119999999999995,0.004548,-23.75,24.0,-22.870001000000002,2d
2019-07-12_115204:060,-0.361481,-0.023895,-0.34368899999999997,-0.004520000000000001,-0.005725,0.004732,-23.75,24.0,-22.870001000000002,2d
2019-07-12_115204:080,-0.35436999999999996,-0.022858,-0.341644,-0.004825,-0.00539,0.004671,-23.75,24.0,-22.870001000000002,2d
2019-07-12_115204:100,-0.35791,-0.024384,-0.340118,-0.0052829999999999995,-0.005176,0.004732,-23.75,24.0,-24.059998999999998,2d
2019-07-12_115204:120,-0.353333,-0.025908999999999998,-0.341125,-0.005679999999999999,-0.005725,0.004915,-23.75,24.0,-24.059998999999998,2d
2019-07-12_115204:140,-0.355377,-0.027954000000000003,-0.341125,-0.005893,-0.005878,0.005006,-23.75,24.0,-24.059998999999998,2d
2019-07-12_115204:160,-0.35943600000000003,-0.027435,-0.34317,-0.005741,-0.006793,0.004091,-23.75,24.0,-23.25,2d
2019-07-12_115204:180,-0.358917,-0.028961,-0.345215,-0.005436,-0.006670999999999999,0.004396,-23.75,24.0,-23.25,2d
2019-07-12_115204:200,-0.36044299999999996,-0.029480000000000003,-0.347229,-0.004978,-0.006397,0.005525,-23.75,24.0,-23.75,2d
2019-07-12_115204:220,-0.35739099999999996,-0.027954000000000003,-0.344696,-0.004459,-0.006,0.005006,-23.75,24.0,-23.75,2d
2019-07-12_115204:240,-0.355896,-0.026427999999999997,-0.34674099999999997,-0.004642,-0.005695,0.004091,-23.75,24.0,-23.75,2d
2019-07-12_115204:260,-0.355896,-0.027435,-0.345215,-0.004581,-0.005451,0.004335,-22.68,23.25,-22.870001000000002,2d
2019-07-12_115204:280,-0.354858,-0.027435,-0.344177,-0.004764,-0.004993,0.004335,-22.68,23.25,-22.870001000000002,2d
2019-07-12_115204:300,-0.35436999999999996,-0.026917,-0.344696,-0.004825,-0.004657,0.0034189999999999997,-24.5,24.370001000000002,-24.059998999999998,2d
2019-07-12_115204:320,-0.352325,-0.025908999999999998,-0.34317,-0.004947,-0.005176,0.003694,-24.5,24.370001000000002,-24.059998999999998,2d
2019-07-12_115204:340,-0.354858,-0.026917,-0.344177,-0.004764,-0.005634,0.0037549999999999997,-24.5,24.370001000000002,-24.059998999999998,2d
2019-07-12_115204:360,-0.36044299999999996,-0.025908999999999998,-0.34317,-0.004947,-0.005451,0.0039689999999999994,-24.059998999999998,24.370001000000002,-22.559998999999998,2d
2019-07-12_115204:380,-0.35180700000000004,-0.025908999999999998,-0.342163,-0.004825,-0.005359,0.004457,-24.059998999999998,24.370001000000002,-22.559998999999998,2d
2019-07-12_115204:400,-0.353851,-0.028442000000000002,-0.34317,-0.004642,-0.005878,0.003572,-23.75,24.370001000000002,-23.75,2d
2019-07-12_115204:420,-0.35436999999999996,-0.025421,-0.342163,-0.004764,-0.006275,0.0026260000000000003,-23.75,24.370001000000002,-23.75,2d
2019-07-12_115204:440,-0.355377,-0.025421,-0.344177,-0.004398,-0.0066099999999999996,0.003694,-23.75,24.370001000000002,-23.75,2d
2019-07-12_115204:460,-0.355377,-0.025908999999999998,-0.344177,-0.004184,-0.006670999999999999,0.004335,-23.059998999999998,22.870001000000002,-22.870001000000002,2d
2019-07-12_115204:480,-0.35638400000000003,-0.022858,-0.34317,-0.004520000000000001,-0.006488,0.0037549999999999997,-23.059998999999998,22.870001000000002,-22.870001000000002,2d
2019-07-12_115204:500,-0.358429,-0.021332,-0.344177,-0.004764,-0.006458,0.0038159999999999995,-23.370001000000002,24.0,-24.5,2d
2019-07-12_115204:520,-0.355377,-0.021851,-0.34317,-0.005161,-0.006092,0.004457,-23.370001000000002,24.0,-24.5,2d
2019-07-12_115204:540,-0.35638400000000003,-0.024384,-0.344177,-0.005497,-0.005878,0.004274,-23.370001000000002,24.0,-24.5,2d
2019-07-12_115204:560,-0.35436999999999996,-0.025421,-0.34368899999999997,-0.005741,-0.006,0.004518,-23.75,24.0,-22.870001000000002,2d
2019-07-12_115204:580,-0.353851,-0.027954000000000003,-0.34368899999999997,-0.005344,-0.006397,0.004548,-23.75,24.0,-22.870001000000002,2d
2019-07-12_115204:600,-0.354858,-0.028442000000000002,-0.344696,-0.004764,-0.006458,0.004213000000000001,-23.370001000000002,24.0,-22.870001000000002,2d
2019-07-12_115204:620,-0.354858,-0.026917,-0.34317,-0.0042450000000000005,-0.006488,0.004213000000000001,-23.370001000000002,24.0,-22.870001000000002,2d
2019-07-12_115204:640,-0.353851,-0.025421,-0.344696,-0.003849,-0.006397,0.004732,-23.370001000000002,24.0,-22.870001000000002,2d
2019-07-12_115204:660,-0.35436999999999996,-0.023375999999999997,-0.345215,-0.004184,-0.006458,0.004671,-23.75,24.0,-24.059998999999998,2d
2019-07-12_115204:680,-0.354858,-0.024384,-0.346222,-0.004337,-0.006275,0.004915,-23.75,24.0,-24.059998999999998,2d
2019-07-12_115204:700,-0.35436999999999996,-0.023375999999999997,-0.34674099999999997,-0.004886,-0.006397,0.004793,-23.370001000000002,24.0,-23.75,2d
2019-07-12_115204:720,-0.354858,-0.026427999999999997,-0.344177,-0.005222,-0.006458,0.004457,-23.370001000000002,24.0,-23.75,2d
2019-07-12_115204:740,-0.35180700000000004,-0.027435,-0.34674099999999997,-0.005679999999999999,-0.006458,0.004274,-23.370001000000002,24.0,-23.75,2d
2019-07-12_115204:760,-0.353333,-0.029480000000000003,-0.346222,-0.005558,-0.006731999999999999,0.004518,-23.059998999999998,24.0,-23.75,2d
2019-07-12_115204:780,-0.35436999999999996,-0.029480000000000003,-0.34570300000000004,-0.005375,-0.006397,0.004548,-23.059998999999998,24.0,-23.75,2d
2019-07-12_115204:800,-0.35180700000000004,-0.031006,-0.347229,-0.0051,-0.006458,0.004548,-23.370001000000002,23.68,-23.25,2d
2019-07-12_115204:820,-0.355377,-0.028961,-0.34674099999999997,-0.004612,-0.006670999999999999,0.004335,-23.370001000000002,23.68,-23.25,2d
2019-07-12_115204:840,-0.353333,-0.029480000000000003,-0.347229,-0.004275999999999999,-0.006670999999999999,0.0038469999999999997,-23.370001000000002,23.68,-23.25,2d
2019-07-12_115204:860,-0.35739099999999996,-0.027954000000000003,-0.346222,-0.004123,-0.006397,0.003572,-23.75,23.25,-23.25,2d
2019-07-12_115204:880,-0.35739099999999996,-0.027954000000000003,-0.347748,-0.004275999999999999,-0.006214,0.0038159999999999995,-23.75,23.25,-23.25,2d
2019-07-12_115204:900,-0.35739099999999996,-0.027954000000000003,-0.34317,-0.004123,-0.005695,0.0034189999999999997,-23.370001000000002,23.68,-24.5,2d
2019-07-12_115204:920,-0.352325,-0.024902,-0.341125,-0.004275999999999999,-0.005573,0.002321,-23.370001000000002,23.68,-24.5,2d
2019-07-12_115204:940,-0.34265100000000004,-0.021851,-0.34063699999999997,-0.004581,-0.005878,0.0019850000000000002,-23.370001000000002,23.68,-24.5,2d
2019-07-12_115204:960,-0.34570300000000004,-0.023375999999999997,-0.342163,-0.004581,-0.006731999999999999,0.0027170000000000002,-23.370001000000002,24.370001000000002,-22.059998999999998,2d
2019-07-12_115204:980,-0.34063699999999997,-0.024902,-0.34317,-0.004398,-0.008014,0.002839,-23.370001000000002,24.370001000000002,-22.059998999999998,2d
2019-07-12_115205:000,-0.349792,-0.022369,-0.349792,-0.004001,-0.009448,0.0016489999999999999,-23.370001000000002,23.870001000000002,-22.559998999999998,2d
2019-07-12_115205:020,-0.360962,-0.019318000000000002,-0.353333,-0.003788,-0.009143,0.001893,-23.370001000000002,23.870001000000002,-22.559998999999998,2d
2019-07-12_115205:040,-0.361481,-0.01828,-0.354858,-0.003788,-0.007984,0.0034189999999999997,-23.370001000000002,23.870001000000002,-22.559998999999998,2d
2019-07-12_115205:060,-0.363007,-0.015228,-0.35791,-0.004337,-0.007006999999999999,0.004182,-23.75,23.870001000000002,-22.870001000000002,2d
2019-07-12_115205:080,-0.365021,-0.014740000000000001,-0.35638400000000003,-0.005679999999999999,-0.006092,0.004732,-23.75,23.870001000000002,-22.870001000000002,2d
2019-07-12_115205:100,-0.364014,-0.01828,-0.353851,-0.006809,-0.005298,0.0058,-23.059998999999998,23.18,-23.25,2d
2019-07-12_115205:120,-0.361969,-0.024902,-0.350281,-0.007601999999999999,-0.004108,0.005678,-23.059998999999998,23.18,-23.25,2d
2019-07-12_115205:140,-0.34875500000000004,-0.028961,-0.34368899999999997,-0.007297,-0.0032530000000000002,0.004518,-23.059998999999998,23.18,-23.25,2d
2019-07-12_115205:160,-0.34317,-0.031494,-0.34063699999999997,-0.006412,-0.003589,0.004457,-22.68,24.68,-23.25,2d
2019-07-12_115205:180,-0.340118,-0.034058,-0.338074,-0.004520000000000001,-0.003925,0.005464,-22.68,24.68,-23.25,2d
2019-07-12_115205:200,-0.339111,-0.03302,-0.33605999999999997,-0.003116,-0.004961999999999999,0.005586,-23.75,23.870001000000002,-24.5,2d
2019-07-12_115205:220,-0.341125,-0.027954000000000003,-0.3396,-0.002353,-0.006,0.005128,-23.75,23.870001000000002,-24.5,2d
2019-07-12_115205:240,-0.34368899999999997,-0.025421,-0.34063699999999997,-0.002323,-0.007801000000000001,0.005067,-23.75,23.870001000000002,-24.5,2d
2019-07-12_115205:260,-0.352844,-0.020844,-0.348267,-0.003208,-0.009204,0.004609,-23.059998999999998,23.870001000000002,-24.870001000000002,2d
2019-07-12_115205:280,-0.358429,-0.021332,-0.35131799999999996,-0.004886,-0.009601,0.004732,-23.059998999999998,23.870001000000002,-24.870001000000002,2d
2019-07-12_115205:300,-0.361481,-0.023375999999999997,-0.35436999999999996,-0.006076,-0.009113,0.005464,-23.059998999999998,23.559998999999998,-23.25,2d
2019-07-12_115205:320,-0.356903,-0.026427999999999997,-0.352325,-0.007084,-0.007739,0.004854,-23.059998999999998,23.559998999999998,-23.25,2d
2019-07-12_115205:340,-0.352844,-0.028961,-0.350281,-0.00748,-0.006488,0.00403,-23.059998999999998,23.559998999999998,-23.25,2d
2019-07-12_115205:360,-0.34570300000000004,-0.03302,-0.34875500000000004,-0.007023000000000001,-0.0061530000000000005,0.00403,-23.059998999999998,23.870001000000002,-24.5,2d
2019-07-12_115205:380,-0.346222,-0.035583,-0.347748,-0.005679999999999999,-0.006670999999999999,0.004152,-23.059998999999998,23.870001000000002,-24.5,2d
2019-07-12_115205:400,-0.345215,-0.036591000000000005,-0.349792,-0.004184,-0.007006999999999999,0.003358,-22.25,23.870001000000002,-23.25,2d
2019-07-12_115205:420,-0.348267,-0.036072,-0.34875500000000004,-0.0022010000000000003,-0.007587000000000001,0.0025039999999999997,-22.25,23.870001000000002,-23.25,2d
2019-07-12_115205:440,-0.35180700000000004,-0.028961,-0.35436999999999996,-0.000889,-0.007465,0.001253,-22.25,23.870001000000002,-23.25,2d
2019-07-12_115205:460,-0.353333,-0.020844,-0.35436999999999996,-0.000492,-0.006945999999999999,0.000245,-22.68,23.18,-23.75,2d
2019-07-12_115205:480,-0.36248800000000003,-0.010162000000000001,-0.356903,-0.001468,-0.006548999999999999,0.000642,-22.68,23.18,-23.75,2d
2019-07-12_115205:500,-0.35739099999999996,-0.007599,-0.354858,-0.0033909999999999995,-0.005725,0.001497,-22.68,24.0,-22.870001000000002,2d
2019-07-12_115205:520,-0.3508,-0.009125,-0.34875500000000004,-0.0060149999999999995,-0.0045049999999999995,0.0017100000000000001,-22.68,24.0,-22.870001000000002,2d
2019-07-12_115205:540,-0.34570300000000004,-0.014221000000000001,-0.347748,-0.008152,-0.0038640000000000002,0.002321,-22.68,24.0,-22.870001000000002,2d
2019-07-12_115205:560,-0.334015,-0.026917,-0.342163,-0.00867,-0.0035280000000000003,0.004335,-24.059998999999998,23.559998999999998,-23.25,2d
2019-07-12_115205:580,-0.33758499999999997,-0.036072,-0.34317,-0.007145,-0.004901,0.00525,-24.059998999999998,23.559998999999998,-23.25,2d
2019-07-12_115205:600,-0.33758499999999997,-0.036072,-0.346222,-0.004612,-0.006275,0.005006,-23.059998999999998,23.68,-23.75,2d
2019-07-12_115205:620,-0.341644,-0.03302,-0.34875500000000004,-0.0018039999999999998,-0.008014,0.005403,-23.059998999999998,23.68,-23.75,2d
2019-07-12_115205:640,-0.349274,-0.022369,-0.356903,-3e-06,-0.009204,0.0058,-23.059998999999998,23.68,-23.75,2d
2019-07-12_115205:660,-0.358429,-0.016266,-0.359955,-0.000553,-0.009723,0.0058,-23.059998999999998,24.370001000000002,-25.25,2d
2019-07-12_115205:680,-0.35791,-0.009644,-0.361481,-0.0027199999999999998,-0.008808,0.006379,-23.059998999999998,24.370001000000002,-25.25,2d
2019-07-12_115205:700,-0.353851,-0.010651,-0.36044299999999996,-0.0061070000000000004,-0.006854000000000001,0.006135,-23.059998999999998,24.75,-24.5,2d
2019-07-12_115205:720,-0.352844,-0.019806,-0.355896,-0.009281000000000001,-0.005451,0.005586,-23.059998999999998,24.75,-24.5,2d
2019-07-12_115205:740,-0.34063699999999997,-0.027954000000000003,-0.3508,-0.010409999999999999,-0.004108,0.006257,-23.059998999999998,24.75,-24.5,2d
2019-07-12_115205:760,-0.34265100000000004,-0.045226999999999996,-0.34875500000000004,-0.009464,-0.004901,0.006379,-22.25,23.559998999999998,-22.870001000000002,2d
2019-07-12_115205:780,-0.34674099999999997,-0.046752999999999996,-0.3508,-0.0069,-0.005756,0.004945000000000001,-22.25,23.559998999999998,-22.870001000000002,2d
2019-07-12_115205:800,-0.34265100000000004,-0.045745999999999995,-0.349274,-0.002994,-0.006397,0.003572,-23.370001000000002,23.68,-24.059998999999998,2d
2019-07-12_115205:820,-0.349274,-0.038116000000000004,-0.355377,0.000393,-0.0076170000000000005,0.001436,-23.370001000000002,23.68,-24.059998999999998,2d
2019-07-12_115205:840,-0.355377,-0.019318000000000002,-0.354858,0.0018280000000000002,-0.007526000000000001,-0.000151,-23.370001000000002,23.68,-24.059998999999998,2d
2019-07-12_115205:860,-0.35791,-0.010651,-0.358429,0.000973,-0.007220999999999999,0.001039,-23.370001000000002,24.0,-24.059998999999998,2d
2019-07-12_115205:880,-0.356903,-0.005065999999999999,-0.35638400000000003,-0.001224,-0.006397,0.002321,-23.370001000000002,24.0,-24.059998999999998,2d
2019-07-12_115205:900,-0.352325,-0.004059,-0.352325,-0.004764,-0.004901,0.0019850000000000002,-22.25,24.370001000000002,-23.75,2d
2019-07-12_115205:920,-0.34265100000000004,-0.012695,-0.347229,-0.008426000000000001,-0.003192,0.003053,-22.25,24.370001000000002,-23.75,2d
2019-07-12_115205:940,-0.33605999999999997,-0.025908999999999998,-0.345215,-0.009922,-0.002582,0.005464,-22.25,24.370001000000002,-23.75,2d
2019-07-12_115205:960,-0.335022,-0.038635,-0.344696,-0.009006,-0.003711,0.005006,-22.68,23.68,-22.870001000000002,2d
2019-07-12_115205:980,-0.33605999999999997,-0.040649,-0.345215,-0.006809,-0.005634,0.003297,-22.68,23.68,-22.870001000000002,2d
2019-07-12_115206:000,-0.340118,-0.036072,-0.349792,-0.002933,-0.007678,0.0037549999999999997,-23.059998999999998,24.0,-24.059998999999998,2d
2019-07-12_115206:020,-0.3508,-0.025421,-0.352325,-0.000339,-0.008869,0.004396,-23.059998999999998,24.0,-24.059998999999998,2d
2019-07-12_115206:040,-0.3508,-0.0025329999999999997,-0.35943600000000003,-0.000889,-0.008716,0.005128,-23.059998999999998,24.0,-24.059998999999998,2d
2019-07-12_115206:060,-0.35131799999999996,0.000488,-0.35943600000000003,-0.004825,-0.007984,0.005983,-22.68,23.68,-22.870001000000002,2d
2019-07-12_115206:080,-0.3508,0.004547,-0.35943600000000003,-0.010256999999999999,-0.007220999999999999,0.00525,-22.68,23.68,-22.870001000000002,2d
2019-07-12_115206:100,-0.353333,0.0035399999999999997,-0.361481,-0.0163,-0.006458,0.0058,-23.370001000000002,23.68,-24.059998999999998,2d
2019-07-12_115206:120,-0.350281,-0.013213999999999998,-0.356903,-0.020816,-0.005115,0.008058,-23.370001000000002,23.68,-24.059998999999998,2d
2019-07-12_115206:140,-0.350281,-0.024902,-0.35638400000000003,-0.023075,-0.004657,0.007783,-23.370001000000002,23.68,-24.059998999999998,2d
2019-07-12_115206:160,-0.3508,-0.03302,-0.355377,-0.023014,-0.004961999999999999,0.005311,-24.059998999999998,24.370001000000002,-24.5,2d
2019-07-12_115206:180,-0.344177,-0.039124,-0.350281,-0.020968999999999998,-0.004657,0.0032359999999999997,-24.059998999999998,24.370001000000002,-24.5,2d
2019-07-12_115206:200,-0.34368899999999997,-0.041168,-0.3508,-0.016727000000000002,-0.00484,0.0017100000000000001,-23.370001000000002,24.0,-24.5,2d
2019-07-12_115206:220,-0.341644,-0.037598,-0.349792,-0.01218,-0.004993,0.000245,-23.370001000000002,24.0,-24.5,2d
2019-07-12_115206:240,-0.341644,-0.031494,-0.349792,-0.0067480000000000005,-0.004993,-0.00067,-23.370001000000002,24.0,-24.5,2d
2019-07-12_115206:260,-0.34570300000000004,-0.021332,-0.353333,-0.002262,-0.005725,-9e-05,-22.68,23.68,-25.25,2d
2019-07-12_115206:280,-0.347748,-0.012177,-0.352844,0.000729,-0.0061530000000000005,0.002565,-22.68,23.68,-25.25,2d
2019-07-12_115206:300,-0.347748,-0.007111,-0.35436999999999996,0.002316,-0.006214,0.004335,-22.25,23.25,-24.5,2d
2019-07-12_115206:320,-0.349792,0.0,-0.352844,0.001187,-0.005878,0.004548,-22.25,23.25,-24.5,2d
2019-07-12_115206:340,-0.34570300000000004,-0.001007,-0.353333,-0.000217,-0.0055119999999999995,0.0058,-22.25,23.25,-24.5,2d
2019-07-12_115206:360,-0.344177,-0.006072999999999999,-0.352844,-0.002079,-0.005359,0.006196,-23.059998999999998,23.25,-24.5,2d
2019-07-12_115206:380,-0.344177,-0.007111,-0.353333,-0.00394,-0.005634,0.005342,-23.059998999999998,23.25,-24.5,2d
2019-07-12_115206:400,-0.345215,-0.012695,-0.355377,-0.005039,-0.006214,0.006196,-22.25,23.25,-25.25,2d
2019-07-12_115206:420,-0.34570300000000004,-0.014221000000000001,-0.355377,-0.005375,-0.006731999999999999,0.006654,-22.25,23.25,-25.25,2d
2019-07-12_115206:440,-0.344177,-0.014740000000000001,-0.356903,-0.006076,-0.0066099999999999996,0.005922,-22.25,23.25,-25.25,2d
2019-07-12_115206:460,-0.344696,-0.015228,-0.358429,-0.0061070000000000004,-0.006275,0.005586,-23.059998999999998,23.25,-24.5,2d
2019-07-12_115206:480,-0.34317,-0.018799,-0.356903,-0.005771,-0.0061530000000000005,0.006379,-23.059998999999998,23.25,-24.5,2d
2019-07-12_115206:500,-0.34570300000000004,-0.020844,-0.358429,-0.005344,-0.005939,0.006593000000000001,-22.25,23.25,-24.870001000000002,2d
2019-07-12_115206:520,-0.349274,-0.025421,-0.358429,-0.004459,-0.0060609999999999995,0.006837,-22.25,23.25,-24.870001000000002,2d
2019-07-12_115206:540,-0.352325,-0.028442000000000002,-0.35943600000000003,-0.003055,-0.0060609999999999995,0.0069900000000000006,-22.25,23.25,-24.870001000000002,2d
2019-07-12_115206:560,-0.35739099999999996,-0.029480000000000003,-0.36044299999999996,-0.001407,-0.005756,0.0067150000000000005,-21.559998999999998,23.68,-26.059998999999998,2d
2019-07-12_115206:580,-0.35131799999999996,-0.030487,-0.35638400000000003,0.00011899999999999999,-0.005176,0.006379,-21.559998999999998,23.68,-26.059998999999998,2d
2019-07-12_115206:600,-0.356903,-0.029480000000000003,-0.355377,0.001431,-0.0045049999999999995,0.005739,-22.0,23.25,-25.25,2d
2019-07-12_115206:620,-0.350281,-0.026917,-0.3508,0.002194,-0.003436,0.004671,-22.0,23.25,-25.25,2d
2019-07-12_115206:640,-0.340118,-0.021851,-0.347748,0.003048,-0.00246,0.0026260000000000003,-22.0,23.25,-25.25,2d
2019-07-12_115206:660,-0.338593,-0.015228,-0.347748,0.002896,-0.00246,-0.00067,-22.25,23.68,-24.5,2d
2019-07-12_115206:680,-0.33197,-0.006592,-0.34570300000000004,0.0019190000000000001,-0.002735,-0.0011279999999999999,-22.25,23.68,-24.5,2d
2019-07-12_115206:700,-0.335022,-0.008636,-0.349792,0.000393,-0.004169,0.002168,-23.059998999999998,23.25,-25.25,2d
2019-07-12_115206:720,-0.3396,-0.011169,-0.349274,-0.001224,-0.005756,0.004213000000000001,-23.059998999999998,23.25,-25.25,2d
2019-07-12_115206:740,-0.345215,-0.015747,-0.35436999999999996,-0.003483,-0.0070680000000000005,0.004274,-23.059998999999998,23.25,-25.25,2d
2019-07-12_115206:760,-0.34875500000000004,-0.021332,-0.355896,-0.004886,-0.007984,0.004548,-22.68,24.0,-24.5,2d
2019-07-12_115206:780,-0.35436999999999996,-0.025908999999999998,-0.35739099999999996,-0.0052829999999999995,-0.007801000000000001,0.00525,-22.68,24.0,-24.5,2d
2019-07-12_115206:800,-0.353333,-0.024384,-0.35943600000000003,-0.005222,-0.007006999999999999,0.004548,-23.059998999999998,24.0,-24.059998999999998,2d
2019-07-12_115206:820,-0.347748,-0.020325,-0.356903,-0.004886,-0.006092,0.00403,-23.059998999999998,24.0,-24.059998999999998,2d
2019-07-12_115206:840,-0.344177,-0.019318000000000002,-0.35943600000000003,-0.004886,-0.00539,0.004182,-23.059998999999998,24.0,-24.059998999999998,2d
2019-07-12_115206:860,-0.347748,-0.020325,-0.355896,-0.005741,-0.004993,0.005311,-21.559998999999998,23.68,-22.870001000000002,2d
2019-07-12_115206:880,-0.342163,-0.023375999999999997,-0.355377,-0.006351,-0.004718,0.007387,-21.559998999999998,23.68,-22.870001000000002,2d
2019-07-12_115206:900,-0.3508,-0.032013,-0.358917,-0.0064730000000000005,-0.005115,0.007905,-23.059998999999998,24.0,-24.5,2d
2019-07-12_115206:920,-0.35638400000000003,-0.035065,-0.35638400000000003,-0.0061070000000000004,-0.005756,0.006074,-23.059998999999998,24.0,-24.5,2d
2019-07-12_115206:940,-0.35131799999999996,-0.037598,-0.35638400000000003,-0.004825,-0.005695,0.005525,-23.059998999999998,24.0,-24.5,2d
2019-07-12_115206:960,-0.354858,-0.038635,-0.356903,-0.003208,-0.005359,0.005342,-22.25,24.0,-23.75,2d
2019-07-12_115206:980,-0.355377,-0.031006,-0.35436999999999996,-0.002018,-0.0045049999999999995,0.003694,-22.25,24.0,-23.75,2d
2019-07-12_115207:000,-0.353333,-0.023895,-0.35131799999999996,-0.00159,-0.0032530000000000002,0.001527,-23.059998999999998,24.0,-23.75,2d
2019-07-12_115207:020,-0.344696,-0.013702,-0.34674099999999997,-0.0022010000000000003,-0.00246,-0.000762,-23.059998999999998,24.0,-23.75,2d
2019-07-12_115207:040,-0.34063699999999997,-0.011169,-0.346222,-0.0033299999999999996,-0.0020629999999999997,-0.001158,-23.059998999999998,24.0,-23.75,2d
2019-07-12_115207:060,-0.33758499999999997,-0.011169,-0.341125,-0.004612,-0.0023989999999999997,0.001161,-23.059998999999998,24.0,-24.5,2d
2019-07-12_115207:080,-0.338074,-0.017792,-0.341644,-0.005832,-0.002979,0.003633,-23.059998999999998,24.0,-24.5,2d
2019-07-12_115207:100,-0.341125,-0.027435,-0.34570300000000004,-0.006351,-0.004047,0.00403,-22.68,24.0,-24.5,2d
2019-07-12_115207:120,-0.341125,-0.031006,-0.344177,-0.005375,-0.0052369999999999995,0.003694,-22.68,24.0,-24.5,2d
2019-07-12_115207:140,-0.34570300000000004,-0.031006,-0.35180700000000004,-0.0033909999999999995,-0.0066099999999999996,0.0038469999999999997,-22.68,24.0,-24.5,2d
2019-07-12_115207:160,-0.349792,-0.024902,-0.35180700000000004,-0.001621,-0.007984,0.00403,-22.68,24.0,-23.75,2d
2019-07-12_115207:180,-0.350281,-0.014221000000000001,-0.354858,-0.00095,-0.008533,0.004091,-22.68,24.0,-23.75,2d
2019-07-12_115207:200,-0.350281,-0.011687999999999999,-0.35638400000000003,-0.001957,-0.008258,0.003908,-23.75,23.25,-24.059998999999998,2d
2019-07-12_115207:220,-0.34570300000000004,-0.008636,-0.354858,-0.004062,-0.007343000000000001,0.0037549999999999997,-23.75,23.25,-24.059998999999998,2d
2019-07-12_115207:240,-0.344696,-0.011169,-0.355896,-0.00629,-0.006488,0.005311,-23.75,23.25,-24.059998999999998,2d
2019-07-12_115207:260,-0.347229,-0.024384,-0.35739099999999996,-0.008091,-0.006336,0.00757,-22.25,24.0,-23.25,2d
2019-07-12_115207:280,-0.35180700000000004,-0.03302,-0.358429,-0.008548,-0.006670999999999999,0.008119,-22.25,24.0,-23.25,2d
2019-07-12_115207:300,-0.35131799999999996,-0.038635,-0.36044299999999996,-0.0064730000000000005,-0.006336,0.006532,-22.68,24.370001000000002,-23.370001000000002,2d
2019-07-12_115207:320,-0.35180700000000004,-0.040649,-0.355896,-0.004520000000000001,-0.005634,0.005464,-22.68,24.370001000000002,-23.370001000000002,2d
2019-07-12_115207:340,-0.353851,-0.036072,-0.359955,-0.002597,-0.004961999999999999,0.0034189999999999997,-22.68,24.370001000000002,-23.370001000000002,2d
2019-07-12_115207:360,-0.355377,-0.025908999999999998,-0.35791,-0.0018039999999999998,-0.004047,0.001375,-23.059998999999998,24.0,-24.5,2d
2019-07-12_115207:380,-0.353333,-0.012695,-0.352844,-0.002536,-0.003436,0.000795,-23.059998999999998,24.0,-24.5,2d
2019-07-12_115207:400,-0.349792,-0.011687999999999999,-0.35131799999999996,-0.0042450000000000005,-0.002704,0.001192,-23.059998999999998,24.0,-24.059998999999998,2d
2019-07-12_115207:420,-0.340118,-0.009125,-0.344696,-0.0060149999999999995,-0.0023989999999999997,0.00229,-23.059998999999998,24.0,-24.059998999999998,2d
2019-07-12_115207:440,-0.344177,-0.016266,-0.344177,-0.007601999999999999,-0.002124,0.004335,-23.059998999999998,24.0,-24.059998999999998,2d
2019-07-12_115207:460,-0.334015,-0.029968,-0.341125,-0.007358,-0.002796,0.005586,-22.68,24.0,-24.5,2d
2019-07-12_115207:480,-0.338593,-0.033539,-0.34368899999999997,-0.005771,-0.004383,0.004213000000000001,-22.68,24.0,-24.5,2d
2019-07-12_115207:500,-0.34265100000000004,-0.033539,-0.347748,-0.004275999999999999,-0.006214,0.0039689999999999994,-23.370001000000002,23.68,-24.870001000000002,2d
2019-07-12_115207:520,-0.344696,-0.030487,-0.34875500000000004,-0.001621,-0.007587000000000001,0.005342,-23.370001000000002,23.68,-24.870001000000002,2d
2019-07-12_115207:540,-0.35131799999999996,-0.022369,-0.353851,-0.001011,-0.007862000000000001,0.005342,-23.370001000000002,23.68,-24.870001000000002,2d
2019-07-12_115207:560,-0.35180700000000004,-0.015228,-0.355377,-0.0022010000000000003,-0.007739,0.004548,-23.370001000000002,24.0,-24.5,2d
2019-07-12_115207:580,-0.34875500000000004,-0.011169,-0.35638400000000003,-0.004123,-0.007343000000000001,0.005189,-23.370001000000002,24.0,-24.5,2d
2019-07-12_115207:600,-0.348267,-0.012695,-0.355896,-0.0065650000000000005,-0.006670999999999999,0.006135,-22.68,24.370001000000002,-24.5,2d
2019-07-12_115207:620,-0.34875500000000004,-0.020844,-0.355896,-0.008395999999999999,-0.006,0.007265000000000001,-22.68,24.370001000000002,-24.5,2d
2019-07-12_115207:640,-0.349792,-0.031494,-0.35638400000000003,-0.008945,-0.006,0.007965999999999999,-22.68,24.370001000000002,-24.5,2d
2019-07-12_115207:660,-0.350281,-0.042694,-0.355896,-0.0076939999999999995,-0.006092,0.007051000000000001,-22.68,23.68,-23.75,2d
2019-07-12_115207:680,-0.347748,-0.043213,-0.353851,-0.005679999999999999,-0.005634,0.005067,-22.68,23.68,-23.75,2d
2019-07-12_115207:700,-0.354858,-0.043213,-0.35943600000000003,-0.0033909999999999995,-0.005176,0.003572,-23.059998999999998,24.0,-23.75,2d
2019-07-12_115207:720,-0.349274,-0.035583,-0.35180700000000004,-0.001468,-0.0045049999999999995,0.001253,-23.059998999999998,24.0,-23.75,2d
2019-07-12_115207:740,-0.355377,-0.021851,-0.355896,-0.000614,-0.004566,-0.001464,-23.059998999999998,24.0,-23.75,2d
2019-07-12_115207:760,-0.35436999999999996,-0.011687999999999999,-0.353333,-0.0018039999999999998,-0.004169,-0.0015550000000000002,-23.059998999999998,23.68,-23.25,2d
2019-07-12_115207:780,-0.34875500000000004,-0.009125,-0.349274,-0.003147,-0.003436,0.0007030000000000001,-23.059998999999998,23.68,-23.25,2d
2019-07-12_115207:800,-0.346222,-0.010651,-0.347748,-0.0052829999999999995,-0.002796,0.002839,-23.059998999999998,24.0,-24.059998999999998,2d
2019-07-12_115207:820,-0.340118,-0.020844,-0.34368899999999997,-0.006229,-0.00246,0.004457,-23.059998999999998,24.0,-24.059998999999998,2d
2019-07-12_115207:840,-0.340118,-0.030487,-0.34317,-0.0060149999999999995,-0.0031309999999999997,0.004609,-23.059998999999998,24.0,-24.059998999999998,2d
2019-07-12_115207:860,-0.340118,-0.03302,-0.344177,-0.004062,-0.00426,0.0037549999999999997,-22.68,24.0,-24.5,2d
2019-07-12_115207:880,-0.341644,-0.032532,-0.346222,-0.002536,-0.005878,0.00345,-22.68,24.0,-24.5,2d
2019-07-12_115207:900,-0.345215,-0.024902,-0.3508,-0.001194,-0.007129000000000001,0.00403,-23.370001000000002,24.0,-22.870001000000002,2d
2019-07-12_115207:920,-0.350281,-0.019318000000000002,-0.35131799999999996,-0.001407,-0.008136,0.004274,-23.370001000000002,24.0,-22.870001000000002,2d
2019-07-12_115207:940,-0.3508,-0.012177,-0.35436999999999996,-0.003208,-0.008197,0.004548,-23.370001000000002,24.0,-22.870001000000002,2d
2019-07-12_115207:960,-0.35180700000000004,-0.012695,-0.353851,-0.005344,-0.007465,0.005189,-22.68,24.0,-23.75,2d
2019-07-12_115207:980,-0.348267,-0.016266,-0.353333,-0.0076939999999999995,-0.006458,0.005983,-22.68,24.0,-23.75,2d
2019-07-12_115208:000,-0.346222,-0.022858,-0.352844,-0.008823000000000001,-0.006,0.0071730000000000006,-22.68,23.68,-23.370001000000002,2d
2019-07-12_115208:020,-0.348267,-0.035065,-0.353333,-0.00867,-0.006458,0.007203,-22.68,23.68,-23.370001000000002,2d
2019-07-12_115208:040,-0.35131799999999996,-0.039642000000000004,-0.355896,-0.007084,-0.006670999999999999,0.005861,-22.68,23.68,-23.370001000000002,2d
2019-07-12_115208:060,-0.348267,-0.041168,-0.355377,-0.005039,-0.006793,0.004793,-23.370001000000002,24.370001000000002,-23.25,2d
2019-07-12_115208:080,-0.352844,-0.036072,-0.35638400000000003,-0.00275,-0.006458,0.003511,-23.370001000000002,24.370001000000002,-23.25,2d
2019-07-12_115208:100,-0.35131799999999996,-0.032013,-0.356903,-0.0016820000000000001,-0.005939,0.0017100000000000001,-23.059998999999998,23.68,-23.75,2d
2019-07-12_115208:120,-0.355377,-0.016753999999999998,-0.355896,-0.001285,-0.00539,0.000368,-23.059998999999998,23.68,-23.75,2d
2019-07-12_115208:140,-0.35436999999999996,-0.012177,-0.355896,-0.002872,-0.00484,0.0005809999999999999,-23.059998999999998,23.68,-23.75,2d
2019-07-12_115208:160,-0.35131799999999996,-0.011687999999999999,-0.352325,-0.004520000000000001,-0.003925,0.001527,-22.25,24.0,-24.059998999999998,2d
2019-07-12_115208:180,-0.34875500000000004,-0.014740000000000001,-0.349792,-0.006809,-0.00307,0.002778,-22.25,24.0,-24.059998999999998,2d
2019-07-12_115208:200,-0.34368899999999997,-0.025421,-0.34674099999999997,-0.007541,-0.002338,0.0038159999999999995,-23.370001000000002,24.75,-24.059998999999998,2d
2019-07-12_115208:220,-0.344177,-0.03302,-0.34368899999999997,-0.0067480000000000005,-0.002979,0.003572,-23.370001000000002,24.75,-24.059998999999998,2d
2019-07-12_115208:240,-0.340118,-0.032013,-0.344696,-0.004703,-0.003589,0.0026260000000000003,-23.370001000000002,24.75,-24.059998999999998,2d
2019-07-12_115208:260,-0.338593,-0.029968,-0.344177,-0.00275,-0.004961999999999999,0.002839,-23.370001000000002,23.68,-23.75,2d
2019-07-12_115208:280,-0.34570300000000004,-0.022369,-0.34875500000000004,-0.001621,-0.005878,0.00403,-23.370001000000002,23.68,-23.75,2d
2019-07-12_115208:300,-0.33758499999999997,-0.015228,-0.346222,-0.001621,-0.0066099999999999996,0.004732,-23.370001000000002,24.370001000000002,-23.75,2d
2019-07-12_115208:320,-0.344696,-0.012177,-0.35180700000000004,-0.0033299999999999996,-0.0076170000000000005,0.004274,-23.370001000000002,24.370001000000002,-23.75,2d
2019-07-12_115208:340,-0.344696,-0.008636,-0.35436999999999996,-0.005436,-0.007862000000000001,0.004945000000000001,-23.370001000000002,24.370001000000002,-23.75,2d
2019-07-12_115208:360,-0.34875500000000004,-0.015747,-0.35739099999999996,-0.007633,-0.00838,0.007112,-23.059998999999998,23.68,-23.370001000000002,2d
2019-07-12_115208:380,-0.352844,-0.024384,-0.35943600000000003,-0.008762,-0.008136,0.008241,-23.059998999999998,23.68,-23.370001000000002,2d
2019-07-12_115208:400,-0.355377,-0.033539,-0.361481,-0.008732,-0.0076170000000000005,0.007326000000000001,-23.370001000000002,23.68,-23.75,2d
2019-07-12_115208:420,-0.35436999999999996,-0.035583,-0.36044299999999996,-0.007418999999999999,-0.007129000000000001,0.0067150000000000005,-23.370001000000002,23.68,-23.75,2d
2019-07-12_115208:440,-0.352325,-0.038635,-0.358429,-0.005436,-0.0060609999999999995,0.006135,-23.370001000000002,23.68,-23.75,2d
2019-07-12_115208:460,-0.352844,-0.036072,-0.35943600000000003,-0.0037270000000000003,-0.0052369999999999995,0.004396,-22.68,24.75,-24.870001000000002,2d
2019-07-12_115208:480,-0.352325,-0.026427999999999997,-0.35638400000000003,-0.002536,-0.004321,0.002443,-22.68,24.75,-24.870001000000002,2d
2019-07-12_115208:500,-0.35131799999999996,-0.019806,-0.354858,-0.002659,-0.0037719999999999997,0.001588,-22.68,23.68,-23.75,2d
2019-07-12_115208:520,-0.353851,-0.013213999999999998,-0.35131799999999996,-0.00394,-0.0035280000000000003,0.001588,-22.68,23.68,-23.75,2d
2019-07-12_115208:540,-0.3508,-0.014740000000000001,-0.349792,-0.005893,-0.0025210000000000002,0.002778,-22.68,23.68,-23.75,2d
2019-07-12_115208:560,-0.344177,-0.016266,-0.349274,-0.007145,-0.002002,0.003633,-23.5,24.0,-23.75,2d
2019-07-12_115208:580,-0.34570300000000004,-0.028442000000000002,-0.344696,-0.007297,-0.00185,0.002687,-23.5,24.0,-23.75,2d
2019-07-12_115208:600,-0.34368899999999997,-0.029480000000000003,-0.34317,-0.0061070000000000004,-0.002704,0.00229,-23.059998999999998,23.25,-24.059998999999998,2d
2019-07-12_115208:620,-0.34317,-0.031006,-0.341644,-0.004123,-0.004047,0.003053,-23.059998999999998,23.25,-24.059998999999998,2d
2019-07-12_115208:640,-0.34317,-0.026917,-0.344696,-0.002323,-0.005634,0.003511,-23.059998999999998,23.25,-24.059998999999998,2d
2019-07-12_115208:660,-0.345215,-0.023895,-0.345215,-0.001529,-0.006670999999999999,0.004152,-23.059998999999998,23.68,-24.059998999999998,2d
2019-07-12_115208:680,-0.34674099999999997,-0.017273,-0.34570300000000004,-0.002018,-0.007281999999999999,0.004854,-23.059998999999998,23.68,-24.059998999999998,2d
2019-07-12_115208:700,-0.349274,-0.011687999999999999,-0.349792,-0.00394,-0.0076170000000000005,0.006044,-23.370001000000002,24.370001000000002,-24.059998999999998,2d
2019-07-12_115208:720,-0.352325,-0.014221000000000001,-0.3508,-0.005893,-0.007587000000000001,0.007112,-23.370001000000002,24.370001000000002,-24.059998999999998,2d
2019-07-12_115208:740,-0.355896,-0.019318000000000002,-0.354858,-0.008029999999999999,-0.007129000000000001,0.00757,-23.370001000000002,24.370001000000002,-24.059998999999998,2d
2019-07-12_115208:760,-0.35791,-0.025421,-0.354858,-0.008762,-0.006488,0.007387,-22.68,24.0,-23.75,2d
2019-07-12_115208:780,-0.353851,-0.034546,-0.353333,-0.008029999999999999,-0.005695,0.006257,-22.68,24.0,-23.75,2d
2019-07-12_115208:800,-0.347748,-0.038635,-0.35131799999999996,-0.006412,-0.004993,0.004335,-23.059998999999998,24.370001000000002,-23.370001000000002,2d
2019-07-12_115208:820,-0.34265100000000004,-0.036072,-0.349274,-0.004520000000000001,-0.004596,0.002839,-23.059998999999998,24.370001000000002,-23.370001000000002,2d
2019-07-12_115208:840,-0.337067,-0.030487,-0.347748,-0.00275,-0.005115,0.001497,-23.059998999999998,24.370001000000002,-23.370001000000002,2d
2019-07-12_115208:860,-0.338593,-0.022858,-0.347229,-0.002323,-0.0052369999999999995,0.0008560000000000001,-23.370001000000002,24.0,-22.870001000000002,2d
2019-07-12_115208:880,-0.344177,-0.012695,-0.350281,-0.00275,-0.006945999999999999,0.001436,-23.370001000000002,24.0,-22.870001000000002,2d
2019-07-12_115208:900,-0.3508,-0.011169,-0.355377,-0.0032689999999999998,-0.007281999999999999,0.00229,-23.059998999999998,23.25,-23.75,2d
2019-07-12_115208:920,-0.35638400000000003,-0.011169,-0.355896,-0.005954,-0.007404000000000001,0.0038159999999999995,-23.059998999999998,23.25,-23.75,2d
2019-07-12_115208:940,-0.358429,-0.015747,-0.35791,-0.007206000000000001,-0.006548999999999999,0.004732,-23.059998999999998,23.25,-23.75,2d
2019-07-12_115208:960,-0.358429,-0.025908999999999998,-0.35943600000000003,-0.006962,-0.005878,0.005678,-24.059998999999998,24.0,-22.870001000000002,2d
2019-07-12_115208:980,-0.35638400000000003,-0.031006,-0.356903,-0.005954,-0.004901,0.005861,-24.059998999999998,24.0,-22.870001000000002,2d
2019-07-12_115209:000,-0.355377,-0.032532,-0.356903,-0.004642,-0.004229999999999999,0.005922,-23.370001000000002,23.25,-24.059998999999998,2d
2019-07-12_115209:020,-0.35131799999999996,-0.032532,-0.35436999999999996,-0.0033299999999999996,-0.0032530000000000002,0.006044,-23.370001000000002,23.25,-24.059998999999998,2d
2019-07-12_115209:040,-0.34317,-0.027435,-0.349274,-0.003208,-0.00246,0.005464,-23.370001000000002,23.25,-24.059998999999998,2d
2019-07-12_115209:060,-0.34317,-0.024384,-0.34875500000000004,-0.0033299999999999996,-0.002582,0.004915,-23.059998999999998,23.25,-23.75,2d
2019-07-12_115209:080,-0.332489,-0.021851,-0.341125,-0.004825,-0.002735,0.004335,-23.059998999999998,23.25,-23.75,2d
2019-07-12_115209:100,-0.334015,-0.023375999999999997,-0.34265100000000004,-0.005558,-0.003375,0.004213000000000001,-22.68,24.75,-23.75,2d
2019-07-12_115209:120,-0.342163,-0.026917,-0.34674099999999997,-0.006229,-0.005817,0.004152,-22.68,24.75,-23.75,2d
2019-07-12_115209:140,-0.340118,-0.028442000000000002,-0.345215,-0.005771,-0.00719,0.0037549999999999997,-22.68,24.75,-23.75,2d
2019-07-12_115209:160,-0.349274,-0.025421,-0.352844,-0.005619,-0.007923000000000001,0.00345,-24.059998999999998,24.75,-23.75,2d
2019-07-12_115209:180,-0.347229,-0.024384,-0.3508,-0.005039,-0.007678,0.004182,-24.059998999999998,24.75,-23.75,2d
2019-07-12_115209:200,-0.34875500000000004,-0.023375999999999997,-0.353851,-0.004825,-0.007465,0.005128,-23.370001000000002,24.75,-22.870001000000002,2d
2019-07-12_115209:220,-0.349792,-0.023895,-0.354858,-0.004886,-0.0070680000000000005,0.004854,-23.370001000000002,24.75,-22.870001000000002,2d
2019-07-12_115209:240,-0.34875500000000004,-0.025908999999999998,-0.35436999999999996,-0.004978,-0.007281999999999999,0.004274,-23.370001000000002,24.75,-22.870001000000002,2d
2019-07-12_115209:260,-0.3508,-0.026917,-0.355896,-0.004703,-0.0076170000000000005,0.004182,-23.059998999999998,23.68,-23.370001000000002,2d
2019-07-12_115209:280,-0.350281,-0.030487,-0.358429,-0.003879,-0.007404000000000001,0.0038159999999999995,-23.059998999999998,23.68,-23.370001000000002,2d
2019-07-12_115209:300,-0.35131799999999996,-0.030487,-0.35791,-0.002933,-0.006793,0.0025039999999999997,-23.059998999999998,23.68,-22.870001000000002,2d
2019-07-12_115209:320,-0.3508,-0.025908999999999998,-0.35791,-0.002262,-0.005725,0.001893,-23.059998999999998,23.68,-22.870001000000002,2d
2019-07-12_115209:340,-0.352844,-0.021332,-0.35791,-0.002353,-0.005054,0.0008560000000000001,-23.059998999999998,23.68,-22.870001000000002,2d
2019-07-12_115209:360,-0.35943600000000003,-0.012695,-0.356903,-0.003055,-0.004596,0.0007030000000000001,-22.25,23.25,-24.059998999999998,2d
2019-07-12_115209:380,-0.35436999999999996,-0.008118,-0.355896,-0.005679999999999999,-0.003711,0.0029,-22.25,23.25,-24.059998999999998,2d
2019-07-12_115209:400,-0.35638400000000003,-0.013702,-0.35180700000000004,-0.006626000000000001,-0.003467,0.00345,-23.5,23.68,-23.370001000000002,2d
2019-07-12_115209:420,-0.355377,-0.020325,-0.349792,-0.00867,-0.002246,0.0026260000000000003,-23.5,23.68,-23.370001000000002,2d
2019-07-12_115209:440,-0.349274,-0.028961,-0.34368899999999997,-0.0076939999999999995,-0.001605,0.0032359999999999997,-23.5,23.68,-23.370001000000002,2d
2019-07-12_115209:460,-0.34368899999999997,-0.036072,-0.341644,-0.006504,-0.0015140000000000002,0.003694,-22.25,24.0,-23.75,2d
2019-07-12_115209:480,-0.338074,-0.034546,-0.34063699999999997,-0.0019260000000000002,-0.003467,0.0026260000000000003,-22.25,24.0,-23.75,2d
2019-07-12_115209:500,-0.34063699999999997,-0.027435,-0.342163,-0.000614,-0.004566,0.002687,-23.75,23.68,-22.559998999999998,2d
2019-07-12_115209:520,-0.342163,-0.015747,-0.34265100000000004,0.001187,-0.006397,0.004609,-23.75,23.68,-22.559998999999998,2d
2019-07-12_115209:540,-0.34265100000000004,-0.009125,-0.34570300000000004,-0.000797,-0.007465,0.00525,-23.75,23.68,-22.559998999999998,2d
2019-07-12_115209:560,-0.344696,-0.004547,-0.3508,-0.00214,-0.007862000000000001,0.005678,-22.68,23.25,-23.370001000000002,2d
2019-07-12_115209:580,-0.346222,-0.008636,-0.3508,-0.007145,-0.008869,0.007661,-22.68,23.25,-23.370001000000002,2d
2019-07-12_115209:600,-0.35436999999999996,-0.018799,-0.35791,-0.008487,-0.008594,0.007965999999999999,-23.5,24.370001000000002,-22.559998999999998,2d
2019-07-12_115209:620,-0.355896,-0.028442000000000002,-0.35791,-0.010409999999999999,-0.007404000000000001,0.007509,-23.5,24.370001000000002,-22.559998999999998,2d
