timestamp,AccX,AccY,AccZ,GyroX,GyroY,GyroZ,MagX,MagY,MagZ,Activity
2019-07-12_141959:420,-0.266907,-0.042694,-0.41232299999999994,-0.005845,-0.00162,0.002251,-37.560001,11.0,-27.0,3b
2019-07-12_141959:440,-0.267914,-0.042175,-0.41232299999999994,-0.005815,-0.001315,0.002098,-36.869999,11.25,-27.370001000000002,3b
2019-07-12_141959:460,-0.266907,-0.041687,-0.410797,-0.005967,-0.000918,0.002098,-36.869999,11.25,-27.370001000000002,3b
2019-07-12_141959:480,-0.267426,-0.042175,-0.411804,-0.006242,-0.000918,0.002983,-36.869999,11.0,-27.0,3b
2019-07-12_141959:500,-0.267426,-0.043213,-0.410278,-0.006486,-0.000857,0.0034409999999999996,-36.869999,11.0,-27.0,3b
2019-07-12_141959:520,-0.268951,-0.044739,-0.41232299999999994,-0.006761,-0.000857,0.003258,-36.869999,11.0,-27.0,3b
2019-07-12_141959:540,-0.267914,-0.044219999999999995,-0.410797,-0.006761,-0.000918,0.0030440000000000003,-36.5,11.56,-27.0,3b
2019-07-12_141959:560,-0.268951,-0.045226999999999996,-0.411285,-0.007095999999999999,-0.000826,0.002709,-36.5,11.56,-27.0,3b
2019-07-12_141959:580,-0.267914,-0.046265,-0.410278,-0.007156999999999999,-0.000246,0.0017929999999999999,-36.5,11.25,-26.559998999999998,3b
2019-07-12_141959:600,-0.2659,-0.045745999999999995,-0.407227,-0.007370999999999999,-0.00036899999999999997,0.001274,-36.5,11.25,-26.559998999999998,3b
2019-07-12_141959:620,-0.264862,-0.045226999999999996,-0.40823400000000004,-0.007095999999999999,-0.0007650000000000001,0.00042,-36.5,11.25,-26.559998999999998,3b
2019-07-12_141959:640,-0.264374,-0.045745999999999995,-0.409271,-0.006973999999999999,-0.001315,-0.000129,-36.5,11.56,-26.559998999999998,3b
2019-07-12_141959:660,-0.270966,-0.042694,-0.409271,-0.006242,-0.0015890000000000001,-0.000923,-36.5,11.56,-26.559998999999998,3b
2019-07-12_141959:680,-0.27301,-0.042175,-0.40774499999999997,-0.006425,-0.001559,-0.000831,-36.5,11.25,-26.559998999999998,3b
2019-07-12_141959:700,-0.26944,-0.042694,-0.406738,-0.005723,-0.0012230000000000001,-0.000984,-36.5,11.25,-26.559998999999998,3b
2019-07-12_141959:720,-0.269958,-0.041168,-0.411285,-0.005906000000000001,-0.0016809999999999998,-0.003151,-36.5,11.25,-26.559998999999998,3b
2019-07-12_141959:740,-0.266907,-0.038116000000000004,-0.408752,-0.005601,-0.001925,-0.0029059999999999997,-37.25,10.87,-27.0,3b
2019-07-12_141959:760,-0.265381,-0.038635,-0.40774499999999997,-0.004594,-0.001925,-0.000648,-37.25,10.87,-27.0,3b
2019-07-12_141959:780,-0.271484,-0.038116000000000004,-0.40823400000000004,-0.004136,-0.0016809999999999998,-9.9e-05,-36.869999,11.25,-27.0,3b
2019-07-12_141959:800,-0.267914,-0.035583,-0.40823400000000004,-0.004258,-0.001498,-0.00037400000000000004,-36.869999,11.25,-27.0,3b
2019-07-12_141959:820,-0.264374,-0.033539,-0.407227,-0.004411,-0.0017420000000000003,0.000359,-36.869999,11.25,-27.0,3b
2019-07-12_141959:840,-0.263336,-0.033539,-0.40774499999999997,-0.005204,-0.002078,0.0007559999999999999,-37.25,11.25,-27.0,3b
2019-07-12_141959:860,-0.266907,-0.034546,-0.40976,-0.005845,-0.00281,0.000481,-37.25,11.25,-27.0,3b
2019-07-12_141959:880,-0.266907,-0.036072,-0.411285,-0.006242,-0.002932,0.000634,-37.25,10.56,-26.559998999999998,3b
2019-07-12_141959:900,-0.269958,-0.037108999999999996,-0.40976,-0.006486,-0.002657,0.001091,-37.25,10.56,-26.559998999999998,3b
2019-07-12_141959:920,-0.270966,-0.037108999999999996,-0.411804,-0.0065769999999999995,-0.002352,0.000817,-37.25,10.56,-26.559998999999998,3b
2019-07-12_141959:940,-0.270477,-0.036591000000000005,-0.41232299999999994,-0.006425,-0.001925,0.000603,-37.25,12.0,-26.559998999999998,3b
2019-07-12_141959:960,-0.269958,-0.036591000000000005,-0.411285,-0.00615,-0.001559,0.00103,-37.25,12.0,-26.559998999999998,3b
2019-07-12_141959:980,-0.267914,-0.037598,-0.411285,-0.005906000000000001,-0.0012230000000000001,0.001213,-38.0,11.25,-27.370001000000002,3b
2019-07-12_142000:000,-0.266907,-0.036591000000000005,-0.40976,-0.0056619999999999995,-0.001437,0.001,-38.0,11.25,-27.370001000000002,3b
2019-07-12_142000:020,-0.267426,-0.035583,-0.41232299999999994,-0.005723,-0.001498,0.000695,-38.0,11.25,-27.370001000000002,3b
2019-07-12_142000:040,-0.267914,-0.034058,-0.408752,-0.005815,-0.0017420000000000003,0.000817,-37.25,11.0,-27.370001000000002,3b
2019-07-12_142000:060,-0.269958,-0.034058,-0.40823400000000004,-0.005723,-0.0015890000000000001,0.0009390000000000001,-37.25,11.0,-27.370001000000002,3b
2019-07-12_142000:080,-0.268433,-0.035065,-0.40976,-0.0056619999999999995,-0.001498,0.001091,-36.869999,11.25,-26.870001000000002,3b
2019-07-12_142000:100,-0.266907,-0.034546,-0.40774499999999997,-0.005601,-0.00162,0.0014269999999999999,-36.869999,11.25,-26.870001000000002,3b
2019-07-12_142000:120,-0.266907,-0.034058,-0.408752,-0.0056619999999999995,-0.0017420000000000003,0.0014880000000000002,-36.869999,11.25,-26.870001000000002,3b
2019-07-12_142000:140,-0.267426,-0.034058,-0.409271,-0.005784,-0.002139,0.001396,-36.869999,11.25,-26.559998999999998,3b
2019-07-12_142000:160,-0.267426,-0.034546,-0.408752,-0.006089,-0.002261,0.001213,-36.869999,11.25,-26.559998999999998,3b
2019-07-12_142000:180,-0.266907,-0.034058,-0.40976,-0.005967,-0.001955,0.001335,-37.25,10.87,-27.370001000000002,3b
2019-07-12_142000:200,-0.2659,-0.034058,-0.409271,-0.005967,-0.002078,0.001213,-37.25,10.87,-27.370001000000002,3b
2019-07-12_142000:220,-0.265381,-0.035065,-0.411285,-0.005815,-0.002352,0.001335,-37.25,10.87,-27.370001000000002,3b
2019-07-12_142000:240,-0.263855,-0.034546,-0.410797,-0.005845,-0.0024129999999999998,0.001549,-37.25,11.25,-27.370001000000002,3b
2019-07-12_142000:260,-0.271484,-0.035065,-0.411285,-0.005784,-0.002535,0.001274,-37.25,11.25,-27.370001000000002,3b
2019-07-12_142000:280,-0.272491,-0.034058,-0.411804,-0.005784,-0.002261,0.002251,-36.5,10.18,-27.68,3b
2019-07-12_142000:300,-0.269958,-0.034546,-0.410797,-0.005784,-0.001498,0.00277,-36.5,10.18,-27.68,3b
2019-07-12_142000:320,-0.272003,-0.036591000000000005,-0.414337,-0.006364,-0.001376,0.0007559999999999999,-36.5,10.18,-27.68,3b
2019-07-12_142000:340,-0.264862,-0.035065,-0.41333000000000003,-0.0065769999999999995,-0.0010400000000000001,-3.8e-05,-37.25,10.87,-27.68,3b
2019-07-12_142000:360,-0.263855,-0.036072,-0.41232299999999994,-0.0056619999999999995,-0.001254,0.001091,-37.25,10.87,-27.68,3b
2019-07-12_142000:380,-0.26944,-0.037598,-0.411804,-0.005082,-0.0012230000000000001,0.0014269999999999999,-37.25,10.87,-26.559998999999998,3b
2019-07-12_142000:400,-0.273529,-0.036591000000000005,-0.410278,-0.004654999999999999,-0.00043,0.001213,-37.25,10.87,-26.559998999999998,3b
2019-07-12_142000:420,-0.265381,-0.036591000000000005,-0.410278,-0.004533,8.9e-05,0.001549,-37.25,10.87,-26.559998999999998,3b
2019-07-12_142000:440,-0.260803,-0.036072,-0.411285,-0.004685,-0.000185,0.000634,-37.560001,10.87,-27.370001000000002,3b
2019-07-12_142000:460,-0.261322,-0.036072,-0.406738,-0.005052,-0.001101,-0.000129,-37.560001,10.87,-27.370001000000002,3b
2019-07-12_142000:480,-0.262848,-0.034058,-0.40774499999999997,-0.004869,-0.002016,0.0009390000000000001,-36.869999,10.87,-26.559998999999998,3b
2019-07-12_142000:500,-0.267426,-0.034058,-0.409271,-0.004869,-0.002139,0.0014269999999999999,-36.869999,10.87,-26.559998999999998,3b
2019-07-12_142000:520,-0.270477,-0.035065,-0.410278,-0.004807,-0.001955,0.001335,-36.869999,10.87,-26.559998999999998,3b
2019-07-12_142000:540,-0.266388,-0.033539,-0.40976,-0.004991,-0.0017420000000000003,0.00161,-38.0,11.0,-27.0,3b
2019-07-12_142000:560,-0.264862,-0.03302,-0.409271,-0.005326,-0.0017420000000000003,0.0019149999999999998,-38.0,11.0,-27.0,3b
2019-07-12_142000:580,-0.263855,-0.034058,-0.409271,-0.005723,-0.002078,0.0019760000000000003,-37.560001,10.56,-27.0,3b
2019-07-12_142000:600,-0.267426,-0.036072,-0.410278,-0.006089,-0.002016,0.001854,-37.560001,10.56,-27.0,3b
2019-07-12_142000:620,-0.262848,-0.035583,-0.410797,-0.006486,-0.0022,0.0023120000000000003,-37.560001,10.56,-27.0,3b
2019-07-12_142000:640,-0.264374,-0.036591000000000005,-0.412811,-0.006242,-0.00281,0.002098,-37.25,10.56,-27.370001000000002,3b
2019-07-12_142000:660,-0.266907,-0.038635,-0.410278,-0.006486,-0.0034509999999999996,0.001152,-37.25,10.56,-27.370001000000002,3b
2019-07-12_142000:680,-0.268951,-0.036591000000000005,-0.410797,-0.006547,-0.0034509999999999996,0.000695,-37.25,10.56,-27.370001000000002,3b
2019-07-12_142000:700,-0.27301,-0.037108999999999996,-0.411804,-0.006181,-0.003268,0.000695,-36.060001,10.87,-27.370001000000002,3b
2019-07-12_142000:720,-0.275055,-0.037598,-0.411285,-0.005845,-0.002352,0.001091,-36.060001,10.87,-27.370001000000002,3b
2019-07-12_142000:740,-0.270966,-0.036591000000000005,-0.411804,-0.005967,-0.001925,0.001213,-37.25,10.18,-27.68,3b
2019-07-12_142000:760,-0.270477,-0.036591000000000005,-0.411285,-0.005906000000000001,-0.0016809999999999998,0.001396,-37.25,10.18,-27.68,3b
2019-07-12_142000:780,-0.264374,-0.035065,-0.410797,-0.005815,-0.001864,0.0016710000000000002,-36.5,10.56,-27.68,3b
2019-07-12_142000:800,-0.264374,-0.033539,-0.410797,-0.005815,-0.002352,0.002129,-36.5,10.56,-27.68,3b
2019-07-12_142000:820,-0.268433,-0.034058,-0.40823400000000004,-0.005967,-0.0022,0.0029219999999999997,-36.5,10.56,-27.68,3b
2019-07-12_142000:840,-0.266388,-0.034546,-0.411804,-0.005845,-0.002139,0.003105,-37.25,10.87,-27.370001000000002,3b
2019-07-12_142000:860,-0.272491,-0.034058,-0.410797,-0.006486,-0.001864,0.003105,-37.25,10.87,-27.370001000000002,3b
2019-07-12_142000:880,-0.266388,-0.033539,-0.411285,-0.006883,-0.0016809999999999998,0.003899,-37.25,10.56,-26.870001000000002,3b
2019-07-12_142000:900,-0.260803,-0.036591000000000005,-0.409271,-0.007035,-0.002016,0.0037159999999999997,-37.25,10.56,-26.870001000000002,3b
2019-07-12_142000:920,-0.260803,-0.039642000000000004,-0.410278,-0.007279000000000001,-0.002932,0.000878,-37.25,10.56,-26.870001000000002,3b
2019-07-12_142000:940,-0.258759,-0.036072,-0.411285,-0.0074930000000000005,-0.003542,0.000817,-36.060001,11.25,-26.870001000000002,3b
2019-07-12_142000:960,-0.262329,-0.036591000000000005,-0.41232299999999994,-0.006547,-0.0037869999999999996,0.003655,-36.060001,11.25,-26.870001000000002,3b
2019-07-12_142000:980,-0.271484,-0.040649,-0.41384899999999997,-0.006364,-0.0034509999999999996,0.0035020000000000003,-36.869999,10.56,-26.559998999999998,3b
2019-07-12_142001:000,-0.270477,-0.038635,-0.41333000000000003,-0.00615,-0.002261,0.001549,-36.869999,10.56,-26.559998999999998,3b
2019-07-12_142001:020,-0.26181,-0.034546,-0.411285,-0.005815,-0.002322,0.002373,-36.869999,10.56,-26.559998999999998,3b
2019-07-12_142001:040,-0.259277,-0.035583,-0.411285,-0.005906000000000001,-0.002932,0.002129,-36.869999,10.56,-26.559998999999998,3b
2019-07-12_142001:060,-0.261322,-0.036591000000000005,-0.41232299999999994,-0.0063030000000000004,-0.003054,0.001854,-36.869999,10.56,-26.559998999999998,3b
2019-07-12_142001:080,-0.266907,-0.034546,-0.414337,-0.006364,-0.0036030000000000003,0.0019149999999999998,-36.869999,10.56,-26.559998999999998,3b
2019-07-12_142001:100,-0.267426,-0.037598,-0.41485600000000006,-0.006425,-0.003054,0.002373,-37.560001,11.25,-28.18,3b
2019-07-12_142001:120,-0.266907,-0.037598,-0.414337,-0.0063030000000000004,-0.002078,0.001213,-37.560001,11.25,-28.18,3b
2019-07-12_142001:140,-0.265381,-0.037598,-0.416382,-0.0063030000000000004,-0.001955,0.001335,-36.5,11.25,-26.559998999999998,3b
2019-07-12_142001:160,-0.261322,-0.038635,-0.412811,-0.00554,-0.00162,0.002037,-36.5,11.25,-26.559998999999998,3b
2019-07-12_142001:180,-0.260284,-0.036591000000000005,-0.414337,-0.00554,-0.0015890000000000001,0.0019760000000000003,-36.5,10.87,-26.559998999999998,3b
2019-07-12_142001:200,-0.262329,-0.036591000000000005,-0.41333000000000003,-0.005448,-0.0017420000000000003,0.001396,-36.5,10.87,-26.559998999999998,3b
2019-07-12_142001:220,-0.261322,-0.036591000000000005,-0.41384899999999997,-0.005326,-0.002078,0.001549,-36.5,10.87,-26.559998999999998,3b
2019-07-12_142001:240,-0.263855,-0.038635,-0.41586300000000004,-0.004746,-0.0018030000000000001,0.001213,-36.869999,10.87,-27.68,3b
2019-07-12_142001:260,-0.263336,-0.039642000000000004,-0.415375,-0.004685,-0.001864,0.000878,-36.869999,10.87,-27.68,3b
2019-07-12_142001:280,-0.266388,-0.039124,-0.416382,-0.00435,-0.001559,0.000634,-36.869999,10.18,-28.18,3b
2019-07-12_142001:300,-0.266907,-0.038116000000000004,-0.416382,-0.003922,-0.001101,0.00042,-36.869999,10.18,-28.18,3b
2019-07-12_142001:320,-0.267426,-0.037108999999999996,-0.41333000000000003,-0.004136,-0.00036899999999999997,-0.00018999999999999998,-36.869999,10.18,-28.18,3b
2019-07-12_142001:340,-0.26181,-0.037108999999999996,-0.41384899999999997,-0.004197,-9.4e-05,-0.00018999999999999998,-36.5,11.25,-27.0,3b
2019-07-12_142001:360,-0.261322,-0.037598,-0.412811,-0.004197,-0.00043,-0.000526,-36.5,11.25,-27.0,3b
2019-07-12_142001:380,-0.2659,-0.038116000000000004,-0.41333000000000003,-0.004136,-0.00043,-0.001381,-36.5,11.25,-27.0,3b
2019-07-12_142001:400,-0.264374,-0.034546,-0.409271,-0.004014,-0.000307,-0.0021739999999999997,-36.869999,10.56,-27.370001000000002,3b
2019-07-12_142001:420,-0.26944,-0.035583,-0.410278,-0.0036780000000000003,-0.00036899999999999997,-0.001564,-36.869999,10.56,-27.370001000000002,3b
2019-07-12_142001:440,-0.266907,-0.03302,-0.40976,-0.0038,-0.00036899999999999997,-0.000496,-36.5,10.56,-27.68,3b
2019-07-12_142001:460,-0.265381,-0.031494,-0.408752,-0.004319,-0.00043,0.0007559999999999999,-36.5,10.56,-27.68,3b
2019-07-12_142001:480,-0.26181,-0.034058,-0.410278,-0.004411,-0.000582,0.00042,-36.5,10.56,-27.68,3b
2019-07-12_142001:500,-0.257233,-0.032532,-0.41333000000000003,-0.005052,-0.001437,-0.00132,-36.869999,10.18,-26.870001000000002,3b
2019-07-12_142001:520,-0.26181,-0.031494,-0.411804,-0.004991,-0.002016,0.000817,-36.869999,10.18,-26.870001000000002,3b
2019-07-12_142001:540,-0.267914,-0.034058,-0.414337,-0.0049299999999999995,-0.002016,0.001396,-37.25,10.56,-27.370001000000002,3b
2019-07-12_142001:560,-0.272491,-0.035065,-0.41333000000000003,-0.005204,-0.001437,0.001,-37.25,10.56,-27.370001000000002,3b
2019-07-12_142001:580,-0.26944,-0.03302,-0.411285,-0.0054789999999999995,-0.000582,0.001,-37.25,10.56,-27.370001000000002,3b
2019-07-12_142001:600,-0.263336,-0.033539,-0.411804,-0.0054789999999999995,-0.000124,0.0014269999999999999,-36.060001,10.56,-26.559998999999998,3b
2019-07-12_142001:620,-0.263855,-0.034546,-0.40976,-0.005815,-0.00043,0.00042,-36.060001,10.56,-26.559998999999998,3b
2019-07-12_142001:640,-0.262329,-0.03302,-0.409271,-0.00615,-0.0009789999999999998,8.4e-05,-37.25,10.56,-26.870001000000002,3b
2019-07-12_142001:660,-0.264862,-0.03302,-0.408752,-0.005784,-0.001559,0.0016710000000000002,-37.25,10.56,-26.870001000000002,3b
2019-07-12_142001:680,-0.262848,-0.034058,-0.411285,-0.0054789999999999995,-0.001864,0.002098,-37.560001,10.56,-27.370001000000002,3b
2019-07-12_142001:700,-0.261322,-0.034546,-0.411285,-0.0054789999999999995,-0.0022,0.00103,-37.560001,10.56,-27.370001000000002,3b
2019-07-12_142001:720,-0.263855,-0.03302,-0.412811,-0.005386999999999999,-0.0024739999999999996,0.0017929999999999999,-37.560001,10.56,-27.370001000000002,3b
2019-07-12_142001:740,-0.267426,-0.034546,-0.412811,-0.005448,-0.002535,0.0028309999999999997,-37.25,10.56,-26.18,3b
2019-07-12_142001:760,-0.26944,-0.035065,-0.41333000000000003,-0.006028,-0.0016809999999999998,0.0023120000000000003,-37.25,10.56,-26.18,3b
2019-07-12_142001:780,-0.267426,-0.035583,-0.414337,-0.006486,-0.001376,0.0017929999999999999,-37.25,10.18,-27.0,3b
2019-07-12_142001:800,-0.264374,-0.037108999999999996,-0.414337,-0.006639,-0.0012230000000000001,0.0019760000000000003,-37.25,10.18,-27.0,3b
2019-07-12_142001:820,-0.265381,-0.038116000000000004,-0.411804,-0.006639,-0.001101,0.001274,-37.25,10.18,-27.0,3b
2019-07-12_142001:840,-0.263855,-0.035583,-0.412811,-0.0065769999999999995,-0.0009789999999999998,0.000603,-37.25,10.87,-26.870001000000002,3b
2019-07-12_142001:860,-0.2659,-0.036591000000000005,-0.411804,-0.006242,-0.0010400000000000001,0.00103,-37.25,10.87,-26.870001000000002,3b
2019-07-12_142001:880,-0.264862,-0.036072,-0.41232299999999994,-0.005815,-0.000857,0.001091,-37.25,10.87,-26.870001000000002,3b
2019-07-12_142001:900,-0.263336,-0.036072,-0.411804,-0.005784,-0.001101,0.000359,-37.25,10.18,-27.0,3b
2019-07-12_142001:920,-0.260803,-0.03302,-0.410278,-0.0056619999999999995,-0.001315,0.000206,-37.25,10.18,-27.0,3b
2019-07-12_142001:940,-0.260803,-0.03302,-0.410797,-0.005723,-0.00162,0.000481,-36.869999,10.56,-27.68,3b
2019-07-12_142001:960,-0.263855,-0.032013,-0.409271,-0.006028,-0.002016,0.000634,-36.869999,10.56,-27.68,3b
2019-07-12_142001:980,-0.261322,-0.035065,-0.411804,-0.006089,-0.0022,0.0007559999999999999,-37.25,10.56,-26.559998999999998,3b
2019-07-12_142002:000,-0.266907,-0.03302,-0.41232299999999994,-0.005815,-0.002352,0.000878,-37.25,10.56,-26.559998999999998,3b
2019-07-12_142002:020,-0.268433,-0.031494,-0.412811,-0.006364,-0.002261,0.0019149999999999998,-37.25,10.56,-26.559998999999998,3b
2019-07-12_142002:040,-0.264862,-0.035065,-0.41384899999999997,-0.006547,-0.001498,0.002434,-36.5,11.0,-27.370001000000002,3b
2019-07-12_142002:060,-0.267914,-0.035065,-0.416382,-0.006822,-0.00162,-0.00018999999999999998,-36.5,11.0,-27.370001000000002,3b
2019-07-12_142002:080,-0.264374,-0.033539,-0.41384899999999997,-0.007156999999999999,-0.001498,-0.0007700000000000001,-36.5,11.0,-27.370001000000002,3b
2019-07-12_142002:100,-0.265381,-0.035065,-0.415375,-0.00615,-0.001254,0.002098,-36.869999,10.18,-27.370001000000002,3b
2019-07-12_142002:120,-0.26944,-0.037598,-0.41485600000000006,-0.00554,-0.000918,0.002129,-36.869999,10.18,-27.370001000000002,3b
2019-07-12_142002:140,-0.266907,-0.035065,-0.41232299999999994,-0.005784,-3.3e-05,0.000878,-36.869999,10.18,-26.559998999999998,3b
2019-07-12_142002:160,-0.2659,-0.03302,-0.410797,-0.00554,2.8000000000000003e-05,0.001396,-36.869999,10.18,-26.559998999999998,3b
2019-07-12_142002:180,-0.2659,-0.034058,-0.410797,-0.005723,0.000303,0.001335,-36.869999,10.18,-26.559998999999998,3b
2019-07-12_142002:200,-0.266907,-0.032532,-0.40823400000000004,-0.006089,0.00015,-0.00043499999999999995,-37.25,10.18,-25.68,3b
2019-07-12_142002:220,-0.268951,-0.032532,-0.408752,-0.006242,-0.000307,-0.00037400000000000004,-37.25,10.18,-25.68,3b
2019-07-12_142002:240,-0.265381,-0.031494,-0.410278,-0.005845,-0.000124,0.000817,-38.0,10.87,-27.370001000000002,3b
2019-07-12_142002:260,-0.265381,-0.031006,-0.407227,-0.006028,-0.000704,0.0009390000000000001,-38.0,10.87,-27.370001000000002,3b
2019-07-12_142002:280,-0.2659,-0.028442000000000002,-0.40976,-0.006181,-0.001254,0.001274,-38.0,10.87,-27.370001000000002,3b
2019-07-12_142002:300,-0.268433,-0.029968,-0.410278,-0.006242,-0.0016809999999999998,0.002648,-36.869999,9.75,-26.870001000000002,3b
2019-07-12_142002:320,-0.271484,-0.03302,-0.40976,-0.006242,-0.001498,0.003228,-36.869999,9.75,-26.870001000000002,3b
2019-07-12_142002:340,-0.272003,-0.033539,-0.40976,-0.006364,-0.0011619999999999998,0.002587,-36.060001,10.56,-27.0,3b
2019-07-12_142002:360,-0.267426,-0.034546,-0.40976,-0.006181,-0.001376,0.00277,-36.060001,10.56,-27.0,3b
2019-07-12_142002:380,-0.264374,-0.036072,-0.41232299999999994,-0.006089,-0.0015890000000000001,0.002892,-36.060001,10.56,-27.0,3b
2019-07-12_142002:400,-0.270477,-0.037598,-0.41232299999999994,-0.005967,-0.001925,0.0017629999999999998,-37.560001,9.75,-26.559998999999998,3b
2019-07-12_142002:420,-0.273529,-0.036072,-0.41232299999999994,-0.0054789999999999995,-0.001559,0.001274,-37.560001,9.75,-26.559998999999998,3b
2019-07-12_142002:440,-0.275055,-0.036591000000000005,-0.410797,-0.0049299999999999995,-0.000826,0.0016710000000000002,-37.560001,9.75,-26.559998999999998,3b
2019-07-12_142002:460,-0.27301,-0.035065,-0.40823400000000004,-0.004472,-0.000185,0.00103,-37.560001,9.75,-26.559998999999998,3b
2019-07-12_142002:480,-0.26944,-0.032013,-0.40570100000000003,-0.004594,2.8000000000000003e-05,0.00103,-37.560001,9.75,-26.559998999999998,3b
2019-07-12_142002:500,-0.264862,-0.031006,-0.406219,-0.004685,-0.000124,0.0014269999999999999,-37.25,10.18,-27.370001000000002,3b
2019-07-12_142002:520,-0.266388,-0.032532,-0.40316799999999997,-0.005326,-0.000704,0.001152,-37.25,10.18,-27.370001000000002,3b
2019-07-12_142002:540,-0.266907,-0.03302,-0.405212,-0.00554,-0.0012230000000000001,0.000695,-36.869999,10.87,-26.559998999999998,3b
2019-07-12_142002:560,-0.266907,-0.036591000000000005,-0.40316799999999997,-0.005601,-0.00162,0.00103,-36.869999,10.87,-26.559998999999998,3b
2019-07-12_142002:580,-0.27301,-0.035583,-0.406219,-0.005052,-0.0022,0.0007559999999999999,-36.869999,10.87,-26.559998999999998,3b
2019-07-12_142002:600,-0.275055,-0.03302,-0.406738,-0.004807,-0.002261,0.0016710000000000002,-37.25,10.18,-25.68,3b
2019-07-12_142002:620,-0.270966,-0.03302,-0.405212,-0.004654999999999999,-0.0018030000000000001,0.0021899999999999997,-37.25,10.18,-25.68,3b
2019-07-12_142002:640,-0.270966,-0.032013,-0.409271,-0.005204,-0.002078,0.000206,-36.5,10.18,-27.0,3b
2019-07-12_142002:660,-0.26944,-0.027954000000000003,-0.406219,-0.005723,-0.002139,0.000206,-36.5,10.18,-27.0,3b
2019-07-12_142002:680,-0.270966,-0.03302,-0.408752,-0.005143,-0.002261,0.002434,-36.5,10.18,-27.0,3b
2019-07-12_142002:700,-0.274017,-0.03302,-0.40823400000000004,-0.0049299999999999995,-0.0024739999999999996,0.003228,-36.869999,9.75,-27.370001000000002,3b
2019-07-12_142002:720,-0.269958,-0.031006,-0.406738,-0.004991,-0.0024129999999999998,0.0028309999999999997,-36.869999,9.75,-27.370001000000002,3b
2019-07-12_142002:740,-0.267426,-0.027954000000000003,-0.40774499999999997,-0.004746,-0.0024129999999999998,0.004113,-38.0,9.75,-27.370001000000002,3b
2019-07-12_142002:760,-0.268433,-0.027954000000000003,-0.407227,-0.005082,-0.002993,0.00515,-38.0,9.75,-27.370001000000002,3b
2019-07-12_142002:780,-0.266907,-0.021851,-0.408752,-0.005723,-0.00339,0.005425,-38.0,9.75,-27.370001000000002,3b
2019-07-12_142002:800,-0.272003,-0.020325,-0.40570100000000003,-0.006822,-0.004,0.007073,-37.560001,9.75,-26.559998999999998,3b
2019-07-12_142002:820,-0.272003,-0.022858,-0.410278,-0.007768000000000001,-0.003848,0.009819,-37.560001,9.75,-26.559998999999998,3b
2019-07-12_142002:840,-0.272491,-0.022858,-0.410797,-0.009202,-0.003848,0.011009999999999999,-37.25,10.18,-27.370001000000002,3b
2019-07-12_142002:860,-0.264862,-0.024384,-0.404694,-0.010362,-0.003542,0.012078,-37.25,10.18,-27.370001000000002,3b
2019-07-12_142002:880,-0.267914,-0.026427999999999997,-0.409271,-0.011064000000000001,-0.0042439999999999995,0.014518999999999999,-37.25,10.18,-27.370001000000002,3b
2019-07-12_142002:900,-0.264374,-0.032013,-0.405212,-0.011399,-0.003939,0.016655,-37.25,9.75,-26.870001000000002,3b
2019-07-12_142002:920,-0.264862,-0.035583,-0.406219,-0.011491,-0.004397,0.017845,-37.25,9.75,-26.870001000000002,3b
2019-07-12_142002:940,-0.259277,-0.040649,-0.406738,-0.011125,-0.004519,0.018914,-36.060001,10.18,-26.559998999999998,3b
2019-07-12_142002:960,-0.258759,-0.043701,-0.408752,-0.010545,-0.005862,0.019158,-36.060001,10.18,-26.559998999999998,3b
2019-07-12_142002:980,-0.263336,-0.045226999999999996,-0.411285,-0.010087,-0.006716,0.017784,-36.060001,10.18,-26.559998999999998,3b
2019-07-12_142003:000,-0.263336,-0.045226999999999996,-0.41232299999999994,-0.00969,-0.006716,0.016503,-36.869999,11.25,-27.370001000000002,3b
2019-07-12_142003:020,-0.265381,-0.043213,-0.415375,-0.009233,-0.006716,0.015801,-36.869999,11.25,-27.370001000000002,3b
2019-07-12_142003:040,-0.263855,-0.043213,-0.415375,-0.009233,-0.006594,0.01519,-36.869999,12.0,-28.18,3b
2019-07-12_142003:060,-0.259277,-0.043213,-0.41586300000000004,-0.009294,-0.006197,0.014061,-36.869999,12.0,-28.18,3b
2019-07-12_142003:080,-0.262848,-0.043213,-0.416382,-0.009202,-0.006106,0.013541999999999998,-36.869999,12.0,-28.18,3b
2019-07-12_142003:100,-0.26944,-0.041687,-0.416382,-0.009019,-0.005801,0.013207,-36.060001,12.37,-27.370001000000002,3b
2019-07-12_142003:120,-0.267914,-0.039124,-0.415375,-0.008744,-0.0049770000000000005,0.012749,-36.060001,12.37,-27.370001000000002,3b
2019-07-12_142003:140,-0.259796,-0.040161,-0.41232299999999994,-0.008836,-0.004061,0.012931999999999999,-35.75,13.06,-28.18,3b
2019-07-12_142003:160,-0.257751,-0.039124,-0.408752,-0.008683,-0.003878,0.012719,-35.75,13.06,-28.18,3b
2019-07-12_142003:180,-0.24758899999999998,-0.037598,-0.409271,-0.009538,-0.004336,0.013878,-35.75,13.06,-28.18,3b
2019-07-12_142003:200,-0.241486,-0.041168,-0.408752,-0.00969,-0.004915999999999999,0.015465000000000001,-35.369999,12.37,-27.370001000000002,3b
2019-07-12_142003:220,-0.238434,-0.044739,-0.40976,-0.010209000000000001,-0.0066549999999999995,0.014458000000000002,-35.369999,12.37,-27.370001000000002,3b
2019-07-12_142003:240,-0.23284899999999997,-0.046265,-0.41232299999999994,-0.010331,-0.008395,0.013207,-35.369999,12.75,-29.370001000000002,3b
2019-07-12_142003:260,-0.238434,-0.054901,-0.416901,-0.009141,-0.010439,0.015038,-35.369999,12.75,-29.370001000000002,3b
2019-07-12_142003:280,-0.243011,-0.057434000000000006,-0.420959,-0.00731,-0.011568,0.015801,-35.369999,12.75,-29.370001000000002,3b
2019-07-12_142003:300,-0.251648,-0.059479,-0.425537,-0.006089,-0.012026,0.014275,-34.25,13.5,-28.18,3b
2019-07-12_142003:320,-0.261322,-0.055908000000000006,-0.42807,-0.004869,-0.010957999999999999,0.013115,-34.25,13.5,-28.18,3b
2019-07-12_142003:340,-0.263855,-0.05285599999999999,-0.431122,-0.004472,-0.008974,0.012749,-34.560001,13.5,-29.370001000000002,3b
2019-07-12_142003:360,-0.256226,-0.051849,-0.432159,-0.005723,-0.0059229999999999994,0.01339,-34.560001,13.5,-29.370001000000002,3b
2019-07-12_142003:380,-0.24453699999999998,-0.056915,-0.433167,-0.007279000000000001,-0.004672,0.01519,-34.560001,13.5,-29.370001000000002,3b
2019-07-12_142003:400,-0.240479,-0.063019,-0.429596,-0.009141,-0.004122,0.015984,-34.560001,14.25,-28.559998999999998,3b
2019-07-12_142003:420,-0.233337,-0.069122,-0.42758199999999996,-0.010728,-0.004336,0.013938999999999998,-34.560001,14.25,-28.559998999999998,3b
2019-07-12_142003:440,-0.240479,-0.075226,-0.425018,-0.011125,-0.005465,0.011467,-33.869999,14.25,-28.559998999999998,3b
2019-07-12_142003:460,-0.23995999999999998,-0.082336,-0.417389,-0.010148,-0.006197,0.008934000000000001,-33.869999,14.25,-28.559998999999998,3b
2019-07-12_142003:480,-0.244019,-0.082855,-0.41485600000000006,-0.007890000000000001,-0.006991,0.005822,-33.869999,14.25,-28.559998999999998,3b
2019-07-12_142003:500,-0.23995999999999998,-0.076263,-0.40976,-0.004869,-0.007906,0.0035020000000000003,-33.869999,15.0,-29.370001000000002,3b
2019-07-12_142003:520,-0.222687,-0.069641,-0.40570100000000003,-0.002,-0.008242,0.003655,-33.869999,15.0,-29.370001000000002,3b
2019-07-12_142003:540,-0.201324,-0.065582,-0.40823400000000004,-0.000688,-0.010317,0.005364,-34.25,14.56,-30.18,3b
2019-07-12_142003:560,-0.198792,-0.063538,-0.410278,0.000106,-0.01462,0.005242,-34.25,14.56,-30.18,3b
2019-07-12_142003:580,-0.217072,-0.064545,-0.417389,0.00022799999999999999,-0.019137,0.002587,-34.25,14.56,-30.18,3b
2019-07-12_142003:600,-0.22879000000000002,-0.06253099999999999,-0.423004,0.000258,-0.021516999999999998,0.000817,-33.5,14.25,-30.559998999999998,3b
2019-07-12_142003:620,-0.226227,-0.063019,-0.432159,0.00022799999999999999,-0.021516999999999998,0.001854,-33.5,14.25,-30.559998999999998,3b
2019-07-12_142003:640,-0.223175,-0.061005,-0.43823199999999995,-0.000627,-0.020663,0.0023120000000000003,-32.369999,15.37,-31.370001000000002,3b
2019-07-12_142003:660,-0.227753,-0.056915,-0.44433599999999995,-0.002336,-0.020052,0.0017629999999999998,-32.369999,15.37,-31.370001000000002,3b
2019-07-12_142003:680,-0.228271,-0.056915,-0.447388,-0.004075,-0.018678999999999998,0.000817,-32.369999,15.37,-31.370001000000002,3b
2019-07-12_142003:700,-0.22421300000000002,-0.053863999999999995,-0.45043900000000003,-0.0067,-0.017153,-3.8e-05,-31.68,15.37,-30.870001000000002,3b
2019-07-12_142003:720,-0.219635,-0.055908000000000006,-0.44995100000000005,-0.009141,-0.015597,0.001152,-31.68,15.37,-30.870001000000002,3b
2019-07-12_142003:740,-0.212006,-0.061005,-0.453491,-0.011125,-0.013949000000000001,0.0037159999999999997,-31.68,15.75,-31.68,3b
2019-07-12_142003:760,-0.20742800000000003,-0.068115,-0.45043900000000003,-0.012193,-0.012941999999999999,0.005761,-31.68,15.75,-31.68,3b
2019-07-12_142003:780,-0.19927999999999998,-0.074738,-0.451477,-0.012467,-0.012026,0.004784,-31.68,15.75,-31.68,3b
2019-07-12_142003:800,-0.194214,-0.0737,-0.45401,-0.011674,-0.012087,0.0017629999999999998,-30.559998999999998,15.37,-30.870001000000002,3b
2019-07-12_142003:820,-0.187592,-0.071686,-0.45605500000000004,-0.010331,-0.011904000000000001,0.0014880000000000002,-30.559998999999998,15.37,-30.870001000000002,3b
2019-07-12_142003:840,-0.196747,-0.0737,-0.45907600000000004,-0.008225,-0.012301000000000001,0.003563,-30.870001000000002,15.0,-32.560001,3b
2019-07-12_142003:860,-0.200317,-0.072174,-0.45654300000000003,-0.006364,-0.011172,0.002434,-30.870001000000002,15.0,-32.560001,3b
2019-07-12_142003:880,-0.19622799999999999,-0.063019,-0.45605500000000004,-0.005265,-0.009432,-0.000648,-30.870001000000002,15.0,-32.560001,3b
2019-07-12_142003:900,-0.192169,-0.05285599999999999,-0.45907600000000004,-0.004594,-0.008303,-0.001625,-31.25,15.37,-32.18,3b
2019-07-12_142003:920,-0.189636,-0.051330999999999995,-0.457581,-0.0056619999999999995,-0.007449,-0.00018999999999999998,-31.25,15.37,-32.18,3b
2019-07-12_142003:940,-0.187073,-0.049316000000000006,-0.459595,-0.007370999999999999,-0.007449,-0.00043499999999999995,-30.870001000000002,14.56,-33.68,3b
2019-07-12_142003:960,-0.189117,-0.046752999999999996,-0.457581,-0.007951,-0.007051999999999999,-0.000251,-30.870001000000002,14.56,-33.68,3b
2019-07-12_142003:980,-0.188599,-0.050842,-0.45806899999999995,-0.009629,-0.005984000000000001,0.000542,-30.870001000000002,14.56,-33.68,3b
2019-07-12_142004:000,-0.185547,-0.05285599999999999,-0.461639,-0.010728,-0.005129,0.000695,-29.75,15.0,-33.369999,3b
2019-07-12_142004:020,-0.17337,-0.055908000000000006,-0.458588,-0.010728,-0.005007,0.0017929999999999999,-29.75,15.0,-33.369999,3b
2019-07-12_142004:040,-0.168274,-0.063019,-0.459595,-0.00969,-0.005526,0.0021899999999999997,-30.870001000000002,14.56,-34.869999,3b
2019-07-12_142004:060,-0.18454,-0.06149299999999999,-0.462128,-0.00847,-0.005984000000000001,0.001732,-30.870001000000002,14.56,-34.869999,3b
2019-07-12_142004:080,-0.191162,-0.061005,-0.462128,-0.0067,-0.005068,0.001152,-30.870001000000002,14.56,-34.869999,3b
2019-07-12_142004:100,-0.187592,-0.056427,-0.46060200000000007,-0.0054789999999999995,-0.003664,8.4e-05,-30.559998999999998,14.25,-34.060001,3b
2019-07-12_142004:120,-0.18811,-0.051849,-0.461639,-0.004807,-0.0024739999999999996,-9.9e-05,-30.559998999999998,14.25,-34.060001,3b
2019-07-12_142004:140,-0.18811,-0.049316000000000006,-0.46417200000000003,-0.004258,-0.00162,0.000695,-29.75,14.25,-34.060001,3b
2019-07-12_142004:160,-0.190643,-0.049805,-0.459595,-0.004319,-0.000857,0.0014269999999999999,-29.75,14.25,-34.060001,3b
2019-07-12_142004:180,-0.193176,-0.049805,-0.45654300000000003,-0.004533,0.000364,0.002037,-29.75,14.25,-34.060001,3b
2019-07-12_142004:200,-0.188599,-0.049805,-0.453491,-0.004685,0.001279,0.002434,-29.370001000000002,15.0,-34.060001,3b
2019-07-12_142004:220,-0.176422,-0.054901,-0.452484,-0.004746,0.0010960000000000002,0.002648,-29.370001000000002,15.0,-34.060001,3b
2019-07-12_142004:240,-0.17538499999999999,-0.056427,-0.44995100000000005,-0.004685,-3.3e-05,0.002892,-29.75,14.25,-33.68,3b
2019-07-12_142004:260,-0.17944300000000002,-0.05996699999999999,-0.44891400000000004,-0.004014,-0.001376,0.002648,-29.75,14.25,-33.68,3b
2019-07-12_142004:280,-0.18249500000000002,-0.06253099999999999,-0.449432,-0.003282,-0.002139,0.0017929999999999999,-29.75,14.25,-33.68,3b
2019-07-12_142004:300,-0.187073,-0.058441,-0.451477,-0.0026100000000000003,-0.002139,0.001854,-29.75,15.0,-33.68,3b
2019-07-12_142004:320,-0.183533,-0.055908000000000006,-0.45095799999999997,-0.002732,-0.0016809999999999998,0.003624,-29.75,15.0,-33.68,3b
2019-07-12_142004:340,-0.187592,-0.055389,-0.45553599999999994,-0.0028239999999999997,-0.001498,0.004021,-29.75,13.87,-33.369999,3b
2019-07-12_142004:360,-0.188599,-0.057434000000000006,-0.45605500000000004,-0.003953,-0.0012230000000000001,0.0017629999999999998,-29.75,13.87,-33.369999,3b
2019-07-12_142004:380,-0.19165,-0.05438200000000001,-0.457581,-0.005143,-0.000643,0.0017629999999999998,-29.75,13.87,-33.369999,3b
2019-07-12_142004:400,-0.191162,-0.056427,-0.457581,-0.005845,-3.3e-05,0.005242,-29.75,15.0,-33.369999,3b
2019-07-12_142004:420,-0.187592,-0.065582,-0.454529,-0.006242,0.000883,0.006431999999999999,-29.75,15.0,-33.369999,3b
2019-07-12_142004:440,-0.176422,-0.069641,-0.45196499999999995,-0.006822,0.001157,0.00457,-30.18,14.25,-32.560001,3b
2019-07-12_142004:460,-0.168793,-0.071167,-0.45095799999999997,-0.006364,0.000547,0.003655,-30.18,14.25,-32.560001,3b
2019-07-12_142004:480,-0.186584,-0.07421900000000001,-0.453003,-0.005265,-0.0010400000000000001,0.002495,-30.18,14.25,-32.560001,3b
2019-07-12_142004:500,-0.193176,-0.073212,-0.455017,-0.004411,-0.001498,8.4e-05,-30.18,14.56,-32.869999,3b
2019-07-12_142004:520,-0.19927999999999998,-0.06405599999999999,-0.45196499999999995,-0.003221,-0.0012230000000000001,-0.000251,-30.18,14.56,-32.869999,3b
2019-07-12_142004:540,-0.19622799999999999,-0.060486,-0.45196499999999995,-0.002549,0.000364,0.001213,-29.370001000000002,15.0,-34.560001,3b
2019-07-12_142004:560,-0.189117,-0.054901,-0.453003,-0.003129,0.001218,0.0014269999999999999,-29.370001000000002,15.0,-34.560001,3b
2019-07-12_142004:580,-0.185059,-0.053375,-0.45401,-0.004594,0.0014320000000000001,0.001549,-29.370001000000002,15.0,-34.560001,3b
2019-07-12_142004:600,-0.187073,-0.052338,-0.453003,-0.006364,0.001493,0.0028309999999999997,-30.559998999999998,15.37,-33.68,3b
2019-07-12_142004:620,-0.190125,-0.056915,-0.45401,-0.008073,0.001737,0.004509,-30.559998999999998,15.37,-33.68,3b
2019-07-12_142004:640,-0.193695,-0.063019,-0.453003,-0.009233,0.0018899999999999998,0.004753,-30.18,15.37,-32.869999,3b
2019-07-12_142004:660,-0.19574,-0.066589,-0.45043900000000003,-0.009812000000000001,0.002225,0.00457,-30.18,15.37,-32.869999,3b
2019-07-12_142004:680,-0.189636,-0.07016,-0.45043900000000003,-0.009294,0.002531,0.004296,-30.18,15.37,-32.869999,3b
2019-07-12_142004:700,-0.185059,-0.07016,-0.447906,-0.008622,0.002409,0.003319,-30.18,14.56,-32.560001,3b
2019-07-12_142004:720,-0.187592,-0.070648,-0.446899,-0.00731,0.0015539999999999998,0.002709,-30.18,14.56,-32.560001,3b
2019-07-12_142004:740,-0.190125,-0.068634,-0.445862,-0.005815,0.001005,0.002495,-30.18,14.56,-32.560001,3b
2019-07-12_142004:760,-0.194214,-0.064545,-0.44638100000000003,-0.004319,0.000425,0.001732,-30.18,14.56,-32.560001,3b
2019-07-12_142004:780,-0.196747,-0.06149299999999999,-0.447388,-0.004319,0.00021099999999999998,0.001213,-30.18,14.56,-32.560001,3b
2019-07-12_142004:800,-0.194214,-0.061005,-0.449432,-0.004746,0.000272,0.000878,-30.559998999999998,15.0,-33.68,3b
2019-07-12_142004:820,-0.192169,-0.061005,-0.44995100000000005,-0.005448,0.00048600000000000005,0.000359,-30.559998999999998,15.0,-33.68,3b
2019-07-12_142004:840,-0.194214,-0.06405599999999999,-0.451477,-0.005386999999999999,-0.000185,-0.000587,-30.870001000000002,15.37,-32.869999,3b
2019-07-12_142004:860,-0.204376,-0.062012,-0.449432,-0.004685,-0.000521,-0.0020210000000000002,-30.870001000000002,15.37,-32.869999,3b
2019-07-12_142004:880,-0.21249400000000002,-0.057434000000000006,-0.45043900000000003,-0.004075,0.00021099999999999998,-0.0007700000000000001,-30.870001000000002,15.37,-32.869999,3b
2019-07-12_142004:900,-0.212006,-0.055389,-0.449432,-0.003739,0.0019510000000000003,0.0009390000000000001,-30.559998999999998,15.37,-32.060001,3b
2019-07-12_142004:920,-0.201324,-0.052338,-0.447906,-0.004197,0.0034770000000000005,0.000145,-30.559998999999998,15.37,-32.060001,3b
2019-07-12_142004:940,-0.190125,-0.049316000000000006,-0.446899,-0.005326,0.0032630000000000003,0.001,-30.18,15.0,-32.18,3b
2019-07-12_142004:960,-0.194702,-0.055389,-0.443329,-0.006181,0.002225,0.0037770000000000004,-30.18,15.0,-32.18,3b
2019-07-12_142004:980,-0.198273,-0.060486,-0.44281000000000004,-0.00731,0.001737,0.0038380000000000003,-30.18,15.0,-32.18,3b
2019-07-12_142005:000,-0.19927999999999998,-0.060486,-0.44027700000000003,-0.008409,0.0018899999999999998,0.002526,-30.559998999999998,14.56,-32.560001,3b
2019-07-12_142005:020,-0.19775399999999999,-0.063019,-0.44232200000000005,-0.008225,0.0016760000000000002,0.0030440000000000003,-30.559998999999998,14.56,-32.560001,3b
2019-07-12_142005:040,-0.20843499999999998,-0.067108,-0.444855,-0.007951,0.000822,0.0023120000000000003,-30.870001000000002,14.56,-32.060001,3b
2019-07-12_142005:060,-0.21859699999999999,-0.063019,-0.445862,-0.007951,0.0007,0.001152,-30.870001000000002,14.56,-32.060001,3b
2019-07-12_142005:080,-0.23590100000000003,-0.057434000000000006,-0.447388,-0.007615,0.002012,0.002892,-30.870001000000002,14.56,-32.060001,3b
2019-07-12_142005:100,-0.23486300000000002,-0.056427,-0.44638100000000003,-0.008622,0.004728,0.006218,-31.0,15.37,-33.369999,3b
2019-07-12_142005:120,-0.200317,-0.058960000000000005,-0.43774399999999997,-0.010667,0.006651000000000001,0.008751,-31.0,15.37,-33.369999,3b
2019-07-12_142005:140,-0.193176,-0.066589,-0.439758,-0.012528000000000001,0.005215999999999999,0.00927,-31.25,15.0,-32.18,3b
2019-07-12_142005:160,-0.20385699999999998,-0.075745,-0.43670699999999996,-0.013078,0.002805,0.0064930000000000005,-31.25,15.0,-32.18,3b
2019-07-12_142005:180,-0.20639000000000002,-0.078278,-0.43621800000000005,-0.013138999999999998,0.0015539999999999998,0.002892,-31.25,15.0,-32.18,3b
2019-07-12_142005:200,-0.207916,-0.078796,-0.432648,-0.01201,0.001401,0.000878,-31.25,15.37,-31.68,3b
2019-07-12_142005:220,-0.20285,-0.07928500000000001,-0.433167,-0.010362,0.0010960000000000002,-0.000923,-31.25,15.37,-31.68,3b
2019-07-12_142005:240,-0.188599,-0.075745,-0.435699,-0.008561,-0.000246,-0.004707,-31.75,14.56,-32.869999,3b
2019-07-12_142005:260,-0.191162,-0.072174,-0.433655,-0.0065769999999999995,-0.002718,-0.008064,-31.75,14.56,-32.869999,3b
2019-07-12_142005:280,-0.20843499999999998,-0.066071,-0.43774399999999997,-0.003556,-0.005007,-0.010414,-31.75,14.56,-32.869999,3b
2019-07-12_142005:300,-0.213531,-0.058441,-0.438751,-0.000688,-0.005526,-0.012733,-32.0,14.25,-32.560001,3b
2019-07-12_142005:320,-0.212006,-0.042694,-0.444855,0.0007769999999999999,-0.004915999999999999,-0.013313,-32.0,14.25,-32.560001,3b
2019-07-12_142005:340,-0.21554600000000002,-0.035065,-0.449432,0.000655,-0.004,-0.010261,-32.369999,14.25,-31.68,3b
2019-07-12_142005:360,-0.228271,-0.028961,-0.453003,-0.000504,-0.0034509999999999996,-0.006476999999999999,-32.369999,14.25,-31.68,3b
2019-07-12_142005:380,-0.226746,-0.026427999999999997,-0.447906,-0.003129,-0.0017420000000000003,-0.003975,-32.369999,14.25,-31.68,3b
2019-07-12_142005:400,-0.22216799999999998,-0.029968,-0.441284,-0.005386999999999999,-0.000582,-0.003029,-30.870001000000002,13.87,-32.060001,3b
2019-07-12_142005:420,-0.21148699999999998,-0.030487,-0.43927,-0.007370999999999999,0.000364,-0.001442,-30.870001000000002,13.87,-32.060001,3b
2019-07-12_142005:440,-0.20233199999999998,-0.037108999999999996,-0.441284,-0.009233,-0.000185,0.0017929999999999999,-30.870001000000002,13.87,-31.68,3b
2019-07-12_142005:460,-0.205902,-0.048798,-0.44281000000000004,-0.009965,-0.0009789999999999998,0.002648,-30.870001000000002,13.87,-31.68,3b
2019-07-12_142005:480,-0.20538299999999998,-0.054901,-0.441803,-0.010209000000000001,-0.00162,-3.8e-05,-30.870001000000002,13.87,-31.68,3b
2019-07-12_142005:500,-0.20639000000000002,-0.055908000000000006,-0.440796,-0.009141,-0.0017420000000000003,-0.000129,-31.68,13.87,-32.869999,3b
2019-07-12_142005:520,-0.20486500000000002,-0.058960000000000005,-0.439758,-0.006822,-0.001559,0.0019149999999999998,-31.68,13.87,-32.869999,3b
2019-07-12_142005:540,-0.20538299999999998,-0.057953,-0.441284,-0.005784,-0.00162,0.0014269999999999999,-30.870001000000002,13.5,-32.18,3b
2019-07-12_142005:560,-0.204376,-0.053375,-0.44232200000000005,-0.006028,-0.002078,-0.00043499999999999995,-30.870001000000002,13.5,-32.18,3b
2019-07-12_142005:580,-0.201324,-0.05438200000000001,-0.44433599999999995,-0.006181,-0.0025960000000000002,-0.00196,-30.870001000000002,13.5,-32.18,3b
2019-07-12_142005:600,-0.208954,-0.056915,-0.44638100000000003,-0.006028,-0.003146,-0.004158,-32.0,13.06,-31.68,3b
2019-07-12_142005:620,-0.207916,-0.053863999999999995,-0.445374,-0.005815,-0.002932,-0.006202,-32.0,13.06,-31.68,3b
2019-07-12_142005:640,-0.223175,-0.049805,-0.445862,-0.005143,-0.002657,-0.0055,-32.369999,13.5,-32.18,3b
2019-07-12_142005:660,-0.21911599999999998,-0.048798,-0.441284,-0.004594,-0.001315,-0.00489,-32.369999,13.5,-32.18,3b
2019-07-12_142005:680,-0.20944200000000002,-0.042694,-0.438751,-0.0049299999999999995,-0.0010400000000000001,-0.005043,-32.369999,13.5,-32.18,3b
2019-07-12_142005:700,-0.204376,-0.042175,-0.43823199999999995,-0.005265,-0.001254,-0.0038829999999999997,-32.369999,13.06,-32.869999,3b
2019-07-12_142005:720,-0.196747,-0.043701,-0.435699,-0.006089,-0.00162,-0.002693,-32.369999,13.06,-32.869999,3b
2019-07-12_142005:740,-0.19622799999999999,-0.045226999999999996,-0.43823199999999995,-0.0072180000000000005,-0.002657,-0.00309,-32.0,13.5,-32.560001,3b
2019-07-12_142005:760,-0.19775399999999999,-0.046752999999999996,-0.43670699999999996,-0.008561,-0.003664,-0.0037,-32.0,13.5,-32.560001,3b
2019-07-12_142005:780,-0.20285,-0.045226999999999996,-0.44027700000000003,-0.009233,-0.004733,-0.003822,-32.0,13.5,-32.560001,3b
2019-07-12_142005:800,-0.20285,-0.043213,-0.441284,-0.010362,-0.005007,-0.004371,-32.75,13.5,-32.869999,3b
2019-07-12_142005:820,-0.201843,-0.038116000000000004,-0.44433599999999995,-0.011613,-0.005129,-0.004097,-32.75,13.5,-32.869999,3b
2019-07-12_142005:840,-0.213013,-0.037108999999999996,-0.44995100000000005,-0.012863999999999999,-0.005129,-0.003578,-31.68,12.75,-32.18,3b
2019-07-12_142005:860,-0.21249400000000002,-0.037598,-0.44891400000000004,-0.014450999999999999,-0.0049770000000000005,-0.003486,-31.68,12.75,-32.18,3b
2019-07-12_142005:880,-0.219635,-0.039124,-0.45095799999999997,-0.015122,-0.00458,-0.003761,-31.68,12.75,-32.18,3b
2019-07-12_142005:900,-0.21402,-0.041168,-0.45043900000000003,-0.014543,-0.003329,-0.003425,-32.0,12.37,-32.560001,3b
2019-07-12_142005:920,-0.20639000000000002,-0.044739,-0.446899,-0.012925,-0.002718,-0.0037,-32.0,12.37,-32.560001,3b
2019-07-12_142005:940,-0.201324,-0.044739,-0.446899,-0.010667,-0.0025960000000000002,-0.004219,-32.0,12.0,-33.68,3b
2019-07-12_142005:960,-0.19775399999999999,-0.046752999999999996,-0.446899,-0.007768000000000001,-0.003268,-0.004768,-32.0,12.0,-33.68,3b
2019-07-12_142005:980,-0.19775399999999999,-0.041687,-0.446899,-0.004594,-0.0037869999999999996,-0.0063549999999999995,-32.0,12.0,-33.68,3b
2019-07-12_142006:000,-0.204376,-0.037108999999999996,-0.44891400000000004,-0.002671,-0.003878,-0.006476999999999999,-32.369999,11.25,-32.560001,3b
2019-07-12_142006:020,-0.20385699999999998,-0.030487,-0.447906,-0.0014199999999999998,-0.003085,-0.006751999999999999,-32.369999,11.25,-32.560001,3b
2019-07-12_142006:040,-0.206909,-0.026427999999999997,-0.45196499999999995,-0.0022129999999999997,-0.002718,-0.009193000000000002,-32.0,11.56,-32.560001,3b
2019-07-12_142006:060,-0.20285,-0.016266,-0.445862,-0.003617,-0.002139,-0.00962,-32.0,11.56,-32.560001,3b
2019-07-12_142006:080,-0.20742800000000003,-0.017273,-0.447388,-0.005815,-0.0017420000000000003,-0.006202,-32.0,11.56,-32.560001,3b
2019-07-12_142006:100,-0.21048000000000003,-0.019318000000000002,-0.445374,-0.008286,-0.0015890000000000001,-0.003975,-31.68,11.25,-32.560001,3b
2019-07-12_142006:120,-0.206909,-0.021851,-0.441803,-0.011064000000000001,-0.001315,-0.005043,-31.68,11.25,-32.560001,3b
2019-07-12_142006:140,-0.20538299999999998,-0.023895,-0.44027700000000003,-0.0132,-0.00162,-0.0055,-33.060001,11.0,-32.869999,3b
2019-07-12_142006:160,-0.20538299999999998,-0.025908999999999998,-0.438751,-0.013993,-0.002261,-0.00428,-33.060001,11.0,-32.869999,3b
2019-07-12_142006:180,-0.200317,-0.026917,-0.44027700000000003,-0.01439,-0.003054,-0.0033640000000000002,-33.060001,11.0,-32.869999,3b
2019-07-12_142006:200,-0.20486500000000002,-0.021851,-0.438751,-0.014543,-0.003878,-0.003181,-32.75,10.18,-31.68,3b
2019-07-12_142006:220,-0.207916,-0.021332,-0.441803,-0.014787,-0.004275,-0.0020210000000000002,-32.75,10.18,-31.68,3b
2019-07-12_142006:240,-0.198792,-0.017273,-0.44027700000000003,-0.015061000000000001,-0.003664,-0.001838,-32.75,10.56,-32.869999,3b
2019-07-12_142006:260,-0.19775399999999999,-0.013702,-0.443329,-0.016648,-0.004,-0.002571,-32.75,10.56,-32.869999,3b
2019-07-12_142006:280,-0.196747,-0.011687999999999999,-0.44638100000000003,-0.018234999999999998,-0.00461,-0.002449,-32.75,10.56,-32.869999,3b
2019-07-12_142006:300,-0.195221,-0.012177,-0.447906,-0.019853,-0.0049770000000000005,-0.001777,-33.060001,9.5,-32.560001,3b
2019-07-12_142006:320,-0.197266,-0.012695,-0.45095799999999997,-0.021043,-0.00519,-0.0029059999999999997,-33.060001,9.5,-32.560001,3b
2019-07-12_142006:340,-0.200317,-0.008636,-0.455017,-0.021379,-0.005404,-0.00489,-32.75,9.06,-34.060001,3b
2019-07-12_142006:360,-0.201324,-0.006072999999999999,-0.45401,-0.020555,-0.005129,-0.005745,-32.75,9.06,-34.060001,3b
2019-07-12_142006:380,-0.213013,0.002014,-0.455017,-0.019425,-0.004275,-0.006019,-32.75,9.06,-34.060001,3b
2019-07-12_142006:400,-0.20742800000000003,0.008636,-0.453491,-0.018632,-0.002322,-0.004554,-32.0,8.25,-33.68,3b
2019-07-12_142006:420,-0.19775399999999999,0.014221000000000001,-0.45196499999999995,-0.018174,-0.000826,-0.003151,-32.0,8.25,-33.68,3b
2019-07-12_142006:440,-0.196747,0.017792,-0.453491,-0.018907,-0.000307,-0.003547,-32.0,7.56,-34.060001,3b
2019-07-12_142006:460,-0.19775399999999999,0.023895,-0.45043900000000003,-0.019913999999999998,0.00015,-0.003578,-32.0,7.56,-34.060001,3b
2019-07-12_142006:480,-0.19927999999999998,0.025421,-0.44995100000000005,-0.021165,0.000425,-0.002052,-32.0,7.56,-34.060001,3b
2019-07-12_142006:500,-0.190643,0.023375999999999997,-0.448425,-0.022080000000000002,0.0007,-0.000923,-32.75,7.18,-34.060001,3b
2019-07-12_142006:520,-0.186584,0.022858,-0.452484,-0.023087,8.9e-05,-0.002784,-32.75,7.18,-34.060001,3b
2019-07-12_142006:540,-0.197266,0.023895,-0.454529,-0.022569,-0.0012230000000000001,-0.0051649999999999995,-33.060001,6.75,-35.369999,3b
2019-07-12_142006:560,-0.21048000000000003,0.026917,-0.45706199999999997,-0.020829,-0.001864,-0.004707,-33.060001,6.75,-35.369999,3b
2019-07-12_142006:580,-0.20843499999999998,0.03302,-0.453491,-0.01851,-0.00045999999999999996,-0.003181,-33.060001,6.75,-35.369999,3b
2019-07-12_142006:600,-0.20080599999999998,0.037108999999999996,-0.45706199999999997,-0.016191,0.0018899999999999998,-0.004097,-33.869999,6.06,-34.869999,3b
2019-07-12_142006:620,-0.20944200000000002,0.042175,-0.46316499999999994,-0.014268000000000001,0.002286,-0.007331999999999999,-33.869999,6.06,-34.869999,3b
2019-07-12_142006:640,-0.20742800000000003,0.047272,-0.460114,-0.012254000000000001,0.0029579999999999997,-0.008796,-32.75,5.06,-34.560001,3b
2019-07-12_142006:660,-0.208954,0.048798,-0.45605500000000004,-0.010026,0.004057,-0.007331999999999999,-32.75,5.06,-34.560001,3b
2019-07-12_142006:680,-0.210968,0.050323,-0.454529,-0.0074930000000000005,0.005125,-0.0060799999999999995,-32.75,5.06,-34.560001,3b
2019-07-12_142006:700,-0.210968,0.052338,-0.449432,-0.0049299999999999995,0.005979,-0.005958,-33.060001,4.68,-33.369999,3b
2019-07-12_142006:720,-0.20742800000000003,0.055908000000000006,-0.446899,-0.00203,0.0064670000000000005,-0.005562,-33.060001,4.68,-33.369999,3b
2019-07-12_142006:740,-0.207916,0.057953,-0.446899,0.001052,0.006254,-0.004036,-33.5,4.68,-34.060001,3b
2019-07-12_142006:760,-0.21048000000000003,0.058960000000000005,-0.445862,0.003554,0.005979,-0.001777,-33.5,4.68,-34.060001,3b
2019-07-12_142006:780,-0.21505700000000003,0.061005,-0.44232200000000005,0.0058130000000000005,0.0057350000000000005,0.000817,-33.5,4.68,-34.060001,3b
2019-07-12_142006:800,-0.21911599999999998,0.06149299999999999,-0.441284,0.007826999999999999,0.005613,0.0030440000000000003,-33.5,4.68,-32.869999,3b
2019-07-12_142006:820,-0.209961,0.063019,-0.43670699999999996,0.008864,0.005918,0.00396,-33.5,4.68,-32.869999,3b
2019-07-12_142006:840,-0.207916,0.06253099999999999,-0.437225,0.009353,0.0052770000000000004,0.005181,-34.25,4.56,-33.68,3b
2019-07-12_142006:860,-0.20742800000000003,0.059479,-0.435699,0.009414,0.004453,0.008477,-34.25,4.56,-33.68,3b
2019-07-12_142006:880,-0.207916,0.053375,-0.437225,0.009322,0.00366,0.0122,-34.25,4.56,-33.68,3b
2019-07-12_142006:900,-0.213531,0.043701,-0.44027700000000003,0.009475,0.0029579999999999997,0.013725999999999999,-34.560001,6.18,-32.869999,3b
2019-07-12_142006:920,-0.213531,0.040161,-0.43927,0.009475,0.002927,0.013999999999999999,-34.560001,6.18,-32.869999,3b
2019-07-12_142006:940,-0.21606399999999998,0.031494,-0.43927,0.00981,0.0026219999999999998,0.016442,-35.369999,6.56,-32.560001,3b
2019-07-12_142006:960,-0.220123,0.022858,-0.439758,0.011062,0.002531,0.018303,-35.369999,6.56,-32.560001,3b
2019-07-12_142006:980,-0.226227,0.017273,-0.438751,0.01158,0.0026219999999999998,0.018119999999999997,-35.369999,6.56,-32.560001,3b
2019-07-12_142007:000,-0.22927899999999998,0.017273,-0.43823199999999995,0.012251999999999999,0.003324,0.019584999999999998,-34.25,7.25,-32.18,3b
2019-07-12_142007:020,-0.228271,0.010162000000000001,-0.43774399999999997,0.012648999999999999,0.004789,0.022881,-34.25,7.25,-32.18,3b
2019-07-12_142007:040,-0.223694,0.007111,-0.43670699999999996,0.011855,0.005796,0.024681,-34.560001,8.75,-30.68,3b
2019-07-12_142007:060,-0.21810900000000003,0.0,-0.433167,0.010451,0.006803,0.025994,-34.560001,8.75,-30.68,3b
2019-07-12_142007:080,-0.21759,-0.007111,-0.433167,0.008742,0.007444,0.027275,-34.560001,8.75,-30.68,3b
2019-07-12_142007:100,-0.226746,-0.014740000000000001,-0.42858900000000005,0.007064,0.0075049999999999995,0.027732999999999997,-34.369999,10.25,-30.18,3b
2019-07-12_142007:120,-0.22521999999999998,-0.020325,-0.42401099999999997,0.005141,0.007871,0.027611,-34.369999,10.25,-30.18,3b
2019-07-12_142007:140,-0.227753,-0.025421,-0.418915,0.002913,0.008634000000000001,0.028007999999999998,-34.0,11.0,-32.68,3b
2019-07-12_142007:160,-0.226227,-0.031006,-0.41842700000000005,0.002242,0.008909,0.028069,-34.0,11.0,-32.68,3b
2019-07-12_142007:180,-0.21859699999999999,-0.031006,-0.420441,0.000625,0.008329000000000001,0.02755,-34.0,11.0,-32.68,3b
2019-07-12_142007:200,-0.22421300000000002,-0.029968,-0.420959,-0.001145,0.0064670000000000005,0.02755,-34.0,12.87,-30.68,3b
2019-07-12_142007:220,-0.25012199999999996,-0.041168,-0.42605600000000005,-0.0035259999999999996,0.004331000000000001,0.029869,-34.0,12.87,-30.68,3b
2019-07-12_142007:240,-0.251648,-0.046265,-0.42807,-0.005448,0.0050030000000000005,0.031731,-34.0,13.18,-28.68,3b
2019-07-12_142007:260,-0.25116,-0.05438200000000001,-0.429596,-0.007615,0.005918,0.033226,-34.0,13.18,-28.68,3b
2019-07-12_142007:280,-0.244019,-0.05996699999999999,-0.43011499999999997,-0.009141,0.006589,0.033500999999999996,-34.0,13.18,-28.68,3b
2019-07-12_142007:300,-0.235382,-0.069641,-0.42453,-0.010545,0.006376,0.030601999999999997,-33.18,14.68,-29.75,3b
2019-07-12_142007:320,-0.23284899999999997,-0.0737,-0.42147799999999996,-0.011796,0.005857,0.02755,-33.18,14.68,-29.75,3b
2019-07-12_142007:340,-0.223175,-0.078278,-0.41842700000000005,-0.011888,0.004453,0.025872000000000003,-32.869999,14.68,-29.75,3b
2019-07-12_142007:360,-0.22927899999999998,-0.083862,-0.418915,-0.011949,0.002348,0.022759,-32.869999,14.68,-29.75,3b
2019-07-12_142007:380,-0.233337,-0.08743300000000001,-0.423492,-0.011337999999999999,0.001615,0.019036,-32.869999,14.68,-29.75,3b
2019-07-12_142007:400,-0.233337,-0.08843999999999999,-0.42401099999999997,-0.009812000000000001,0.000883,0.016166999999999997,-33.18,15.06,-29.5,3b
2019-07-12_142007:420,-0.248108,-0.090485,-0.41995200000000005,-0.007951,0.001493,0.013787,-33.18,15.06,-29.5,3b
2019-07-12_142007:440,-0.24658200000000002,-0.08743300000000001,-0.41943400000000003,-0.006028,0.001829,0.011071,-33.560001,16.18,-29.370001000000002,3b
2019-07-12_142007:460,-0.23284899999999997,-0.085388,-0.416901,-0.004136,0.000669,0.008751,-33.560001,16.18,-29.370001000000002,3b
2019-07-12_142007:480,-0.233337,-0.08590700000000001,-0.42147799999999996,-0.0024879999999999998,-0.001864,0.007103,-33.560001,16.18,-29.370001000000002,3b
2019-07-12_142007:500,-0.236389,-0.0849,-0.42147799999999996,-0.000962,-0.003664,0.005699,-32.869999,16.559998999999998,-29.5,3b
2019-07-12_142007:520,-0.24096700000000001,-0.085388,-0.41943400000000003,0.000625,-0.004794,0.00277,-32.869999,16.559998999999998,-29.5,3b
2019-07-12_142007:540,-0.240479,-0.080322,-0.420441,0.0020280000000000003,-0.0057090000000000005,-0.000526,-32.869999,17.0,-29.75,3b
2019-07-12_142007:560,-0.235382,-0.078796,-0.420959,0.0032189999999999996,-0.007571,-0.002388,-32.869999,17.0,-29.75,3b
2019-07-12_142007:580,-0.242004,-0.070648,-0.429596,0.004287,-0.009188,-0.002968,-32.869999,17.0,-29.75,3b
2019-07-12_142007:600,-0.24963400000000002,-0.067596,-0.431122,0.004439,-0.008761,-0.0029059999999999997,-32.5,16.18,-29.75,3b
2019-07-12_142007:620,-0.255707,-0.05996699999999999,-0.43011499999999997,0.004012,-0.006533,-0.001625,-32.5,16.18,-29.75,3b
2019-07-12_142007:640,-0.257751,-0.057434000000000006,-0.43011499999999997,0.0033710000000000003,-0.005129,8.4e-05,-32.5,17.059998999999998,-30.18,3b
2019-07-12_142007:660,-0.251648,-0.055908000000000006,-0.42605600000000005,-1.6e-05,-0.000918,0.004357,-32.5,17.059998999999998,-30.18,3b
2019-07-12_142007:680,-0.24706999999999998,-0.055908000000000006,-0.425018,-0.003282,0.00021099999999999998,0.007347,-32.5,17.059998999999998,-30.18,3b
2019-07-12_142007:700,-0.239441,-0.063538,-0.421967,-0.006364,0.0016760000000000002,0.009209,-32.869999,16.68,-30.18,3b
2019-07-12_142007:720,-0.230804,-0.072693,-0.418915,-0.008622,0.001157,0.007286,-32.869999,16.68,-30.18,3b
2019-07-12_142007:740,-0.223175,-0.083374,-0.41943400000000003,-0.01027,-0.000185,0.004753,-32.060001,17.0,-30.059998999999998,3b
2019-07-12_142007:760,-0.22421300000000002,-0.08996599999999999,-0.418915,-0.009629,-0.001925,0.004753,-32.060001,17.0,-30.059998999999998,3b
2019-07-12_142007:780,-0.223694,-0.09811399999999999,-0.41943400000000003,-0.008164,-0.003481,0.003258,-32.060001,17.0,-30.059998999999998,3b
2019-07-12_142007:800,-0.226227,-0.097595,-0.420959,-0.0065769999999999995,-0.005007,0.000298,-32.5,17.75,-28.559998999999998,3b
2019-07-12_142007:820,-0.231812,-0.091003,-0.42453,-0.004533,-0.006045,-0.001106,-32.5,17.75,-28.559998999999998,3b
2019-07-12_142007:840,-0.233856,-0.08996599999999999,-0.426544,-0.0026100000000000003,-0.005984000000000001,-0.001655,-32.5,17.059998999999998,-28.870001000000002,3b
2019-07-12_142007:860,-0.237427,-0.0849,-0.427063,-0.001756,-0.0059229999999999994,-0.0026320000000000002,-32.5,17.059998999999998,-28.870001000000002,3b
2019-07-12_142007:880,-0.23995999999999998,-0.078796,-0.429108,-0.001939,-0.005068,-0.002693,-32.5,17.059998999999998,-28.870001000000002,3b
2019-07-12_142007:900,-0.239441,-0.072174,-0.42858900000000005,-0.0028239999999999997,-0.004061,-0.00251,-32.869999,17.5,-30.18,3b
2019-07-12_142007:920,-0.233856,-0.073212,-0.426544,-0.004319,-0.003725,-0.003761,-32.869999,17.5,-30.18,3b
2019-07-12_142007:940,-0.22979699999999997,-0.07016,-0.42858900000000005,-0.005601,-0.0036030000000000003,-0.004158,-32.060001,16.68,-29.68,3b
2019-07-12_142007:960,-0.228271,-0.072693,-0.430634,-0.005967,-0.003664,-0.003547,-32.060001,16.68,-29.68,3b
2019-07-12_142007:980,-0.22979699999999997,-0.078278,-0.43011499999999997,-0.005845,-0.003481,-0.003822,-32.060001,16.68,-29.68,3b
2019-07-12_142008:000,-0.231812,-0.078796,-0.429596,-0.005906000000000001,-0.0034509999999999996,-0.004677000000000001,-32.869999,17.059998999999998,-30.18,3b
2019-07-12_142008:020,-0.22879000000000002,-0.076752,-0.43011499999999997,-0.004533,-0.003329,-0.005409000000000001,-32.869999,17.059998999999998,-30.18,3b
2019-07-12_142008:040,-0.230804,-0.07775900000000001,-0.431122,-0.004075,-0.003146,-0.005409000000000001,-32.869999,17.059998999999998,-29.370001000000002,3b
2019-07-12_142008:060,-0.23233,-0.077271,-0.432648,-0.003129,-0.0027489999999999997,-0.006202,-32.869999,17.059998999999998,-29.370001000000002,3b
2019-07-12_142008:080,-0.23284899999999997,-0.074738,-0.431641,-0.002152,-0.001955,-0.005684000000000001,-32.869999,17.059998999999998,-29.370001000000002,3b
2019-07-12_142008:100,-0.235382,-0.072174,-0.432159,-0.001939,-0.0015890000000000001,-0.005287,-32.869999,16.68,-29.68,3b
2019-07-12_142008:120,-0.23284899999999997,-0.069641,-0.43011499999999997,-0.002336,-0.000704,-0.005104,-32.869999,16.68,-29.68,3b
2019-07-12_142008:140,-0.231323,-0.07016,-0.431641,-0.0024879999999999998,-0.000704,-0.005104,-32.869999,17.059998999999998,-29.68,3b
2019-07-12_142008:160,-0.23284899999999997,-0.067596,-0.429596,-0.003556,-0.000582,-0.0043100000000000005,-32.869999,17.059998999999998,-29.68,3b
2019-07-12_142008:180,-0.234375,-0.07016,-0.42758199999999996,-0.004014,-0.00043,-0.004036,-32.869999,17.059998999999998,-29.68,3b
2019-07-12_142008:200,-0.22927899999999998,-0.073212,-0.42807,-0.004197,-0.00043,-0.00428,-32.5,16.68,-29.68,3b
2019-07-12_142008:220,-0.23791500000000002,-0.075226,-0.426544,-0.004197,-0.00043,-0.00428,-32.5,16.68,-29.68,3b
2019-07-12_142008:240,-0.23791500000000002,-0.075226,-0.42758199999999996,-0.003556,-0.000307,-0.002968,-33.18,16.25,-28.870001000000002,3b
2019-07-12_142008:260,-0.238434,-0.076263,-0.425537,-0.003282,0.00021099999999999998,-0.0043100000000000005,-33.18,16.25,-28.870001000000002,3b
2019-07-12_142008:280,-0.23791500000000002,-0.076263,-0.425018,-0.003282,-9.4e-05,-0.007026,-33.18,16.25,-28.870001000000002,3b
2019-07-12_142008:300,-0.231812,-0.071686,-0.43011499999999997,-0.003404,-0.000124,-0.006934999999999999,-33.560001,16.68,-29.68,3b
2019-07-12_142008:320,-0.23284899999999997,-0.072174,-0.42453,-0.00203,-0.00036899999999999997,-0.004036,-33.560001,16.68,-29.68,3b
2019-07-12_142008:340,-0.23895300000000003,-0.07421900000000001,-0.42605600000000005,-0.0016640000000000001,-0.00045999999999999996,-0.004219,-32.869999,15.56,-29.370001000000002,3b
2019-07-12_142008:360,-0.23895300000000003,-0.073212,-0.425537,-0.000504,0.000272,-0.004615,-32.869999,15.56,-29.370001000000002,3b
2019-07-12_142008:380,-0.233856,-0.068115,-0.42453,-1.6e-05,-0.000307,-0.0033640000000000002,-32.869999,15.56,-29.370001000000002,3b
2019-07-12_142008:400,-0.238434,-0.067596,-0.427063,-0.000566,-0.000521,-0.0021739999999999997,-33.18,16.68,-29.68,3b
2019-07-12_142008:420,-0.244019,-0.065582,-0.423492,-0.001542,0.00015,-0.000648,-33.18,16.68,-29.68,3b
2019-07-12_142008:440,-0.242493,-0.066589,-0.420959,-0.002671,0.0007,0.00103,-34.0,15.87,-28.870001000000002,3b
2019-07-12_142008:460,-0.24353000000000002,-0.068634,-0.41943400000000003,-0.0038,0.001157,0.000634,-34.0,15.87,-28.870001000000002,3b
2019-07-12_142008:480,-0.234375,-0.071686,-0.41842700000000005,-0.005052,0.000883,0.000359,-34.0,15.87,-28.870001000000002,3b
2019-07-12_142008:500,-0.23233,-0.07016,-0.420959,-0.005204,0.000303,0.000634,-34.0,16.0,-28.870001000000002,3b
2019-07-12_142008:520,-0.236389,-0.07421900000000001,-0.420441,-0.006181,-0.0010400000000000001,0.0030440000000000003,-34.0,16.0,-28.870001000000002,3b
2019-07-12_142008:540,-0.237427,-0.075745,-0.423492,-0.006547,-0.001315,0.003228,-33.18,16.0,-29.68,3b
2019-07-12_142008:560,-0.237427,-0.07775900000000001,-0.42401099999999997,-0.0076760000000000005,-0.0024129999999999998,0.0017929999999999999,-33.18,16.0,-29.68,3b
2019-07-12_142008:580,-0.23791500000000002,-0.078278,-0.42401099999999997,-0.007768000000000001,-0.002932,0.0007559999999999999,-33.18,16.0,-29.68,3b
2019-07-12_142008:600,-0.236389,-0.079803,-0.426544,-0.007951,-0.003268,0.000145,-33.18,16.0,-28.870001000000002,3b
2019-07-12_142008:620,-0.236389,-0.078278,-0.425018,-0.0074930000000000005,-0.0037869999999999996,-0.001381,-33.18,16.0,-28.870001000000002,3b
2019-07-12_142008:640,-0.23690799999999998,-0.076752,-0.42605600000000005,-0.007431999999999999,-0.003725,-0.001625,-34.0,16.18,-28.870001000000002,3b
2019-07-12_142008:660,-0.235382,-0.074738,-0.42605600000000005,-0.006944,-0.003481,-0.003029,-34.0,16.18,-28.870001000000002,3b
2019-07-12_142008:680,-0.23486300000000002,-0.070648,-0.425537,-0.0063030000000000004,-0.003146,-0.003914,-34.0,16.18,-28.870001000000002,3b
2019-07-12_142008:700,-0.23233,-0.069641,-0.427063,-0.006242,-0.003085,-0.004219,-33.18,16.0,-29.68,3b
2019-07-12_142008:720,-0.23284899999999997,-0.065582,-0.42605600000000005,-0.0054789999999999995,-0.002932,-0.004768,-33.18,16.0,-29.68,3b
2019-07-12_142008:740,-0.234375,-0.064545,-0.426544,-0.005326,-0.002657,-0.0043100000000000005,-34.0,15.06,-28.870001000000002,3b
2019-07-12_142008:760,-0.239441,-0.06149299999999999,-0.427063,-0.004594,-0.0018030000000000001,-0.0033640000000000002,-34.0,15.06,-28.870001000000002,3b
2019-07-12_142008:780,-0.24453699999999998,-0.060486,-0.427063,-0.004746,-0.0007650000000000001,-0.0021739999999999997,-34.0,15.06,-28.870001000000002,3b
2019-07-12_142008:800,-0.25317399999999995,-0.061005,-0.425018,-0.004746,-0.000246,-0.000984,-33.560001,16.0,-29.68,3b
2019-07-12_142008:820,-0.25521900000000003,-0.057953,-0.42758199999999996,-0.005326,0.0014320000000000001,0.000603,-33.560001,16.0,-29.68,3b
2019-07-12_142008:840,-0.25317399999999995,-0.055389,-0.433167,-0.005784,0.001218,0.000145,-35.060001,15.87,-29.370001000000002,3b
2019-07-12_142008:860,-0.2547,-0.051330999999999995,-0.43518100000000004,-0.007951,-0.000307,0.001396,-35.060001,15.87,-29.370001000000002,3b
2019-07-12_142008:880,-0.256744,-0.055908000000000006,-0.42758199999999996,-0.009202,0.00021099999999999998,0.0035020000000000003,-35.060001,15.87,-29.370001000000002,3b
2019-07-12_142008:900,-0.253693,-0.05438200000000001,-0.41995200000000005,-0.009965,0.000822,0.00396,-34.369999,14.75,-28.870001000000002,3b
2019-07-12_142008:920,-0.24096700000000001,-0.053375,-0.40823400000000004,-0.011949,0.002409,0.00515,-34.369999,14.75,-28.870001000000002,3b
2019-07-12_142008:940,-0.230804,-0.055389,-0.402649,-0.012345,0.0026219999999999998,0.005974,-33.18,15.18,-28.870001000000002,3b
2019-07-12_142008:960,-0.219635,-0.060486,-0.401123,-0.013597,0.00015,0.007744,-33.18,15.18,-28.870001000000002,3b
2019-07-12_142008:980,-0.22116100000000002,-0.06253099999999999,-0.40368699999999996,-0.014329,-0.0027489999999999997,0.008140999999999999,-33.18,15.18,-28.870001000000002,3b
2019-07-12_142009:000,-0.226746,-0.067596,-0.414337,-0.014512,-0.004,0.008416,-34.68,15.56,-29.68,3b
2019-07-12_142009:020,-0.23590100000000003,-0.071167,-0.41995200000000005,-0.014787,-0.007571,0.007958,-34.68,15.56,-29.68,3b
2019-07-12_142009:040,-0.24453699999999998,-0.078278,-0.432159,-0.014726,-0.008364,0.006768000000000001,-34.369999,15.18,-29.370001000000002,3b
2019-07-12_142009:060,-0.251648,-0.07928500000000001,-0.44027700000000003,-0.013597,-0.008364,0.002495,-34.369999,15.18,-29.370001000000002,3b
2019-07-12_142009:080,-0.257233,-0.081329,-0.443329,-0.01146,-0.006319,2.3e-05,-34.369999,15.18,-29.370001000000002,3b
2019-07-12_142009:100,-0.25521900000000003,-0.081329,-0.44232200000000005,-0.010026,-0.004855,-0.001655,-33.560001,15.56,-29.370001000000002,3b
2019-07-12_142009:120,-0.245544,-0.072693,-0.43621800000000005,-0.006028,-0.0009789999999999998,-0.006965000000000001,-33.560001,15.56,-29.370001000000002,3b
2019-07-12_142009:140,-0.23895300000000003,-0.064545,-0.43518100000000004,-0.004807,-0.000124,-0.007942,-33.560001,15.56,-29.370001000000002,3b
2019-07-12_142009:160,-0.231323,-0.053375,-0.429596,-0.0028239999999999997,0.0007610000000000001,-0.009071,-33.18,14.75,-29.68,3b
2019-07-12_142009:180,-0.230804,-0.044739,-0.42807,-0.0026100000000000003,0.000303,-0.00962,-33.18,14.75,-29.68,3b
2019-07-12_142009:200,-0.23233,-0.036591000000000005,-0.42858900000000005,-0.003007,0.00021099999999999998,-0.009681,-33.18,14.75,-29.370001000000002,3b
2019-07-12_142009:220,-0.237427,-0.032532,-0.42605600000000005,-0.003953,-0.000857,-0.009193000000000002,-33.18,14.75,-29.370001000000002,3b
2019-07-12_142009:240,-0.242493,-0.026917,-0.42807,-0.005448,-0.001376,-0.007606,-33.18,14.75,-29.370001000000002,3b
2019-07-12_142009:260,-0.245544,-0.026427999999999997,-0.42807,-0.006761,-0.0012230000000000001,-0.0055,-33.560001,14.06,-27.68,3b
2019-07-12_142009:280,-0.245056,-0.024902,-0.42401099999999997,-0.00908,-0.000124,-0.001777,-33.560001,14.06,-27.68,3b
2019-07-12_142009:300,-0.243011,-0.026427999999999997,-0.42453,-0.009477,2.8000000000000003e-05,-0.000526,-34.0,14.68,-29.370001000000002,3b
2019-07-12_142009:320,-0.23284899999999997,-0.03302,-0.417908,-0.010606,0.00048600000000000005,0.003319,-34.0,14.68,-29.370001000000002,3b
2019-07-12_142009:340,-0.240479,-0.035583,-0.42147799999999996,-0.010606,0.000364,0.004357,-34.0,14.68,-29.370001000000002,3b
2019-07-12_142009:360,-0.239441,-0.039124,-0.41995200000000005,-0.011003,0.000425,0.007897,-34.68,14.37,-28.870001000000002,3b
2019-07-12_142009:380,-0.23995999999999998,-0.043213,-0.41995200000000005,-0.010728,0.00021099999999999998,0.009148,-34.68,14.37,-28.870001000000002,3b
2019-07-12_142009:400,-0.23791500000000002,-0.048798,-0.426544,-0.010728,-0.00043,0.008751,-33.560001,14.0,-29.370001000000002,3b
2019-07-12_142009:420,-0.231812,-0.049805,-0.42758199999999996,-0.011064000000000001,-0.002352,0.006615,-33.560001,14.0,-29.370001000000002,3b
2019-07-12_142009:440,-0.233856,-0.057434000000000006,-0.433655,-0.010942,-0.004794,0.006371,-33.560001,14.0,-29.370001000000002,3b
2019-07-12_142009:460,-0.236389,-0.06405599999999999,-0.431641,-0.009599,-0.005862,0.005547,-33.560001,14.0,-29.370001000000002,3b
2019-07-12_142009:480,-0.23690799999999998,-0.065582,-0.431641,-0.0067,-0.0057090000000000005,-0.00132,-33.560001,14.0,-29.370001000000002,3b
2019-07-12_142009:500,-0.231323,-0.063019,-0.429108,-0.005326,-0.005372999999999999,-0.0033640000000000002,-32.869999,13.56,-29.370001000000002,3b
2019-07-12_142009:520,-0.219635,-0.054901,-0.429596,-0.001359,-0.005312,-0.006569,-32.869999,13.56,-29.370001000000002,3b
2019-07-12_142009:540,-0.220642,-0.048798,-0.433167,-0.000504,-0.005587,-0.007423000000000001,-32.869999,13.56,-29.370001000000002,3b
2019-07-12_142009:560,-0.222687,-0.040161,-0.43823199999999995,0.0008380000000000001,-0.005465,-0.008094,-32.869999,13.18,-29.68,3b
2019-07-12_142009:580,-0.23233,-0.034058,-0.44027700000000003,0.001052,-0.004915999999999999,-0.007087,-32.869999,13.18,-29.68,3b
2019-07-12_142009:600,-0.238434,-0.030487,-0.441803,0.000625,-0.003054,-0.005104,-34.369999,14.0,-28.870001000000002,3b
2019-07-12_142009:620,-0.23895300000000003,-0.028442000000000002,-0.44232200000000005,-0.000627,-0.000857,-0.004036,-34.369999,14.0,-28.870001000000002,3b
2019-07-12_142009:640,-0.245544,-0.028961,-0.44433599999999995,-0.002091,0.001218,-0.002571,-34.369999,14.0,-28.870001000000002,3b
2019-07-12_142009:660,-0.251648,-0.032532,-0.44232200000000005,-0.003221,0.003599,8.4e-05,-33.18,13.56,-28.870001000000002,3b
2019-07-12_142009:680,-0.25317399999999995,-0.036072,-0.43927,-0.004258,0.005215999999999999,0.0014269999999999999,-33.18,13.56,-28.870001000000002,3b
2019-07-12_142009:700,-0.25012199999999996,-0.038116000000000004,-0.434692,-0.005386999999999999,0.006254,0.0019760000000000003,-34.0,13.18,-29.68,3b
2019-07-12_142009:720,-0.24658200000000002,-0.040161,-0.426544,-0.006242,0.006314999999999999,0.002983,-34.0,13.18,-29.68,3b
2019-07-12_142009:740,-0.23995999999999998,-0.041687,-0.42147799999999996,-0.006639,0.006254,0.003624,-34.0,13.18,-29.68,3b
2019-07-12_142009:760,-0.23233,-0.043213,-0.41333000000000003,-0.006944,0.005582,0.003624,-34.369999,13.56,-28.559998999999998,3b
2019-07-12_142009:780,-0.230804,-0.044219999999999995,-0.408752,-0.0067,0.00488,0.004418,-34.369999,13.56,-28.559998999999998,3b
2019-07-12_142009:800,-0.23028600000000002,-0.046752999999999996,-0.40976,-0.006547,0.003599,0.005761,-33.560001,13.18,-29.0,3b
2019-07-12_142009:820,-0.23590100000000003,-0.050323,-0.411804,-0.0065769999999999995,0.0017980000000000001,0.007164,-33.560001,13.18,-29.0,3b
2019-07-12_142009:840,-0.23995999999999998,-0.05285599999999999,-0.418915,-0.006973999999999999,0.00021099999999999998,0.008202,-33.560001,13.18,-29.0,3b
2019-07-12_142009:860,-0.244019,-0.055389,-0.42248500000000005,-0.007554000000000001,-0.001437,0.008293,-34.68,14.0,-28.18,3b
2019-07-12_142009:880,-0.25216700000000003,-0.062012,-0.42605600000000005,-0.008348000000000001,-0.0028710000000000003,0.007286,-34.68,14.0,-28.18,3b
2019-07-12_142009:900,-0.256744,-0.065582,-0.42858900000000005,-0.008683,-0.003481,0.006035,-34.68,13.56,-29.370001000000002,3b
2019-07-12_142009:920,-0.257751,-0.069641,-0.423492,-0.007890000000000001,-0.003085,0.003655,-34.68,13.56,-29.370001000000002,3b
2019-07-12_142009:940,-0.250641,-0.068634,-0.42248500000000005,-0.007095999999999999,-0.0018030000000000001,0.000878,-34.68,13.56,-29.370001000000002,3b
2019-07-12_142009:960,-0.238434,-0.067596,-0.418915,-0.0056619999999999995,-0.0011619999999999998,-0.001381,-34.0,14.37,-29.68,3b
2019-07-12_142009:980,-0.233856,-0.064545,-0.41943400000000003,-0.00435,-0.0009789999999999998,-0.005287,-34.0,14.37,-29.68,3b
2019-07-12_142010:000,-0.227264,-0.053863999999999995,-0.41943400000000003,-0.003861,-0.001864,-0.008461,-34.369999,14.0,-28.870001000000002,3b
2019-07-12_142010:020,-0.228271,-0.049316000000000006,-0.420441,-0.002671,-0.0024739999999999996,-0.007759,-34.369999,14.0,-28.870001000000002,3b
2019-07-12_142010:040,-0.23791500000000002,-0.047272,-0.42401099999999997,-0.0022129999999999997,-0.002993,-0.006476999999999999,-34.369999,14.0,-28.870001000000002,3b
2019-07-12_142010:060,-0.242493,-0.041168,-0.425537,-0.002397,-0.002352,-0.007423000000000001,-35.060001,13.56,-28.18,3b
2019-07-12_142010:080,-0.250641,-0.036072,-0.42758199999999996,-0.0026100000000000003,-0.001498,-0.006934999999999999,-35.060001,13.56,-28.18,3b
2019-07-12_142010:100,-0.25827,-0.035065,-0.431122,-0.003007,-0.000521,-0.0053479999999999995,-34.68,12.87,-29.370001000000002,3b
2019-07-12_142010:120,-0.262848,-0.033539,-0.430634,-0.003861,0.000272,-0.003975,-34.68,12.87,-29.370001000000002,3b
2019-07-12_142010:140,-0.266907,-0.03302,-0.431641,-0.0049299999999999995,0.0010960000000000002,-0.002357,-34.68,12.87,-29.370001000000002,3b
2019-07-12_142010:160,-0.266388,-0.034546,-0.429596,-0.006089,0.001615,-0.000129,-34.68,13.18,-30.18,3b
2019-07-12_142010:180,-0.261322,-0.035065,-0.42401099999999997,-0.007035,0.0017980000000000001,0.000878,-34.68,13.18,-30.18,3b
2019-07-12_142010:200,-0.25317399999999995,-0.035065,-0.41943400000000003,-0.008073,0.0019510000000000003,0.0009390000000000001,-34.0,13.18,-28.559998999999998,3b
2019-07-12_142010:220,-0.24453699999999998,-0.036591000000000005,-0.41232299999999994,-0.008836,0.001737,0.002526,-34.0,13.18,-28.559998999999998,3b
2019-07-12_142010:240,-0.24096700000000001,-0.038116000000000004,-0.40823400000000004,-0.00908,0.001005,0.00457,-34.0,13.18,-28.559998999999998,3b
2019-07-12_142010:260,-0.238434,-0.040649,-0.404175,-0.00969,8.9e-05,0.004967,-35.060001,13.18,-28.559998999999998,3b
2019-07-12_142010:280,-0.238434,-0.040161,-0.404694,-0.010209000000000001,-0.001315,0.004296,-35.060001,13.18,-28.559998999999998,3b
2019-07-12_142010:300,-0.23895300000000003,-0.042175,-0.408752,-0.010484,-0.0022,0.004052,-35.060001,12.87,-28.18,3b
2019-07-12_142010:320,-0.242493,-0.042694,-0.40976,-0.010819,-0.003268,0.0030440000000000003,-35.060001,12.87,-28.18,3b
2019-07-12_142010:340,-0.246063,-0.041687,-0.41586300000000004,-0.011276999999999999,-0.004,0.0016710000000000002,-35.060001,12.87,-28.18,3b
2019-07-12_142010:360,-0.24658200000000002,-0.041687,-0.42453,-0.011276999999999999,-0.004,0.000634,-34.68,12.5,-28.870001000000002,3b
2019-07-12_142010:380,-0.253693,-0.042694,-0.43011499999999997,-0.010728,-0.003878,2.3e-05,-34.68,12.5,-28.870001000000002,3b
2019-07-12_142010:400,-0.259277,-0.042175,-0.432159,-0.009751000000000001,-0.00339,-0.00037400000000000004,-34.68,12.5,-28.559998999999998,3b
2019-07-12_142010:420,-0.263855,-0.040649,-0.432159,-0.008561,-0.002139,-0.00037400000000000004,-34.68,12.5,-28.559998999999998,3b
2019-07-12_142010:440,-0.262848,-0.037598,-0.434692,-0.007431999999999999,-0.000521,0.000298,-34.68,12.5,-28.559998999999998,3b
2019-07-12_142010:460,-0.26181,-0.036591000000000005,-0.431122,-0.0065769999999999995,0.000303,0.001274,-34.68,12.5,-29.370001000000002,3b
2019-07-12_142010:480,-0.25827,-0.038116000000000004,-0.43011499999999997,-0.005906000000000001,0.000822,0.002648,-34.68,12.5,-29.370001000000002,3b
2019-07-12_142010:500,-0.264862,-0.038635,-0.425018,-0.005601,0.00048600000000000005,0.0033799999999999998,-34.68,12.06,-29.370001000000002,3b
2019-07-12_142010:520,-0.26181,-0.037108999999999996,-0.417389,-0.005967,0.000425,0.003258,-34.68,12.06,-29.370001000000002,3b
2019-07-12_142010:540,-0.254211,-0.036591000000000005,-0.40976,-0.005967,0.001005,0.004021,-34.68,12.06,-29.370001000000002,3b
2019-07-12_142010:560,-0.248596,-0.037108999999999996,-0.406738,-0.006181,0.001157,0.002709,-34.68,12.87,-28.870001000000002,3b
2019-07-12_142010:580,-0.23486300000000002,-0.029480000000000003,-0.402161,-0.006822,0.000608,0.001091,-34.68,12.87,-28.870001000000002,3b
2019-07-12_142010:600,-0.23233,-0.031006,-0.402649,-0.007431999999999999,-0.0017420000000000003,0.003167,-34.68,13.18,-28.870001000000002,3b
2019-07-12_142010:620,-0.235382,-0.030487,-0.404175,-0.0074930000000000005,-0.0024739999999999996,0.0033799999999999998,-34.68,13.18,-28.870001000000002,3b
2019-07-12_142010:640,-0.23895300000000003,-0.028961,-0.407227,-0.008409,-0.004122,0.0021899999999999997,-34.68,13.18,-28.870001000000002,3b
2019-07-12_142010:660,-0.244019,-0.025421,-0.415375,-0.00908,-0.0057399999999999994,0.001732,-34.68,12.87,-28.870001000000002,3b
2019-07-12_142010:680,-0.250641,-0.027435,-0.423004,-0.009629,-0.0087,0.0019760000000000003,-34.68,12.87,-28.870001000000002,3b
2019-07-12_142010:700,-0.267426,-0.027435,-0.433167,-0.009934,-0.009585,0.0009390000000000001,-34.68,12.87,-28.559998999999998,3b
2019-07-12_142010:720,-0.274017,-0.025908999999999998,-0.435699,-0.009934,-0.008761,0.001335,-34.68,12.87,-28.559998999999998,3b
2019-07-12_142010:740,-0.272003,-0.024902,-0.435699,-0.009477,-0.005862,0.003167,-34.68,12.87,-28.559998999999998,3b
2019-07-12_142010:760,-0.262329,-0.024902,-0.429596,-0.009294,-0.0027489999999999997,0.004509,-34.0,12.5,-29.370001000000002,3b
2019-07-12_142010:780,-0.243011,-0.020844,-0.42248500000000005,-0.009599,-0.000582,0.006829000000000001,-34.0,12.5,-29.370001000000002,3b
2019-07-12_142010:800,-0.23895300000000003,-0.020844,-0.417908,-0.009812000000000001,0.000272,0.011071,-35.060001,12.87,-29.370001000000002,3b
2019-07-12_142010:820,-0.234375,-0.022858,-0.41232299999999994,-0.010728,0.000272,0.014244,-35.060001,12.87,-29.370001000000002,3b
2019-07-12_142010:840,-0.23284899999999997,-0.023895,-0.412811,-0.012528000000000001,-0.00036899999999999997,0.015404,-35.060001,12.87,-29.370001000000002,3b
2019-07-12_142010:860,-0.23284899999999997,-0.031006,-0.41586300000000004,-0.014146,-0.001376,0.016655,-34.68,12.06,-28.18,3b
2019-07-12_142010:880,-0.23486300000000002,-0.036591000000000005,-0.42147799999999996,-0.015244,-0.0025960000000000002,0.017052,-34.68,12.06,-28.18,3b
2019-07-12_142010:900,-0.240479,-0.046752999999999996,-0.42858900000000005,-0.015977,-0.003848,0.016106,-35.060001,12.87,-29.370001000000002,3b
2019-07-12_142010:920,-0.249115,-0.052338,-0.435699,-0.015519,-0.004855,0.014733000000000001,-35.060001,12.87,-29.370001000000002,3b
2019-07-12_142010:940,-0.25827,-0.057953,-0.44027700000000003,-0.013993,-0.004794,0.012657,-35.060001,12.87,-29.370001000000002,3b
2019-07-12_142010:960,-0.260803,-0.061005,-0.43774399999999997,-0.012345,-0.0036030000000000003,0.009423,-34.0,12.87,-29.68,3b
2019-07-12_142010:980,-0.255707,-0.060486,-0.43621800000000005,-0.009812000000000001,-0.001925,0.0054859999999999996,-34.0,12.87,-29.68,3b
2019-07-12_142011:000,-0.24758899999999998,-0.058441,-0.431641,-0.007279000000000001,-0.000521,0.0019149999999999998,-34.0,13.18,-29.370001000000002,3b
2019-07-12_142011:020,-0.23486300000000002,-0.051330999999999995,-0.42605600000000005,-0.004654999999999999,-0.000124,-0.000984,-34.0,13.18,-29.370001000000002,3b
2019-07-12_142011:040,-0.23284899999999997,-0.043213,-0.421967,-0.0026100000000000003,-0.00045999999999999996,-0.002845,-34.0,13.18,-29.370001000000002,3b
2019-07-12_142011:060,-0.23028600000000002,-0.032532,-0.420959,-0.001603,-0.0012230000000000001,-0.003181,-34.369999,13.56,-29.68,3b
2019-07-12_142011:080,-0.233337,-0.027435,-0.420959,-0.0012980000000000001,-0.001955,-0.003029,-34.369999,13.56,-29.68,3b
2019-07-12_142011:100,-0.23895300000000003,-0.019806,-0.42453,-0.002091,-0.002352,-0.00196,-33.560001,13.18,-30.559998999999998,3b
2019-07-12_142011:120,-0.24353000000000002,-0.019318000000000002,-0.42453,-0.0028239999999999997,-0.0018030000000000001,8.4e-05,-33.560001,13.18,-30.559998999999998,3b
2019-07-12_142011:140,-0.24758899999999998,-0.018799,-0.43011499999999997,-0.003953,-0.001101,0.0007559999999999999,-33.560001,13.18,-30.559998999999998,3b
2019-07-12_142011:160,-0.24758899999999998,-0.017792,-0.433167,-0.005784,-0.00045999999999999996,0.0014269999999999999,-35.060001,13.18,-29.370001000000002,3b
2019-07-12_142011:180,-0.248596,-0.019318000000000002,-0.432159,-0.0067,0.000364,0.004692,-35.060001,13.18,-29.370001000000002,3b
2019-07-12_142011:200,-0.248108,-0.023895,-0.433655,-0.007370999999999999,0.001005,0.007286,-33.560001,13.18,-29.68,3b
2019-07-12_142011:220,-0.251648,-0.025908999999999998,-0.430634,-0.008409,0.0015539999999999998,0.007622,-33.560001,13.18,-29.68,3b
2019-07-12_142011:240,-0.24963400000000002,-0.025908999999999998,-0.429108,-0.009415999999999999,0.002073,0.007958,-33.560001,13.18,-29.68,3b
2019-07-12_142011:260,-0.24353000000000002,-0.027954000000000003,-0.42401099999999997,-0.009873,0.002225,0.009026000000000001,-34.0,13.18,-28.559998999999998,3b
2019-07-12_142011:280,-0.243011,-0.029480000000000003,-0.421967,-0.010545,0.001737,0.009728,-34.0,13.18,-28.559998999999998,3b
2019-07-12_142011:300,-0.239441,-0.031006,-0.41995200000000005,-0.011003,0.001493,0.010613,-34.68,13.18,-28.870001000000002,3b
2019-07-12_142011:320,-0.23791500000000002,-0.034546,-0.415375,-0.011276999999999999,0.000944,0.011284,-34.68,13.18,-28.870001000000002,3b
2019-07-12_142011:340,-0.23791500000000002,-0.039642000000000004,-0.41842700000000005,-0.011216,0.000425,0.011193,-34.68,13.18,-28.870001000000002,3b
2019-07-12_142011:360,-0.23995999999999998,-0.040649,-0.41943400000000003,-0.011155,-0.000521,0.010459999999999999,-34.0,12.5,-28.559998999999998,3b
2019-07-12_142011:380,-0.23895300000000003,-0.044739,-0.423004,-0.010758,-0.001437,0.010551999999999999,-34.0,12.5,-28.559998999999998,3b
2019-07-12_142011:400,-0.242493,-0.047791,-0.42605600000000005,-0.010148,-0.002261,0.010154999999999999,-33.560001,14.0,-29.370001000000002,3b
2019-07-12_142011:420,-0.24963400000000002,-0.050323,-0.42807,-0.009477,-0.003207,0.008812,-33.560001,14.0,-29.370001000000002,3b
2019-07-12_142011:440,-0.253693,-0.051330999999999995,-0.42807,-0.008744,-0.003054,0.006706999999999999,-33.560001,14.0,-29.370001000000002,3b
2019-07-12_142011:460,-0.250641,-0.053375,-0.427063,-0.007554000000000001,-0.002016,0.004052,-33.560001,14.37,-29.370001000000002,3b
2019-07-12_142011:480,-0.24096700000000001,-0.052338,-0.425018,-0.006425,-0.001498,0.000634,-33.560001,14.37,-29.370001000000002,3b
2019-07-12_142011:500,-0.23590100000000003,-0.050323,-0.425537,-0.005448,-0.001925,-0.003242,-34.0,14.0,-30.059998999999998,3b
2019-07-12_142011:520,-0.23284899999999997,-0.047272,-0.42401099999999997,-0.003739,-0.002657,-0.0065379999999999995,-34.0,14.0,-30.059998999999998,3b
2019-07-12_142011:540,-0.23791500000000002,-0.040161,-0.425018,-0.00203,-0.0028710000000000003,-0.008094,-34.0,14.0,-30.059998999999998,3b
2019-07-12_142011:560,-0.23895300000000003,-0.034058,-0.425537,-0.000688,-0.002932,-0.008796,-34.68,14.0,-29.68,3b
2019-07-12_142011:580,-0.238434,-0.023895,-0.42807,0.000167,-0.002993,-0.008888,-34.68,14.0,-29.68,3b
2019-07-12_142011:600,-0.244019,-0.016753999999999998,-0.43011499999999997,-1.6e-05,-0.002932,-0.008217,-34.0,13.18,-29.68,3b
2019-07-12_142011:620,-0.249115,-0.011169,-0.430634,-0.00047400000000000003,-0.0027489999999999997,-0.006569,-34.0,13.18,-29.68,3b
2019-07-12_142011:640,-0.25521900000000003,-0.0030210000000000002,-0.435699,-0.001206,-0.002016,-0.003639,-34.0,13.18,-29.68,3b
2019-07-12_142011:660,-0.255707,-0.004059,-0.434174,-0.0026100000000000003,-0.000918,8.4e-05,-34.68,13.56,-28.870001000000002,3b
2019-07-12_142011:680,-0.253693,-0.004547,-0.431641,-0.004136,0.000364,0.003655,-34.68,13.56,-28.870001000000002,3b
2019-07-12_142011:700,-0.250641,-0.007599,-0.42858900000000005,-0.006028,0.000608,0.0075,-34.0,14.0,-29.68,3b
2019-07-12_142011:720,-0.245056,-0.017792,-0.425537,-0.007431999999999999,0.000883,0.009606,-34.0,14.0,-29.68,3b
2019-07-12_142011:740,-0.24453699999999998,-0.022858,-0.426544,-0.008836,0.0007610000000000001,0.008965,-34.0,14.0,-29.68,3b
2019-07-12_142011:760,-0.239441,-0.030487,-0.421967,-0.009294,0.000364,0.010001999999999999,-34.369999,13.56,-29.370001000000002,3b
2019-07-12_142011:780,-0.237427,-0.035065,-0.42248500000000005,-0.008744,0.00015,0.011864,-34.369999,13.56,-29.370001000000002,3b
2019-07-12_142011:800,-0.23995999999999998,-0.038116000000000004,-0.423492,-0.008286,-0.000704,0.011193,-33.560001,13.56,-30.18,3b
2019-07-12_142011:820,-0.24096700000000001,-0.039642000000000004,-0.42248500000000005,-0.007370999999999999,-0.001101,0.009728,-33.560001,13.56,-30.18,3b
2019-07-12_142011:840,-0.242004,-0.042175,-0.426544,-0.006761,-0.001376,0.008965,-33.560001,13.56,-30.18,3b
2019-07-12_142011:860,-0.243011,-0.042175,-0.42858900000000005,-0.006028,-0.001925,0.007286,-34.369999,13.56,-29.68,3b
2019-07-12_142011:880,-0.24758899999999998,-0.043701,-0.433167,-0.006028,-0.002352,0.005547,-34.369999,13.56,-29.68,3b
2019-07-12_142011:900,-0.254211,-0.043701,-0.43621800000000005,-0.005448,-0.0028710000000000003,0.00457,-33.18,14.0,-30.18,3b
2019-07-12_142011:920,-0.259796,-0.045226999999999996,-0.438751,-0.004594,-0.002535,0.004296,-33.18,14.0,-30.18,3b
2019-07-12_142011:940,-0.262848,-0.047272,-0.43823199999999995,-0.0038,-0.001559,0.00277,-33.18,14.0,-30.18,3b
2019-07-12_142011:960,-0.259277,-0.045226999999999996,-0.435699,-0.003007,-0.000246,0.001335,-34.0,13.18,-29.0,3b
2019-07-12_142011:980,-0.25216700000000003,-0.044219999999999995,-0.429596,-0.002152,0.000822,0.001,-34.0,13.18,-29.0,3b
2019-07-12_142012:000,-0.248596,-0.042175,-0.42605600000000005,-0.0012980000000000001,0.001493,0.000603,-33.560001,14.0,-30.18,3b
2019-07-12_142012:020,-0.245056,-0.039124,-0.423004,-0.00081,0.001615,-0.000129,-33.560001,14.0,-30.18,3b
2019-07-12_142012:040,-0.242493,-0.035065,-0.423004,-0.000688,0.00134,-0.0007700000000000001,-33.560001,14.0,-30.18,3b
2019-07-12_142012:060,-0.242493,-0.032532,-0.42147799999999996,-0.000962,0.0010960000000000002,-0.00132,-32.869999,15.06,-29.0,3b
2019-07-12_142012:080,-0.248108,-0.030487,-0.420959,-0.00203,0.000669,-0.001381,-32.869999,15.06,-29.0,3b
2019-07-12_142012:100,-0.251648,-0.031494,-0.423492,-0.003068,0.000547,-0.00043499999999999995,-34.68,14.68,-28.18,3b
2019-07-12_142012:120,-0.257751,-0.03302,-0.42401099999999997,-0.003922,0.000669,0.000267,-34.68,14.68,-28.18,3b
2019-07-12_142012:140,-0.261322,-0.034058,-0.426544,-0.00435,0.001066,0.000359,-34.68,14.68,-28.18,3b
2019-07-12_142012:160,-0.2659,-0.034058,-0.42605600000000005,-0.004411,0.001493,0.000542,-33.560001,15.06,-29.0,3b
2019-07-12_142012:180,-0.269958,-0.035065,-0.425537,-0.00435,0.002012,0.0017929999999999999,-33.560001,15.06,-29.0,3b
2019-07-12_142012:200,-0.270966,-0.035065,-0.423004,-0.004533,0.002348,0.002709,-34.369999,14.37,-28.870001000000002,3b
2019-07-12_142012:220,-0.270477,-0.035583,-0.420441,-0.004685,0.002927,0.003167,-34.369999,14.37,-28.870001000000002,3b
2019-07-12_142012:240,-0.263855,-0.036591000000000005,-0.416382,-0.004991,0.0029579999999999997,0.004174000000000001,-34.369999,14.37,-28.870001000000002,3b
2019-07-12_142012:260,-0.267426,-0.037598,-0.41384899999999997,-0.004991,0.002409,0.004692,-34.0,14.68,-28.870001000000002,3b
2019-07-12_142012:280,-0.263855,-0.039124,-0.40823400000000004,-0.005386999999999999,0.0017980000000000001,0.005699,-34.0,14.68,-28.870001000000002,3b
2019-07-12_142012:300,-0.259796,-0.040161,-0.40774499999999997,-0.005386999999999999,0.001493,0.006768000000000001,-34.68,14.37,-28.18,3b
2019-07-12_142012:320,-0.25317399999999995,-0.043701,-0.407227,-0.005601,0.0007610000000000001,0.005303,-34.68,14.37,-28.18,3b
2019-07-12_142012:340,-0.24658200000000002,-0.040649,-0.40774499999999997,-0.006181,-0.0009789999999999998,0.0035020000000000003,-34.68,14.37,-28.18,3b
2019-07-12_142012:360,-0.24658200000000002,-0.043213,-0.410797,-0.00615,-0.0027489999999999997,0.004631000000000001,-34.0,14.68,-28.18,3b
2019-07-12_142012:380,-0.25317399999999995,-0.045745999999999995,-0.41384899999999997,-0.005723,-0.004183,0.00515,-34.0,14.68,-28.18,3b
2019-07-12_142012:400,-0.259796,-0.046265,-0.418915,-0.005784,-0.005068,0.003319,-34.369999,14.68,-28.18,3b
2019-07-12_142012:420,-0.261322,-0.047791,-0.420959,-0.005143,-0.004794,0.002648,-34.369999,14.68,-28.18,3b
2019-07-12_142012:440,-0.262848,-0.048279,-0.425537,-0.004319,-0.0042439999999999995,0.002709,-34.369999,14.68,-28.18,3b
2019-07-12_142012:460,-0.263855,-0.048798,-0.42605600000000005,-0.003404,-0.003664,0.001549,-34.369999,15.87,-28.18,3b
2019-07-12_142012:480,-0.263855,-0.044739,-0.425537,-0.002427,-0.0028710000000000003,0.0007559999999999999,-34.369999,15.87,-28.18,3b
2019-07-12_142012:500,-0.264862,-0.042694,-0.427063,-0.001756,-0.0017420000000000003,0.001335,-34.369999,14.37,-28.870001000000002,3b
2019-07-12_142012:520,-0.267914,-0.040649,-0.425018,-0.001145,-0.001101,0.001152,-34.369999,14.37,-28.870001000000002,3b
2019-07-12_142012:540,-0.268951,-0.036591000000000005,-0.425537,-0.0014810000000000001,0.00015,0.0007559999999999999,-34.369999,14.37,-28.870001000000002,3b
2019-07-12_142012:560,-0.268433,-0.033539,-0.423492,-0.0018780000000000001,0.001218,0.0017629999999999998,-34.0,14.68,-27.370001000000002,3b
2019-07-12_142012:580,-0.268433,-0.033539,-0.41943400000000003,-0.002732,0.0017980000000000001,0.003105,-34.0,14.68,-27.370001000000002,3b
2019-07-12_142012:600,-0.264862,-0.031494,-0.417908,-0.004136,0.002744,0.003899,-34.68,15.5,-28.559998999999998,3b
2019-07-12_142012:620,-0.260803,-0.035065,-0.415375,-0.005723,0.002866,0.005638000000000001,-34.68,15.5,-28.559998999999998,3b
2019-07-12_142012:640,-0.253693,-0.040649,-0.41586300000000004,-0.006944,0.002744,0.007286,-34.68,15.5,-28.559998999999998,3b
2019-07-12_142012:660,-0.25012199999999996,-0.045226999999999996,-0.416901,-0.008348000000000001,0.0018899999999999998,0.008202,-34.0,15.06,-28.559998999999998,3b
2019-07-12_142012:680,-0.248596,-0.051330999999999995,-0.416901,-0.008683,0.000944,0.008568000000000001,-34.0,15.06,-28.559998999999998,3b
2019-07-12_142012:700,-0.251648,-0.055908000000000006,-0.418915,-0.0085,-0.000185,0.008355,-34.369999,14.68,-27.68,3b
2019-07-12_142012:720,-0.254211,-0.062012,-0.417908,-0.007615,-0.0009789999999999998,0.007347,-34.369999,14.68,-27.68,3b
2019-07-12_142012:740,-0.252686,-0.062012,-0.420441,-0.006089,-0.0012230000000000001,0.0066760000000000005,-34.369999,14.68,-27.68,3b
2019-07-12_142012:760,-0.256226,-0.06405599999999999,-0.420441,-0.004411,-0.001254,0.0054859999999999996,-34.0,15.5,-28.559998999999998,3b
2019-07-12_142012:780,-0.25012199999999996,-0.061005,-0.420959,-0.003129,-0.0010400000000000001,0.0033799999999999998,-34.0,15.5,-28.559998999999998,3b
2019-07-12_142012:800,-0.25116,-0.058441,-0.423492,-0.002091,-0.001254,0.0021899999999999997,-34.68,15.87,-28.559998999999998,3b
2019-07-12_142012:820,-0.249115,-0.060486,-0.42248500000000005,-0.000962,-0.0016809999999999998,0.00161,-34.68,15.87,-28.559998999999998,3b
2019-07-12_142012:840,-0.25317399999999995,-0.05996699999999999,-0.42147799999999996,4.5e-05,-0.002016,-9.9e-05,-34.68,15.87,-28.559998999999998,3b
2019-07-12_142012:860,-0.259277,-0.057953,-0.420441,0.001052,-0.002718,-0.000892,-34.369999,16.18,-28.18,3b
2019-07-12_142012:880,-0.257233,-0.058960000000000005,-0.41842700000000005,0.002303,-0.002078,-0.001503,-34.369999,16.18,-28.18,3b
2019-07-12_142012:900,-0.2547,-0.053375,-0.420441,0.003097,-0.001925,-0.005012,-34.68,15.87,-27.68,3b
2019-07-12_142012:920,-0.245056,-0.041168,-0.41842700000000005,0.003097,-0.002657,-0.0055,-34.68,15.87,-27.68,3b
2019-07-12_142012:940,-0.255707,-0.039124,-0.420959,0.002761,-0.0034509999999999996,-0.001259,-34.68,15.87,-27.68,3b
2019-07-12_142012:960,-0.258759,-0.040649,-0.420959,0.0007160000000000001,-0.003207,0.001732,-34.68,16.18,-27.68,3b
2019-07-12_142012:980,-0.263336,-0.043701,-0.420959,-0.002427,-0.002657,0.002373,-34.68,16.18,-27.68,3b
2019-07-12_142013:000,-0.255707,-0.05285599999999999,-0.41842700000000005,-0.004685,-0.0016809999999999998,0.003167,-34.68,16.18,-28.559998999999998,3b
2019-07-12_142013:020,-0.254211,-0.05996699999999999,-0.418915,-0.006028,-0.001376,0.0034409999999999996,-34.68,16.18,-28.559998999999998,3b
2019-07-12_142013:040,-0.251648,-0.069641,-0.423004,-0.006486,-0.001376,0.0028309999999999997,-34.68,16.18,-28.559998999999998,3b
2019-07-12_142013:060,-0.25216700000000003,-0.075745,-0.425018,-0.0056619999999999995,-0.0018030000000000001,0.002709,-34.369999,15.87,-27.68,3b
2019-07-12_142013:080,-0.258759,-0.079803,-0.426544,-0.003953,-0.0016809999999999998,0.002434,-34.369999,15.87,-27.68,3b
2019-07-12_142013:100,-0.260803,-0.08081100000000001,-0.427063,-0.00203,-0.000857,0.001091,-34.0,16.18,-29.0,3b
2019-07-12_142013:120,-0.25827,-0.078796,-0.426544,-0.000138,0.000364,-0.000312,-34.0,16.18,-29.0,3b
2019-07-12_142013:140,-0.258759,-0.076263,-0.432159,0.0020280000000000003,0.001218,-0.000831,-34.0,16.18,-29.0,3b
2019-07-12_142013:160,-0.261322,-0.071686,-0.431641,0.0033710000000000003,0.002744,-0.001716,-34.369999,16.18,-28.18,3b
2019-07-12_142013:180,-0.25827,-0.065582,-0.429108,0.003493,0.004057,-0.0033640000000000002,-34.369999,16.18,-28.18,3b
2019-07-12_142013:200,-0.262329,-0.065063,-0.43011499999999997,0.002425,0.005521,-0.003303,-34.68,15.87,-27.0,3b
2019-07-12_142013:220,-0.263336,-0.066589,-0.425537,0.001296,0.0072,-0.002754,-34.68,15.87,-27.0,3b
2019-07-12_142013:240,-0.263336,-0.072174,-0.42147799999999996,-7.7e-05,0.008634000000000001,-0.003303,-34.68,15.87,-27.0,3b
2019-07-12_142013:260,-0.263855,-0.073212,-0.420959,-0.000901,0.00897,-0.0051649999999999995,-34.0,17.0,-27.0,3b
2019-07-12_142013:280,-0.272491,-0.073212,-0.416382,-0.001023,0.008665,-0.006751999999999999,-34.0,17.0,-27.0,3b
2019-07-12_142013:300,-0.276062,-0.068634,-0.414337,-0.000901,0.008848,-0.007148000000000001,-35.5,15.87,-27.0,3b
2019-07-12_142013:320,-0.276581,-0.065582,-0.409271,-0.001267,0.009396999999999999,-0.005806,-35.5,15.87,-27.0,3b
2019-07-12_142013:340,-0.267426,-0.065063,-0.406219,-0.001542,0.010099,-0.004158,-35.5,15.87,-27.0,3b
2019-07-12_142013:360,-0.256744,-0.06405599999999999,-0.404175,-0.00203,0.009701999999999999,-0.004707,-34.369999,15.87,-27.0,3b
2019-07-12_142013:380,-0.272003,-0.064545,-0.404175,-0.002275,0.0073219999999999995,-0.0056229999999999995,-34.369999,15.87,-27.0,3b
2019-07-12_142013:400,-0.275543,-0.064545,-0.402161,-0.002549,0.005857,-0.005684000000000001,-36.18,15.87,-25.370001000000002,3b
2019-07-12_142013:420,-0.28674299999999997,-0.068115,-0.39859,-0.003007,0.005521,-0.0043100000000000005,-36.18,15.87,-25.370001000000002,3b
2019-07-12_142013:440,-0.29486100000000004,-0.072693,-0.401123,-0.003068,0.006071,-0.003761,-36.18,15.87,-25.370001000000002,3b
2019-07-12_142013:460,-0.28775,-0.0737,-0.39859,-0.0035259999999999996,0.007444,-0.007209,-37.0,15.87,-25.370001000000002,3b
2019-07-12_142013:480,-0.293335,-0.073212,-0.399109,-0.0036780000000000003,0.008054,-0.0102,-37.0,15.87,-25.370001000000002,3b
2019-07-12_142013:500,-0.296387,-0.071686,-0.398071,-0.0029460000000000003,0.008237000000000001,-0.010597,-36.560001,15.06,-25.75,3b
2019-07-12_142013:520,-0.29995700000000003,-0.071167,-0.394531,-0.002152,0.008848,-0.011512,-36.560001,15.06,-25.75,3b
2019-07-12_142013:540,-0.304535,-0.068115,-0.391968,-0.001756,0.009367,-0.012916,-36.560001,15.06,-25.75,3b
2019-07-12_142013:560,-0.308075,-0.064545,-0.385376,-0.001023,0.010251999999999999,-0.013252000000000002,-37.0,15.06,-24.18,3b
2019-07-12_142013:580,-0.29995700000000003,-0.066589,-0.382324,4.5e-05,0.010251999999999999,-0.013374,-37.0,15.06,-24.18,3b
2019-07-12_142013:600,-0.29895,-0.061005,-0.382324,0.001174,0.009245,-0.01432,-37.68,15.18,-24.559998999999998,3b
2019-07-12_142013:620,-0.30249000000000004,-0.057953,-0.374695,0.0021809999999999998,0.007444,-0.014717,-37.68,15.18,-24.559998999999998,3b
2019-07-12_142013:640,-0.304016,-0.054901,-0.373688,0.003493,0.006071,-0.014259,-37.68,15.18,-24.559998999999998,3b
2019-07-12_142013:660,-0.288269,-0.051330999999999995,-0.369598,0.004439,0.005125,-0.013527,-38.5,14.06,-24.18,3b
2019-07-12_142013:680,-0.284698,-0.044739,-0.367584,0.005294,0.0030800000000000003,-0.012794,-38.5,14.06,-24.18,3b
2019-07-12_142013:700,-0.28979499999999997,-0.036591000000000005,-0.37112399999999995,0.004836,0.000669,-0.010749,-38.060001,14.5,-24.18,3b
2019-07-12_142013:720,-0.282166,-0.034058,-0.373688,0.00328,-0.0011619999999999998,-0.0073620000000000005,-38.060001,14.5,-24.18,3b
2019-07-12_142013:740,-0.28979499999999997,-0.031494,-0.375702,0.000319,-0.004183,-0.003029,-38.060001,14.5,-24.18,3b
2019-07-12_142013:760,-0.297913,-0.033539,-0.381805,-0.003221,-0.0057399999999999994,0.0017629999999999998,-38.5,13.68,-23.75,3b
2019-07-12_142013:780,-0.30654899999999996,-0.040649,-0.384857,-0.007156999999999999,-0.006379999999999999,0.004021,-38.5,13.68,-23.75,3b
2019-07-12_142013:800,-0.308075,-0.045226999999999996,-0.391968,-0.010879999999999999,-0.006503,0.002709,-39.5,13.56,-23.370001000000002,3b
2019-07-12_142013:820,-0.309601,-0.05438200000000001,-0.390961,-0.01381,-0.005526,0.001091,-39.5,13.56,-23.370001000000002,3b
2019-07-12_142013:840,-0.311127,-0.06253099999999999,-0.398071,-0.015183000000000002,-0.004915999999999999,-0.000496,-39.5,13.56,-23.370001000000002,3b
2019-07-12_142013:860,-0.303528,-0.068634,-0.402649,-0.014665000000000001,-0.00339,-0.001838,-38.869999,13.68,-23.370001000000002,3b
2019-07-12_142013:880,-0.305054,-0.068115,-0.399597,-0.012284,-0.002139,-0.003303,-38.869999,13.68,-23.370001000000002,3b
2019-07-12_142013:900,-0.30300900000000003,-0.05996699999999999,-0.40011599999999997,-0.009599,-0.000643,-0.00489,-38.5,13.68,-24.559998999999998,3b
2019-07-12_142013:920,-0.306061,-0.053863999999999995,-0.399597,-0.006761,0.00021099999999999998,-0.005745,-38.5,13.68,-24.559998999999998,3b
2019-07-12_142013:940,-0.305542,-0.046265,-0.39859,-0.004746,0.001615,-0.004677000000000001,-38.5,13.68,-24.559998999999998,3b
2019-07-12_142013:960,-0.307068,-0.039642000000000004,-0.397064,-0.0036780000000000003,0.002561,-0.002357,-38.869999,13.25,-24.18,3b
2019-07-12_142013:980,-0.314178,-0.037108999999999996,-0.397583,-0.004197,0.003812,0.001,-38.869999,13.25,-24.18,3b
2019-07-12_142014:000,-0.319275,-0.038635,-0.40063499999999996,-0.00554,0.006376,0.004753,-38.5,13.0,-23.75,3b
2019-07-12_142014:020,-0.319794,-0.040649,-0.399597,-0.0065769999999999995,0.007139,0.004845,-38.5,13.0,-23.75,3b
2019-07-12_142014:040,-0.320801,-0.042175,-0.396545,-0.010148,0.009122,0.0063100000000000005,-38.5,13.0,-23.75,3b
2019-07-12_142014:060,-0.322327,-0.05285599999999999,-0.394012,-0.010819,0.009916,0.007225,-39.18,13.25,-23.370001000000002,3b
2019-07-12_142014:080,-0.331482,-0.060486,-0.391968,-0.012254000000000001,0.012052,0.006768000000000001,-39.18,13.25,-23.370001000000002,3b
2019-07-12_142014:100,-0.327423,-0.065063,-0.386383,-0.011337999999999999,0.014158,0.004692,-39.869999,13.68,-23.75,3b
2019-07-12_142014:120,-0.330475,-0.056915,-0.383331,-0.009599,0.016294,0.003319,-39.869999,13.68,-23.75,3b
2019-07-12_142014:140,-0.33605999999999997,-0.054901,-0.384338,-0.008897,0.018734999999999998,0.0007559999999999999,-39.869999,13.68,-23.75,3b
2019-07-12_142014:160,-0.328949,-0.049316000000000006,-0.380798,-0.008409,0.021116,-0.000648,-39.18,13.68,-21.870001000000002,3b
2019-07-12_142014:180,-0.315216,-0.041168,-0.37316900000000003,-0.007431999999999999,0.02252,0.00103,-39.18,13.68,-21.870001000000002,3b
2019-07-12_142014:200,-0.315216,-0.044739,-0.36706500000000003,-0.007431999999999999,0.022459,0.0014880000000000002,-39.869999,13.0,-21.75,3b
2019-07-12_142014:220,-0.312653,-0.042175,-0.35943600000000003,-0.0074930000000000005,0.021116,2.3e-05,-39.869999,13.0,-21.75,3b
2019-07-12_142014:240,-0.314697,-0.042694,-0.358917,-0.0076760000000000005,0.019651,2.3e-05,-39.869999,13.0,-21.75,3b
2019-07-12_142014:260,-0.320282,-0.043701,-0.355896,-0.006883,0.017606,0.000542,-41.0,13.0,-21.5,3b
2019-07-12_142014:280,-0.325897,-0.046752999999999996,-0.353851,-0.006547,0.016019,-0.00043499999999999995,-41.0,13.0,-21.5,3b
2019-07-12_142014:300,-0.330963,-0.045745999999999995,-0.3508,-0.005448,0.014707,-0.001106,-40.68,13.25,-20.25,3b
2019-07-12_142014:320,-0.338593,-0.044219999999999995,-0.348267,-0.004594,0.013822,-0.001106,-40.68,13.25,-20.25,3b
2019-07-12_142014:340,-0.3396,-0.041168,-0.34674099999999997,-0.004411,0.013090000000000001,-0.001442,-40.68,13.25,-20.25,3b
2019-07-12_142014:360,-0.337067,-0.037598,-0.341644,-0.004472,0.011686,-0.001564,-41.0,13.0,-17.870001000000002,3b
2019-07-12_142014:380,-0.34265100000000004,-0.036591000000000005,-0.34317,-0.005052,0.010159999999999999,-0.000831,-41.0,13.0,-17.870001000000002,3b
2019-07-12_142014:400,-0.348267,-0.037108999999999996,-0.341644,-0.005845,0.008573,-0.001045,-42.18,13.0,-19.5,3b
2019-07-12_142014:420,-0.344696,-0.037598,-0.335541,-0.006364,0.008054,-0.000984,-42.18,13.0,-19.5,3b
2019-07-12_142014:440,-0.34317,-0.037108999999999996,-0.33758499999999997,-0.006425,0.006864,-0.000923,-42.18,13.0,-19.5,3b
2019-07-12_142014:460,-0.342163,-0.038116000000000004,-0.33758499999999997,-0.006028,0.005857,-0.000831,-41.75,13.0,-18.68,3b
2019-07-12_142014:480,-0.33758499999999997,-0.039124,-0.338074,-0.0056619999999999995,0.004453,-0.001106,-41.75,13.0,-18.68,3b
2019-07-12_142014:500,-0.355896,-0.038635,-0.34265100000000004,-0.004991,0.0032020000000000004,-0.001655,-42.18,12.56,-17.870001000000002,3b
2019-07-12_142014:520,-0.35791,-0.036591000000000005,-0.341644,-0.0049299999999999995,0.003751,-0.000251,-42.18,12.56,-17.870001000000002,3b
2019-07-12_142014:540,-0.36349499999999996,-0.036591000000000005,-0.342163,-0.00435,0.004942,0.001091,-42.18,12.56,-17.870001000000002,3b
2019-07-12_142014:560,-0.36554000000000003,-0.041168,-0.348267,-0.004411,0.006193,2.3e-05,-41.369999,12.18,-17.059998999999998,3b
2019-07-12_142014:580,-0.352844,-0.035065,-0.345215,-0.003953,0.007139,-0.001716,-41.369999,12.18,-17.059998999999998,3b
2019-07-12_142014:600,-0.353851,-0.034058,-0.347748,-0.0035259999999999996,0.0073219999999999995,-0.000892,-42.18,12.18,-18.68,3b
2019-07-12_142014:620,-0.35791,-0.030487,-0.345215,-0.003343,0.007536,0.000145,-42.18,12.18,-18.68,3b
2019-07-12_142014:640,-0.35943600000000003,-0.028442000000000002,-0.34063699999999997,-0.004136,0.008268000000000001,0.000481,-42.18,12.18,-18.68,3b
2019-07-12_142014:660,-0.35943600000000003,-0.026917,-0.33758499999999997,-0.005143,0.008726000000000001,0.001396,-42.18,12.18,-17.059998999999998,3b
2019-07-12_142014:680,-0.353851,-0.028442000000000002,-0.33605999999999997,-0.006242,0.008634000000000001,0.00277,-42.18,12.18,-17.059998999999998,3b
2019-07-12_142014:700,-0.359955,-0.031494,-0.340118,-0.0072180000000000005,0.007871,0.003228,-42.869999,12.18,-17.059998999999998,3b
2019-07-12_142014:720,-0.359955,-0.030487,-0.33758499999999997,-0.0076760000000000005,0.007719,0.00396,-42.869999,12.18,-17.059998999999998,3b
2019-07-12_142014:740,-0.364532,-0.034546,-0.335022,-0.0077069999999999994,0.008176000000000001,0.003899,-42.869999,12.18,-17.059998999999998,3b
2019-07-12_142014:760,-0.358917,-0.035065,-0.334534,-0.0077069999999999994,0.008787,0.003167,-41.75,12.18,-16.68,3b
2019-07-12_142014:780,-0.376221,-0.036072,-0.33197,-0.007431999999999999,0.009641,0.0037159999999999997,-41.75,12.18,-16.68,3b
2019-07-12_142014:800,-0.37265,-0.038635,-0.341125,-0.0072180000000000005,0.012631999999999999,0.005028,-42.5,12.18,-15.37,3b
2019-07-12_142014:820,-0.371643,-0.050323,-0.32486,-0.0072180000000000005,0.010709,0.005638000000000001,-42.5,12.18,-15.37,3b
2019-07-12_142014:840,-0.367584,-0.039642000000000004,-0.334534,-0.005906000000000001,0.011106,0.006431999999999999,-42.5,12.18,-15.37,3b
2019-07-12_142014:860,-0.37011700000000003,-0.038635,-0.32486,-0.006028,0.011686,0.005638000000000001,-41.75,12.18,-15.75,3b
2019-07-12_142014:880,-0.376221,-0.037598,-0.322845,-0.006242,0.011777,0.004692,-41.75,12.18,-15.75,3b
2019-07-12_142014:900,-0.371643,-0.040649,-0.317749,-0.006181,0.012022,0.005638000000000001,-42.5,11.75,-14.56,3b
2019-07-12_142014:920,-0.37316900000000003,-0.044219999999999995,-0.314178,-0.005601,0.011961,0.006035,-42.5,11.75,-14.56,3b
2019-07-12_142014:940,-0.373688,-0.044739,-0.313171,-0.005601,0.011289,0.004784,-42.5,11.75,-14.56,3b
2019-07-12_142014:960,-0.377747,-0.043701,-0.309601,-0.005265,0.010587000000000001,0.00396,-43.25,13.0,-14.56,3b
2019-07-12_142014:980,-0.381805,-0.043213,-0.303528,-0.004991,0.010313,0.0037770000000000004,-43.25,13.0,-14.56,3b
2019-07-12_142015:000,-0.377228,-0.043213,-0.29995700000000003,-0.005082,0.010251999999999999,0.004296,-43.25,12.18,-14.18,3b
2019-07-12_142015:020,-0.376221,-0.044219999999999995,-0.298431,-0.005386999999999999,0.008848,0.00515,-43.25,12.18,-14.18,3b
2019-07-12_142015:040,-0.38385,-0.048798,-0.297913,-0.005052,0.006925,0.005364,-43.25,12.18,-14.18,3b
2019-07-12_142015:060,-0.38385,-0.048279,-0.296387,-0.00554,0.0057350000000000005,0.005547,-43.68,13.0,-15.0,3b
2019-07-12_142015:080,-0.395538,-0.053375,-0.291321,-0.005386999999999999,0.005399,0.007073,-43.68,13.0,-15.0,3b
2019-07-12_142015:100,-0.40570100000000003,-0.057953,-0.28979499999999997,-0.005204,0.005918,0.006554000000000001,-43.68,13.0,-12.18,3b
2019-07-12_142015:120,-0.397583,-0.056427,-0.287231,-0.005386999999999999,0.006254,0.004021,-43.68,13.0,-12.18,3b
2019-07-12_142015:140,-0.398071,-0.055389,-0.282654,-0.005386999999999999,0.0057350000000000005,0.003258,-43.68,13.0,-12.18,3b
2019-07-12_142015:160,-0.405212,-0.05996699999999999,-0.276581,-0.005052,0.005186,0.004113,-43.68,13.0,-14.25,3b
2019-07-12_142015:180,-0.40368699999999996,-0.05996699999999999,-0.269958,-0.004533,0.005582,0.003655,-43.68,13.0,-14.25,3b
2019-07-12_142015:200,-0.404694,-0.057434000000000006,-0.265381,-0.004472,0.005399,0.002495,-43.68,13.0,-13.0,3b
2019-07-12_142015:220,-0.394012,-0.053863999999999995,-0.263336,-0.004594,0.004942,0.003167,-43.68,13.0,-13.0,3b
2019-07-12_142015:240,-0.381805,-0.050842,-0.262329,-0.005265,0.002744,0.004967,-43.68,13.0,-13.0,3b
2019-07-12_142015:260,-0.379791,-0.045745999999999995,-0.267426,-0.006822,-0.0010400000000000001,0.005761,-42.869999,13.25,-13.75,3b
2019-07-12_142015:280,-0.36911,-0.045745999999999995,-0.264374,-0.008897,-0.004672,0.007073,-42.869999,13.25,-13.75,3b
2019-07-12_142015:300,-0.371643,-0.046752999999999996,-0.263855,-0.010819,-0.009370999999999999,0.007836,-43.18,13.68,-15.0,3b
2019-07-12_142015:320,-0.379791,-0.050842,-0.272491,-0.012742,-0.013705000000000002,0.007897,-43.18,13.68,-15.0,3b
2019-07-12_142015:340,-0.385864,-0.05438200000000001,-0.275055,-0.01378,-0.01636,0.007897,-43.18,13.68,-15.0,3b
2019-07-12_142015:360,-0.380798,-0.056915,-0.279114,-0.014268000000000001,-0.018649000000000002,0.007103,-42.369999,13.68,-13.75,3b
2019-07-12_142015:380,-0.386383,-0.056915,-0.282654,-0.014115,-0.019991,0.0064930000000000005,-42.369999,13.68,-13.75,3b
2019-07-12_142015:400,-0.379272,-0.057953,-0.28875700000000004,-0.013078,-0.021243,0.006615,-43.560001,14.06,-13.75,3b
2019-07-12_142015:420,-0.37112399999999995,-0.057953,-0.295898,-0.011734999999999999,-0.022585,0.005913,-43.560001,14.06,-13.75,3b
2019-07-12_142015:440,-0.373688,-0.054901,-0.311646,-0.010819,-0.023653,0.005181,-43.560001,14.06,-13.75,3b
2019-07-12_142015:460,-0.37674,-0.055908000000000006,-0.323334,-0.009965,-0.024172,0.005974,-43.18,14.75,-15.37,3b
2019-07-12_142015:480,-0.391479,-0.057953,-0.334534,-0.009965,-0.023989,0.0064930000000000005,-43.18,14.75,-15.37,3b
2019-07-12_142015:500,-0.399109,-0.058960000000000005,-0.338593,-0.010209000000000001,-0.021731,0.004296,-42.060001,14.06,-15.75,3b
2019-07-12_142015:520,-0.404175,-0.056427,-0.34265100000000004,-0.009965,-0.017214,0.000634,-42.060001,14.06,-15.75,3b
2019-07-12_142015:540,-0.401123,-0.053375,-0.340118,-0.009477,-0.011446,-0.003578,-42.060001,14.06,-15.75,3b
2019-07-12_142015:560,-0.397064,-0.052338,-0.339111,-0.008622,-0.006319,-0.004951,-42.369999,15.18,-17.0,3b
2019-07-12_142015:580,-0.387909,-0.047272,-0.331482,-0.0065769999999999995,-0.0028710000000000003,-0.002052,-42.369999,15.18,-17.0,3b
2019-07-12_142015:600,-0.383331,-0.048798,-0.331482,-0.004685,-0.0009789999999999998,0.001213,-41.25,14.37,-16.559998999999998,3b
2019-07-12_142015:620,-0.366058,-0.049805,-0.32486,-0.002671,-0.000826,0.0033799999999999998,-41.25,14.37,-16.559998999999998,3b
2019-07-12_142015:640,-0.370636,-0.050323,-0.32843,-0.001145,-0.001254,0.004509,-41.25,14.37,-16.559998999999998,3b
2019-07-12_142015:660,-0.358429,-0.044739,-0.32132,-0.000749,-0.001864,0.006157,-41.68,14.0,-17.75,3b
2019-07-12_142015:680,-0.352325,-0.045745999999999995,-0.32132,-0.0018780000000000001,-0.004061,0.009331,-41.68,14.0,-17.75,3b
2019-07-12_142015:700,-0.363007,-0.049805,-0.329437,-0.0035259999999999996,-0.0059229999999999994,0.01162,-41.25,14.75,-16.559998999999998,3b
2019-07-12_142015:720,-0.358429,-0.05438200000000001,-0.323334,-0.005723,-0.007662,0.011009999999999999,-41.25,14.75,-16.559998999999998,3b
2019-07-12_142015:740,-0.364014,-0.061005,-0.330475,-0.007431999999999999,-0.008912999999999999,0.008202,-41.25,14.75,-16.559998999999998,3b
2019-07-12_142015:760,-0.359955,-0.063538,-0.329437,-0.00847,-0.009890000000000001,0.0038380000000000003,-41.25,14.5,-17.0,3b
2019-07-12_142015:780,-0.348267,-0.066589,-0.324371,-0.00908,-0.011019,-0.00018999999999999998,-41.25,14.5,-17.0,3b
2019-07-12_142015:800,-0.34570300000000004,-0.067108,-0.327911,-0.008897,-0.012240000000000001,-0.0022960000000000003,-41.25,14.5,-16.18,3b
2019-07-12_142015:820,-0.34265100000000004,-0.067108,-0.329437,-0.0076760000000000005,-0.013552000000000002,-0.004097,-41.25,14.5,-16.18,3b
2019-07-12_142015:840,-0.342163,-0.069122,-0.329437,-0.005967,-0.015291999999999998,-0.007209,-41.25,14.5,-16.18,3b
2019-07-12_142015:860,-0.347229,-0.059479,-0.339111,-0.004014,-0.016878999999999998,-0.010322,-41.68,15.18,-17.75,3b
2019-07-12_142015:880,-0.347748,-0.056427,-0.340118,-0.002152,-0.017855000000000003,-0.011665,-41.68,15.18,-17.75,3b
2019-07-12_142015:900,-0.359955,-0.048279,-0.35131799999999996,-0.0014810000000000001,-0.017153,-0.011940000000000001,-41.68,14.37,-17.75,3b
2019-07-12_142015:920,-0.361481,-0.042175,-0.356903,-0.001359,-0.015536000000000001,-0.010536,-41.68,14.37,-17.75,3b
2019-07-12_142015:940,-0.370636,-0.041687,-0.361481,-0.0014199999999999998,-0.013216,-0.008064,-41.68,14.37,-17.75,3b
2019-07-12_142015:960,-0.36911,-0.043213,-0.360962,-0.001542,-0.0105,-0.007209,-42.060001,13.18,-19.75,3b
2019-07-12_142015:980,-0.365021,-0.042175,-0.355377,-0.001603,-0.007967,-0.006691,-42.060001,13.18,-19.75,3b
2019-07-12_142016:000,-0.358429,-0.042694,-0.353333,-0.0014199999999999998,-0.006197,-0.005409000000000001,-40.18,13.0,-18.559998999999998,3b
2019-07-12_142016:020,-0.35436999999999996,-0.045226999999999996,-0.34317,-0.0014199999999999998,-0.005465,-0.004219,-40.18,13.0,-18.559998999999998,3b
2019-07-12_142016:040,-0.355377,-0.047791,-0.341125,-0.001145,-0.00461,-0.003578,-40.18,13.0,-18.559998999999998,3b
2019-07-12_142016:060,-0.352844,-0.047272,-0.3396,-0.000566,-0.004061,-0.003029,-41.68,13.18,-19.75,3b
2019-07-12_142016:080,-0.348267,-0.048279,-0.339111,-0.000138,-0.004183,-0.00251,-41.68,13.18,-19.75,3b
2019-07-12_142016:100,-0.347229,-0.045745999999999995,-0.340118,0.000167,-0.004855,-0.002113,-40.869999,13.0,-19.0,3b
2019-07-12_142016:120,-0.34875500000000004,-0.042175,-0.337067,-0.000352,-0.005251,-0.001167,-40.869999,13.0,-19.0,3b
2019-07-12_142016:140,-0.34875500000000004,-0.041168,-0.340118,-0.000962,-0.0059229999999999994,0.001274,-40.869999,13.0,-19.0,3b
2019-07-12_142016:160,-0.34875500000000004,-0.044219999999999995,-0.34368899999999997,-0.002091,-0.006045,0.0017629999999999998,-40.18,13.56,-19.370001000000002,3b
2019-07-12_142016:180,-0.35638400000000003,-0.043213,-0.34570300000000004,-0.0034649999999999998,-0.006136,-3.8e-05,-40.18,13.56,-19.370001000000002,3b
2019-07-12_142016:200,-0.349792,-0.042175,-0.349274,-0.004533,-0.005862,8.4e-05,-41.25,12.5,-20.18,3b
2019-07-12_142016:220,-0.352325,-0.045226999999999996,-0.3508,-0.004869,-0.006197,0.001854,-41.25,12.5,-20.18,3b
2019-07-12_142016:240,-0.353851,-0.050842,-0.3508,-0.005204,-0.005372999999999999,0.002434,-41.25,12.5,-20.18,3b
2019-07-12_142016:260,-0.355896,-0.051849,-0.349792,-0.005204,-0.004672,0.0023120000000000003,-41.25,13.56,-19.370001000000002,3b
2019-07-12_142016:280,-0.346222,-0.053375,-0.350281,-0.0049299999999999995,-0.003725,0.002983,-41.25,13.56,-19.370001000000002,3b
2019-07-12_142016:300,-0.34317,-0.053863999999999995,-0.349274,-0.004197,-0.004122,0.002709,-40.18,13.18,-19.75,3b
2019-07-12_142016:320,-0.342163,-0.051849,-0.349792,-0.003739,-0.004275,0.002037,-40.18,13.18,-19.75,3b
2019-07-12_142016:340,-0.34265100000000004,-0.050323,-0.349274,-0.003556,-0.004794,0.002983,-40.18,13.18,-19.75,3b
2019-07-12_142016:360,-0.34265100000000004,-0.049316000000000006,-0.349274,-0.003922,-0.004733,0.004296,-41.25,12.87,-19.370001000000002,3b
2019-07-12_142016:380,-0.3396,-0.049316000000000006,-0.350281,-0.004411,-0.004733,0.0037770000000000004,-41.25,12.87,-19.370001000000002,3b
2019-07-12_142016:400,-0.33758499999999997,-0.049805,-0.35436999999999996,-0.005052,-0.005526,0.003655,-41.25,13.18,-19.370001000000002,3b
2019-07-12_142016:420,-0.339111,-0.05285599999999999,-0.355896,-0.005265,-0.0057399999999999994,0.004753,-41.25,13.18,-19.370001000000002,3b
2019-07-12_142016:440,-0.341125,-0.053863999999999995,-0.35739099999999996,-0.005326,-0.006106,0.004357,-41.25,13.18,-19.370001000000002,3b
2019-07-12_142016:460,-0.345215,-0.05438200000000001,-0.35791,-0.0056619999999999995,-0.005312,0.004021,-39.75,13.56,-20.18,3b
2019-07-12_142016:480,-0.344696,-0.056427,-0.35739099999999996,-0.00554,-0.004855,0.004418,-39.75,13.56,-20.18,3b
2019-07-12_142016:500,-0.34570300000000004,-0.055908000000000006,-0.358917,-0.0056619999999999995,-0.004122,0.004631000000000001,-40.560001,14.37,-20.18,3b
2019-07-12_142016:520,-0.341125,-0.055908000000000006,-0.35739099999999996,-0.005784,-0.0036030000000000003,0.004418,-40.560001,14.37,-20.18,3b
2019-07-12_142016:540,-0.339111,-0.056427,-0.35638400000000003,-0.005784,-0.00339,0.004418,-40.560001,14.37,-20.18,3b
2019-07-12_142016:560,-0.335022,-0.056427,-0.355896,-0.005906000000000001,-0.003268,0.004448,-40.560001,13.56,-21.0,3b
2019-07-12_142016:580,-0.334015,-0.056915,-0.353851,-0.006181,-0.003542,0.004052,-40.560001,13.56,-21.0,3b
2019-07-12_142016:600,-0.335541,-0.056427,-0.356903,-0.006181,-0.0037869999999999996,0.004021,-40.560001,13.18,-19.370001000000002,3b
2019-07-12_142016:620,-0.339111,-0.057434000000000006,-0.35739099999999996,-0.00615,-0.004397,0.0037770000000000004,-40.560001,13.18,-19.370001000000002,3b
2019-07-12_142016:640,-0.336548,-0.056427,-0.355377,-0.006547,-0.003848,0.004235,-40.560001,13.18,-19.370001000000002,3b
2019-07-12_142016:660,-0.33605999999999997,-0.055908000000000006,-0.35739099999999996,-0.0065769999999999995,-0.003939,0.00457,-39.75,13.56,-21.0,3b
2019-07-12_142016:680,-0.337067,-0.058960000000000005,-0.358429,-0.006944,-0.0036030000000000003,0.0035020000000000003,-39.75,13.56,-21.0,3b
2019-07-12_142016:700,-0.334015,-0.057434000000000006,-0.35943600000000003,-0.007156999999999999,-0.003481,0.002526,-40.18,13.56,-20.18,3b
2019-07-12_142016:720,-0.332489,-0.056427,-0.361969,-0.006883,-0.003939,0.003258,-40.18,13.56,-20.18,3b
2019-07-12_142016:740,-0.335022,-0.056915,-0.361481,-0.006547,-0.003878,0.0038380000000000003,-40.18,13.56,-20.18,3b
2019-07-12_142016:760,-0.335541,-0.055908000000000006,-0.359955,-0.006486,-0.0037869999999999996,0.003563,-40.18,13.56,-21.0,3b
2019-07-12_142016:780,-0.331482,-0.053863999999999995,-0.359955,-0.006822,-0.003207,0.002983,-40.18,13.56,-21.0,3b
2019-07-12_142016:800,-0.331482,-0.053863999999999995,-0.361481,-0.006822,-0.003268,0.003228,-40.18,13.56,-20.18,3b
2019-07-12_142016:820,-0.33197,-0.053863999999999995,-0.36248800000000003,-0.007095999999999999,-0.0034509999999999996,0.002892,-40.18,13.56,-20.18,3b
2019-07-12_142016:840,-0.33197,-0.053863999999999995,-0.361969,-0.007156999999999999,-0.0034509999999999996,0.003228,-40.18,13.56,-20.18,3b
2019-07-12_142016:860,-0.33197,-0.05438200000000001,-0.365021,-0.007279000000000001,-0.003664,0.003624,-40.869999,14.37,-20.559998999999998,3b
2019-07-12_142016:880,-0.333496,-0.054901,-0.36349499999999996,-0.007156999999999999,-0.003054,0.003563,-40.869999,14.37,-20.559998999999998,3b
2019-07-12_142016:900,-0.330963,-0.054901,-0.364532,-0.007279000000000001,-0.0028710000000000003,0.003105,-40.560001,13.56,-21.0,3b
2019-07-12_142016:920,-0.330475,-0.054901,-0.36554000000000003,-0.00731,-0.002932,0.002892,-40.560001,13.56,-21.0,3b
2019-07-12_142016:940,-0.330963,-0.056915,-0.366058,-0.007035,-0.0027489999999999997,0.002709,-40.560001,13.56,-21.0,3b
2019-07-12_142016:960,-0.331482,-0.055389,-0.366058,-0.006761,-0.002535,0.002037,-40.560001,14.37,-21.75,3b
2019-07-12_142016:980,-0.32843,-0.05438200000000001,-0.364014,-0.006547,-0.002078,0.0021899999999999997,-40.560001,14.37,-21.75,3b
2019-07-12_142017:000,-0.325378,-0.05285599999999999,-0.365021,-0.006425,-0.002139,0.002098,-40.18,13.56,-22.18,3b
2019-07-12_142017:020,-0.323334,-0.051330999999999995,-0.36654699999999996,-0.006883,-0.002657,0.0014880000000000002,-40.18,13.56,-22.18,3b
2019-07-12_142017:040,-0.322327,-0.051330999999999995,-0.36706500000000003,-0.006761,-0.003268,0.001213,-40.18,13.56,-22.18,3b
2019-07-12_142017:060,-0.32486,-0.051330999999999995,-0.368073,-0.006883,-0.003542,0.00103,-40.560001,13.56,-22.559998999999998,3b
2019-07-12_142017:080,-0.324371,-0.049805,-0.36706500000000003,-0.006883,-0.003207,0.0007559999999999999,-40.560001,13.56,-22.559998999999998,3b
2019-07-12_142017:100,-0.322327,-0.050842,-0.368591,-0.0065769999999999995,-0.003329,0.0009390000000000001,-40.560001,13.56,-22.559998999999998,3b
2019-07-12_142017:120,-0.326385,-0.051330999999999995,-0.37011700000000003,-0.0063030000000000004,-0.003542,0.00161,-40.869999,14.37,-22.18,3b
2019-07-12_142017:140,-0.328949,-0.051330999999999995,-0.369598,-0.0063030000000000004,-0.0036030000000000003,0.00103,-40.869999,14.37,-22.18,3b
2019-07-12_142017:160,-0.331482,-0.050323,-0.37112399999999995,-0.006028,-0.0034509999999999996,0.001091,-39.060001,13.56,-21.0,3b
2019-07-12_142017:180,-0.333496,-0.053375,-0.370636,-0.005204,-0.002657,0.001335,-39.060001,13.56,-21.0,3b
2019-07-12_142017:200,-0.32995599999999997,-0.049316000000000006,-0.37112399999999995,-0.004807,-0.0015890000000000001,0.001335,-39.75,13.56,-22.18,3b
2019-07-12_142017:220,-0.330963,-0.046265,-0.37112399999999995,-0.004654999999999999,-0.0011619999999999998,0.0034409999999999996,-39.75,13.56,-22.18,3b
2019-07-12_142017:240,-0.33197,-0.049805,-0.369598,-0.005082,-0.000124,0.004235,-39.75,13.56,-22.18,3b
2019-07-12_142017:260,-0.331482,-0.049316000000000006,-0.36911,-0.005601,0.00021099999999999998,0.0037159999999999997,-40.18,14.0,-21.75,3b
2019-07-12_142017:280,-0.32843,-0.050842,-0.36554000000000003,-0.0065769999999999995,0.000822,0.003899,-40.18,14.0,-21.75,3b
2019-07-12_142017:300,-0.327423,-0.05285599999999999,-0.36554000000000003,-0.006761,0.000944,0.004418,-40.18,14.0,-21.75,3b
2019-07-12_142017:320,-0.328949,-0.056427,-0.367584,-0.007156999999999999,0.000364,0.00396,-39.369999,14.68,-21.75,3b
2019-07-12_142017:340,-0.331482,-0.056915,-0.361481,-0.006822,0.000425,0.0035020000000000003,-39.369999,14.68,-21.75,3b
2019-07-12_142017:360,-0.331482,-0.056915,-0.36554000000000003,-0.006639,0.000364,0.0038380000000000003,-40.18,14.37,-21.75,3b
2019-07-12_142017:380,-0.335022,-0.058441,-0.36349499999999996,-0.005845,0.000669,0.004235,-40.18,14.37,-21.75,3b
2019-07-12_142017:400,-0.32995599999999997,-0.056915,-0.36349499999999996,-0.0056619999999999995,0.0007610000000000001,0.0035020000000000003,-39.75,14.37,-21.0,3b
2019-07-12_142017:420,-0.328949,-0.055908000000000006,-0.36349499999999996,-0.005448,0.00015,0.0029219999999999997,-39.75,14.37,-21.0,3b
2019-07-12_142017:440,-0.332489,-0.056915,-0.36044299999999996,-0.005082,-3.3e-05,0.003899,-39.75,14.37,-21.0,3b
2019-07-12_142017:460,-0.335022,-0.056427,-0.360962,-0.005082,2.8000000000000003e-05,0.003563,-39.75,13.56,-21.75,3b
2019-07-12_142017:480,-0.33605999999999997,-0.057434000000000006,-0.358917,-0.005204,0.000272,0.002983,-39.75,13.56,-21.75,3b
2019-07-12_142017:500,-0.335022,-0.057434000000000006,-0.361481,-0.005326,0.00015,0.002983,-39.75,13.56,-21.75,3b
2019-07-12_142017:520,-0.334015,-0.056915,-0.36044299999999996,-0.005784,-0.000307,0.003228,-39.369999,14.68,-21.370001000000002,3b
2019-07-12_142017:540,-0.334534,-0.057953,-0.35791,-0.005784,-0.000521,0.0035020000000000003,-39.369999,14.68,-21.370001000000002,3b
2019-07-12_142017:560,-0.335022,-0.059479,-0.358917,-0.0056619999999999995,-0.000643,0.0034409999999999996,-40.18,14.37,-21.75,3b
2019-07-12_142017:580,-0.334015,-0.05996699999999999,-0.35739099999999996,-0.005082,-0.0010400000000000001,0.002892,-40.18,14.37,-21.75,3b
2019-07-12_142017:600,-0.335022,-0.05996699999999999,-0.355896,-0.005082,-0.0010400000000000001,0.0028309999999999997,-39.75,14.68,-20.559998999999998,3b
2019-07-12_142017:620,-0.334534,-0.061005,-0.355377,-0.004654999999999999,-0.001376,0.002495,-39.75,14.68,-20.559998999999998,3b
2019-07-12_142017:640,-0.33605999999999997,-0.058960000000000005,-0.35436999999999996,-0.004746,-0.001498,0.00277,-39.75,14.68,-20.559998999999998,3b
2019-07-12_142017:660,-0.332489,-0.059479,-0.358917,-0.004991,-0.0016809999999999998,0.003624,-39.75,14.68,-21.0,3b
2019-07-12_142017:680,-0.32995599999999997,-0.063538,-0.35739099999999996,-0.005204,-0.002322,0.003105,-39.75,14.68,-21.0,3b
2019-07-12_142017:700,-0.32843,-0.063538,-0.363007,-0.005386999999999999,-0.0028710000000000003,0.001274,-39.75,14.68,-21.0,3b
2019-07-12_142017:720,-0.32843,-0.063019,-0.364532,-0.005448,-0.00339,0.001213,-40.18,14.37,-21.0,3b
2019-07-12_142017:740,-0.33197,-0.06405599999999999,-0.36554000000000003,-0.004533,-0.003542,0.001854,-40.18,14.37,-21.0,3b
2019-07-12_142017:760,-0.333496,-0.06405599999999999,-0.365021,-0.004411,-0.003268,0.001396,-40.560001,14.0,-23.0,3b
2019-07-12_142017:780,-0.33300799999999997,-0.059479,-0.364014,-0.004685,-0.002322,0.00103,-40.560001,14.0,-23.0,3b
2019-07-12_142017:800,-0.329437,-0.058960000000000005,-0.36349499999999996,-0.004869,-0.002322,0.001,-40.18,14.0,-21.370001000000002,3b
2019-07-12_142017:820,-0.32843,-0.056915,-0.36654699999999996,-0.005723,-0.002535,0.000206,-40.18,14.0,-21.370001000000002,3b
2019-07-12_142017:840,-0.32843,-0.057953,-0.36554000000000003,-0.00615,-0.002322,8.4e-05,-40.18,14.0,-21.370001000000002,3b
2019-07-12_142017:860,-0.327911,-0.058441,-0.365021,-0.006242,-0.002139,0.00161,-39.75,14.37,-22.559998999999998,3b
2019-07-12_142017:880,-0.326385,-0.060486,-0.36554000000000003,-0.006364,-0.0018030000000000001,0.0016710000000000002,-39.75,14.37,-22.559998999999998,3b
2019-07-12_142017:900,-0.324371,-0.060486,-0.367584,-0.006181,-0.0018030000000000001,0.000542,-39.75,14.37,-22.559998999999998,3b
