timestamp,AccX,AccY,AccZ,GyroX,GyroY,GyroZ,MagX,MagY,MagZ,Activity
2019-07-12_121654:560,-0.255707,-0.05438200000000001,-0.358429,-0.011081,-0.019153,-0.0060409999999999995,-10.18,2.18,-52.060001,1b
2019-07-12_121654:580,-0.27301,-0.043701,-0.37316900000000003,-0.010256999999999999,-0.022479,-0.002623,-10.06,1.0,-52.060001,1b
2019-07-12_121654:600,-0.28674299999999997,-0.040649,-0.38028,-0.011203,-0.024340999999999998,0.001253,-10.06,1.0,-52.060001,1b
2019-07-12_121654:620,-0.29538000000000003,-0.037598,-0.390961,-0.013187,-0.023456,0.004518,-10.06,1.0,-52.060001,1b
2019-07-12_121654:640,-0.296387,-0.038635,-0.39859,-0.016391,-0.021686,0.006837,-8.18,0.25,-53.25,1b
2019-07-12_121654:660,-0.28418000000000004,-0.040649,-0.406738,-0.019901,-0.019763,0.008851000000000001,-8.18,0.25,-53.25,1b
2019-07-12_121654:680,-0.279633,-0.043701,-0.41485600000000006,-0.023533000000000002,-0.018024000000000002,0.010499,-7.87,-0.37,-53.25,1b
2019-07-12_121654:700,-0.28674299999999997,-0.048798,-0.42605600000000005,-0.026858999999999997,-0.017230000000000002,0.011049,-7.87,-0.37,-53.25,1b
2019-07-12_121654:720,-0.284698,-0.05285599999999999,-0.432159,-0.029514,-0.014972,0.009584,-7.87,-0.37,-53.25,1b
2019-07-12_121654:740,-0.28418000000000004,-0.054901,-0.433655,-0.031314999999999996,-0.012103000000000001,0.006044,-6.37,-0.75,-52.5,1b
2019-07-12_121654:760,-0.29486100000000004,-0.05285599999999999,-0.43518100000000004,-0.032322000000000004,-0.008655,0.0032359999999999997,-6.37,-0.75,-52.5,1b
2019-07-12_121654:780,-0.286224,-0.045745999999999995,-0.43927,-0.032382999999999995,-0.004108,0.003297,-6.75,-2.25,-53.25,1b
2019-07-12_121654:800,-0.276062,-0.037598,-0.44281000000000004,-0.032382999999999995,-0.00047599999999999997,0.003053,-6.75,-2.25,-53.25,1b
2019-07-12_121654:820,-0.276581,-0.018799,-0.458588,-0.032047000000000006,0.0018739999999999998,0.001527,-6.75,-2.25,-53.25,1b
2019-07-12_121654:840,-0.298431,0.006072999999999999,-0.46569799999999995,-0.030918,0.005231,0.0011,-6.75,-2.25,-52.869999,1b
2019-07-12_121654:860,-0.390442,0.024384,-0.503845,-0.030764999999999997,0.004437,0.0039689999999999994,-6.75,-2.25,-52.869999,1b
2019-07-12_121654:880,-0.399597,0.046752999999999996,-0.537384,-0.032505,-0.005695,0.011964,-6.37,-4.5,-52.5,1b
2019-07-12_121654:900,-0.339111,0.055389,-0.526215,-0.033908999999999995,-0.005176,0.024659999999999998,-6.37,-4.5,-52.5,1b
2019-07-12_121654:920,-0.278107,0.05996699999999999,-0.48043800000000003,-0.037601,-0.001789,0.030763,-6.37,-4.5,-52.5,1b
2019-07-12_121654:940,-0.21453899999999998,0.068115,-0.47079499999999996,-0.038883,0.004986,0.025422,-7.87,-6.75,-52.5,1b
2019-07-12_121654:960,-0.235382,0.066589,-0.410797,-0.038547000000000005,0.012341,0.012971000000000002,-7.87,-6.75,-52.5,1b
2019-07-12_121654:980,-0.225739,0.075745,-0.384857,-0.034824,0.023511,-0.000731,-8.25,-7.75,-52.869999,1b
2019-07-12_121655:000,-0.201324,0.096069,-0.391968,-0.03223,0.023968,-0.006987,-8.25,-7.75,-52.869999,1b
2019-07-12_121655:020,-0.204376,0.102173,-0.38739,-0.028720999999999997,0.016583,-0.00067,-8.25,-7.75,-52.869999,1b
2019-07-12_121655:040,-0.223175,0.095581,-0.379791,-0.023197,0.008709999999999999,0.009767,-9.37,-9.0,-52.5,1b
2019-07-12_121655:060,-0.25116,0.097107,-0.382812,-0.018222,0.002972,0.012575,-9.37,-9.0,-52.5,1b
2019-07-12_121655:080,-0.248108,0.104706,-0.39502,-0.012943000000000001,-0.001575,0.013032,-11.25,-10.5,-51.25,1b
2019-07-12_121655:100,-0.245056,0.10675,-0.40774499999999997,-0.0076939999999999995,-0.008716,0.019258,-11.25,-10.5,-51.25,1b
2019-07-12_121655:120,-0.2659,0.100647,-0.41232299999999994,-0.004184,-0.015888,0.028627,-11.25,-10.5,-51.25,1b
2019-07-12_121655:140,-0.28064,0.086426,-0.405212,-0.003147,-0.018604,0.035585000000000006,-10.18,-10.06,-51.369999,1b
2019-07-12_121655:160,-0.301483,0.074738,-0.384857,-0.0037270000000000003,-0.016162,0.040376,-10.18,-10.06,-51.369999,1b
2019-07-12_121655:180,-0.29538000000000003,0.062012,-0.373688,-0.004337,-0.009876000000000001,0.046144,-10.56,-10.5,-51.68,1b
2019-07-12_121655:200,-0.285217,0.044739,-0.366058,-0.005497,-0.004779,0.048463,-10.56,-10.5,-51.68,1b
2019-07-12_121655:220,-0.280121,0.037108999999999996,-0.360962,-0.007267,-0.002338,0.047333999999999994,-10.56,-10.5,-51.68,1b
2019-07-12_121655:240,-0.278595,0.026917,-0.353333,-0.008152,-0.0017280000000000002,0.046814999999999996,-10.18,-9.68,-52.060001,1b
2019-07-12_121655:260,-0.277588,0.021332,-0.347229,-0.008274,-0.001575,0.044160000000000005,-10.18,-9.68,-52.060001,1b
2019-07-12_121655:280,-0.276581,0.014740000000000001,-0.34317,-0.008213,-0.001789,0.036714,-11.25,-9.68,-51.68,1b
2019-07-12_121655:300,-0.275543,0.014740000000000001,-0.34265100000000004,-0.007297,-0.00185,0.028444,-11.25,-9.68,-51.68,1b
2019-07-12_121655:320,-0.28369099999999997,0.016266,-0.347748,-0.005558,-0.002704,0.022859,-11.25,-9.68,-51.68,1b
2019-07-12_121655:340,-0.297913,0.015747,-0.34674099999999997,-0.003116,-0.002979,0.01819,-11.68,-9.25,-52.5,1b
2019-07-12_121655:360,-0.306061,0.020325,-0.349792,-0.000278,-0.0021850000000000003,0.013429,-11.68,-9.25,-52.5,1b
2019-07-12_121655:380,-0.314697,0.024902,-0.358917,0.0028350000000000003,-0.001789,0.009492,-12.0,-10.5,-50.869999,1b
2019-07-12_121655:400,-0.326904,0.031006,-0.379272,0.0061,-0.003314,0.00757,-12.0,-10.5,-50.869999,1b
2019-07-12_121655:420,-0.337067,0.034058,-0.379791,0.008938,-0.004961999999999999,0.007844,-12.0,-10.5,-50.869999,1b
2019-07-12_121655:440,-0.350281,0.043213,-0.385376,0.011196,-0.00426,0.011293000000000001,-12.68,-10.06,-50.869999,1b
2019-07-12_121655:460,-0.352844,0.044739,-0.391968,0.011654000000000001,-0.001605,0.016206,-12.68,-10.06,-50.869999,1b
2019-07-12_121655:480,-0.320801,0.037598,-0.40368699999999996,0.011196,0.00108,0.019258,-13.0,-9.0,-51.369999,1b
2019-07-12_121655:500,-0.304535,0.026917,-0.42453,0.009335,-8e-05,0.018068,-13.0,-9.0,-51.369999,1b
2019-07-12_121655:520,-0.312653,-0.005065999999999999,-0.454529,0.008754999999999999,-0.003925,0.014833,-13.0,-9.0,-51.369999,1b
2019-07-12_121655:540,-0.43823199999999995,-0.032532,-0.486023,0.010128,-0.00838,0.009645,-12.68,-7.06,-51.369999,1b
2019-07-12_121655:560,-0.378754,-0.050842,-0.563812,0.010739,-0.022937,0.004274,-12.68,-7.06,-51.369999,1b
2019-07-12_121655:580,-0.453491,-0.058960000000000005,-0.518066,0.014247999999999999,-0.018878,0.001314,-13.75,-8.18,-51.75,1b
2019-07-12_121655:600,-0.382324,-0.072174,-0.5134890000000001,0.015590999999999999,-0.018207,0.000184,-13.75,-8.18,-51.75,1b
2019-07-12_121655:620,-0.279114,-0.069122,-0.47280900000000003,0.017361,-0.004169,0.000642,-13.75,-8.18,-51.75,1b
2019-07-12_121655:640,-0.161163,-0.078796,-0.405212,0.016262000000000002,0.00758,0.005861,-13.75,-6.06,-51.75,1b
2019-07-12_121655:660,-0.185059,-0.081329,-0.367584,0.014584,0.016858,0.01169,-13.75,-6.06,-51.75,1b
2019-07-12_121655:680,-0.19927999999999998,-0.102692,-0.378754,0.0108,0.020062,0.013704,-13.0,-5.37,-51.369999,1b
2019-07-12_121655:700,-0.185547,-0.114899,-0.374695,0.008541,0.013744999999999999,0.008454999999999999,-13.0,-5.37,-51.369999,1b
2019-07-12_121655:720,-0.19165,-0.119965,-0.36554000000000003,0.006893000000000001,0.003735,-0.0011279999999999999,-13.0,-5.37,-51.369999,1b
2019-07-12_121655:740,-0.21048000000000003,-0.12353499999999999,-0.373688,0.005612,-0.0055119999999999995,-0.00952,-14.87,-4.18,-49.75,1b
2019-07-12_121655:760,-0.254211,-0.12301600000000001,-0.391968,0.005154,-0.012256,-0.014159,-14.87,-4.18,-49.75,1b
2019-07-12_121655:780,-0.258759,-0.11843900000000002,-0.402649,0.005947,-0.018543,-0.020444999999999998,-15.68,-4.56,-50.560001,1b
2019-07-12_121655:800,-0.295898,-0.09149199999999999,-0.390961,0.0072900000000000005,-0.021594,-0.031096,-15.68,-4.56,-50.560001,1b
2019-07-12_121655:820,-0.314178,-0.063019,-0.388916,0.007626000000000001,-0.021869,-0.041045,-15.68,-4.56,-50.560001,1b
2019-07-12_121655:840,-0.318756,-0.036591000000000005,-0.373688,0.0068319999999999995,-0.018695,-0.04251,-14.18,-5.0,-52.18,1b
2019-07-12_121655:860,-0.31723,-0.026427999999999997,-0.359955,0.005368,-0.014301,-0.038633999999999995,-14.18,-5.0,-52.18,1b
2019-07-12_121655:880,-0.315704,-0.016266,-0.341644,0.002102,-0.009601,-0.034513999999999996,-13.75,-3.5,-50.869999,1b
2019-07-12_121655:900,-0.29943800000000004,-0.011169,-0.33300799999999997,-0.0011330000000000001,-0.005176,-0.031066000000000003,-13.75,-3.5,-50.869999,1b
2019-07-12_121655:920,-0.270966,-0.012177,-0.325378,-0.004459,-0.0020629999999999997,-0.028013999999999997,-13.75,-3.5,-50.869999,1b
2019-07-12_121655:940,-0.261322,-0.014221000000000001,-0.323853,-0.007023000000000001,-0.001789,-0.025756,-13.37,-4.56,-50.560001,1b
2019-07-12_121655:960,-0.265381,-0.017273,-0.331482,-0.009159,-0.0031309999999999997,-0.023131,-13.37,-4.56,-50.560001,1b
2019-07-12_121655:980,-0.273529,-0.021851,-0.335541,-0.010532,-0.004229999999999999,-0.018859,-14.18,-5.25,-51.0,1b
2019-07-12_121656:000,-0.277588,-0.025908999999999998,-0.342163,-0.011264,-0.003375,-0.015868,-14.18,-5.25,-51.0,1b
2019-07-12_121656:020,-0.266388,-0.025908999999999998,-0.34368899999999997,-0.011814,-0.0008730000000000001,-0.014403000000000001,-14.18,-5.25,-51.0,1b
2019-07-12_121656:040,-0.283173,-0.021851,-0.367584,-0.012454999999999999,-0.000324,-0.011229000000000001,-12.68,-6.37,-50.5,1b
2019-07-12_121656:060,-0.295898,-0.021332,-0.38385,-0.014194,-0.002979,-0.005675,-12.68,-6.37,-50.5,1b
2019-07-12_121656:080,-0.308075,-0.024902,-0.39859,-0.0181,-0.006945999999999999,0.000978,-14.18,-6.75,-50.869999,1b
2019-07-12_121656:100,-0.322327,-0.017792,-0.414337,-0.01923,-0.008594,0.002168,-14.18,-6.75,-50.869999,1b
2019-07-12_121656:120,-0.309113,-0.012695,-0.434174,-0.02103,-0.009143,-0.000212,-14.18,-6.75,-50.869999,1b
2019-07-12_121656:140,-0.28418000000000004,0.001007,-0.452484,-0.021549000000000002,-0.009204,-0.002349,-14.18,-7.5,-50.5,1b
2019-07-12_121656:160,-0.447906,0.01828,-0.5419619999999999,-0.021824,-0.026843000000000002,-0.001402,-14.18,-7.5,-50.5,1b
2019-07-12_121656:180,-0.426544,0.035065,-0.645691,-0.024936,-0.038654,0.012086,-12.37,-7.5,-50.560001,1b
2019-07-12_121656:200,-0.388428,0.047272,-0.569916,-0.025547,-0.037799,0.029756,-12.37,-7.5,-50.560001,1b
2019-07-12_121656:220,-0.359955,0.051849,-0.5541689999999999,-0.025943,-0.024127000000000003,0.030670999999999997,-12.37,-7.5,-50.560001,1b
2019-07-12_121656:240,-0.28927600000000003,0.06253099999999999,-0.519073,-0.023746,-0.005817,0.012147,-13.06,-9.0,-49.0,1b
2019-07-12_121656:260,-0.255707,0.074738,-0.457581,-0.020237,0.014721000000000001,-0.003996,-13.06,-9.0,-49.0,1b
2019-07-12_121656:280,-0.24706999999999998,0.096588,-0.402161,-0.0163,0.028393,-0.006987,-11.68,-10.06,-49.0,1b
2019-07-12_121656:300,-0.225739,0.113373,-0.399109,-0.016117,0.027356000000000002,0.002565,-11.68,-10.06,-49.0,1b
2019-07-12_121656:320,-0.17843599999999998,0.11843900000000002,-0.379272,-0.015964,0.020031999999999998,0.018678,-11.68,-10.06,-49.0,1b
2019-07-12_121656:340,-0.184021,0.11438,-0.365021,-0.015903,0.012218999999999999,0.031068000000000002,-12.68,-10.06,-47.75,1b
2019-07-12_121656:360,-0.213013,0.104706,-0.349792,-0.015903,0.0099,0.036073,-12.68,-10.06,-47.75,1b
2019-07-12_121656:380,-0.22521999999999998,0.10116599999999999,-0.35638400000000003,-0.015781,0.007763,0.038392,-13.37,-10.75,-47.75,1b
2019-07-12_121656:400,-0.258759,0.086426,-0.36706500000000003,-0.015903,0.004132,0.045137000000000004,-13.37,-10.75,-47.75,1b
2019-07-12_121656:420,-0.29232800000000003,0.063019,-0.371643,-0.016361,0.000256,0.055452,-13.37,-10.75,-47.75,1b
2019-07-12_121656:440,-0.311127,0.042175,-0.367584,-0.017185,-0.002307,0.062929,-15.0,-10.75,-47.369999,1b
2019-07-12_121656:460,-0.330963,0.020844,-0.355896,-0.017643,-0.002307,0.064332,-15.0,-10.75,-47.369999,1b
2019-07-12_121656:480,-0.324371,0.011169,-0.34317,-0.017825999999999998,0.001843,0.059694000000000004,-16.870001000000002,-11.18,-47.0,1b
2019-07-12_121656:500,-0.307068,0.001007,-0.326385,-0.017490000000000002,0.005444,0.051515,-16.870001000000002,-11.18,-47.0,1b
2019-07-12_121656:520,-0.293854,-0.0035399999999999997,-0.327911,-0.017307,0.005566,0.044893,-16.870001000000002,-11.18,-47.0,1b
2019-07-12_121656:540,-0.282166,-0.012695,-0.31723,-0.016117,0.002972,0.041231,-16.5,-10.87,-46.560001,1b
2019-07-12_121656:560,-0.28369099999999997,-0.016753999999999998,-0.312164,-0.014835,0.000195,0.037935,-16.5,-10.87,-46.560001,1b
2019-07-12_121656:580,-0.28418000000000004,-0.017273,-0.305054,-0.012912,-0.000659,0.033601,-17.559998999999998,-10.87,-47.0,1b
2019-07-12_121656:600,-0.285217,-0.018799,-0.30249000000000004,-0.010409999999999999,-0.001392,0.028839999999999998,-17.559998999999998,-10.87,-47.0,1b
2019-07-12_121656:620,-0.298431,-0.019318000000000002,-0.310638,-0.007084,-0.001911,0.024843,-17.559998999999998,-10.87,-47.0,1b
2019-07-12_121656:640,-0.306061,-0.020325,-0.312653,-0.0032689999999999998,-0.001392,0.021577000000000002,-18.68,-11.25,-45.25,1b
2019-07-12_121656:660,-0.32843,-0.021851,-0.33197,0.0009119999999999999,-0.00185,0.017731999999999998,-18.68,-11.25,-45.25,1b
2019-07-12_121656:680,-0.334534,-0.021851,-0.3508,0.005886,-0.0045049999999999995,0.011842,-19.370001000000002,-10.87,-45.369999,1b
2019-07-12_121656:700,-0.38028,-0.017273,-0.36349499999999996,0.011196,-0.005939,0.004091,-19.370001000000002,-10.87,-45.369999,1b
2019-07-12_121656:720,-0.399597,-0.007111,-0.383331,0.01553,-0.006945999999999999,0.000123,-19.370001000000002,-10.87,-45.369999,1b
2019-07-12_121656:740,-0.368591,-0.0055850000000000006,-0.401123,0.019284,-0.005634,0.000459,-18.25,-10.87,-44.560001,1b
2019-07-12_121656:760,-0.40063499999999996,-0.017273,-0.42453,0.022609999999999998,-0.010333,-0.001341,-18.25,-10.87,-44.560001,1b
2019-07-12_121656:780,-0.42605600000000005,-0.019806,-0.47079499999999996,0.024013999999999997,-0.032886,-0.004454,-18.68,-9.75,-45.75,1b
2019-07-12_121656:800,-0.44027700000000003,-0.029480000000000003,-0.5505979999999999,0.028377999999999997,-0.048083999999999995,-0.004668,-18.68,-9.75,-45.75,1b
2019-07-12_121656:820,-0.36349499999999996,-0.045745999999999995,-0.552643,0.029660000000000002,-0.051196,0.001039,-18.68,-9.75,-45.75,1b
2019-07-12_121656:840,-0.285217,-0.058960000000000005,-0.509918,0.03085,-0.034748,0.006379,-17.5,-9.06,-44.18,1b
2019-07-12_121656:860,-0.267914,-0.067108,-0.44281000000000004,0.026851999999999997,-0.013233000000000002,0.016541999999999998,-17.5,-9.06,-44.18,1b
2019-07-12_121656:880,-0.283173,-0.078796,-0.41384899999999997,0.023465,0.007824,0.030610000000000002,-15.25,-7.87,-46.18,1b
2019-07-12_121656:900,-0.181488,-0.108276,-0.402161,0.018246000000000002,0.01347,0.03415,-15.25,-7.87,-46.18,1b
2019-07-12_121656:920,-0.171844,-0.12048299999999999,-0.371643,0.01379,0.009015,0.01999,-15.25,-7.87,-46.18,1b
2019-07-12_121656:940,-0.21606399999999998,-0.119476,-0.368073,0.007809,0.001446,0.0025039999999999997,-15.25,-6.87,-46.18,1b
2019-07-12_121656:960,-0.245544,-0.115906,-0.363007,0.0035060000000000004,-0.003467,-0.004850999999999999,-15.25,-6.87,-46.18,1b
2019-07-12_121656:980,-0.239441,-0.111847,-0.37265,0.00018,-0.011401999999999999,-0.008849,-16.0,-5.37,-45.75,1b
2019-07-12_121657:000,-0.241486,-0.102692,-0.375702,-0.003055,-0.020404,-0.019194,-16.0,-5.37,-45.75,1b
2019-07-12_121657:020,-0.250641,-0.070648,-0.384338,-0.005832,-0.027056999999999998,-0.030333,-16.0,-5.37,-45.75,1b
2019-07-12_121657:040,-0.262329,-0.062012,-0.383331,-0.007023000000000001,-0.029620999999999998,-0.035276999999999996,-15.56,-5.25,-45.25,1b
2019-07-12_121657:060,-0.308075,-0.032013,-0.37674,-0.00748,-0.026660000000000003,-0.036986,-15.56,-5.25,-45.25,1b
2019-07-12_121657:080,-0.31723,-0.020325,-0.364532,-0.008609,-0.018817,-0.036925,-14.37,-5.25,-45.25,1b
2019-07-12_121657:100,-0.306061,-0.007599,-0.34368899999999997,-0.009281000000000001,-0.009937,-0.032805,-14.37,-5.25,-45.25,1b
2019-07-12_121657:120,-0.293335,-0.0055850000000000006,-0.33300799999999997,-0.010196,-0.003986,-0.025572,-14.37,-5.25,-45.25,1b
2019-07-12_121657:140,-0.284698,-0.004059,-0.327911,-0.0116,-0.001392,-0.019744,-13.25,-5.56,-45.0,1b
2019-07-12_121657:160,-0.25317399999999995,-0.006592,-0.315216,-0.013187,-0.00185,-0.015868,-13.25,-5.56,-45.0,1b
2019-07-12_121657:180,-0.24758899999999998,-0.007111,-0.314178,-0.015384,-0.003436,-0.012297,-13.25,-6.75,-45.0,1b
2019-07-12_121657:200,-0.242004,-0.010162000000000001,-0.319275,-0.016575,-0.003925,-0.009825,-13.25,-6.75,-45.0,1b
2019-07-12_121657:220,-0.25827,-0.011169,-0.338593,-0.017825999999999998,-0.003925,-0.009459,-13.25,-6.75,-45.0,1b
2019-07-12_121657:240,-0.262848,-0.010162000000000001,-0.350281,-0.018833000000000003,-0.004444,-0.0058579999999999995,-13.25,-8.18,-44.18,1b
2019-07-12_121657:260,-0.333496,-0.005065999999999999,-0.396545,-0.020023,-0.006275,0.003297,-13.25,-8.18,-44.18,1b
2019-07-12_121657:280,-0.347748,-0.0055850000000000006,-0.420441,-0.021946,-0.00838,0.013215000000000001,-13.25,-7.75,-43.0,1b
2019-07-12_121657:300,-0.385864,-0.008636,-0.467224,-0.022494999999999998,-0.003314,0.015535,-13.25,-7.75,-43.0,1b
2019-07-12_121657:320,-0.36911,-0.002014,-0.48654200000000003,-0.022678,0.0024530000000000003,0.011445,-13.25,-7.75,-43.0,1b
2019-07-12_121657:340,-0.42858900000000005,0.016266,-0.495697,-0.021091,0.010235,0.0069900000000000006,-12.56,-9.0,-45.369999,1b
2019-07-12_121657:360,-0.49926800000000005,0.028442000000000002,-0.529755,-0.022341999999999997,-0.003436,0.012361,-12.56,-9.0,-45.369999,1b
2019-07-12_121657:380,-0.41232299999999994,0.060486,-0.490601,-0.024418000000000002,0.0007440000000000001,0.033479,-13.68,-9.25,-43.75,1b
2019-07-12_121657:400,-0.35739099999999996,0.072693,-0.492126,-0.027408,-0.003986,0.049196,-13.68,-9.25,-43.75,1b
2019-07-12_121657:420,-0.224701,0.08996599999999999,-0.467743,-0.032962,0.001141,0.047029,-13.68,-9.25,-43.75,1b
2019-07-12_121657:440,-0.213013,0.09811399999999999,-0.44384799999999996,-0.03458,0.01286,0.034547,-12.87,-10.75,-42.18,1b
2019-07-12_121657:460,-0.25317399999999995,0.12912,-0.401642,-0.037143,0.02229,0.02411,-12.87,-10.75,-42.18,1b
2019-07-12_121657:480,-0.251648,0.139801,-0.40976,-0.040652999999999995,0.017773,0.028016000000000003,-14.06,-11.18,-42.560001,1b
2019-07-12_121657:500,-0.19165,0.154541,-0.41842700000000005,-0.045658,0.006177,0.048005,-14.06,-11.18,-42.560001,1b
2019-07-12_121657:520,-0.193695,0.145386,-0.420441,-0.049106,-0.0070680000000000005,0.069765,-14.06,-11.18,-42.560001,1b
2019-07-12_121657:540,-0.20742800000000003,0.113373,-0.44638100000000003,-0.053226,-0.018024000000000002,0.080934,-14.37,-11.18,-42.560001,1b
2019-07-12_121657:560,-0.22164899999999998,0.096588,-0.458588,-0.054599,-0.027056999999999998,0.088502,-14.37,-11.18,-42.560001,1b
2019-07-12_121657:580,-0.282654,0.042175,-0.47332799999999997,-0.053928,-0.031299,0.095796,-14.37,-12.68,-41.75,1b
2019-07-12_121657:600,-0.29180900000000004,0.032532,-0.470276,-0.0517,-0.025867,0.097993,-14.37,-12.68,-41.75,1b
2019-07-12_121657:620,-0.290283,0.001495,-0.40823400000000004,-0.048649,-0.015033000000000001,0.094545,-14.37,-12.68,-41.75,1b
2019-07-12_121657:640,-0.28875700000000004,-0.0035399999999999997,-0.39502,-0.044802999999999996,-0.003467,0.0907,-15.56,-12.68,-40.560001,1b
2019-07-12_121657:660,-0.270477,-0.012177,-0.339111,-0.040348,0.007306,0.088624,-15.56,-12.68,-40.560001,1b
2019-07-12_121657:680,-0.25827,-0.015747,-0.326904,-0.037693,0.014141999999999998,0.086122,-15.25,-13.06,-39.25,1b
2019-07-12_121657:700,-0.21810900000000003,-0.024384,-0.29232800000000003,-0.034488,0.016125,0.08484,-15.25,-13.06,-39.25,1b
2019-07-12_121657:720,-0.21402,-0.025908999999999998,-0.290802,-0.031925,0.013928,0.083192,-15.25,-13.06,-39.25,1b
2019-07-12_121657:740,-0.20486500000000002,-0.034546,-0.281647,-0.028933999999999998,0.011426,0.07892,-16.0,-13.06,-38.18,1b
2019-07-12_121657:760,-0.210968,-0.039642000000000004,-0.272003,-0.025851999999999997,0.01048,0.071626,-16.0,-13.06,-38.18,1b
2019-07-12_121657:780,-0.261322,-0.048279,-0.28112800000000004,-0.023929,0.010235,0.067262,-17.870001000000002,-13.5,-37.369999,1b
2019-07-12_121657:800,-0.28979499999999997,-0.056915,-0.31012,-0.017765,0.004986,0.05359,-17.870001000000002,-13.5,-37.369999,1b
2019-07-12_121657:820,-0.340118,-0.06405599999999999,-0.35638400000000003,-0.013522999999999999,-0.000995,0.046205,-17.870001000000002,-13.5,-37.369999,1b
2019-07-12_121657:840,-0.379272,-0.069122,-0.381805,-0.009342,-0.006548999999999999,0.040376,-19.68,-13.37,-37.75,1b
2019-07-12_121657:860,-0.45401,-0.065582,-0.431641,-0.0076939999999999995,-0.006793,0.038698,-19.68,-13.37,-37.75,1b
2019-07-12_121657:880,-0.404694,-0.065582,-0.44433599999999995,-0.007755,-0.00047599999999999997,0.040773000000000004,-19.559998999999998,-12.18,-37.0,1b
2019-07-12_121657:900,-0.420959,-0.09149199999999999,-0.484009,-0.007999,-0.007220999999999999,0.038576,-19.559998999999998,-12.18,-37.0,1b
2019-07-12_121657:920,-0.412811,-0.096069,-0.562286,-0.007206000000000001,-0.018421,0.028566,-19.559998999999998,-12.18,-37.0,1b
2019-07-12_121657:940,-0.40774499999999997,-0.09201000000000001,-0.56839,-0.006809,-0.024738,0.020479,-20.059998999999998,-12.56,-37.0,1b
2019-07-12_121657:960,-0.366058,-0.08081100000000001,-0.562286,-0.00687,-0.029987,0.001039,-20.059998999999998,-12.56,-37.0,1b
2019-07-12_121657:980,-0.283173,-0.068115,-0.497742,-0.008029999999999999,-0.022602,0.0011,-19.559998999999998,-11.75,-36.560001,1b
2019-07-12_121658:000,-0.243011,-0.060486,-0.44281000000000004,-0.010256999999999999,0.009167,0.020112,-19.559998999999998,-11.75,-36.560001,1b
2019-07-12_121658:020,-0.243011,-0.071167,-0.38385,-0.011326000000000001,0.027538999999999998,0.030733,-19.559998999999998,-11.75,-36.560001,1b
2019-07-12_121658:040,-0.198273,-0.071686,-0.385376,-0.013340000000000001,0.028270999999999998,0.029207,-17.370001000000002,-12.06,-37.0,1b
2019-07-12_121658:060,-0.12558,-0.063538,-0.37011700000000003,-0.013645,0.017315,0.021577000000000002,-17.370001000000002,-12.06,-37.0,1b
2019-07-12_121658:080,-0.129639,-0.055389,-0.361481,-0.016178,0.004132,0.012361,-19.559998999999998,-12.37,-37.0,1b
2019-07-12_121658:100,-0.156586,-0.041168,-0.371643,-0.02103,-0.009723,0.010773999999999999,-19.559998999999998,-12.37,-37.0,1b
2019-07-12_121658:120,-0.190125,-0.034546,-0.399109,-0.025943,-0.024921000000000002,0.018922,-19.559998999999998,-12.37,-37.0,1b
2019-07-12_121658:140,-0.23284899999999997,-0.035583,-0.431641,-0.02866,-0.030902,0.022981,-19.25,-12.0,-35.0,1b
2019-07-12_121658:160,-0.273529,-0.038116000000000004,-0.427063,-0.039951,-0.034748,0.025026,-19.25,-12.0,-35.0,1b
2019-07-12_121658:180,-0.312164,-0.039642000000000004,-0.420441,-0.042727999999999995,-0.031695999999999995,0.023775,-17.75,-12.68,-36.560001,1b
2019-07-12_121658:200,-0.332489,-0.044219999999999995,-0.40976,-0.047031,-0.017566,0.015077000000000002,-17.75,-12.68,-36.560001,1b
2019-07-12_121658:220,-0.333496,-0.049316000000000006,-0.385864,-0.046787,-0.007739,0.007722,-17.75,-12.68,-36.560001,1b
2019-07-12_121658:240,-0.314697,-0.045745999999999995,-0.36706500000000003,-0.045566,-0.004047,0.006196,-17.370001000000002,-13.75,-35.369999,1b
2019-07-12_121658:260,-0.279633,-0.05285599999999999,-0.34674099999999997,-0.039737,0.002911,0.009035,-17.370001000000002,-13.75,-35.369999,1b
2019-07-12_121658:280,-0.257751,-0.059479,-0.34265100000000004,-0.037418,0.003247,0.009523,-18.559998999999998,-15.06,-35.0,1b
2019-07-12_121658:300,-0.24453699999999998,-0.06405599999999999,-0.34265100000000004,-0.030399000000000002,-0.0012699999999999999,0.011354000000000001,-18.559998999999998,-15.06,-35.0,1b
2019-07-12_121658:320,-0.2547,-0.065582,-0.34265100000000004,-0.025608,-0.004383,0.016267,-18.559998999999998,-15.06,-35.0,1b
2019-07-12_121658:340,-0.275055,-0.076752,-0.341644,-0.023746,-0.004961999999999999,0.018341999999999997,-17.370001000000002,-16.25,-34.18,1b
2019-07-12_121658:360,-0.293335,-0.081329,-0.334534,-0.01923,0.000805,0.016694,-17.370001000000002,-16.25,-34.18,1b
2019-07-12_121658:380,-0.29742399999999997,-0.073212,-0.345215,-0.01865,0.002911,0.015931,-18.870001000000002,-16.25,-34.18,1b
2019-07-12_121658:400,-0.282654,-0.071167,-0.352844,-0.017521000000000002,0.006116,0.019197,-18.870001000000002,-16.25,-34.18,1b
2019-07-12_121658:420,-0.29943800000000004,-0.069641,-0.393494,-0.019504,-0.00246,0.022767,-18.870001000000002,-16.25,-34.18,1b
2019-07-12_121658:440,-0.308594,-0.072174,-0.427063,-0.019687,-0.007006999999999999,0.023927,-18.18,-17.0,-33.369999,1b
2019-07-12_121658:460,-0.32995599999999997,-0.067108,-0.41586300000000004,-0.019443000000000002,-0.009784000000000001,0.012178,-18.18,-17.0,-33.369999,1b
2019-07-12_121658:480,-0.354858,-0.050323,-0.42605600000000005,-0.020359,-0.008075,0.006532,-18.559998999999998,-17.0,-31.870001000000002,1b
2019-07-12_121658:500,-0.379791,-0.014740000000000001,-0.48858599999999996,-0.023014,-0.015033000000000001,0.006257,-18.559998999999998,-17.0,-31.870001000000002,1b
2019-07-12_121658:520,-0.367584,-0.009644,-0.503845,-0.025272,-0.016681,0.013612,-18.559998999999998,-17.0,-31.870001000000002,1b
2019-07-12_121658:540,-0.36654699999999996,0.025421,-0.516541,-0.02866,-0.021015,0.016817,-18.559998999999998,-17.370001000000002,-32.25,1b
2019-07-12_121658:560,-0.36706500000000003,0.038635,-0.502808,-0.034549,-0.020465,0.026704000000000002,-18.559998999999998,-17.370001000000002,-32.25,1b
2019-07-12_121658:580,-0.260284,0.06149299999999999,-0.476379,-0.035709,-0.01781,0.026826,-17.059998999999998,-17.75,-32.25,1b
2019-07-12_121658:600,-0.257233,0.0737,-0.440796,-0.036106,-0.006214,0.012086,-17.059998999999998,-17.75,-32.25,1b
2019-07-12_121658:620,-0.233337,0.111328,-0.408752,-0.035953,0.003522,0.007112,-17.059998999999998,-17.75,-32.25,1b
2019-07-12_121658:640,-0.263336,0.13623,-0.40063499999999996,-0.036503,0.005444,0.011384,-15.56,-18.5,-31.5,1b
2019-07-12_121658:660,-0.234375,0.1586,-0.42248500000000005,-0.038425,0.000134,0.043367,-15.56,-18.5,-31.5,1b
2019-07-12_121658:680,-0.213531,0.146423,-0.405212,-0.038547000000000005,-0.001789,0.050263999999999996,-17.059998999999998,-20.0,-32.25,1b
2019-07-12_121658:700,-0.252686,0.134705,-0.420441,-0.041599000000000004,-0.011035,0.045808,-17.059998999999998,-20.0,-32.25,1b
2019-07-12_121658:720,-0.261322,0.134705,-0.42858900000000005,-0.040683,-0.016040000000000002,0.047425999999999996,-17.059998999999998,-20.0,-32.25,1b
2019-07-12_121658:740,-0.259277,0.11438,-0.416382,-0.039066000000000004,-0.017353,0.051789999999999996,-17.059998999999998,-19.25,-30.25,1b
2019-07-12_121658:760,-0.260284,0.095581,-0.407227,-0.034702,-0.016375999999999998,0.05789299999999999,-17.059998999999998,-19.25,-30.25,1b
2019-07-12_121658:780,-0.269958,0.07928500000000001,-0.390961,-0.033298,-0.014636000000000001,0.059297,-17.059998999999998,-19.25,-30.25,1b
2019-07-12_121658:800,-0.257233,0.062012,-0.36349499999999996,-0.026737,-0.006092,0.069185,-18.559998999999998,-20.370001000000002,-29.370001000000002,1b
2019-07-12_121658:820,-0.248108,0.053863999999999995,-0.34317,-0.02341,-0.001209,0.071382,-18.559998999999998,-20.370001000000002,-29.370001000000002,1b
2019-07-12_121658:840,-0.234375,0.047791,-0.32843,-0.022434,7.3e-05,0.070711,-18.18,-19.25,-28.68,1b
2019-07-12_121658:860,-0.223694,0.046752999999999996,-0.319794,-0.020084,0.000195,0.069368,-18.18,-19.25,-28.68,1b
2019-07-12_121658:880,-0.217072,0.042694,-0.320801,-0.019565,-0.0014529999999999999,0.069246,-20.0,-20.370001000000002,-27.370001000000002,1b
2019-07-12_121658:900,-0.22521999999999998,0.037108999999999996,-0.326385,-0.019169,-0.008258,0.064851,-20.0,-20.370001000000002,-27.370001000000002,1b
2019-07-12_121658:920,-0.248596,0.033539,-0.336548,-0.019169,-0.011585,0.062135,-20.0,-20.370001000000002,-27.370001000000002,1b
2019-07-12_121658:940,-0.262848,0.031006,-0.349274,-0.019169,-0.01305,0.061829999999999996,-20.75,-18.870001000000002,-28.75,1b
2019-07-12_121658:960,-0.322845,0.01828,-0.36706500000000003,-0.016971,-0.0125,0.06149400000000001,-20.75,-18.870001000000002,-28.75,1b
2019-07-12_121658:980,-0.340118,0.010651,-0.390442,-0.015995,-0.012256,0.06009,-20.75,-18.870001000000002,-28.75,1b
2019-07-12_121659:000,-0.341644,-0.004059,-0.407227,-0.009922,-0.008594,0.049928,-21.370001000000002,-19.18,-27.5,1b
2019-07-12_121659:020,-0.36349499999999996,-0.0030210000000000002,-0.42858900000000005,-0.00687,-0.007129000000000001,0.042482,-21.370001000000002,-19.18,-27.5,1b
2019-07-12_121659:040,-0.325897,0.006072999999999999,-0.431122,-0.005375,-0.003833,0.041963,-21.75,-18.0,-28.0,1b
2019-07-12_121659:060,-0.264862,-0.014221000000000001,-0.432648,-0.0018039999999999998,0.003003,0.042238,-21.75,-18.0,-28.0,1b
2019-07-12_121659:080,-0.338593,-0.040649,-0.5556949999999999,-0.000492,-0.004961999999999999,0.037721,-22.870001000000002,-17.18,-27.18,1b
2019-07-12_121659:100,-0.358917,-0.058960000000000005,-0.5922850000000001,0.004483,-0.03136,0.022371000000000002,-22.870001000000002,-17.18,-27.18,1b
2019-07-12_121659:120,-0.35131799999999996,-0.054901,-0.604492,0.006770999999999999,-0.039783,0.0188,-22.870001000000002,-17.18,-27.18,1b
2019-07-12_121659:140,-0.28979499999999997,-0.058960000000000005,-0.575531,0.007504,-0.036150999999999996,0.02054,-23.18,-16.370001000000002,-27.5,1b
2019-07-12_121659:160,-0.235382,-0.06253099999999999,-0.519592,0.007137999999999999,-0.009876000000000001,0.036867000000000004,-23.18,-16.370001000000002,-27.5,1b
2019-07-12_121659:180,-0.236389,-0.078278,-0.501282,0.006375,-0.0025210000000000002,0.045961,-23.18,-16.370001000000002,-27.5,1b
2019-07-12_121659:200,-0.219635,-0.09454299999999999,-0.433167,0.002255,0.021832,0.051210000000000006,-22.370001000000002,-16.059998999999998,-28.370001000000002,1b
2019-07-12_121659:220,-0.145905,-0.09149199999999999,-0.427063,-0.003544,0.022351,0.037995999999999995,-22.370001000000002,-16.059998999999998,-28.370001000000002,1b
2019-07-12_121659:240,-0.11438,-0.086426,-0.402649,-0.005679999999999999,0.020581,0.030670999999999997,-23.18,-15.25,-28.75,1b
2019-07-12_121659:260,-0.141327,-0.09454299999999999,-0.382324,-0.013125999999999999,0.014537999999999999,0.014894,-23.18,-15.25,-28.75,1b
2019-07-12_121659:280,-0.208954,-0.094055,-0.388916,-0.015506,0.012799,0.013643,-23.18,-15.25,-28.75,1b
2019-07-12_121659:300,-0.21810900000000003,-0.100159,-0.395538,-0.019565,0.004895,0.018616999999999998,-23.75,-14.5,-26.68,1b
2019-07-12_121659:320,-0.22164899999999998,-0.099121,-0.404175,-0.020145,0.0007440000000000001,0.018678,-23.75,-14.5,-26.68,1b
2019-07-12_121659:340,-0.236389,-0.087952,-0.410797,-0.022678,-0.008533,0.015077000000000002,-24.559998999999998,-14.75,-27.18,1b
2019-07-12_121659:360,-0.25012199999999996,-0.073212,-0.40063499999999996,-0.024326,-0.013294,0.014284,-24.559998999999998,-14.75,-27.18,1b
2019-07-12_121659:380,-0.266388,-0.070648,-0.39502,-0.025882,-0.013385,0.016663999999999998,-24.559998999999998,-14.75,-27.18,1b
2019-07-12_121659:400,-0.269958,-0.066589,-0.38739,-0.027195,-0.010517,0.017,-25.25,-15.18,-26.370001000000002,1b
2019-07-12_121659:420,-0.256744,-0.061005,-0.377747,-0.028933999999999998,-0.004169,0.015474000000000002,-25.25,-15.18,-26.370001000000002,1b
2019-07-12_121659:440,-0.248108,-0.058441,-0.375214,-0.029269999999999997,-0.00307,0.016145,-25.18,-14.75,-26.0,1b
2019-07-12_121659:460,-0.25012199999999996,-0.061005,-0.368073,-0.030979000000000003,-0.00185,0.021058,-25.18,-14.75,-26.0,1b
2019-07-12_121659:480,-0.256226,-0.065063,-0.35943600000000003,-0.031711,-0.001605,0.02292,-25.18,-14.75,-26.0,1b
2019-07-12_121659:500,-0.25827,-0.0737,-0.35180700000000004,-0.032382999999999995,0.001202,0.026307,-25.559998999999998,-16.0,-25.5,1b
2019-07-12_121659:520,-0.243011,-0.077271,-0.344696,-0.032322000000000004,0.00224,0.025178,-25.559998999999998,-16.0,-25.5,1b
2019-07-12_121659:540,-0.231812,-0.074738,-0.34317,-0.032108,0.0033689999999999996,0.021119,-25.559998999999998,-16.25,-25.18,1b
2019-07-12_121659:560,-0.21505700000000003,-0.067108,-0.35180700000000004,-0.031772,0.003003,0.019075,-25.559998999999998,-16.25,-25.18,1b
2019-07-12_121659:580,-0.208954,-0.06405599999999999,-0.360962,-0.031925,0.001202,0.02054,-25.559998999999998,-16.25,-25.18,1b
2019-07-12_121659:600,-0.259277,-0.056915,-0.397583,-0.033694999999999996,-0.0030399999999999997,0.023927,-25.559998999999998,-16.0,-24.75,1b
2019-07-12_121659:620,-0.268951,-0.057953,-0.42248500000000005,-0.038212,-0.011859,0.031068000000000002,-25.559998999999998,-16.0,-24.75,1b
2019-07-12_121659:640,-0.308075,-0.063538,-0.432159,-0.039737,-0.012897,0.031007,-26.0,-16.68,-22.75,1b
2019-07-12_121659:660,-0.316742,-0.061005,-0.46417200000000003,-0.044925,-0.012378,0.027498,-26.0,-16.68,-22.75,1b
2019-07-12_121659:680,-0.342163,-0.056427,-0.51297,-0.045566,-0.012256,0.028107999999999998,-26.0,-16.68,-22.75,1b
2019-07-12_121659:700,-0.34570300000000004,-0.053863999999999995,-0.562286,-0.0452,-0.019489,0.03293,-26.25,-17.059998999999998,-23.25,1b
2019-07-12_121659:720,-0.32995599999999997,-0.019318000000000002,-0.56839,-0.046116000000000004,-0.020465,0.03412,-26.25,-17.059998999999998,-23.25,1b
2019-07-12_121659:740,-0.272491,0.0,-0.562805,-0.046787,-0.021869,0.045015,-27.370001000000002,-17.059998999999998,-22.870001000000002,1b
2019-07-12_121659:760,-0.222687,0.017273,-0.531281,-0.041935,-0.016345,0.034730000000000004,-27.370001000000002,-17.059998999999998,-22.870001000000002,1b
2019-07-12_121659:780,-0.239441,0.036072,-0.496216,-0.036106,-0.002857,0.005922,-27.370001000000002,-17.059998999999998,-22.870001000000002,1b
2019-07-12_121659:800,-0.220642,0.103699,-0.47689799999999993,-0.030795999999999997,0.007031,-0.0075060000000000005,-27.68,-17.5,-20.870001000000002,1b
2019-07-12_121659:820,-0.208954,0.144379,-0.49468999999999996,-0.027347000000000003,0.004101,0.009126,-27.68,-17.5,-20.870001000000002,1b
2019-07-12_121659:840,-0.194214,0.148956,-0.473846,-0.025333,0.00108,0.031862,-26.870001000000002,-17.870001000000002,-21.25,1b
2019-07-12_121659:860,-0.21249400000000002,0.138794,-0.47280900000000003,-0.026798000000000002,-0.002979,0.040833999999999995,-26.870001000000002,-17.870001000000002,-21.25,1b
2019-07-12_121659:880,-0.23233,0.12506099999999998,-0.461639,-0.026676,-0.003436,0.048005,-26.870001000000002,-17.870001000000002,-21.25,1b
2019-07-12_121659:900,-0.226227,0.102692,-0.460114,-0.024265000000000002,-0.00246,0.0589,-28.059998999999998,-17.559998999999998,-20.059998999999998,1b
2019-07-12_121659:920,-0.244019,0.063019,-0.443329,-0.022007,-0.000781,0.06421,-28.059998999999998,-17.559998999999998,-20.059998999999998,1b
2019-07-12_121659:940,-0.245056,0.044739,-0.42605600000000005,-0.019565,0.003247,0.06652999999999999,-28.75,-16.059998999999998,-20.5,1b
2019-07-12_121659:960,-0.240479,0.025908999999999998,-0.387909,-0.015597999999999999,0.009411,0.070497,-28.75,-16.059998999999998,-20.5,1b
2019-07-12_121659:980,-0.23486300000000002,0.013702,-0.368073,-0.012394,0.015790000000000002,0.071626,-28.75,-16.059998999999998,-20.5,1b
2019-07-12_121700:000,-0.220642,0.007111,-0.338074,-0.010654,0.019055000000000002,0.067994,-28.75,-14.56,-20.059998999999998,1b
2019-07-12_121700:020,-0.21759,0.009125,-0.32995599999999997,-0.010074,0.01817,0.063875,-28.75,-14.56,-20.059998999999998,1b
2019-07-12_121700:040,-0.21759,0.010162000000000001,-0.326904,-0.010471,0.01402,0.061616,-31.059998999999998,-13.06,-19.559998999999998,1b
2019-07-12_121700:060,-0.21810900000000003,0.006592,-0.326904,-0.01099,0.007977,0.05783200000000001,-31.059998999999998,-13.06,-19.559998999999998,1b
2019-07-12_121700:080,-0.22879000000000002,0.004547,-0.330475,-0.012454999999999999,0.0024530000000000003,0.051789999999999996,-31.059998999999998,-13.06,-19.559998999999998,1b
2019-07-12_121700:100,-0.238434,0.0,-0.32995599999999997,-0.013125999999999999,-0.000202,0.045869,-32.68,-11.25,-18.870001000000002,1b
2019-07-12_121700:120,-0.262329,-0.010162000000000001,-0.338074,-0.013248,-0.000537,0.041566000000000006,-32.68,-11.25,-18.870001000000002,1b
2019-07-12_121700:140,-0.279633,-0.01828,-0.338074,-0.0116,0.003003,0.036927999999999996,-32.68,-10.56,-18.5,1b
2019-07-12_121700:160,-0.29995700000000003,-0.024902,-0.365021,-0.008823000000000001,0.0033079999999999997,0.029695,-32.68,-10.56,-18.5,1b
2019-07-12_121700:180,-0.314697,-0.026917,-0.38385,-0.004825,0.000134,0.022798,-32.68,-10.56,-18.5,1b
2019-07-12_121700:200,-0.365021,-0.021851,-0.414337,-0.0016820000000000001,-0.004108,0.021791,-33.369999,-8.68,-17.559998999999998,1b
2019-07-12_121700:220,-0.381317,-0.012695,-0.40774499999999997,0.000698,-0.001209,0.028107999999999998,-33.369999,-8.68,-17.559998999999998,1b
2019-07-12_121700:240,-0.29943800000000004,-0.023895,-0.40011599999999997,0.002163,0.003857,0.031679,-33.0,-8.37,-18.059998999999998,1b
2019-07-12_121700:260,-0.326904,-0.027954000000000003,-0.45907600000000004,0.000302,-0.010517,0.027894,-33.0,-8.37,-18.059998999999998,1b
2019-07-12_121700:280,-0.305542,-0.048798,-0.5211180000000001,0.000576,-0.025134,0.026155,-33.0,-8.37,-18.059998999999998,1b
2019-07-12_121700:300,-0.308075,-0.048798,-0.5617979999999999,-0.0008269999999999999,-0.044635,0.024904,-34.060001,-7.25,-17.25,1b
2019-07-12_121700:320,-0.307587,-0.05996699999999999,-0.566376,-0.001621,-0.047016,0.025697,-34.060001,-7.25,-17.25,1b
2019-07-12_121700:340,-0.233856,-0.069122,-0.517548,-0.001865,-0.03197,0.029878,-33.369999,-6.5,-18.870001000000002,1b
2019-07-12_121700:360,-0.236389,-0.069641,-0.510437,-0.0032689999999999998,-0.016437,0.037781999999999996,-33.369999,-6.5,-18.870001000000002,1b
2019-07-12_121700:380,-0.21402,-0.072693,-0.45196499999999995,-0.003788,0.0036439999999999997,0.043611000000000004,-33.369999,-6.5,-18.870001000000002,1b
2019-07-12_121700:400,-0.172333,-0.068634,-0.41586300000000004,-0.006962,0.019574,0.037324,-33.0,-5.75,-19.68,1b
2019-07-12_121700:420,-0.09963999999999999,-0.054901,-0.435699,-0.012607,0.017468,0.029358999999999996,-33.0,-5.75,-19.68,1b
2019-07-12_121700:440,-0.09963999999999999,-0.055908000000000006,-0.42758199999999996,-0.016727000000000002,0.010296,0.027375999999999998,-33.369999,-5.0,-18.5,1b
2019-07-12_121700:460,-0.169281,-0.07421900000000001,-0.42401099999999997,-0.022403,0.003064,0.027498,-33.369999,-5.0,-18.5,1b
2019-07-12_121700:480,-0.224701,-0.080322,-0.437225,-0.026523,-0.000659,0.029024,-33.369999,-5.0,-18.5,1b
2019-07-12_121700:500,-0.249115,-0.082336,-0.45196499999999995,-0.029269999999999997,-0.002979,0.033143,-33.0,-3.18,-19.25,1b
2019-07-12_121700:520,-0.263336,-0.078796,-0.45095799999999997,-0.031498000000000005,-0.004961999999999999,0.035249,-33.0,-3.18,-19.25,1b
2019-07-12_121700:540,-0.251648,-0.068115,-0.439758,-0.034824,-0.004169,0.03415,-33.060001,-2.75,-18.870001000000002,1b
2019-07-12_121700:560,-0.249115,-0.058960000000000005,-0.42807,-0.038425,-0.001911,0.034059,-33.060001,-2.75,-18.870001000000002,1b
2019-07-12_121700:580,-0.257751,-0.057434000000000006,-0.410797,-0.041324,0.000531,0.034395,-33.060001,-2.75,-18.870001000000002,1b
2019-07-12_121700:600,-0.25317399999999995,-0.054901,-0.396545,-0.044132,0.0036439999999999997,0.031892000000000004,-33.060001,-2.68,-18.5,1b
2019-07-12_121700:620,-0.240479,-0.051330999999999995,-0.374176,-0.046451,0.005902,0.029237,-33.060001,-2.68,-18.5,1b
2019-07-12_121700:640,-0.234375,-0.051849,-0.368591,-0.047977,0.006177,0.029817000000000003,-33.5,-1.56,-17.559998999999998,1b
2019-07-12_121700:660,-0.23690799999999998,-0.058441,-0.358917,-0.04871,0.005047,0.031556,-33.5,-1.56,-17.559998999999998,1b
2019-07-12_121700:680,-0.23791500000000002,-0.063538,-0.352844,-0.048649,0.003247,0.031556,-33.5,-1.56,-17.559998999999998,1b
2019-07-12_121700:700,-0.246063,-0.071686,-0.35131799999999996,-0.047245,0.001446,0.029024,-33.060001,-1.56,-16.5,1b
2019-07-12_121700:720,-0.245544,-0.071686,-0.348267,-0.04517,0.000653,0.0253,-33.060001,-1.56,-16.5,1b
2019-07-12_121700:740,-0.244019,-0.069122,-0.349792,-0.04227,-0.00014099999999999998,0.022522999999999998,-33.560001,-1.18,-16.5,1b
2019-07-12_121700:760,-0.25216700000000003,-0.068115,-0.353851,-0.03928,-0.0014529999999999999,0.021272,-33.560001,-1.18,-16.5,1b
2019-07-12_121700:780,-0.25216700000000003,-0.059479,-0.37011700000000003,-0.036686,-0.004169,0.021272,-33.560001,-1.18,-16.5,1b
2019-07-12_121700:800,-0.262848,-0.05438200000000001,-0.377747,-0.034702,-0.006885,0.021974,-33.869999,-1.18,-17.25,1b
2019-07-12_121700:820,-0.25216700000000003,-0.042694,-0.408752,-0.034183,-0.011463,0.023591,-33.869999,-1.18,-17.25,1b
2019-07-12_121700:840,-0.260284,-0.040161,-0.416382,-0.034366,-0.014362,0.023530000000000002,-34.25,-0.75,-16.370001000000002,1b
2019-07-12_121700:860,-0.30249000000000004,-0.032532,-0.462646,-0.035679,-0.01781,0.024385,-34.25,-0.75,-16.370001000000002,1b
2019-07-12_121700:880,-0.28979499999999997,-0.028442000000000002,-0.48043800000000003,-0.035892,-0.017230000000000002,0.027223,-34.25,-0.75,-16.370001000000002,1b
2019-07-12_121700:900,-0.330963,-0.019806,-0.5073850000000001,-0.035953,-0.015766,0.026246,-33.869999,-0.37,-16.370001000000002,1b
2019-07-12_121700:920,-0.386902,0.009125,-0.585693,-0.038547000000000005,-0.023150999999999998,0.029024,-33.869999,-0.37,-16.370001000000002,1b
2019-07-12_121700:940,-0.349792,0.040161,-0.564331,-0.040195,-0.019489,0.043427999999999994,-33.560001,-0.37,-18.370001000000002,1b
2019-07-12_121700:960,-0.288269,0.065063,-0.5709529999999999,-0.045963,-0.016222999999999998,0.054902,-33.560001,-0.37,-18.370001000000002,1b
2019-07-12_121700:980,-0.249115,0.09201000000000001,-0.531281,-0.050754,-0.008594,0.050722,-33.560001,-0.37,-18.370001000000002,1b
2019-07-12_121701:000,-0.227753,0.11233499999999999,-0.47079499999999996,-0.052097000000000004,0.006024,0.031952999999999995,-32.5,0.56,-17.5,1b
2019-07-12_121701:020,-0.19927999999999998,0.156067,-0.41943400000000003,-0.05243300000000001,0.021588,0.014740999999999999,-32.5,0.56,-17.5,1b
2019-07-12_121701:040,-0.171844,0.201324,-0.453003,-0.054691,0.016003,0.02411,-32.869999,2.06,-17.059998999999998,1b
2019-07-12_121701:060,-0.110321,0.192169,-0.45401,-0.054691,0.003583,0.052736,-32.869999,2.06,-17.059998999999998,1b
2019-07-12_121701:080,-0.138275,0.16217,-0.458588,-0.05579,-0.011066,0.069459,-32.869999,2.06,-17.059998999999998,1b
2019-07-12_121701:100,-0.19165,0.122528,-0.495697,-0.057254,-0.023059,0.074769,-32.560001,1.37,-16.68,1b
2019-07-12_121701:120,-0.21759,0.094055,-0.5048520000000001,-0.052341,-0.026599,0.084901,-32.560001,1.37,-16.68,1b
2019-07-12_121701:140,-0.270966,0.041168,-0.502319,-0.045841,-0.023517,0.089418,-32.560001,1.68,-19.059998999999998,1b
2019-07-12_121701:160,-0.282654,0.027435,-0.477386,-0.039675999999999996,-0.011463,0.083864,-32.560001,1.68,-19.059998999999998,1b
2019-07-12_121701:180,-0.267914,0.017273,-0.425018,-0.032169,0.003857,0.081514,-32.560001,1.68,-19.059998999999998,1b
2019-07-12_121701:200,-0.24658200000000002,0.014221000000000001,-0.392487,-0.024357,0.017865,0.083589,-32.560001,3.68,-17.059998999999998,1b
2019-07-12_121701:220,-0.20742800000000003,0.020325,-0.34063699999999997,-0.020023,0.027295,0.081941,-32.560001,3.68,-17.059998999999998,1b
2019-07-12_121701:240,-0.185547,0.021851,-0.315216,-0.018711000000000002,0.030255,0.078523,-31.5,6.0,-18.25,1b
2019-07-12_121701:260,-0.18249500000000002,0.021332,-0.305542,-0.018711000000000002,0.025891,0.07715,-31.5,6.0,-18.25,1b
2019-07-12_121701:280,-0.17996199999999998,0.020844,-0.303528,-0.019625999999999998,0.017804,0.074891,-31.5,6.0,-18.25,1b
2019-07-12_121701:300,-0.19165,0.015228,-0.30249000000000004,-0.021763,0.008282,0.067537,-31.059998999999998,7.75,-18.559998999999998,1b
2019-07-12_121701:320,-0.213531,0.009125,-0.310638,-0.023929,-4.9e-05,0.058107000000000006,-31.059998999999998,7.75,-18.559998999999998,1b
2019-07-12_121701:340,-0.24453699999999998,0.0,-0.327423,-0.024479,-0.004444,0.049928,-31.059998999999998,10.06,-17.75,1b
2019-07-12_121701:360,-0.272491,-0.008636,-0.329437,-0.022953,-0.004657,0.041901999999999995,-31.059998999999998,10.06,-17.75,1b
2019-07-12_121701:380,-0.327911,-0.014740000000000001,-0.374695,-0.020176,-0.0045049999999999995,0.034791,-31.059998999999998,10.06,-17.75,1b
2019-07-12_121701:400,-0.341644,-0.014221000000000001,-0.40774499999999997,-0.015323,-0.006854000000000001,0.030488,-30.68,11.56,-17.0,1b
2019-07-12_121701:420,-0.381317,-0.010162000000000001,-0.437225,-0.010135,-0.011035,0.027498,-30.68,11.56,-17.0,1b
2019-07-12_121701:440,-0.40570100000000003,0.001007,-0.437225,-0.007206000000000001,-0.008655,0.027558999999999997,-31.18,12.06,-18.18,1b
2019-07-12_121701:460,-0.308075,-0.001007,-0.42605600000000005,-0.005893,-0.000781,0.03293,-31.18,12.06,-18.18,1b
2019-07-12_121701:480,-0.28369099999999997,-0.028961,-0.461639,-0.0037270000000000003,-0.003986,0.030885000000000003,-31.18,12.06,-18.18,1b
2019-07-12_121701:500,-0.332489,-0.045745999999999995,-0.581635,-0.002475,-0.025867,0.019806999999999998,-30.059998999999998,12.5,-19.0,1b
2019-07-12_121701:520,-0.35180700000000004,-0.066589,-0.571442,0.001583,-0.040851,0.01288,-30.059998999999998,12.5,-19.0,1b
2019-07-12_121701:540,-0.339111,-0.079803,-0.5734859999999999,0.006954999999999999,-0.044635,0.007965999999999999,-29.25,14.0,-20.18,1b
2019-07-12_121701:560,-0.29538000000000003,-0.078278,-0.55011,0.010617,-0.03374,0.004457,-29.25,14.0,-20.18,1b
2019-07-12_121701:580,-0.199799,-0.070648,-0.503326,0.014400999999999999,-0.018482,0.006379,-29.25,14.0,-20.18,1b
2019-07-12_121701:600,-0.19622799999999999,-0.06405599999999999,-0.46469099999999997,0.016842,-0.0023989999999999997,0.007722,-28.18,13.68,-20.5,1b
2019-07-12_121701:620,-0.194214,-0.053375,-0.41232299999999994,0.015927,0.014537999999999999,0.004152,-28.18,13.68,-20.5,1b
2019-07-12_121701:640,-0.12506099999999998,-0.047272,-0.408752,0.012387,0.019055000000000002,-0.001738,-28.870001000000002,14.75,-20.5,1b
2019-07-12_121701:660,-0.09454299999999999,-0.046752999999999996,-0.396545,0.008602,0.011761,-0.00659,-28.870001000000002,14.75,-20.5,1b
2019-07-12_121701:680,-0.11080899999999999,-0.05285599999999999,-0.39859,0.003964,0.002667,-0.007109000000000001,-28.870001000000002,14.75,-20.5,1b
2019-07-12_121701:700,-0.175903,-0.069641,-0.417389,-0.000736,-0.005939,-0.003264,-29.25,14.5,-19.68,1b
2019-07-12_121701:720,-0.210968,-0.078278,-0.439758,-0.003208,-0.014422999999999998,0.0007030000000000001,-29.25,14.5,-19.68,1b
2019-07-12_121701:740,-0.248596,-0.08843999999999999,-0.443329,-0.005039,-0.019336000000000002,-0.001158,-29.25,14.75,-20.059998999999998,1b
2019-07-12_121701:760,-0.28979499999999997,-0.0849,-0.43774399999999997,-0.006229,-0.018359999999999998,-0.007567,-29.25,14.75,-20.059998999999998,1b
2019-07-12_121701:780,-0.311127,-0.076263,-0.421967,-0.007297,-0.011127,-0.011901,-29.25,14.75,-20.059998999999998,1b
2019-07-12_121701:800,-0.296906,-0.07016,-0.402649,-0.008213,-0.002704,-0.014159,-28.870001000000002,14.06,-20.870001000000002,1b
2019-07-12_121701:820,-0.265381,-0.061005,-0.373688,-0.009556,0.003735,-0.017821,-28.870001000000002,14.06,-20.870001000000002,1b
2019-07-12_121701:840,-0.24096700000000001,-0.054901,-0.355377,-0.010806999999999999,0.007092,-0.020597999999999998,-28.870001000000002,14.5,-21.18,1b
2019-07-12_121701:860,-0.21148699999999998,-0.047272,-0.333496,-0.011722,0.007031,-0.021269,-28.870001000000002,14.5,-21.18,1b
2019-07-12_121701:880,-0.19574,-0.040649,-0.327423,-0.012058,0.003247,-0.021238999999999997,-28.870001000000002,14.5,-21.18,1b
2019-07-12_121701:900,-0.19622799999999999,-0.041168,-0.32843,-0.012272,-0.001941,-0.021330000000000002,-29.68,13.25,-19.18,1b
2019-07-12_121701:920,-0.223694,-0.034546,-0.331482,-0.011387000000000001,-0.0061530000000000005,-0.021178,-29.68,13.25,-19.18,1b
2019-07-12_121701:940,-0.235382,-0.031006,-0.334534,-0.010256999999999999,-0.007281999999999999,-0.020995,-29.25,12.18,-20.059998999999998,1b
2019-07-12_121701:960,-0.26181,-0.018799,-0.356903,-0.009342,-0.0076170000000000005,-0.019744,-29.25,12.18,-20.059998999999998,1b
2019-07-12_121701:980,-0.282654,-0.009644,-0.380798,-0.009281000000000001,-0.008197,-0.014678,-29.25,12.18,-20.059998999999998,1b
2019-07-12_121702:000,-0.306061,-0.004547,-0.414337,-0.010288,-0.009876000000000001,-0.005248,-30.75,12.18,-20.5,1b
2019-07-12_121702:020,-0.324371,-0.007111,-0.427063,-0.011722,-0.009876000000000001,0.00229,-30.75,12.18,-20.5,1b
2019-07-12_121702:040,-0.303528,0.002014,-0.432648,-0.01511,-0.007129000000000001,0.004548,-30.059998999999998,11.06,-21.18,1b
2019-07-12_121702:060,-0.272003,0.009125,-0.431641,-0.018222,-0.00185,0.006868000000000001,-30.059998999999998,11.06,-21.18,1b
2019-07-12_121702:080,-0.36349499999999996,0.011169,-0.495697,-0.02103,-0.001789,0.009981,-30.059998999999998,11.06,-21.18,1b
2019-07-12_121702:100,-0.360962,0.027954000000000003,-0.587708,-0.025333,-0.020069,0.01822,-29.68,11.06,-21.68,1b
2019-07-12_121702:120,-0.36911,0.014221000000000001,-0.5323180000000001,-0.029177999999999996,-0.02486,0.032075,-29.68,11.06,-21.68,1b
2019-07-12_121702:140,-0.34368899999999997,0.013213999999999998,-0.540955,-0.032962,-0.025988999999999998,0.033723,-30.059998999999998,11.5,-21.68,1b
2019-07-12_121702:160,-0.242493,0.030487,-0.5205989999999999,-0.034946,-0.020069,0.018403,-30.059998999999998,11.5,-21.68,1b
2019-07-12_121702:180,-0.186584,0.049805,-0.506897,-0.033512,-0.018756000000000002,-0.000334,-30.059998999999998,11.5,-21.68,1b
2019-07-12_121702:200,-0.157074,0.076752,-0.46926899999999994,-0.029667000000000002,-0.017688,-0.012297,-28.870001000000002,11.5,-23.68,1b
2019-07-12_121702:220,-0.23028600000000002,0.09201000000000001,-0.451477,-0.026126999999999997,-0.012103000000000001,-0.013701,-28.870001000000002,11.5,-23.68,1b
2019-07-12_121702:240,-0.21554600000000002,0.103699,-0.48196400000000006,-0.023533000000000002,-0.010059,-0.0008230000000000001,-30.059998999999998,10.25,-23.68,1b
2019-07-12_121702:260,-0.22216799999999998,0.099121,-0.453003,-0.018711000000000002,-0.009265,0.013704,-30.059998999999998,10.25,-23.68,1b
2019-07-12_121702:280,-0.226227,0.09963999999999999,-0.44232200000000005,-0.015323,-0.007281999999999999,0.015565,-30.059998999999998,10.25,-23.68,1b
2019-07-12_121702:300,-0.228271,0.10675,-0.447906,-0.011722,-0.006488,0.012697,-29.25,9.56,-24.370001000000002,1b
2019-07-12_121702:320,-0.210968,0.10318,-0.435699,-0.007145,-0.007801000000000001,0.016541999999999998,-29.25,9.56,-24.370001000000002,1b
2019-07-12_121702:340,-0.21606399999999998,0.097107,-0.420441,-0.003849,-0.008808,0.023591,-28.559998999999998,9.56,-24.870001000000002,1b
2019-07-12_121702:360,-0.230804,0.08590700000000001,-0.395538,-0.002933,-0.006793,0.030275,-28.559998999999998,9.56,-24.870001000000002,1b
2019-07-12_121702:380,-0.23486300000000002,0.07928500000000001,-0.375702,-0.002597,-0.0015140000000000002,0.037995999999999995,-28.559998999999998,9.56,-24.870001000000002,1b
2019-07-12_121702:400,-0.226227,0.06253099999999999,-0.34570300000000004,-0.0036049999999999997,0.004315,0.045228,-29.370001000000002,11.18,-24.5,1b
2019-07-12_121702:420,-0.20538299999999998,0.053375,-0.33197,-0.004978,0.008832,0.047944,-29.370001000000002,11.18,-24.5,1b
2019-07-12_121702:440,-0.182007,0.044739,-0.31723,-0.006687,0.00935,0.04648,-29.370001000000002,11.18,-25.18,1b
2019-07-12_121702:460,-0.178955,0.039642000000000004,-0.323853,-0.008487,0.0045899999999999995,0.04297,-29.370001000000002,11.18,-25.18,1b
2019-07-12_121702:480,-0.19927999999999998,0.032532,-0.334534,-0.010135,-0.0032530000000000002,0.040254000000000005,-29.370001000000002,11.18,-25.18,1b
2019-07-12_121702:500,-0.21554600000000002,0.026917,-0.345215,-0.010745999999999999,-0.01012,0.036714,-29.370001000000002,12.68,-25.18,1b
2019-07-12_121702:520,-0.234375,0.020844,-0.364014,-0.010256999999999999,-0.012897,0.029817000000000003,-29.370001000000002,12.68,-25.18,1b
2019-07-12_121702:540,-0.266907,0.016266,-0.376221,-0.008334999999999999,-0.011798000000000001,0.021242,-28.68,13.37,-25.18,1b
2019-07-12_121702:560,-0.321808,0.014740000000000001,-0.415375,-0.004520000000000001,-0.007739,0.014619,-28.68,13.37,-25.18,1b
2019-07-12_121702:580,-0.33758499999999997,0.010651,-0.42758199999999996,0.00137,-0.00307,0.009981,-28.68,13.37,-25.18,1b
2019-07-12_121702:600,-0.36349499999999996,0.017792,-0.444855,0.007229000000000001,-0.00041500000000000006,0.004548,-29.0,13.75,-26.870001000000002,1b
2019-07-12_121702:620,-0.340118,0.031006,-0.434174,0.010922,0.002728,0.003114,-29.0,13.75,-26.870001000000002,1b
2019-07-12_121702:640,-0.29232800000000003,0.022858,-0.447388,0.014400999999999999,0.007916,0.007112,-29.370001000000002,14.18,-26.370001000000002,1b
2019-07-12_121702:660,-0.30249000000000004,0.022858,-0.546539,0.014126,-0.011371,0.00937,-29.370001000000002,14.18,-26.370001000000002,1b
2019-07-12_121702:680,-0.293335,0.000488,-0.567902,0.014644999999999998,-0.027118,0.010103000000000001,-29.370001000000002,14.18,-26.370001000000002,1b
2019-07-12_121702:700,-0.253693,-0.011169,-0.602966,0.014003999999999999,-0.047106999999999996,0.007844,-29.75,14.56,-26.870001000000002,1b
2019-07-12_121702:720,-0.268951,-0.029968,-0.584167,0.011531999999999999,-0.045551,0.009706000000000001,-29.75,14.56,-26.870001000000002,1b
2019-07-12_121702:740,-0.22164899999999998,-0.052338,-0.575012,0.008206,-0.03197,0.019319,-28.559998999999998,15.18,-27.68,1b
2019-07-12_121702:760,-0.245544,-0.07775900000000001,-0.5505979999999999,0.003964,-0.014301,0.027833,-28.559998999999998,15.18,-27.68,1b
2019-07-12_121702:780,-0.223175,-0.100647,-0.517059,0.000241,0.005719,0.028627,-28.559998999999998,15.18,-27.68,1b
2019-07-12_121702:800,-0.176422,-0.114899,-0.477905,-0.0018039999999999998,0.020763999999999998,0.016267,-28.25,17.370001000000002,-28.059998999999998,1b
2019-07-12_121702:820,-0.141327,-0.109802,-0.47180200000000005,-0.003483,0.020459,-0.001219,-28.25,17.370001000000002,-28.059998999999998,1b
2019-07-12_121702:840,-0.132172,-0.105225,-0.42807,-0.003116,0.01521,-0.009825,-28.25,16.25,-27.68,1b
2019-07-12_121702:860,-0.161652,-0.106232,-0.417908,-0.00275,0.008954,-0.008971,-28.25,16.25,-27.68,1b
2019-07-12_121702:880,-0.18454,-0.109802,-0.425018,-0.0022010000000000003,0.001263,-0.006529000000000001,-28.25,16.25,-27.68,1b
2019-07-12_121702:900,-0.199799,-0.103699,-0.40976,-0.000889,-0.004566,-0.007994,-29.0,16.559998999999998,-26.870001000000002,1b
2019-07-12_121702:920,-0.220123,-0.084381,-0.385376,0.000454,-0.006488,-0.012969,-29.0,16.559998999999998,-26.870001000000002,1b
2019-07-12_121702:940,-0.236389,-0.068634,-0.36349499999999996,0.000729,-0.002979,-0.019530000000000002,-30.18,15.87,-26.370001000000002,1b
2019-07-12_121702:960,-0.226227,-0.050323,-0.335541,-0.000339,0.0036439999999999997,-0.025237,-30.18,15.87,-26.370001000000002,1b
2019-07-12_121702:980,-0.21148699999999998,-0.042694,-0.325897,-0.002079,0.008556999999999999,-0.027159,-30.18,15.87,-26.370001000000002,1b
2019-07-12_121703:000,-0.185059,-0.039124,-0.316742,-0.003452,0.009106,-0.027037000000000002,-30.18,15.5,-26.870001000000002,1b
2019-07-12_121703:020,-0.174896,-0.033539,-0.318268,-0.004398,0.004712,-0.027219999999999998,-30.18,15.5,-26.870001000000002,1b
2019-07-12_121703:040,-0.187073,-0.034058,-0.32995599999999997,-0.005954,-0.003467,-0.025633,-31.25,15.18,-26.870001000000002,1b
2019-07-12_121703:060,-0.20486500000000002,-0.035583,-0.341125,-0.006229,-0.011768,-0.020322999999999997,-31.25,15.18,-26.870001000000002,1b
2019-07-12_121703:080,-0.246063,-0.043701,-0.361969,-0.0061070000000000004,-0.018207,-0.015165999999999999,-31.25,15.18,-26.870001000000002,1b
2019-07-12_121703:100,-0.274017,-0.040649,-0.379272,-0.005741,-0.019153,-0.013212999999999999,-31.68,14.06,-27.68,1b
2019-07-12_121703:120,-0.293335,-0.037598,-0.401123,-0.0060149999999999995,-0.015430000000000001,-0.011106999999999999,-31.68,14.06,-27.68,1b
2019-07-12_121703:140,-0.29742399999999997,-0.037598,-0.42758199999999996,-0.006962,-0.008197,-0.002593,-31.559998999999998,12.18,-28.059998999999998,1b
2019-07-12_121703:160,-0.318268,-0.035583,-0.43670699999999996,-0.007755,-0.005817,0.000642,-31.559998999999998,12.18,-28.059998999999998,1b
2019-07-12_121703:180,-0.340118,-0.038116000000000004,-0.462646,-0.010868000000000001,-0.005115,0.0071730000000000006,-31.559998999999998,12.18,-28.059998999999998,1b
2019-07-12_121703:200,-0.305054,-0.045745999999999995,-0.43011499999999997,-0.013522999999999999,-8e-05,0.01056,-32.369999,13.0,-26.870001000000002,1b
2019-07-12_121703:220,-0.257751,-0.040161,-0.437225,-0.016849,0.004529,0.005311,-32.369999,13.0,-26.870001000000002,1b
2019-07-12_121703:240,-0.21402,-0.028961,-0.46316499999999994,-0.020878,0.00227,-0.003996,-32.369999,13.0,-27.68,1b
2019-07-12_121703:260,-0.297913,-0.023895,-0.502808,-0.021366,-0.004169,-0.004515,-32.369999,13.0,-27.68,1b
2019-07-12_121703:280,-0.34674099999999997,-0.001007,-0.59433,-0.023868,-0.032276,0.005678,-32.369999,13.0,-27.68,1b
2019-07-12_121703:300,-0.379791,0.008636,-0.519073,-0.027195,-0.027973,0.013032,-32.68,13.68,-27.559998999999998,1b
2019-07-12_121703:320,-0.286224,0.029480000000000003,-0.531281,-0.030246,-0.018695,0.01291,-32.68,13.68,-27.559998999999998,1b
2019-07-12_121703:340,-0.23486300000000002,0.036072,-0.500275,-0.028201999999999998,-0.006,-0.000762,-31.18,13.0,-29.059998999999998,1b
2019-07-12_121703:360,-0.180481,0.061005,-0.452484,-0.025547,0.00285,-0.022643,-31.18,13.0,-29.059998999999998,1b
2019-07-12_121703:380,-0.174896,0.09149199999999999,-0.44995100000000005,-0.022616999999999998,0.0047729999999999995,-0.029296,-31.18,13.0,-29.059998999999998,1b
2019-07-12_121703:400,-0.172333,0.12454200000000001,-0.461639,-0.01865,-0.001575,-0.012816,-31.559998999999998,11.75,-29.559998999999998,1b
2019-07-12_121703:420,-0.189117,0.11795,-0.463654,-0.014652000000000002,-0.008411,0.005922,-31.559998999999998,11.75,-29.559998999999998,1b
2019-07-12_121703:440,-0.21505700000000003,0.115906,-0.45806899999999995,-0.012729,-0.011371,0.012147,-32.25,9.56,-29.559998999999998,1b
2019-07-12_121703:460,-0.244019,0.11538699999999999,-0.454529,-0.009525,-0.010517,0.017091,-32.25,9.56,-29.559998999999998,1b
2019-07-12_121703:480,-0.239441,0.103699,-0.45401,-0.005558,-0.00838,0.026307,-32.25,9.56,-29.559998999999998,1b
2019-07-12_121703:500,-0.236389,0.08081100000000001,-0.42758199999999996,-0.0027199999999999998,-0.004993,0.033326999999999996,-31.870001000000002,10.68,-30.25,1b
2019-07-12_121703:520,-0.24096700000000001,0.068634,-0.41232299999999994,-0.0008269999999999999,-0.0012699999999999999,0.03943,-31.870001000000002,10.68,-30.25,1b
2019-07-12_121703:540,-0.25012199999999996,0.049316000000000006,-0.369598,0.001034,0.005108,0.047395,-31.870001000000002,10.25,-29.559998999999998,1b
2019-07-12_121703:560,-0.24353000000000002,0.035583,-0.344696,0.0017050000000000001,0.011212,0.05297999999999999,-31.870001000000002,10.25,-29.559998999999998,1b
2019-07-12_121703:580,-0.21453899999999998,0.021851,-0.322327,0.0017670000000000001,0.014477,0.051332,-31.870001000000002,10.25,-29.559998999999998,1b
2019-07-12_121703:600,-0.199799,0.019806,-0.311646,0.000515,0.011334,0.044435,-32.25,12.18,-30.0,1b
2019-07-12_121703:620,-0.196747,0.019806,-0.319794,-0.000492,0.003918,0.037781999999999996,-32.25,12.18,-30.0,1b
2019-07-12_121703:640,-0.201324,0.014221000000000001,-0.318756,-0.001621,-0.0038640000000000002,0.033082,-33.369999,13.25,-30.0,1b
2019-07-12_121703:660,-0.21453899999999998,0.008118,-0.325897,-0.002872,-0.010242,0.026979000000000003,-33.369999,13.25,-30.0,1b
2019-07-12_121703:680,-0.231323,0.005065999999999999,-0.335022,-0.00275,-0.013385,0.020112,-33.369999,13.25,-30.0,1b
2019-07-12_121703:700,-0.26181,0.0,-0.349274,-0.00046100000000000004,-0.012195000000000001,0.013887,-31.870001000000002,13.68,-28.75,1b
2019-07-12_121703:720,-0.275055,0.001495,-0.377228,0.003689,-0.011585,0.008638,-31.870001000000002,13.68,-28.75,1b
2019-07-12_121703:740,-0.29995700000000003,0.004059,-0.41232299999999994,0.008662999999999999,-0.012165,0.002107,-30.370001000000002,14.75,-28.75,1b
2019-07-12_121703:760,-0.34265100000000004,0.017792,-0.43518100000000004,0.012722,-0.014240000000000001,-0.00186,-30.370001000000002,14.75,-28.75,1b
2019-07-12_121703:780,-0.344696,0.033539,-0.447388,0.014065000000000001,-0.011706999999999999,0.004671,-30.370001000000002,14.75,-28.75,1b
2019-07-12_121703:800,-0.28927600000000003,0.026917,-0.446899,0.014736,-0.007129000000000001,0.01523,-31.18,15.18,-30.0,1b
2019-07-12_121703:820,-0.33197,-0.011687999999999999,-0.506897,0.013058000000000002,-0.012317,0.015625999999999998,-31.18,15.18,-30.0,1b
2019-07-12_121703:840,-0.325897,-0.016266,-0.60553,0.011654000000000001,-0.03075,0.011231999999999999,-31.559998999999998,14.75,-29.559998999999998,1b
2019-07-12_121703:860,-0.350281,-0.049805,-0.587708,0.012539,-0.037219,0.007326000000000001,-31.559998999999998,14.75,-29.559998999999998,1b
2019-07-12_121703:880,-0.323853,-0.072693,-0.6161800000000001,0.010525,-0.038715,0.004396,-31.559998999999998,14.75,-29.559998999999998,1b
2019-07-12_121703:900,-0.2659,-0.088959,-0.576019,0.009823,-0.028582999999999997,0.005586,-30.75,15.87,-29.059998999999998,1b
2019-07-12_121703:920,-0.23895300000000003,-0.102173,-0.52417,0.008357999999999999,-0.012165,0.00992,-30.75,15.87,-29.059998999999998,1b
2019-07-12_121703:940,-0.177429,-0.115906,-0.46417200000000003,0.005764,0.0062380000000000005,0.015535,-30.059998999999998,15.87,-30.25,1b
2019-07-12_121703:960,-0.14843800000000001,-0.133698,-0.427063,0.004971,0.018323,0.015413,-30.059998999999998,15.87,-30.25,1b
2019-07-12_121703:980,-0.083374,-0.154541,-0.43518100000000004,0.004483,0.015544999999999998,0.004335,-30.059998999999998,15.87,-30.25,1b
2019-07-12_121704:000,-0.076263,-0.154022,-0.423004,0.005886,0.006299,-0.011504,-30.370001000000002,16.559998999999998,-31.059998999999998,1b
2019-07-12_121704:020,-0.102173,-0.146423,-0.41333000000000003,0.007626000000000001,-0.003711,-0.02423,-30.370001000000002,16.559998999999998,-31.059998999999998,1b
2019-07-12_121704:040,-0.137268,-0.138794,-0.41842700000000005,0.008999,-0.012042,-0.031279,-30.75,17.0,-30.0,1b
2019-07-12_121704:060,-0.170319,-0.11795,-0.432648,0.009609999999999999,-0.019733,-0.035338,-30.75,17.0,-30.0,1b
2019-07-12_121704:080,-0.19574,-0.09963999999999999,-0.431641,0.009212999999999999,-0.024311000000000003,-0.040099,-30.75,17.0,-30.0,1b
2019-07-12_121704:100,-0.235382,-0.0737,-0.418915,0.007809,-0.022724,-0.047087000000000004,-31.18,17.0,-30.25,1b
2019-07-12_121704:120,-0.249115,-0.051849,-0.40368699999999996,0.006344,-0.015581999999999999,-0.052519,-31.18,17.0,-30.25,1b
2019-07-12_121704:140,-0.243011,-0.022858,-0.386383,0.00372,-0.006854000000000001,-0.052184,-31.559998999999998,15.18,-31.559998999999998,1b
2019-07-12_121704:160,-0.233337,-0.013213999999999998,-0.373688,0.00018,-0.0008730000000000001,-0.044493,-31.559998999999998,15.18,-31.559998999999998,1b
2019-07-12_121704:180,-0.21505700000000003,-0.011687999999999999,-0.364014,-0.003849,0.001843,-0.032073000000000004,-31.559998999999998,15.18,-31.559998999999998,1b
2019-07-12_121704:200,-0.208954,-0.014221000000000001,-0.359955,-0.008091,0.001202,-0.020475999999999998,-32.25,13.68,-30.75,1b
2019-07-12_121704:220,-0.21606399999999998,-0.024384,-0.358917,-0.012058,-0.001789,-0.013884,-32.25,13.68,-30.75,1b
2019-07-12_121704:240,-0.21554600000000002,-0.034058,-0.36044299999999996,-0.015995,-0.004383,-0.011351,-33.060001,13.0,-31.059998999999998,1b
2019-07-12_121704:260,-0.21453899999999998,-0.044739,-0.35791,-0.018558,-0.006458,-0.010253,-33.060001,13.0,-31.059998999999998,1b
2019-07-12_121704:280,-0.21859699999999999,-0.051330999999999995,-0.36248800000000003,-0.019962,-0.006854000000000001,-0.010985,-33.060001,13.0,-31.059998999999998,1b
2019-07-12_121704:300,-0.230804,-0.056427,-0.36706500000000003,-0.020878,-0.005573,-0.013091,-33.369999,11.75,-31.059998999999998,1b
2019-07-12_121704:320,-0.24353000000000002,-0.054901,-0.385376,-0.02103,-0.005054,-0.011901,-33.369999,11.75,-31.059998999999998,1b
2019-07-12_121704:340,-0.262329,-0.045226999999999996,-0.420441,-0.020694,-0.006,-0.006926000000000001,-33.369999,10.68,-31.559998999999998,1b
2019-07-12_121704:360,-0.286224,-0.040649,-0.440796,-0.020878,-0.008319,-0.004729,-33.369999,10.68,-31.559998999999998,1b
2019-07-12_121704:380,-0.270966,-0.028442000000000002,-0.48706099999999997,-0.021091,-0.012256,-0.008329999999999999,-33.369999,10.68,-31.559998999999998,1b
2019-07-12_121704:400,-0.285217,-0.013702,-0.502808,-0.020878,-0.015368999999999999,-0.014495,-33.75,9.56,-31.059998999999998,1b
2019-07-12_121704:420,-0.330963,0.01828,-0.593811,-0.021427,-0.026202999999999997,-0.012969,-33.75,9.56,-31.059998999999998,1b
2019-07-12_121704:440,-0.320801,0.03302,-0.588226,-0.022831,-0.028369,0.000795,-34.5,8.06,-31.559998999999998,1b
2019-07-12_121704:460,-0.213531,0.050323,-0.61264,-0.02515,-0.031757,0.01468,-34.5,8.06,-31.559998999999998,1b
2019-07-12_121704:480,-0.201324,0.056427,-0.613129,-0.025943,-0.030688999999999998,0.012178,-34.5,8.06,-31.559998999999998,1b
2019-07-12_121704:500,-0.22879000000000002,0.075745,-0.557739,-0.022007,-0.018085,-0.010588,-33.060001,7.0,-32.0,1b
2019-07-12_121704:520,-0.268951,0.102173,-0.529266,-0.018039,0.001996,-0.036009,-33.060001,7.0,-32.0,1b
2019-07-12_121704:540,-0.209961,0.154022,-0.49926800000000005,-0.016239,0.0182,-0.031798,-32.369999,7.0,-32.25,1b
2019-07-12_121704:560,-0.1586,0.166229,-0.47433500000000006,-0.014988,0.022503,0.002046,-32.369999,7.0,-32.25,1b
2019-07-12_121704:580,-0.150482,0.12912,-0.43621800000000005,-0.013522999999999999,0.021953999999999998,0.033264999999999996,-32.369999,7.0,-32.25,1b
2019-07-12_121704:600,-0.145905,0.108276,-0.42401099999999997,-0.013858,0.018536,0.039033,-32.369999,5.06,-33.060001,1b
2019-07-12_121704:620,-0.152527,0.097107,-0.411804,-0.014438,0.010541,0.034730000000000004,-32.369999,5.06,-33.060001,1b
2019-07-12_121704:640,-0.170807,0.088959,-0.411285,-0.012943000000000001,0.001843,0.038452999999999994,-33.5,4.75,-32.25,1b
2019-07-12_121704:660,-0.21048000000000003,0.058960000000000005,-0.40316799999999997,-0.012058,-0.0032530000000000002,0.043092,-33.5,4.75,-32.25,1b
2019-07-12_121704:680,-0.23995999999999998,0.042175,-0.394012,-0.012333,-0.003375,0.042879,-33.5,4.75,-32.25,1b
2019-07-12_121704:700,-0.25827,0.029968,-0.375702,-0.011539,0.001996,0.044099,-35.0,5.87,-32.25,1b
2019-07-12_121704:720,-0.25116,0.018799,-0.361969,-0.009342,0.008435,0.045288999999999996,-35.0,5.87,-32.25,1b
2019-07-12_121704:740,-0.220642,0.012695,-0.348267,-0.007877,0.011426,0.04004,-33.5,6.56,-31.5,1b
2019-07-12_121704:760,-0.205902,0.014221000000000001,-0.34265100000000004,-0.006076,0.009839,0.032472,-33.5,6.56,-31.5,1b
2019-07-12_121704:780,-0.192169,0.018799,-0.339111,-0.0033299999999999996,0.005169,0.028169,-33.5,6.56,-31.5,1b
2019-07-12_121704:800,-0.19927999999999998,0.019806,-0.34063699999999997,-0.000797,-0.000659,0.025422,-34.560001,7.0,-30.370001000000002,1b
2019-07-12_121704:820,-0.226227,0.020844,-0.34317,0.001034,-0.004108,0.021669,-34.560001,7.0,-30.370001000000002,1b
2019-07-12_121704:840,-0.248108,0.023375999999999997,-0.34265100000000004,0.0028350000000000003,-0.0037719999999999997,0.019655000000000002,-33.5,8.06,-30.870001000000002,1b
2019-07-12_121704:860,-0.287231,0.019318000000000002,-0.361969,0.004574,-0.0021850000000000003,0.017946,-33.5,8.06,-30.870001000000002,1b
2019-07-12_121704:880,-0.290802,0.019318000000000002,-0.385864,0.006558,-0.0014529999999999999,0.014436000000000001,-33.5,8.06,-30.870001000000002,1b
2019-07-12_121704:900,-0.325897,0.022858,-0.41485600000000006,0.008084000000000001,-0.002918,0.01291,-35.0,8.5,-31.68,1b
2019-07-12_121704:920,-0.34063699999999997,0.025421,-0.438751,0.009212999999999999,-0.005756,0.018129,-35.0,8.5,-31.68,1b
2019-07-12_121704:940,-0.322845,0.014221000000000001,-0.44638100000000003,0.009945,-0.0037719999999999997,0.022584,-34.18,8.75,-30.870001000000002,1b
2019-07-12_121704:960,-0.279114,0.001007,-0.460114,0.008267,-0.0020629999999999997,0.01819,-34.18,8.75,-30.870001000000002,1b
2019-07-12_121704:980,-0.36654699999999996,-0.025908999999999998,-0.525177,0.0077480000000000005,-0.008869,0.010316,-34.18,8.75,-30.870001000000002,1b
2019-07-12_121705:000,-0.30249000000000004,-0.046752999999999996,-0.604004,0.008297,-0.030048000000000002,0.008729,-34.869999,9.56,-31.559998999999998,1b
2019-07-12_121705:020,-0.334015,-0.063538,-0.531799,0.011746,-0.026843000000000002,0.006318,-34.869999,9.56,-31.559998999999998,1b
2019-07-12_121705:040,-0.28875700000000004,-0.072174,-0.557739,0.010342,-0.021533,0.004152,-34.060001,10.25,-32.060001,1b
2019-07-12_121705:060,-0.223175,-0.07775900000000001,-0.49823,0.012478,-0.0032530000000000002,0.01169,-34.060001,10.25,-32.060001,1b
2019-07-12_121705:080,-0.156586,-0.096588,-0.42858900000000005,0.010922,0.014537999999999999,0.020600999999999998,-34.060001,10.25,-32.060001,1b
2019-07-12_121705:100,-0.161163,-0.101685,-0.44281000000000004,0.008206,0.019909,0.025636000000000003,-33.369999,10.25,-32.25,1b
2019-07-12_121705:120,-0.128601,-0.130646,-0.462646,0.007137999999999999,0.011090000000000001,0.023256,-33.369999,10.25,-32.25,1b
2019-07-12_121705:140,-0.153015,-0.130646,-0.448425,0.006770999999999999,-0.0012699999999999999,0.005922,-34.869999,11.5,-30.75,1b
2019-07-12_121705:160,-0.194214,-0.115906,-0.44995100000000005,0.004574,-0.010456,-0.013091,-34.869999,11.5,-30.75,1b
2019-07-12_121705:180,-0.226227,-0.103699,-0.446899,0.004483,-0.013628999999999999,-0.020597999999999998,-34.869999,11.5,-30.75,1b
2019-07-12_121705:200,-0.24963400000000002,-0.091003,-0.44891400000000004,0.004086,-0.014422999999999998,-0.023772,-34.5,11.06,-31.059998999999998,1b
2019-07-12_121705:220,-0.268433,-0.072693,-0.43621800000000005,0.0035670000000000003,-0.011463,-0.030211000000000002,-34.5,11.06,-31.059998999999998,1b
2019-07-12_121705:240,-0.278595,-0.047791,-0.402649,0.0032920000000000002,-0.004566,-0.036193,-34.75,10.25,-31.059998999999998,1b
2019-07-12_121705:260,-0.273529,-0.03302,-0.375702,0.003781,0.005169,-0.038237,-34.75,10.25,-31.059998999999998,1b
2019-07-12_121705:280,-0.25012199999999996,-0.014740000000000001,-0.34063699999999997,0.003048,0.013684,-0.036588999999999997,-34.75,10.25,-31.059998999999998,1b
2019-07-12_121705:300,-0.233337,-0.006072999999999999,-0.323853,0.001583,0.018323,-0.030486000000000003,-35.18,10.25,-31.059998999999998,1b
2019-07-12_121705:320,-0.20742800000000003,-0.0035399999999999997,-0.314178,-0.000797,0.017131999999999998,-0.021666,-35.18,10.25,-31.059998999999998,1b
2019-07-12_121705:340,-0.197266,-0.010162000000000001,-0.311646,-0.003147,0.012005,-0.014006000000000001,-36.25,7.37,-30.25,1b
2019-07-12_121705:360,-0.21148699999999998,-0.019318000000000002,-0.321808,-0.0061070000000000004,0.004376,-0.009093,-36.25,7.37,-30.25,1b
2019-07-12_121705:380,-0.21505700000000003,-0.025421,-0.327423,-0.008487,-0.001209,-0.005278,-36.25,7.37,-30.25,1b
2019-07-12_121705:400,-0.23895300000000003,-0.032532,-0.330475,-0.010256999999999999,-0.002857,-0.003478,-36.68,7.0,-30.0,1b
2019-07-12_121705:420,-0.258759,-0.034546,-0.339111,-0.011783,7.3e-05,-0.0034170000000000003,-36.68,7.0,-30.0,1b
2019-07-12_121705:440,-0.28369099999999997,-0.032013,-0.374695,-0.013522999999999999,0.0020570000000000002,-0.0016769999999999999,-37.5,6.56,-29.059998999999998,1b
2019-07-12_121705:460,-0.315704,-0.036591000000000005,-0.399597,-0.014835,-0.000324,0.003694,-37.5,6.56,-29.059998999999998,1b
2019-07-12_121705:480,-0.344696,-0.036591000000000005,-0.42807,-0.016117,-0.003833,0.006654,-37.5,6.56,-29.059998999999998,1b
2019-07-12_121705:500,-0.36349499999999996,-0.031494,-0.417908,-0.016239,-0.001789,0.0037549999999999997,-37.869999,5.87,-29.559998999999998,1b
2019-07-12_121705:520,-0.368591,-0.015747,-0.43774399999999997,-0.016452,0.0024530000000000003,-0.000731,-37.869999,5.87,-29.559998999999998,1b
2019-07-12_121705:540,-0.380798,0.0055850000000000006,-0.5343319999999999,-0.016788,-0.012256,0.002687,-37.869999,5.5,-30.0,1b
2019-07-12_121705:560,-0.355896,0.014740000000000001,-0.526215,-0.017582,-0.025379,0.01523,-37.869999,5.5,-30.0,1b
2019-07-12_121705:580,-0.28979499999999997,0.019806,-0.541443,-0.020084,-0.037067,0.024843,-37.869999,5.5,-30.0,1b
2019-07-12_121705:600,-0.282654,0.034058,-0.549072,-0.019901,-0.039112,0.020265000000000002,-38.25,5.87,-30.0,1b
2019-07-12_121705:620,-0.244019,0.054901,-0.53891,-0.017978,-0.034473000000000004,0.0026260000000000003,-38.25,5.87,-30.0,1b
2019-07-12_121705:640,-0.262848,0.097107,-0.516541,-0.015384,-0.026996,-0.010985,-36.75,5.06,-32.0,1b
2019-07-12_121705:660,-0.282654,0.11233499999999999,-0.47280900000000003,-0.012943000000000001,-0.009998,-0.004393,-36.75,5.06,-32.0,1b
2019-07-12_121705:680,-0.22116100000000002,0.12454200000000001,-0.446899,-0.012394,0.0053219999999999995,0.018281,-36.75,5.06,-32.0,1b
2019-07-12_121705:700,-0.180481,0.115906,-0.429596,-0.013125999999999999,0.009807999999999999,0.038179000000000005,-36.369999,4.06,-32.25,1b
2019-07-12_121705:720,-0.169281,0.09963999999999999,-0.406219,-0.014835,0.007306,0.042116,-36.369999,4.06,-32.25,1b
2019-07-12_121705:740,-0.189117,0.09201000000000001,-0.40823400000000004,-0.016788,0.000348,0.03766,-37.060001,4.5,-32.0,1b
2019-07-12_121705:760,-0.193695,0.07928500000000001,-0.414337,-0.017307,-0.007923000000000001,0.036043,-37.060001,4.5,-32.0,1b
2019-07-12_121705:780,-0.213013,0.064545,-0.409271,-0.016788,-0.014057,0.036806,-37.060001,4.5,-32.0,1b
2019-07-12_121705:800,-0.24096700000000001,0.044219999999999995,-0.40316799999999997,-0.016239,-0.016681,0.038576,-37.5,5.56,-31.559998999999998,1b
2019-07-12_121705:820,-0.26181,0.034058,-0.392487,-0.013981,-0.013568,0.042116,-37.5,5.56,-31.559998999999998,1b
2019-07-12_121705:840,-0.26944,0.021851,-0.36911,-0.011387000000000001,-0.006793,0.045167,-36.369999,5.56,-31.5,1b
2019-07-12_121705:860,-0.264374,0.017273,-0.353851,-0.008823000000000001,-0.00014099999999999998,0.04535,-36.369999,5.56,-31.5,1b
2019-07-12_121705:880,-0.24758899999999998,0.014221000000000001,-0.337067,-0.006229,0.003583,0.042482,-36.369999,5.56,-31.5,1b
2019-07-12_121705:900,-0.230804,0.016753999999999998,-0.327423,-0.004184,0.004712,0.039583,-36.369999,6.0,-32.25,1b
2019-07-12_121705:920,-0.21554600000000002,0.013213999999999998,-0.327911,-0.002536,0.001599,0.038392,-36.369999,6.0,-32.25,1b
2019-07-12_121705:940,-0.21911599999999998,0.007599,-0.330963,-0.001621,-0.0031309999999999997,0.036927999999999996,-38.25,7.5,-32.75,1b
2019-07-12_121705:960,-0.226746,0.002014,-0.345215,-0.001194,-0.007465,0.033479,-38.25,7.5,-32.75,1b
2019-07-12_121705:980,-0.245544,0.0,-0.349274,5.7999999999999994e-05,-0.009143,0.028566,-38.25,7.5,-32.75,1b
2019-07-12_121706:000,-0.29284699999999997,-0.009125,-0.358429,0.0014609999999999998,-0.005725,0.023712999999999998,-36.68,9.18,-31.059998999999998,1b
2019-07-12_121706:020,-0.29486100000000004,-0.015747,-0.38028,0.003048,-0.001392,0.019136,-36.68,9.18,-31.059998999999998,1b
2019-07-12_121706:040,-0.33758499999999997,-0.026427999999999997,-0.411285,0.0045130000000000005,-0.00072,0.014009,-36.68,9.18,-32.75,1b
2019-07-12_121706:060,-0.356903,-0.029968,-0.433655,0.00549,-0.004169,0.010376999999999999,-36.68,9.18,-32.75,1b
2019-07-12_121706:080,-0.305542,-0.039642000000000004,-0.423492,0.007168000000000001,-0.00014099999999999998,0.009981,-36.68,9.18,-32.75,1b
2019-07-12_121706:100,-0.314178,-0.051330999999999995,-0.43621800000000005,0.005429,-0.002857,0.012147,-37.75,10.68,-32.0,1b
2019-07-12_121706:120,-0.305054,-0.086914,-0.59433,0.004849,-0.021533,0.017061,-37.75,10.68,-32.0,1b
2019-07-12_121706:140,-0.31723,-0.083862,-0.592804,0.005215,-0.037219,0.012086,-37.369999,11.06,-32.0,1b
2019-07-12_121706:160,-0.275543,-0.085388,-0.574005,0.004696,-0.042377,-0.002989,-37.369999,11.06,-32.0,1b
2019-07-12_121706:180,-0.20944200000000002,-0.082855,-0.565338,0.002987,-0.03017,-0.013701,-37.369999,11.06,-32.0,1b
2019-07-12_121706:200,-0.25216700000000003,-0.080322,-0.572968,0.001126,-0.019091999999999998,-0.008695999999999999,-36.25,11.06,-32.0,1b
2019-07-12_121706:220,-0.262329,-0.097107,-0.553162,0.001126,-0.006336,-0.002349,-36.25,11.06,-32.0,1b
2019-07-12_121706:240,-0.269958,-0.104706,-0.508911,0.000393,0.008832,-0.014037,-36.68,11.06,-33.060001,1b
2019-07-12_121706:260,-0.194702,-0.080322,-0.47943100000000005,0.000973,0.017529,-0.02603,-36.68,11.06,-33.060001,1b
2019-07-12_121706:280,-0.158112,-0.068115,-0.444855,0.0035060000000000004,0.021190999999999998,-0.024169,-36.68,11.06,-33.060001,1b
2019-07-12_121706:300,-0.134705,-0.065582,-0.41995200000000005,0.00491,0.017377,-0.019469,-36.560001,11.5,-32.0,1b
2019-07-12_121706:320,-0.149963,-0.06253099999999999,-0.420441,0.004177,0.008282,-0.015624,-36.560001,11.5,-32.0,1b
2019-07-12_121706:340,-0.17337,-0.056915,-0.41384899999999997,0.004299,0.000348,-0.008055,-37.25,10.0,-31.559998999999998,1b
2019-07-12_121706:360,-0.197266,-0.054901,-0.395538,0.004177,-0.003192,-0.004546,-37.25,10.0,-31.559998999999998,1b
2019-07-12_121706:380,-0.241486,-0.046752999999999996,-0.371643,0.001583,-0.001209,-0.009429,-37.25,10.0,-31.559998999999998,1b
2019-07-12_121706:400,-0.264862,-0.040161,-0.358429,-0.000553,0.006116,-0.015074,-38.369999,10.25,-32.0,1b
2019-07-12_121706:420,-0.262848,-0.038635,-0.334015,-0.002659,0.014537999999999999,-0.018675,-38.369999,10.25,-32.0,1b
2019-07-12_121706:440,-0.257751,-0.037108999999999996,-0.32843,-0.004764,0.017987,-0.020781,-38.75,8.5,-31.059998999999998,1b
2019-07-12_121706:460,-0.260803,-0.034546,-0.330963,-0.006626000000000001,0.013744999999999999,-0.019530000000000002,-38.75,8.5,-31.059998999999998,1b
2019-07-12_121706:480,-0.24758899999999998,-0.035065,-0.33605999999999997,-0.006962,0.004925,-0.01715,-38.75,8.5,-31.059998999999998,1b
2019-07-12_121706:500,-0.23995999999999998,-0.035065,-0.334015,-0.007145,-0.005298,-0.016538999999999998,-39.18,8.06,-31.059998999999998,1b
2019-07-12_121706:520,-0.23486300000000002,-0.030487,-0.334534,-0.007755,-0.014301,-0.013365,-39.18,8.06,-31.059998999999998,1b
2019-07-12_121706:540,-0.226746,-0.031006,-0.34265100000000004,-0.007358,-0.021197999999999998,-0.006468000000000001,-39.560001,8.5,-30.75,1b
2019-07-12_121706:560,-0.216583,-0.038116000000000004,-0.353333,-0.006626000000000001,-0.025867,-0.003264,-39.560001,8.5,-30.75,1b
2019-07-12_121706:580,-0.220123,-0.037108999999999996,-0.37011700000000003,-0.0065650000000000005,-0.028186000000000003,-0.004912,-39.560001,8.5,-30.75,1b
2019-07-12_121706:600,-0.23028600000000002,-0.035065,-0.37674,-0.005893,-0.028644,-0.0051259999999999995,-39.560001,6.56,-31.059998999999998,1b
2019-07-12_121706:620,-0.270477,-0.031006,-0.40774499999999997,-0.006229,-0.026720999999999998,-0.00186,-39.560001,6.56,-31.059998999999998,1b
2019-07-12_121706:640,-0.286224,-0.031494,-0.41943400000000003,-0.008732,-0.023853,0.002687,-39.18,6.25,-32.0,1b
2019-07-12_121706:660,-0.28979499999999997,-0.046265,-0.429108,-0.012272,-0.016712,0.006379,-39.18,6.25,-32.0,1b
2019-07-12_121706:680,-0.281647,-0.049805,-0.439758,-0.015903,-0.012592,0.006868000000000001,-39.18,6.25,-32.0,1b
2019-07-12_121706:700,-0.195221,-0.058960000000000005,-0.448425,-0.017765,-0.008197,0.003175,-38.75,6.56,-32.25,1b
2019-07-12_121706:720,-0.188599,-0.054901,-0.461121,-0.017825999999999998,-0.013628999999999999,-0.007598000000000001,-38.75,6.56,-32.25,1b
2019-07-12_121706:740,-0.21911599999999998,-0.046265,-0.500275,-0.017307,-0.028827,-0.009184000000000001,-38.75,5.06,-32.68,1b
2019-07-12_121706:760,-0.395538,-0.009644,-0.6177060000000001,-0.018253,-0.036548000000000004,-0.004454,-38.75,5.06,-32.68,1b
2019-07-12_121706:780,-0.323334,-0.008118,-0.5617979999999999,-0.021091,-0.025318,0.010255,-38.75,5.06,-32.68,1b
2019-07-12_121706:800,-0.323334,0.006072999999999999,-0.5795899999999999,-0.022678,-0.021533,0.004091,-36.869999,5.06,-32.0,1b
2019-07-12_121706:820,-0.30654899999999996,0.014221000000000001,-0.5572199999999999,-0.020694,-0.009326000000000001,-0.014830000000000001,-36.869999,5.06,-32.0,1b
2019-07-12_121706:840,-0.195221,0.041687,-0.481476,-0.019108,-0.003192,-0.024657,-37.68,3.56,-34.25,1b
2019-07-12_121706:860,-0.149963,0.06149299999999999,-0.433655,-0.013522999999999999,0.01228,-0.032408,-37.68,3.56,-34.25,1b
2019-07-12_121706:880,-0.150482,0.088959,-0.431641,-0.012912,0.004651,-0.008177,-37.68,3.56,-34.25,1b
2019-07-12_121706:900,-0.141327,0.08590700000000001,-0.461121,-0.011387000000000001,-0.0012699999999999999,0.008454999999999999,-37.25,2.06,-34.0,1b
2019-07-12_121706:920,-0.157074,0.037598,-0.45043900000000003,-0.005436,-0.016681,0.028352,-37.25,2.06,-34.0,1b
2019-07-12_121706:940,-0.19775399999999999,0.019318000000000002,-0.46670500000000004,-0.004520000000000001,-0.019367,0.024049,-37.75,2.06,-33.869999,1b
2019-07-12_121706:960,-0.258759,0.015747,-0.47995,0.002957,-0.018024000000000002,0.023438999999999998,-37.75,2.06,-33.869999,1b
2019-07-12_121706:980,-0.264862,0.009644,-0.489594,0.00787,-0.012714,0.028962,-37.75,2.06,-33.869999,1b
2019-07-12_121707:000,-0.260284,-0.004547,-0.477386,0.008023,-0.00719,0.027498,-37.75,3.25,-34.0,1b
2019-07-12_121707:020,-0.260803,-0.007599,-0.46060200000000007,0.008145,-0.0009339999999999999,0.029207,-37.75,3.25,-34.0,1b
2019-07-12_121707:040,-0.278595,-0.012177,-0.429108,0.008297,0.007367,0.031952999999999995,-37.369999,4.0,-34.68,1b
2019-07-12_121707:060,-0.283173,-0.020844,-0.402649,0.006741,0.014996,0.026826,-37.369999,4.0,-34.68,1b
2019-07-12_121707:080,-0.2547,-0.019806,-0.368591,0.0038420000000000004,0.01878,0.019594,-37.369999,4.0,-34.68,1b
2019-07-12_121707:100,-0.231323,-0.017273,-0.35131799999999996,0.0028350000000000003,0.018597,0.017793,-37.0,5.5,-34.0,1b
2019-07-12_121707:120,-0.20843499999999998,-0.018799,-0.335541,5.7999999999999994e-05,0.012402,0.016603,-37.0,5.5,-34.0,1b
2019-07-12_121707:140,-0.201324,-0.022858,-0.330475,-0.0008269999999999999,0.009411,0.015413,-38.18,6.56,-34.0,1b
2019-07-12_121707:160,-0.212006,-0.024384,-0.330963,-0.0019260000000000002,-8e-05,0.01111,-38.18,6.56,-34.0,1b
2019-07-12_121707:180,-0.233337,-0.027954000000000003,-0.335022,-0.000492,-0.0020629999999999997,0.009035,-38.18,6.56,-34.0,1b
2019-07-12_121707:200,-0.233856,-0.028961,-0.337067,0.001187,-0.002582,0.00525,-38.18,7.0,-33.060001,1b
2019-07-12_121707:220,-0.249115,-0.028961,-0.35739099999999996,0.003781,-0.0032530000000000002,0.0008560000000000001,-38.18,7.0,-33.060001,1b
2019-07-12_121707:240,-0.264862,-0.027954000000000003,-0.377228,0.005215,-0.0037719999999999997,-0.000884,-38.869999,6.25,-32.25,1b
2019-07-12_121707:260,-0.295898,-0.030487,-0.41384899999999997,0.010159,-0.008808,-0.00479,-38.869999,6.25,-32.25,1b
2019-07-12_121707:280,-0.32132,-0.024902,-0.438751,0.012142,-0.011035,-0.0036609999999999998,-38.869999,6.25,-32.25,1b
2019-07-12_121707:300,-0.364532,-0.008118,-0.438751,0.012875,-0.01012,-0.001616,-38.5,7.0,-32.75,1b
2019-07-12_121707:320,-0.329437,-0.002014,-0.430634,0.0126,-0.000537,0.002321,-38.5,7.0,-32.75,1b
2019-07-12_121707:340,-0.29995700000000003,-0.010651,-0.45196499999999995,0.011470999999999999,-0.0015140000000000002,0.001314,-38.869999,7.0,-32.0,1b
2019-07-12_121707:360,-0.26944,-0.002014,-0.531281,0.009823,-0.022724,0.004152,-38.869999,7.0,-32.0,1b
2019-07-12_121707:380,-0.311646,-0.032532,-0.521637,0.010403,-0.033435,0.002321,-38.869999,7.0,-32.0,1b
2019-07-12_121707:400,-0.327423,-0.043701,-0.558228,0.009945,-0.035266000000000006,0.0019850000000000002,-38.869999,7.0,-32.0,1b
2019-07-12_121707:420,-0.318756,-0.050323,-0.5556949999999999,0.013394,-0.022479,0.012483,-38.869999,7.0,-32.0,1b
2019-07-12_121707:440,-0.278107,-0.061005,-0.520111,0.013850999999999999,-0.015552000000000002,0.016206,-38.869999,7.0,-32.0,1b
2019-07-12_121707:460,-0.25116,-0.057434000000000006,-0.488068,0.011470999999999999,0.004193,0.027039999999999998,-38.5,7.37,-34.0,1b
2019-07-12_121707:480,-0.197266,-0.053863999999999995,-0.446899,0.008754999999999999,0.018841,0.031343,-38.5,7.37,-34.0,1b
2019-07-12_121707:500,-0.106232,-0.056915,-0.37316900000000003,0.006770999999999999,0.024762,0.029542000000000002,-37.75,8.75,-34.0,1b
2019-07-12_121707:520,-0.075226,-0.056427,-0.363007,-0.003544,0.021161000000000003,0.017793,-37.75,8.75,-34.0,1b
2019-07-12_121707:540,-0.066589,-0.054901,-0.40774499999999997,-0.00629,0.013866999999999999,0.017396000000000002,-38.18,9.56,-31.5,1b
2019-07-12_121707:560,-0.094055,-0.068634,-0.41995200000000005,-0.013125999999999999,-0.006397,0.021119,-38.18,9.56,-31.5,1b
2019-07-12_121707:580,-0.165222,-0.08996599999999999,-0.444855,-0.016909999999999998,-0.016162,0.021333,-38.18,9.56,-31.5,1b
2019-07-12_121707:600,-0.235382,-0.094055,-0.470276,-0.018039,-0.018756000000000002,0.021242,-38.75,11.5,-32.0,1b
2019-07-12_121707:620,-0.278107,-0.09149199999999999,-0.490112,-0.020359,-0.016559,0.022798,-38.75,11.5,-32.0,1b
2019-07-12_121707:640,-0.278107,-0.089478,-0.48858599999999996,-0.020633000000000002,-0.014301,0.021455000000000002,-37.75,11.06,-32.25,1b
2019-07-12_121707:660,-0.274017,-0.072174,-0.475372,-0.023227,-0.005451,0.015137999999999999,-37.75,11.06,-32.25,1b
2019-07-12_121707:680,-0.25827,-0.06149299999999999,-0.453491,-0.023288,0.000195,0.014223,-37.75,11.06,-32.25,1b
2019-07-12_121707:700,-0.23995999999999998,-0.044219999999999995,-0.42248500000000005,-0.023533000000000002,0.001996,0.014284,-37.75,11.5,-31.5,1b
2019-07-12_121707:720,-0.22979699999999997,-0.036072,-0.402649,-0.025394,0.005658,0.016817,-37.75,11.5,-31.5,1b
2019-07-12_121707:740,-0.20385699999999998,-0.026427999999999997,-0.384338,-0.026188,0.005902,0.019258,-37.75,11.5,-31.5,1b
2019-07-12_121707:760,-0.201843,-0.024384,-0.381805,-0.029177999999999996,0.002514,0.029602999999999997,-38.5,11.5,-33.060001,1b
2019-07-12_121707:780,-0.208954,-0.029480000000000003,-0.382324,-0.030124,0.00108,0.032533,-38.5,11.5,-33.060001,1b
2019-07-12_121707:800,-0.220642,-0.034058,-0.384338,-0.03223,-0.000995,0.036989,-38.5,11.06,-32.25,1b
2019-07-12_121707:820,-0.235382,-0.043701,-0.390961,-0.033298,-0.0017280000000000002,0.040101,-38.5,11.06,-32.25,1b
2019-07-12_121707:840,-0.240479,-0.047272,-0.392487,-0.034427,-0.000995,0.042512,-37.369999,11.75,-32.0,1b
2019-07-12_121707:860,-0.250641,-0.051849,-0.390961,-0.035556,0.001843,0.045808,-37.369999,11.75,-32.0,1b
2019-07-12_121707:880,-0.24706999999999998,-0.051849,-0.393494,-0.039219,0.0027890000000000002,0.054627999999999996,-37.369999,11.75,-32.0,1b
2019-07-12_121707:900,-0.23028600000000002,-0.057434000000000006,-0.40368699999999996,-0.040989,0.001996,0.057771,-37.75,11.5,-32.0,1b
2019-07-12_121707:920,-0.22216799999999998,-0.059479,-0.410797,-0.047702,-0.004108,0.061555,-37.75,11.5,-32.0,1b
2019-07-12_121707:940,-0.200317,-0.067108,-0.429596,-0.049625,-0.005451,0.060762000000000004,-37.75,11.5,-32.0,1b
2019-07-12_121707:960,-0.21505700000000003,-0.068634,-0.44995100000000005,-0.054081,-0.008990999999999999,0.053041,-37.75,12.56,-31.5,1b
2019-07-12_121707:980,-0.287231,-0.07016,-0.477905,-0.054751999999999995,-0.008808,0.051210000000000006,-37.75,12.56,-31.5,1b
2019-07-12_121708:000,-0.334015,-0.063019,-0.515533,-0.05582,-0.010181,0.052064,-37.0,12.56,-32.75,1b
2019-07-12_121708:020,-0.36911,-0.046752999999999996,-0.523651,-0.056186,-0.009784000000000001,0.056977999999999994,-37.0,12.56,-32.75,1b
2019-07-12_121708:040,-0.344696,-0.034546,-0.420441,-0.05521,0.013012000000000001,0.053499,-36.68,12.5,-33.5,1b
2019-07-12_121708:060,-0.190125,0.010162000000000001,-0.40368699999999996,-0.055088,0.026623,0.043825,-36.68,12.5,-33.5,1b
2019-07-12_121708:080,-0.117432,0.040649,-0.431122,-0.051883000000000006,0.007428,0.036195,-36.68,12.5,-33.5,1b
2019-07-12_121708:100,-0.09811399999999999,0.074738,-0.452484,-0.051639,-0.003925,0.035920999999999995,-35.869999,14.0,-33.5,1b
2019-07-12_121708:120,-0.140808,0.09201000000000001,-0.461639,-0.051609,-0.028827,0.039766,-35.869999,14.0,-33.5,1b
2019-07-12_121708:140,-0.212006,0.115906,-0.48553500000000005,-0.052097000000000004,-0.03197,0.044099,-35.869999,14.0,-33.5,1b
2019-07-12_121708:160,-0.246063,0.12200899999999999,-0.49111899999999997,-0.052951,-0.02547,0.064729,-36.68,13.18,-33.060001,1b
2019-07-12_121708:180,-0.24963400000000002,0.116425,-0.496216,-0.053226,-0.020893000000000002,0.071107,-36.68,13.18,-33.060001,1b
2019-07-12_121708:200,-0.236389,0.10775799999999999,-0.49722299999999997,-0.054020000000000006,-0.012775,0.080446,-35.18,14.0,-35.060001,1b
2019-07-12_121708:220,-0.201843,0.08743300000000001,-0.484009,-0.053165,-0.007281999999999999,0.088838,-35.18,14.0,-35.060001,1b
2019-07-12_121708:240,-0.17944300000000002,0.072174,-0.47180200000000005,-0.051639,-0.005115,0.092927,-35.18,14.0,-35.060001,1b
2019-07-12_121708:260,-0.172333,0.057953,-0.45806899999999995,-0.051273,-0.005115,0.092348,-34.369999,13.56,-35.869999,1b
2019-07-12_121708:280,-0.177429,0.047272,-0.45806899999999995,-0.049777999999999996,-0.00539,0.090669,-34.369999,13.56,-35.869999,1b
2019-07-12_121708:300,-0.185547,0.043213,-0.455017,-0.047641,-0.005634,0.087953,-32.18,14.68,-36.560001,1b
2019-07-12_121708:320,-0.19165,0.045745999999999995,-0.453003,-0.045566,-0.005756,0.082643,-32.18,14.68,-36.560001,1b
2019-07-12_121708:340,-0.201324,0.049805,-0.455017,-0.043461,-0.005573,0.077669,-32.18,14.68,-36.560001,1b
2019-07-12_121708:360,-0.20742800000000003,0.05438200000000001,-0.45654300000000003,-0.040867,-0.005115,0.073884,-31.5,15.37,-35.369999,1b
2019-07-12_121708:380,-0.21554600000000002,0.06149299999999999,-0.457581,-0.038669,-0.004566,0.06991699999999999,-31.5,15.37,-35.369999,1b
2019-07-12_121708:400,-0.21911599999999998,0.065582,-0.45806899999999995,-0.036808,-0.003436,0.066133,-30.0,17.18,-37.0,1b
2019-07-12_121708:420,-0.217072,0.071167,-0.453491,-0.034885,-0.0012699999999999999,0.063722,-30.0,17.18,-37.0,1b
2019-07-12_121708:440,-0.213531,0.0737,-0.45196499999999995,-0.033694999999999996,0.0007440000000000001,0.062074000000000004,-30.0,17.18,-37.0,1b
2019-07-12_121708:460,-0.21453899999999998,0.0737,-0.44433599999999995,-0.032566000000000005,0.002514,0.061738,-29.18,17.559998999999998,-37.869999,1b
2019-07-12_121708:480,-0.21249400000000002,0.07016,-0.43621800000000005,-0.031376,0.004895,0.061464,-29.18,17.559998999999998,-37.869999,1b
2019-07-12_121708:500,-0.216583,0.068634,-0.445862,-0.030307,0.004651,0.05948,-28.870001000000002,18.25,-37.869999,1b
2019-07-12_121708:520,-0.224701,0.067108,-0.43823199999999995,-0.028537,0.004376,0.058503999999999994,-28.870001000000002,18.25,-37.869999,1b
2019-07-12_121708:540,-0.230804,0.065063,-0.44232200000000005,-0.027195,0.003979,0.058289999999999995,-28.870001000000002,18.25,-37.869999,1b
2019-07-12_121708:560,-0.23690799999999998,0.065063,-0.43823199999999995,-0.025394,0.004712,0.057710000000000004,-27.059998999999998,18.68,-38.560001,1b
2019-07-12_121708:580,-0.236389,0.069122,-0.44027700000000003,-0.023746,0.004895,0.056305999999999995,-27.059998999999998,18.68,-38.560001,1b
2019-07-12_121708:600,-0.239441,0.076752,-0.43823199999999995,-0.022739,0.004497999999999999,0.055390999999999996,-28.18,19.370001000000002,-38.18,1b
2019-07-12_121708:620,-0.25521900000000003,0.086426,-0.42605600000000005,-0.023349,0.005902,0.05652000000000001,-28.18,19.370001000000002,-38.18,1b
2019-07-12_121708:640,-0.238434,0.089478,-0.41842700000000005,-0.025394,0.009106,0.060945000000000006,-28.18,19.370001000000002,-38.18,1b
2019-07-12_121708:660,-0.23590100000000003,0.0849,-0.420959,-0.027805,0.009839,0.063875,-26.0,20.18,-37.369999,1b
2019-07-12_121708:680,-0.249115,0.08081100000000001,-0.425018,-0.030704000000000002,0.007489,0.060487,-26.0,20.18,-37.369999,1b
2019-07-12_121708:700,-0.236389,0.076263,-0.427063,-0.033847,0.003399,0.056489,-26.25,20.18,-38.18,1b
2019-07-12_121708:720,-0.23486300000000002,0.053375,-0.417908,-0.034977,0.002392,0.056184000000000005,-26.25,20.18,-38.18,1b
2019-07-12_121708:740,-0.239441,0.034058,-0.42858900000000005,-0.034824,0.001599,0.056489,-26.25,20.18,-38.18,1b
2019-07-12_121708:760,-0.248108,0.014740000000000001,-0.42807,-0.032382999999999995,0.0020570000000000002,0.055635000000000004,-25.25,20.559998999999998,-37.369999,1b
2019-07-12_121708:780,-0.262329,0.0,-0.431641,-0.028720999999999997,0.0024530000000000003,0.055025,-25.25,20.559998999999998,-37.369999,1b
2019-07-12_121708:800,-0.283173,-0.011687999999999999,-0.432648,-0.023807,0.003796,0.053773,-24.870001000000002,20.870001000000002,-39.0,1b
2019-07-12_121708:820,-0.282166,-0.014740000000000001,-0.425537,-0.019687,0.005658,0.050874,-24.870001000000002,20.870001000000002,-39.0,1b
2019-07-12_121708:840,-0.252686,-0.009644,-0.42453,-0.016361,0.00636,0.050386,-24.870001000000002,20.870001000000002,-39.0,1b
2019-07-12_121708:860,-0.23233,-0.012177,-0.42401099999999997,-0.015384,0.005627,0.05291900000000001,-23.75,21.68,-38.18,1b
2019-07-12_121708:880,-0.234375,-0.018799,-0.44232200000000005,-0.016788,0.00108,0.054840999999999994,-23.75,21.68,-38.18,1b
2019-07-12_121708:900,-0.253693,-0.025421,-0.444855,-0.019291,-0.003986,0.0571,-23.370001000000002,22.370001000000002,-39.0,1b
2019-07-12_121708:920,-0.274536,-0.036072,-0.43011499999999997,-0.022341999999999997,-0.005451,0.057313,-23.370001000000002,22.370001000000002,-39.0,1b
2019-07-12_121708:940,-0.282654,-0.040161,-0.41943400000000003,-0.026614999999999996,-0.001605,0.055116,-23.370001000000002,22.370001000000002,-39.0,1b
2019-07-12_121708:960,-0.256226,-0.048798,-0.40823400000000004,-0.030307,0.005261,0.054902,-21.18,22.370001000000002,-38.68,1b
2019-07-12_121708:980,-0.233337,-0.057434000000000006,-0.410278,-0.03284,0.008679000000000001,0.056428,-21.18,22.370001000000002,-38.68,1b
2019-07-12_121709:000,-0.223694,-0.063019,-0.411804,-0.034824,0.006695,0.057679999999999995,-21.559998999999998,22.0,-38.560001,1b
2019-07-12_121709:020,-0.22927899999999998,-0.067596,-0.411285,-0.03635,0.002514,0.059694000000000004,-21.559998999999998,22.0,-38.560001,1b
2019-07-12_121709:040,-0.23791500000000002,-0.07016,-0.423004,-0.037479000000000005,-0.0031309999999999997,0.062287999999999996,-21.559998999999998,22.0,-38.560001,1b
2019-07-12_121709:060,-0.23995999999999998,-0.071167,-0.415375,-0.038607999999999996,-0.006731999999999999,0.062684,-20.0,22.370001000000002,-38.18,1b
2019-07-12_121709:080,-0.25521900000000003,-0.067596,-0.409271,-0.040012,-0.007281999999999999,0.060487,-20.0,22.370001000000002,-38.18,1b
2019-07-12_121709:100,-0.26181,-0.065063,-0.409271,-0.041721,-0.006548999999999999,0.059541,-18.18,22.75,-39.0,1b
2019-07-12_121709:120,-0.257751,-0.06405599999999999,-0.406738,-0.042392,-0.005695,0.060945000000000006,-18.18,22.75,-39.0,1b
2019-07-12_121709:140,-0.258759,-0.063538,-0.40774499999999997,-0.043338,-0.006214,0.061799,-18.18,22.75,-39.0,1b
2019-07-12_121709:160,-0.25216700000000003,-0.062012,-0.402649,-0.044193,-0.006214,0.061464,-17.870001000000002,21.370001000000002,-40.18,1b
2019-07-12_121709:180,-0.250641,-0.06253099999999999,-0.40063499999999996,-0.044864,-0.006548999999999999,0.062349,-17.870001000000002,21.370001000000002,-40.18,1b
2019-07-12_121709:200,-0.25216700000000003,-0.063019,-0.401642,-0.045107999999999995,-0.006854000000000001,0.063264,-16.25,21.75,-41.0,1b
2019-07-12_121709:220,-0.253693,-0.060486,-0.399597,-0.04517,-0.0070680000000000005,0.062929,-16.25,21.75,-41.0,1b
2019-07-12_121709:240,-0.258759,-0.057434000000000006,-0.40011599999999997,-0.045322,-0.007678,0.063325,-16.25,21.75,-41.0,1b
2019-07-12_121709:260,-0.260284,-0.057434000000000006,-0.402649,-0.046055,-0.008472,0.064729,-15.18,21.370001000000002,-41.75,1b
2019-07-12_121709:280,-0.264862,-0.059479,-0.404175,-0.04697,-0.009265,0.065065,-15.18,21.370001000000002,-41.75,1b
2019-07-12_121709:300,-0.265381,-0.06253099999999999,-0.401642,-0.048221,-0.009204,0.06411900000000001,-13.37,19.5,-42.18,1b
2019-07-12_121709:320,-0.267426,-0.063538,-0.40570100000000003,-0.049503,-0.008655,0.06241,-13.37,19.5,-42.18,1b
2019-07-12_121709:340,-0.272003,-0.065063,-0.406738,-0.050876,-0.008258,0.060762000000000004,-13.37,19.5,-42.18,1b
2019-07-12_121709:360,-0.26944,-0.067596,-0.408752,-0.052004999999999996,-0.0076170000000000005,0.058687,-12.56,18.75,-43.0,1b
2019-07-12_121709:380,-0.267426,-0.069122,-0.405212,-0.053226,-0.0060609999999999995,0.055513,-12.56,18.75,-43.0,1b
2019-07-12_121709:400,-0.257233,-0.072174,-0.41232299999999994,-0.054081,-0.004779,0.051454,-12.18,16.870001000000002,-43.369999,1b
2019-07-12_121709:420,-0.248596,-0.075226,-0.41943400000000003,-0.054202999999999994,-0.005054,0.048524,-12.18,16.870001000000002,-43.369999,1b
2019-07-12_121709:440,-0.250641,-0.077271,-0.420959,-0.05380599999999999,-0.004596,0.045167,-12.18,16.870001000000002,-43.369999,1b
2019-07-12_121709:460,-0.256744,-0.0737,-0.432159,-0.053165,-0.004779,0.042879,-10.68,15.37,-44.560001,1b
2019-07-12_121709:480,-0.2659,-0.067596,-0.44384799999999996,-0.052036,-0.005115,0.041719,-10.68,15.37,-44.560001,1b
2019-07-12_121709:500,-0.275055,-0.057953,-0.44995100000000005,-0.05051,-0.004993,0.039186,-10.68,14.37,-43.369999,1b
2019-07-12_121709:520,-0.314697,-0.036591000000000005,-0.46569799999999995,-0.048374,-0.003192,0.036073,-10.68,14.37,-43.369999,1b
2019-07-12_121709:540,-0.376221,-0.022369,-0.501282,-0.047428,-0.0032530000000000002,0.036653,-10.68,14.37,-43.369999,1b
2019-07-12_121709:560,-0.32486,-0.001007,-0.520111,-0.047367,-0.009387000000000001,0.044435,-9.18,12.0,-45.369999,1b
2019-07-12_121709:580,-0.328949,0.008118,-0.48858599999999996,-0.048221,-0.005115,0.051729,-9.18,12.0,-45.369999,1b
2019-07-12_121709:600,-0.291321,0.024902,-0.500793,-0.050693,-0.005054,0.052704999999999995,-8.06,10.18,-45.369999,1b
2019-07-12_121709:620,-0.22421300000000002,0.038116000000000004,-0.47433500000000006,-0.051426,-0.001209,0.047792,-8.06,10.18,-45.369999,1b
2019-07-12_121709:640,-0.175903,0.067108,-0.43774399999999997,-0.050631999999999996,0.001996,0.039307999999999996,-8.06,10.18,-45.369999,1b
2019-07-12_121709:660,-0.199799,0.08590700000000001,-0.41586300000000004,-0.048984,0.008282,0.031160000000000004,-8.37,9.5,-46.25,1b
2019-07-12_121709:680,-0.190643,0.111328,-0.432159,-0.04816,0.012158,0.030670999999999997,-8.37,9.5,-46.25,1b
2019-07-12_121709:700,-0.167267,0.119476,-0.441284,-0.046512,0.005566,0.036531,-7.37,6.87,-45.060001,1b
2019-07-12_121709:720,-0.183533,0.121002,-0.441803,-0.045047000000000004,-0.0035280000000000003,0.037202,-7.37,6.87,-45.060001,1b
2019-07-12_121709:740,-0.210968,0.128601,-0.449432,-0.044132,-0.011188,0.032533,-7.37,6.87,-45.060001,1b
2019-07-12_121709:760,-0.233337,0.133179,-0.455017,-0.041141000000000004,-0.014362,0.03412,-8.75,5.37,-46.25,1b
2019-07-12_121709:780,-0.230804,0.131653,-0.45605500000000004,-0.037693,-0.015094,0.041231,-8.75,5.37,-46.25,1b
2019-07-12_121709:800,-0.233337,0.12048299999999999,-0.443329,-0.035556,-0.013324,0.050081,-8.37,3.87,-46.25,1b
2019-07-12_121709:820,-0.24658200000000002,0.108795,-0.43011499999999997,-0.033451,-0.008990999999999999,0.061555,-8.37,3.87,-46.25,1b
2019-07-12_121709:840,-0.249115,0.087952,-0.410797,-0.031101,-0.002857,0.07190099999999999,-8.37,3.87,-46.25,1b
2019-07-12_121709:860,-0.242004,0.07775900000000001,-0.396545,-0.030399000000000002,0.002575,0.075899,-7.56,3.5,-47.5,1b
2019-07-12_121709:880,-0.233856,0.070648,-0.38028,-0.029789,0.004925,0.076204,-7.56,3.5,-47.5,1b
2019-07-12_121709:900,-0.22879000000000002,0.068634,-0.37316900000000003,-0.029177999999999996,0.005108,0.074678,-7.56,3.18,-46.25,1b
2019-07-12_121709:920,-0.231812,0.069122,-0.367584,-0.029789,0.002606,0.070588,-7.56,3.18,-46.25,1b
2019-07-12_121709:940,-0.23690799999999998,0.068115,-0.371643,-0.031314999999999996,-0.0014529999999999999,0.066591,-7.56,3.18,-46.25,1b
2019-07-12_121709:960,-0.239441,0.064545,-0.37265,-0.032505,-0.005176,0.06241,-8.5,1.68,-46.68,1b
2019-07-12_121709:980,-0.24453699999999998,0.063538,-0.369598,-0.034031,-0.008014,0.057222,-8.5,1.68,-46.68,1b
2019-07-12_121710:000,-0.25317399999999995,0.05996699999999999,-0.37011700000000003,-0.034946,-0.009876000000000001,0.053864999999999996,-8.0,2.0,-46.25,1b
2019-07-12_121710:020,-0.267914,0.051330999999999995,-0.363007,-0.034092000000000004,-0.009052,0.052186,-8.0,2.0,-46.25,1b
2019-07-12_121710:040,-0.28875700000000004,0.040649,-0.374695,-0.031986,-0.00838,0.047731,-8.0,2.0,-46.25,1b
2019-07-12_121710:060,-0.300476,0.037108999999999996,-0.378754,-0.027712999999999998,-0.007404000000000001,0.040712,-8.06,0.87,-45.5,1b
2019-07-12_121710:080,-0.318756,0.035065,-0.384857,-0.021671,-0.005451,0.034669,-8.06,0.87,-45.5,1b
2019-07-12_121710:100,-0.347229,0.036591000000000005,-0.388916,-0.015171,-0.004229999999999999,0.031465,-7.68,0.5,-46.25,1b
2019-07-12_121710:120,-0.34570300000000004,0.050842,-0.379272,-0.009342,-0.00047599999999999997,0.033143,-7.68,0.5,-46.25,1b
2019-07-12_121710:140,-0.339111,0.05438200000000001,-0.373688,-0.004764,0.003003,0.039827,-7.68,0.5,-46.25,1b
2019-07-12_121710:160,-0.327911,0.050323,-0.370636,-0.002262,0.003399,0.043245,-8.06,-1.25,-45.869999,1b
2019-07-12_121710:180,-0.275055,0.048798,-0.358917,-0.0019260000000000002,0.001721,0.038239999999999996,-8.06,-1.25,-45.869999,1b
2019-07-12_121710:200,-0.268433,0.041168,-0.372162,-0.0019260000000000002,-0.0055119999999999995,0.036469999999999995,-8.87,-0.56,-46.68,1b
2019-07-12_121710:220,-0.278595,0.019318000000000002,-0.391479,-0.001285,-0.011524,0.036531,-8.87,-0.56,-46.68,1b
2019-07-12_121710:240,-0.296906,-0.001495,-0.40063499999999996,0.001034,-0.014513999999999999,0.034517,-8.87,-0.56,-46.68,1b
2019-07-12_121710:260,-0.35739099999999996,-0.016266,-0.492645,0.003689,-0.025379,0.031556,-8.87,-0.56,-46.25,1b
2019-07-12_121710:280,-0.31723,-0.036591000000000005,-0.474854,0.00903,-0.024738,0.027833,-8.87,-0.56,-46.25,1b
2019-07-12_121710:300,-0.35436999999999996,-0.036072,-0.545013,0.011349,-0.03197,0.023775,-7.25,0.37,-46.68,1b
2019-07-12_121710:320,-0.353851,-0.039124,-0.549072,0.016568,-0.030902,0.022584,-7.25,0.37,-46.68,1b
2019-07-12_121710:340,-0.248108,-0.032532,-0.49365200000000004,0.019497,-0.021655,0.017793,-7.25,0.37,-46.68,1b
2019-07-12_121710:360,-0.210968,-0.021332,-0.471283,0.019223,-0.010394,0.014619,-8.06,0.87,-46.25,1b
2019-07-12_121710:380,-0.186584,-0.005065999999999999,-0.44232200000000005,0.016995,0.000348,0.020875,-8.06,0.87,-46.25,1b
2019-07-12_121710:400,-0.161652,-0.011169,-0.416382,0.012722,0.009289,0.023316999999999997,-6.06,2.25,-46.68,1b
2019-07-12_121710:420,-0.154541,-0.011687999999999999,-0.420441,0.004696,0.0060539999999999995,0.017396000000000002,-6.06,2.25,-46.68,1b
2019-07-12_121710:440,-0.163177,-0.011687999999999999,-0.434174,-0.001529,-0.002704,0.01523,-6.06,2.25,-46.68,1b
2019-07-12_121710:460,-0.183014,-0.034058,-0.425537,-0.0064730000000000005,-0.008594,0.018068,-6.5,3.06,-45.869999,1b
2019-07-12_121710:480,-0.208954,-0.045226999999999996,-0.431641,-0.011326000000000001,-0.01192,0.0188,-6.5,3.06,-45.869999,1b
2019-07-12_121710:500,-0.263855,-0.063538,-0.445374,-0.014072,-0.012775,0.020387,-6.06,2.68,-45.869999,1b
2019-07-12_121710:520,-0.296387,-0.075745,-0.447906,-0.013401,-0.010333,0.019716,-6.06,2.68,-45.869999,1b
2019-07-12_121710:540,-0.320282,-0.082336,-0.423004,-0.011997,-0.0037719999999999997,0.011445,-6.06,2.68,-45.869999,1b
2019-07-12_121710:560,-0.306061,-0.070648,-0.408752,-0.010013,0.001477,0.004182,-6.06,3.87,-46.0,1b
2019-07-12_121710:580,-0.26944,-0.053863999999999995,-0.384857,-0.007816,0.003918,0.005403,-6.06,3.87,-46.0,1b
2019-07-12_121710:600,-0.24353000000000002,-0.050323,-0.36706500000000003,-0.007145,0.00285,0.0076,-5.37,2.75,-46.25,1b
2019-07-12_121710:620,-0.22421300000000002,-0.040649,-0.36248800000000003,-0.008152,-0.001605,0.005586,-5.37,2.75,-46.25,1b
2019-07-12_121710:640,-0.220123,-0.031494,-0.361481,-0.010256999999999999,-0.007281999999999999,0.004518,-5.37,2.75,-46.25,1b
2019-07-12_121710:660,-0.234375,-0.028961,-0.361969,-0.012516,-0.012317,0.005128,-6.87,2.75,-46.25,1b
2019-07-12_121710:680,-0.24963400000000002,-0.028961,-0.363007,-0.015262000000000001,-0.015155000000000002,0.003053,-6.87,2.75,-46.25,1b
2019-07-12_121710:700,-0.268951,-0.028961,-0.363007,-0.018039,-0.015155000000000002,0.0005200000000000001,-6.87,2.0,-46.25,1b
2019-07-12_121710:720,-0.277069,-0.031494,-0.36248800000000003,-0.019504,-0.0125,0.0005809999999999999,-6.87,2.0,-46.25,1b
2019-07-12_121710:740,-0.274536,-0.039642000000000004,-0.36554000000000003,-0.019901,-0.008594,0.000795,-6.87,2.0,-46.25,1b
2019-07-12_121710:760,-0.272003,-0.042175,-0.36911,-0.019565,-0.0052369999999999995,0.0005809999999999999,-6.87,2.37,-45.060001,1b
2019-07-12_121710:780,-0.280121,-0.040649,-0.376221,-0.018711000000000002,-0.003375,0.000795,-6.87,2.37,-45.060001,1b
2019-07-12_121710:800,-0.284698,-0.039124,-0.385376,-0.018313999999999997,-0.002735,0.002565,-5.37,2.0,-46.68,1b
2019-07-12_121710:820,-0.282166,-0.035583,-0.399109,-0.018497,-0.003833,0.004609,-5.37,2.0,-46.68,1b
2019-07-12_121710:840,-0.277069,-0.038116000000000004,-0.41232299999999994,-0.018772,-0.006397,0.004335,-5.37,2.0,-46.68,1b
2019-07-12_121710:860,-0.288269,-0.040649,-0.43927,-0.018894,-0.011249,0.001497,-6.06,1.25,-46.68,1b
2019-07-12_121710:880,-0.28674299999999997,-0.041687,-0.45806899999999995,-0.017368,-0.014972,3.2e-05,-6.06,1.25,-46.68,1b
2019-07-12_121710:900,-0.259796,-0.038116000000000004,-0.48196400000000006,-0.012333,-0.016559,-0.0011279999999999999,-6.87,0.18,-46.25,1b
2019-07-12_121710:920,-0.326904,-0.020844,-0.5185850000000001,-0.007084,-0.021655,-0.004393,-6.87,0.18,-46.25,1b
2019-07-12_121710:940,-0.36706500000000003,0.016753999999999998,-0.634491,-0.004123,-0.031299,0.000398,-6.87,0.18,-46.25,1b
2019-07-12_121710:960,-0.377747,0.038635,-0.5505979999999999,-0.001468,-0.019885,0.015352000000000001,-6.06,-0.06,-46.25,1b
2019-07-12_121710:980,-0.277588,0.063538,-0.575012,-0.0036659999999999996,-0.012927000000000001,0.030031,-6.06,-0.06,-46.25,1b
2019-07-12_121711:000,-0.207916,0.065063,-0.526215,-0.007206000000000001,0.000531,0.031404,-5.37,-0.06,-46.68,1b
2019-07-12_121711:020,-0.21810900000000003,0.065582,-0.443329,-0.010196,0.01289,0.021242,-5.37,-0.06,-46.68,1b
2019-07-12_121711:040,-0.227264,0.072693,-0.459595,-0.013065,0.018384,0.009645,-5.37,-0.06,-46.68,1b
2019-07-12_121711:060,-0.171844,0.08590700000000001,-0.425018,-0.016452,0.016675,0.010773999999999999,-5.0,-0.87,-46.25,1b
2019-07-12_121711:080,-0.18454,0.076263,-0.401642,-0.018222,0.011761,0.022798,-5.0,-0.87,-46.25,1b
2019-07-12_121711:100,-0.23791500000000002,0.052338,-0.388916,-0.01984,0.010693000000000001,0.030366000000000004,-6.06,-0.87,-46.25,1b
2019-07-12_121711:120,-0.225739,0.041687,-0.381317,-0.021091,0.008832,0.033326999999999996,-6.06,-0.87,-46.25,1b
2019-07-12_121711:140,-0.205902,0.031006,-0.395538,-0.020359,-0.000324,0.040101,-6.06,-0.87,-46.25,1b
2019-07-12_121711:160,-0.21048000000000003,0.016753999999999998,-0.399109,-0.019382,-0.010791,0.04886,-7.56,-0.06,-45.5,1b
2019-07-12_121711:180,-0.216583,-0.007599,-0.387909,-0.018222,-0.017016999999999997,0.053132000000000006,-7.56,-0.06,-45.5,1b
2019-07-12_121711:200,-0.228271,-0.019318000000000002,-0.387909,-0.017093,-0.018543,0.053377,-6.87,-1.56,-46.0,1b
2019-07-12_121711:220,-0.24453699999999998,-0.028442000000000002,-0.389954,-0.015781,-0.016498,0.053193,-6.87,-1.56,-46.0,1b
2019-07-12_121711:240,-0.25827,-0.03302,-0.391968,-0.014774,-0.0125,0.052644,-6.87,-1.56,-46.0,1b
2019-07-12_121711:260,-0.278595,-0.038635,-0.390442,-0.013736000000000002,-0.006731999999999999,0.048555,-7.25,-1.56,-46.25,1b
2019-07-12_121711:280,-0.282654,-0.036591000000000005,-0.385864,-0.012912,-0.000781,0.043153,-7.25,-1.56,-46.25,1b
2019-07-12_121711:300,-0.280121,-0.032013,-0.371643,-0.011539,0.005902,0.039307999999999996,-6.87,-2.0,-46.68,1b
2019-07-12_121711:320,-0.263855,-0.030487,-0.36044299999999996,-0.010593,0.01167,0.035676,-6.87,-2.0,-46.68,1b
2019-07-12_121711:340,-0.250641,-0.029968,-0.350281,-0.009281000000000001,0.015668,0.030670999999999997,-6.87,-2.0,-46.68,1b
2019-07-12_121711:360,-0.25521900000000003,-0.031006,-0.34317,-0.0076939999999999995,0.017925999999999997,0.025575,-7.56,-3.06,-46.25,1b
2019-07-12_121711:380,-0.25116,-0.031006,-0.345215,-0.005954,0.018047999999999998,0.020112,-7.56,-3.06,-46.25,1b
2019-07-12_121711:400,-0.253693,-0.034546,-0.353333,-0.003544,0.015453999999999999,0.01288,-9.06,-2.37,-45.5,1b
2019-07-12_121711:420,-0.29284699999999997,-0.037598,-0.390442,-0.001621,0.008435,0.007661,-9.06,-2.37,-45.5,1b
2019-07-12_121711:440,-0.310638,-0.06253099999999999,-0.402649,0.002652,0.004101,0.006868000000000001,-9.06,-2.37,-45.5,1b
2019-07-12_121711:460,-0.35791,-0.12200899999999999,-0.447388,0.009152,0.00047000000000000004,-0.00128,-8.75,-1.68,-44.25,1b
2019-07-12_121711:480,-0.37316900000000003,-0.14843800000000001,-0.5246890000000001,0.017178,-0.012256,-0.018675,-8.75,-1.68,-44.25,1b
2019-07-12_121711:500,-0.411285,-0.144379,-0.556702,0.028194999999999998,-0.025531,-0.038114999999999996,-10.25,-1.37,-45.869999,1b
2019-07-12_121711:520,-0.30300900000000003,-0.119965,-0.56839,0.034237000000000004,-0.035663,-0.046141,-10.25,-1.37,-45.869999,1b
2019-07-12_121711:540,-0.206909,-0.078278,-0.517548,0.034512,-0.034137,-0.037993,-10.25,-1.37,-45.869999,1b
2019-07-12_121711:560,-0.217072,-0.066589,-0.502319,0.028377999999999997,-0.029224,-0.021514,-8.75,-1.0,-45.060001,1b
2019-07-12_121711:580,-0.230804,-0.071167,-0.462646,0.019039,-0.015766,-0.007445,-8.75,-1.0,-45.060001,1b
2019-07-12_121711:600,-0.224701,-0.086426,-0.44384799999999996,0.009945,-0.0030399999999999997,-0.0070480000000000004,-8.37,0.75,-45.5,1b
2019-07-12_121711:620,-0.150482,-0.082336,-0.449432,0.001187,-0.0015140000000000002,-0.017058,-8.37,0.75,-45.5,1b
2019-07-12_121711:640,-0.096588,-0.067596,-0.420959,-0.0052829999999999995,-0.006,-0.022063,-8.37,0.75,-45.5,1b
2019-07-12_121711:660,-0.118958,-0.062012,-0.425537,-0.010256999999999999,-0.016040000000000002,-0.019805,-8.37,0.75,-45.5,1b
2019-07-12_121711:680,-0.157593,-0.05285599999999999,-0.440796,-0.016788,-0.025256999999999998,-0.016204,-8.37,0.75,-45.5,1b
2019-07-12_121711:700,-0.155548,-0.048798,-0.429108,-0.022953,-0.030108999999999997,-0.010985,-7.56,0.06,-46.68,1b
2019-07-12_121711:720,-0.19165,-0.041687,-0.44281000000000004,-0.027530000000000002,-0.033435,-0.0073230000000000005,-7.56,0.06,-46.68,1b
2019-07-12_121711:740,-0.21606399999999998,-0.040649,-0.445374,-0.030979000000000003,-0.031695999999999995,-0.008727,-7.56,0.06,-46.68,1b
2019-07-12_121711:760,-0.250641,-0.047791,-0.435699,-0.032322000000000004,-0.025806,-0.011045999999999999,-6.87,-0.56,-45.869999,1b
2019-07-12_121711:780,-0.26944,-0.056915,-0.429108,-0.030368,-0.016773,-0.012236,-6.87,-0.56,-45.869999,1b
2019-07-12_121711:800,-0.274017,-0.065063,-0.40976,-0.026798000000000002,-0.005115,-0.012754999999999999,-5.75,-2.06,-45.869999,1b
2019-07-12_121711:820,-0.260284,-0.066071,-0.397064,-0.021427,0.004895,-0.010435999999999999,-5.75,-2.06,-45.869999,1b
2019-07-12_121711:840,-0.24353000000000002,-0.062012,-0.381317,-0.015964,0.010968,-0.006194,-5.75,-2.06,-45.869999,1b
2019-07-12_121711:860,-0.231323,-0.057953,-0.36706500000000003,-0.011081,0.013866999999999999,-0.002867,-5.37,-2.87,-47.060001,1b
2019-07-12_121711:880,-0.217072,-0.048279,-0.3508,-0.007755,0.014752000000000001,-0.0017989999999999998,-5.37,-2.87,-47.060001,1b
2019-07-12_121711:900,-0.21859699999999999,-0.040161,-0.34265100000000004,-0.006229,0.01521,-0.003264,-5.75,-3.18,-45.5,1b
2019-07-12_121711:920,-0.23028600000000002,-0.028961,-0.340118,-0.006168,0.016797,-0.0038740000000000003,-5.75,-3.18,-45.5,1b
2019-07-12_121711:940,-0.23995999999999998,-0.022858,-0.359955,-0.007816,0.013806,-0.000273,-5.75,-3.18,-45.5,1b
2019-07-12_121711:960,-0.28064,-0.023895,-0.383331,-0.010288,0.009015,0.005403,-7.56,-4.37,-45.869999,1b
2019-07-12_121711:980,-0.32486,-0.021332,-0.41995200000000005,-0.013309,0.00224,0.007965999999999999,-7.56,-4.37,-45.869999,1b
2019-07-12_121712:000,-0.335022,-0.019806,-0.431122,-0.015506,-0.0012699999999999999,0.006379,-8.5,-4.0,-45.5,1b
2019-07-12_121712:020,-0.293854,-0.011169,-0.43518100000000004,-0.017917,0.001721,0.0039689999999999994,-8.5,-4.0,-45.5,1b
2019-07-12_121712:040,-0.322845,0.002014,-0.518066,-0.019352,-0.002857,0.006257,-8.5,-4.0,-45.5,1b
2019-07-12_121712:060,-0.31012,0.0030210000000000002,-0.5709529999999999,-0.020755000000000003,-0.01662,0.015016,-8.06,-5.5,-44.25,1b
2019-07-12_121712:080,-0.34265100000000004,0.007111,-0.599915,-0.021671,-0.028125,0.026155,-8.06,-5.5,-44.25,1b
2019-07-12_121712:100,-0.374695,0.007111,-0.590759,-0.023075,-0.030231,0.034059,-8.87,-5.87,-47.060001,1b
2019-07-12_121712:120,-0.316742,0.012695,-0.5348510000000001,-0.023684999999999998,-0.017475,0.033662,-8.87,-5.87,-47.060001,1b
2019-07-12_121712:140,-0.29180900000000004,0.010651,-0.492126,-0.022494999999999998,-0.000324,0.023775,-8.87,-5.87,-47.060001,1b
2019-07-12_121712:160,-0.22421300000000002,0.028442000000000002,-0.42453,-0.019778999999999998,0.017071,0.008394,-7.68,-5.75,-45.5,1b
2019-07-12_121712:180,-0.224701,0.044219999999999995,-0.393494,-0.017887,0.027478,0.001588,-7.68,-5.75,-45.5,1b
2019-07-12_121712:200,-0.177429,0.059479,-0.394531,-0.016452,0.024822999999999998,0.010835,-8.5,-7.25,-45.560001,1b
2019-07-12_121712:220,-0.159637,0.051849,-0.36706500000000003,-0.013981,0.01817,0.022859,-8.5,-7.25,-45.560001,1b
2019-07-12_121712:240,-0.193176,0.045226999999999996,-0.365021,-0.011936,0.008771,0.020936,-8.5,-7.25,-45.560001,1b
2019-07-12_121712:260,-0.212006,0.051849,-0.375214,-0.010196,-0.0015140000000000002,0.011384,-9.56,-8.25,-43.560001,1b
2019-07-12_121712:280,-0.21759,0.060486,-0.377747,-0.006626000000000001,-0.009937,0.009767,-9.56,-8.25,-43.560001,1b
2019-07-12_121712:300,-0.233337,0.053375,-0.379272,-0.003544,-0.015949,0.0123,-10.0,-8.06,-46.0,1b
2019-07-12_121712:320,-0.272003,0.049316000000000006,-0.378265,-0.002414,-0.018085,0.01349,-10.0,-8.06,-46.0,1b
2019-07-12_121712:340,-0.296387,0.045745999999999995,-0.371643,-0.00095,-0.015155000000000002,0.019746,-10.0,-8.06,-46.0,1b
2019-07-12_121712:360,-0.297913,0.031494,-0.358917,0.000576,-0.008655,0.02823,-11.06,-8.0,-46.369999,1b
2019-07-12_121712:380,-0.281647,0.024902,-0.349792,0.000851,-0.002582,0.030549,-11.06,-8.0,-46.369999,1b
2019-07-12_121712:400,-0.246063,0.022858,-0.34265100000000004,0.000851,-0.000781,0.029085000000000003,-10.68,-8.0,-46.0,1b
2019-07-12_121712:420,-0.241486,0.016753999999999998,-0.342163,0.001187,-0.002735,0.029298,-10.68,-8.0,-46.0,1b
2019-07-12_121712:440,-0.239441,0.008118,-0.348267,0.001431,-0.007404000000000001,0.028107999999999998,-10.68,-8.0,-46.0,1b
2019-07-12_121712:460,-0.241486,0.006072999999999999,-0.347229,0.00137,-0.012256,0.024263,-10.68,-6.87,-45.18,1b
2019-07-12_121712:480,-0.253693,0.004547,-0.348267,0.002041,-0.014759,0.019655000000000002,-10.68,-6.87,-45.18,1b
2019-07-12_121712:500,-0.281647,0.000488,-0.35131799999999996,0.00256,-0.013965,0.013704,-10.68,-7.56,-45.18,1b
2019-07-12_121712:520,-0.304535,-0.0030210000000000002,-0.368073,0.003964,-0.009845,0.007051000000000001,-10.68,-7.56,-45.18,1b
2019-07-12_121712:540,-0.276581,-0.0025329999999999997,-0.380798,0.006741,-0.006397,-0.000426,-10.68,-7.56,-45.18,1b
2019-07-12_121712:560,-0.29232800000000003,0.000488,-0.41232299999999994,0.009670999999999999,-0.00719,-0.008237999999999999,-11.5,-6.5,-45.18,1b
2019-07-12_121712:580,-0.30249000000000004,0.007599,-0.434174,0.013394,-0.010517,-0.010253,-11.5,-6.5,-45.18,1b
2019-07-12_121712:600,-0.293335,0.011169,-0.434692,0.016507,-0.009998,-0.005736,-10.68,-7.0,-46.0,1b
2019-07-12_121712:620,-0.30654899999999996,0.001495,-0.457581,0.018704,-0.009876000000000001,-0.001158,-10.68,-7.0,-46.0,1b
2019-07-12_121712:640,-0.337067,-0.011687999999999999,-0.5846859999999999,0.01849,-0.023395,-0.001341,-10.68,-7.0,-46.0,1b
2019-07-12_121712:660,-0.35131799999999996,-0.031006,-0.5846859999999999,0.019497,-0.034961,-0.002806,-10.25,-6.56,-45.560001,1b
2019-07-12_121712:680,-0.319275,-0.051330999999999995,-0.578583,0.019436000000000002,-0.041797,-0.002745,-10.25,-6.56,-45.560001,1b
2019-07-12_121712:700,-0.308594,-0.058960000000000005,-0.5556949999999999,0.018521,-0.032886,0.000795,-9.5,-5.5,-45.560001,1b
2019-07-12_121712:720,-0.21554600000000002,-0.076752,-0.516541,0.015041999999999998,-0.019428,0.010316,-9.5,-5.5,-45.560001,1b
2019-07-12_121712:740,-0.18811,-0.09353600000000001,-0.498749,0.010403,-0.008319,0.019746,-9.5,-5.5,-45.560001,1b
2019-07-12_121712:760,-0.174377,-0.128113,-0.47079499999999996,0.0062829999999999995,-0.000324,0.017213,-7.56,-4.68,-46.369999,1b
2019-07-12_121712:780,-0.18454,-0.136749,-0.462646,0.0042380000000000004,0.002728,-0.002013,-7.56,-4.68,-46.369999,1b
2019-07-12_121712:800,-0.128113,-0.12353499999999999,-0.454529,0.002163,0.00040899999999999997,-0.021727,-7.56,-3.87,-46.0,1b
2019-07-12_121712:820,-0.137268,-0.11843900000000002,-0.434174,0.002438,-0.003589,-0.024443,-7.56,-3.87,-46.0,1b
2019-07-12_121712:840,-0.172852,-0.118958,-0.44384799999999996,0.004422,-0.008319,-0.019988,-7.56,-3.87,-46.0,1b
2019-07-12_121712:860,-0.192169,-0.110321,-0.445374,0.004971,-0.012653,-0.021849,-8.0,-4.25,-46.75,1b
2019-07-12_121712:880,-0.220123,-0.082855,-0.431641,0.006497,-0.015888,-0.024657,-8.0,-4.25,-46.75,1b
2019-07-12_121712:900,-0.236389,-0.067108,-0.417389,0.0072900000000000005,-0.014025999999999999,-0.025907999999999997,-8.37,-3.87,-46.68,1b
2019-07-12_121712:920,-0.250641,-0.047791,-0.386902,0.006039,-0.007404000000000001,-0.02957,-8.37,-3.87,-46.68,1b
2019-07-12_121712:940,-0.24096700000000001,-0.035583,-0.372162,0.0038420000000000004,-0.000202,-0.032683,-8.37,-3.87,-46.68,1b
2019-07-12_121712:960,-0.20639000000000002,-0.027435,-0.34674099999999997,0.001309,0.0047729999999999995,-0.031066000000000003,-8.37,-4.56,-46.25,1b
2019-07-12_121712:980,-0.187592,-0.026917,-0.34063699999999997,-0.001285,0.004925,-0.026763,-8.37,-4.56,-46.25,1b
2019-07-12_121713:000,-0.18249500000000002,-0.029968,-0.344177,-0.004123,0.000195,-0.022521,-9.06,-4.56,-46.25,1b
2019-07-12_121713:020,-0.190125,-0.036591000000000005,-0.345215,-0.005619,-0.005756,-0.017546,-9.06,-4.56,-46.25,1b
2019-07-12_121713:040,-0.22116100000000002,-0.045226999999999996,-0.35943600000000003,-0.005832,-0.01073,-0.014433000000000001,-9.06,-4.56,-46.25,1b
2019-07-12_121713:060,-0.233337,-0.049316000000000006,-0.372162,-0.005222,-0.014301,-0.012754999999999999,-8.75,-5.0,-45.869999,1b
2019-07-12_121713:080,-0.25216700000000003,-0.049316000000000006,-0.384857,-0.0042450000000000005,-0.013965,-0.011045999999999999,-8.75,-5.0,-45.869999,1b
2019-07-12_121713:100,-0.274536,-0.045226999999999996,-0.392487,-0.003116,-0.009845,-0.009184000000000001,-8.37,-3.87,-45.869999,1b
2019-07-12_121713:120,-0.288269,-0.039642000000000004,-0.410797,-0.003788,-0.005298,-0.006529000000000001,-8.37,-3.87,-45.869999,1b
2019-07-12_121713:140,-0.301483,-0.042694,-0.427063,-0.005375,-0.0030399999999999997,-0.000731,-8.37,-3.87,-45.869999,1b
2019-07-12_121713:160,-0.33197,-0.046752999999999996,-0.434174,-0.007206000000000001,-0.0013310000000000002,0.004091,-7.25,-5.0,-45.5,1b
2019-07-12_121713:180,-0.305054,-0.051849,-0.440796,-0.010348999999999999,-0.0015140000000000002,0.004396,-7.25,-5.0,-45.5,1b
2019-07-12_121713:200,-0.277588,-0.047272,-0.42147799999999996,-0.011875,0.002118,-0.001616,-8.0,-5.37,-45.5,1b
2019-07-12_121713:220,-0.22216799999999998,-0.025908999999999998,-0.441284,-0.015231999999999999,0.001385,-0.007994,-8.0,-5.37,-45.5,1b
2019-07-12_121713:240,-0.193176,-0.01828,-0.45401,-0.017124,-0.002246,-0.004454,-8.0,-5.37,-45.5,1b
2019-07-12_121713:260,-0.310638,-0.017273,-0.529266,-0.018436,-0.012103000000000001,0.003175,-8.75,-5.75,-46.25,1b
2019-07-12_121713:280,-0.322845,-0.008118,-0.607056,-0.020694,-0.032947000000000004,0.008394,-8.75,-5.75,-46.25,1b
2019-07-12_121713:300,-0.347229,-0.005065999999999999,-0.546021,-0.022678,-0.030688999999999998,0.014894,-8.06,-5.75,-45.060001,1b
2019-07-12_121713:320,-0.26944,0.004547,-0.552643,-0.023014,-0.020801,0.016145,-8.06,-5.75,-45.060001,1b
2019-07-12_121713:340,-0.20080599999999998,0.015228,-0.48095699999999997,-0.023929,-0.004657,0.01056,-8.06,-5.75,-45.060001,1b
2019-07-12_121713:360,-0.22164899999999998,0.020325,-0.433655,-0.021427,0.013074,0.0007030000000000001,-7.0,-6.87,-46.68,1b
2019-07-12_121713:380,-0.163177,0.048279,-0.460114,-0.019291,0.021435,-0.010709999999999999,-7.0,-6.87,-46.68,1b
2019-07-12_121713:400,-0.145905,0.068115,-0.444855,-0.018313999999999997,0.013806,-0.012511,-8.06,-8.68,-45.5,1b
2019-07-12_121713:420,-0.206909,0.062012,-0.44232200000000005,-0.0163,0.002514,-0.001952,-8.06,-8.68,-45.5,1b
2019-07-12_121713:440,-0.253693,0.058960000000000005,-0.439758,-0.013401,-0.001941,0.004518,-8.06,-8.68,-45.5,1b
2019-07-12_121713:460,-0.276062,0.06405599999999999,-0.432648,-0.011661,7.3e-05,0.004793,-8.5,-8.68,-44.68,1b
