timestamp,AccX,AccY,AccZ,GyroX,GyroY,GyroZ,MagX,MagY,MagZ,Activity
2019-07-12_120113:060,-0.378265,-0.013213999999999998,-0.326904,-0.000675,-0.00484,0.0005200000000000001,-24.059998999999998,24.0,-23.0,2d
2019-07-12_120113:080,-0.36706500000000003,-0.008636,-0.322327,-0.001865,-0.00365,0.002565,-24.870001000000002,24.25,-22.25,2d
2019-07-12_120113:100,-0.369598,-0.013213999999999998,-0.322327,-0.0037270000000000003,-0.004657,0.004671,-24.870001000000002,24.25,-22.25,2d
2019-07-12_120113:120,-0.375214,-0.020844,-0.326904,-0.005375,-0.0061530000000000005,0.005739,-24.059998999999998,24.0,-22.25,2d
2019-07-12_120113:140,-0.378754,-0.028961,-0.325897,-0.005832,-0.0070680000000000005,0.0069900000000000006,-24.059998999999998,24.0,-22.25,2d
2019-07-12_120113:160,-0.38739,-0.034058,-0.329437,-0.005039,-0.006793,0.007783,-24.059998999999998,24.0,-22.25,2d
2019-07-12_120113:180,-0.389435,-0.035065,-0.326904,-0.004123,-0.005573,0.006318,-24.5,24.25,-22.68,2d
2019-07-12_120113:200,-0.375214,-0.023375999999999997,-0.32132,-0.003055,-0.0035280000000000003,0.003633,-24.5,24.25,-22.68,2d
2019-07-12_120113:220,-0.369598,-0.015228,-0.319275,-0.0036049999999999997,-0.00185,0.001924,-24.5,24.25,-23.5,2d
2019-07-12_120113:240,-0.360962,-0.008118,-0.31369,-0.005679999999999999,-0.001789,0.003053,-24.5,24.25,-23.5,2d
2019-07-12_120113:260,-0.356903,-0.011169,-0.313171,-0.007937999999999999,-0.00246,0.005342,-24.5,24.25,-23.5,2d
2019-07-12_120113:280,-0.36349499999999996,-0.024384,-0.31723,-0.009861,-0.0045049999999999995,0.006257,-23.75,24.0,-21.68,2d
2019-07-12_120113:300,-0.36911,-0.035065,-0.32132,-0.010288,-0.006488,0.006470999999999999,-23.75,24.0,-21.68,2d
2019-07-12_120113:320,-0.37674,-0.038635,-0.32486,-0.009128,-0.008075,0.006868000000000001,-24.059998999999998,24.0,-22.559998999999998,2d
2019-07-12_120113:340,-0.381317,-0.044739,-0.327423,-0.007601999999999999,-0.009143,0.006776000000000001,-24.059998999999998,24.0,-22.559998999999998,2d
2019-07-12_120113:360,-0.388916,-0.044219999999999995,-0.329437,-0.004764,-0.009265,0.004854,-24.059998999999998,24.0,-22.559998999999998,2d
2019-07-12_120113:380,-0.385376,-0.030487,-0.32995599999999997,-0.002262,-0.008258,0.001192,-24.059998999999998,24.25,-22.18,2d
2019-07-12_120113:400,-0.384857,-0.018799,-0.327911,-0.000736,-0.006092,-0.0008230000000000001,-24.059998999999998,24.25,-22.18,2d
2019-07-12_120113:420,-0.374176,-0.014221000000000001,-0.325897,-0.0008269999999999999,-0.004383,0.0007030000000000001,-23.75,24.0,-22.559998999999998,2d
2019-07-12_120113:440,-0.370636,-0.011169,-0.32132,-0.001621,-0.002918,0.003297,-23.75,24.0,-22.559998999999998,2d
2019-07-12_120113:460,-0.373688,-0.016753999999999998,-0.322845,-0.003483,-0.003467,0.005006,-23.75,24.0,-22.559998999999998,2d
2019-07-12_120113:480,-0.37316900000000003,-0.022858,-0.322327,-0.004886,-0.004718,0.006532,-24.059998999999998,24.25,-22.870001000000002,2d
2019-07-12_120113:500,-0.378265,-0.03302,-0.322845,-0.004978,-0.005725,0.007326000000000001,-24.059998999999998,24.25,-22.870001000000002,2d
2019-07-12_120113:520,-0.384338,-0.034546,-0.322327,-0.003879,-0.005817,0.005525,-24.059998999999998,24.25,-22.559998999999998,2d
2019-07-12_120113:540,-0.384338,-0.029480000000000003,-0.322845,-0.0033909999999999995,-0.005451,0.005067,-24.059998999999998,24.25,-22.559998999999998,2d
2019-07-12_120113:560,-0.38028,-0.022369,-0.319794,-0.002475,-0.003436,0.003297,-24.059998999999998,24.25,-22.559998999999998,2d
2019-07-12_120113:580,-0.37316900000000003,-0.010162000000000001,-0.315704,-0.003055,-0.002796,0.002778,-24.870001000000002,24.25,-21.68,2d
2019-07-12_120113:600,-0.36554000000000003,-0.007111,-0.314178,-0.006504,-0.0021850000000000003,0.0038469999999999997,-24.870001000000002,24.25,-21.68,2d
2019-07-12_120113:620,-0.361969,-0.014740000000000001,-0.312164,-0.00867,-0.0032530000000000002,0.006196,-24.059998999999998,24.68,-22.68,2d
2019-07-12_120113:640,-0.364532,-0.024384,-0.31369,-0.010471,-0.004993,0.006532,-24.059998999999998,24.68,-22.68,2d
2019-07-12_120113:660,-0.367584,-0.034546,-0.317749,-0.010288,-0.006793,0.006044,-24.059998999999998,24.68,-22.68,2d
2019-07-12_120113:680,-0.37011700000000003,-0.038635,-0.320801,-0.008823000000000001,-0.008747,0.006257,-23.75,24.68,-22.870001000000002,2d
2019-07-12_120113:700,-0.378265,-0.045226999999999996,-0.326385,-0.006229,-0.010059,0.005922,-23.75,24.68,-22.870001000000002,2d
2019-07-12_120113:720,-0.385864,-0.043701,-0.330475,-0.0036659999999999996,-0.010181,0.0038469999999999997,-24.059998999999998,24.68,-23.370001000000002,2d
2019-07-12_120113:740,-0.384857,-0.034058,-0.330475,-0.001194,-0.008716,0.0017100000000000001,-24.059998999999998,24.68,-23.370001000000002,2d
2019-07-12_120113:760,-0.384338,-0.022369,-0.329437,0.00011899999999999999,-0.006458,0.0005200000000000001,-24.059998999999998,24.68,-23.370001000000002,2d
2019-07-12_120113:780,-0.37674,-0.014740000000000001,-0.327911,-0.000797,-0.004596,0.001314,-24.5,24.68,-22.559998999999998,2d
2019-07-12_120113:800,-0.370636,-0.009644,-0.323334,-0.002018,-0.003833,0.003358,-24.5,24.68,-22.559998999999998,2d
2019-07-12_120113:820,-0.370636,-0.016266,-0.321808,-0.0042450000000000005,-0.0045049999999999995,0.005311,-24.5,24.370001000000002,-23.0,2d
2019-07-12_120113:840,-0.372162,-0.020844,-0.323334,-0.005375,-0.006,0.006379,-24.5,24.370001000000002,-23.0,2d
2019-07-12_120113:860,-0.374695,-0.03302,-0.325897,-0.005344,-0.007129000000000001,0.006532,-24.5,24.370001000000002,-23.0,2d
2019-07-12_120113:880,-0.382812,-0.034546,-0.327423,-0.004275999999999999,-0.007526000000000001,0.005983,-24.059998999999998,24.0,-22.559998999999998,2d
2019-07-12_120113:900,-0.388428,-0.034058,-0.327423,-0.002994,-0.006488,0.005403,-24.059998999999998,24.0,-22.559998999999998,2d
2019-07-12_120113:920,-0.387909,-0.027435,-0.326385,-0.0016820000000000001,-0.004321,0.004671,-23.75,24.25,-22.559998999999998,2d
2019-07-12_120113:940,-0.37112399999999995,-0.013702,-0.318756,-0.002414,-0.002307,0.003511,-23.75,24.25,-22.559998999999998,2d
2019-07-12_120113:960,-0.368073,-0.012177,-0.314697,-0.004825,-0.001911,0.004152,-23.75,24.25,-22.559998999999998,2d
2019-07-12_120113:980,-0.35739099999999996,-0.012695,-0.311127,-0.007297,-0.001941,0.006379,-24.870001000000002,24.25,-22.559998999999998,2d
2019-07-12_120114:000,-0.354858,-0.020844,-0.310638,-0.009678,-0.004566,0.0069900000000000006,-24.870001000000002,24.25,-22.559998999999998,2d
2019-07-12_120114:020,-0.36911,-0.033539,-0.320282,-0.010806999999999999,-0.007343000000000001,0.005678,-24.059998999999998,24.370001000000002,-22.559998999999998,2d
2019-07-12_120114:040,-0.371643,-0.036072,-0.320801,-0.0098,-0.009113,0.005922,-24.059998999999998,24.370001000000002,-22.559998999999998,2d
2019-07-12_120114:060,-0.381805,-0.043701,-0.32843,-0.008395999999999999,-0.010456,0.0069900000000000006,-24.059998999999998,24.370001000000002,-22.559998999999998,2d
2019-07-12_120114:080,-0.389435,-0.048279,-0.33197,-0.005344,-0.009998,0.005525,-24.5,24.25,-21.68,2d
2019-07-12_120114:100,-0.383331,-0.040649,-0.33300799999999997,-0.003055,-0.008319,0.002168,-24.5,24.25,-21.68,2d
2019-07-12_120114:120,-0.38028,-0.028442000000000002,-0.328949,-0.000797,-0.006488,0.000459,-24.5,24.370001000000002,-22.559998999999998,2d
2019-07-12_120114:140,-0.377747,-0.016266,-0.327423,-0.0004,-0.00484,0.001253,-24.5,24.370001000000002,-22.559998999999998,2d
2019-07-12_120114:160,-0.369598,-0.013213999999999998,-0.323853,-0.001621,-0.003467,0.003358,-24.5,24.370001000000002,-22.559998999999998,2d
2019-07-12_120114:180,-0.369598,-0.014221000000000001,-0.323853,-0.0032689999999999998,-0.004169,0.005006,-23.5,24.25,-22.559998999999998,2d
2019-07-12_120114:200,-0.368073,-0.021851,-0.323334,-0.004886,-0.005298,0.006074,-23.5,24.25,-22.559998999999998,2d
2019-07-12_120114:220,-0.375214,-0.031006,-0.323334,-0.005161,-0.006397,0.006593000000000001,-24.059998999999998,24.0,-22.559998999999998,2d
2019-07-12_120114:240,-0.379272,-0.034546,-0.325897,-0.004612,-0.006488,0.006379,-24.059998999999998,24.0,-22.559998999999998,2d
2019-07-12_120114:260,-0.384857,-0.036072,-0.324371,-0.003208,-0.006214,0.005311,-24.059998999999998,24.0,-22.559998999999998,2d
2019-07-12_120114:280,-0.383331,-0.028442000000000002,-0.325378,-0.002018,-0.004901,0.003908,-24.5,24.68,-22.18,2d
2019-07-12_120114:300,-0.375702,-0.015747,-0.322845,-0.002597,-0.0038640000000000002,0.0038159999999999995,-24.5,24.68,-22.18,2d
2019-07-12_120114:320,-0.37316900000000003,-0.014740000000000001,-0.321808,-0.004642,-0.002918,0.005403,-24.059998999999998,24.68,-22.18,2d
2019-07-12_120114:340,-0.364014,-0.016266,-0.316742,-0.007023000000000001,-0.002643,0.006868000000000001,-24.059998999999998,24.68,-22.18,2d
2019-07-12_120114:360,-0.361481,-0.021851,-0.315216,-0.009525,-0.003314,0.007387,-24.059998999999998,24.68,-22.18,2d
2019-07-12_120114:380,-0.36554000000000003,-0.035583,-0.318268,-0.010196,-0.004993,0.006654,-23.5,25.059998999999998,-21.68,2d
2019-07-12_120114:400,-0.368073,-0.041168,-0.31723,-0.009464,-0.0066099999999999996,0.005647,-23.5,25.059998999999998,-21.68,2d
2019-07-12_120114:420,-0.374695,-0.046265,-0.32486,-0.007601999999999999,-0.008136,0.005067,-24.059998999999998,24.68,-22.18,2d
2019-07-12_120114:440,-0.381805,-0.047272,-0.326385,-0.004886,-0.008716,0.0038469999999999997,-24.059998999999998,24.68,-22.18,2d
2019-07-12_120114:460,-0.385376,-0.041168,-0.330475,-0.002262,-0.008594,0.001893,-24.059998999999998,24.68,-22.18,2d
2019-07-12_120114:480,-0.385864,-0.031494,-0.330475,-0.000278,-0.00719,3.2e-05,-23.5,24.370001000000002,-22.559998999999998,2d
2019-07-12_120114:500,-0.382812,-0.018799,-0.327911,-0.0004,-0.004993,0.000398,-23.5,24.370001000000002,-22.559998999999998,2d
2019-07-12_120114:520,-0.375214,-0.016266,-0.324371,-0.001407,-0.003314,0.00229,-23.75,24.68,-22.870001000000002,2d
2019-07-12_120114:540,-0.368591,-0.014221000000000001,-0.320282,-0.0033299999999999996,-0.00307,0.004518,-23.75,24.68,-22.870001000000002,2d
2019-07-12_120114:560,-0.36654699999999996,-0.019318000000000002,-0.32132,-0.0051,-0.004444,0.0058,-23.75,24.68,-22.870001000000002,2d
2019-07-12_120114:580,-0.37112399999999995,-0.029968,-0.320801,-0.005679999999999999,-0.005176,0.006196,-23.75,25.059998999999998,-22.559998999999998,2d
2019-07-12_120114:600,-0.371643,-0.034546,-0.321808,-0.005161,-0.006092,0.005464,-23.75,25.059998999999998,-22.559998999999998,2d
2019-07-12_120114:620,-0.38028,-0.034058,-0.324371,-0.00394,-0.006336,0.004793,-23.75,24.25,-22.870001000000002,2d
2019-07-12_120114:640,-0.379791,-0.027954000000000003,-0.324371,-0.0033909999999999995,-0.005573,0.004732,-23.75,24.25,-22.870001000000002,2d
2019-07-12_120114:660,-0.375702,-0.017792,-0.321808,-0.004184,-0.004901,0.005067,-23.75,24.25,-22.870001000000002,2d
2019-07-12_120114:680,-0.37265,-0.015747,-0.32132,-0.00629,-0.004383,0.005189,-23.75,24.68,-23.370001000000002,2d
2019-07-12_120114:700,-0.36349499999999996,-0.017792,-0.319794,-0.00867,-0.0038640000000000002,0.005739,-23.75,24.68,-23.370001000000002,2d
2019-07-12_120114:720,-0.361969,-0.025421,-0.320801,-0.010745999999999999,-0.0045049999999999995,0.006470999999999999,-23.75,24.0,-22.870001000000002,2d
2019-07-12_120114:740,-0.367584,-0.040161,-0.32132,-0.011264,-0.005573,0.006074,-23.75,24.0,-22.870001000000002,2d
2019-07-12_120114:760,-0.368591,-0.041687,-0.323334,-0.009617,-0.006945999999999999,0.005525,-23.75,24.0,-22.870001000000002,2d
2019-07-12_120114:780,-0.379272,-0.047791,-0.32995599999999997,-0.007358,-0.008411,0.005525,-23.75,25.059998999999998,-21.370001000000002,2d
2019-07-12_120114:800,-0.38028,-0.050323,-0.32995599999999997,-0.004184,-0.008716,0.004518,-23.75,25.059998999999998,-21.370001000000002,2d
2019-07-12_120114:820,-0.392487,-0.041687,-0.33197,-0.001529,-0.008197,0.00229,-23.75,24.370001000000002,-21.68,2d
2019-07-12_120114:840,-0.386902,-0.029968,-0.330475,-3e-06,-0.006458,0.000917,-23.75,24.370001000000002,-21.68,2d
2019-07-12_120114:860,-0.378754,-0.019318000000000002,-0.326385,0.00011899999999999999,-0.004718,0.000459,-23.75,24.370001000000002,-21.68,2d
2019-07-12_120114:880,-0.37316900000000003,-0.010651,-0.324371,-0.001407,-0.003711,0.000978,-23.5,24.0,-22.25,2d
2019-07-12_120114:900,-0.36706500000000003,-0.011687999999999999,-0.319275,-0.003483,-0.0032530000000000002,0.003511,-23.5,24.0,-22.25,2d
2019-07-12_120114:920,-0.368591,-0.024902,-0.32132,-0.004947,-0.004383,0.006532,-24.5,24.370001000000002,-22.25,2d
2019-07-12_120114:940,-0.37316900000000003,-0.032532,-0.320282,-0.005771,-0.00484,0.006074,-24.5,24.370001000000002,-22.25,2d
2019-07-12_120114:960,-0.372162,-0.035583,-0.323334,-0.005375,-0.005573,0.004548,-24.5,24.370001000000002,-22.25,2d
2019-07-12_120114:980,-0.377747,-0.034058,-0.32486,-0.004275999999999999,-0.005817,0.004274,-24.059998999999998,24.68,-22.68,2d
2019-07-12_120115:000,-0.384338,-0.026917,-0.325378,-0.003544,-0.0060609999999999995,0.004671,-24.059998999999998,24.68,-22.68,2d
2019-07-12_120115:020,-0.382324,-0.021332,-0.323334,-0.004062,-0.005634,0.004732,-24.5,24.68,-23.5,2d
2019-07-12_120115:040,-0.374695,-0.01828,-0.321808,-0.005771,-0.00484,0.0038469999999999997,-24.5,24.68,-23.5,2d
2019-07-12_120115:060,-0.368591,-0.017273,-0.321808,-0.008091,-0.0038640000000000002,0.0038159999999999995,-24.5,24.68,-23.5,2d
2019-07-12_120115:080,-0.367584,-0.026427999999999997,-0.31723,-0.0098,-0.0037719999999999997,0.005525,-24.059998999999998,24.68,-22.25,2d
2019-07-12_120115:100,-0.36044299999999996,-0.036072,-0.319275,-0.010135,-0.003986,0.006379,-24.059998999999998,24.68,-22.25,2d
2019-07-12_120115:120,-0.368073,-0.041168,-0.323334,-0.008732,-0.005725,0.004548,-23.75,25.059998999999998,-21.75,2d
2019-07-12_120115:140,-0.372162,-0.043701,-0.325897,-0.0069,-0.007739,0.003297,-23.75,25.059998999999998,-21.75,2d
2019-07-12_120115:160,-0.382324,-0.044739,-0.33197,-0.0036049999999999997,-0.009509,0.003358,-23.75,25.059998999999998,-21.75,2d
2019-07-12_120115:180,-0.390442,-0.040161,-0.335541,-0.000889,-0.01012,0.003114,-24.059998999999998,24.0,-22.68,2d
2019-07-12_120115:200,-0.394012,-0.025908999999999998,-0.336548,0.0009119999999999999,-0.008716,0.002321,-24.059998999999998,24.0,-22.68,2d
2019-07-12_120115:220,-0.389954,-0.019806,-0.33300799999999997,0.0009119999999999999,-0.006092,0.001588,-24.059998999999998,25.059998999999998,-23.0,2d
2019-07-12_120115:240,-0.380798,-0.011169,-0.327423,-0.000553,-0.003375,0.001893,-24.059998999999998,25.059998999999998,-23.0,2d
2019-07-12_120115:260,-0.368591,-0.011687999999999999,-0.32132,-0.003055,-0.0014529999999999999,0.004182,-24.059998999999998,25.059998999999998,-23.0,2d
2019-07-12_120115:280,-0.36044299999999996,-0.020844,-0.316223,-0.0052829999999999995,-0.00185,0.006257,-24.059998999999998,25.370001000000002,-21.75,2d
2019-07-12_120115:300,-0.36554000000000003,-0.028961,-0.316223,-0.0065650000000000005,-0.003467,0.005983,-24.059998999999998,25.370001000000002,-21.75,2d
2019-07-12_120115:320,-0.367584,-0.034546,-0.318756,-0.0065650000000000005,-0.005054,0.005067,-24.059998999999998,25.059998999999998,-22.68,2d
2019-07-12_120115:340,-0.375214,-0.035583,-0.320801,-0.005344,-0.006336,0.004945000000000001,-24.059998999999998,25.059998999999998,-22.68,2d
2019-07-12_120115:360,-0.386383,-0.031494,-0.326904,-0.004398,-0.007220999999999999,0.005067,-24.059998999999998,25.059998999999998,-22.68,2d
2019-07-12_120115:380,-0.386902,-0.026917,-0.327423,-0.004275999999999999,-0.007343000000000001,0.005067,-24.5,24.0,-23.059998999999998,2d
2019-07-12_120115:400,-0.38028,-0.020844,-0.326904,-0.004886,-0.006,0.004091,-24.5,24.0,-23.059998999999998,2d
2019-07-12_120115:420,-0.375702,-0.019806,-0.324371,-0.006809,-0.004444,0.0032359999999999997,-23.5,25.059998999999998,-23.0,2d
2019-07-12_120115:440,-0.36349499999999996,-0.023895,-0.318756,-0.008395999999999999,-0.003436,0.004335,-23.5,25.059998999999998,-23.0,2d
2019-07-12_120115:460,-0.361481,-0.03302,-0.318268,-0.00922,-0.003375,0.005647,-23.5,25.059998999999998,-23.0,2d
2019-07-12_120115:480,-0.36248800000000003,-0.041168,-0.319794,-0.008487,-0.004657,0.004854,-23.5,24.68,-22.18,2d
2019-07-12_120115:500,-0.365021,-0.044219999999999995,-0.322327,-0.006626000000000001,-0.006793,0.003511,-23.5,24.68,-22.18,2d
2019-07-12_120115:520,-0.374695,-0.044219999999999995,-0.329437,-0.00394,-0.00893,0.00345,-24.5,24.68,-22.559998999999998,2d
2019-07-12_120115:540,-0.381805,-0.040161,-0.33197,-0.001468,-0.010272,0.0029620000000000002,-24.5,24.68,-22.559998999999998,2d
2019-07-12_120115:560,-0.394012,-0.028442000000000002,-0.338074,-3e-06,-0.010181,0.0019850000000000002,-24.5,24.68,-22.559998999999998,2d
2019-07-12_120115:580,-0.394012,-0.020844,-0.338074,0.00018,-0.008197,0.0017100000000000001,-23.75,24.0,-22.559998999999998,2d
2019-07-12_120115:600,-0.387909,-0.014221000000000001,-0.33197,-0.001072,-0.005176,0.001771,-23.75,24.0,-22.559998999999998,2d
2019-07-12_120115:620,-0.379272,-0.012177,-0.329437,-0.002933,-0.0023989999999999997,0.003358,-24.059998999999998,25.059998999999998,-22.559998999999998,2d
2019-07-12_120115:640,-0.368073,-0.019318000000000002,-0.320282,-0.0051,-0.0013310000000000002,0.006318,-24.059998999999998,25.059998999999998,-22.559998999999998,2d
2019-07-12_120115:660,-0.35943600000000003,-0.028442000000000002,-0.318268,-0.006229,-0.001575,0.007203,-24.059998999999998,25.059998999999998,-22.559998999999998,2d
2019-07-12_120115:680,-0.368591,-0.037108999999999996,-0.316223,-0.006687,-0.002979,0.005464,-23.75,24.25,-22.559998999999998,2d
2019-07-12_120115:700,-0.36349499999999996,-0.034546,-0.318268,-0.005771,-0.004657,0.004457,-23.75,24.25,-22.559998999999998,2d
2019-07-12_120115:720,-0.376221,-0.034546,-0.323334,-0.004337,-0.0061530000000000005,0.0039689999999999994,-24.059998999999998,24.68,-22.559998999999998,2d
2019-07-12_120115:740,-0.382812,-0.024902,-0.326385,-0.004062,-0.007281999999999999,0.003023,-24.059998999999998,24.68,-22.559998999999998,2d
2019-07-12_120115:760,-0.381317,-0.017273,-0.324371,-0.004642,-0.006945999999999999,0.003694,-24.059998999999998,24.68,-22.559998999999998,2d
2019-07-12_120115:780,-0.378265,-0.019806,-0.325897,-0.0061070000000000004,-0.005756,0.004732,-24.059998999999998,24.370001000000002,-22.559998999999998,2d
2019-07-12_120115:800,-0.369598,-0.019806,-0.322327,-0.008152,-0.00426,0.004152,-24.059998999999998,24.370001000000002,-22.559998999999998,2d
2019-07-12_120115:820,-0.364532,-0.025908999999999998,-0.320282,-0.009739,-0.0035280000000000003,0.004548,-23.75,24.370001000000002,-23.68,2d
2019-07-12_120115:840,-0.361481,-0.041168,-0.320801,-0.009464,-0.004321,0.005403,-23.75,24.370001000000002,-23.68,2d
2019-07-12_120115:860,-0.364532,-0.041168,-0.321808,-0.007633,-0.005695,0.004335,-23.75,24.370001000000002,-23.68,2d
2019-07-12_120115:880,-0.371643,-0.044219999999999995,-0.327911,-0.005741,-0.007465,0.003053,-24.5,24.68,-22.559998999999998,2d
2019-07-12_120115:900,-0.380798,-0.040649,-0.331482,-0.002811,-0.00893,0.002565,-24.5,24.68,-22.559998999999998,2d
2019-07-12_120115:920,-0.385376,-0.029480000000000003,-0.335022,-0.000492,-0.009265,0.001771,-24.059998999999998,24.370001000000002,-22.18,2d
2019-07-12_120115:940,-0.390961,-0.01828,-0.330963,0.000515,-0.008014,0.0007030000000000001,-24.059998999999998,24.370001000000002,-22.18,2d
2019-07-12_120115:960,-0.378754,-0.011687999999999999,-0.32995599999999997,-0.0004,-0.006,0.0007639999999999999,-24.059998999999998,24.370001000000002,-22.18,2d
2019-07-12_120115:980,-0.377228,-0.007111,-0.328949,-0.001621,-0.00426,0.002382,-23.75,24.68,-22.870001000000002,2d
2019-07-12_120116:000,-0.373688,-0.011687999999999999,-0.327911,-0.004337,-0.003986,0.005403,-23.75,24.68,-22.870001000000002,2d
2019-07-12_120116:020,-0.370636,-0.018799,-0.328949,-0.005771,-0.004596,0.008333,-24.059998999999998,24.68,-21.0,2d
2019-07-12_120116:040,-0.379791,-0.034058,-0.326904,-0.006626000000000001,-0.004993,0.009431,-24.059998999999998,24.68,-21.0,2d
2019-07-12_120116:060,-0.378265,-0.039124,-0.32843,-0.005893,-0.004901,0.008790000000000001,-24.059998999999998,24.68,-21.0,2d
2019-07-12_120116:080,-0.38739,-0.037598,-0.328949,-0.004764,-0.004321,0.0071730000000000006,-24.059998999999998,25.370001000000002,-22.25,2d
2019-07-12_120116:100,-0.390961,-0.03302,-0.32486,-0.004184,-0.003314,0.005739,-24.059998999999998,25.370001000000002,-22.25,2d
2019-07-12_120116:120,-0.377747,-0.022858,-0.32132,-0.004520000000000001,-0.001911,0.004518,-23.75,25.370001000000002,-22.68,2d
2019-07-12_120116:140,-0.37112399999999995,-0.01828,-0.315704,-0.005832,-0.001117,0.003053,-23.75,25.370001000000002,-22.68,2d
2019-07-12_120116:160,-0.360962,-0.014740000000000001,-0.315216,-0.008152,-0.0012699999999999999,0.002565,-23.75,25.370001000000002,-22.68,2d
2019-07-12_120116:180,-0.358917,-0.019806,-0.31369,-0.009556,-0.001666,0.004854,-23.75,24.68,-23.5,2d
2019-07-12_120116:200,-0.36349499999999996,-0.036591000000000005,-0.315216,-0.009951999999999999,-0.003192,0.006593000000000001,-23.75,24.68,-23.5,2d
2019-07-12_120116:220,-0.36654699999999996,-0.040161,-0.318756,-0.008823000000000001,-0.0052369999999999995,0.006470999999999999,-24.870001000000002,25.059998999999998,-23.370001000000002,2d
2019-07-12_120116:240,-0.373688,-0.046752999999999996,-0.321808,-0.007023000000000001,-0.007129000000000001,0.006074,-24.870001000000002,25.059998999999998,-23.370001000000002,2d
2019-07-12_120116:260,-0.382812,-0.048279,-0.32843,-0.004184,-0.009113,0.005678,-24.870001000000002,25.059998999999998,-23.370001000000002,2d
2019-07-12_120116:280,-0.39502,-0.042175,-0.331482,-0.001407,-0.009601,0.0038159999999999995,-24.5,24.68,-22.559998999999998,2d
2019-07-12_120116:300,-0.395538,-0.032013,-0.32995599999999997,0.000698,-0.008533,0.002107,-24.5,24.68,-22.559998999999998,2d
2019-07-12_120116:320,-0.387909,-0.020325,-0.327911,0.001034,-0.006397,0.001161,-24.059998999999998,24.68,-22.18,2d
2019-07-12_120116:340,-0.382812,-0.013213999999999998,-0.326385,-0.000278,-0.004229999999999999,0.001192,-24.059998999999998,24.68,-22.18,2d
2019-07-12_120116:360,-0.36706500000000003,-0.009125,-0.318268,-0.002353,-0.002307,0.004182,-24.059998999999998,24.68,-22.18,2d
2019-07-12_120116:380,-0.366058,-0.022369,-0.316742,-0.004886,-0.00246,0.007997,-24.5,24.0,-23.059998999999998,2d
2019-07-12_120116:400,-0.368591,-0.032532,-0.316223,-0.0067480000000000005,-0.0032530000000000002,0.008516,-24.5,24.0,-23.059998999999998,2d
2019-07-12_120116:420,-0.37011700000000003,-0.039124,-0.32132,-0.007297,-0.0045049999999999995,0.007509,-23.75,24.25,-22.870001000000002,2d
2019-07-12_120116:440,-0.376221,-0.040649,-0.322327,-0.00629,-0.0055119999999999995,0.006837,-23.75,24.25,-22.870001000000002,2d
2019-07-12_120116:460,-0.388916,-0.040161,-0.326385,-0.005436,-0.006885,0.006196,-23.75,24.25,-22.870001000000002,2d
2019-07-12_120116:480,-0.388916,-0.034058,-0.326385,-0.004459,-0.006793,0.004915,-23.5,24.68,-21.75,2d
2019-07-12_120116:500,-0.385864,-0.024902,-0.32486,-0.004398,-0.005878,0.004152,-23.5,24.68,-21.75,2d
2019-07-12_120116:520,-0.38028,-0.022858,-0.324371,-0.005619,-0.00426,0.003297,-23.75,25.059998999999998,-21.75,2d
2019-07-12_120116:540,-0.36654699999999996,-0.026427999999999997,-0.314178,-0.0076939999999999995,-0.0025210000000000002,0.004335,-23.75,25.059998999999998,-21.75,2d
2019-07-12_120116:560,-0.367584,-0.036072,-0.316223,-0.008762,-0.002002,0.005678,-23.75,25.059998999999998,-21.75,2d
2019-07-12_120116:580,-0.36248800000000003,-0.045226999999999996,-0.315216,-0.008609,-0.002918,0.005128,-24.059998999999998,25.059998999999998,-22.25,2d
2019-07-12_120116:600,-0.366058,-0.044739,-0.31723,-0.00687,-0.005115,0.003297,-24.059998999999998,25.059998999999998,-22.25,2d
2019-07-12_120116:620,-0.375702,-0.045226999999999996,-0.323853,-0.004703,-0.007678,0.002382,-24.059998999999998,24.370001000000002,-22.68,2d
2019-07-12_120116:640,-0.382812,-0.041687,-0.326385,-0.002018,-0.009784000000000001,0.002321,-24.059998999999998,24.370001000000002,-22.68,2d
2019-07-12_120116:660,-0.385864,-0.029968,-0.330475,-3e-06,-0.01012,0.001924,-24.059998999999998,24.370001000000002,-22.68,2d
2019-07-12_120116:680,-0.385376,-0.020844,-0.327423,0.001065,-0.008533,0.001192,-23.75,24.0,-22.25,2d
2019-07-12_120116:700,-0.379272,-0.013702,-0.325897,-6.500000000000001e-05,-0.006488,0.000978,-23.75,24.0,-22.25,2d
2019-07-12_120116:720,-0.372162,-0.014740000000000001,-0.323334,-0.00275,-0.0038640000000000002,0.004152,-24.5,25.370001000000002,-21.75,2d
2019-07-12_120116:740,-0.36554000000000003,-0.020325,-0.320282,-0.003879,-0.0038640000000000002,0.005464,-24.5,25.370001000000002,-21.75,2d
2019-07-12_120116:760,-0.368591,-0.026917,-0.320801,-0.005679999999999999,-0.004321,0.006593000000000001,-24.5,25.370001000000002,-21.75,2d
2019-07-12_120116:780,-0.37316900000000003,-0.035065,-0.323853,-0.006687,-0.005725,0.006196,-24.5,25.370001000000002,-22.25,2d
2019-07-12_120116:800,-0.379272,-0.037108999999999996,-0.32486,-0.005954,-0.00719,0.005342,-24.5,25.370001000000002,-22.25,2d
2019-07-12_120116:820,-0.390961,-0.038635,-0.326385,-0.005344,-0.007006999999999999,0.005647,-23.5,24.68,-24.25,2d
2019-07-12_120116:840,-0.383331,-0.034546,-0.324371,-0.004825,-0.006,0.005647,-23.5,24.68,-24.25,2d
2019-07-12_120116:860,-0.379791,-0.029480000000000003,-0.324371,-0.004642,-0.004779,0.003633,-23.5,24.68,-24.25,2d
2019-07-12_120116:880,-0.376221,-0.026427999999999997,-0.322845,-0.005954,-0.003436,0.0026260000000000003,-23.75,24.25,-21.370001000000002,2d
2019-07-12_120116:900,-0.368591,-0.027954000000000003,-0.316223,-0.0067480000000000005,-0.0031309999999999997,0.004793,-23.75,24.25,-21.370001000000002,2d
2019-07-12_120116:920,-0.36654699999999996,-0.036072,-0.318268,-0.006809,-0.003589,0.006379,-24.059998999999998,24.68,-22.68,2d
2019-07-12_120116:940,-0.37316900000000003,-0.044219999999999995,-0.319275,-0.005954,-0.005451,0.004854,-24.059998999999998,24.68,-22.68,2d
2019-07-12_120116:960,-0.37674,-0.042175,-0.321808,-0.004123,-0.006885,0.003511,-24.059998999999998,24.68,-22.68,2d
2019-07-12_120116:980,-0.384857,-0.044219999999999995,-0.326904,-0.002262,-0.008411,0.0034189999999999997,-24.059998999999998,24.68,-23.0,2d
2019-07-12_120117:000,-0.393005,-0.040161,-0.329437,-0.000278,-0.008808,0.003175,-24.059998999999998,24.68,-23.0,2d
2019-07-12_120117:020,-0.392487,-0.032532,-0.329437,0.000332,-0.007984,0.0029,-23.5,25.059998999999998,-22.68,2d
2019-07-12_120117:040,-0.386383,-0.023895,-0.325897,0.000454,-0.005298,0.002046,-23.5,25.059998999999998,-22.68,2d
2019-07-12_120117:060,-0.378754,-0.017792,-0.322845,-0.0013460000000000002,-0.002796,0.001527,-23.5,25.059998999999998,-22.68,2d
2019-07-12_120117:080,-0.369598,-0.014221000000000001,-0.315704,-0.003208,-0.000324,0.0029,-23.059998999999998,25.059998999999998,-22.18,2d
2019-07-12_120117:100,-0.35943600000000003,-0.016753999999999998,-0.309113,-0.005558,-0.000537,0.005006,-23.059998999999998,25.059998999999998,-22.18,2d
2019-07-12_120117:120,-0.36044299999999996,-0.022858,-0.310638,-0.00748,-0.002643,0.006044,-24.059998999999998,24.25,-23.5,2d
2019-07-12_120117:140,-0.366058,-0.032532,-0.312653,-0.008609,-0.005634,0.006135,-24.059998999999998,24.25,-23.5,2d
2019-07-12_120117:160,-0.369598,-0.038116000000000004,-0.318268,-0.008732,-0.008533,0.006074,-24.059998999999998,24.25,-23.5,2d
2019-07-12_120117:180,-0.379791,-0.041687,-0.323853,-0.007633,-0.010394,0.006074,-24.059998999999998,25.370001000000002,-22.559998999999998,2d
2019-07-12_120117:200,-0.384857,-0.044219999999999995,-0.326385,-0.006351,-0.01073,0.005403,-24.059998999999998,25.370001000000002,-22.559998999999998,2d
2019-07-12_120117:220,-0.387909,-0.041168,-0.330475,-0.004642,-0.009509,0.0038469999999999997,-23.5,25.059998999999998,-23.370001000000002,2d
2019-07-12_120117:240,-0.38739,-0.037108999999999996,-0.327423,-0.003452,-0.006854000000000001,0.002107,-23.5,25.059998999999998,-23.370001000000002,2d
2019-07-12_120117:260,-0.379791,-0.028442000000000002,-0.327423,-0.003055,-0.004596,0.0027170000000000002,-23.5,25.059998999999998,-23.370001000000002,2d
2019-07-12_120117:280,-0.37112399999999995,-0.026917,-0.323334,-0.003147,-0.003589,0.00345,-24.5,24.68,-21.68,2d
2019-07-12_120117:300,-0.368591,-0.029968,-0.319794,-0.0036049999999999997,-0.004383,0.003175,-24.5,24.68,-21.68,2d
2019-07-12_120117:320,-0.371643,-0.032013,-0.323334,-0.0036659999999999996,-0.006397,0.003297,-24.5,25.059998999999998,-22.870001000000002,2d
2019-07-12_120117:340,-0.376221,-0.036591000000000005,-0.326904,-0.002811,-0.008075,0.004152,-24.5,25.059998999999998,-22.870001000000002,2d
2019-07-12_120117:360,-0.380798,-0.036072,-0.32843,-0.0018039999999999998,-0.008808,0.004518,-24.5,25.059998999999998,-22.870001000000002,2d
2019-07-12_120117:380,-0.390961,-0.031494,-0.330963,-0.001072,-0.007678,0.004274,-24.059998999999998,24.68,-23.68,2d
2019-07-12_120117:400,-0.382812,-0.025421,-0.327911,-0.001285,-0.0052369999999999995,0.004274,-24.059998999999998,24.68,-23.68,2d
2019-07-12_120117:420,-0.375702,-0.016266,-0.323853,-0.003147,-0.0030399999999999997,0.004152,-24.059998999999998,25.370001000000002,-21.370001000000002,2d
2019-07-12_120117:440,-0.372162,-0.017273,-0.320282,-0.006076,-0.0017280000000000002,0.005006,-24.059998999999998,25.370001000000002,-21.370001000000002,2d
2019-07-12_120117:460,-0.361481,-0.020844,-0.318756,-0.007999,-0.0023989999999999997,0.0067150000000000005,-24.059998999999998,25.370001000000002,-21.370001000000002,2d
2019-07-12_120117:480,-0.36654699999999996,-0.028961,-0.320801,-0.010135,-0.004108,0.006837,-23.75,24.25,-22.559998999999998,2d
2019-07-12_120117:500,-0.369598,-0.039642000000000004,-0.318268,-0.010654,-0.006214,0.006044,-23.75,24.25,-22.559998999999998,2d
2019-07-12_120117:520,-0.37112399999999995,-0.043213,-0.320801,-0.009342,-0.008075,0.006044,-23.75,25.370001000000002,-22.18,2d
2019-07-12_120117:540,-0.381805,-0.048798,-0.325378,-0.007541,-0.008869,0.005403,-23.75,25.370001000000002,-22.18,2d
2019-07-12_120117:560,-0.384338,-0.048798,-0.32843,-0.004886,-0.009113,0.0038159999999999995,-23.75,25.370001000000002,-22.18,2d
2019-07-12_120117:580,-0.38385,-0.043213,-0.330963,-0.0022010000000000003,-0.007862000000000001,0.002107,-24.5,24.68,-22.18,2d
2019-07-12_120117:600,-0.381317,-0.03302,-0.326385,-9.499999999999999e-05,-0.005756,0.001314,-24.5,24.68,-22.18,2d
2019-07-12_120117:620,-0.37265,-0.020844,-0.324371,-9.499999999999999e-05,-0.003833,0.00229,-23.75,24.68,-21.68,2d
2019-07-12_120117:640,-0.364532,-0.01828,-0.319794,-0.0013460000000000002,-0.002735,0.004182,-23.75,24.68,-21.68,2d
2019-07-12_120117:660,-0.36044299999999996,-0.019318000000000002,-0.320282,-0.00275,-0.0038640000000000002,0.005525,-23.75,24.68,-21.68,2d
2019-07-12_120117:680,-0.365021,-0.021332,-0.320282,-0.004947,-0.005725,0.006044,-23.059998999999998,24.68,-21.75,2d
2019-07-12_120117:700,-0.372162,-0.026917,-0.326385,-0.006687,-0.007281999999999999,0.007844,-23.059998999999998,24.68,-21.75,2d
2019-07-12_120117:720,-0.377228,-0.035583,-0.326904,-0.007601999999999999,-0.008319,0.008638,-24.059998999999998,24.68,-22.25,2d
2019-07-12_120117:740,-0.383331,-0.042694,-0.332489,-0.0076939999999999995,-0.008533,0.006868000000000001,-24.059998999999998,24.68,-22.25,2d
2019-07-12_120117:760,-0.394531,-0.042694,-0.333496,-0.007297,-0.007526000000000001,0.005922,-24.059998999999998,24.68,-22.25,2d
2019-07-12_120117:780,-0.391968,-0.044219999999999995,-0.33300799999999997,-0.0061070000000000004,-0.005115,0.006196,-23.5,24.68,-23.0,2d
2019-07-12_120117:800,-0.377747,-0.040161,-0.326904,-0.005375,-0.002857,0.004396,-23.5,24.68,-23.0,2d
2019-07-12_120117:820,-0.374176,-0.037108999999999996,-0.325897,-0.005436,-0.0013310000000000002,0.0034189999999999997,-23.5,25.059998999999998,-22.25,2d
2019-07-12_120117:840,-0.358917,-0.036591000000000005,-0.314697,-0.005344,-0.001209,0.004335,-23.5,25.059998999999998,-22.25,2d
2019-07-12_120117:860,-0.359955,-0.038116000000000004,-0.315704,-0.005497,-0.0030399999999999997,0.00403,-23.5,25.059998999999998,-22.25,2d
2019-07-12_120117:880,-0.370636,-0.042175,-0.320801,-0.0051,-0.005451,0.002778,-22.68,24.68,-22.68,2d
2019-07-12_120117:900,-0.37316900000000003,-0.040649,-0.32132,-0.0036659999999999996,-0.007587000000000001,0.003053,-22.68,24.68,-22.68,2d
2019-07-12_120117:920,-0.38739,-0.043213,-0.328949,-0.002262,-0.008808,0.003511,-23.5,24.68,-22.25,2d
2019-07-12_120117:940,-0.391968,-0.039642000000000004,-0.32995599999999997,-0.001194,-0.008411,0.0034189999999999997,-23.5,24.68,-22.25,2d
2019-07-12_120117:960,-0.389435,-0.029480000000000003,-0.327423,-0.000614,-0.006397,0.003572,-23.5,24.68,-22.25,2d
2019-07-12_120117:980,-0.385376,-0.025421,-0.326385,-0.001285,-0.003375,0.0034189999999999997,-23.059998999999998,24.370001000000002,-23.059998999999998,2d
2019-07-12_120118:000,-0.367584,-0.017792,-0.316223,-0.003483,-0.000781,0.0034189999999999997,-23.059998999999998,24.370001000000002,-23.059998999999998,2d
2019-07-12_120118:020,-0.36349499999999996,-0.018799,-0.314178,-0.0060149999999999995,-0.000263,0.005342,-23.75,24.68,-22.18,2d
2019-07-12_120118:040,-0.358429,-0.027954000000000003,-0.311646,-0.008334999999999999,-0.001789,0.0069900000000000006,-23.75,24.68,-22.18,2d
2019-07-12_120118:060,-0.356903,-0.03302,-0.312653,-0.010013,-0.004444,0.006379,-23.75,24.68,-22.18,2d
2019-07-12_120118:080,-0.36654699999999996,-0.046752999999999996,-0.319275,-0.010074,-0.007404000000000001,0.005861,-23.75,24.370001000000002,-22.18,2d
2019-07-12_120118:100,-0.36911,-0.046752999999999996,-0.320801,-0.00867,-0.009509,0.0058,-23.75,24.370001000000002,-22.18,2d
2019-07-12_120118:120,-0.374695,-0.051849,-0.326385,-0.00687,-0.010912999999999999,0.004915,-23.75,24.68,-22.18,2d
2019-07-12_120118:140,-0.386902,-0.051849,-0.33197,-0.004123,-0.010974,0.003053,-23.75,24.68,-22.18,2d
2019-07-12_120118:160,-0.388916,-0.039124,-0.333496,-0.002323,-0.008808,0.001192,-23.75,24.68,-22.18,2d
2019-07-12_120118:180,-0.390961,-0.035065,-0.33300799999999997,-0.001224,-0.005939,0.0005200000000000001,-23.75,25.059998999999998,-22.68,2d
2019-07-12_120118:200,-0.37112399999999995,-0.025421,-0.326904,-0.0019260000000000002,-0.0032530000000000002,0.001497,-23.75,25.059998999999998,-22.68,2d
2019-07-12_120118:220,-0.37011700000000003,-0.023895,-0.323334,-0.00275,-0.002582,0.002778,-24.059998999999998,24.68,-22.559998999999998,2d
2019-07-12_120118:240,-0.37316900000000003,-0.023895,-0.323334,-0.004184,-0.00365,0.003908,-24.059998999999998,24.68,-22.559998999999998,2d
2019-07-12_120118:260,-0.365021,-0.032532,-0.321808,-0.004398,-0.0052369999999999995,0.004457,-24.059998999999998,24.68,-22.559998999999998,2d
2019-07-12_120118:280,-0.372162,-0.036591000000000005,-0.323853,-0.004062,-0.006854000000000001,0.004457,-23.5,24.68,-22.18,2d
2019-07-12_120118:300,-0.381317,-0.039124,-0.327911,-0.002994,-0.006945999999999999,0.004457,-23.5,24.68,-22.18,2d
2019-07-12_120118:320,-0.386902,-0.036072,-0.327423,-0.002536,-0.006731999999999999,0.004609,-23.5,24.25,-23.370001000000002,2d
2019-07-12_120118:340,-0.385376,-0.026917,-0.326904,-0.002872,-0.004444,0.004335,-23.5,24.25,-23.370001000000002,2d
2019-07-12_120118:360,-0.377747,-0.020844,-0.322845,-0.004978,-0.002857,0.0039689999999999994,-23.5,24.25,-23.370001000000002,2d
2019-07-12_120118:380,-0.36654699999999996,-0.022858,-0.319275,-0.007633,-0.001941,0.004396,-24.059998999999998,25.059998999999998,-22.870001000000002,2d
2019-07-12_120118:400,-0.358917,-0.023375999999999997,-0.316223,-0.009739,-0.002124,0.005525,-24.059998999999998,25.059998999999998,-22.870001000000002,2d
2019-07-12_120118:420,-0.355896,-0.038116000000000004,-0.313171,-0.010135,-0.003986,0.005403,-24.5,25.059998999999998,-22.18,2d
2019-07-12_120118:440,-0.35943600000000003,-0.045226999999999996,-0.316742,-0.009006,-0.0066099999999999996,0.004396,-24.5,25.059998999999998,-22.18,2d
2019-07-12_120118:460,-0.365021,-0.048279,-0.321808,-0.007206000000000001,-0.009326000000000001,0.004152,-24.5,25.059998999999998,-22.18,2d
2019-07-12_120118:480,-0.37011700000000003,-0.050323,-0.327423,-0.004337,-0.011127,0.00345,-23.75,24.68,-22.870001000000002,2d
2019-07-12_120118:500,-0.389435,-0.048798,-0.33197,-0.0019260000000000002,-0.011371,0.002443,-23.75,24.68,-22.870001000000002,2d
2019-07-12_120118:520,-0.396057,-0.036591000000000005,-0.335541,-0.00095,-0.010912999999999999,0.0017100000000000001,-23.75,25.059998999999998,-22.559998999999998,2d
2019-07-12_120118:540,-0.398071,-0.026427999999999997,-0.339111,-0.000156,-0.006548999999999999,0.000398,-23.75,25.059998999999998,-22.559998999999998,2d
2019-07-12_120118:560,-0.388916,-0.020325,-0.332489,-0.001468,-0.0035280000000000003,0.001771,-23.75,25.059998999999998,-22.559998999999998,2d
2019-07-12_120118:580,-0.374695,-0.016753999999999998,-0.32843,-0.003208,-0.0017280000000000002,0.005067,-24.870001000000002,25.059998999999998,-22.559998999999998,2d
2019-07-12_120118:600,-0.36654699999999996,-0.026917,-0.318268,-0.004978,-0.0017280000000000002,0.0069900000000000006,-24.870001000000002,25.059998999999998,-22.559998999999998,2d
2019-07-12_120118:620,-0.365021,-0.03302,-0.316742,-0.005679999999999999,-0.0025210000000000002,0.006074,-23.75,25.370001000000002,-22.559998999999998,2d
2019-07-12_120118:640,-0.36349499999999996,-0.041687,-0.314178,-0.005039,-0.004108,0.004609,-23.75,25.370001000000002,-22.559998999999998,2d
2019-07-12_120118:660,-0.367584,-0.039124,-0.31723,-0.00394,-0.005756,0.004548,-23.75,25.370001000000002,-22.559998999999998,2d
2019-07-12_120118:680,-0.378265,-0.033539,-0.322845,-0.003544,-0.00719,0.00525,-23.5,25.059998999999998,-22.870001000000002,2d
2019-07-12_120118:700,-0.382812,-0.029480000000000003,-0.326385,-0.004337,-0.007220999999999999,0.005525,-23.5,25.059998999999998,-22.870001000000002,2d
2019-07-12_120118:720,-0.381805,-0.026427999999999997,-0.32486,-0.005222,-0.006731999999999999,0.005189,-23.75,25.059998999999998,-22.18,2d
2019-07-12_120118:740,-0.380798,-0.027435,-0.325897,-0.008274,-0.00484,0.004182,-23.75,25.059998999999998,-22.18,2d
2019-07-12_120118:760,-0.37265,-0.032532,-0.322327,-0.009678,-0.003192,0.005128,-23.75,25.059998999999998,-22.18,2d
2019-07-12_120118:780,-0.36706500000000003,-0.040649,-0.319275,-0.009739,-0.002796,0.005647,-23.059998999999998,25.75,-21.0,2d
2019-07-12_120118:800,-0.366058,-0.048279,-0.319275,-0.007877,-0.004169,0.003633,-23.059998999999998,25.75,-21.0,2d
2019-07-12_120118:820,-0.365021,-0.048798,-0.321808,-0.006809,-0.004901,0.002778,-23.059998999999998,25.75,-21.0,2d
2019-07-12_120118:840,-0.371643,-0.048279,-0.326385,-0.002872,-0.008075,0.0019850000000000002,-23.75,24.68,-22.18,2d
2019-07-12_120118:860,-0.382324,-0.043213,-0.330963,-0.0008269999999999999,-0.009143,0.001771,-23.75,24.68,-22.18,2d
2019-07-12_120118:880,-0.390961,-0.031494,-0.33300799999999997,-9.499999999999999e-05,-0.009448,0.001832,-24.059998999999998,25.059998999999998,-22.18,2d
2019-07-12_120118:900,-0.392487,-0.024384,-0.332489,-3e-06,-0.007343000000000001,0.002321,-24.059998999999998,25.059998999999998,-22.18,2d
2019-07-12_120118:920,-0.386902,-0.020325,-0.329437,-0.000675,-0.005939,0.002565,-24.059998999999998,25.059998999999998,-23.370001000000002,2d
2019-07-12_120118:940,-0.375214,-0.016266,-0.325897,-0.003452,-0.002246,0.004548,-24.059998999999998,25.059998999999998,-23.370001000000002,2d
2019-07-12_120118:960,-0.36349499999999996,-0.022369,-0.315704,-0.005344,-0.0013310000000000002,0.0069900000000000006,-24.059998999999998,25.059998999999998,-23.370001000000002,2d
2019-07-12_120118:980,-0.35943600000000003,-0.028961,-0.315216,-0.005741,-0.001605,0.007326000000000001,-23.75,24.68,-22.18,2d
2019-07-12_120119:000,-0.361481,-0.033539,-0.314178,-0.006626000000000001,-0.004169,0.005311,-23.75,24.68,-22.18,2d
2019-07-12_120119:020,-0.36044299999999996,-0.035583,-0.316742,-0.006687,-0.00539,0.005403,-23.75,24.68,-23.370001000000002,2d
2019-07-12_120119:040,-0.378754,-0.037598,-0.323853,-0.006076,-0.008808,0.007509,-23.75,24.68,-23.370001000000002,2d
2019-07-12_120119:060,-0.377228,-0.039124,-0.326904,-0.006168,-0.009387000000000001,0.006837,-23.75,24.68,-23.370001000000002,2d
2019-07-12_120119:080,-0.386902,-0.037598,-0.33300799999999997,-0.00629,-0.00954,0.005861,-23.5,25.059998999999998,-22.559998999999998,2d
2019-07-12_120119:100,-0.386383,-0.036072,-0.333496,-0.007145,-0.007404000000000001,0.004152,-23.5,25.059998999999998,-22.559998999999998,2d
2019-07-12_120119:120,-0.381317,-0.038116000000000004,-0.330963,-0.007418999999999999,-0.006,0.004091,-24.059998999999998,25.059998999999998,-22.870001000000002,2d
2019-07-12_120119:140,-0.375214,-0.041168,-0.327911,-0.007267,-0.0023989999999999997,0.00403,-24.059998999999998,25.059998999999998,-22.870001000000002,2d
2019-07-12_120119:160,-0.36248800000000003,-0.044219999999999995,-0.322327,-0.006168,-0.002307,0.002839,-24.059998999999998,25.059998999999998,-22.870001000000002,2d
2019-07-12_120119:180,-0.360962,-0.044739,-0.322845,-0.005344,-0.003375,0.0019850000000000002,-24.059998999999998,25.75,-22.870001000000002,2d
2019-07-12_120119:200,-0.371643,-0.042694,-0.324371,-0.00275,-0.006548999999999999,0.001161,-24.059998999999998,25.75,-22.870001000000002,2d
2019-07-12_120119:220,-0.378754,-0.040161,-0.328949,-0.0018039999999999998,-0.007465,0.001253,-23.75,24.25,-22.559998999999998,2d
2019-07-12_120119:240,-0.389435,-0.031494,-0.33300799999999997,-0.00046100000000000004,-0.008594,0.0016489999999999999,-23.75,24.25,-22.559998999999998,2d
2019-07-12_120119:260,-0.393494,-0.027435,-0.333496,-0.000278,-0.007220999999999999,0.002839,-23.75,24.25,-22.559998999999998,2d
2019-07-12_120119:280,-0.383331,-0.021332,-0.331482,-0.000889,-0.006397,0.0034189999999999997,-23.5,25.059998999999998,-22.559998999999998,2d
2019-07-12_120119:300,-0.383331,-0.019806,-0.320801,-0.003452,-0.001941,0.0039689999999999994,-23.5,25.059998999999998,-22.559998999999998,2d
2019-07-12_120119:320,-0.364014,-0.018799,-0.319794,-0.004520000000000001,-0.000598,0.004548,-23.5,25.059998999999998,-22.559998999999998,2d
2019-07-12_120119:340,-0.360962,-0.024902,-0.311646,-0.006626000000000001,0.000195,0.005586,-23.75,25.059998999999998,-21.370001000000002,2d
2019-07-12_120119:360,-0.356903,-0.027954000000000003,-0.311127,-0.00748,-0.001056,0.004945000000000001,-23.75,25.059998999999998,-21.370001000000002,2d
2019-07-12_120119:380,-0.361969,-0.031006,-0.315216,-0.00867,-0.004321,0.005464,-23.75,25.059998999999998,-22.18,2d
2019-07-12_120119:400,-0.37011700000000003,-0.042175,-0.320282,-0.008548,-0.007678,0.007722,-23.75,25.059998999999998,-22.18,2d
2019-07-12_120119:420,-0.375214,-0.045745999999999995,-0.325897,-0.008029999999999999,-0.009876000000000001,0.007448000000000001,-24.059998999999998,25.059998999999998,-21.68,2d
2019-07-12_120119:440,-0.385376,-0.046265,-0.329437,-0.007358,-0.010394,0.005403,-24.059998999999998,25.059998999999998,-21.68,2d
2019-07-12_120119:460,-0.386383,-0.045745999999999995,-0.328949,-0.0052829999999999995,-0.007587000000000001,0.004091,-24.059998999999998,25.059998999999998,-21.68,2d
2019-07-12_120119:480,-0.383331,-0.042175,-0.32843,-0.004825,-0.006488,0.003023,-23.75,25.059998999999998,-23.370001000000002,2d
2019-07-12_120119:500,-0.376221,-0.036591000000000005,-0.327423,-0.004337,-0.003192,0.000642,-23.75,25.059998999999998,-23.370001000000002,2d
2019-07-12_120119:520,-0.36654699999999996,-0.033539,-0.322845,-0.004184,-0.002857,0.000917,-23.75,25.059998999999998,-23.370001000000002,2d
2019-07-12_120119:540,-0.37011700000000003,-0.034546,-0.323334,-0.0037270000000000003,-0.004596,0.001039,-23.75,25.370001000000002,-22.18,2d
2019-07-12_120119:560,-0.375214,-0.033539,-0.325897,-0.0036659999999999996,-0.005451,0.0007030000000000001,-23.75,25.370001000000002,-22.18,2d
2019-07-12_120119:580,-0.382324,-0.032532,-0.327911,-0.0027199999999999998,-0.007129000000000001,0.001039,-23.75,24.68,-23.370001000000002,2d
2019-07-12_120119:600,-0.392487,-0.029968,-0.330963,-0.0016820000000000001,-0.008136,0.0027170000000000002,-23.75,24.68,-23.370001000000002,2d
2019-07-12_120119:620,-0.390442,-0.029480000000000003,-0.332489,-0.001224,-0.007739,0.0038469999999999997,-24.5,25.059998999999998,-22.18,2d
2019-07-12_120119:640,-0.389435,-0.024384,-0.325897,-0.001468,-0.00539,0.004548,-24.5,25.059998999999998,-22.18,2d
2019-07-12_120119:660,-0.378754,-0.022369,-0.322327,-0.003116,-0.001575,0.004457,-24.5,25.059998999999998,-22.18,2d
2019-07-12_120119:680,-0.36706500000000003,-0.019318000000000002,-0.31369,-0.00394,-0.000324,0.004396,-24.059998999999998,25.059998999999998,-22.18,2d
2019-07-12_120119:700,-0.359955,-0.019806,-0.309113,-0.007358,-0.000202,0.005128,-24.059998999999998,25.059998999999998,-22.18,2d
2019-07-12_120119:720,-0.35791,-0.025421,-0.308594,-0.008152,-0.001056,0.005983,-24.059998999999998,25.059998999999998,-22.18,2d
2019-07-12_120119:740,-0.360962,-0.032532,-0.312164,-0.009556,-0.003925,0.0069900000000000006,-23.5,25.059998999999998,-22.559998999999998,2d
2019-07-12_120119:760,-0.364532,-0.041168,-0.316223,-0.010013,-0.0070680000000000005,0.005922,-23.5,25.059998999999998,-22.559998999999998,2d
2019-07-12_120119:780,-0.370636,-0.045745999999999995,-0.320282,-0.009128,-0.009723,0.004732,-24.5,24.370001000000002,-21.370001000000002,2d
2019-07-12_120119:800,-0.378754,-0.046752999999999996,-0.326385,-0.007023000000000001,-0.011127,0.004548,-24.5,24.370001000000002,-21.370001000000002,2d
2019-07-12_120119:820,-0.385864,-0.046752999999999996,-0.329437,-0.004947,-0.010669,0.004396,-24.5,24.370001000000002,-21.370001000000002,2d
2019-07-12_120119:840,-0.384857,-0.039642000000000004,-0.33300799999999997,-0.003116,-0.008594,0.003053,-23.5,24.370001000000002,-22.18,2d
2019-07-12_120119:860,-0.377747,-0.032013,-0.327423,-0.002079,-0.0061530000000000005,0.0019850000000000002,-23.5,24.370001000000002,-22.18,2d
2019-07-12_120119:880,-0.374695,-0.025908999999999998,-0.329437,-0.002597,-0.004779,0.0016489999999999999,-24.059998999999998,25.059998999999998,-22.559998999999998,2d
2019-07-12_120119:900,-0.363007,-0.024902,-0.325897,-0.003788,-0.004047,0.002046,-24.059998999999998,25.059998999999998,-22.559998999999998,2d
2019-07-12_120119:920,-0.375214,-0.028961,-0.330963,-0.004703,-0.005725,0.002229,-24.059998999999998,25.059998999999998,-22.559998999999998,2d
2019-07-12_120119:940,-0.381805,-0.030487,-0.334015,-0.005222,-0.007281999999999999,0.0017100000000000001,-23.5,24.0,-22.18,2d
2019-07-12_120119:960,-0.389954,-0.034546,-0.335022,-0.004642,-0.008136,0.003023,-23.5,24.0,-22.18,2d
2019-07-12_120119:980,-0.392487,-0.036072,-0.336548,-0.003544,-0.007343000000000001,0.004609,-24.059998999999998,25.059998999999998,-21.68,2d
2019-07-12_120120:000,-0.386902,-0.034058,-0.328949,-0.002475,-0.00539,0.004793,-24.059998999999998,25.059998999999998,-21.68,2d
2019-07-12_120120:020,-0.375702,-0.025421,-0.322845,-0.001865,-0.002704,0.0038469999999999997,-24.059998999999998,25.059998999999998,-21.68,2d
2019-07-12_120120:040,-0.36911,-0.022369,-0.319275,-0.0022010000000000003,-0.000537,0.003572,-24.5,24.68,-22.559998999999998,2d
2019-07-12_120120:060,-0.35943600000000003,-0.017792,-0.310638,-0.003544,0.000653,0.0038159999999999995,-24.5,24.68,-22.559998999999998,2d
2019-07-12_120120:080,-0.356903,-0.019318000000000002,-0.311127,-0.0069,-0.001209,0.005067,-24.059998999999998,24.68,-22.18,2d
2019-07-12_120120:100,-0.363007,-0.026427999999999997,-0.315704,-0.008762,-0.00426,0.006135,-24.059998999999998,24.68,-22.18,2d
2019-07-12_120120:120,-0.36554000000000003,-0.034546,-0.31723,-0.009556,-0.007129000000000001,0.005647,-24.059998999999998,24.68,-22.18,2d
2019-07-12_120120:140,-0.381317,-0.042175,-0.319275,-0.009342,-0.008808,0.005006,-23.75,25.370001000000002,-21.68,2d
2019-07-12_120120:160,-0.377747,-0.043213,-0.322845,-0.007601999999999999,-0.008808,0.005006,-23.75,25.370001000000002,-21.68,2d
2019-07-12_120120:180,-0.379272,-0.045745999999999995,-0.324371,-0.005436,-0.008014,0.003633,-24.5,25.059998999999998,-22.870001000000002,2d
2019-07-12_120120:200,-0.378754,-0.040161,-0.324371,-0.003452,-0.006731999999999999,0.0005809999999999999,-24.5,25.059998999999998,-22.870001000000002,2d
2019-07-12_120120:220,-0.37011700000000003,-0.027435,-0.32486,-0.002475,-0.005817,0.000368,-24.5,25.059998999999998,-22.870001000000002,2d
2019-07-12_120120:240,-0.36706500000000003,-0.023895,-0.325897,-0.002079,-0.005939,0.002687,-23.75,24.68,-22.870001000000002,2d
2019-07-12_120120:260,-0.37265,-0.025421,-0.32843,-0.002597,-0.007281999999999999,0.0034189999999999997,-23.75,24.68,-22.870001000000002,2d
2019-07-12_120120:280,-0.379272,-0.025421,-0.332489,-0.0033909999999999995,-0.008319,0.003572,-23.75,24.68,-22.559998999999998,2d
2019-07-12_120120:300,-0.388916,-0.028961,-0.335541,-0.003544,-0.008411,0.004396,-23.75,24.68,-22.559998999999998,2d
2019-07-12_120120:320,-0.396057,-0.031494,-0.338593,-0.0033909999999999995,-0.007739,0.005128,-23.75,24.68,-22.559998999999998,2d
2019-07-12_120120:340,-0.398071,-0.032532,-0.336548,-0.003544,-0.005939,0.005342,-23.75,24.370001000000002,-22.559998999999998,2d
2019-07-12_120120:360,-0.393005,-0.031006,-0.330963,-0.003116,-0.003192,0.005311,-23.75,24.370001000000002,-22.559998999999998,2d
2019-07-12_120120:380,-0.377747,-0.024902,-0.322327,-0.0033299999999999996,-0.00038500000000000003,0.004152,-24.5,25.059998999999998,-22.18,2d
2019-07-12_120120:400,-0.36911,-0.020325,-0.314178,-0.004459,0.001477,0.003297,-24.5,25.059998999999998,-22.18,2d
2019-07-12_120120:420,-0.353333,-0.017273,-0.30654899999999996,-0.00629,0.001324,0.004793,-24.5,25.059998999999998,-22.18,2d
2019-07-12_120120:440,-0.352325,-0.023895,-0.305542,-0.007999,-0.0014529999999999999,0.007203,-24.059998999999998,24.68,-22.18,2d
2019-07-12_120120:460,-0.359955,-0.032532,-0.311646,-0.009067,-0.004779,0.0076,-24.059998999999998,24.68,-22.18,2d
2019-07-12_120120:480,-0.36349499999999996,-0.038635,-0.315216,-0.009067,-0.007678,0.006654,-23.75,24.68,-22.559998999999998,2d
2019-07-12_120120:500,-0.37674,-0.046265,-0.320801,-0.007937999999999999,-0.010059,0.006257,-23.75,24.68,-22.559998999999998,2d
2019-07-12_120120:520,-0.38385,-0.048279,-0.326385,-0.006076,-0.010578,0.006044,-23.75,24.68,-22.559998999999998,2d
2019-07-12_120120:540,-0.391968,-0.047272,-0.329437,-0.004275999999999999,-0.009723,0.004274,-24.059998999999998,24.0,-22.18,2d
2019-07-12_120120:560,-0.38739,-0.041168,-0.32843,-0.002811,-0.007404000000000001,0.001771,-24.059998999999998,24.0,-22.18,2d
2019-07-12_120120:580,-0.38028,-0.026427999999999997,-0.327911,-0.002475,-0.005176,-2.8999999999999997e-05,-23.75,25.059998999999998,-23.370001000000002,2d
2019-07-12_120120:600,-0.370636,-0.022369,-0.326385,-0.0033299999999999996,-0.00426,0.0007030000000000001,-23.75,25.059998999999998,-23.370001000000002,2d
2019-07-12_120120:620,-0.36654699999999996,-0.021851,-0.323334,-0.004642,-0.004108,0.0027170000000000002,-23.75,24.25,-22.18,2d
2019-07-12_120120:640,-0.372162,-0.027435,-0.326904,-0.005497,-0.005695,0.0037549999999999997,-23.75,24.25,-22.18,2d
2019-07-12_120120:660,-0.378265,-0.033539,-0.328949,-0.005375,-0.006885,0.003908,-23.75,24.25,-22.18,2d
2019-07-12_120120:680,-0.388428,-0.037108999999999996,-0.333496,-0.004337,-0.007862000000000001,0.004671,-23.5,25.059998999999998,-23.370001000000002,2d
2019-07-12_120120:700,-0.39502,-0.039124,-0.33300799999999997,-0.002811,-0.00719,0.005678,-23.5,25.059998999999998,-23.370001000000002,2d
2019-07-12_120120:720,-0.398071,-0.037598,-0.33300799999999997,-0.001621,-0.005725,0.005464,-23.5,25.059998999999998,-23.370001000000002,2d
2019-07-12_120120:740,-0.38385,-0.027435,-0.32486,-0.0011330000000000001,-0.002735,0.004152,-24.059998999999998,24.25,-21.68,2d
2019-07-12_120120:760,-0.377228,-0.020325,-0.316742,-0.002079,-4.9e-05,0.0027170000000000002,-24.059998999999998,24.25,-21.68,2d
2019-07-12_120120:780,-0.361481,-0.012695,-0.310638,-0.004459,0.001538,0.002778,-23.5,25.059998999999998,-22.870001000000002,2d
2019-07-12_120120:800,-0.352844,-0.013213999999999998,-0.304535,-0.007145,0.00047000000000000004,0.004457,-23.5,25.059998999999998,-22.870001000000002,2d
2019-07-12_120120:820,-0.35436999999999996,-0.021332,-0.310638,-0.009617,-0.002582,0.005861,-23.5,25.059998999999998,-22.870001000000002,2d
2019-07-12_120120:840,-0.35943600000000003,-0.030487,-0.312164,-0.010868000000000001,-0.006336,0.0067150000000000005,-24.5,24.370001000000002,-22.18,2d
2019-07-12_120120:860,-0.368591,-0.042694,-0.319794,-0.010074,-0.009601,0.007112,-24.5,24.370001000000002,-22.18,2d
2019-07-12_120120:880,-0.378265,-0.048279,-0.324371,-0.008334999999999999,-0.011249,0.006532,-24.059998999999998,25.059998999999998,-23.370001000000002,2d
2019-07-12_120120:900,-0.389954,-0.051330999999999995,-0.330475,-0.005558,-0.011309999999999999,0.005006,-24.059998999999998,25.059998999999998,-23.370001000000002,2d
2019-07-12_120120:920,-0.393494,-0.048279,-0.333496,-0.00275,-0.009509,0.003053,-24.059998999999998,25.059998999999998,-23.370001000000002,2d
2019-07-12_120120:940,-0.382812,-0.034058,-0.330963,-0.001072,-0.006670999999999999,0.000795,-24.059998999999998,24.25,-23.370001000000002,2d
2019-07-12_120120:960,-0.377747,-0.022369,-0.32843,-0.00095,-0.004321,-0.000426,-24.059998999999998,24.25,-23.370001000000002,2d
2019-07-12_120120:980,-0.36554000000000003,-0.017273,-0.326385,-0.002353,-0.0030399999999999997,0.0011,-23.75,24.0,-22.559998999999998,2d
2019-07-12_120121:000,-0.36654699999999996,-0.016753999999999998,-0.324371,-0.004123,-0.0037719999999999997,0.003572,-23.75,24.0,-22.559998999999998,2d
2019-07-12_120121:020,-0.37265,-0.025908999999999998,-0.325897,-0.005497,-0.0052369999999999995,0.004793,-23.75,24.0,-22.559998999999998,2d
2019-07-12_120121:040,-0.38028,-0.034058,-0.327423,-0.005832,-0.006336,0.005128,-24.059998999999998,24.0,-22.18,2d
2019-07-12_120121:060,-0.388428,-0.040649,-0.331482,-0.004947,-0.007343000000000001,0.005067,-24.059998999999998,24.0,-22.18,2d
2019-07-12_120121:080,-0.397064,-0.041687,-0.333496,-0.002933,-0.0070680000000000005,0.004152,-23.75,24.370001000000002,-22.18,2d
2019-07-12_120121:100,-0.395538,-0.034546,-0.330963,-0.001468,-0.005451,0.00345,-23.75,24.370001000000002,-22.18,2d
2019-07-12_120121:120,-0.38739,-0.026917,-0.326385,-0.000797,-0.0025210000000000002,0.003633,-23.75,24.370001000000002,-22.18,2d
2019-07-12_120121:140,-0.373688,-0.015228,-0.319275,-0.001743,0.000317,0.003297,-23.059998999999998,24.68,-22.559998999999998,2d
2019-07-12_120121:160,-0.365021,-0.011687999999999999,-0.312164,-0.004062,0.001782,0.0038469999999999997,-23.059998999999998,24.68,-22.559998999999998,2d
2019-07-12_120121:180,-0.356903,-0.014740000000000001,-0.308594,-0.007084,0.000989,0.005678,-23.75,24.68,-22.559998999999998,2d
2019-07-12_120121:200,-0.361969,-0.020844,-0.309601,-0.009464,-0.001666,0.006868000000000001,-23.75,24.68,-22.559998999999998,2d
2019-07-12_120121:220,-0.367584,-0.035065,-0.31369,-0.010685,-0.004961999999999999,0.006868000000000001,-23.75,24.68,-22.559998999999998,2d
2019-07-12_120121:240,-0.372162,-0.044219999999999995,-0.316742,-0.010074,-0.007281999999999999,0.006196,-24.059998999999998,24.68,-22.18,2d
2019-07-12_120121:260,-0.38385,-0.049316000000000006,-0.320801,-0.007937999999999999,-0.009265,0.005647,-24.059998999999998,24.68,-22.18,2d
2019-07-12_120121:280,-0.389435,-0.050323,-0.323853,-0.0051,-0.009509,0.004396,-24.059998999999998,24.0,-22.559998999999998,2d
2019-07-12_120121:300,-0.388428,-0.040649,-0.322327,-0.002597,-0.008014,0.002229,-24.059998999999998,24.0,-22.559998999999998,2d
2019-07-12_120121:320,-0.381317,-0.031006,-0.321808,-0.001194,-0.005756,0.000245,-24.059998999999998,24.0,-22.559998999999998,2d
2019-07-12_120121:340,-0.370636,-0.019806,-0.320801,-0.0016820000000000001,-0.003711,0.000917,-24.059998999999998,24.0,-22.559998999999998,2d
2019-07-12_120121:360,-0.36248800000000003,-0.01828,-0.316223,-0.003116,-0.0031309999999999997,0.003358,-24.059998999999998,24.0,-22.559998999999998,2d
2019-07-12_120121:380,-0.36349499999999996,-0.023375999999999997,-0.319794,-0.004703,-0.004657,0.004396,-24.059998999999998,24.68,-21.370001000000002,2d
2019-07-12_120121:400,-0.36554000000000003,-0.028961,-0.319794,-0.005679999999999999,-0.0066099999999999996,0.004548,-24.059998999999998,24.68,-21.370001000000002,2d
2019-07-12_120121:420,-0.375214,-0.036591000000000005,-0.327423,-0.005893,-0.008808,0.005006,-24.059998999999998,24.68,-21.370001000000002,2d
2019-07-12_120121:440,-0.384857,-0.039642000000000004,-0.330963,-0.004703,-0.01012,0.00525,-23.5,24.68,-21.68,2d
2019-07-12_120121:460,-0.398071,-0.039642000000000004,-0.334015,-0.0037270000000000003,-0.009601,0.004671,-23.5,24.68,-21.68,2d
2019-07-12_120121:480,-0.401642,-0.033539,-0.335022,-0.002872,-0.007678,0.0038469999999999997,-23.75,24.68,-23.68,2d
2019-07-12_120121:500,-0.391968,-0.023895,-0.32843,-0.002933,-0.004321,0.003023,-23.75,24.68,-23.68,2d
2019-07-12_120121:520,-0.384857,-0.019318000000000002,-0.325897,-0.004459,-0.001911,0.0034189999999999997,-23.75,24.68,-23.68,2d
2019-07-12_120121:540,-0.369598,-0.022858,-0.316223,-0.006076,-0.00072,0.005739,-23.5,24.68,-22.559998999999998,2d
2019-07-12_120121:560,-0.36554000000000003,-0.030487,-0.312653,-0.007084,-0.0013310000000000002,0.007112,-23.5,24.68,-22.559998999999998,2d
2019-07-12_120121:580,-0.364014,-0.040649,-0.311127,-0.006962,-0.002918,0.006135,-23.75,24.68,-22.559998999999998,2d
2019-07-12_120121:600,-0.365021,-0.044219999999999995,-0.312653,-0.005619,-0.005115,0.004854,-23.75,24.68,-22.559998999999998,2d
2019-07-12_120121:620,-0.378265,-0.041687,-0.316223,-0.003483,-0.006488,0.0039689999999999994,-23.75,24.68,-22.559998999999998,2d
2019-07-12_120121:640,-0.382812,-0.034546,-0.319275,-0.002414,-0.007343000000000001,0.002778,-25.25,25.059998999999998,-20.559998999999998,2d
2019-07-12_120121:660,-0.386383,-0.022369,-0.321808,-0.0027199999999999998,-0.007281999999999999,0.002839,-25.25,25.059998999999998,-20.559998999999998,2d
2019-07-12_120121:680,-0.379272,-0.018799,-0.320282,-0.0042450000000000005,-0.006336,0.002839,-24.5,25.059998999999998,-22.68,2d
2019-07-12_120121:700,-0.374176,-0.017273,-0.319275,-0.006626000000000001,-0.005054,0.002382,-24.5,25.059998999999998,-22.68,2d
2019-07-12_120121:720,-0.365021,-0.026917,-0.316223,-0.008823000000000001,-0.004047,0.003694,-24.5,25.059998999999998,-22.68,2d
2019-07-12_120121:740,-0.364014,-0.035065,-0.315704,-0.008945,-0.004383,0.005189,-22.68,24.68,-23.059998999999998,2d
2019-07-12_120121:760,-0.36706500000000003,-0.043701,-0.322327,-0.007999,-0.006275,0.003511,-22.68,24.68,-23.059998999999998,2d
2019-07-12_120121:780,-0.368591,-0.044219999999999995,-0.321808,-0.005679999999999999,-0.00838,0.0019850000000000002,-23.75,24.25,-21.0,2d
2019-07-12_120121:800,-0.380798,-0.042175,-0.328949,-0.002659,-0.010394,0.002565,-23.75,24.25,-21.0,2d
2019-07-12_120121:820,-0.386383,-0.036072,-0.332489,-0.000156,-0.010578,0.002839,-23.75,24.25,-21.0,2d
2019-07-12_120121:840,-0.393494,-0.022369,-0.334015,0.000515,-0.009876000000000001,0.002321,-24.5,24.370001000000002,-22.25,2d
2019-07-12_120121:860,-0.389954,-0.016266,-0.33300799999999997,-9.499999999999999e-05,-0.007739,0.0025039999999999997,-24.5,24.370001000000002,-22.25,2d
2019-07-12_120121:880,-0.382324,-0.009644,-0.329437,-0.002262,-0.005115,0.0034189999999999997,-24.059998999999998,25.059998999999998,-23.059998999999998,2d
2019-07-12_120121:900,-0.375702,-0.011687999999999999,-0.323853,-0.005039,-0.0031309999999999997,0.005128,-24.059998999999998,25.059998999999998,-23.059998999999998,2d
2019-07-12_120121:920,-0.364014,-0.023375999999999997,-0.32132,-0.007297,-0.002857,0.007844,-24.059998999999998,25.059998999999998,-23.059998999999998,2d
2019-07-12_120121:940,-0.368591,-0.034058,-0.320801,-0.008334999999999999,-0.003986,0.008454999999999999,-24.5,24.68,-21.870001000000002,2d
2019-07-12_120121:960,-0.372162,-0.038635,-0.32132,-0.007999,-0.005573,0.0069900000000000006,-24.5,24.68,-21.870001000000002,2d
2019-07-12_120121:980,-0.38028,-0.040161,-0.321808,-0.006351,-0.006214,0.006135,-24.059998999999998,25.059998999999998,-23.059998999999998,2d
2019-07-12_120122:000,-0.381805,-0.036591000000000005,-0.322845,-0.004978,-0.006336,0.006318,-24.059998999999998,25.059998999999998,-23.059998999999998,2d
2019-07-12_120122:020,-0.387909,-0.032532,-0.325897,-0.004337,-0.006488,0.006044,-24.059998999999998,25.059998999999998,-23.059998999999998,2d
2019-07-12_120122:040,-0.382324,-0.023375999999999997,-0.324371,-0.004581,-0.006,0.005128,-22.25,24.68,-22.18,2d
2019-07-12_120122:060,-0.379791,-0.022369,-0.322845,-0.005893,-0.004657,0.004915,-22.25,24.68,-22.18,2d
2019-07-12_120122:080,-0.37011700000000003,-0.024902,-0.322327,-0.007877,-0.003467,0.005311,-23.75,25.370001000000002,-22.68,2d
2019-07-12_120122:100,-0.36554000000000003,-0.032013,-0.316223,-0.009006,-0.002704,0.006257,-23.75,25.370001000000002,-22.68,2d
2019-07-12_120122:120,-0.364014,-0.043701,-0.316223,-0.009006,-0.0032530000000000002,0.005525,-23.75,25.370001000000002,-22.68,2d
2019-07-12_120122:140,-0.366058,-0.044739,-0.319794,-0.007297,-0.005115,0.0038159999999999995,-23.75,24.68,-22.559998999999998,2d
2019-07-12_120122:160,-0.372162,-0.045745999999999995,-0.322845,-0.0051,-0.00719,0.003053,-23.75,24.68,-22.559998999999998,2d
2019-07-12_120122:180,-0.379791,-0.044219999999999995,-0.325378,-0.002323,-0.009052,0.002778,-24.5,24.68,-21.370001000000002,2d
2019-07-12_120122:200,-0.386902,-0.035065,-0.327423,-0.0004,-0.009784000000000001,0.002443,-24.5,24.68,-21.370001000000002,2d
2019-07-12_120122:220,-0.388916,-0.026917,-0.330963,0.000515,-0.00893,0.002321,-24.5,24.68,-21.370001000000002,2d
2019-07-12_120122:240,-0.387909,-0.018799,-0.327911,-3e-06,-0.006885,0.002168,-24.5,25.059998999999998,-23.0,2d
2019-07-12_120122:260,-0.381805,-0.015228,-0.32486,-0.0019260000000000002,-0.004657,0.002839,-24.5,25.059998999999998,-23.0,2d
2019-07-12_120122:280,-0.371643,-0.017792,-0.320282,-0.0042450000000000005,-0.002857,0.005006,-23.75,25.059998999999998,-22.25,2d
2019-07-12_120122:300,-0.367584,-0.025421,-0.318756,-0.0060149999999999995,-0.003436,0.007051000000000001,-23.75,25.059998999999998,-22.25,2d
2019-07-12_120122:320,-0.36911,-0.037108999999999996,-0.317749,-0.0069,-0.004596,0.006837,-23.75,25.059998999999998,-22.25,2d
2019-07-12_120122:340,-0.37265,-0.040161,-0.32132,-0.0060149999999999995,-0.006092,0.005739,-23.059998999999998,25.059998999999998,-22.68,2d
2019-07-12_120122:360,-0.380798,-0.040161,-0.322327,-0.004459,-0.007006999999999999,0.005739,-23.059998999999998,25.059998999999998,-22.68,2d
2019-07-12_120122:380,-0.385376,-0.035065,-0.325378,-0.003208,-0.006793,0.0058,-24.059998999999998,25.059998999999998,-21.059998999999998,2d
2019-07-12_120122:400,-0.384338,-0.023375999999999997,-0.326385,-0.003147,-0.006397,0.005678,-24.059998999999998,25.059998999999998,-21.059998999999998,2d
2019-07-12_120122:420,-0.378754,-0.019806,-0.324371,-0.004398,-0.005298,0.006135,-24.059998999999998,25.059998999999998,-21.059998999999998,2d
2019-07-12_120122:440,-0.371643,-0.021851,-0.321808,-0.006962,-0.00426,0.0058,-24.059998999999998,25.059998999999998,-23.0,2d
2019-07-12_120122:460,-0.36706500000000003,-0.024902,-0.318756,-0.009403,-0.00307,0.006318,-24.059998999999998,25.059998999999998,-23.0,2d
2019-07-12_120122:480,-0.36044299999999996,-0.040649,-0.316223,-0.010685,-0.0030399999999999997,0.0069900000000000006,-24.059998999999998,24.68,-23.059998999999998,2d
2019-07-12_120122:500,-0.36248800000000003,-0.046752999999999996,-0.314697,-0.010196,-0.0045049999999999995,0.005678,-24.059998999999998,24.68,-23.059998999999998,2d
2019-07-12_120122:520,-0.36706500000000003,-0.048279,-0.322327,-0.008395999999999999,-0.006670999999999999,0.004091,-24.059998999999998,24.68,-23.059998999999998,2d
2019-07-12_120122:540,-0.37112399999999995,-0.049805,-0.325378,-0.005954,-0.008808,0.004091,-23.75,25.75,-22.68,2d
2019-07-12_120122:560,-0.386383,-0.045745999999999995,-0.330475,-0.002811,-0.010181,0.003511,-23.75,25.75,-22.68,2d
2019-07-12_120122:580,-0.389954,-0.040161,-0.333496,-0.000492,-0.010272,0.0025039999999999997,-23.5,24.68,-23.370001000000002,2d
2019-07-12_120122:600,-0.386383,-0.025908999999999998,-0.329437,0.000454,-0.008533,0.0025039999999999997,-23.5,24.68,-23.370001000000002,2d
2019-07-12_120122:620,-0.387909,-0.022858,-0.330475,-0.0004,-0.0060609999999999995,0.002687,-23.5,24.68,-23.370001000000002,2d
2019-07-12_120122:640,-0.37011700000000003,-0.019318000000000002,-0.323334,-0.001957,-0.0037719999999999997,0.003908,-23.5,24.68,-22.559998999999998,2d
2019-07-12_120122:660,-0.372162,-0.023375999999999997,-0.32486,-0.0042450000000000005,-0.0037719999999999997,0.00525,-23.5,24.68,-22.559998999999998,2d
2019-07-12_120122:680,-0.36654699999999996,-0.032532,-0.321808,-0.005619,-0.004718,0.005647,-23.5,25.059998999999998,-22.559998999999998,2d
2019-07-12_120122:700,-0.37112399999999995,-0.040161,-0.320282,-0.0061070000000000004,-0.005878,0.005525,-23.5,25.059998999999998,-22.559998999999998,2d
2019-07-12_120122:720,-0.375702,-0.042175,-0.325378,-0.004703,-0.006397,0.005464,-23.5,25.059998999999998,-22.559998999999998,2d
2019-07-12_120122:740,-0.377747,-0.041168,-0.324371,-0.0033299999999999996,-0.006092,0.004396,-23.75,25.059998999999998,-22.25,2d
2019-07-12_120122:760,-0.380798,-0.029480000000000003,-0.32486,-0.002536,-0.005725,0.0034189999999999997,-23.75,25.059998999999998,-22.25,2d
2019-07-12_120122:780,-0.375702,-0.021332,-0.32486,-0.003055,-0.00539,0.0039689999999999994,-23.5,26.18,-22.68,2d
2019-07-12_120122:800,-0.376221,-0.020844,-0.322327,-0.004703,-0.004961999999999999,0.004945000000000001,-23.5,26.18,-22.68,2d
2019-07-12_120122:820,-0.37011700000000003,-0.021851,-0.322327,-0.00748,-0.004169,0.005067,-23.5,26.18,-22.68,2d
2019-07-12_120122:840,-0.365021,-0.029968,-0.319275,-0.009678,-0.0037719999999999997,0.005525,-23.5,24.68,-22.68,2d
2019-07-12_120122:860,-0.364532,-0.040649,-0.32132,-0.010348999999999999,-0.004444,0.0058,-23.5,24.68,-22.68,2d
2019-07-12_120122:880,-0.37011700000000003,-0.045226999999999996,-0.320282,-0.009342,-0.005634,0.004213000000000001,-24.059998999999998,25.75,-23.0,2d
2019-07-12_120122:900,-0.36911,-0.048279,-0.323334,-0.007358,-0.006793,0.003297,-24.059998999999998,25.75,-23.0,2d
2019-07-12_120122:920,-0.37674,-0.048279,-0.32995599999999997,-0.004398,-0.008014,0.0029620000000000002,-24.059998999999998,25.75,-23.0,2d
2019-07-12_120122:940,-0.383331,-0.041687,-0.333496,-0.002018,-0.009113,0.001253,-23.5,24.370001000000002,-22.870001000000002,2d
2019-07-12_120122:960,-0.385376,-0.026427999999999997,-0.334534,-0.000217,-0.008533,0.001161,-23.5,24.370001000000002,-22.870001000000002,2d
2019-07-12_120122:980,-0.384338,-0.021851,-0.334015,-6.500000000000001e-05,-0.006885,0.003053,-23.5,24.68,-23.0,2d
2019-07-12_120123:000,-0.380798,-0.018799,-0.329437,-0.001468,-0.004961999999999999,0.0038469999999999997,-23.5,24.68,-23.0,2d
2019-07-12_120123:020,-0.374176,-0.017273,-0.327423,-0.0033909999999999995,-0.002796,0.004457,-23.5,24.68,-23.0,2d
2019-07-12_120123:040,-0.370636,-0.026427999999999997,-0.322845,-0.005375,-0.0025210000000000002,0.006532,-23.5,25.059998999999998,-23.059998999999998,2d
2019-07-12_120123:060,-0.371643,-0.035065,-0.321808,-0.006626000000000001,-0.003375,0.007387,-23.5,25.059998999999998,-23.059998999999998,2d
2019-07-12_120123:080,-0.372162,-0.043701,-0.32132,-0.006504,-0.004901,0.006441,-23.059998999999998,25.059998999999998,-23.059998999999998,2d
2019-07-12_120123:100,-0.377228,-0.042175,-0.321808,-0.004947,-0.005725,0.005739,-23.059998999999998,25.059998999999998,-23.059998999999998,2d
2019-07-12_120123:120,-0.38028,-0.040649,-0.323853,-0.003544,-0.005939,0.005342,-23.059998999999998,25.059998999999998,-23.059998999999998,2d
2019-07-12_120123:140,-0.379272,-0.031006,-0.322845,-0.002353,-0.005451,0.004213000000000001,-23.059998999999998,24.68,-22.25,2d
2019-07-12_120123:160,-0.374695,-0.019806,-0.319794,-0.003208,-0.004229999999999999,0.00345,-23.059998999999998,24.68,-22.25,2d
2019-07-12_120123:180,-0.37112399999999995,-0.019806,-0.320801,-0.005222,-0.003589,0.004854,-23.5,25.059998999999998,-23.0,2d
2019-07-12_120123:200,-0.36349499999999996,-0.022858,-0.316223,-0.007816,-0.003314,0.006074,-23.5,25.059998999999998,-23.0,2d
2019-07-12_120123:220,-0.361969,-0.032013,-0.316742,-0.010471,-0.0037719999999999997,0.006470999999999999,-23.5,25.059998999999998,-23.0,2d
2019-07-12_120123:240,-0.36706500000000003,-0.045226999999999996,-0.319275,-0.011203,-0.005573,0.005647,-24.5,24.68,-21.059998999999998,2d
2019-07-12_120123:260,-0.370636,-0.049316000000000006,-0.323334,-0.0098,-0.007281999999999999,0.004945000000000001,-24.5,24.68,-21.059998999999998,2d
2019-07-12_120123:280,-0.375702,-0.053863999999999995,-0.327911,-0.007816,-0.008990999999999999,0.004548,-23.5,25.059998999999998,-22.25,2d
2019-07-12_120123:300,-0.382324,-0.050842,-0.330963,-0.004459,-0.009845,0.003511,-23.5,25.059998999999998,-22.25,2d
2019-07-12_120123:320,-0.382812,-0.042175,-0.333496,-0.001743,-0.009662,0.001375,-23.5,25.059998999999998,-22.25,2d
2019-07-12_120123:340,-0.382324,-0.024384,-0.33197,0.00011899999999999999,-0.008197,0.000368,-23.75,25.059998999999998,-22.25,2d
2019-07-12_120123:360,-0.38028,-0.022369,-0.332489,-0.000217,-0.006092,0.001192,-23.75,25.059998999999998,-22.25,2d
2019-07-12_120123:380,-0.375214,-0.019318000000000002,-0.327911,-0.001468,-0.004566,0.0032359999999999997,-23.5,25.059998999999998,-23.059998999999998,2d
2019-07-12_120123:400,-0.36706500000000003,-0.021332,-0.322845,-0.0036659999999999996,-0.003375,0.004671,-23.5,25.059998999999998,-23.059998999999998,2d
2019-07-12_120123:420,-0.373688,-0.03302,-0.323853,-0.005436,-0.004321,0.005678,-23.5,25.059998999999998,-23.059998999999998,2d
2019-07-12_120123:440,-0.37112399999999995,-0.041168,-0.325897,-0.00629,-0.0055119999999999995,0.006257,-23.059998999999998,25.059998999999998,-21.870001000000002,2d
2019-07-12_120123:460,-0.373688,-0.045226999999999996,-0.325897,-0.0052829999999999995,-0.006458,0.006257,-23.059998999999998,25.059998999999998,-21.870001000000002,2d
2019-07-12_120123:480,-0.381317,-0.043701,-0.330963,-0.003849,-0.007343000000000001,0.004793,-23.75,24.68,-21.870001000000002,2d
2019-07-12_120123:500,-0.381317,-0.032532,-0.327423,-0.002475,-0.0066099999999999996,0.003908,-23.75,24.68,-21.870001000000002,2d
2019-07-12_120123:520,-0.379272,-0.024384,-0.327911,-0.002414,-0.005359,0.004213000000000001,-23.75,24.68,-21.870001000000002,2d
2019-07-12_120123:540,-0.37316900000000003,-0.023895,-0.322845,-0.004123,-0.003925,0.004793,-24.059998999999998,25.370001000000002,-22.25,2d
2019-07-12_120123:560,-0.364532,-0.022858,-0.320282,-0.0065650000000000005,-0.0025210000000000002,0.005189,-24.059998999999998,25.370001000000002,-22.25,2d
2019-07-12_120123:580,-0.358429,-0.034546,-0.319275,-0.010409999999999999,-0.0032530000000000002,0.00525,-23.75,25.059998999999998,-22.25,2d
2019-07-12_120123:600,-0.358429,-0.043213,-0.317749,-0.010654,-0.0038640000000000002,0.004915,-23.75,25.059998999999998,-22.25,2d
2019-07-12_120123:620,-0.364532,-0.049805,-0.321808,-0.009342,-0.006854000000000001,0.002687,-23.75,25.059998999999998,-22.25,2d
2019-07-12_120123:640,-0.368073,-0.053863999999999995,-0.325378,-0.007267,-0.008716,0.0017100000000000001,-23.059998999999998,24.68,-23.0,2d
2019-07-12_120123:660,-0.377747,-0.049316000000000006,-0.330475,-0.0037270000000000003,-0.009876000000000001,0.000795,-23.059998999999998,24.68,-23.0,2d
2019-07-12_120123:680,-0.382324,-0.041168,-0.335022,-0.001407,-0.009662,-0.000212,-23.5,25.059998999999998,-23.5,2d
2019-07-12_120123:700,-0.382812,-0.026427999999999997,-0.335022,-9.499999999999999e-05,-0.007862000000000001,6.2e-05,-23.5,25.059998999999998,-23.5,2d
2019-07-12_120123:720,-0.382812,-0.022369,-0.33197,-0.0004,-0.005756,0.001192,-23.5,25.059998999999998,-23.5,2d
2019-07-12_120123:740,-0.378265,-0.015747,-0.33197,-0.0013460000000000002,-0.004169,0.001497,-22.68,25.059998999999998,-23.5,2d
2019-07-12_120123:760,-0.374176,-0.015228,-0.326904,-0.003544,-0.00365,0.003023,-22.68,25.059998999999998,-23.5,2d
2019-07-12_120123:780,-0.372162,-0.024384,-0.326904,-0.004886,-0.00426,0.006074,-23.5,24.68,-21.870001000000002,2d
2019-07-12_120123:800,-0.374176,-0.033539,-0.324371,-0.005436,-0.0052369999999999995,0.006929,-23.5,24.68,-21.870001000000002,2d
2019-07-12_120123:820,-0.37265,-0.040161,-0.325378,-0.004703,-0.005817,0.005525,-23.5,24.68,-21.870001000000002,2d
2019-07-12_120123:840,-0.37674,-0.038635,-0.325897,-0.003483,-0.005939,0.004548,-24.870001000000002,24.370001000000002,-23.059998999999998,2d
2019-07-12_120123:860,-0.378754,-0.03302,-0.325378,-0.002414,-0.005115,0.004671,-24.870001000000002,24.370001000000002,-23.059998999999998,2d
2019-07-12_120123:880,-0.376221,-0.024902,-0.324371,-0.002597,-0.00426,0.004152,-23.75,24.370001000000002,-23.5,2d
2019-07-12_120123:900,-0.373688,-0.017792,-0.322327,-0.004612,-0.003711,0.004182,-23.75,24.370001000000002,-23.5,2d
2019-07-12_120123:920,-0.371643,-0.018799,-0.322845,-0.006962,-0.003375,0.005586,-23.75,24.370001000000002,-23.5,2d
2019-07-12_120123:940,-0.36706500000000003,-0.028961,-0.319794,-0.009464,-0.003314,0.006257,-23.059998999999998,25.370001000000002,-22.68,2d
2019-07-12_120123:960,-0.36554000000000003,-0.036072,-0.319794,-0.010471,-0.00426,0.005342,-23.059998999999998,25.370001000000002,-22.68,2d
2019-07-12_120123:980,-0.367584,-0.046752999999999996,-0.321808,-0.00922,-0.005298,0.004274,-23.75,25.059998999999998,-23.059998999999998,2d
2019-07-12_120124:000,-0.368073,-0.046265,-0.319794,-0.007084,-0.006488,0.003694,-23.75,25.059998999999998,-23.059998999999998,2d
2019-07-12_120124:020,-0.37265,-0.048798,-0.325897,-0.004337,-0.007801000000000001,0.0026260000000000003,-23.75,25.059998999999998,-23.059998999999998,2d
2019-07-12_120124:040,-0.374176,-0.043701,-0.327423,-0.00159,-0.008472,0.001192,-23.75,24.68,-23.0,2d
2019-07-12_120124:060,-0.379272,-0.031006,-0.330475,5.7999999999999994e-05,-0.008808,0.0007639999999999999,-23.75,24.68,-23.0,2d
2019-07-12_120124:080,-0.380798,-0.022858,-0.333496,-0.000156,-0.008319,0.001771,-23.5,25.059998999999998,-21.75,2d
2019-07-12_120124:100,-0.383331,-0.020325,-0.332489,-0.0013460000000000002,-0.006854000000000001,0.003053,-23.5,25.059998999999998,-21.75,2d
2019-07-12_120124:120,-0.38028,-0.01828,-0.33300799999999997,-0.003147,-0.005451,0.003908,-23.5,25.059998999999998,-21.75,2d
2019-07-12_120124:140,-0.379791,-0.024902,-0.32995599999999997,-0.004978,-0.004444,0.00525,-23.5,25.370001000000002,-22.25,2d
2019-07-12_120124:160,-0.375214,-0.031494,-0.326385,-0.005832,-0.004047,0.006196,-23.5,25.370001000000002,-22.25,2d
2019-07-12_120124:180,-0.373688,-0.040161,-0.325378,-0.005771,-0.0045049999999999995,0.005647,-23.5,24.68,-22.68,2d
2019-07-12_120124:200,-0.371643,-0.040161,-0.32132,-0.004642,-0.00426,0.004548,-23.5,24.68,-22.68,2d
2019-07-12_120124:220,-0.367584,-0.036072,-0.319275,-0.0033909999999999995,-0.004657,0.003633,-23.5,24.68,-22.68,2d
2019-07-12_120124:240,-0.367584,-0.029480000000000003,-0.320282,-0.002659,-0.004383,0.003175,-24.059998999999998,25.370001000000002,-22.68,2d
2019-07-12_120124:260,-0.364014,-0.020844,-0.320282,-0.0036659999999999996,-0.004961999999999999,0.003633,-24.059998999999998,25.370001000000002,-22.68,2d
2019-07-12_120124:280,-0.37265,-0.018799,-0.32486,-0.005497,-0.0060609999999999995,0.004152,-23.059998999999998,24.68,-22.25,2d
2019-07-12_120124:300,-0.37316900000000003,-0.022369,-0.326385,-0.007937999999999999,-0.006945999999999999,0.005525,-23.059998999999998,24.68,-22.25,2d
2019-07-12_120124:320,-0.37265,-0.029480000000000003,-0.327911,-0.009464,-0.007281999999999999,0.006654,-23.059998999999998,24.68,-22.25,2d
2019-07-12_120124:340,-0.375214,-0.042175,-0.329437,-0.009556,-0.0070680000000000005,0.006074,-23.75,24.68,-23.0,2d
2019-07-12_120124:360,-0.37265,-0.045745999999999995,-0.329437,-0.008213,-0.006793,0.004915,-23.75,24.68,-23.0,2d
2019-07-12_120124:380,-0.369598,-0.046752999999999996,-0.328949,-0.005679999999999999,-0.006092,0.0034189999999999997,-24.059998999999998,25.059998999999998,-21.5,2d
2019-07-12_120124:400,-0.368073,-0.045226999999999996,-0.328949,-0.003483,-0.0060609999999999995,0.001832,-24.059998999999998,25.059998999999998,-21.5,2d
2019-07-12_120124:420,-0.367584,-0.034058,-0.329437,-0.001468,-0.006275,0.0008560000000000001,-24.059998999999998,25.059998999999998,-21.5,2d
2019-07-12_120124:440,-0.37011700000000003,-0.028442000000000002,-0.33300799999999997,-0.001194,-0.006670999999999999,0.0011,-23.5,24.370001000000002,-23.0,2d
2019-07-12_120124:460,-0.373688,-0.021332,-0.335541,-0.0016820000000000001,-0.006793,0.001893,-23.5,24.370001000000002,-23.0,2d
2019-07-12_120124:480,-0.37674,-0.020844,-0.335022,-0.003055,-0.006548999999999999,0.003358,-23.5,24.370001000000002,-23.5,2d
2019-07-12_120124:500,-0.385864,-0.022858,-0.33605999999999997,-0.004337,-0.005725,0.004945000000000001,-23.5,24.370001000000002,-23.5,2d
2019-07-12_120124:520,-0.38028,-0.026917,-0.33197,-0.005344,-0.004718,0.005983,-23.5,24.370001000000002,-23.5,2d
2019-07-12_120124:540,-0.383331,-0.032013,-0.33197,-0.005558,-0.0037719999999999997,0.005525,-23.059998999999998,24.68,-22.68,2d
2019-07-12_120124:560,-0.382812,-0.03302,-0.327911,-0.005619,-0.00307,0.005311,-23.059998999999998,24.68,-22.68,2d
2019-07-12_120124:580,-0.375214,-0.035583,-0.324371,-0.0051,-0.002735,0.006379,-23.5,25.370001000000002,-23.059998999999998,2d
2019-07-12_120124:600,-0.37011700000000003,-0.037108999999999996,-0.320801,-0.004459,-0.002582,0.006318,-23.5,25.370001000000002,-23.059998999999998,2d
2019-07-12_120124:620,-0.368591,-0.035065,-0.317749,-0.0042450000000000005,-0.002643,0.005006,-23.5,25.370001000000002,-23.059998999999998,2d
2019-07-12_120124:640,-0.36654699999999996,-0.031494,-0.316223,-0.004123,-0.002582,0.004152,-23.059998999999998,24.370001000000002,-22.68,2d
2019-07-12_120124:660,-0.366058,-0.027435,-0.315216,-0.004612,-0.0030399999999999997,0.0037549999999999997,-23.059998999999998,24.370001000000002,-22.68,2d
2019-07-12_120124:680,-0.368591,-0.025421,-0.317749,-0.005832,-0.004383,0.003908,-23.75,25.059998999999998,-22.25,2d
2019-07-12_120124:700,-0.37316900000000003,-0.028442000000000002,-0.318756,-0.007084,-0.005634,0.004793,-23.75,25.059998999999998,-22.25,2d
2019-07-12_120124:720,-0.37265,-0.034058,-0.320801,-0.007541,-0.006670999999999999,0.004854,-23.75,25.059998999999998,-22.25,2d
2019-07-12_120124:740,-0.375214,-0.039642000000000004,-0.322327,-0.007541,-0.007006999999999999,0.003633,-24.059998999999998,25.059998999999998,-22.25,2d
2019-07-12_120124:760,-0.375214,-0.041687,-0.32132,-0.006168,-0.007129000000000001,0.003175,-24.059998999999998,25.059998999999998,-22.25,2d
2019-07-12_120124:780,-0.37316900000000003,-0.042175,-0.323853,-0.004184,-0.006731999999999999,0.0034189999999999997,-23.75,25.059998999999998,-21.75,2d
2019-07-12_120124:800,-0.370636,-0.039642000000000004,-0.32486,-0.002597,-0.0066099999999999996,0.002382,-23.75,25.059998999999998,-21.75,2d
2019-07-12_120124:820,-0.36911,-0.031494,-0.327423,-0.0018039999999999998,-0.006731999999999999,0.0017100000000000001,-23.75,25.059998999999998,-21.75,2d
2019-07-12_120124:840,-0.37011700000000003,-0.025908999999999998,-0.326904,-0.0018039999999999998,-0.007404000000000001,0.002443,-23.059998999999998,24.68,-23.5,2d
2019-07-12_120124:860,-0.373688,-0.023895,-0.330475,-0.002811,-0.007678,0.00345,-23.059998999999998,24.68,-23.5,2d
2019-07-12_120124:880,-0.379791,-0.024384,-0.335022,-0.004001,-0.007678,0.004518,-23.059998999999998,25.059998999999998,-23.059998999999998,2d
2019-07-12_120124:900,-0.381805,-0.027954000000000003,-0.335541,-0.005222,-0.007281999999999999,0.005678,-23.059998999999998,25.059998999999998,-23.059998999999998,2d
2019-07-12_120124:920,-0.384338,-0.033539,-0.334534,-0.005954,-0.006548999999999999,0.006196,-23.059998999999998,25.059998999999998,-23.059998999999998,2d
2019-07-12_120124:940,-0.385864,-0.036591000000000005,-0.333496,-0.006076,-0.0055119999999999995,0.006379,-24.5,24.370001000000002,-21.870001000000002,2d
2019-07-12_120124:960,-0.38028,-0.039642000000000004,-0.32995599999999997,-0.005497,-0.004169,0.006776000000000001,-24.5,24.370001000000002,-21.870001000000002,2d
2019-07-12_120124:980,-0.375214,-0.040161,-0.326904,-0.004886,-0.003711,0.0067150000000000005,-23.75,25.059998999999998,-22.68,2d
2019-07-12_120125:000,-0.369598,-0.036591000000000005,-0.318268,-0.0042450000000000005,-0.002979,0.005678,-23.75,25.059998999999998,-22.68,2d
2019-07-12_120125:020,-0.36349499999999996,-0.034546,-0.319275,-0.003879,-0.002857,0.004518,-23.75,25.059998999999998,-22.68,2d
2019-07-12_120125:040,-0.368591,-0.029968,-0.317749,-0.004001,-0.002918,0.0038469999999999997,-23.059998999999998,25.059998999999998,-22.68,2d
2019-07-12_120125:060,-0.361481,-0.026427999999999997,-0.315704,-0.005039,-0.0035280000000000003,0.0034189999999999997,-23.059998999999998,25.059998999999998,-22.68,2d
2019-07-12_120125:080,-0.369598,-0.027435,-0.322327,-0.00629,-0.005115,0.0034189999999999997,-23.75,25.059998999999998,-23.059998999999998,2d
2019-07-12_120125:100,-0.37265,-0.027954000000000003,-0.32486,-0.00748,-0.006670999999999999,0.0034189999999999997,-23.75,25.059998999999998,-23.059998999999998,2d
2019-07-12_120125:120,-0.377747,-0.039642000000000004,-0.326385,-0.007937999999999999,-0.007404000000000001,0.0038469999999999997,-23.75,25.059998999999998,-23.059998999999998,2d
2019-07-12_120125:140,-0.377747,-0.043213,-0.32843,-0.007206000000000001,-0.007129000000000001,0.003694,-23.75,25.370001000000002,-22.25,2d
2019-07-12_120125:160,-0.37316900000000003,-0.044739,-0.325897,-0.005497,-0.0060609999999999995,0.0027170000000000002,-23.75,25.370001000000002,-22.25,2d
2019-07-12_120125:180,-0.370636,-0.042175,-0.326385,-0.0036049999999999997,-0.005939,0.001375,-23.75,24.68,-22.68,2d
2019-07-12_120125:200,-0.368591,-0.035583,-0.325897,-0.001743,-0.005725,0.000306,-23.75,24.68,-22.68,2d
2019-07-12_120125:220,-0.368591,-0.028961,-0.32843,-0.000889,-0.0061530000000000005,6.2e-05,-23.75,24.68,-22.68,2d
2019-07-12_120125:240,-0.374176,-0.022369,-0.328949,-0.00095,-0.006670999999999999,0.000917,-23.75,24.68,-21.870001000000002,2d
2019-07-12_120125:260,-0.378265,-0.018799,-0.33300799999999997,-0.001865,-0.0070680000000000005,0.002321,-23.75,24.68,-21.870001000000002,2d
2019-07-12_120125:280,-0.382812,-0.020844,-0.332489,-0.003055,-0.006885,0.00345,-24.059998999999998,25.059998999999998,-23.5,2d
2019-07-12_120125:300,-0.389954,-0.021332,-0.328949,-0.004642,-0.006275,0.004945000000000001,-24.059998999999998,25.059998999999998,-23.5,2d
2019-07-12_120125:320,-0.381317,-0.027435,-0.327911,-0.005558,-0.004993,0.0071730000000000006,-24.059998999999998,25.059998999999998,-23.5,2d
2019-07-12_120125:340,-0.375702,-0.033539,-0.326385,-0.005832,-0.004229999999999999,0.007509,-23.059998999999998,24.370001000000002,-21.870001000000002,2d
2019-07-12_120125:360,-0.374695,-0.035065,-0.320282,-0.005954,-0.003986,0.006074,-23.059998999999998,24.370001000000002,-21.870001000000002,2d
2019-07-12_120125:380,-0.36911,-0.034058,-0.321808,-0.005497,-0.0037719999999999997,0.006074,-23.75,25.059998999999998,-22.68,2d
2019-07-12_120125:400,-0.368073,-0.032013,-0.318268,-0.004612,-0.003314,0.006470999999999999,-23.75,25.059998999999998,-22.68,2d
2019-07-12_120125:420,-0.36554000000000003,-0.028442000000000002,-0.319794,-0.005039,-0.003711,0.005403,-23.75,25.059998999999998,-22.68,2d
2019-07-12_120125:440,-0.370636,-0.026427999999999997,-0.320801,-0.006412,-0.004779,0.005525,-24.5,25.059998999999998,-23.059998999999998,2d
2019-07-12_120125:460,-0.373688,-0.029968,-0.322327,-0.007755,-0.006,0.006470999999999999,-24.5,25.059998999999998,-23.059998999999998,2d
2019-07-12_120125:480,-0.375702,-0.039124,-0.324371,-0.008732,-0.0066099999999999996,0.005464,-24.059998999999998,24.68,-23.75,2d
2019-07-12_120125:500,-0.376221,-0.044219999999999995,-0.323853,-0.008823000000000001,-0.006793,0.004152,-24.059998999999998,24.68,-23.75,2d
2019-07-12_120125:520,-0.374176,-0.047272,-0.326385,-0.007267,-0.006336,0.0037549999999999997,-24.059998999999998,24.68,-23.75,2d
2019-07-12_120125:540,-0.37265,-0.049316000000000006,-0.325897,-0.004764,-0.005939,0.0025039999999999997,-23.75,25.059998999999998,-22.68,2d
2019-07-12_120125:560,-0.37011700000000003,-0.040161,-0.325897,-0.00275,-0.005695,0.000306,-23.75,25.059998999999998,-22.68,2d
2019-07-12_120125:580,-0.369598,-0.034058,-0.326904,-0.000797,-0.006092,-0.000365,-23.5,24.68,-23.5,2d
2019-07-12_120125:600,-0.37011700000000003,-0.023895,-0.327911,-3e-06,-0.006793,0.000642,-23.5,24.68,-23.5,2d
2019-07-12_120125:620,-0.37265,-0.020325,-0.329437,-0.000614,-0.00719,0.001375,-23.5,24.68,-23.5,2d
2019-07-12_120125:640,-0.379272,-0.01828,-0.333496,-0.002079,-0.007404000000000001,0.002443,-23.75,24.68,-23.059998999999998,2d
2019-07-12_120125:660,-0.381805,-0.019806,-0.33300799999999997,-0.003788,-0.006945999999999999,0.004091,-23.75,24.68,-23.059998999999998,2d
2019-07-12_120125:680,-0.385376,-0.024902,-0.33300799999999997,-0.005344,-0.006214,0.005342,-24.5,24.68,-23.059998999999998,2d
2019-07-12_120125:700,-0.385376,-0.028961,-0.330475,-0.006351,-0.004779,0.006470999999999999,-24.5,24.68,-23.059998999999998,2d
2019-07-12_120125:720,-0.378265,-0.035065,-0.327423,-0.0065650000000000005,-0.004108,0.006776000000000001,-24.5,24.68,-23.059998999999998,2d
2019-07-12_120125:740,-0.37112399999999995,-0.039124,-0.325897,-0.005832,-0.003589,0.006470999999999999,-24.059998999999998,25.059998999999998,-22.68,2d
2019-07-12_120125:760,-0.370636,-0.038635,-0.321808,-0.004947,-0.0035280000000000003,0.005586,-24.059998999999998,25.059998999999998,-22.68,2d
2019-07-12_120125:780,-0.368073,-0.034546,-0.322327,-0.004184,-0.003589,0.004854,-24.5,25.370001000000002,-23.059998999999998,2d
2019-07-12_120125:800,-0.36911,-0.028961,-0.318268,-0.0036659999999999996,-0.003375,0.004396,-24.5,25.370001000000002,-23.059998999999998,2d
2019-07-12_120125:820,-0.37112399999999995,-0.024902,-0.319794,-0.004520000000000001,-0.003986,0.004548,-24.5,25.370001000000002,-23.059998999999998,2d
2019-07-12_120125:840,-0.370636,-0.024902,-0.322327,-0.005832,-0.004444,0.005342,-23.75,25.059998999999998,-22.68,2d
2019-07-12_120125:860,-0.372162,-0.030487,-0.320801,-0.007297,-0.0052369999999999995,0.005311,-23.75,25.059998999999998,-22.68,2d
2019-07-12_120125:880,-0.375214,-0.037598,-0.32486,-0.008334999999999999,-0.005695,0.004152,-23.059998999999998,24.370001000000002,-22.68,2d
2019-07-12_120125:900,-0.371643,-0.042175,-0.322845,-0.007816,-0.005878,0.00345,-23.059998999999998,24.370001000000002,-22.68,2d
2019-07-12_120125:920,-0.375702,-0.043213,-0.325378,-0.006351,-0.006397,0.002168,-23.059998999999998,24.370001000000002,-22.68,2d
2019-07-12_120125:940,-0.374176,-0.043213,-0.326904,-0.004520000000000001,-0.006488,0.0008560000000000001,-24.059998999999998,24.68,-22.68,2d
2019-07-12_120125:960,-0.37011700000000003,-0.036591000000000005,-0.325897,-0.002536,-0.006670999999999999,0.000917,-24.059998999999998,24.68,-22.68,2d
2019-07-12_120125:980,-0.37112399999999995,-0.03302,-0.32843,-0.0011330000000000001,-0.006731999999999999,0.001588,-23.5,24.68,-22.68,2d
2019-07-12_120126:000,-0.371643,-0.021851,-0.32843,-0.001224,-0.006885,0.001314,-23.5,24.68,-22.68,2d
2019-07-12_120126:020,-0.373688,-0.019318000000000002,-0.32995599999999997,-0.0022010000000000003,-0.007006999999999999,0.002229,-23.5,24.68,-22.68,2d
2019-07-12_120126:040,-0.378754,-0.021851,-0.33197,-0.0033299999999999996,-0.006945999999999999,0.004182,-23.5,25.059998999999998,-22.25,2d
2019-07-12_120126:060,-0.380798,-0.024902,-0.331482,-0.004825,-0.006670999999999999,0.004854,-23.5,25.059998999999998,-22.25,2d
2019-07-12_120126:080,-0.384338,-0.028961,-0.329437,-0.005679999999999999,-0.005756,0.005403,-24.059998999999998,25.059998999999998,-23.059998999999998,2d
2019-07-12_120126:100,-0.384338,-0.032013,-0.330963,-0.005893,-0.005298,0.006135,-24.059998999999998,25.059998999999998,-23.059998999999998,2d
2019-07-12_120126:120,-0.378754,-0.036591000000000005,-0.323853,-0.005436,-0.004718,0.006532,-24.059998999999998,25.059998999999998,-23.059998999999998,2d
2019-07-12_120126:140,-0.374695,-0.036591000000000005,-0.323334,-0.004947,-0.003986,0.006196,-23.5,25.059998999999998,-23.75,2d
2019-07-12_120126:160,-0.36911,-0.035065,-0.318756,-0.004123,-0.003589,0.005983,-23.5,25.059998999999998,-23.75,2d
2019-07-12_120126:180,-0.36911,-0.031494,-0.32132,-0.0036659999999999996,-0.003375,0.004793,-24.5,25.059998999999998,-22.68,2d
2019-07-12_120126:200,-0.36911,-0.024384,-0.31723,-0.004398,-0.0037719999999999997,0.003633,-24.5,25.059998999999998,-22.68,2d
2019-07-12_120126:220,-0.372162,-0.023895,-0.32132,-0.005558,-0.004566,0.004609,-24.5,25.059998999999998,-22.68,2d
2019-07-12_120126:240,-0.374176,-0.027435,-0.322845,-0.006809,-0.0055119999999999995,0.006318,-23.75,24.68,-22.25,2d
2019-07-12_120126:260,-0.377747,-0.035065,-0.322327,-0.007816,-0.0060609999999999995,0.005342,-23.75,24.68,-22.25,2d
2019-07-12_120126:280,-0.377747,-0.039642000000000004,-0.32486,-0.008152,-0.006214,0.003511,-24.059998999999998,25.059998999999998,-21.870001000000002,2d
2019-07-12_120126:300,-0.378754,-0.042694,-0.322845,-0.006687,-0.006092,0.003175,-24.059998999999998,25.059998999999998,-21.870001000000002,2d
2019-07-12_120126:320,-0.37674,-0.042175,-0.324371,-0.004703,-0.005817,0.002168,-24.059998999999998,25.059998999999998,-21.870001000000002,2d
2019-07-12_120126:340,-0.37316900000000003,-0.039124,-0.322845,-0.00275,-0.005451,0.0011,-23.059998999999998,24.68,-22.68,2d
2019-07-12_120126:360,-0.37011700000000003,-0.029480000000000003,-0.323334,-0.001407,-0.005695,0.001161,-23.059998999999998,24.68,-22.68,2d
2019-07-12_120126:380,-0.36911,-0.025908999999999998,-0.322845,-0.001011,-0.006397,0.002046,-23.75,25.059998999999998,-22.68,2d
2019-07-12_120126:400,-0.36911,-0.019806,-0.323853,-0.001621,-0.006731999999999999,0.003053,-23.75,25.059998999999998,-22.68,2d
2019-07-12_120126:420,-0.369598,-0.019318000000000002,-0.324371,-0.002811,-0.007220999999999999,0.004396,-23.75,25.059998999999998,-22.68,2d
2019-07-12_120126:440,-0.371643,-0.020325,-0.32843,-0.004703,-0.007343000000000001,0.005739,-24.5,24.68,-21.870001000000002,2d
2019-07-12_120126:460,-0.37265,-0.025421,-0.327911,-0.0061070000000000004,-0.007343000000000001,0.006379,-24.5,24.68,-21.870001000000002,2d
2019-07-12_120126:480,-0.375702,-0.030487,-0.330475,-0.0069,-0.007220999999999999,0.0067150000000000005,-24.5,24.370001000000002,-23.75,2d
2019-07-12_120126:500,-0.376221,-0.034546,-0.330963,-0.007267,-0.006548999999999999,0.006654,-24.5,24.370001000000002,-23.75,2d
2019-07-12_120126:520,-0.37674,-0.036591000000000005,-0.331482,-0.007084,-0.0061530000000000005,0.006470999999999999,-24.5,24.370001000000002,-23.75,2d
2019-07-12_120126:540,-0.375702,-0.039124,-0.33197,-0.00629,-0.005756,0.006441,-23.5,24.68,-22.68,2d
2019-07-12_120126:560,-0.375214,-0.040649,-0.329437,-0.005619,-0.005634,0.006135,-23.5,24.68,-22.68,2d
2019-07-12_120126:580,-0.373688,-0.038635,-0.32995599999999997,-0.004978,-0.005359,0.005464,-23.5,25.370001000000002,-23.5,2d
2019-07-12_120126:600,-0.373688,-0.038635,-0.328949,-0.004764,-0.005176,0.004671,-23.5,25.370001000000002,-23.5,2d
2019-07-12_120126:620,-0.373688,-0.037598,-0.328949,-0.004520000000000001,-0.004961999999999999,0.0038469999999999997,-23.5,25.370001000000002,-23.5,2d
2019-07-12_120126:640,-0.375214,-0.037598,-0.32843,-0.004123,-0.00484,0.0026260000000000003,-23.059998999999998,25.059998999999998,-22.68,2d
2019-07-12_120126:660,-0.376221,-0.032532,-0.327423,-0.004001,-0.004779,0.001832,-23.059998999999998,25.059998999999998,-22.68,2d
2019-07-12_120126:680,-0.375214,-0.031494,-0.32843,-0.003483,-0.004718,0.001832,-24.5,24.68,-23.5,2d
2019-07-12_120126:700,-0.377747,-0.027954000000000003,-0.32843,-0.003147,-0.004383,0.0025039999999999997,-24.5,24.68,-23.5,2d
2019-07-12_120126:720,-0.377747,-0.027954000000000003,-0.327911,-0.0032689999999999998,-0.004229999999999999,0.0027170000000000002,-24.5,24.68,-23.5,2d
2019-07-12_120126:740,-0.369598,-0.024384,-0.325897,-0.003544,-0.003711,0.0032359999999999997,-23.75,24.370001000000002,-22.68,2d
2019-07-12_120126:760,-0.378754,-0.025421,-0.325897,-0.004001,-0.004169,0.0038469999999999997,-23.75,24.370001000000002,-22.68,2d
2019-07-12_120126:780,-0.373688,-0.027954000000000003,-0.32486,-0.004337,-0.003711,0.004274,-23.75,24.68,-23.059998999999998,2d
2019-07-12_120126:800,-0.37674,-0.028442000000000002,-0.325897,-0.004520000000000001,-0.004108,0.004274,-23.75,24.68,-23.059998999999998,2d
2019-07-12_120126:820,-0.379791,-0.028442000000000002,-0.323334,-0.004642,-0.004169,0.004518,-23.75,24.68,-23.059998999999998,2d
2019-07-12_120126:840,-0.375214,-0.026427999999999997,-0.321808,-0.004703,-0.003589,0.005861,-23.75,24.370001000000002,-22.25,2d
2019-07-12_120126:860,-0.375214,-0.028442000000000002,-0.323334,-0.0052829999999999995,-0.0032530000000000002,0.006776000000000001,-23.75,24.370001000000002,-22.25,2d
2019-07-12_120126:880,-0.368591,-0.029480000000000003,-0.319275,-0.0061070000000000004,-0.003711,0.006135,-23.75,24.68,-22.25,2d
2019-07-12_120126:900,-0.36654699999999996,-0.031006,-0.320282,-0.0067480000000000005,-0.004229999999999999,0.006044,-23.75,24.68,-22.25,2d
2019-07-12_120126:920,-0.36706500000000003,-0.035583,-0.320282,-0.006626000000000001,-0.005115,0.006074,-23.75,24.68,-22.25,2d
2019-07-12_120126:940,-0.368591,-0.037598,-0.319794,-0.006168,-0.0060609999999999995,0.005739,-23.5,24.68,-22.25,2d
2019-07-12_120126:960,-0.371643,-0.037598,-0.32132,-0.005436,-0.006731999999999999,0.005464,-23.5,24.68,-22.25,2d
2019-07-12_120126:980,-0.378265,-0.037598,-0.330963,-0.004123,-0.007220999999999999,0.005403,-23.5,24.370001000000002,-21.870001000000002,2d
2019-07-12_120127:000,-0.381805,-0.037108999999999996,-0.329437,-0.003849,-0.0070680000000000005,0.005128,-23.5,24.370001000000002,-21.870001000000002,2d
2019-07-12_120127:020,-0.394531,-0.035065,-0.330475,-0.0033909999999999995,-0.005878,0.004518,-23.5,24.370001000000002,-21.870001000000002,2d
2019-07-12_120127:040,-0.390442,-0.03302,-0.328949,-0.003147,-0.004779,0.004548,-24.059998999999998,24.68,-21.870001000000002,2d
2019-07-12_120127:060,-0.390961,-0.031006,-0.326904,-0.003788,-0.003192,0.00345,-24.059998999999998,24.68,-21.870001000000002,2d
2019-07-12_120127:080,-0.396057,-0.027435,-0.32843,-0.004459,-0.00246,0.004152,-24.059998999999998,25.059998999999998,-22.68,2d
2019-07-12_120127:100,-0.389435,-0.025908999999999998,-0.32486,-0.004764,-0.000995,0.006135,-24.059998999999998,25.059998999999998,-22.68,2d
2019-07-12_120127:120,-0.379272,-0.029480000000000003,-0.31723,-0.005161,-0.000659,0.0067150000000000005,-24.059998999999998,25.059998999999998,-22.68,2d
2019-07-12_120127:140,-0.375702,-0.033539,-0.314697,-0.0051,-4.9e-05,0.006470999999999999,-24.059998999999998,24.68,-22.68,2d
2019-07-12_120127:160,-0.361969,-0.034058,-0.307068,-0.004764,0.000531,0.006654,-24.059998999999998,24.68,-22.68,2d
2019-07-12_120127:180,-0.352325,-0.034058,-0.304016,-0.004886,0.000348,0.006776000000000001,-23.75,24.68,-22.25,2d
2019-07-12_120127:200,-0.34674099999999997,-0.033539,-0.304535,-0.005558,-0.002307,0.007509,-23.75,24.68,-22.25,2d
2019-07-12_120127:220,-0.344696,-0.032013,-0.305542,-0.0067480000000000005,-0.005939,0.008058,-23.75,24.68,-22.25,2d
2019-07-12_120127:240,-0.352844,-0.034546,-0.315704,-0.007601999999999999,-0.008075,0.008638,-24.5,24.68,-21.059998999999998,2d
2019-07-12_120127:260,-0.36248800000000003,-0.038116000000000004,-0.322327,-0.009464,-0.013294,0.009431,-24.5,24.68,-21.059998999999998,2d
2019-07-12_120127:280,-0.376221,-0.048279,-0.331482,-0.009617,-0.014301,0.008729,-23.5,25.370001000000002,-23.059998999999998,2d
2019-07-12_120127:300,-0.387909,-0.055908000000000006,-0.3396,-0.008213,-0.014240000000000001,0.006196,-23.5,25.370001000000002,-23.059998999999998,2d
2019-07-12_120127:320,-0.40368699999999996,-0.06253099999999999,-0.349274,-0.005436,-0.010791,0.005464,-23.5,25.370001000000002,-23.059998999999998,2d
2019-07-12_120127:340,-0.40368699999999996,-0.05996699999999999,-0.3508,-0.003055,-0.007343000000000001,0.005067,-23.059998999999998,24.68,-22.68,2d
2019-07-12_120127:360,-0.399109,-0.059479,-0.34875500000000004,-0.000278,-0.003925,0.003633,-23.059998999999998,24.68,-22.68,2d
2019-07-12_120127:380,-0.397064,-0.054901,-0.34317,0.00079,-0.0008730000000000001,0.002778,-24.870001000000002,25.370001000000002,-23.059998999999998,2d
2019-07-12_120127:400,-0.394012,-0.046752999999999996,-0.332489,0.00137,0.0016600000000000002,0.002321,-24.870001000000002,25.370001000000002,-23.059998999999998,2d
2019-07-12_120127:420,-0.384338,-0.041168,-0.319275,0.00079,0.004193,0.001192,-24.870001000000002,25.370001000000002,-23.059998999999998,2d
2019-07-12_120127:440,-0.37011700000000003,-0.036591000000000005,-0.307587,0.000302,0.004986,0.000184,-23.059998999999998,25.370001000000002,-22.68,2d
2019-07-12_120127:460,-0.35131799999999996,-0.029968,-0.29284699999999997,-0.001285,0.0033689999999999996,-0.003325,-23.059998999999998,25.370001000000002,-22.68,2d
2019-07-12_120127:480,-0.353333,-0.025908999999999998,-0.29180900000000004,-0.001865,0.001996,-0.003539,-23.75,25.370001000000002,-21.059998999999998,2d
2019-07-12_120127:500,-0.34875500000000004,-0.021332,-0.28927600000000003,-0.003452,-0.002643,-0.001464,-23.75,25.370001000000002,-21.059998999999998,2d
2019-07-12_120127:520,-0.350281,-0.022858,-0.28927600000000003,-0.004001,-0.006488,-0.000609,-23.75,25.370001000000002,-21.059998999999998,2d
2019-07-12_120127:540,-0.361481,-0.023895,-0.300476,-0.004275999999999999,-0.008319,-0.000334,-23.75,25.370001000000002,-21.5,2d
2019-07-12_120127:560,-0.364014,-0.025421,-0.303528,-0.003879,-0.0125,0.001497,-23.75,25.370001000000002,-21.5,2d
2019-07-12_120127:580,-0.373688,-0.026917,-0.314697,-0.0036049999999999997,-0.013965,0.002382,-23.559998999999998,25.059998999999998,-21.870001000000002,2d
2019-07-12_120127:600,-0.382324,-0.030487,-0.323334,-0.002811,-0.015430000000000001,0.0034189999999999997,-23.559998999999998,25.059998999999998,-21.870001000000002,2d
2019-07-12_120127:620,-0.392487,-0.028442000000000002,-0.33300799999999997,-0.0027199999999999998,-0.014362,0.004213000000000001,-23.559998999999998,25.059998999999998,-21.870001000000002,2d
2019-07-12_120127:640,-0.393005,-0.028442000000000002,-0.336548,-0.002597,-0.013507,0.004457,-23.559998999999998,25.059998999999998,-22.559998999999998,2d
2019-07-12_120127:660,-0.401642,-0.030487,-0.342163,-0.0032689999999999998,-0.009204,0.004518,-23.559998999999998,25.059998999999998,-22.559998999999998,2d
2019-07-12_120127:680,-0.391479,-0.03302,-0.341644,-0.0032689999999999998,-0.007984,0.004213000000000001,-23.870001000000002,25.059998999999998,-22.18,2d
2019-07-12_120127:700,-0.38739,-0.031494,-0.339111,-0.0037270000000000003,-0.00539,0.003114,-23.870001000000002,25.059998999999998,-22.18,2d
2019-07-12_120127:720,-0.385864,-0.028961,-0.338593,-0.004184,-0.0038640000000000002,0.004213000000000001,-23.870001000000002,25.059998999999998,-22.18,2d
2019-07-12_120127:740,-0.379791,-0.029968,-0.331482,-0.004398,-0.003375,0.005128,-23.870001000000002,25.370001000000002,-21.75,2d
2019-07-12_120127:760,-0.379272,-0.030487,-0.327911,-0.0051,-0.00185,0.006532,-23.870001000000002,25.370001000000002,-21.75,2d
2019-07-12_120127:780,-0.371643,-0.032532,-0.32132,-0.005619,-0.001605,0.006318,-23.870001000000002,25.370001000000002,-21.75,2d
2019-07-12_120127:800,-0.368591,-0.033539,-0.318268,-0.006229,-0.002307,0.006593000000000001,-24.059998999999998,25.370001000000002,-23.0,2d
2019-07-12_120127:820,-0.368591,-0.037108999999999996,-0.316223,-0.0065650000000000005,-0.0030399999999999997,0.0071730000000000006,-24.059998999999998,25.370001000000002,-23.0,2d
2019-07-12_120127:840,-0.368073,-0.039124,-0.315216,-0.006626000000000001,-0.003375,0.007265000000000001,-23.75,25.059998999999998,-23.0,2d
2019-07-12_120127:860,-0.369598,-0.040161,-0.314697,-0.006351,-0.00484,0.00757,-23.75,25.059998999999998,-23.0,2d
2019-07-12_120127:880,-0.36911,-0.040649,-0.31723,-0.006076,-0.0052369999999999995,0.00757,-24.059998999999998,25.059998999999998,-21.75,2d
2019-07-12_120127:900,-0.37011700000000003,-0.042694,-0.319794,-0.005679999999999999,-0.006488,0.007112,-24.059998999999998,25.059998999999998,-21.75,2d
2019-07-12_120127:920,-0.377228,-0.042694,-0.322327,-0.005771,-0.006854000000000001,0.0069900000000000006,-24.059998999999998,25.059998999999998,-21.75,2d
2019-07-12_120127:940,-0.371643,-0.043701,-0.323334,-0.005771,-0.006670999999999999,0.0069900000000000006,-23.059998999999998,26.18,-22.18,2d
2019-07-12_120127:960,-0.37674,-0.046265,-0.325378,-0.005436,-0.007220999999999999,0.005311,-23.059998999999998,26.18,-22.18,2d
2019-07-12_120127:980,-0.379791,-0.045226999999999996,-0.330963,-0.005344,-0.0066099999999999996,0.004609,-24.18,25.059998999999998,-21.75,2d
2019-07-12_120128:000,-0.380798,-0.044739,-0.330475,-0.004886,-0.005634,0.005342,-24.18,25.059998999999998,-21.75,2d
2019-07-12_120128:020,-0.383331,-0.045745999999999995,-0.32995599999999997,-0.004520000000000001,-0.0045049999999999995,0.005189,-24.18,25.059998999999998,-21.75,2d
2019-07-12_120128:040,-0.381317,-0.045745999999999995,-0.327911,-0.004642,-0.0038640000000000002,0.004548,-23.870001000000002,25.059998999999998,-23.0,2d
2019-07-12_120128:060,-0.382812,-0.043213,-0.32486,-0.004459,-0.002735,0.0034189999999999997,-23.870001000000002,25.059998999999998,-23.0,2d
2019-07-12_120128:080,-0.383331,-0.042694,-0.323853,-0.004581,-0.002338,0.003053,-24.18,25.059998999999998,-23.0,2d
2019-07-12_120128:100,-0.378754,-0.042694,-0.319275,-0.004642,-0.001941,0.0019850000000000002,-24.18,25.059998999999998,-23.0,2d
2019-07-12_120128:120,-0.379272,-0.041168,-0.31723,-0.004581,-0.002002,0.001832,-24.18,25.059998999999998,-23.0,2d
2019-07-12_120128:140,-0.373688,-0.039124,-0.315704,-0.004398,-0.002582,0.0016489999999999999,-23.75,25.059998999999998,-22.559998999999998,2d
2019-07-12_120128:160,-0.376221,-0.038116000000000004,-0.31369,-0.0037270000000000003,-0.0032530000000000002,0.001192,-23.75,25.059998999999998,-22.559998999999998,2d
2019-07-12_120128:180,-0.373688,-0.036591000000000005,-0.314697,-0.003483,-0.0038640000000000002,0.001314,-23.75,25.059998999999998,-22.559998999999998,2d
2019-07-12_120128:200,-0.37674,-0.034546,-0.315704,-0.003208,-0.004596,0.00229,-23.75,25.75,-22.559998999999998,2d
2019-07-12_120128:220,-0.377228,-0.031494,-0.315704,-0.0032689999999999998,-0.00484,0.002687,-23.75,25.75,-22.559998999999998,2d
2019-07-12_120128:240,-0.376221,-0.031494,-0.316223,-0.0033299999999999996,-0.004901,0.002778,-23.5,24.68,-22.18,2d
2019-07-12_120128:260,-0.378754,-0.030487,-0.316742,-0.004398,-0.0052369999999999995,0.003175,-23.5,24.68,-22.18,2d
2019-07-12_120128:280,-0.378265,-0.030487,-0.31723,-0.004612,-0.005176,0.003358,-24.870001000000002,25.059998999999998,-21.370001000000002,2d
2019-07-12_120128:300,-0.379791,-0.032013,-0.31723,-0.005741,-0.005054,0.004213000000000001,-24.870001000000002,25.059998999999998,-21.370001000000002,2d
2019-07-12_120128:320,-0.380798,-0.03302,-0.31723,-0.005771,-0.0052369999999999995,0.004335,-24.870001000000002,25.059998999999998,-21.370001000000002,2d
2019-07-12_120128:340,-0.38028,-0.036591000000000005,-0.31723,-0.0060149999999999995,-0.005359,0.004671,-24.059998999999998,24.68,-22.18,2d
2019-07-12_120128:360,-0.380798,-0.037108999999999996,-0.315704,-0.005893,-0.005298,0.004609,-24.059998999999998,24.68,-22.18,2d
2019-07-12_120128:380,-0.381317,-0.036072,-0.318756,-0.005558,-0.005573,0.004548,-24.18,25.370001000000002,-21.75,2d
2019-07-12_120128:400,-0.38028,-0.037108999999999996,-0.319275,-0.0052829999999999995,-0.005725,0.004732,-24.18,25.370001000000002,-21.75,2d
2019-07-12_120128:420,-0.382324,-0.036072,-0.318268,-0.004978,-0.005939,0.005067,-24.18,25.370001000000002,-21.75,2d
2019-07-12_120128:440,-0.385376,-0.036072,-0.318756,-0.004825,-0.0061530000000000005,0.005189,-24.559998999999998,25.75,-21.75,2d
2019-07-12_120128:460,-0.38028,-0.035583,-0.31723,-0.0051,-0.005634,0.005006,-24.559998999999998,25.75,-21.75,2d
2019-07-12_120128:480,-0.379272,-0.036072,-0.316223,-0.005344,-0.0055119999999999995,0.004915,-24.18,24.68,-22.18,2d
2019-07-12_120128:500,-0.379791,-0.037108999999999996,-0.316742,-0.005893,-0.005725,0.004945000000000001,-24.18,24.68,-22.18,2d
2019-07-12_120128:520,-0.37265,-0.036072,-0.31369,-0.005832,-0.005939,0.004854,-24.18,24.68,-22.18,2d
2019-07-12_120128:540,-0.37674,-0.036591000000000005,-0.319275,-0.006076,-0.006854000000000001,0.004152,-23.870001000000002,24.370001000000002,-22.18,2d
2019-07-12_120128:560,-0.379272,-0.035065,-0.316742,-0.0061070000000000004,-0.007281999999999999,0.0037549999999999997,-23.870001000000002,24.370001000000002,-22.18,2d
2019-07-12_120128:580,-0.379791,-0.035583,-0.318268,-0.006168,-0.007526000000000001,0.004915,-23.870001000000002,24.370001000000002,-22.18,2d
2019-07-12_120128:600,-0.381317,-0.035065,-0.318268,-0.0060149999999999995,-0.0076170000000000005,0.005067,-23.870001000000002,24.68,-22.18,2d
2019-07-12_120128:620,-0.37674,-0.035583,-0.318268,-0.006168,-0.007739,0.0037549999999999997,-23.870001000000002,24.68,-22.18,2d
2019-07-12_120128:640,-0.374176,-0.035065,-0.317749,-0.006229,-0.007739,0.0034189999999999997,-24.559998999999998,25.370001000000002,-22.18,2d
2019-07-12_120128:660,-0.374176,-0.035583,-0.31723,-0.0061070000000000004,-0.007404000000000001,0.003114,-24.559998999999998,25.370001000000002,-22.18,2d
2019-07-12_120128:680,-0.372162,-0.033539,-0.317749,-0.005954,-0.006793,0.0032359999999999997,-24.18,24.68,-21.75,2d
2019-07-12_120128:700,-0.371643,-0.033539,-0.317749,-0.005679999999999999,-0.006458,0.003358,-24.18,24.68,-21.75,2d
2019-07-12_120128:720,-0.371643,-0.032532,-0.318268,-0.005497,-0.006793,0.003694,-24.18,24.68,-21.75,2d
2019-07-12_120128:740,-0.372162,-0.032532,-0.321808,-0.005954,-0.007862000000000001,0.003358,-23.870001000000002,25.059998999999998,-22.559998999999998,2d
2019-07-12_120128:760,-0.380798,-0.032532,-0.323853,-0.006168,-0.00954,0.003114,-23.870001000000002,25.059998999999998,-22.559998999999998,2d
2019-07-12_120128:780,-0.380798,-0.034058,-0.327911,-0.006412,-0.010181,0.00345,-23.870001000000002,25.059998999999998,-22.559998999999998,2d
2019-07-12_120128:800,-0.38385,-0.035583,-0.33197,-0.006076,-0.010181,0.002687,-23.870001000000002,25.059998999999998,-21.75,2d
2019-07-12_120128:820,-0.386383,-0.032013,-0.330475,-0.005954,-0.008655,0.0017100000000000001,-23.870001000000002,25.059998999999998,-21.75,2d
2019-07-12_120128:840,-0.384857,-0.031494,-0.331482,-0.005436,-0.006945999999999999,0.0019850000000000002,-23.559998999999998,24.370001000000002,-22.18,2d
2019-07-12_120128:860,-0.379272,-0.029480000000000003,-0.327911,-0.004825,-0.005176,0.003023,-23.559998999999998,24.370001000000002,-22.18,2d
2019-07-12_120128:880,-0.376221,-0.027435,-0.325897,-0.004612,-0.003711,0.0034189999999999997,-23.559998999999998,24.370001000000002,-22.18,2d
2019-07-12_120128:900,-0.372162,-0.024384,-0.321808,-0.004978,-0.003711,0.003908,-23.18,25.059998999999998,-21.75,2d
2019-07-12_120128:920,-0.371643,-0.024384,-0.320282,-0.005741,-0.004321,0.004548,-23.18,25.059998999999998,-21.75,2d
2019-07-12_120128:940,-0.374176,-0.025908999999999998,-0.323334,-0.006626000000000001,-0.00539,0.004945000000000001,-23.75,25.370001000000002,-22.18,2d
2019-07-12_120128:960,-0.37674,-0.029480000000000003,-0.325378,-0.007541,-0.0060609999999999995,0.00525,-23.75,25.370001000000002,-22.18,2d
2019-07-12_120128:980,-0.379791,-0.03302,-0.325378,-0.007297,-0.006214,0.005647,-23.75,25.370001000000002,-22.18,2d
2019-07-12_120129:000,-0.38028,-0.035583,-0.327423,-0.006962,-0.005634,0.0058,-24.059998999999998,25.059998999999998,-23.0,2d
2019-07-12_120129:020,-0.377747,-0.036591000000000005,-0.325378,-0.00629,-0.004444,0.006044,-24.059998999999998,25.059998999999998,-23.0,2d
2019-07-12_120129:040,-0.375702,-0.037108999999999996,-0.324371,-0.005375,-0.0038640000000000002,0.006654,-24.059998999999998,24.68,-22.559998999999998,2d
2019-07-12_120129:060,-0.375702,-0.036072,-0.323853,-0.004886,-0.0037719999999999997,0.007112,-24.059998999999998,24.68,-22.559998999999998,2d
2019-07-12_120129:080,-0.379272,-0.035583,-0.325897,-0.004978,-0.004229999999999999,0.007112,-24.059998999999998,24.68,-22.559998999999998,2d
2019-07-12_120129:100,-0.382324,-0.036072,-0.327911,-0.005375,-0.004169,0.007326000000000001,-23.75,25.059998999999998,-22.559998999999998,2d
2019-07-12_120129:120,-0.384338,-0.038635,-0.324371,-0.005832,-0.00426,0.007783,-23.75,25.059998999999998,-22.559998999999998,2d
2019-07-12_120129:140,-0.383331,-0.041168,-0.326385,-0.0061070000000000004,-0.004321,0.007997,-22.68,25.059998999999998,-21.0,2d
2019-07-12_120129:160,-0.381317,-0.043701,-0.321808,-0.006229,-0.0038640000000000002,0.008058,-22.68,25.059998999999998,-21.0,2d
2019-07-12_120129:180,-0.378754,-0.045745999999999995,-0.318756,-0.005619,-0.0030399999999999997,0.008394,-22.68,25.059998999999998,-21.0,2d
2019-07-12_120129:200,-0.369598,-0.044739,-0.314697,-0.005039,-0.0023989999999999997,0.00818,-23.059998999999998,25.059998999999998,-22.559998999999998,2d
2019-07-12_120129:220,-0.36554000000000003,-0.044219999999999995,-0.312164,-0.004581,-0.002643,0.007661,-23.059998999999998,25.059998999999998,-22.559998999999998,2d
2019-07-12_120129:240,-0.366058,-0.045226999999999996,-0.31723,-0.004459,-0.0038640000000000002,0.007387,-23.75,25.370001000000002,-23.370001000000002,2d
2019-07-12_120129:260,-0.368073,-0.045745999999999995,-0.316223,-0.004001,-0.005573,0.007051000000000001,-23.75,25.370001000000002,-23.370001000000002,2d
2019-07-12_120129:280,-0.37674,-0.045745999999999995,-0.319275,-0.003483,-0.0070680000000000005,0.006837,-23.75,25.370001000000002,-23.370001000000002,2d
2019-07-12_120129:300,-0.376221,-0.045745999999999995,-0.319275,-0.003208,-0.0076170000000000005,0.005922,-23.75,25.75,-22.559998999999998,2d
2019-07-12_120129:320,-0.379272,-0.045226999999999996,-0.319275,-0.0033909999999999995,-0.007923000000000001,0.004854,-23.75,25.75,-22.559998999999998,2d
2019-07-12_120129:340,-0.380798,-0.044219999999999995,-0.321808,-0.0037270000000000003,-0.007862000000000001,0.004152,-23.059998999999998,25.059998999999998,-23.370001000000002,2d
2019-07-12_120129:360,-0.371643,-0.046265,-0.32132,-0.0036049999999999997,-0.007678,0.003297,-23.059998999999998,25.059998999999998,-23.370001000000002,2d
2019-07-12_120129:380,-0.375214,-0.045745999999999995,-0.32486,-0.003483,-0.007739,0.001893,-23.059998999999998,25.059998999999998,-23.370001000000002,2d
2019-07-12_120129:400,-0.37316900000000003,-0.043213,-0.323853,-0.003055,-0.007739,0.000398,-23.5,25.370001000000002,-22.18,2d
2019-07-12_120129:420,-0.373688,-0.042175,-0.32486,-0.0022010000000000003,-0.006945999999999999,0.000123,-23.5,25.370001000000002,-22.18,2d
2019-07-12_120129:440,-0.373688,-0.037598,-0.325378,-0.0016820000000000001,-0.005725,-0.0005480000000000001,-23.5,24.68,-24.059998999999998,2d
2019-07-12_120129:460,-0.37112399999999995,-0.032532,-0.323853,-0.001621,-0.005054,-0.001616,-23.5,24.68,-24.059998999999998,2d
2019-07-12_120129:480,-0.375214,-0.026917,-0.327423,-0.002079,-0.005451,-0.001464,-23.5,24.68,-24.059998999999998,2d
2019-07-12_120129:500,-0.379791,-0.024902,-0.326904,-0.00275,-0.005756,-0.000487,-23.5,25.370001000000002,-23.0,2d
2019-07-12_120129:520,-0.384338,-0.022858,-0.326904,-0.003879,-0.006275,0.000368,-23.5,25.370001000000002,-23.0,2d
2019-07-12_120129:540,-0.386383,-0.022858,-0.32843,-0.004978,-0.006458,0.001893,-23.5,25.370001000000002,-22.18,2d
2019-07-12_120129:560,-0.38385,-0.026917,-0.325378,-0.005832,-0.005878,0.00345,-23.5,25.370001000000002,-22.18,2d
2019-07-12_120129:580,-0.382324,-0.029968,-0.323334,-0.00629,-0.005054,0.004457,-23.5,25.370001000000002,-22.18,2d
2019-07-12_120129:600,-0.38028,-0.035065,-0.32132,-0.0061070000000000004,-0.004047,0.005525,-24.059998999999998,25.059998999999998,-22.559998999999998,2d
2019-07-12_120129:620,-0.368591,-0.035583,-0.318756,-0.005679999999999999,-0.0030399999999999997,0.006837,-24.059998999999998,25.059998999999998,-22.559998999999998,2d
2019-07-12_120129:640,-0.36911,-0.038635,-0.318756,-0.004825,-0.003467,0.006837,-24.059998999999998,24.0,-22.559998999999998,2d
2019-07-12_120129:660,-0.369598,-0.036072,-0.318756,-0.004703,-0.004901,0.005983,-24.059998999999998,24.0,-22.559998999999998,2d
2019-07-12_120129:680,-0.374695,-0.035583,-0.321808,-0.004642,-0.005939,0.006257,-24.059998999999998,24.0,-22.559998999999998,2d
2019-07-12_120129:700,-0.377228,-0.038116000000000004,-0.322327,-0.0052829999999999995,-0.006885,0.006929,-23.5,24.68,-22.559998999999998,2d
2019-07-12_120129:720,-0.38028,-0.039124,-0.322327,-0.005741,-0.007006999999999999,0.005922,-23.5,24.68,-22.559998999999998,2d
2019-07-12_120129:740,-0.380798,-0.040161,-0.323334,-0.0060149999999999995,-0.006548999999999999,0.004609,-22.68,24.68,-22.18,2d
2019-07-12_120129:760,-0.378754,-0.041168,-0.32132,-0.005741,-0.005359,0.00403,-22.68,24.68,-22.18,2d
2019-07-12_120129:780,-0.376221,-0.040161,-0.32132,-0.005222,-0.004779,0.003297,-22.68,24.68,-22.18,2d
2019-07-12_120129:800,-0.370636,-0.035583,-0.318268,-0.004398,-0.004169,0.003175,-23.5,25.059998999999998,-22.559998999999998,2d
2019-07-12_120129:820,-0.368073,-0.033539,-0.318268,-0.003879,-0.004383,0.0034189999999999997,-23.5,25.059998999999998,-22.559998999999998,2d
2019-07-12_120129:840,-0.36554000000000003,-0.031494,-0.318268,-0.00394,-0.004961999999999999,0.0034189999999999997,-22.68,25.059998999999998,-22.559998999999998,2d
2019-07-12_120129:860,-0.366058,-0.026917,-0.319275,-0.004275999999999999,-0.005725,0.00403,-22.68,25.059998999999998,-22.559998999999998,2d
2019-07-12_120129:880,-0.36911,-0.026427999999999997,-0.323334,-0.0052829999999999995,-0.006670999999999999,0.005647,-22.68,25.059998999999998,-22.559998999999998,2d
2019-07-12_120129:900,-0.372162,-0.029480000000000003,-0.325378,-0.0064730000000000005,-0.006945999999999999,0.007387,-23.5,25.059998999999998,-22.559998999999998,2d
2019-07-12_120129:920,-0.375214,-0.035065,-0.32843,-0.00748,-0.007465,0.0076,-23.5,25.059998999999998,-22.559998999999998,2d
2019-07-12_120129:940,-0.376221,-0.039124,-0.330963,-0.008274,-0.007281999999999999,0.0069900000000000006,-22.68,25.370001000000002,-22.559998999999998,2d
2019-07-12_120129:960,-0.381317,-0.041687,-0.332489,-0.008334999999999999,-0.0070680000000000005,0.006532,-22.68,25.370001000000002,-22.559998999999998,2d
2019-07-12_120129:980,-0.382812,-0.043213,-0.333496,-0.008029999999999999,-0.0066099999999999996,0.005678,-22.68,25.370001000000002,-22.559998999999998,2d
2019-07-12_120130:000,-0.384857,-0.045745999999999995,-0.333496,-0.007358,-0.006214,0.004732,-23.559998999999998,25.75,-23.0,2d
2019-07-12_120130:020,-0.384857,-0.045226999999999996,-0.32995599999999997,-0.006504,-0.005878,0.0039689999999999994,-23.559998999999998,25.75,-23.0,2d
2019-07-12_120130:040,-0.384857,-0.045226999999999996,-0.32995599999999997,-0.0052829999999999995,-0.005054,0.003511,-23.18,24.68,-22.18,2d
2019-07-12_120130:060,-0.384857,-0.045226999999999996,-0.32486,-0.004001,-0.0045049999999999995,0.0038159999999999995,-23.18,24.68,-22.18,2d
2019-07-12_120130:080,-0.38028,-0.042175,-0.324371,-0.00275,-0.004321,0.0038159999999999995,-23.18,24.68,-22.18,2d
2019-07-12_120130:100,-0.379272,-0.040161,-0.322845,-0.001865,-0.004229999999999999,0.003358,-23.18,25.370001000000002,-23.370001000000002,2d
2019-07-12_120130:120,-0.378754,-0.033539,-0.320801,-0.001285,-0.003925,0.003053,-23.18,25.370001000000002,-23.370001000000002,2d
2019-07-12_120130:140,-0.378265,-0.03302,-0.31723,-0.0016820000000000001,-0.002735,0.004213000000000001,-23.559998999999998,25.059998999999998,-22.18,2d
2019-07-12_120130:160,-0.374176,-0.034058,-0.312164,-0.002659,-0.001178,0.005647,-23.559998999999998,25.059998999999998,-22.18,2d
2019-07-12_120130:180,-0.361969,-0.035583,-0.308075,-0.003788,-0.000263,0.005067,-23.559998999999998,25.059998999999998,-22.18,2d
2019-07-12_120130:200,-0.366058,-0.035065,-0.309113,-0.004886,-0.0012699999999999999,0.003908,-23.18,25.059998999999998,-22.559998999999998,2d
2019-07-12_120130:220,-0.368073,-0.036072,-0.309113,-0.005771,-0.002307,0.003694,-23.18,25.059998999999998,-22.559998999999998,2d
2019-07-12_120130:240,-0.379791,-0.037598,-0.318268,-0.006626000000000001,-0.0030399999999999997,0.0034189999999999997,-23.559998999999998,25.75,-23.370001000000002,2d
2019-07-12_120130:260,-0.38028,-0.041687,-0.322845,-0.007418999999999999,-0.003192,0.004274,-23.559998999999998,25.75,-23.370001000000002,2d
2019-07-12_120130:280,-0.386383,-0.039642000000000004,-0.329437,-0.007145,-0.002979,0.007997,-23.559998999999998,25.75,-23.370001000000002,2d
2019-07-12_120130:300,-0.38028,-0.046752999999999996,-0.330963,-0.006962,-0.002338,0.011354000000000001,-23.559998999999998,25.059998999999998,-21.75,2d
2019-07-12_120130:320,-0.386902,-0.048798,-0.330963,-0.005679999999999999,-0.002643,0.011170999999999999,-23.559998999999998,25.059998999999998,-21.75,2d
2019-07-12_120130:340,-0.386902,-0.051330999999999995,-0.329437,-0.003849,-0.001941,0.006532,-24.18,25.059998999999998,-22.559998999999998,2d
2019-07-12_120130:360,-0.385376,-0.045745999999999995,-0.324371,-0.002933,-0.001666,0.00525,-24.18,25.059998999999998,-22.559998999999998,2d
2019-07-12_120130:380,-0.384857,-0.042694,-0.322845,-0.002323,-0.0012699999999999999,0.003358,-24.18,25.059998999999998,-22.559998999999998,2d
2019-07-12_120130:400,-0.379272,-0.037598,-0.318268,-0.001957,-0.001178,0.0019850000000000002,-23.559998999999998,25.370001000000002,-22.559998999999998,2d
2019-07-12_120130:420,-0.379272,-0.034546,-0.315216,-0.0033909999999999995,-0.002002,0.001527,-23.559998999999998,25.370001000000002,-22.559998999999998,2d
2019-07-12_120130:440,-0.37674,-0.034058,-0.31369,-0.004459,-0.002246,0.0026260000000000003,-23.559998999999998,25.75,-23.68,2d
2019-07-12_120130:460,-0.380798,-0.034058,-0.309601,-0.005436,-0.002307,0.0029,-23.559998999999998,25.75,-23.68,2d
2019-07-12_120130:480,-0.375214,-0.035583,-0.307068,-0.006229,-0.0023989999999999997,0.002229,-23.559998999999998,25.75,-23.68,2d
2019-07-12_120130:500,-0.374695,-0.038116000000000004,-0.30249000000000004,-0.006626000000000001,-0.002918,0.001893,-23.059998999999998,25.059998999999998,-21.75,2d
2019-07-12_120130:520,-0.37316900000000003,-0.038635,-0.30300900000000003,-0.006687,-0.003711,0.001527,-23.059998999999998,25.059998999999998,-21.75,2d
2019-07-12_120130:540,-0.37112399999999995,-0.038635,-0.300964,-0.006412,-0.004383,0.002229,-23.75,25.059998999999998,-21.0,2d
2019-07-12_120130:560,-0.368591,-0.040161,-0.30249000000000004,-0.005954,-0.0060609999999999995,0.0026260000000000003,-23.75,25.059998999999998,-21.0,2d
2019-07-12_120130:580,-0.37011700000000003,-0.040161,-0.309113,-0.005436,-0.007862000000000001,0.001588,-23.75,25.059998999999998,-21.0,2d
2019-07-12_120130:600,-0.374695,-0.039642000000000004,-0.311646,-0.004612,-0.009723,6.2e-05,-25.0,25.059998999999998,-21.75,2d
2019-07-12_120130:620,-0.38028,-0.035583,-0.319275,-0.0036659999999999996,-0.011463,-0.0011279999999999999,-25.0,25.059998999999998,-21.75,2d
2019-07-12_120130:640,-0.385864,-0.031494,-0.323334,-0.003147,-0.01192,-0.001067,-24.18,24.68,-22.559998999999998,2d
2019-07-12_120130:660,-0.393494,-0.026917,-0.32486,-0.002659,-0.011188,-9e-05,-24.18,24.68,-22.559998999999998,2d
2019-07-12_120130:680,-0.394531,-0.024384,-0.326385,-0.002994,-0.009448,0.001314,-24.18,24.68,-22.559998999999998,2d
2019-07-12_120130:700,-0.386383,-0.023895,-0.322845,-0.0033909999999999995,-0.007678,0.003023,-24.18,24.68,-22.559998999999998,2d
2019-07-12_120130:720,-0.383331,-0.025421,-0.320801,-0.003849,-0.0066099999999999996,0.004274,-24.18,24.68,-22.559998999999998,2d
2019-07-12_120130:740,-0.385864,-0.024902,-0.322327,-0.004459,-0.0066099999999999996,0.004793,-23.870001000000002,25.370001000000002,-22.18,2d
2019-07-12_120130:760,-0.385376,-0.026427999999999997,-0.319275,-0.0051,-0.005878,0.005647,-23.870001000000002,25.370001000000002,-22.18,2d
2019-07-12_120130:780,-0.38385,-0.027954000000000003,-0.31723,-0.005741,-0.005573,0.006532,-23.870001000000002,25.370001000000002,-22.18,2d
2019-07-12_120130:800,-0.381317,-0.030487,-0.316742,-0.006351,-0.005176,0.007326000000000001,-23.870001000000002,24.68,-21.75,2d
2019-07-12_120130:820,-0.379791,-0.034546,-0.31369,-0.006687,-0.005176,0.0076,-23.870001000000002,24.68,-21.75,2d
2019-07-12_120130:840,-0.38028,-0.036072,-0.31369,-0.006962,-0.005634,0.007722,-23.559998999999998,25.059998999999998,-23.0,2d
