timestamp,AccX,AccY,AccZ,GyroX,GyroY,GyroZ,MagX,MagY,MagZ,Activity
2019-07-15_142558:880,-0.36248800000000003,0.027954000000000003,-0.3508,-0.006104999999999999,-0.0035210000000000003,0.002833,-43.0,11.18,-16.870001000000002,3b
2019-07-15_142558:900,-0.364014,0.028961,-0.353333,-0.004121,-0.002972,0.002589,-42.68,10.5,-15.68,3b
2019-07-15_142558:920,-0.366058,0.034058,-0.350281,-0.002107,-0.001934,0.0016129999999999999,-42.68,10.5,-15.68,3b
2019-07-15_142558:940,-0.364532,0.041687,-0.349792,-0.0005809999999999999,-0.001537,0.001124,-43.0,9.75,-16.5,3b
2019-07-15_142558:960,-0.384857,0.043213,-0.349274,9e-05,-0.000286,0.001277,-43.0,9.75,-16.5,3b
2019-07-15_142558:980,-0.368591,0.051330999999999995,-0.34317,0.0007610000000000001,0.002094,0.00146,-43.0,9.75,-16.5,3b
2019-07-15_142559:000,-0.36349499999999996,0.050323,-0.34265100000000004,-3.2e-05,0.002369,0.00207,-42.68,9.37,-16.059998999999998,3b
2019-07-15_142559:020,-0.36044299999999996,0.044739,-0.335022,-0.000917,0.0033450000000000003,0.0027719999999999997,-42.68,9.37,-16.059998999999998,3b
2019-07-15_142559:040,-0.347229,0.041687,-0.336548,-0.001314,0.0021550000000000002,0.004756,-43.0,10.5,-16.059998999999998,3b
2019-07-15_142559:060,-0.352844,0.031006,-0.341125,-0.0017100000000000001,-0.0005,0.00674,-43.0,10.5,-16.059998999999998,3b
2019-07-15_142559:080,-0.37112399999999995,0.026917,-0.33758499999999997,-0.000978,-0.00172,0.007136,-43.0,10.5,-16.059998999999998,3b
2019-07-15_142559:100,-0.375702,0.026917,-0.334534,0.000487,0.00035499999999999996,0.007289,-41.869999,10.75,-16.059998999999998,3b
2019-07-15_142559:120,-0.367584,0.029480000000000003,-0.33300799999999997,0.000273,0.0016359999999999999,0.007533,-41.869999,10.75,-16.059998999999998,3b
2019-07-15_142559:140,-0.35943600000000003,0.032532,-0.334534,-0.000978,0.001362,0.0076549999999999995,-42.68,10.5,-16.870001000000002,3b
2019-07-15_142559:160,-0.361969,0.027954000000000003,-0.336548,-0.0033280000000000002,-0.000225,0.007808,-42.68,10.5,-16.870001000000002,3b
2019-07-15_142559:180,-0.364532,0.024384,-0.3396,-0.0049759999999999995,-0.00172,0.00793,-42.68,10.5,-16.870001000000002,3b
2019-07-15_142559:200,-0.36554000000000003,0.017273,-0.336548,-0.005922,-0.0016589999999999999,0.007197,-42.25,11.56,-16.059998999999998,3b
2019-07-15_142559:220,-0.36654699999999996,0.015747,-0.33758499999999997,-0.005586,-0.0021780000000000002,0.005946,-42.25,11.56,-16.059998999999998,3b
2019-07-15_142559:240,-0.361481,0.013213999999999998,-0.335541,-0.005189,-0.002728,0.0051530000000000005,-41.869999,11.18,-16.059998999999998,3b
2019-07-15_142559:260,-0.366058,0.009644,-0.330963,-0.004457,-0.0035210000000000003,0.005031,-41.869999,11.18,-16.059998999999998,3b
2019-07-15_142559:280,-0.36554000000000003,0.007599,-0.33197,-0.003725,-0.004497999999999999,0.004146,-41.869999,11.18,-16.059998999999998,3b
2019-07-15_142559:300,-0.37112399999999995,0.004547,-0.329437,-0.0016489999999999999,-0.004497999999999999,0.0031079999999999997,-42.25,11.18,-15.68,3b
2019-07-15_142559:320,-0.37011700000000003,0.004547,-0.332489,0.00067,-0.004131,0.002131,-42.25,11.18,-15.68,3b
2019-07-15_142559:340,-0.364014,0.010651,-0.335541,0.002806,-0.004192,0.00207,-42.68,10.75,-17.25,3b
2019-07-15_142559:360,-0.361969,0.009125,-0.338074,0.003264,-0.0053219999999999995,0.0024059999999999997,-42.68,10.75,-17.25,3b
2019-07-15_142559:380,-0.368591,0.007111,-0.3396,0.004546,-0.005566,0.0028940000000000003,-42.68,10.75,-17.25,3b
2019-07-15_142559:400,-0.366058,0.015228,-0.341644,0.005614,-0.005383,0.002315,-42.68,11.18,-17.25,3b
2019-07-15_142559:420,-0.35943600000000003,0.015747,-0.344177,0.004729,-0.004925,0.001338,-42.68,11.18,-17.25,3b
2019-07-15_142559:440,-0.368591,0.006592,-0.341644,0.004607,-0.004772,0.000148,-41.5,10.75,-16.870001000000002,3b
2019-07-15_142559:460,-0.36706500000000003,0.000488,-0.338593,0.005919,-0.003399,-0.001042,-41.5,10.75,-16.870001000000002,3b
2019-07-15_142559:480,-0.371643,0.006592,-0.34063699999999997,0.008237999999999999,-0.001934,-0.002049,-41.5,10.75,-16.870001000000002,3b
2019-07-15_142559:500,-0.358429,0.012177,-0.340118,0.009184000000000001,-0.000683,-0.002385,-41.869999,11.18,-16.059998999999998,3b
2019-07-15_142559:520,-0.352844,0.014740000000000001,-0.337067,0.008727,-0.0005610000000000001,-0.002843,-41.869999,11.18,-16.059998999999998,3b
2019-07-15_142559:540,-0.361969,0.013702,-0.342163,0.007597,-0.001202,-0.003057,-41.869999,11.18,-16.059998999999998,3b
2019-07-15_142559:560,-0.361969,0.014221000000000001,-0.34063699999999997,0.0063159999999999996,-0.001385,-0.003728,-41.869999,11.18,-16.059998999999998,3b
2019-07-15_142559:580,-0.35180700000000004,0.013213999999999998,-0.341125,0.0050030000000000005,-0.001263,-0.003636,-41.869999,11.18,-16.059998999999998,3b
2019-07-15_142559:600,-0.349792,0.013213999999999998,-0.3396,0.0038740000000000003,-0.0023309999999999997,-0.002904,-42.25,10.75,-16.5,3b
2019-07-15_142559:620,-0.35739099999999996,0.015228,-0.3396,0.003325,-0.003582,-0.002385,-42.25,10.75,-16.5,3b
2019-07-15_142559:640,-0.360962,0.015747,-0.34265100000000004,0.0016769999999999999,-0.004437,-0.002385,-43.0,11.18,-16.870001000000002,3b
2019-07-15_142559:660,-0.363007,0.010162000000000001,-0.344696,0.000151,-0.004772,-0.0023239999999999997,-43.0,11.18,-16.870001000000002,3b
2019-07-15_142559:680,-0.361969,0.004547,-0.347229,-0.000124,-0.004131,-0.003057,-43.0,11.18,-16.870001000000002,3b
2019-07-15_142559:700,-0.36248800000000003,0.0035399999999999997,-0.34570300000000004,0.0008230000000000001,-0.00404,-0.004033,-42.68,11.18,-16.059998999999998,3b
2019-07-15_142559:720,-0.361481,0.005065999999999999,-0.341125,0.002135,-0.003643,-0.004064,-42.68,11.18,-16.059998999999998,3b
2019-07-15_142559:740,-0.36044299999999996,0.008636,-0.338593,0.002806,-0.003643,-0.0033009999999999997,-41.869999,10.75,-18.059998999999998,3b
2019-07-15_142559:760,-0.37011700000000003,0.011169,-0.338593,0.003325,-0.003704,-0.002385,-41.869999,10.75,-18.059998999999998,3b
2019-07-15_142559:780,-0.368073,0.013702,-0.344696,0.003264,-0.00285,-0.0024460000000000003,-41.869999,10.75,-18.059998999999998,3b
2019-07-15_142559:800,-0.36044299999999996,0.015228,-0.344696,0.002684,-0.0021780000000000002,-0.003392,-42.25,10.75,-17.25,3b
2019-07-15_142559:820,-0.35791,0.016753999999999998,-0.34265100000000004,0.001952,-0.002514,-0.004308,-42.25,10.75,-17.25,3b
2019-07-15_142559:840,-0.35739099999999996,0.017273,-0.341644,0.001616,-0.00285,-0.004064,-41.5,11.18,-16.059998999999998,3b
2019-07-15_142559:860,-0.35791,0.015747,-0.338074,0.0014939999999999999,-0.003246,-0.003972,-41.5,11.18,-16.059998999999998,3b
2019-07-15_142559:880,-0.35739099999999996,0.015747,-0.34063699999999997,0.0016769999999999999,-0.003643,-0.004186,-41.5,11.18,-16.059998999999998,3b
2019-07-15_142559:900,-0.354858,0.018799,-0.345215,0.002562,-0.004101,-0.004369,-42.25,10.18,-16.870001000000002,3b
2019-07-15_142559:920,-0.356903,0.019806,-0.346222,0.00302,-0.004986,-0.003972,-42.25,10.18,-16.870001000000002,3b
2019-07-15_142559:940,-0.352325,0.026917,-0.34063699999999997,0.002684,-0.0053219999999999995,-0.003118,-42.68,9.75,-17.25,3b
2019-07-15_142559:960,-0.350281,0.026917,-0.34265100000000004,0.001616,-0.005961999999999999,-0.001592,-42.68,9.75,-17.25,3b
2019-07-15_142559:980,-0.342163,0.025908999999999998,-0.341125,-9.300000000000001e-05,-0.007488,0.000148,-42.68,9.75,-17.25,3b
2019-07-15_142600:000,-0.338074,0.021851,-0.341125,-0.0016190000000000002,-0.009411,0.000484,-43.0,9.75,-16.870001000000002,3b
2019-07-15_142600:020,-0.33605999999999997,0.019806,-0.339111,-0.0029010000000000004,-0.012158,0.000667,-43.0,9.75,-16.870001000000002,3b
2019-07-15_142600:040,-0.336548,0.012695,-0.337067,-0.003023,-0.014385,0.001277,-43.0,9.0,-18.5,3b
2019-07-15_142600:060,-0.32995599999999997,0.010162000000000001,-0.33605999999999997,-0.002687,-0.016338,0.002376,-43.0,9.0,-18.5,3b
2019-07-15_142600:080,-0.32132,0.012695,-0.34875500000000004,-0.0016489999999999999,-0.019329,0.00323,-43.0,9.0,-18.5,3b
2019-07-15_142600:100,-0.331482,0.016266,-0.360962,-0.001375,-0.023296,0.003963,-42.25,9.37,-16.870001000000002,3b
2019-07-15_142600:120,-0.35739099999999996,0.014221000000000001,-0.36706500000000003,-0.0018329999999999998,-0.024487000000000002,0.003901,-42.25,9.37,-16.870001000000002,3b
2019-07-15_142600:140,-0.36654699999999996,0.016753999999999998,-0.37316900000000003,-0.002168,-0.022381,0.003505,-41.5,9.75,-18.870001000000002,3b
2019-07-15_142600:160,-0.36349499999999996,0.016753999999999998,-0.371643,-0.0023510000000000002,-0.018047,0.0036880000000000003,-41.5,9.75,-18.870001000000002,3b
2019-07-15_142600:180,-0.35180700000000004,0.029968,-0.379272,-0.003206,-0.014385,0.003505,-41.5,9.75,-18.870001000000002,3b
2019-07-15_142600:200,-0.36349499999999996,0.038116000000000004,-0.388428,-0.005983,-0.011729999999999999,0.0034130000000000002,-41.5,9.37,-20.5,3b
2019-07-15_142600:220,-0.35638400000000003,0.034058,-0.386902,-0.011568,-0.008282,0.003963,-41.5,9.37,-20.5,3b
2019-07-15_142600:240,-0.34674099999999997,0.025908999999999998,-0.381805,-0.015413,-0.004376,0.003749,-41.560001,9.37,-20.059998999999998,3b
2019-07-15_142600:260,-0.326385,0.013702,-0.374695,-0.016878,-0.002575,0.003474,-41.560001,9.37,-20.059998999999998,3b
2019-07-15_142600:280,-0.314697,0.004059,-0.383331,-0.015596,-0.002972,0.004542,-41.560001,9.37,-20.059998999999998,3b
2019-07-15_142600:300,-0.330963,0.0,-0.388428,-0.013338,-0.004772,0.004695,-40.869999,9.75,-20.5,3b
2019-07-15_142600:320,-0.34265100000000004,-0.001495,-0.384338,-0.010164,-0.004833,0.004146,-40.869999,9.75,-20.5,3b
2019-07-15_142600:340,-0.34265100000000004,0.0035399999999999997,-0.381805,-0.006044,-0.0027890000000000002,0.0025280000000000003,-40.560001,10.18,-20.5,3b
2019-07-15_142600:360,-0.327911,0.012177,-0.375702,-0.0028399999999999996,-0.001202,0.0012460000000000001,-40.560001,10.18,-20.5,3b
2019-07-15_142600:380,-0.322327,0.016753999999999998,-0.373688,-0.0007639999999999999,-0.0006219999999999999,0.000484,-40.560001,10.18,-20.5,3b
2019-07-15_142600:400,-0.319275,0.021332,-0.374176,0.000212,-0.0011099999999999999,0.000606,-41.25,9.37,-20.870001000000002,3b
2019-07-15_142600:420,-0.317749,0.024384,-0.37316900000000003,0.000365,-0.001934,0.001674,-41.25,9.37,-20.870001000000002,3b
2019-07-15_142600:440,-0.322327,0.022858,-0.37316900000000003,-0.000246,-0.0030629999999999998,0.002467,-41.25,9.0,-18.870001000000002,3b
2019-07-15_142600:460,-0.325897,0.021851,-0.37011700000000003,-0.000978,-0.0037649999999999997,0.001857,-41.25,9.0,-18.870001000000002,3b
2019-07-15_142600:480,-0.32843,0.020325,-0.372162,-0.001497,-0.003796,0.00085,-41.25,9.0,-18.870001000000002,3b
2019-07-15_142600:500,-0.32843,0.021851,-0.377747,-0.0016190000000000002,-0.003582,-0.000646,-40.5,9.37,-20.059998999999998,3b
2019-07-15_142600:520,-0.329437,0.020844,-0.38385,-0.001314,-0.0031850000000000003,-0.000463,-40.5,9.37,-20.059998999999998,3b
2019-07-15_142600:540,-0.335541,0.019318000000000002,-0.380798,-0.001161,-0.0027890000000000002,0.000331,-40.75,9.37,-19.68,3b
2019-07-15_142600:560,-0.33300799999999997,0.020844,-0.377228,-0.000642,-0.001843,0.000392,-40.75,9.37,-19.68,3b
2019-07-15_142600:580,-0.32843,0.021332,-0.37674,-0.000246,-0.000958,0.000941,-40.75,9.37,-19.68,3b
2019-07-15_142600:600,-0.325378,0.020325,-0.375702,-0.000124,-0.0007440000000000001,0.001674,-40.75,9.0,-20.5,3b
2019-07-15_142600:620,-0.319275,0.019318000000000002,-0.374695,-0.000185,-0.001324,0.001918,-40.75,9.0,-20.5,3b
2019-07-15_142600:640,-0.325378,0.020325,-0.374695,9e-05,-0.0021780000000000002,0.0017350000000000002,-40.75,9.0,-21.25,3b
2019-07-15_142600:660,-0.328949,0.021332,-0.37316900000000003,-9.300000000000001e-05,-0.002911,0.0017350000000000002,-40.75,9.0,-21.25,3b
2019-07-15_142600:680,-0.322845,0.021851,-0.373688,-0.0007030000000000001,-0.003002,0.0025280000000000003,-40.75,9.0,-21.25,3b
2019-07-15_142600:700,-0.318268,0.017273,-0.374176,-0.001955,-0.003582,0.0031079999999999997,-39.25,9.0,-20.059998999999998,3b
2019-07-15_142600:720,-0.318268,0.014221000000000001,-0.377228,-0.002748,-0.003918,0.00323,-39.25,9.0,-20.059998999999998,3b
2019-07-15_142600:740,-0.323334,0.012695,-0.384857,-0.0026260000000000003,-0.004437,0.0033520000000000004,-40.869999,8.68,-20.870001000000002,3b
2019-07-15_142600:760,-0.330475,0.010162000000000001,-0.385864,-0.0025039999999999997,-0.004589,0.002711,-40.869999,8.68,-20.870001000000002,3b
2019-07-15_142600:780,-0.324371,0.010162000000000001,-0.385864,-0.0023510000000000002,-0.003582,0.001521,-40.869999,8.68,-20.870001000000002,3b
2019-07-15_142600:800,-0.322327,0.010162000000000001,-0.385864,-0.001771,-0.003002,0.000789,-40.869999,8.25,-20.059998999999998,3b
2019-07-15_142600:820,-0.320801,0.009125,-0.380798,-0.000825,-0.002667,0.000148,-40.869999,8.25,-20.059998999999998,3b
2019-07-15_142600:840,-0.315704,0.013213999999999998,-0.380798,0.0014939999999999999,-0.002667,-0.002202,-40.18,9.0,-22.059998999999998,3b
2019-07-15_142600:860,-0.31369,0.016753999999999998,-0.380798,0.002745,-0.002911,-0.003331,-40.18,9.0,-22.059998999999998,3b
2019-07-15_142600:880,-0.314697,0.024384,-0.380798,0.003752,-0.003796,-0.003453,-40.18,9.0,-22.059998999999998,3b
2019-07-15_142600:900,-0.315704,0.026427999999999997,-0.378265,0.0036609999999999998,-0.004131,-0.002843,-41.25,9.37,-20.5,3b
2019-07-15_142600:920,-0.309113,0.028442000000000002,-0.37674,0.003203,-0.004589,-0.0016530000000000002,-41.25,9.37,-20.5,3b
2019-07-15_142600:940,-0.309113,0.027435,-0.376221,0.002867,-0.005261,-0.00024900000000000004,-40.869999,9.0,-20.870001000000002,3b
2019-07-15_142600:960,-0.313171,0.030487,-0.376221,0.0014939999999999999,-0.006634,0.0010630000000000001,-40.869999,9.0,-20.870001000000002,3b
2019-07-15_142600:980,-0.29895,0.028442000000000002,-0.37674,0.000609,-0.006573000000000001,0.00207,-40.869999,9.0,-20.870001000000002,3b
2019-07-15_142601:000,-0.297913,0.027435,-0.375214,-0.001039,-0.008953000000000001,0.0025280000000000003,-40.560001,8.68,-20.5,3b
2019-07-15_142601:020,-0.29943800000000004,0.025421,-0.37316900000000003,-0.0016489999999999999,-0.010479,0.00323,-40.560001,8.68,-20.5,3b
2019-07-15_142601:040,-0.306061,0.023895,-0.374176,-0.002443,-0.011761,0.003871,-40.869999,8.68,-20.870001000000002,3b
2019-07-15_142601:060,-0.308075,0.020844,-0.384338,-0.003114,-0.013409,0.0032909999999999997,-40.869999,8.68,-20.870001000000002,3b
2019-07-15_142601:080,-0.311127,0.019806,-0.388428,-0.0038469999999999997,-0.014750999999999998,0.003169,-40.869999,8.68,-20.870001000000002,3b
2019-07-15_142601:100,-0.320801,0.017273,-0.392487,-0.004182,-0.014874,0.005092,-40.060001,9.75,-20.870001000000002,3b
2019-07-15_142601:120,-0.324371,0.014740000000000001,-0.391479,-0.0038469999999999997,-0.014599,0.005733,-40.060001,9.75,-20.870001000000002,3b
2019-07-15_142601:140,-0.322327,0.012695,-0.394531,-0.00345,-0.013805000000000001,0.005488,-40.060001,8.68,-22.059998999999998,3b
2019-07-15_142601:160,-0.312164,0.014221000000000001,-0.40570100000000003,-0.002748,-0.013134,0.005763,-40.060001,8.68,-22.059998999999998,3b
2019-07-15_142601:180,-0.318756,0.012695,-0.41333000000000003,-0.003145,-0.013012000000000001,0.006404000000000001,-40.060001,8.68,-22.059998999999998,3b
2019-07-15_142601:200,-0.325378,0.012177,-0.41333000000000003,-0.0034799999999999996,-0.011883,0.007991,-40.060001,8.68,-22.870001000000002,3b
2019-07-15_142601:220,-0.323334,0.009125,-0.409271,-0.004579,-0.008892,0.00854,-40.060001,8.68,-22.870001000000002,3b
2019-07-15_142601:240,-0.307587,0.007599,-0.406219,-0.004732,-0.006512,0.0065260000000000006,-39.0,8.25,-23.25,3b
2019-07-15_142601:260,-0.298431,0.0055850000000000006,-0.404694,-0.004518,-0.005627,0.003505,-39.0,8.25,-23.25,3b
2019-07-15_142601:280,-0.29742399999999997,0.009125,-0.407227,-0.004396,-0.005961999999999999,0.001399,-39.0,8.25,-23.25,3b
2019-07-15_142601:300,-0.304016,0.011169,-0.406738,-0.004579,-0.005566,0.001857,-39.369999,9.75,-23.68,3b
2019-07-15_142601:320,-0.309601,0.011169,-0.405212,-0.004915,-0.004314,0.0034130000000000002,-39.369999,9.75,-23.68,3b
2019-07-15_142601:340,-0.29995700000000003,0.006072999999999999,-0.406738,-0.004732,-0.002117,0.00323,-39.75,9.37,-23.25,3b
2019-07-15_142601:360,-0.293335,0.009644,-0.402161,-0.004274,-0.001141,0.001124,-39.75,9.37,-23.25,3b
2019-07-15_142601:380,-0.28775,0.011169,-0.402161,-0.0032670000000000004,-0.001202,-0.000798,-39.75,9.37,-23.25,3b
2019-07-15_142601:400,-0.28418000000000004,0.014740000000000001,-0.404175,-0.0023510000000000002,-0.001873,-0.001805,-38.68,9.37,-23.25,3b
2019-07-15_142601:420,-0.283173,0.020325,-0.40316799999999997,-0.002168,-0.002667,-0.000981,-38.68,9.37,-23.25,3b
2019-07-15_142601:440,-0.290283,0.021332,-0.40316799999999997,-0.0026260000000000003,-0.0031850000000000003,0.000545,-39.369999,8.68,-24.059998999999998,3b
2019-07-15_142601:460,-0.296906,0.021332,-0.401123,-0.003542,-0.0027890000000000002,0.001521,-39.369999,8.68,-24.059998999999998,3b
2019-07-15_142601:480,-0.290802,0.023375999999999997,-0.40063499999999996,-0.004793,-0.002117,0.002467,-39.369999,8.68,-24.059998999999998,3b
2019-07-15_142601:500,-0.28927600000000003,0.020844,-0.401123,-0.0058,-0.0020559999999999997,0.003016,-38.25,8.68,-23.68,3b
2019-07-15_142601:520,-0.28927600000000003,0.016266,-0.40368699999999996,-0.006104999999999999,-0.003124,0.0031079999999999997,-38.25,8.68,-23.68,3b
2019-07-15_142601:540,-0.295898,0.014740000000000001,-0.40570100000000003,-0.005525,-0.003918,0.003016,-39.75,9.37,-24.059998999999998,3b
2019-07-15_142601:560,-0.29895,0.016753999999999998,-0.407227,-0.004793,-0.003796,0.0035659999999999997,-39.75,9.37,-24.059998999999998,3b
2019-07-15_142601:580,-0.295898,0.018799,-0.40976,-0.004335,-0.003368,0.004024,-39.75,9.37,-24.059998999999998,3b
2019-07-15_142601:600,-0.293335,0.020844,-0.408752,-0.004121,-0.00346,0.004878,-39.060001,9.0,-23.68,3b
2019-07-15_142601:620,-0.29232800000000003,0.021851,-0.407227,-0.0038770000000000002,-0.0027890000000000002,0.005733,-39.060001,9.0,-23.68,3b
2019-07-15_142601:640,-0.28979499999999997,0.019806,-0.40976,-0.004396,-0.00285,0.0065569999999999995,-38.68,9.0,-24.059998999999998,3b
2019-07-15_142601:660,-0.290283,0.014221000000000001,-0.406738,-0.004335,-0.002667,0.006679000000000001,-38.68,9.0,-24.059998999999998,3b
2019-07-15_142601:680,-0.29232800000000003,0.010162000000000001,-0.406738,-0.0039380000000000005,-0.001843,0.0061600000000000005,-38.68,9.0,-24.059998999999998,3b
2019-07-15_142601:700,-0.288269,0.010162000000000001,-0.405212,-0.003023,-0.001324,0.005672,-38.68,9.37,-23.68,3b
2019-07-15_142601:720,-0.285217,0.013213999999999998,-0.40368699999999996,-0.002229,-0.001446,0.005397,-38.68,9.37,-23.68,3b
2019-07-15_142601:740,-0.285217,0.011169,-0.404694,-0.002382,-0.001537,0.004817,-39.060001,8.68,-23.25,3b
2019-07-15_142601:760,-0.279114,0.015747,-0.404694,-0.002687,-0.001843,0.004298,-39.060001,8.68,-23.25,3b
2019-07-15_142601:780,-0.279114,0.014740000000000001,-0.405212,-0.0029010000000000004,-0.0035210000000000003,0.0036880000000000003,-39.060001,8.68,-23.25,3b
2019-07-15_142601:800,-0.280121,0.014740000000000001,-0.40976,-0.0036030000000000003,-0.004497999999999999,0.0024059999999999997,-38.25,9.75,-24.059998999999998,3b
2019-07-15_142601:820,-0.282654,0.015747,-0.416382,-0.00345,-0.005444,0.002315,-38.25,9.75,-24.059998999999998,3b
2019-07-15_142601:840,-0.28418000000000004,0.016266,-0.41943400000000003,-0.0032670000000000004,-0.005961999999999999,0.0024059999999999997,-38.25,9.37,-25.25,3b
2019-07-15_142601:860,-0.29742399999999997,0.019318000000000002,-0.418915,-0.0033280000000000002,-0.005779,0.002009,-38.25,9.37,-25.25,3b
2019-07-15_142601:880,-0.29538000000000003,0.019318000000000002,-0.41995200000000005,-0.00345,-0.004497999999999999,0.0021920000000000004,-38.25,9.37,-25.25,3b
2019-07-15_142601:900,-0.28979499999999997,0.019806,-0.42248500000000005,-0.003389,-0.0031850000000000003,0.00265,-38.68,10.18,-24.5,3b
2019-07-15_142601:920,-0.28979499999999997,0.019806,-0.421967,-0.003664,-0.002575,0.0031079999999999997,-38.68,10.18,-24.5,3b
2019-07-15_142601:940,-0.285706,0.021332,-0.416901,-0.0039380000000000005,-0.001934,0.00381,-38.25,9.75,-24.5,3b
2019-07-15_142601:960,-0.285217,0.020844,-0.41586300000000004,-0.004274,-0.001995,0.004756,-38.25,9.75,-24.5,3b
2019-07-15_142601:980,-0.279633,0.017273,-0.410278,-0.004793,-0.001263,0.00561,-38.25,9.75,-24.5,3b
2019-07-15_142602:000,-0.276581,0.017273,-0.411285,-0.004671,-0.001782,0.0051530000000000005,-43.060001,9.37,-25.25,3b
2019-07-15_142602:020,-0.27301,0.015747,-0.410797,-0.004671,-0.003002,0.005031,-43.060001,9.37,-25.25,3b
2019-07-15_142602:040,-0.275055,0.015747,-0.41384899999999997,-0.004396,-0.003582,0.005763,-38.25,9.75,-24.059998999999998,3b
2019-07-15_142602:060,-0.284698,0.014221000000000001,-0.41384899999999997,-0.0038770000000000002,-0.003399,0.005672,-38.25,9.75,-24.059998999999998,3b
2019-07-15_142602:080,-0.282166,0.015747,-0.41586300000000004,-0.003725,-0.003307,0.005336,-38.25,9.75,-24.059998999999998,3b
2019-07-15_142602:100,-0.282166,0.016753999999999998,-0.416901,-0.0038469999999999997,-0.0035210000000000003,0.005946,-38.0,9.75,-24.5,3b
2019-07-15_142602:120,-0.28875700000000004,0.016266,-0.415375,-0.004274,-0.003124,0.005946,-38.0,9.75,-24.5,3b
2019-07-15_142602:140,-0.28875700000000004,0.016266,-0.41842700000000005,-0.004335,-0.002239,0.005763,-38.68,9.0,-25.0,3b
2019-07-15_142602:160,-0.28927600000000003,0.015228,-0.417389,-0.004396,-0.001598,0.005733,-38.68,9.0,-25.0,3b
2019-07-15_142602:180,-0.284698,0.016266,-0.41232299999999994,-0.004457,-0.001019,0.005488,-38.68,9.0,-25.0,3b
2019-07-15_142602:200,-0.282654,0.017792,-0.411804,-0.004732,-0.0005,0.005946,-42.369999,9.75,-25.0,3b
2019-07-15_142602:220,-0.280121,0.016753999999999998,-0.408752,-0.005128,-0.000897,0.0058850000000000005,-42.369999,9.75,-25.0,3b
2019-07-15_142602:240,-0.277588,0.015228,-0.409271,-0.005464,-0.0016589999999999999,0.005672,-37.869999,9.37,-24.370001000000002,3b
2019-07-15_142602:260,-0.274536,0.015228,-0.40976,-0.005403,-0.002514,0.005733,-37.869999,9.37,-24.370001000000002,3b
2019-07-15_142602:280,-0.279114,0.014740000000000001,-0.410278,-0.005861,-0.003918,0.005427,-37.869999,9.37,-24.370001000000002,3b
2019-07-15_142602:300,-0.283173,0.013702,-0.41232299999999994,-0.0058,-0.003857,0.005427,-38.560001,9.37,-24.5,3b
2019-07-15_142602:320,-0.284698,0.013702,-0.41485600000000006,-0.0057079999999999995,-0.003307,0.004939,-38.560001,9.37,-24.5,3b
2019-07-15_142602:340,-0.282654,0.014221000000000001,-0.415375,-0.0058,-0.0031850000000000003,0.004542,-37.5,9.37,-24.870001000000002,3b
2019-07-15_142602:360,-0.279633,0.013702,-0.416382,-0.005372999999999999,-0.003002,0.004085,-37.5,9.37,-24.870001000000002,3b
2019-07-15_142602:380,-0.277069,0.013213999999999998,-0.41485600000000006,-0.005464,-0.003368,0.003871,-37.5,9.37,-24.870001000000002,3b
2019-07-15_142602:400,-0.277588,0.014740000000000001,-0.41586300000000004,-0.005189,-0.003307,0.003749,-37.869999,10.5,-23.25,3b
2019-07-15_142602:420,-0.275543,0.016266,-0.416901,-0.004732,-0.003124,0.0036880000000000003,-37.869999,10.5,-23.25,3b
2019-07-15_142602:440,-0.279114,0.017273,-0.41842700000000005,-0.00461,-0.0030629999999999998,0.0032909999999999997,-38.18,9.37,-25.25,3b
2019-07-15_142602:460,-0.279633,0.019806,-0.417389,-0.004915,-0.0031850000000000003,0.00323,-38.18,9.37,-25.25,3b
2019-07-15_142602:480,-0.278107,0.018799,-0.41842700000000005,-0.005403,-0.002972,0.002955,-38.18,9.37,-25.25,3b
2019-07-15_142602:500,-0.274017,0.018799,-0.416901,-0.005586,-0.0027890000000000002,0.002711,-37.869999,10.18,-25.25,3b
2019-07-15_142602:520,-0.277588,0.019806,-0.41842700000000005,-0.005525,-0.002728,0.00207,-37.869999,10.18,-25.25,3b
2019-07-15_142602:540,-0.28112800000000004,0.019318000000000002,-0.418915,-0.005372999999999999,-0.002728,0.0021920000000000004,-37.560001,9.0,-26.059998999999998,3b
2019-07-15_142602:560,-0.282166,0.020325,-0.41943400000000003,-0.00525,-0.0016589999999999999,0.00207,-37.560001,9.0,-26.059998999999998,3b
2019-07-15_142602:580,-0.282654,0.021851,-0.41943400000000003,-0.0049759999999999995,-0.001019,0.002467,-37.560001,9.0,-26.059998999999998,3b
2019-07-15_142602:600,-0.277588,0.023375999999999997,-0.41943400000000003,-0.004915,-0.0008349999999999999,0.00265,-38.0,9.75,-25.25,3b
2019-07-15_142602:620,-0.275055,0.021332,-0.41842700000000005,-0.004915,-0.000958,0.003169,-38.0,9.75,-25.25,3b
2019-07-15_142602:640,-0.27301,0.021332,-0.418915,-0.004854,-0.0011099999999999999,0.003169,-38.25,9.75,-26.059998999999998,3b
2019-07-15_142602:660,-0.278595,0.022369,-0.418915,-0.004396,-0.001446,0.003078,-38.25,9.75,-26.059998999999998,3b
2019-07-15_142602:680,-0.282166,0.021332,-0.417389,-0.003999,-0.0011099999999999999,0.0033520000000000004,-38.25,9.75,-26.059998999999998,3b
2019-07-15_142602:700,-0.285217,0.021851,-0.416382,-0.0038469999999999997,-0.00037799999999999997,0.00381,-38.0,9.0,-24.059998999999998,3b
2019-07-15_142602:720,-0.279114,0.024902,-0.41384899999999997,-0.003542,0.00011100000000000001,0.004481000000000001,-38.0,9.0,-24.059998999999998,3b
2019-07-15_142602:740,-0.270966,0.022858,-0.41333000000000003,-0.004243,-0.000164,0.0033520000000000004,-38.25,9.37,-25.68,3b
2019-07-15_142602:760,-0.270477,0.022858,-0.41586300000000004,-0.004335,-0.000683,0.0024059999999999997,-38.25,9.37,-25.68,3b
2019-07-15_142602:780,-0.271484,0.022858,-0.416901,-0.003999,-0.001385,0.00265,-38.25,9.37,-25.68,3b
2019-07-15_142602:800,-0.277069,0.019318000000000002,-0.417389,-0.003786,-0.001843,0.002955,-37.560001,9.0,-26.059998999999998,3b
2019-07-15_142602:820,-0.279114,0.020844,-0.417908,-0.0029010000000000004,-0.00108,0.0035659999999999997,-37.560001,9.0,-26.059998999999998,3b
2019-07-15_142602:840,-0.275543,0.022858,-0.418915,-0.0025039999999999997,-0.001019,0.004146,-37.560001,9.0,-26.059998999999998,3b
2019-07-15_142602:860,-0.275543,0.023375999999999997,-0.418915,-0.0029010000000000004,-0.001019,0.004481000000000001,-38.0,9.37,-26.059998999999998,3b
2019-07-15_142602:880,-0.273529,0.025421,-0.41842700000000005,-0.003084,-0.00108,0.004024,-38.0,9.37,-26.059998999999998,3b
2019-07-15_142602:900,-0.277069,0.024384,-0.41943400000000003,-0.00406,-0.000897,0.003749,-38.0,9.37,-25.68,3b
2019-07-15_142602:920,-0.277069,0.023375999999999997,-0.41586300000000004,-0.004457,-0.0011099999999999999,0.003901,-38.0,9.37,-25.68,3b
2019-07-15_142602:940,-0.278107,0.020844,-0.415375,-0.004518,-0.00108,0.004298,-38.0,9.37,-25.68,3b
2019-07-15_142602:960,-0.277588,0.019318000000000002,-0.41485600000000006,-0.004579,-0.000897,0.00381,-38.0,9.37,-26.059998999999998,3b
2019-07-15_142602:980,-0.278595,0.01828,-0.416382,-0.0038469999999999997,-0.0008349999999999999,0.0033520000000000004,-38.0,9.37,-26.059998999999998,3b
2019-07-15_142603:000,-0.279114,0.019806,-0.41586300000000004,-0.0033280000000000002,-0.0005,0.0033520000000000004,-37.560001,9.37,-26.5,3b
2019-07-15_142603:020,-0.277588,0.020325,-0.414337,-0.0029010000000000004,-0.000103,0.0034130000000000002,-37.560001,9.37,-26.5,3b
2019-07-15_142603:040,-0.279114,0.022369,-0.416382,-0.002748,-4.2e-05,0.00323,-37.560001,9.37,-25.68,3b
2019-07-15_142603:060,-0.279114,0.022858,-0.41586300000000004,-0.002565,5e-05,0.0033520000000000004,-37.560001,9.37,-25.68,3b
2019-07-15_142603:080,-0.280121,0.022369,-0.41384899999999997,-0.002748,0.000233,0.003749,-37.560001,9.37,-25.68,3b
2019-07-15_142603:100,-0.276062,0.021332,-0.41333000000000003,-0.003023,0.00035499999999999996,0.003749,-38.68,9.75,-26.059998999999998,3b
2019-07-15_142603:120,-0.279114,0.020844,-0.41232299999999994,-0.003389,-4.2e-05,0.00381,-38.68,9.75,-26.059998999999998,3b
2019-07-15_142603:140,-0.279633,0.017792,-0.412811,-0.0034799999999999996,-4.2e-05,0.003963,-38.68,9.75,-26.059998999999998,3b
2019-07-15_142603:160,-0.279114,0.016753999999999998,-0.412811,-0.0034799999999999996,0.00011100000000000001,0.004024,-38.25,9.75,-25.25,3b
2019-07-15_142603:180,-0.275055,0.016753999999999998,-0.41333000000000003,-0.003084,0.000233,0.004024,-38.25,9.75,-25.25,3b
2019-07-15_142603:200,-0.277069,0.01828,-0.41333000000000003,-0.0028399999999999996,-0.00034700000000000003,0.003749,-37.560001,10.18,-26.059998999999998,3b
2019-07-15_142603:220,-0.28064,0.01828,-0.411804,-0.002565,-0.000897,0.003505,-37.560001,10.18,-26.059998999999998,3b
2019-07-15_142603:240,-0.28112800000000004,0.01828,-0.411804,-0.002687,-0.00108,0.0035659999999999997,-38.0,9.75,-26.059998999999998,3b
2019-07-15_142603:260,-0.279633,0.018799,-0.412811,-0.0028399999999999996,-0.0005610000000000001,0.003169,-38.0,9.75,-26.059998999999998,3b
2019-07-15_142603:280,-0.280121,0.017792,-0.41232299999999994,-0.003023,-0.0006219999999999999,0.002711,-38.0,9.75,-26.059998999999998,3b
2019-07-15_142603:300,-0.279633,0.018799,-0.41333000000000003,-0.002565,-0.0006219999999999999,0.002376,-37.560001,9.75,-25.25,3b
2019-07-15_142603:320,-0.28064,0.018799,-0.411285,-0.0023510000000000002,-0.0006219999999999999,0.0025280000000000003,-37.560001,9.75,-25.25,3b
2019-07-15_142603:340,-0.279633,0.019806,-0.410797,-0.002229,-0.000286,0.002742,-37.560001,9.75,-25.25,3b
2019-07-15_142603:360,-0.277588,0.020844,-0.41232299999999994,-0.002382,-0.00034700000000000003,0.003169,-37.560001,10.5,-25.68,3b
2019-07-15_142603:380,-0.279114,0.019806,-0.40976,-0.002565,-0.000683,0.003474,-37.560001,10.5,-25.68,3b
2019-07-15_142603:400,-0.280121,0.019318000000000002,-0.410278,-0.002687,-0.001324,0.0036880000000000003,-37.560001,9.75,-26.5,3b
2019-07-15_142603:420,-0.275055,0.020325,-0.406219,-0.003145,-0.00172,0.0042369999999999994,-37.560001,9.75,-26.5,3b
2019-07-15_142603:440,-0.272491,0.017792,-0.40774499999999997,-0.003725,-0.002972,0.0032909999999999997,-37.560001,9.75,-26.5,3b
2019-07-15_142603:460,-0.26944,0.01828,-0.40774499999999997,-0.0038770000000000002,-0.0035210000000000003,0.001796,-38.25,10.18,-25.68,3b
2019-07-15_142603:480,-0.26944,0.017273,-0.40823400000000004,-0.003999,-0.005047,0.0017350000000000002,-38.25,10.18,-25.68,3b
2019-07-15_142603:500,-0.279633,0.014740000000000001,-0.411285,-0.0038469999999999997,-0.005718,0.002254,-38.0,10.18,-26.059998999999998,3b
2019-07-15_142603:520,-0.28369099999999997,0.014221000000000001,-0.41232299999999994,-0.003206,-0.005444,0.002833,-38.0,10.18,-26.059998999999998,3b
2019-07-15_142603:540,-0.28064,0.014221000000000001,-0.416382,-0.002748,-0.004772,0.0034130000000000002,-38.0,10.18,-26.059998999999998,3b
2019-07-15_142603:560,-0.278107,0.015228,-0.41842700000000005,-0.002229,-0.004772,0.0036270000000000004,-38.25,9.37,-25.25,3b
2019-07-15_142603:580,-0.278107,0.016266,-0.417908,-0.001894,-0.004192,0.0028940000000000003,-38.25,9.37,-25.25,3b
2019-07-15_142603:600,-0.276581,0.01828,-0.41842700000000005,-0.0018329999999999998,-0.004253,0.002254,-37.25,10.18,-26.059998999999998,3b
2019-07-15_142603:620,-0.282166,0.01828,-0.420441,-0.002168,-0.003796,0.0024059999999999997,-37.25,10.18,-26.059998999999998,3b
2019-07-15_142603:640,-0.278107,0.018799,-0.41842700000000005,-0.0025039999999999997,-0.0027890000000000002,0.002711,-37.25,10.18,-26.059998999999998,3b
2019-07-15_142603:660,-0.274017,0.017273,-0.420441,-0.0026260000000000003,-0.002514,0.001857,-38.25,9.75,-25.68,3b
2019-07-15_142603:680,-0.274017,0.017792,-0.41943400000000003,-0.002687,-0.0024530000000000003,0.0016129999999999999,-38.25,9.75,-25.68,3b
2019-07-15_142603:700,-0.271484,0.018799,-0.416901,-0.0025039999999999997,-0.002728,0.002315,-37.25,9.75,-25.68,3b
2019-07-15_142603:720,-0.27301,0.019318000000000002,-0.416382,-0.002443,-0.002667,0.00265,-37.25,9.75,-25.68,3b
2019-07-15_142603:740,-0.272003,0.018799,-0.417389,-0.002443,-0.002911,0.002833,-37.25,9.75,-25.68,3b
2019-07-15_142603:760,-0.270966,0.020844,-0.417908,-0.0029010000000000004,-0.003246,0.003016,-37.25,9.0,-28.059998999999998,3b
2019-07-15_142603:780,-0.26944,0.019806,-0.417389,-0.003389,-0.003582,0.0032909999999999997,-37.25,9.0,-28.059998999999998,3b
2019-07-15_142603:800,-0.267426,0.020844,-0.417389,-0.003999,-0.003857,0.003505,-36.869999,9.75,-26.059998999999998,3b
2019-07-15_142603:820,-0.262848,0.021332,-0.41586300000000004,-0.004243,-0.004192,0.003963,-36.869999,9.75,-26.059998999999998,3b
2019-07-15_142603:840,-0.265381,0.021332,-0.41943400000000003,-0.004732,-0.005261,0.004207,-36.869999,9.75,-26.059998999999998,3b
2019-07-15_142603:860,-0.267914,0.017792,-0.420441,-0.004793,-0.005779,0.00442,-37.560001,9.75,-26.5,3b
2019-07-15_142603:880,-0.27301,0.017273,-0.421967,-0.005006,-0.005718,0.004695,-37.560001,9.75,-26.5,3b
2019-07-15_142603:900,-0.27301,0.016753999999999998,-0.423492,-0.004671,-0.004772,0.004817,-37.560001,9.75,-26.5,3b
2019-07-15_142603:920,-0.27301,0.015747,-0.426544,-0.00461,-0.004253,0.00442,-37.560001,9.75,-26.5,3b
2019-07-15_142603:940,-0.272491,0.016266,-0.42758199999999996,-0.004396,-0.003307,0.0042369999999999994,-37.560001,9.75,-26.5,3b
2019-07-15_142603:960,-0.27301,0.014740000000000001,-0.42858900000000005,-0.003999,-0.001995,0.004359,-36.5,10.18,-27.68,3b
2019-07-15_142603:980,-0.273529,0.015228,-0.426544,-0.004121,-0.001202,0.003474,-36.5,10.18,-27.68,3b
2019-07-15_142604:000,-0.27301,0.015747,-0.425018,-0.0039380000000000005,-0.000286,0.003474,-36.869999,10.18,-28.059998999999998,3b
2019-07-15_142604:020,-0.273529,0.013702,-0.42147799999999996,-0.0038469999999999997,0.00038500000000000003,0.0033520000000000004,-36.869999,10.18,-28.059998999999998,3b
2019-07-15_142604:040,-0.26944,0.017273,-0.421967,-0.0034799999999999996,0.0005679999999999999,0.003078,-36.869999,10.18,-28.059998999999998,3b
2019-07-15_142604:060,-0.264374,0.018799,-0.417908,-0.003542,0.0005679999999999999,0.003169,-36.5,10.18,-26.5,3b
2019-07-15_142604:080,-0.266907,0.015747,-0.418915,-0.0039380000000000005,0.000233,0.0016129999999999999,-36.5,10.18,-26.5,3b
2019-07-15_142604:100,-0.266907,0.01828,-0.417908,-0.00406,-0.000103,0.000941,-37.25,9.75,-27.0,3b
2019-07-15_142604:120,-0.265381,0.015228,-0.418915,-0.003725,-0.000103,0.001918,-37.25,9.75,-27.0,3b
2019-07-15_142604:140,-0.26944,0.015747,-0.41995200000000005,-0.0033280000000000002,-0.0005610000000000001,0.00207,-37.25,9.75,-27.0,3b
2019-07-15_142604:160,-0.274536,0.017792,-0.418915,-0.002687,-0.0005,0.001857,-36.5,9.75,-26.059998999999998,3b
2019-07-15_142604:180,-0.271484,0.019806,-0.418915,-0.0023510000000000002,-0.000225,0.002589,-36.5,9.75,-26.059998999999998,3b
2019-07-15_142604:200,-0.267426,0.020325,-0.41842700000000005,-0.002443,1.9e-05,0.002742,-37.25,10.18,-27.25,3b
2019-07-15_142604:220,-0.26944,0.021332,-0.41842700000000005,-0.0029620000000000002,-0.000225,0.002376,-37.25,10.18,-27.25,3b
2019-07-15_142604:240,-0.266388,0.021851,-0.418915,-0.0036030000000000003,-0.000958,0.002376,-37.25,10.18,-27.25,3b
2019-07-15_142604:260,-0.268951,0.019806,-0.41943400000000003,-0.004121,-0.001324,0.002711,-42.369999,10.18,-25.25,3b
2019-07-15_142604:280,-0.271484,0.018799,-0.41943400000000003,-0.00461,-0.001324,0.002254,-42.369999,10.18,-25.25,3b
2019-07-15_142604:300,-0.26944,0.016753999999999998,-0.41995200000000005,-0.004579,-0.001324,0.001918,-37.560001,9.75,-28.059998999999998,3b
2019-07-15_142604:320,-0.269958,0.015747,-0.41842700000000005,-0.004243,-0.001141,0.002009,-37.560001,9.75,-28.059998999999998,3b
2019-07-15_142604:340,-0.268951,0.015228,-0.41943400000000003,-0.00345,-0.001446,0.0017350000000000002,-37.560001,9.75,-28.059998999999998,3b
2019-07-15_142604:360,-0.269958,0.017273,-0.41995200000000005,-0.0029620000000000002,-0.001263,0.00146,-36.5,9.0,-25.25,3b
2019-07-15_142604:380,-0.26944,0.018799,-0.41995200000000005,-0.0025039999999999997,-0.001141,0.001521,-36.5,9.0,-25.25,3b
2019-07-15_142604:400,-0.2659,0.020844,-0.420959,-0.002382,-0.000958,0.001338,-37.560001,9.75,-27.0,3b
2019-07-15_142604:420,-0.267426,0.022369,-0.41995200000000005,-0.002565,-0.0014759999999999999,0.001185,-37.560001,9.75,-27.0,3b
2019-07-15_142604:440,-0.268433,0.021851,-0.420959,-0.002565,-0.001598,0.00085,-37.560001,9.75,-27.0,3b
2019-07-15_142604:460,-0.266907,0.021851,-0.42147799999999996,-0.0028399999999999996,-0.001537,0.000789,-37.25,10.18,-25.68,3b
2019-07-15_142604:480,-0.266388,0.021851,-0.42147799999999996,-0.002687,-0.001385,0.000667,-37.25,10.18,-25.68,3b
2019-07-15_142604:500,-0.268951,0.021851,-0.423492,-0.002565,-0.0016589999999999999,0.00085,-37.560001,9.75,-26.5,3b
2019-07-15_142604:520,-0.269958,0.021851,-0.421967,-0.002443,-0.001263,0.0010630000000000001,-37.560001,9.75,-26.5,3b
2019-07-15_142604:540,-0.26944,0.023375999999999997,-0.421967,-0.0023510000000000002,-0.000897,0.00146,-37.560001,9.75,-26.5,3b
2019-07-15_142604:560,-0.266907,0.021851,-0.42147799999999996,-0.002382,-0.0008349999999999999,0.0016129999999999999,-37.25,9.37,-26.5,3b
2019-07-15_142604:580,-0.267426,0.023375999999999997,-0.423004,-0.002382,-0.0006219999999999999,0.001857,-37.25,9.37,-26.5,3b
2019-07-15_142604:600,-0.266907,0.023895,-0.420959,-0.0025039999999999997,-0.0005,0.002254,-35.75,9.0,-26.5,3b
2019-07-15_142604:620,-0.27301,0.023375999999999997,-0.420959,-0.003023,-0.0007740000000000001,0.002254,-35.75,9.0,-26.5,3b
2019-07-15_142604:640,-0.269958,0.023375999999999997,-0.418915,-0.003114,-0.0006219999999999999,0.002955,-35.75,9.0,-26.5,3b
2019-07-15_142604:660,-0.266388,0.020844,-0.418915,-0.0036030000000000003,-0.00037799999999999997,0.002467,-37.25,9.0,-27.0,3b
2019-07-15_142604:680,-0.266907,0.020325,-0.418915,-0.003664,-0.000958,0.0012460000000000001,-37.25,9.0,-27.0,3b
2019-07-15_142604:700,-0.262848,0.020325,-0.41943400000000003,-0.0033280000000000002,-0.001019,0.001674,-36.869999,9.37,-27.0,3b
2019-07-15_142604:720,-0.268433,0.017792,-0.420441,-0.002779,-0.001141,0.002254,-36.869999,9.37,-27.0,3b
2019-07-15_142604:740,-0.27301,0.01828,-0.420959,-0.001894,-0.001446,0.002009,-36.869999,9.37,-27.0,3b
2019-07-15_142604:760,-0.270966,0.022369,-0.41995200000000005,-0.001253,-0.0008349999999999999,0.002254,-37.560001,9.37,-26.5,3b
2019-07-15_142604:780,-0.268433,0.024902,-0.41943400000000003,-0.001253,-0.0005610000000000001,0.002955,-37.560001,9.37,-26.5,3b
2019-07-15_142604:800,-0.2659,0.024384,-0.418915,-0.001955,-0.0005610000000000001,0.002955,-38.0,9.37,-28.059998999999998,3b
2019-07-15_142604:820,-0.263855,0.025908999999999998,-0.417908,-0.0028399999999999996,-0.001324,0.00265,-38.0,9.37,-28.059998999999998,3b
2019-07-15_142604:840,-0.2659,0.023375999999999997,-0.417908,-0.003664,-0.001598,0.003078,-38.0,9.37,-28.059998999999998,3b
2019-07-15_142604:860,-0.268951,0.021332,-0.420441,-0.004121,-0.001995,0.002955,-37.25,9.0,-27.0,3b
2019-07-15_142604:880,-0.268433,0.020844,-0.421967,-0.004121,-0.0020559999999999997,0.0024059999999999997,-37.25,9.0,-27.0,3b
2019-07-15_142604:900,-0.26944,0.019318000000000002,-0.421967,-0.0038469999999999997,-0.001843,0.0027719999999999997,-37.25,9.75,-26.5,3b
2019-07-15_142604:920,-0.270966,0.018799,-0.42147799999999996,-0.003114,-0.0014759999999999999,0.00323,-37.25,9.75,-26.5,3b
2019-07-15_142604:940,-0.270477,0.020844,-0.42248500000000005,-0.002687,-0.001446,0.0033520000000000004,-37.25,9.75,-26.5,3b
2019-07-15_142604:960,-0.267914,0.020844,-0.420441,-0.002565,-0.001263,0.003505,-37.25,9.0,-25.68,3b
2019-07-15_142604:980,-0.265381,0.023375999999999997,-0.420959,-0.0025039999999999997,-0.001263,0.0036270000000000004,-37.25,9.0,-25.68,3b
2019-07-15_142605:000,-0.262848,0.023375999999999997,-0.41943400000000003,-0.0033280000000000002,-0.001537,0.0035659999999999997,-37.25,9.0,-26.059998999999998,3b
2019-07-15_142605:020,-0.262848,0.021851,-0.418915,-0.00406,-0.001995,0.003474,-37.25,9.0,-26.059998999999998,3b
2019-07-15_142605:040,-0.263336,0.020325,-0.42248500000000005,-0.004274,-0.001995,0.0035659999999999997,-37.25,9.0,-26.059998999999998,3b
2019-07-15_142605:060,-0.267914,0.017792,-0.423492,-0.004457,-0.0024530000000000003,0.003474,-37.560001,9.75,-26.5,3b
2019-07-15_142605:080,-0.268433,0.01828,-0.425018,-0.0038770000000000002,-0.0020559999999999997,0.0031079999999999997,-37.560001,9.75,-26.5,3b
2019-07-15_142605:100,-0.268433,0.01828,-0.42605600000000005,-0.0033280000000000002,-0.001934,0.0034130000000000002,-37.560001,9.0,-27.68,3b
2019-07-15_142605:120,-0.267914,0.019806,-0.42401099999999997,-0.003084,-0.001202,0.003505,-37.560001,9.0,-27.68,3b
2019-07-15_142605:140,-0.265381,0.020844,-0.423004,-0.0029620000000000002,-0.000897,0.0032909999999999997,-37.560001,9.0,-27.68,3b
2019-07-15_142605:160,-0.264374,0.021332,-0.423492,-0.003084,-0.0005610000000000001,0.00323,-37.25,9.0,-27.25,3b
2019-07-15_142605:180,-0.263855,0.020844,-0.421967,-0.003084,-0.0007740000000000001,0.003474,-37.25,9.0,-27.25,3b
2019-07-15_142605:200,-0.267914,0.020325,-0.42248500000000005,-0.00345,-0.000683,0.003169,-37.25,9.75,-27.0,3b
2019-07-15_142605:220,-0.267914,0.022369,-0.420959,-0.0036030000000000003,-0.0007740000000000001,0.004024,-37.25,9.75,-27.0,3b
2019-07-15_142605:240,-0.265381,0.020325,-0.421967,-0.0038770000000000002,-0.0006219999999999999,0.004024,-37.25,9.75,-27.0,3b
2019-07-15_142605:260,-0.264862,0.020325,-0.423004,-0.004457,-0.000897,0.002833,-36.869999,9.0,-26.5,3b
2019-07-15_142605:280,-0.264862,0.01828,-0.423492,-0.004396,-0.0008349999999999999,0.0031079999999999997,-36.869999,9.0,-26.5,3b
2019-07-15_142605:300,-0.268433,0.015228,-0.423004,-0.004182,-0.0007740000000000001,0.003749,-37.560001,9.37,-26.059998999999998,3b
2019-07-15_142605:320,-0.270477,0.015228,-0.421967,-0.003786,-0.0005,0.0034130000000000002,-37.560001,9.37,-26.059998999999998,3b
2019-07-15_142605:340,-0.268433,0.017273,-0.420959,-0.003084,0.00011100000000000001,0.0031079999999999997,-37.560001,9.37,-26.059998999999998,3b
2019-07-15_142605:360,-0.261322,0.019806,-0.420441,-0.002687,-0.000225,0.0033520000000000004,-37.25,9.37,-27.0,3b
2019-07-15_142605:380,-0.262848,0.018799,-0.41995200000000005,-0.002687,-0.00034700000000000003,0.003078,-37.25,9.37,-27.0,3b
2019-07-15_142605:400,-0.263855,0.020325,-0.421967,-0.0029620000000000002,-0.000958,0.002467,-37.25,10.5,-26.5,3b
2019-07-15_142605:420,-0.26944,0.019806,-0.423004,-0.003389,-0.001202,0.002589,-37.25,10.5,-26.5,3b
2019-07-15_142605:440,-0.270966,0.019318000000000002,-0.423492,-0.003542,-0.0011099999999999999,0.002467,-37.25,10.5,-26.5,3b
2019-07-15_142605:460,-0.26944,0.018799,-0.423004,-0.003725,-0.0007440000000000001,0.0021920000000000004,-37.560001,8.68,-26.5,3b
2019-07-15_142605:480,-0.267426,0.019318000000000002,-0.42147799999999996,-0.00345,-0.000225,0.0021920000000000004,-37.560001,8.68,-26.5,3b
2019-07-15_142605:500,-0.2659,0.01828,-0.42147799999999996,-0.0033280000000000002,-0.000103,0.002315,-36.869999,9.75,-27.0,3b
2019-07-15_142605:520,-0.266388,0.017792,-0.420441,-0.003114,-4.2e-05,0.002254,-36.869999,9.75,-27.0,3b
2019-07-15_142605:540,-0.267426,0.019806,-0.42147799999999996,-0.0026260000000000003,-0.00034700000000000003,0.002131,-36.869999,9.75,-27.0,3b
2019-07-15_142605:560,-0.267914,0.021851,-0.41943400000000003,-0.002443,-0.0006219999999999999,0.002009,-36.869999,9.37,-27.25,3b
2019-07-15_142605:580,-0.266388,0.020844,-0.418915,-0.0025039999999999997,-0.000439,0.00207,-36.869999,9.37,-27.25,3b
2019-07-15_142605:600,-0.266388,0.022858,-0.41943400000000003,-0.002779,-0.0008349999999999999,0.001857,-36.869999,8.0,-25.68,3b
2019-07-15_142605:620,-0.264374,0.022369,-0.418915,-0.003145,-0.000683,0.001918,-36.869999,8.0,-25.68,3b
2019-07-15_142605:640,-0.2659,0.020325,-0.41943400000000003,-0.0032670000000000004,-0.001019,0.001918,-36.869999,8.0,-25.68,3b
2019-07-15_142605:660,-0.267914,0.020325,-0.41995200000000005,-0.0032670000000000004,-0.001324,0.001857,-36.5,9.75,-26.5,3b
2019-07-15_142605:680,-0.268433,0.020844,-0.420441,-0.003084,-0.00108,0.001918,-36.5,9.75,-26.5,3b
2019-07-15_142605:700,-0.266388,0.021332,-0.42147799999999996,-0.0026260000000000003,-0.0011099999999999999,0.002742,-37.25,9.0,-27.25,3b
2019-07-15_142605:720,-0.2659,0.021851,-0.420441,-0.002443,-0.00108,0.002711,-37.25,9.0,-27.25,3b
2019-07-15_142605:740,-0.265381,0.022858,-0.42248500000000005,-0.0025039999999999997,-0.001202,0.002467,-37.25,9.0,-27.25,3b
2019-07-15_142605:760,-0.267426,0.021851,-0.421967,-0.003023,-0.001324,0.002742,-37.25,9.75,-27.0,3b
2019-07-15_142605:780,-0.273529,0.020325,-0.42248500000000005,-0.003114,-0.001202,0.0024059999999999997,-37.25,9.75,-27.0,3b
2019-07-15_142605:800,-0.27301,0.022369,-0.42248500000000005,-0.003206,-0.001141,0.0033520000000000004,-37.560001,9.37,-26.5,3b
2019-07-15_142605:820,-0.266907,0.019806,-0.418915,-0.0033280000000000002,-0.0007440000000000001,0.003016,-37.560001,9.37,-26.5,3b
2019-07-15_142605:840,-0.2659,0.020325,-0.421967,-0.0034799999999999996,-0.0007440000000000001,0.001338,-37.560001,9.37,-26.5,3b
2019-07-15_142605:860,-0.26181,0.022369,-0.421967,-0.003206,-0.000958,0.00207,-37.25,9.37,-27.25,3b
2019-07-15_142605:880,-0.264862,0.01828,-0.42248500000000005,-0.003084,-0.001537,0.002833,-37.25,9.37,-27.25,3b
2019-07-15_142605:900,-0.269958,0.01828,-0.42147799999999996,-0.002748,-0.001843,0.002589,-36.060001,9.0,-27.25,3b
2019-07-15_142605:920,-0.270477,0.020844,-0.41995200000000005,-0.002168,-0.000958,0.002711,-36.060001,9.0,-27.25,3b
2019-07-15_142605:940,-0.2659,0.021332,-0.420959,-0.001955,-0.0006219999999999999,0.002955,-36.060001,9.0,-27.25,3b
2019-07-15_142605:960,-0.263855,0.023375999999999997,-0.42147799999999996,-0.002229,-0.0008349999999999999,0.002711,-36.869999,9.37,-26.5,3b
2019-07-15_142605:980,-0.263336,0.024384,-0.420959,-0.003023,-0.001263,0.002467,-36.869999,9.37,-26.5,3b
2019-07-15_142606:000,-0.266388,0.024384,-0.42248500000000005,-0.003725,-0.001782,0.0028940000000000003,-36.869999,9.0,-27.25,3b
2019-07-15_142606:020,-0.268433,0.022369,-0.423004,-0.004121,-0.0014759999999999999,0.0025280000000000003,-36.869999,9.0,-27.25,3b
2019-07-15_142606:040,-0.268433,0.020844,-0.423492,-0.0038469999999999997,-0.001446,0.002315,-36.869999,9.0,-27.25,3b
2019-07-15_142606:060,-0.269958,0.019318000000000002,-0.423492,-0.003542,-0.000897,0.003078,-36.869999,9.0,-27.25,3b
2019-07-15_142606:080,-0.268951,0.019806,-0.42248500000000005,-0.0032670000000000004,-0.0005,0.003169,-36.869999,9.0,-27.25,3b
2019-07-15_142606:100,-0.26944,0.020844,-0.42401099999999997,-0.003084,-0.000225,0.0028940000000000003,-37.25,9.0,-25.68,3b
2019-07-15_142606:120,-0.269958,0.020844,-0.423004,-0.0029010000000000004,0.000172,0.0027719999999999997,-37.25,9.0,-25.68,3b
2019-07-15_142606:140,-0.267914,0.021332,-0.420959,-0.003145,1.9e-05,0.002833,-37.25,9.0,-25.68,3b
2019-07-15_142606:160,-0.266907,0.021332,-0.41995200000000005,-0.003114,0.000172,0.002315,-36.869999,9.37,-26.5,3b
2019-07-15_142606:180,-0.264862,0.021332,-0.41842700000000005,-0.0034799999999999996,-0.00037799999999999997,0.002131,-36.869999,9.37,-26.5,3b
2019-07-15_142606:200,-0.265381,0.022369,-0.41842700000000005,-0.00345,-0.000683,0.0021920000000000004,-36.869999,9.37,-26.5,3b
2019-07-15_142606:220,-0.266907,0.021332,-0.418915,-0.003206,-0.0007740000000000001,0.0021920000000000004,-36.869999,9.37,-26.5,3b
2019-07-15_142606:240,-0.267426,0.021332,-0.41995200000000005,-0.003023,-0.0011099999999999999,0.00207,-36.869999,9.37,-26.5,3b
2019-07-15_142606:260,-0.268951,0.021332,-0.420441,-0.0029620000000000002,-0.001263,0.002376,-37.560001,8.68,-26.059998999999998,3b
2019-07-15_142606:280,-0.269958,0.022858,-0.41943400000000003,-0.0028399999999999996,-0.001202,0.002131,-37.560001,8.68,-26.059998999999998,3b
2019-07-15_142606:300,-0.269958,0.021851,-0.420441,-0.002382,-0.000897,0.001979,-38.25,9.37,-27.25,3b
2019-07-15_142606:320,-0.268433,0.023895,-0.41995200000000005,-0.002748,-0.000958,0.002589,-38.25,9.37,-27.25,3b
2019-07-15_142606:340,-0.264862,0.023375999999999997,-0.420441,-0.002779,-0.001141,0.00265,-38.25,9.37,-27.25,3b
2019-07-15_142606:360,-0.26944,0.022858,-0.42147799999999996,-0.003206,-0.001446,0.002711,-37.560001,9.0,-26.5,3b
2019-07-15_142606:380,-0.266907,0.024902,-0.420441,-0.0033280000000000002,-0.001598,0.0036880000000000003,-37.560001,9.0,-26.5,3b
2019-07-15_142606:400,-0.2659,0.021851,-0.41995200000000005,-0.0036030000000000003,-0.0014759999999999999,0.002315,-37.560001,9.75,-27.0,3b
2019-07-15_142606:420,-0.267426,0.022369,-0.421967,-0.0038469999999999997,-0.001019,0.001582,-37.560001,9.75,-27.0,3b
2019-07-15_142606:440,-0.262848,0.021332,-0.42248500000000005,-0.003389,-0.001324,0.0027719999999999997,-37.560001,9.75,-27.0,3b
2019-07-15_142606:460,-0.267426,0.018799,-0.423004,-0.003023,-0.001537,0.002833,-37.25,9.0,-27.68,3b
2019-07-15_142606:480,-0.270477,0.019318000000000002,-0.42248500000000005,-0.00229,-0.001019,0.002955,-37.25,9.0,-27.68,3b
2019-07-15_142606:500,-0.268951,0.021332,-0.420959,-0.002046,-0.0005610000000000001,0.0036270000000000004,-37.25,9.37,-27.0,3b
2019-07-15_142606:520,-0.263336,0.023895,-0.420959,-0.002382,-0.0007740000000000001,0.0036880000000000003,-37.25,9.37,-27.0,3b
2019-07-15_142606:540,-0.264862,0.024384,-0.42147799999999996,-0.0029620000000000002,-0.0008349999999999999,0.003169,-37.25,9.37,-27.0,3b
2019-07-15_142606:560,-0.264374,0.025421,-0.420959,-0.0036030000000000003,-0.001324,0.003474,-36.869999,9.75,-26.059998999999998,3b
2019-07-15_142606:580,-0.267426,0.024384,-0.41995200000000005,-0.004274,-0.0014759999999999999,0.003963,-36.869999,9.75,-26.059998999999998,3b
2019-07-15_142606:600,-0.270477,0.019806,-0.421967,-0.004457,-0.00108,0.0034130000000000002,-37.560001,9.75,-26.059998999999998,3b
2019-07-15_142606:620,-0.27301,0.017792,-0.425018,-0.004182,-0.0006219999999999999,0.003016,-37.560001,9.75,-26.059998999999998,3b
2019-07-15_142606:640,-0.2659,0.017273,-0.417908,-0.00345,-0.0007740000000000001,0.003169,-37.560001,9.75,-26.059998999999998,3b
2019-07-15_142606:660,-0.265381,0.018799,-0.42147799999999996,-0.0028399999999999996,-0.000897,0.003078,-37.25,9.37,-27.25,3b
2019-07-15_142606:680,-0.264862,0.019806,-0.417908,-0.0023510000000000002,-0.0011099999999999999,0.003016,-37.25,9.37,-27.25,3b
2019-07-15_142606:700,-0.264862,0.021851,-0.42147799999999996,-0.0023510000000000002,-0.001537,0.003016,-37.25,9.37,-28.059998999999998,3b
2019-07-15_142606:720,-0.264374,0.023895,-0.420959,-0.002687,-0.0016589999999999999,0.0031079999999999997,-37.25,9.37,-28.059998999999998,3b
2019-07-15_142606:740,-0.267914,0.023895,-0.421967,-0.00345,-0.001446,0.003016,-37.25,9.37,-28.059998999999998,3b
2019-07-15_142606:760,-0.266907,0.023375999999999997,-0.423492,-0.0036030000000000003,-0.001446,0.002955,-36.5,9.37,-27.0,3b
2019-07-15_142606:780,-0.266907,0.021851,-0.42147799999999996,-0.003999,-0.001537,0.0028940000000000003,-36.5,9.37,-27.0,3b
2019-07-15_142606:800,-0.267914,0.020844,-0.42453,-0.003786,-0.001324,0.0028940000000000003,-37.560001,9.37,-27.0,3b
2019-07-15_142606:820,-0.267914,0.019806,-0.42248500000000005,-0.003389,-0.001263,0.0027719999999999997,-37.560001,9.37,-27.0,3b
2019-07-15_142606:840,-0.267914,0.020325,-0.42147799999999996,-0.0032670000000000004,-0.001263,0.002833,-37.560001,9.37,-27.0,3b
2019-07-15_142606:860,-0.265381,0.020325,-0.423004,-0.0026260000000000003,-0.000897,0.002955,-37.25,9.75,-25.68,3b
2019-07-15_142606:880,-0.263336,0.022858,-0.421967,-0.0026260000000000003,-0.0008349999999999999,0.003016,-37.25,9.75,-25.68,3b
2019-07-15_142606:900,-0.262329,0.022858,-0.421967,-0.002687,-0.001324,0.003474,-37.560001,8.68,-27.25,3b
2019-07-15_142606:920,-0.269958,0.023375999999999997,-0.423492,-0.0029010000000000004,-0.001141,0.0034130000000000002,-37.560001,8.68,-27.25,3b
2019-07-15_142606:940,-0.267914,0.025908999999999998,-0.425018,-0.003206,-0.000958,0.004024,-37.560001,8.68,-27.25,3b
2019-07-15_142606:960,-0.267914,0.023895,-0.425018,-0.0034799999999999996,-0.0007740000000000001,0.004085,-36.5,9.75,-27.25,3b
2019-07-15_142606:980,-0.268951,0.021332,-0.423004,-0.004457,-0.00034700000000000003,0.002009,-36.5,9.75,-27.25,3b
2019-07-15_142607:000,-0.263855,0.021332,-0.42248500000000005,-0.004518,-4.2e-05,0.002009,-36.5,9.75,-27.25,3b
2019-07-15_142607:020,-0.264862,0.017273,-0.421967,-0.0038770000000000002,-0.0005,0.0033520000000000004,-37.25,9.0,-27.0,3b
2019-07-15_142607:040,-0.2659,0.016753999999999998,-0.420441,-0.0034799999999999996,-0.0005610000000000001,0.003169,-37.25,9.0,-27.0,3b
2019-07-15_142607:060,-0.266388,0.016753999999999998,-0.420441,-0.002229,-0.00037799999999999997,0.003169,-42.369999,9.0,-26.059998999999998,3b
2019-07-15_142607:080,-0.26181,0.019806,-0.420441,-0.001955,-0.00034700000000000003,0.0036270000000000004,-42.369999,9.0,-26.059998999999998,3b
2019-07-15_142607:100,-0.263336,0.021851,-0.41995200000000005,-0.0018329999999999998,-0.001019,0.0036270000000000004,-30.25,9.0,-26.870001000000002,3b
2019-07-15_142607:120,-0.265381,0.023895,-0.420441,-0.0025039999999999997,-0.0014759999999999999,0.0027719999999999997,-30.25,9.0,-26.870001000000002,3b
2019-07-15_142607:140,-0.266907,0.023895,-0.423004,-0.0038469999999999997,-0.001324,0.003169,-30.25,9.0,-26.870001000000002,3b
2019-07-15_142607:160,-0.268433,0.020325,-0.423492,-0.004182,-0.001324,0.0031079999999999997,-36.869999,9.37,-26.5,3b
2019-07-15_142607:180,-0.268951,0.020325,-0.42248500000000005,-0.00406,-0.0007740000000000001,0.00265,-36.869999,9.37,-26.5,3b
2019-07-15_142607:200,-0.267914,0.01828,-0.423004,-0.00406,-0.0007440000000000001,0.00265,-37.25,9.0,-27.68,3b
2019-07-15_142607:220,-0.264862,0.01828,-0.421967,-0.003206,-0.0008349999999999999,0.002955,-37.25,9.0,-27.68,3b
2019-07-15_142607:240,-0.267426,0.01828,-0.42248500000000005,-0.0028399999999999996,-0.000958,0.002955,-37.25,9.0,-27.68,3b
2019-07-15_142607:260,-0.267426,0.021332,-0.420959,-0.0025039999999999997,-0.000439,0.00265,-36.869999,9.37,-26.870001000000002,3b
2019-07-15_142607:280,-0.267426,0.022858,-0.420959,-0.002748,-0.0005610000000000001,0.002742,-36.869999,9.37,-26.870001000000002,3b
2019-07-15_142607:300,-0.267426,0.022858,-0.42147799999999996,-0.0029620000000000002,-0.00034700000000000003,0.002711,-36.869999,9.37,-26.870001000000002,3b
2019-07-15_142607:320,-0.265381,0.022369,-0.42147799999999996,-0.003542,-0.0007740000000000001,0.002711,-37.25,9.37,-27.0,3b
2019-07-15_142607:340,-0.263855,0.020325,-0.41995200000000005,-0.0038770000000000002,-0.0007440000000000001,0.0024059999999999997,-37.25,9.37,-27.0,3b
2019-07-15_142607:360,-0.264862,0.020325,-0.420441,-0.0038770000000000002,-0.001141,0.002254,-36.869999,9.37,-26.5,3b
2019-07-15_142607:380,-0.268433,0.01828,-0.420441,-0.0034799999999999996,-0.001141,0.002254,-36.869999,9.37,-26.5,3b
2019-07-15_142607:400,-0.277588,0.019318000000000002,-0.420959,-0.0029620000000000002,-0.0008349999999999999,0.0024059999999999997,-36.869999,9.37,-26.5,3b
2019-07-15_142607:420,-0.279633,0.020844,-0.42248500000000005,-0.0026260000000000003,5e-05,0.002833,-36.869999,9.37,-26.5,3b
2019-07-15_142607:440,-0.274017,0.020844,-0.42758199999999996,-0.001894,0.0021550000000000002,0.00323,-36.869999,9.37,-26.5,3b
2019-07-15_142607:460,-0.270477,0.020325,-0.42807,-0.002046,0.00301,0.0032909999999999997,-37.560001,9.0,-26.870001000000002,3b
2019-07-15_142607:480,-0.268951,0.017792,-0.425537,-0.0016489999999999999,0.0035590000000000005,0.0036270000000000004,-37.560001,9.0,-26.870001000000002,3b
2019-07-15_142607:500,-0.272003,0.01828,-0.423004,-0.000825,0.0032229999999999997,0.003474,-37.560001,9.0,-26.870001000000002,3b
2019-07-15_142607:520,-0.26944,0.021851,-0.41586300000000004,-0.001039,0.003406,0.0036880000000000003,-38.0,9.0,-24.870001000000002,3b
2019-07-15_142607:540,-0.264862,0.020325,-0.41586300000000004,-0.001253,0.003803,0.00381,-38.0,9.0,-24.870001000000002,3b
2019-07-15_142607:560,-0.262329,0.021332,-0.41586300000000004,-0.0017100000000000001,0.002888,0.001979,-36.869999,9.37,-26.5,3b
2019-07-15_142607:580,-0.262848,0.022858,-0.41485600000000006,-0.002168,0.001697,0.001674,-36.869999,9.37,-26.5,3b
2019-07-15_142607:600,-0.266907,0.020325,-0.41485600000000006,-0.002382,0.0006900000000000001,0.002589,-36.869999,9.37,-26.5,3b
2019-07-15_142607:620,-0.269958,0.018799,-0.41586300000000004,-0.0026260000000000003,-0.000164,0.002467,-37.25,9.37,-25.68,3b
2019-07-15_142607:640,-0.267914,0.021851,-0.41586300000000004,-0.002565,-0.0005610000000000001,0.002955,-37.25,9.37,-25.68,3b
2019-07-15_142607:660,-0.268951,0.022369,-0.416901,-0.0028399999999999996,-0.0008349999999999999,0.0032909999999999997,-38.0,9.37,-27.25,3b
2019-07-15_142607:680,-0.273529,0.021332,-0.417908,-0.00345,-0.0014759999999999999,0.003016,-38.0,9.37,-27.25,3b
2019-07-15_142607:700,-0.27301,0.020844,-0.41995200000000005,-0.003542,-0.001385,0.003169,-38.0,9.37,-27.25,3b
2019-07-15_142607:720,-0.27301,0.019318000000000002,-0.41995200000000005,-0.00406,-0.001141,0.003474,-38.0,9.37,-25.68,3b
2019-07-15_142607:740,-0.271484,0.018799,-0.41995200000000005,-0.0039380000000000005,-0.001324,0.003016,-38.0,9.37,-25.68,3b
2019-07-15_142607:760,-0.269958,0.016266,-0.420441,-0.004121,-0.001385,0.002742,-37.25,9.75,-25.68,3b
2019-07-15_142607:780,-0.270477,0.016266,-0.418915,-0.0038770000000000002,-0.001263,0.002711,-37.25,9.75,-25.68,3b
2019-07-15_142607:800,-0.273529,0.015747,-0.418915,-0.003389,-0.001263,0.0024059999999999997,-37.25,9.75,-25.68,3b
2019-07-15_142607:820,-0.273529,0.017792,-0.41995200000000005,-0.003023,-0.001202,0.00207,-36.869999,8.68,-25.68,3b
2019-07-15_142607:840,-0.27301,0.019806,-0.417908,-0.002443,-0.0011099999999999999,0.001979,-36.869999,8.68,-25.68,3b
2019-07-15_142607:860,-0.272491,0.021851,-0.418915,-0.0023510000000000002,-0.000897,0.002131,-37.25,9.0,-26.5,3b
2019-07-15_142607:880,-0.272003,0.022858,-0.416382,-0.002748,-0.001019,0.002009,-37.25,9.0,-26.5,3b
2019-07-15_142607:900,-0.26944,0.023895,-0.417908,-0.003023,-0.0007740000000000001,0.002467,-37.25,9.0,-26.5,3b
2019-07-15_142607:920,-0.270477,0.022858,-0.417908,-0.0036030000000000003,-0.001202,0.002742,-38.0,9.37,-26.059998999999998,3b
2019-07-15_142607:940,-0.270966,0.020844,-0.41842700000000005,-0.0036030000000000003,-0.001263,0.0031079999999999997,-38.0,9.37,-26.059998999999998,3b
2019-07-15_142607:960,-0.27301,0.019806,-0.418915,-0.003725,-0.001446,0.00323,-37.560001,9.75,-25.68,3b
2019-07-15_142607:980,-0.273529,0.019318000000000002,-0.416901,-0.0036030000000000003,-0.001263,0.0033520000000000004,-37.560001,9.75,-25.68,3b
2019-07-15_142608:000,-0.272491,0.018799,-0.417908,-0.0034799999999999996,-0.001263,0.0033520000000000004,-37.560001,9.75,-25.68,3b
2019-07-15_142608:020,-0.271484,0.019318000000000002,-0.41842700000000005,-0.0033280000000000002,-0.0008349999999999999,0.003169,-37.560001,8.68,-26.059998999999998,3b
2019-07-15_142608:040,-0.272003,0.019806,-0.417908,-0.003389,-0.001324,0.003169,-37.560001,8.68,-26.059998999999998,3b
2019-07-15_142608:060,-0.275055,0.018799,-0.418915,-0.00345,-0.001385,0.003016,-38.25,8.68,-27.68,3b
2019-07-15_142608:080,-0.272491,0.021332,-0.41586300000000004,-0.003145,-0.00108,0.0032909999999999997,-38.25,8.68,-27.68,3b
2019-07-15_142608:100,-0.268433,0.018799,-0.417908,-0.003664,-0.00108,0.003963,-38.25,8.68,-27.68,3b
2019-07-15_142608:120,-0.267426,0.01828,-0.416901,-0.003725,-0.001263,0.00265,-37.25,9.75,-26.870001000000002,3b
2019-07-15_142608:140,-0.26944,0.018799,-0.420959,-0.003786,-0.001598,0.001796,-37.25,9.75,-26.870001000000002,3b
2019-07-15_142608:160,-0.272003,0.018799,-0.420441,-0.003206,-0.001782,0.002955,-37.560001,8.68,-26.059998999999998,3b
2019-07-15_142608:180,-0.276581,0.01828,-0.421967,-0.002687,-0.001446,0.002742,-37.560001,8.68,-26.059998999999998,3b
2019-07-15_142608:200,-0.277069,0.020325,-0.421967,-0.002107,-0.0005610000000000001,0.002955,-37.560001,8.68,-26.059998999999998,3b
2019-07-15_142608:220,-0.269958,0.022858,-0.418915,-0.00229,-0.000164,0.003871,-37.560001,9.75,-25.25,3b
2019-07-15_142608:240,-0.268951,0.022369,-0.417389,-0.003145,-0.0005,0.0034130000000000002,-37.560001,9.75,-25.25,3b
2019-07-15_142608:260,-0.267914,0.022369,-0.417908,-0.0038770000000000002,-0.00108,0.003016,-38.0,9.37,-27.68,3b
2019-07-15_142608:280,-0.267426,0.021332,-0.416382,-0.00461,-0.001263,0.0035659999999999997,-38.0,9.37,-27.68,3b
2019-07-15_142608:300,-0.26944,0.017273,-0.41842700000000005,-0.004732,-0.001537,0.003016,-38.0,9.37,-27.68,3b
2019-07-15_142608:320,-0.270477,0.015228,-0.41943400000000003,-0.004243,-0.001995,0.002315,-38.0,9.75,-26.5,3b
2019-07-15_142608:340,-0.274536,0.015747,-0.420441,-0.00345,-0.001598,0.002376,-38.0,9.75,-26.5,3b
2019-07-15_142608:360,-0.27301,0.017792,-0.41995200000000005,-0.0029620000000000002,-0.001537,0.002589,-37.560001,9.75,-24.870001000000002,3b
2019-07-15_142608:380,-0.274017,0.019318000000000002,-0.420441,-0.002687,-0.001019,0.002315,-37.560001,9.75,-24.870001000000002,3b
2019-07-15_142608:400,-0.274017,0.021332,-0.41995200000000005,-0.002687,-0.0007440000000000001,0.0025280000000000003,-37.560001,9.75,-24.870001000000002,3b
2019-07-15_142608:420,-0.27301,0.022858,-0.418915,-0.0029010000000000004,-0.0005,0.00265,-38.25,9.37,-26.870001000000002,3b
2019-07-15_142608:440,-0.269958,0.021851,-0.417908,-0.0033280000000000002,-0.000683,0.002589,-38.25,9.37,-26.870001000000002,3b
2019-07-15_142608:460,-0.270966,0.019806,-0.417908,-0.003725,-0.000683,0.002955,-37.25,9.75,-27.68,3b
2019-07-15_142608:480,-0.269958,0.019318000000000002,-0.417908,-0.003999,-0.0008349999999999999,0.0028940000000000003,-37.25,9.75,-27.68,3b
2019-07-15_142608:500,-0.272003,0.017273,-0.41943400000000003,-0.003725,-0.001019,0.002711,-37.25,9.75,-27.68,3b
2019-07-15_142608:520,-0.272003,0.01828,-0.42401099999999997,-0.003206,-0.0007740000000000001,0.0027719999999999997,-37.560001,8.68,-26.059998999999998,3b
2019-07-15_142608:540,-0.279633,0.019806,-0.432648,-0.0029620000000000002,-0.00108,0.002376,-37.560001,8.68,-26.059998999999998,3b
2019-07-15_142608:560,-0.29742399999999997,0.019806,-0.43774399999999997,-0.002779,0.000172,0.002833,-38.0,9.0,-26.059998999999998,3b
2019-07-15_142608:580,-0.294373,0.019318000000000002,-0.434692,-0.0025039999999999997,0.0038950000000000005,0.0028940000000000003,-38.0,9.0,-26.059998999999998,3b
2019-07-15_142608:600,-0.28112800000000004,0.020844,-0.42858900000000005,-0.002229,0.006489,0.002711,-38.0,9.0,-26.059998999999998,3b
2019-07-15_142608:620,-0.27301,0.021851,-0.420959,-0.002382,0.008320000000000001,0.0028940000000000003,-38.0,9.0,-26.059998999999998,3b
2019-07-15_142608:640,-0.26944,0.021332,-0.40976,-0.002229,0.007923000000000001,0.0025280000000000003,-38.0,9.0,-26.059998999999998,3b
2019-07-15_142608:660,-0.269958,0.024384,-0.404175,-0.002687,0.0071909999999999995,0.002131,-37.25,9.37,-25.25,3b
2019-07-15_142608:680,-0.26944,0.023375999999999997,-0.398071,-0.003114,0.005604,0.002742,-37.25,9.37,-25.25,3b
2019-07-15_142608:700,-0.266388,0.021332,-0.399597,-0.003725,0.0042,0.001979,-37.25,9.37,-25.25,3b
2019-07-15_142608:720,-0.2659,0.021332,-0.40011599999999997,-0.003999,0.001911,0.001185,-38.0,8.68,-26.059998999999998,3b
2019-07-15_142608:740,-0.270477,0.020325,-0.402649,-0.0039380000000000005,0.000294,0.002315,-38.0,8.68,-26.059998999999998,3b
2019-07-15_142608:760,-0.278595,0.01828,-0.405212,-0.003664,-0.001141,0.002833,-38.0,8.25,-24.870001000000002,3b
2019-07-15_142608:780,-0.281647,0.018799,-0.406738,-0.0028399999999999996,-0.00108,0.002955,-38.0,8.25,-24.870001000000002,3b
2019-07-15_142608:800,-0.280121,0.019318000000000002,-0.409271,-0.0023510000000000002,-0.001263,0.00381,-38.0,8.25,-24.870001000000002,3b
2019-07-15_142608:820,-0.275055,0.021332,-0.409271,-0.002382,-0.001537,0.004024,-38.0,9.75,-24.5,3b
2019-07-15_142608:840,-0.274017,0.022858,-0.41232299999999994,-0.0028399999999999996,-0.001995,0.0036270000000000004,-38.0,9.75,-24.5,3b
2019-07-15_142608:860,-0.276581,0.022858,-0.41232299999999994,-0.0036030000000000003,-0.002728,0.00381,-38.0,9.0,-26.5,3b
2019-07-15_142608:880,-0.282166,0.019806,-0.412811,-0.00406,-0.003246,0.004024,-38.0,9.0,-26.5,3b
2019-07-15_142608:900,-0.282166,0.019318000000000002,-0.41586300000000004,-0.004518,-0.00285,0.0031079999999999997,-38.0,9.0,-26.5,3b
2019-07-15_142608:920,-0.282166,0.01828,-0.41485600000000006,-0.004182,-0.0023309999999999997,0.0032909999999999997,-38.0,9.37,-24.870001000000002,3b
2019-07-15_142608:940,-0.28064,0.017273,-0.41586300000000004,-0.003725,-0.0021780000000000002,0.0034130000000000002,-38.0,9.37,-24.870001000000002,3b
2019-07-15_142608:960,-0.28112800000000004,0.017792,-0.415375,-0.003389,-0.0014759999999999999,0.0031079999999999997,-38.25,9.37,-24.5,3b
2019-07-15_142608:980,-0.279633,0.019318000000000002,-0.41333000000000003,-0.003023,-0.001202,0.002955,-38.25,9.37,-24.5,3b
2019-07-15_142609:000,-0.279114,0.020325,-0.41384899999999997,-0.0025039999999999997,-0.001263,0.003016,-38.25,9.37,-24.5,3b
2019-07-15_142609:020,-0.280121,0.021332,-0.41333000000000003,-0.0029010000000000004,-0.001263,0.0027719999999999997,-38.68,9.75,-24.870001000000002,3b
2019-07-15_142609:040,-0.28064,0.021332,-0.412811,-0.003023,-0.001202,0.002955,-38.68,9.75,-24.870001000000002,3b
2019-07-15_142609:060,-0.279114,0.021332,-0.41333000000000003,-0.003206,-0.001263,0.0031079999999999997,-38.25,9.37,-27.0,3b
2019-07-15_142609:080,-0.279114,0.021332,-0.41232299999999994,-0.0034799999999999996,-0.001385,0.00323,-38.25,9.37,-27.0,3b
2019-07-15_142609:100,-0.279633,0.019806,-0.41232299999999994,-0.003786,-0.001537,0.003078,-38.25,9.37,-27.0,3b
2019-07-15_142609:120,-0.279633,0.01828,-0.411804,-0.0034799999999999996,-0.0021780000000000002,0.0031079999999999997,-37.560001,9.37,-26.059998999999998,3b
2019-07-15_142609:140,-0.279633,0.017273,-0.41232299999999994,-0.0033280000000000002,-0.001843,0.0028940000000000003,-37.560001,9.37,-26.059998999999998,3b
2019-07-15_142609:160,-0.278107,0.017273,-0.412811,-0.003145,-0.00172,0.002467,-38.25,9.0,-25.25,3b
2019-07-15_142609:180,-0.275055,0.01828,-0.411804,-0.002687,-0.001934,0.002589,-38.25,9.0,-25.25,3b
2019-07-15_142609:200,-0.274536,0.018799,-0.41485600000000006,-0.0026260000000000003,-0.0023309999999999997,0.002742,-38.25,9.0,-25.25,3b
2019-07-15_142609:220,-0.28064,0.018799,-0.41586300000000004,-0.002779,-0.002667,0.002315,-37.560001,8.68,-26.5,3b
2019-07-15_142609:240,-0.28064,0.021332,-0.416382,-0.002687,-0.0023309999999999997,0.00265,-37.560001,8.68,-26.5,3b
2019-07-15_142609:260,-0.279633,0.021332,-0.41485600000000006,-0.003114,-0.001934,0.00265,-38.0,9.75,-26.059998999999998,3b
2019-07-15_142609:280,-0.277069,0.021332,-0.41333000000000003,-0.00345,-0.0016589999999999999,0.001277,-38.0,9.75,-26.059998999999998,3b
2019-07-15_142609:300,-0.268433,0.022369,-0.41586300000000004,-0.0038770000000000002,-0.0016589999999999999,0.0012460000000000001,-38.0,9.75,-26.059998999999998,3b
2019-07-15_142609:320,-0.270477,0.018799,-0.417389,-0.003725,-0.0021780000000000002,0.0024059999999999997,-37.560001,9.37,-25.68,3b
2019-07-15_142609:340,-0.277588,0.016266,-0.417908,-0.003114,-0.002239,0.0025280000000000003,-37.560001,9.37,-25.68,3b
2019-07-15_142609:360,-0.279633,0.017273,-0.416382,-0.0025039999999999997,-0.002392,0.002589,-38.0,9.75,-25.25,3b
2019-07-15_142609:380,-0.276581,0.020325,-0.415375,-0.001771,-0.001537,0.0028940000000000003,-38.0,9.75,-25.25,3b
2019-07-15_142609:400,-0.276062,0.021851,-0.41586300000000004,-0.0017100000000000001,-0.001202,0.00265,-38.0,9.75,-25.25,3b
2019-07-15_142609:420,-0.273529,0.024902,-0.417389,-0.002046,-0.001537,0.002467,-37.560001,8.68,-25.68,3b
2019-07-15_142609:440,-0.275543,0.025908999999999998,-0.415375,-0.002687,-0.001263,0.0032909999999999997,-37.560001,8.68,-25.68,3b
2019-07-15_142609:460,-0.276062,0.024384,-0.416901,-0.0034799999999999996,-0.001385,0.003474,-37.560001,9.37,-26.059998999999998,3b
2019-07-15_142609:480,-0.275055,0.020844,-0.414337,-0.004182,-0.0016589999999999999,0.00323,-37.560001,9.37,-26.059998999999998,3b
2019-07-15_142609:500,-0.275055,0.019806,-0.417389,-0.00406,-0.0014759999999999999,0.0036880000000000003,-37.560001,9.37,-26.059998999999998,3b
2019-07-15_142609:520,-0.274017,0.016753999999999998,-0.416901,-0.0038469999999999997,-0.001782,0.004085,-37.560001,9.75,-26.5,3b
2019-07-15_142609:540,-0.276581,0.016753999999999998,-0.416382,-0.003542,-0.001873,0.004085,-37.560001,9.75,-26.5,3b
2019-07-15_142609:560,-0.276062,0.016753999999999998,-0.417908,-0.0028399999999999996,-0.001843,0.003901,-38.0,9.37,-27.68,3b
2019-07-15_142609:580,-0.276062,0.019318000000000002,-0.417389,-0.002687,-0.001537,0.0035659999999999997,-38.0,9.37,-27.68,3b
2019-07-15_142609:600,-0.274536,0.019806,-0.417389,-0.0029010000000000004,-0.001324,0.003474,-38.0,9.37,-27.68,3b
2019-07-15_142609:620,-0.274536,0.019318000000000002,-0.417908,-0.0032670000000000004,-0.0014759999999999999,0.0034130000000000002,-38.0,9.75,-25.25,3b
2019-07-15_142609:640,-0.273529,0.019318000000000002,-0.416382,-0.003725,-0.001446,0.0031079999999999997,-38.0,9.75,-25.25,3b
2019-07-15_142609:660,-0.273529,0.017792,-0.416382,-0.003725,-0.001324,0.002955,-37.560001,10.18,-24.870001000000002,3b
2019-07-15_142609:680,-0.273529,0.015747,-0.415375,-0.0036030000000000003,-0.001598,0.002955,-37.560001,10.18,-24.870001000000002,3b
2019-07-15_142609:700,-0.274536,0.017792,-0.41485600000000006,-0.0032670000000000004,-0.00172,0.0027719999999999997,-37.560001,10.18,-24.870001000000002,3b
2019-07-15_142609:720,-0.274536,0.01828,-0.417389,-0.0029620000000000002,-0.001934,0.002833,-36.869999,8.68,-25.68,3b
2019-07-15_142609:740,-0.272491,0.019318000000000002,-0.416382,-0.002687,-0.001598,0.002955,-36.869999,8.68,-25.68,3b
2019-07-15_142609:760,-0.275543,0.020325,-0.417908,-0.002779,-0.001782,0.002955,-38.0,9.37,-25.25,3b
2019-07-15_142609:780,-0.27301,0.021332,-0.41485600000000006,-0.0029620000000000002,-0.00172,0.003016,-38.0,9.37,-25.25,3b
2019-07-15_142609:800,-0.279633,0.019806,-0.41842700000000005,-0.0032670000000000004,-0.001873,0.0027719999999999997,-38.0,9.37,-25.25,3b
2019-07-15_142609:820,-0.275055,0.019806,-0.416382,-0.003664,-0.001843,0.0032909999999999997,-37.560001,9.75,-25.25,3b
2019-07-15_142609:840,-0.272491,0.01828,-0.41586300000000004,-0.00406,-0.0016589999999999999,0.003078,-37.560001,9.75,-25.25,3b
2019-07-15_142609:860,-0.270477,0.016753999999999998,-0.416901,-0.0039380000000000005,-0.0014759999999999999,0.0016129999999999999,-36.869999,9.75,-26.5,3b
2019-07-15_142609:880,-0.267426,0.018799,-0.416382,-0.0039380000000000005,-0.001782,0.001582,-36.869999,9.75,-26.5,3b
2019-07-15_142609:900,-0.270966,0.016753999999999998,-0.41943400000000003,-0.003114,-0.00227,0.00265,-36.869999,9.75,-26.5,3b
2019-07-15_142609:920,-0.275055,0.017273,-0.417908,-0.0025039999999999997,-0.002239,0.002376,-37.560001,9.0,-26.059998999999998,3b
2019-07-15_142609:940,-0.275055,0.020325,-0.41943400000000003,-0.0017100000000000001,-0.001995,0.00265,-37.560001,9.0,-26.059998999999998,3b
2019-07-15_142609:960,-0.274017,0.021332,-0.41995200000000005,-0.0018329999999999998,-0.001385,0.00323,-37.560001,9.0,-24.5,3b
2019-07-15_142609:980,-0.271484,0.021851,-0.418915,-0.002107,-0.001141,0.0028940000000000003,-37.560001,9.0,-24.5,3b
2019-07-15_142610:000,-0.270477,0.023375999999999997,-0.420441,-0.003023,-0.001324,0.00265,-37.560001,9.0,-24.5,3b
2019-07-15_142610:020,-0.272003,0.021332,-0.420441,-0.003725,-0.001202,0.0031079999999999997,-37.25,9.75,-26.5,3b
2019-07-15_142610:040,-0.275055,0.017792,-0.41943400000000003,-0.00406,-0.001202,0.003078,-37.25,9.75,-26.5,3b
2019-07-15_142610:060,-0.27301,0.017273,-0.418915,-0.003786,-0.0007440000000000001,0.002711,-37.560001,9.0,-26.870001000000002,3b
2019-07-15_142610:080,-0.270966,0.016753999999999998,-0.418915,-0.0034799999999999996,-0.0007740000000000001,0.002742,-37.560001,9.0,-26.870001000000002,3b
2019-07-15_142610:100,-0.270477,0.016266,-0.41943400000000003,-0.002565,-0.0006219999999999999,0.002833,-37.560001,9.0,-26.870001000000002,3b
2019-07-15_142610:120,-0.273529,0.019318000000000002,-0.418915,-0.002382,-0.0007740000000000001,0.002589,-37.25,10.18,-26.5,3b
2019-07-15_142610:140,-0.27301,0.020844,-0.417908,-0.002443,-0.0008349999999999999,0.002711,-37.25,10.18,-26.5,3b
2019-07-15_142610:160,-0.272491,0.021332,-0.417908,-0.0029010000000000004,-0.00034700000000000003,0.002711,-37.25,9.37,-26.870001000000002,3b
2019-07-15_142610:180,-0.272003,0.020325,-0.417389,-0.003084,-4.2e-05,0.00265,-37.25,9.37,-26.870001000000002,3b
2019-07-15_142610:200,-0.270477,0.019806,-0.417389,-0.0034799999999999996,-0.0005610000000000001,0.002742,-37.25,9.37,-26.870001000000002,3b
2019-07-15_142610:220,-0.270966,0.018799,-0.417389,-0.003542,-0.000897,0.00265,-37.25,9.37,-25.68,3b
2019-07-15_142610:240,-0.270966,0.01828,-0.417389,-0.0034799999999999996,-0.001019,0.0025280000000000003,-37.25,9.37,-25.68,3b
2019-07-15_142610:260,-0.273529,0.018799,-0.41586300000000004,-0.0033280000000000002,-0.001019,0.002742,-36.869999,9.37,-27.68,3b
2019-07-15_142610:280,-0.275055,0.01828,-0.417389,-0.0033280000000000002,-0.0011099999999999999,0.0027719999999999997,-36.869999,9.37,-27.68,3b
2019-07-15_142610:300,-0.27301,0.020844,-0.416901,-0.0028399999999999996,-0.0005610000000000001,0.003078,-36.869999,9.37,-27.68,3b
2019-07-15_142610:320,-0.270966,0.021332,-0.41842700000000005,-0.003084,-0.001019,0.00323,-38.0,9.37,-25.68,3b
2019-07-15_142610:340,-0.273529,0.020325,-0.41586300000000004,-0.0033280000000000002,-0.0011099999999999999,0.003169,-38.0,9.37,-25.68,3b
2019-07-15_142610:360,-0.271484,0.019318000000000002,-0.417389,-0.0036030000000000003,-0.001202,0.003169,-38.25,9.0,-26.059998999999998,3b
2019-07-15_142610:380,-0.271484,0.017792,-0.417908,-0.00345,-0.001446,0.003016,-38.25,9.0,-26.059998999999998,3b
2019-07-15_142610:400,-0.275543,0.017273,-0.417908,-0.0033280000000000002,-0.001537,0.003016,-38.25,9.0,-26.059998999999998,3b
2019-07-15_142610:420,-0.27301,0.019806,-0.417908,-0.003114,-0.001537,0.0036270000000000004,-37.560001,9.0,-25.68,3b
2019-07-15_142610:440,-0.273529,0.018799,-0.417389,-0.0034799999999999996,-0.001263,0.003016,-37.560001,9.0,-25.68,3b
2019-07-15_142610:460,-0.273529,0.017792,-0.41842700000000005,-0.003542,-0.001598,0.001674,-37.560001,9.37,-23.68,3b
2019-07-15_142610:480,-0.270477,0.019318000000000002,-0.420959,-0.003542,-0.001141,0.002254,-37.560001,9.37,-23.68,3b
2019-07-15_142610:500,-0.26944,0.017273,-0.420441,-0.003206,-0.001202,0.002955,-37.560001,9.37,-23.68,3b
2019-07-15_142610:520,-0.274017,0.016266,-0.41943400000000003,-0.0026260000000000003,-0.001446,0.002589,-37.25,9.75,-25.68,3b
2019-07-15_142610:540,-0.273529,0.020325,-0.418915,-0.002168,-0.0007740000000000001,0.002833,-37.25,9.75,-25.68,3b
2019-07-15_142610:560,-0.270966,0.021332,-0.41943400000000003,-0.00229,-0.0008349999999999999,0.00323,-37.560001,9.0,-25.68,3b
2019-07-15_142610:580,-0.268433,0.022369,-0.41943400000000003,-0.002779,-0.0008349999999999999,0.003078,-37.560001,9.0,-25.68,3b
2019-07-15_142610:600,-0.270966,0.022858,-0.418915,-0.0038469999999999997,-0.000958,0.0035659999999999997,-37.560001,9.0,-25.68,3b
2019-07-15_142610:620,-0.27301,0.021332,-0.41995200000000005,-0.004121,-0.00108,0.0036880000000000003,-37.25,9.75,-26.5,3b
2019-07-15_142610:640,-0.273529,0.016753999999999998,-0.41995200000000005,-0.004274,-0.000897,0.003078,-37.25,9.75,-26.5,3b
2019-07-15_142610:660,-0.272003,0.016266,-0.41995200000000005,-0.0036030000000000003,-0.0006219999999999999,0.003016,-37.25,9.37,-27.0,3b
2019-07-15_142610:680,-0.273529,0.015747,-0.41842700000000005,-0.003084,-0.0006219999999999999,0.00323,-37.25,9.37,-27.0,3b
2019-07-15_142610:700,-0.272003,0.016266,-0.417908,-0.002565,-0.0007440000000000001,0.002833,-37.25,9.37,-27.0,3b
2019-07-15_142610:720,-0.27301,0.01828,-0.41842700000000005,-0.0026260000000000003,-0.0006219999999999999,0.002833,-38.0,9.37,-25.68,3b
2019-07-15_142610:740,-0.272491,0.019318000000000002,-0.417389,-0.002779,-0.0005610000000000001,0.003016,-38.0,9.37,-25.68,3b
2019-07-15_142610:760,-0.272003,0.020844,-0.418915,-0.003084,-0.0007740000000000001,0.002833,-38.0,9.37,-26.5,3b
2019-07-15_142610:780,-0.270477,0.020325,-0.416901,-0.003542,-0.0008349999999999999,0.002742,-38.0,9.37,-26.5,3b
2019-07-15_142610:800,-0.270966,0.019318000000000002,-0.416901,-0.0038770000000000002,-0.00108,0.002467,-38.0,9.37,-26.5,3b
2019-07-15_142610:820,-0.274536,0.016753999999999998,-0.41842700000000005,-0.0032670000000000004,-0.0005,0.002315,-37.25,9.0,-25.25,3b
2019-07-15_142610:840,-0.272003,0.016753999999999998,-0.416901,-0.003114,-0.0007740000000000001,0.002254,-37.25,9.0,-25.25,3b
2019-07-15_142610:860,-0.27301,0.017273,-0.417908,-0.0029010000000000004,-0.000958,0.002376,-37.560001,9.75,-26.870001000000002,3b
2019-07-15_142610:880,-0.273529,0.01828,-0.417389,-0.002565,-0.0011099999999999999,0.003016,-37.560001,9.75,-26.870001000000002,3b
2019-07-15_142610:900,-0.274017,0.019318000000000002,-0.417908,-0.002748,-0.0011099999999999999,0.003474,-37.560001,9.75,-26.870001000000002,3b
2019-07-15_142610:920,-0.273529,0.020325,-0.416901,-0.002779,-0.001019,0.0036880000000000003,-37.560001,9.75,-26.059998999999998,3b
2019-07-15_142610:940,-0.272003,0.020325,-0.41586300000000004,-0.003664,-0.0011099999999999999,0.003169,-37.560001,9.75,-26.059998999999998,3b
2019-07-15_142610:960,-0.272003,0.018799,-0.416901,-0.003725,-0.001141,0.002833,-38.0,9.75,-26.870001000000002,3b
2019-07-15_142610:980,-0.268951,0.01828,-0.417389,-0.0038469999999999997,-0.00172,0.002376,-38.0,9.75,-26.870001000000002,3b
2019-07-15_142611:000,-0.26944,0.015228,-0.417389,-0.003786,-0.001995,0.00207,-38.0,9.75,-26.870001000000002,3b
2019-07-15_142611:020,-0.275543,0.014221000000000001,-0.41995200000000005,-0.003114,-0.00172,0.00146,-37.560001,9.75,-25.25,3b
2019-07-15_142611:040,-0.272491,0.018799,-0.418915,-0.002382,-0.001598,0.001857,-37.560001,9.75,-25.25,3b
2019-07-15_142611:060,-0.269958,0.021332,-0.41943400000000003,-0.00229,-0.0011099999999999999,0.0016129999999999999,-38.25,9.0,-25.68,3b
2019-07-15_142611:080,-0.272003,0.022858,-0.41995200000000005,-0.0026260000000000003,-0.001141,0.00027,-38.25,9.0,-25.68,3b
2019-07-15_142611:100,-0.266907,0.024902,-0.421967,-0.0032670000000000004,-0.001324,0.001185,-38.25,9.0,-25.68,3b
2019-07-15_142611:120,-0.271484,0.021851,-0.421967,-0.0033280000000000002,-0.001385,0.0017350000000000002,-37.560001,9.37,-26.5,3b
2019-07-15_142611:140,-0.277588,0.020325,-0.41943400000000003,-0.003023,-0.00037799999999999997,0.002254,-37.560001,9.37,-26.5,3b
2019-07-15_142611:160,-0.274536,0.019806,-0.41995200000000005,-0.002748,-4.2e-05,0.002711,-38.0,8.68,-26.5,3b
2019-07-15_142611:180,-0.265381,0.021332,-0.417908,-0.002687,-0.000103,0.002742,-38.0,8.68,-26.5,3b
2019-07-15_142611:200,-0.26944,0.021332,-0.417908,-0.002565,-0.00034700000000000003,0.00265,-38.0,8.68,-26.5,3b
2019-07-15_142611:220,-0.26944,0.021332,-0.418915,-0.0034799999999999996,-0.0007440000000000001,0.002589,-37.560001,8.68,-26.5,3b
2019-07-15_142611:240,-0.273529,0.020844,-0.41943400000000003,-0.003542,-0.0008349999999999999,0.002711,-37.560001,8.68,-26.5,3b
2019-07-15_142611:260,-0.274536,0.019318000000000002,-0.418915,-0.003664,-0.00034700000000000003,0.003078,-37.560001,8.68,-26.5,3b
2019-07-15_142611:280,-0.275055,0.017792,-0.418915,-0.0038469999999999997,-0.000439,0.0024059999999999997,-38.25,8.68,-26.5,3b
2019-07-15_142611:300,-0.273529,0.017273,-0.41995200000000005,-0.003114,0.000172,0.002376,-38.25,8.68,-26.5,3b
2019-07-15_142611:320,-0.271484,0.01828,-0.418915,-0.002565,-0.000164,0.002711,-37.560001,9.0,-26.5,3b
2019-07-15_142611:340,-0.27301,0.020325,-0.417908,-0.002565,-4.2e-05,0.00265,-37.560001,9.0,-26.5,3b
2019-07-15_142611:360,-0.274017,0.021851,-0.416382,-0.0023510000000000002,1.9e-05,0.002315,-38.0,9.37,-26.059998999999998,3b
2019-07-15_142611:380,-0.273529,0.022858,-0.416382,-0.002779,-0.000225,0.002376,-38.0,9.37,-26.059998999999998,3b
2019-07-15_142611:400,-0.272491,0.021851,-0.41485600000000006,-0.0032670000000000004,-0.00037799999999999997,0.00265,-38.0,9.37,-26.059998999999998,3b
2019-07-15_142611:420,-0.269958,0.022369,-0.416382,-0.003664,-0.000286,0.0025280000000000003,-37.560001,9.0,-25.68,3b
2019-07-15_142611:440,-0.270477,0.021851,-0.416382,-0.003999,-0.000958,0.002711,-37.560001,9.0,-25.68,3b
2019-07-15_142611:460,-0.27301,0.020325,-0.41842700000000005,-0.0039380000000000005,-0.001446,0.0027719999999999997,-37.560001,9.0,-25.68,3b
2019-07-15_142611:480,-0.275055,0.019806,-0.417389,-0.003542,-0.001141,0.0028940000000000003,-38.0,9.37,-26.059998999999998,3b
2019-07-15_142611:500,-0.274536,0.020844,-0.417389,-0.003389,-0.001019,0.002955,-38.0,9.37,-26.059998999999998,3b
2019-07-15_142611:520,-0.274536,0.021332,-0.41842700000000005,-0.003023,-0.0006219999999999999,0.002955,-37.560001,9.37,-24.870001000000002,3b
2019-07-15_142611:540,-0.273529,0.021332,-0.416901,-0.003023,-0.0006219999999999999,0.003016,-37.560001,9.37,-24.870001000000002,3b
2019-07-15_142611:560,-0.274536,0.022369,-0.417389,-0.0032670000000000004,-0.0005,0.003016,-37.560001,9.37,-24.870001000000002,3b
2019-07-15_142611:580,-0.274536,0.020325,-0.417389,-0.003145,-0.000225,0.003016,-37.560001,8.68,-26.059998999999998,3b
2019-07-15_142611:600,-0.273529,0.021332,-0.416901,-0.0032670000000000004,-0.00037799999999999997,0.0033520000000000004,-37.560001,8.68,-26.059998999999998,3b
2019-07-15_142611:620,-0.270966,0.019806,-0.416382,-0.003145,-0.0005,0.00323,-38.0,8.68,-27.25,3b
2019-07-15_142611:640,-0.273529,0.019806,-0.41586300000000004,-0.003084,-0.000683,0.003169,-38.0,8.68,-27.25,3b
2019-07-15_142611:660,-0.273529,0.019318000000000002,-0.41485600000000006,-0.003023,-0.00037799999999999997,0.003474,-38.0,8.68,-27.25,3b
2019-07-15_142611:680,-0.276581,0.020325,-0.41586300000000004,-0.0029010000000000004,-0.0006219999999999999,0.0028940000000000003,-37.560001,9.37,-24.870001000000002,3b
2019-07-15_142611:700,-0.273529,0.021851,-0.41586300000000004,-0.003023,-0.000683,0.0035659999999999997,-37.560001,9.37,-24.870001000000002,3b
2019-07-15_142611:720,-0.272491,0.020844,-0.415375,-0.003145,-0.000958,0.00381,-37.560001,8.68,-25.25,3b
2019-07-15_142611:740,-0.274536,0.019318000000000002,-0.414337,-0.003664,-0.001141,0.00207,-37.560001,8.68,-25.25,3b
2019-07-15_142611:760,-0.27301,0.021332,-0.416901,-0.003542,-0.00108,0.002315,-37.560001,8.68,-25.25,3b
2019-07-15_142611:780,-0.275543,0.01828,-0.416901,-0.0033280000000000002,-0.001324,0.0034130000000000002,-39.060001,8.68,-26.5,3b
2019-07-15_142611:800,-0.278107,0.017273,-0.416382,-0.0029620000000000002,-0.001141,0.003016,-39.060001,8.68,-26.5,3b
2019-07-15_142611:820,-0.277069,0.019318000000000002,-0.415375,-0.002046,-0.000683,0.0033520000000000004,-37.25,9.0,-25.68,3b
2019-07-15_142611:840,-0.273529,0.021332,-0.41485600000000006,-0.001894,-0.0005610000000000001,0.0036880000000000003,-37.25,9.0,-25.68,3b
2019-07-15_142611:860,-0.270966,0.022369,-0.41586300000000004,-0.002382,-0.00108,0.003016,-37.25,9.0,-25.68,3b
2019-07-15_142611:880,-0.273529,0.022858,-0.416901,-0.0029620000000000002,-0.001385,0.002955,-37.560001,9.37,-25.68,3b
2019-07-15_142611:900,-0.275543,0.022858,-0.416382,-0.003664,-0.0014759999999999999,0.003505,-37.560001,9.37,-25.68,3b
2019-07-15_142611:920,-0.278595,0.018799,-0.41586300000000004,-0.003999,-0.00172,0.003749,-38.25,8.68,-26.059998999999998,3b
2019-07-15_142611:940,-0.274536,0.017792,-0.41485600000000006,-0.003786,-0.001263,0.0031079999999999997,-38.25,8.68,-26.059998999999998,3b
2019-07-15_142611:960,-0.272003,0.01828,-0.416382,-0.0034799999999999996,-0.001324,0.0031079999999999997,-38.25,8.68,-26.059998999999998,3b
2019-07-15_142611:980,-0.270477,0.017273,-0.416382,-0.003114,-0.00172,0.0033520000000000004,-37.25,9.75,-25.68,3b
2019-07-15_142612:000,-0.270966,0.019318000000000002,-0.416901,-0.0029010000000000004,-0.001995,0.003016,-37.25,9.75,-25.68,3b
2019-07-15_142612:020,-0.274536,0.019318000000000002,-0.417389,-0.002687,-0.0023309999999999997,0.002711,-37.560001,9.37,-26.870001000000002,3b
2019-07-15_142612:040,-0.276062,0.020325,-0.416901,-0.0029010000000000004,-0.002392,0.003078,-37.560001,9.37,-26.870001000000002,3b
2019-07-15_142612:060,-0.276062,0.021332,-0.417389,-0.003206,-0.002117,0.0028940000000000003,-37.560001,9.37,-26.870001000000002,3b
2019-07-15_142612:080,-0.270966,0.020844,-0.415375,-0.0033280000000000002,-0.00172,0.0027719999999999997,-38.0,9.0,-25.25,3b
2019-07-15_142612:100,-0.267426,0.021332,-0.416382,-0.003542,-0.0021780000000000002,0.0028940000000000003,-38.0,9.0,-25.25,3b
2019-07-15_142612:120,-0.267426,0.019318000000000002,-0.417908,-0.0038770000000000002,-0.00285,0.002833,-39.060001,9.75,-26.5,3b
2019-07-15_142612:140,-0.268433,0.020325,-0.41842700000000005,-0.0036030000000000003,-0.002911,0.002955,-39.060001,9.75,-26.5,3b
2019-07-15_142612:160,-0.270477,0.019318000000000002,-0.41995200000000005,-0.003206,-0.002972,0.002955,-39.060001,9.75,-26.5,3b
2019-07-15_142612:180,-0.272491,0.019806,-0.42248500000000005,-0.003023,-0.00285,0.003078,-37.560001,10.18,-27.0,3b
2019-07-15_142612:200,-0.273529,0.021332,-0.423492,-0.0029620000000000002,-0.002605,0.0033520000000000004,-37.560001,10.18,-27.0,3b
2019-07-15_142612:220,-0.273529,0.020844,-0.42401099999999997,-0.002779,-0.00172,0.0034130000000000002,-37.25,8.68,-26.5,3b
2019-07-15_142612:240,-0.274536,0.020844,-0.42147799999999996,-0.003145,-0.0011099999999999999,0.0033520000000000004,-37.25,8.68,-26.5,3b
2019-07-15_142612:260,-0.272491,0.019806,-0.42248500000000005,-0.0032670000000000004,-0.0007440000000000001,0.0036270000000000004,-37.25,8.68,-26.5,3b
2019-07-15_142612:280,-0.272003,0.019806,-0.420959,-0.0034799999999999996,-0.0005610000000000001,0.0036880000000000003,-37.560001,9.75,-25.68,3b
2019-07-15_142612:300,-0.267914,0.019318000000000002,-0.41943400000000003,-0.0034799999999999996,0.000172,0.0036270000000000004,-37.560001,9.75,-25.68,3b
2019-07-15_142612:320,-0.268433,0.017792,-0.41842700000000005,-0.0036030000000000003,-0.00034700000000000003,0.0036270000000000004,-37.25,9.75,-27.25,3b
2019-07-15_142612:340,-0.271484,0.017273,-0.416901,-0.003725,-0.0006219999999999999,0.0031079999999999997,-37.25,9.75,-27.25,3b
2019-07-15_142612:360,-0.271484,0.017792,-0.416901,-0.003542,-0.0008349999999999999,0.0034130000000000002,-37.25,9.75,-27.25,3b
2019-07-15_142612:380,-0.269958,0.017273,-0.41842700000000005,-0.003542,-0.0007740000000000001,0.003749,-38.0,9.37,-26.059998999999998,3b
2019-07-15_142612:400,-0.272003,0.017273,-0.418915,-0.0036030000000000003,-0.001019,0.002254,-38.0,9.37,-26.059998999999998,3b
2019-07-15_142612:420,-0.267914,0.01828,-0.420959,-0.0038469999999999997,-0.001019,0.0017350000000000002,-37.560001,9.75,-26.5,3b
2019-07-15_142612:440,-0.269958,0.016753999999999998,-0.41995200000000005,-0.003542,-0.001446,0.002711,-37.560001,9.75,-26.5,3b
2019-07-15_142612:460,-0.273529,0.015747,-0.420959,-0.0032670000000000004,-0.001446,0.0025280000000000003,-37.560001,9.75,-26.5,3b
2019-07-15_142612:480,-0.274536,0.01828,-0.420959,-0.002687,-0.00108,0.002315,-37.560001,9.75,-25.68,3b
2019-07-15_142612:500,-0.269958,0.019806,-0.41995200000000005,-0.0023510000000000002,-0.00037799999999999997,0.002833,-37.560001,9.75,-25.68,3b
2019-07-15_142612:520,-0.26944,0.020844,-0.41995200000000005,-0.00229,-0.000286,0.0027719999999999997,-37.560001,9.75,-27.0,3b
2019-07-15_142612:540,-0.268433,0.022369,-0.417908,-0.0028399999999999996,-0.0006219999999999999,0.002376,-37.560001,9.75,-27.0,3b
2019-07-15_142612:560,-0.268433,0.022858,-0.418915,-0.003725,-0.0006219999999999999,0.002711,-37.560001,9.75,-27.0,3b
2019-07-15_142612:580,-0.269958,0.020325,-0.41842700000000005,-0.004121,-0.000897,0.00323,-38.0,9.75,-26.870001000000002,3b
2019-07-15_142612:600,-0.27301,0.016753999999999998,-0.417908,-0.004518,-0.00108,0.0027719999999999997,-38.0,9.75,-26.870001000000002,3b
2019-07-15_142612:620,-0.270966,0.015747,-0.420959,-0.003999,-0.0008349999999999999,0.0025280000000000003,-37.560001,9.0,-26.5,3b
2019-07-15_142612:640,-0.272003,0.015747,-0.417908,-0.0034799999999999996,-0.0008349999999999999,0.002711,-37.560001,9.0,-26.5,3b
2019-07-15_142612:660,-0.273529,0.016266,-0.420959,-0.0029010000000000004,-0.000958,0.0024059999999999997,-37.560001,9.0,-26.5,3b
2019-07-15_142612:680,-0.273529,0.019806,-0.418915,-0.0025039999999999997,-0.0005,0.002315,-37.25,8.68,-25.25,3b
2019-07-15_142612:700,-0.273529,0.020325,-0.41842700000000005,-0.0026260000000000003,-0.00037799999999999997,0.002254,-37.25,8.68,-25.25,3b
2019-07-15_142612:720,-0.270966,0.021332,-0.416901,-0.0029010000000000004,-0.000164,0.0024059999999999997,-36.869999,9.75,-26.059998999999998,3b
2019-07-15_142612:740,-0.26944,0.021851,-0.41586300000000004,-0.003084,-0.00037799999999999997,0.002376,-36.869999,9.75,-26.059998999999998,3b
2019-07-15_142612:760,-0.270477,0.020844,-0.417389,-0.0034799999999999996,-0.000897,0.002467,-36.869999,9.75,-26.059998999999998,3b
2019-07-15_142612:780,-0.270477,0.019806,-0.41586300000000004,-0.003725,-0.00108,0.0025280000000000003,-37.25,9.37,-25.68,3b
2019-07-15_142612:800,-0.270966,0.019318000000000002,-0.417389,-0.0034799999999999996,-0.001202,0.002711,-37.25,9.37,-25.68,3b
2019-07-15_142612:820,-0.271484,0.019318000000000002,-0.41943400000000003,-0.003206,-0.0014759999999999999,0.003016,-37.560001,8.25,-26.870001000000002,3b
2019-07-15_142612:840,-0.272491,0.020325,-0.417908,-0.0028399999999999996,-0.001537,0.0031079999999999997,-37.560001,8.25,-26.870001000000002,3b
2019-07-15_142612:860,-0.274536,0.019806,-0.418915,-0.002748,-0.001537,0.00323,-37.560001,8.25,-26.870001000000002,3b
2019-07-15_142612:880,-0.275543,0.020844,-0.420959,-0.002779,-0.001141,0.00323,-37.560001,9.37,-25.25,3b
2019-07-15_142612:900,-0.271484,0.021332,-0.417908,-0.003084,-0.0007440000000000001,0.003474,-37.560001,9.37,-25.25,3b
2019-07-15_142612:920,-0.269958,0.020325,-0.417908,-0.003206,-0.0006219999999999999,0.00323,-38.0,8.25,-26.870001000000002,3b
2019-07-15_142612:940,-0.270477,0.018799,-0.417389,-0.00345,-0.0005610000000000001,0.002955,-38.0,8.25,-26.870001000000002,3b
2019-07-15_142612:960,-0.270966,0.016753999999999998,-0.41842700000000005,-0.0032670000000000004,-0.0011099999999999999,0.0031079999999999997,-38.0,8.25,-26.870001000000002,3b
2019-07-15_142612:980,-0.275543,0.01828,-0.417389,-0.003114,-0.001141,0.0031079999999999997,-37.560001,9.37,-26.5,3b
2019-07-15_142613:000,-0.271484,0.020844,-0.41842700000000005,-0.002779,-0.000897,0.003078,-37.560001,9.37,-26.5,3b
2019-07-15_142613:020,-0.272491,0.020844,-0.417389,-0.0029010000000000004,-0.0008349999999999999,0.0035659999999999997,-38.25,9.75,-26.870001000000002,3b
2019-07-15_142613:040,-0.271484,0.020325,-0.416901,-0.003023,-0.000958,0.002955,-38.25,9.75,-26.870001000000002,3b
2019-07-15_142613:060,-0.270477,0.020325,-0.41943400000000003,-0.003542,-0.001202,0.002315,-38.25,9.75,-26.870001000000002,3b
2019-07-15_142613:080,-0.267914,0.019806,-0.41943400000000003,-0.00345,-0.0014759999999999999,0.0034130000000000002,-37.25,9.0,-25.25,3b
2019-07-15_142613:100,-0.275055,0.016266,-0.41842700000000005,-0.003114,-0.001446,0.0033520000000000004,-37.25,9.0,-25.25,3b
2019-07-15_142613:120,-0.274536,0.016266,-0.41943400000000003,-0.002565,-0.001141,0.0034130000000000002,-37.560001,9.37,-26.870001000000002,3b
2019-07-15_142613:140,-0.271484,0.020325,-0.418915,-0.002107,-0.0007440000000000001,0.003871,-37.560001,9.37,-26.870001000000002,3b
2019-07-15_142613:160,-0.267914,0.020844,-0.418915,-0.002382,-0.0006219999999999999,0.003963,-37.560001,9.37,-26.870001000000002,3b
2019-07-15_142613:180,-0.267914,0.020325,-0.41943400000000003,-0.0029620000000000002,-0.001263,0.0032909999999999997,-37.560001,9.75,-26.870001000000002,3b
2019-07-15_142613:200,-0.268433,0.021332,-0.41995200000000005,-0.003664,-0.001141,0.003474,-37.560001,9.75,-26.870001000000002,3b
2019-07-15_142613:220,-0.273529,0.019318000000000002,-0.41995200000000005,-0.004182,-0.001324,0.003963,-37.560001,9.0,-24.870001000000002,3b
2019-07-15_142613:240,-0.273529,0.014740000000000001,-0.420959,-0.004182,-0.0007740000000000001,0.0034130000000000002,-37.560001,9.0,-24.870001000000002,3b
2019-07-15_142613:260,-0.272491,0.015228,-0.42147799999999996,-0.003725,-0.0006219999999999999,0.0028940000000000003,-37.560001,9.0,-24.870001000000002,3b
2019-07-15_142613:280,-0.271484,0.015228,-0.41995200000000005,-0.003206,-0.0005,0.0032909999999999997,-37.25,9.37,-26.059998999999998,3b
2019-07-15_142613:300,-0.272491,0.014740000000000001,-0.41943400000000003,-0.002565,-0.0006219999999999999,0.002711,-37.25,9.37,-26.059998999999998,3b
2019-07-15_142613:320,-0.272003,0.01828,-0.416901,-0.002443,-0.000103,0.002376,-38.0,9.75,-25.68,3b
2019-07-15_142613:340,-0.270966,0.020325,-0.416901,-0.002443,-0.000286,0.0024059999999999997,-38.0,9.75,-25.68,3b
2019-07-15_142613:360,-0.267914,0.021851,-0.41586300000000004,-0.003023,-0.0007440000000000001,0.0025280000000000003,-38.0,9.75,-25.68,3b
2019-07-15_142613:380,-0.267914,0.021332,-0.416901,-0.0032670000000000004,-0.001202,0.003016,-36.869999,9.75,-26.059998999999998,3b
2019-07-15_142613:400,-0.268433,0.020844,-0.418915,-0.0034799999999999996,-0.001782,0.003016,-36.869999,9.75,-26.059998999999998,3b
2019-07-15_142613:420,-0.27301,0.01828,-0.41943400000000003,-0.0038469999999999997,-0.001995,0.003016,-37.560001,9.0,-26.059998999999998,3b
2019-07-15_142613:440,-0.273529,0.017792,-0.420959,-0.003725,-0.0014759999999999999,0.003078,-37.560001,9.0,-26.059998999999998,3b
2019-07-15_142613:460,-0.275543,0.016753999999999998,-0.42147799999999996,-0.0036030000000000003,-0.001202,0.003078,-37.560001,9.0,-26.059998999999998,3b
2019-07-15_142613:480,-0.275055,0.017792,-0.420959,-0.003145,-0.0007440000000000001,0.003016,-37.25,9.37,-27.0,3b
2019-07-15_142613:500,-0.272491,0.01828,-0.418915,-0.0032670000000000004,-0.000439,0.003016,-37.25,9.37,-27.0,3b
2019-07-15_142613:520,-0.268951,0.01828,-0.416901,-0.003023,-0.0005,0.0027719999999999997,-38.25,8.68,-25.68,3b
2019-07-15_142613:540,-0.268951,0.01828,-0.416382,-0.003114,-0.0008349999999999999,0.002742,-38.25,8.68,-25.68,3b
2019-07-15_142613:560,-0.270966,0.017273,-0.416901,-0.003206,-0.0011099999999999999,0.002467,-38.25,8.68,-25.68,3b
2019-07-15_142613:580,-0.270477,0.017792,-0.416382,-0.0032670000000000004,-0.001385,0.00207,-37.25,9.37,-26.059998999999998,3b
2019-07-15_142613:600,-0.270477,0.018799,-0.417908,-0.003206,-0.0014759999999999999,0.001857,-37.25,9.37,-26.059998999999998,3b
2019-07-15_142613:620,-0.26944,0.019806,-0.418915,-0.003206,-0.0016589999999999999,0.001979,-38.0,9.75,-26.5,3b
2019-07-15_142613:640,-0.268951,0.019806,-0.41943400000000003,-0.0029010000000000004,-0.001598,0.002315,-38.0,9.75,-26.5,3b
2019-07-15_142613:660,-0.276581,0.019318000000000002,-0.42147799999999996,-0.003084,-0.001873,0.0021920000000000004,-38.0,9.75,-26.5,3b
2019-07-15_142613:680,-0.275055,0.022369,-0.420959,-0.0032670000000000004,-0.001598,0.0027719999999999997,-36.869999,9.37,-26.059998999999998,3b
2019-07-15_142613:700,-0.271484,0.020844,-0.41995200000000005,-0.003145,-0.001019,0.003016,-36.869999,9.37,-26.059998999999998,3b
2019-07-15_142613:720,-0.272003,0.019806,-0.420441,-0.0036030000000000003,-0.0008349999999999999,0.0017350000000000002,-37.560001,9.0,-26.059998999999998,3b
2019-07-15_142613:740,-0.267914,0.020844,-0.418915,-0.0038469999999999997,-0.0005610000000000001,0.001521,-37.560001,9.0,-26.059998999999998,3b
2019-07-15_142613:760,-0.267914,0.019318000000000002,-0.41943400000000003,-0.003389,-0.000897,0.002589,-37.560001,9.0,-26.059998999999998,3b
2019-07-15_142613:780,-0.272003,0.01828,-0.417908,-0.003145,-0.0007740000000000001,0.00265,-37.25,9.75,-26.059998999999998,3b
2019-07-15_142613:800,-0.273529,0.01828,-0.417908,-0.002443,-0.0006219999999999999,0.002742,-37.25,9.75,-26.059998999999998,3b
2019-07-15_142613:820,-0.271484,0.021851,-0.41586300000000004,-0.0018329999999999998,-0.00037799999999999997,0.00323,-37.25,9.0,-25.68,3b
2019-07-15_142613:840,-0.265381,0.023375999999999997,-0.41586300000000004,-0.002229,-0.000439,0.0034130000000000002,-37.25,9.0,-25.68,3b
2019-07-15_142613:860,-0.2659,0.024902,-0.416901,-0.003084,-0.001324,0.002955,-37.25,9.0,-25.68,3b
2019-07-15_142613:880,-0.267914,0.023895,-0.41943400000000003,-0.0039380000000000005,-0.001934,0.00323,-37.560001,9.0,-26.059998999999998,3b
2019-07-15_142613:900,-0.271484,0.021332,-0.41943400000000003,-0.00461,-0.00227,0.003871,-37.560001,9.0,-26.059998999999998,3b
2019-07-15_142613:920,-0.274017,0.017273,-0.42248500000000005,-0.004457,-0.0020559999999999997,0.003505,-37.25,8.68,-26.059998999999998,3b
2019-07-15_142613:940,-0.274017,0.016753999999999998,-0.420959,-0.004243,-0.0014759999999999999,0.002955,-37.25,8.68,-26.059998999999998,3b
2019-07-15_142613:960,-0.273529,0.017792,-0.423004,-0.0034799999999999996,-0.0007740000000000001,0.0033520000000000004,-37.25,8.68,-26.059998999999998,3b
2019-07-15_142613:980,-0.272003,0.018799,-0.41995200000000005,-0.0029010000000000004,-0.000439,0.002955,-36.5,10.18,-26.059998999999998,3b
2019-07-15_142614:000,-0.27301,0.019806,-0.418915,-0.0029620000000000002,-0.0005,0.002833,-36.5,10.18,-26.059998999999998,3b
2019-07-15_142614:020,-0.270966,0.021332,-0.417908,-0.003206,-0.00034700000000000003,0.002955,-37.560001,9.37,-26.059998999999998,3b
2019-07-15_142614:040,-0.268433,0.022369,-0.417908,-0.00345,-0.000103,0.0028940000000000003,-37.560001,9.37,-26.059998999999998,3b
2019-07-15_142614:060,-0.268433,0.021332,-0.416382,-0.003999,-0.0007740000000000001,0.00265,-37.560001,9.37,-26.059998999999998,3b
2019-07-15_142614:080,-0.268433,0.020325,-0.416901,-0.004182,-0.000958,0.0024059999999999997,-37.560001,9.37,-25.25,3b
2019-07-15_142614:100,-0.272003,0.017273,-0.418915,-0.004243,-0.001324,0.002254,-37.560001,9.37,-25.25,3b
2019-07-15_142614:120,-0.271484,0.017792,-0.41943400000000003,-0.003664,-0.001202,0.0024059999999999997,-36.869999,9.37,-25.68,3b
2019-07-15_142614:140,-0.273529,0.016753999999999998,-0.420441,-0.003023,-0.001019,0.0025280000000000003,-36.869999,9.37,-25.68,3b
2019-07-15_142614:160,-0.272003,0.020844,-0.41995200000000005,-0.002687,-0.000958,0.001979,-36.869999,9.37,-25.68,3b
2019-07-15_142614:180,-0.274017,0.020325,-0.41943400000000003,-0.002168,-0.0005610000000000001,0.00207,-36.869999,9.0,-26.870001000000002,3b
2019-07-15_142614:200,-0.273529,0.023375999999999997,-0.41995200000000005,-0.002229,-0.00034700000000000003,0.001979,-36.869999,9.0,-26.870001000000002,3b
2019-07-15_142614:220,-0.272003,0.024902,-0.41842700000000005,-0.002687,-0.000286,0.002254,-42.369999,9.37,-25.68,3b
2019-07-15_142614:240,-0.26944,0.024902,-0.417389,-0.003206,-0.00034700000000000003,0.0027719999999999997,-42.369999,9.37,-25.68,3b
2019-07-15_142614:260,-0.268951,0.023375999999999997,-0.417908,-0.003786,-0.00034700000000000003,0.002955,-42.369999,9.37,-25.68,3b
2019-07-15_142614:280,-0.269958,0.019318000000000002,-0.41842700000000005,-0.0038469999999999997,-0.0006219999999999999,0.002955,-37.560001,9.0,-25.68,3b
2019-07-15_142614:300,-0.270477,0.019806,-0.417908,-0.0038469999999999997,-0.0008349999999999999,0.003078,-37.560001,9.0,-25.68,3b
2019-07-15_142614:320,-0.274017,0.017792,-0.41995200000000005,-0.003542,-0.0006219999999999999,0.002467,-37.560001,9.37,-26.059998999999998,3b
2019-07-15_142614:340,-0.277588,0.016266,-0.418915,-0.002779,-0.000897,0.00265,-37.560001,9.37,-26.059998999999998,3b
2019-07-15_142614:360,-0.272491,0.019318000000000002,-0.41842700000000005,-0.002443,-0.000439,0.002955,-37.560001,9.37,-26.059998999999998,3b
2019-07-15_142614:380,-0.272491,0.019806,-0.417908,-0.002748,-0.000164,0.001338,-38.25,9.37,-25.68,3b
2019-07-15_142614:400,-0.272491,0.021332,-0.417908,-0.0029010000000000004,-0.00034700000000000003,0.00088,-38.25,9.37,-25.68,3b
2019-07-15_142614:420,-0.269958,0.021851,-0.41842700000000005,-0.003084,-0.000439,0.001857,-36.869999,8.68,-26.5,3b
2019-07-15_142614:440,-0.272491,0.020844,-0.417389,-0.0028399999999999996,-0.0006219999999999999,0.0021920000000000004,-36.869999,8.68,-26.5,3b
2019-07-15_142614:460,-0.273529,0.019806,-0.416901,-0.002382,-0.00037799999999999997,0.002467,-36.869999,8.68,-26.5,3b
2019-07-15_142614:480,-0.271484,0.020844,-0.417389,-0.002046,-0.00034700000000000003,0.003016,-37.560001,8.68,-25.68,3b
2019-07-15_142614:500,-0.268433,0.021851,-0.416382,-0.0025039999999999997,-0.0006219999999999999,0.0031079999999999997,-37.560001,8.68,-25.68,3b
2019-07-15_142614:520,-0.26944,0.022369,-0.417908,-0.0026260000000000003,-0.001019,0.002589,-38.0,9.75,-26.5,3b
2019-07-15_142614:540,-0.270477,0.024384,-0.417908,-0.0036030000000000003,-0.00108,0.003016,-38.0,9.75,-26.5,3b
2019-07-15_142614:560,-0.27301,0.023375999999999997,-0.41943400000000003,-0.00406,-0.0011099999999999999,0.003871,-38.0,9.75,-26.5,3b
2019-07-15_142614:580,-0.275055,0.018799,-0.41995200000000005,-0.004274,-0.000958,0.0032909999999999997,-36.869999,9.0,-25.68,3b
2019-07-15_142614:600,-0.273529,0.017273,-0.417908,-0.004274,-0.0005,0.0028940000000000003,-36.869999,9.0,-25.68,3b
2019-07-15_142614:620,-0.27301,0.016266,-0.420441,-0.003542,-0.0006219999999999999,0.003078,-37.560001,8.68,-25.25,3b
2019-07-15_142614:640,-0.27301,0.017792,-0.417908,-0.002779,-0.000439,0.003078,-37.560001,8.68,-25.25,3b
2019-07-15_142614:660,-0.274017,0.019318000000000002,-0.417389,-0.002565,-0.0005610000000000001,0.002955,-37.560001,8.68,-25.25,3b
2019-07-15_142614:680,-0.271484,0.021332,-0.417389,-0.002779,-0.00034700000000000003,0.003078,-37.560001,9.0,-26.5,3b
2019-07-15_142614:700,-0.268433,0.022858,-0.41485600000000006,-0.003145,-0.0006219999999999999,0.002955,-37.560001,9.0,-26.5,3b
2019-07-15_142614:720,-0.268433,0.021851,-0.41384899999999997,-0.003664,-0.001141,0.002742,-38.0,8.25,-26.059998999999998,3b
2019-07-15_142614:740,-0.268433,0.021332,-0.41586300000000004,-0.003786,-0.00172,0.002711,-38.0,8.25,-26.059998999999998,3b
2019-07-15_142614:760,-0.272003,0.019806,-0.416382,-0.00406,-0.001782,0.00265,-38.0,8.25,-26.059998999999998,3b
2019-07-15_142614:780,-0.271484,0.018799,-0.417908,-0.0034799999999999996,-0.001873,0.002833,-38.0,9.37,-25.25,3b
2019-07-15_142614:800,-0.272491,0.018799,-0.417908,-0.0028399999999999996,-0.0023309999999999997,0.002467,-38.0,9.37,-25.25,3b
2019-07-15_142614:820,-0.274017,0.019318000000000002,-0.418915,-0.0025039999999999997,-0.001873,0.002467,-37.560001,9.37,-25.68,3b
2019-07-15_142614:840,-0.27301,0.021332,-0.41943400000000003,-0.00229,-0.001843,0.002315,-37.560001,9.37,-25.68,3b
2019-07-15_142614:860,-0.275055,0.022858,-0.417908,-0.002382,-0.0016589999999999999,0.002254,-37.560001,9.37,-25.68,3b
2019-07-15_142614:880,-0.272003,0.023375999999999997,-0.41995200000000005,-0.0026260000000000003,-0.001446,0.002254,-36.869999,10.18,-25.68,3b
2019-07-15_142614:900,-0.267914,0.024902,-0.417908,-0.0028399999999999996,-0.001446,0.002376,-36.869999,10.18,-25.68,3b
2019-07-15_142614:920,-0.267914,0.023895,-0.41995200000000005,-0.003145,-0.0016589999999999999,0.002833,-37.560001,9.0,-27.25,3b
2019-07-15_142614:940,-0.268951,0.021851,-0.41943400000000003,-0.00345,-0.001995,0.00265,-37.560001,9.0,-27.25,3b
2019-07-15_142614:960,-0.27301,0.022369,-0.41995200000000005,-0.00345,-0.0020559999999999997,0.0032909999999999997,-37.560001,9.0,-27.25,3b
2019-07-15_142614:980,-0.275055,0.021332,-0.418915,-0.0033280000000000002,-0.001843,0.003474,-37.25,8.68,-26.059998999999998,3b
2019-07-15_142615:000,-0.27301,0.019806,-0.417908,-0.0032670000000000004,-0.001598,0.0028940000000000003,-37.25,8.68,-26.059998999999998,3b
2019-07-15_142615:020,-0.26944,0.020844,-0.41995200000000005,-0.00345,-0.001141,0.002254,-37.560001,8.68,-26.059998999999998,3b
2019-07-15_142615:040,-0.267914,0.019806,-0.41943400000000003,-0.003206,-0.001324,0.0027719999999999997,-37.560001,8.68,-26.059998999999998,3b
2019-07-15_142615:060,-0.271484,0.019318000000000002,-0.420441,-0.0029010000000000004,-0.0016589999999999999,0.0027719999999999997,-37.560001,8.68,-26.059998999999998,3b
2019-07-15_142615:080,-0.274536,0.019318000000000002,-0.41995200000000005,-0.0026260000000000003,-0.0014759999999999999,0.002711,-37.560001,9.37,-27.25,3b
2019-07-15_142615:100,-0.273529,0.020844,-0.418915,-0.001894,-0.0007440000000000001,0.0031079999999999997,-37.560001,9.37,-27.25,3b
2019-07-15_142615:120,-0.267426,0.024384,-0.418915,-0.001894,-0.00037799999999999997,0.003169,-36.869999,9.0,-26.059998999999998,3b
2019-07-15_142615:140,-0.267914,0.024384,-0.418915,-0.0032670000000000004,-0.001446,0.0027719999999999997,-36.869999,9.0,-26.059998999999998,3b
2019-07-15_142615:160,-0.266907,0.023895,-0.41943400000000003,-0.003664,-0.001446,0.002955,-36.869999,9.0,-26.059998999999998,3b
2019-07-15_142615:180,-0.272003,0.021332,-0.420959,-0.004335,-0.001537,0.003474,-37.25,9.37,-26.5,3b
2019-07-15_142615:200,-0.274017,0.017792,-0.42147799999999996,-0.004793,-0.0014759999999999999,0.003078,-37.25,9.37,-26.5,3b
2019-07-15_142615:220,-0.27301,0.017273,-0.42401099999999997,-0.0039380000000000005,-0.0007740000000000001,0.002711,-38.25,8.68,-26.059998999999998,3b
2019-07-15_142615:240,-0.273529,0.017792,-0.423004,-0.003389,-0.000439,0.002833,-38.25,8.68,-26.059998999999998,3b
2019-07-15_142615:260,-0.272491,0.01828,-0.420441,-0.002748,-0.000286,0.0031079999999999997,-38.25,8.68,-26.059998999999998,3b
2019-07-15_142615:280,-0.273529,0.022369,-0.418915,-0.002382,-4.2e-05,0.002742,-37.560001,9.0,-26.870001000000002,3b
2019-07-15_142615:300,-0.268433,0.025421,-0.415375,-0.002443,0.000233,0.0028940000000000003,-37.560001,9.0,-26.870001000000002,3b
2019-07-15_142615:320,-0.268433,0.024902,-0.416382,-0.0033280000000000002,5e-05,0.003078,-38.0,9.0,-26.059998999999998,3b
2019-07-15_142615:340,-0.266907,0.024384,-0.41586300000000004,-0.004243,-0.0006219999999999999,0.002955,-38.0,9.0,-26.059998999999998,3b
2019-07-15_142615:360,-0.268951,0.021332,-0.416382,-0.004518,-0.0011099999999999999,0.003169,-38.0,9.0,-26.059998999999998,3b
2019-07-15_142615:380,-0.271484,0.018799,-0.41842700000000005,-0.00461,-0.001537,0.003169,-37.25,9.0,-25.68,3b
2019-07-15_142615:400,-0.272003,0.017273,-0.418915,-0.0038770000000000002,-0.001537,0.0032909999999999997,-37.25,9.0,-25.68,3b
2019-07-15_142615:420,-0.273529,0.018799,-0.418915,-0.0032670000000000004,-0.001446,0.00323,-37.25,9.0,-25.68,3b
2019-07-15_142615:440,-0.272491,0.021851,-0.41943400000000003,-0.002779,-0.001202,0.0031079999999999997,-37.560001,9.0,-26.059998999999998,3b
2019-07-15_142615:460,-0.272491,0.021851,-0.41995200000000005,-0.0029010000000000004,-0.00108,0.003169,-37.560001,9.0,-26.059998999999998,3b
2019-07-15_142615:480,-0.269958,0.021851,-0.418915,-0.00345,-0.001263,0.003016,-37.25,9.0,-26.5,3b
2019-07-15_142615:500,-0.268433,0.021332,-0.41842700000000005,-0.0036030000000000003,-0.001202,0.002833,-37.25,9.0,-26.5,3b
2019-07-15_142615:520,-0.26944,0.021332,-0.41943400000000003,-0.003389,-0.001324,0.003078,-37.560001,8.68,-26.059998999999998,3b
2019-07-15_142615:540,-0.275543,0.020844,-0.41995200000000005,-0.003542,-0.001202,0.002711,-37.560001,8.68,-26.059998999999998,3b
2019-07-15_142615:560,-0.27301,0.021332,-0.41995200000000005,-0.003542,-0.001019,0.00323,-37.560001,8.68,-26.059998999999998,3b
2019-07-15_142615:580,-0.272491,0.022369,-0.417908,-0.0034799999999999996,-0.001141,0.003078,-37.560001,9.75,-27.68,3b
2019-07-15_142615:600,-0.270966,0.020844,-0.416382,-0.0036030000000000003,-0.000958,0.001857,-37.560001,9.75,-27.68,3b
2019-07-15_142615:620,-0.266907,0.022858,-0.417389,-0.00345,-0.000897,0.001918,-37.560001,9.75,-27.68,3b
2019-07-15_142615:640,-0.2659,0.021332,-0.417389,-0.00345,-0.0016589999999999999,0.0028940000000000003,-37.25,9.0,-26.5,3b
2019-07-15_142615:660,-0.268433,0.020325,-0.417908,-0.0029010000000000004,-0.0021780000000000002,0.0028940000000000003,-37.25,9.0,-26.5,3b
2019-07-15_142615:680,-0.273529,0.022369,-0.41995200000000005,-0.002229,-0.002117,0.002833,-38.0,8.68,-26.5,3b
2019-07-15_142615:700,-0.273529,0.023895,-0.418915,-0.002168,-0.0014759999999999999,0.0036270000000000004,-38.0,8.68,-26.5,3b
2019-07-15_142615:720,-0.270477,0.025421,-0.420441,-0.0025039999999999997,-0.0014759999999999999,0.00381,-38.0,8.68,-26.5,3b
2019-07-15_142615:740,-0.270966,0.023895,-0.41995200000000005,-0.0032670000000000004,-0.0014759999999999999,0.0032909999999999997,-38.0,8.68,-27.25,3b
2019-07-15_142615:760,-0.271484,0.023895,-0.41943400000000003,-0.0039380000000000005,-0.001446,0.0036270000000000004,-38.0,8.68,-27.25,3b
2019-07-15_142615:780,-0.27301,0.019318000000000002,-0.41995200000000005,-0.004182,-0.001446,0.003963,-37.560001,8.25,-26.870001000000002,3b
2019-07-15_142615:800,-0.270966,0.017792,-0.417389,-0.00406,-0.001141,0.003078,-37.560001,8.25,-26.870001000000002,3b
2019-07-15_142615:820,-0.266907,0.017792,-0.41842700000000005,-0.00345,-0.001385,0.003078,-37.560001,8.25,-26.870001000000002,3b
2019-07-15_142615:840,-0.2659,0.018799,-0.417908,-0.002748,-0.001598,0.00323,-38.0,9.37,-25.68,3b
2019-07-15_142615:860,-0.267914,0.019806,-0.41943400000000003,-0.0025039999999999997,-0.0021780000000000002,0.002955,-38.0,9.37,-25.68,3b
2019-07-15_142615:880,-0.270477,0.021332,-0.42147799999999996,-0.00229,-0.002117,0.00265,-37.560001,8.68,-25.68,3b
2019-07-15_142615:900,-0.270477,0.022369,-0.420441,-0.002779,-0.001843,0.002742,-37.560001,8.68,-25.68,3b
2019-07-15_142615:920,-0.269958,0.021332,-0.423492,-0.0033280000000000002,-0.001782,0.002742,-37.560001,8.68,-25.68,3b
2019-07-15_142615:940,-0.270477,0.021332,-0.421967,-0.00345,-0.001446,0.002589,-37.560001,9.37,-26.5,3b
2019-07-15_142615:960,-0.268951,0.019806,-0.423004,-0.00345,-0.0011099999999999999,0.0025280000000000003,-37.560001,9.37,-26.5,3b
2019-07-15_142615:980,-0.267914,0.019806,-0.423004,-0.0033280000000000002,-0.001141,0.002376,-37.560001,9.75,-26.5,3b
2019-07-15_142616:000,-0.267426,0.021332,-0.420959,-0.0028399999999999996,-0.0007740000000000001,0.002742,-37.560001,9.75,-26.5,3b
2019-07-15_142616:020,-0.267914,0.022369,-0.42147799999999996,-0.0029010000000000004,-0.0005610000000000001,0.003016,-37.560001,9.75,-26.5,3b
2019-07-15_142616:040,-0.2659,0.021332,-0.421967,-0.0029010000000000004,-0.0007740000000000001,0.00323,-38.0,8.68,-27.25,3b
2019-07-15_142616:060,-0.266907,0.021851,-0.42248500000000005,-0.003145,-0.000683,0.00323,-38.0,8.68,-27.25,3b
2019-07-15_142616:080,-0.26944,0.019806,-0.423004,-0.0033280000000000002,-0.0007740000000000001,0.002955,-37.560001,9.37,-25.68,3b
2019-07-15_142616:100,-0.271484,0.017792,-0.42248500000000005,-0.0033280000000000002,-0.000439,0.0025280000000000003,-37.560001,9.37,-25.68,3b
2019-07-15_142616:120,-0.272003,0.016753999999999998,-0.423004,-0.0029010000000000004,-0.000164,0.002376,-37.560001,9.37,-25.68,3b
2019-07-15_142616:140,-0.273529,0.017273,-0.420959,-0.0026260000000000003,1.9e-05,0.001979,-36.869999,9.0,-27.25,3b
2019-07-15_142616:160,-0.267914,0.020325,-0.41842700000000005,-0.0023510000000000002,5e-05,0.002711,-36.869999,9.0,-27.25,3b
2019-07-15_142616:180,-0.267426,0.020325,-0.417908,-0.002748,-0.000103,0.0025280000000000003,-36.869999,8.25,-26.059998999999998,3b
2019-07-15_142616:200,-0.266907,0.020325,-0.416382,-0.0032670000000000004,-0.00037799999999999997,0.001185,-36.869999,8.25,-26.059998999999998,3b
2019-07-15_142616:220,-0.264374,0.021332,-0.41995200000000005,-0.0032670000000000004,-0.000683,0.0010019999999999999,-36.869999,8.25,-26.059998999999998,3b
2019-07-15_142616:240,-0.267914,0.018799,-0.420959,-0.0032670000000000004,-0.0008349999999999999,0.0017350000000000002,-36.869999,9.75,-26.5,3b
2019-07-15_142616:260,-0.27301,0.017792,-0.42147799999999996,-0.0029010000000000004,-0.0007740000000000001,0.001582,-36.869999,9.75,-26.5,3b
2019-07-15_142616:280,-0.275543,0.019318000000000002,-0.420959,-0.002046,-0.00034700000000000003,0.0016129999999999999,-38.68,10.18,-26.059998999999998,3b
2019-07-15_142616:300,-0.267426,0.022858,-0.418915,-0.001771,0.0005070000000000001,0.002254,-38.68,10.18,-26.059998999999998,3b
2019-07-15_142616:320,-0.264862,0.024902,-0.417908,-0.0019850000000000002,1.9e-05,0.002254,-38.68,10.18,-26.059998999999998,3b
2019-07-15_142616:340,-0.265381,0.024902,-0.418915,-0.002779,-0.000225,0.002009,-37.25,9.37,-27.25,3b
2019-07-15_142616:360,-0.26944,0.025421,-0.418915,-0.0033280000000000002,-0.001019,0.002254,-37.25,9.37,-27.25,3b
2019-07-15_142616:380,-0.275055,0.021851,-0.41943400000000003,-0.003664,-0.000897,0.0028940000000000003,-38.0,9.37,-26.5,3b
2019-07-15_142616:400,-0.27301,0.020844,-0.41842700000000005,-0.00406,-0.0007740000000000001,0.0025280000000000003,-38.0,9.37,-26.5,3b
2019-07-15_142616:420,-0.269958,0.020325,-0.41943400000000003,-0.003664,-0.00037799999999999997,0.002467,-38.0,9.37,-26.5,3b
2019-07-15_142616:440,-0.268433,0.019806,-0.41943400000000003,-0.003023,-0.00037799999999999997,0.002955,-38.0,8.68,-26.059998999999998,3b
2019-07-15_142616:460,-0.272003,0.020325,-0.417908,-0.0029620000000000002,-0.0007440000000000001,0.0027719999999999997,-38.0,8.68,-26.059998999999998,3b
2019-07-15_142616:480,-0.272003,0.022369,-0.417908,-0.002565,-0.0008349999999999999,0.002589,-37.25,8.68,-27.68,3b
2019-07-15_142616:500,-0.27301,0.023375999999999997,-0.417389,-0.002687,-0.0008349999999999999,0.0027719999999999997,-37.25,8.68,-27.68,3b
2019-07-15_142616:520,-0.26944,0.024902,-0.41842700000000005,-0.003084,-0.0008349999999999999,0.0027719999999999997,-37.25,8.68,-27.68,3b
2019-07-15_142616:540,-0.267914,0.023895,-0.417908,-0.003206,-0.001019,0.00323,-37.560001,9.0,-26.870001000000002,3b
2019-07-15_142616:560,-0.267426,0.023375999999999997,-0.41842700000000005,-0.003725,-0.0014759999999999999,0.003505,-37.560001,9.0,-26.870001000000002,3b
2019-07-15_142616:580,-0.268951,0.021332,-0.418915,-0.003999,-0.001782,0.0035659999999999997,-29.559998999999998,8.68,-26.5,3b
2019-07-15_142616:600,-0.271484,0.020325,-0.41943400000000003,-0.0038469999999999997,-0.001782,0.0035659999999999997,-29.559998999999998,8.68,-26.5,3b
2019-07-15_142616:620,-0.273529,0.019318000000000002,-0.42147799999999996,-0.0033280000000000002,-0.001446,0.0036880000000000003,-29.559998999999998,8.68,-26.5,3b
2019-07-15_142616:640,-0.272491,0.020325,-0.420441,-0.003114,-0.001019,0.0036880000000000003,-38.0,8.68,-26.059998999999998,3b
2019-07-15_142616:660,-0.268951,0.020325,-0.420959,-0.002779,-0.0008349999999999999,0.0036880000000000003,-38.0,8.68,-26.059998999999998,3b
2019-07-15_142616:680,-0.268433,0.020844,-0.41995200000000005,-0.003023,-0.000897,0.0033520000000000004,-37.25,9.75,-27.68,3b
2019-07-15_142616:700,-0.266388,0.021851,-0.41943400000000003,-0.003114,-0.001202,0.003505,-37.25,9.75,-27.68,3b
2019-07-15_142616:720,-0.266388,0.021332,-0.418915,-0.0033280000000000002,-0.0014759999999999999,0.0036270000000000004,-37.25,9.75,-27.68,3b
2019-07-15_142616:740,-0.274017,0.020844,-0.420441,-0.0038770000000000002,-0.0014759999999999999,0.0034130000000000002,-38.25,9.0,-27.25,3b
2019-07-15_142616:760,-0.270477,0.020325,-0.41943400000000003,-0.0039380000000000005,-0.001537,0.004298,-38.25,9.0,-27.25,3b
2019-07-15_142616:780,-0.268951,0.020325,-0.41995200000000005,-0.004182,-0.001537,0.00381,-37.25,8.68,-25.25,3b
2019-07-15_142616:800,-0.268951,0.019318000000000002,-0.41943400000000003,-0.004182,-0.001202,0.002711,-37.25,8.68,-25.25,3b
2019-07-15_142616:820,-0.268433,0.019318000000000002,-0.421967,-0.003999,-0.001537,0.0031079999999999997,-37.25,8.68,-25.25,3b
2019-07-15_142616:840,-0.273529,0.017792,-0.420959,-0.0036030000000000003,-0.001263,0.003474,-36.869999,10.18,-26.059998999999998,3b
2019-07-15_142616:860,-0.275543,0.01828,-0.420441,-0.003023,-0.0007440000000000001,0.00323,-36.869999,10.18,-26.059998999999998,3b
2019-07-15_142616:880,-0.270966,0.020325,-0.41995200000000005,-0.0026260000000000003,-0.000164,0.0033520000000000004,-37.560001,9.37,-25.68,3b
2019-07-15_142616:900,-0.264862,0.021851,-0.417908,-0.0025039999999999997,-0.000103,0.003474,-37.560001,9.37,-25.68,3b
2019-07-15_142616:920,-0.2659,0.022858,-0.41842700000000005,-0.002779,-0.000439,0.002833,-37.560001,9.37,-25.68,3b
2019-07-15_142616:940,-0.266388,0.023375999999999997,-0.41943400000000003,-0.003542,-0.000958,0.00265,-37.25,9.0,-26.870001000000002,3b
2019-07-15_142616:960,-0.269958,0.023375999999999997,-0.418915,-0.0038770000000000002,-0.0014759999999999999,0.0032909999999999997,-37.25,9.0,-26.870001000000002,3b
2019-07-15_142616:980,-0.272491,0.019318000000000002,-0.420441,-0.004243,-0.001324,0.0034130000000000002,-37.25,9.75,-26.5,3b
2019-07-15_142617:000,-0.270966,0.018799,-0.420441,-0.003999,-0.001141,0.002711,-37.25,9.75,-26.5,3b
2019-07-15_142617:020,-0.269958,0.019318000000000002,-0.420959,-0.0036030000000000003,-0.000958,0.002833,-37.25,9.75,-26.5,3b
2019-07-15_142617:040,-0.268433,0.018799,-0.420441,-0.0032670000000000004,-0.0008349999999999999,0.002833,-37.25,9.0,-26.5,3b
2019-07-15_142617:060,-0.270966,0.019806,-0.41995200000000005,-0.003023,-0.000897,0.002589,-37.25,9.0,-26.5,3b
2019-07-15_142617:080,-0.272003,0.021332,-0.41943400000000003,-0.002687,-0.0008349999999999999,0.002589,-37.25,9.0,-26.5,3b
2019-07-15_142617:100,-0.268951,0.022369,-0.417389,-0.003114,-0.000897,0.002467,-37.25,9.0,-26.5,3b
2019-07-15_142617:120,-0.266907,0.021851,-0.41943400000000003,-0.003084,-0.00108,0.002315,-37.25,9.0,-26.5,3b
2019-07-15_142617:140,-0.266388,0.021851,-0.417908,-0.003664,-0.001019,0.002315,-37.560001,9.37,-26.5,3b
2019-07-15_142617:160,-0.267426,0.020325,-0.418915,-0.003542,-0.001202,0.0024059999999999997,-37.560001,9.37,-26.5,3b
2019-07-15_142617:180,-0.268951,0.020325,-0.420441,-0.0032670000000000004,-0.0014759999999999999,0.0024059999999999997,-37.560001,9.0,-26.870001000000002,3b
2019-07-15_142617:200,-0.272003,0.020844,-0.420441,-0.0029010000000000004,-0.0014759999999999999,0.002315,-37.560001,9.0,-26.870001000000002,3b
2019-07-15_142617:220,-0.271484,0.021332,-0.421967,-0.002687,-0.001263,0.002376,-37.560001,9.0,-26.870001000000002,3b
2019-07-15_142617:240,-0.269958,0.022369,-0.420959,-0.0026260000000000003,-0.000897,0.002467,-37.560001,9.0,-24.870001000000002,3b
2019-07-15_142617:260,-0.268951,0.022369,-0.41995200000000005,-0.002748,-0.0007740000000000001,0.002315,-37.560001,9.0,-24.870001000000002,3b
2019-07-15_142617:280,-0.266388,0.022369,-0.41995200000000005,-0.002779,-0.000958,0.002254,-36.5,9.0,-26.059998999999998,3b
2019-07-15_142617:300,-0.266388,0.021851,-0.41842700000000005,-0.003023,-0.0011099999999999999,0.0025280000000000003,-36.5,9.0,-26.059998999999998,3b
2019-07-15_142617:320,-0.273529,0.021851,-0.41995200000000005,-0.003145,-0.001598,0.002131,-36.5,9.0,-26.059998999999998,3b
2019-07-15_142617:340,-0.270477,0.023895,-0.41995200000000005,-0.003084,-0.001537,0.0024059999999999997,-37.25,9.37,-27.25,3b
2019-07-15_142617:360,-0.267914,0.023375999999999997,-0.418915,-0.0029620000000000002,-0.001598,0.002589,-37.25,9.37,-27.25,3b
2019-07-15_142617:380,-0.268433,0.023375999999999997,-0.417908,-0.003542,-0.001598,0.001521,-38.0,8.68,-26.059998999999998,3b
2019-07-15_142617:400,-0.263855,0.023895,-0.41995200000000005,-0.0036030000000000003,-0.001446,0.00146,-38.0,8.68,-26.059998999999998,3b
2019-07-15_142617:420,-0.267914,0.021332,-0.42147799999999996,-0.0036030000000000003,-0.001934,0.002376,-38.0,8.68,-26.059998999999998,3b
2019-07-15_142617:440,-0.271484,0.018799,-0.42147799999999996,-0.0029010000000000004,-0.0020559999999999997,0.00265,-37.25,9.0,-27.25,3b
2019-07-15_142617:460,-0.26944,0.021332,-0.42248500000000005,-0.0023510000000000002,-0.001598,0.0027719999999999997,-37.25,9.0,-27.25,3b
2019-07-15_142617:480,-0.264862,0.023895,-0.421967,-0.0017100000000000001,-0.001385,0.0031079999999999997,-37.25,9.37,-26.059998999999998,3b
2019-07-15_142617:500,-0.2659,0.025421,-0.420441,-0.001771,-0.001385,0.003078,-37.25,9.37,-26.059998999999998,3b
2019-07-15_142617:520,-0.266388,0.025908999999999998,-0.421967,-0.002779,-0.001537,0.002711,-37.25,9.37,-26.059998999999998,3b
2019-07-15_142617:540,-0.267426,0.026427999999999997,-0.421967,-0.003725,-0.0016589999999999999,0.0028940000000000003,-37.25,9.0,-26.870001000000002,3b
2019-07-15_142617:560,-0.268433,0.023895,-0.42248500000000005,-0.004335,-0.001537,0.003505,-37.25,9.0,-26.870001000000002,3b
2019-07-15_142617:580,-0.26944,0.020325,-0.423004,-0.004457,-0.001598,0.003016,-36.869999,9.0,-26.059998999999998,3b
2019-07-15_142617:600,-0.270477,0.019318000000000002,-0.42248500000000005,-0.00406,-0.001141,0.0031079999999999997,-36.869999,9.0,-26.059998999999998,3b
2019-07-15_142617:620,-0.2659,0.019318000000000002,-0.423004,-0.00345,-0.001019,0.00381,-36.869999,9.0,-26.059998999999998,3b
2019-07-15_142617:640,-0.267914,0.021332,-0.42248500000000005,-0.003084,-0.0007740000000000001,0.0036880000000000003,-37.25,9.0,-25.68,3b
2019-07-15_142617:660,-0.267914,0.021332,-0.420441,-0.002687,-0.0007440000000000001,0.003474,-37.25,9.0,-25.68,3b
2019-07-15_142617:680,-0.267914,0.023375999999999997,-0.421967,-0.0029620000000000002,-0.0005610000000000001,0.0032909999999999997,-38.0,8.68,-26.5,3b
2019-07-15_142617:700,-0.269958,0.023375999999999997,-0.420441,-0.003145,-0.000439,0.002833,-38.0,8.68,-26.5,3b
