timestamp,AccX,AccY,AccZ,GyroX,GyroY,GyroZ,MagX,MagY,MagZ,Activity
2019-07-15_135539:600,-0.441803,0.122528,-0.231812,-0.017458,0.008533,0.003963,-29.370001000000002,16.870001000000002,-18.18,2c
2019-07-15_135539:620,-0.420959,0.086426,-0.23791500000000002,-0.027558999999999997,0.006214,0.005092,-29.370001000000002,16.870001000000002,-18.18,2c
2019-07-15_135539:640,-0.465179,0.058960000000000005,-0.226227,-0.031343,0.002277,0.0033520000000000004,-29.370001000000002,16.870001000000002,-18.18,2c
2019-07-15_135539:660,-0.44433599999999995,0.039642000000000004,-0.226746,-0.028413,0.002216,0.0028940000000000003,-30.18,16.870001000000002,-19.0,2c
2019-07-15_135539:680,-0.44891400000000004,0.019806,-0.21554600000000002,-0.021699,0.002705,0.004542,-30.18,16.870001000000002,-19.0,2c
2019-07-15_135539:700,-0.445862,0.017792,-0.21402,-0.013765000000000001,0.0023079999999999997,0.0065260000000000006,-29.68,16.870001000000002,-18.559998999999998,2c
2019-07-15_135539:720,-0.43670699999999996,0.027954000000000003,-0.21402,-0.0068980000000000005,0.00011100000000000001,0.007533,-29.68,16.870001000000002,-18.559998999999998,2c
2019-07-15_135539:740,-0.438751,0.032532,-0.213531,-0.001436,-0.0027890000000000002,0.007991,-29.68,16.870001000000002,-18.559998999999998,2c
2019-07-15_135539:760,-0.445374,0.048798,-0.21911599999999998,0.0007610000000000001,-0.003918,0.006465,-30.059998999999998,16.5,-20.18,2c
2019-07-15_135539:780,-0.453003,0.058441,-0.216583,0.000426,-0.005169,0.006801000000000001,-30.059998999999998,16.5,-20.18,2c
2019-07-15_135539:800,-0.45907600000000004,0.063019,-0.220642,-0.000368,-0.004925,0.006801000000000001,-29.68,16.870001000000002,-20.059998999999998,2c
2019-07-15_135539:820,-0.461639,0.06405599999999999,-0.22116100000000002,-0.0038469999999999997,-0.003796,0.0042369999999999994,-29.68,16.870001000000002,-20.059998999999998,2c
2019-07-15_135539:840,-0.45553599999999994,0.06149299999999999,-0.220642,-0.006044,-0.002728,0.001857,-29.68,16.870001000000002,-20.059998999999998,2c
2019-07-15_135539:860,-0.44384799999999996,0.063019,-0.220123,-0.007661,-0.003582,0.001124,-21.25,16.870001000000002,-18.870001000000002,2c
2019-07-15_135539:880,-0.459595,0.06253099999999999,-0.222687,-0.008791,-0.0027890000000000002,0.002376,-21.25,16.870001000000002,-18.870001000000002,2c
2019-07-15_135539:900,-0.45043900000000003,0.057434000000000006,-0.21859699999999999,-0.009431,-0.002911,0.0033520000000000004,-30.059998999999998,16.059998999999998,-18.5,2c
2019-07-15_135539:920,-0.45401,0.055908000000000006,-0.222687,-0.009035,-0.003124,0.003169,-30.059998999999998,16.059998999999998,-18.5,2c
2019-07-15_135539:940,-0.448425,0.055908000000000006,-0.220642,-0.007631000000000001,-0.002728,0.001399,-30.059998999999998,16.059998999999998,-18.5,2c
2019-07-15_135539:960,-0.44995100000000005,0.056427,-0.22116100000000002,-0.006837,-0.003246,-5e-06,-30.059998999999998,16.059998999999998,-18.059998999999998,2c
2019-07-15_135539:980,-0.445374,0.067108,-0.223175,-0.005647,-0.004711,0.000728,-30.059998999999998,16.059998999999998,-18.059998999999998,2c
2019-07-15_135540:000,-0.455017,0.075745,-0.226227,-0.005769,-0.005108,0.002467,-30.059998999999998,16.5,-19.25,2c
2019-07-15_135540:020,-0.447906,0.075226,-0.226746,-0.008791,-0.005901,0.006404000000000001,-30.059998999999998,16.5,-19.25,2c
2019-07-15_135540:040,-0.453491,0.069122,-0.22879000000000002,-0.010713,-0.006847,0.0074719999999999995,-30.059998999999998,16.5,-19.25,2c
2019-07-15_135540:060,-0.45043900000000003,0.063538,-0.22927899999999998,-0.011507,-0.007031,0.008081999999999999,-28.870001000000002,15.68,-19.25,2c
2019-07-15_135540:080,-0.47180200000000005,0.05996699999999999,-0.22116100000000002,-0.013216,-0.005657,0.008662000000000001,-28.870001000000002,15.68,-19.25,2c
2019-07-15_135540:100,-0.461121,0.057953,-0.217072,-0.01349,-0.004314,0.008388,-29.68,16.059998999999998,-19.68,2c
2019-07-15_135540:120,-0.443329,0.057434000000000006,-0.22421300000000002,-0.01349,-0.003643,0.00442,-29.68,16.059998999999998,-19.68,2c
2019-07-15_135540:140,-0.441284,0.065063,-0.22421300000000002,-0.014009,-0.005383,0.005946,-29.68,16.059998999999998,-19.68,2c
2019-07-15_135540:160,-0.45654300000000003,0.068115,-0.222687,-0.014619,-0.00584,0.007411,-28.870001000000002,16.5,-19.68,2c
2019-07-15_135540:180,-0.44891400000000004,0.065063,-0.219635,-0.015352000000000001,-0.005229999999999999,0.005336,-28.870001000000002,16.5,-19.68,2c
2019-07-15_135540:200,-0.44232200000000005,0.066589,-0.22421300000000002,-0.015290999999999999,-0.005229999999999999,0.004024,-29.68,15.68,-20.5,2c
2019-07-15_135540:220,-0.448425,0.066589,-0.226746,-0.014740999999999999,-0.007031,0.005214,-29.68,15.68,-20.5,2c
2019-07-15_135540:240,-0.45553599999999994,0.070648,-0.22927899999999998,-0.014009,-0.006786,0.0051530000000000005,-29.68,15.68,-20.5,2c
2019-07-15_135540:260,-0.447388,0.08081100000000001,-0.23690799999999998,-0.014284,-0.006634,0.005275,-29.25,15.68,-19.68,2c
2019-07-15_135540:280,-0.44027700000000003,0.083862,-0.240479,-0.016023,-0.007824,0.008265,-29.25,15.68,-19.68,2c
2019-07-15_135540:300,-0.44384799999999996,0.082336,-0.245544,-0.017122,-0.008495,0.009729999999999999,-29.25,15.68,-19.68,2c
2019-07-15_135540:320,-0.454529,0.073212,-0.238434,-0.019716,-0.00758,0.013300999999999999,-29.25,15.68,-20.5,2c
2019-07-15_135540:340,-0.453003,0.066589,-0.236389,-0.019806999999999998,-0.006451,0.013392,-29.25,15.68,-20.5,2c
2019-07-15_135540:360,-0.44995100000000005,0.065063,-0.23895300000000003,-0.019868,-0.004986,0.012721,-28.18,15.06,-21.25,2c
2019-07-15_135540:380,-0.447388,0.06405599999999999,-0.238434,-0.01999,-0.004925,0.01266,-28.18,15.06,-21.25,2c
2019-07-15_135540:400,-0.445862,0.06253099999999999,-0.23791500000000002,-0.019716,-0.005169,0.012506999999999999,-28.18,15.06,-22.870001000000002,2c
2019-07-15_135540:420,-0.449432,0.059479,-0.237427,-0.019929,-0.006115,0.012598999999999999,-28.18,15.06,-22.870001000000002,2c
2019-07-15_135540:440,-0.452484,0.054901,-0.233337,-0.018861000000000003,-0.005779,0.012506999999999999,-28.18,15.06,-22.870001000000002,2c
2019-07-15_135540:460,-0.44995100000000005,0.051330999999999995,-0.235382,-0.017946,-0.005261,0.011195,-28.18,15.06,-22.870001000000002,2c
2019-07-15_135540:480,-0.44281000000000004,0.053375,-0.23690799999999998,-0.014466999999999999,-0.005047,0.007533,-28.18,15.06,-22.870001000000002,2c
2019-07-15_135540:500,-0.449432,0.05438200000000001,-0.242493,-0.013216,-0.004711,0.0077469999999999995,-28.18,15.06,-22.870001000000002,2c
2019-07-15_135540:520,-0.44433599999999995,0.055908000000000006,-0.23995999999999998,-0.011018,-0.005383,0.010341,-28.18,15.06,-22.870001000000002,2c
2019-07-15_135540:540,-0.44891400000000004,0.054901,-0.24096700000000001,-0.010622,-0.004986,0.011134,-28.18,15.06,-22.870001000000002,2c
2019-07-15_135540:560,-0.453003,0.05438200000000001,-0.242004,-0.009553,-0.005261,0.011867,-28.18,15.37,-23.25,2c
2019-07-15_135540:580,-0.453003,0.05438200000000001,-0.242004,-0.009492,-0.004833,0.012172,-28.18,15.37,-23.25,2c
2019-07-15_135540:600,-0.457581,0.049316000000000006,-0.243011,-0.010438,-0.004101,0.011775,-28.18,15.37,-23.25,2c
2019-07-15_135540:620,-0.46060200000000007,0.043701,-0.23895300000000003,-0.010896,-0.0021780000000000002,0.011073000000000001,-27.059998999999998,15.68,-22.870001000000002,2c
2019-07-15_135540:640,-0.447906,0.040649,-0.235382,-0.009309,0.000233,0.009395,-27.059998999999998,15.68,-22.870001000000002,2c
2019-07-15_135540:660,-0.44891400000000004,0.040161,-0.23791500000000002,-0.008119,0.00038500000000000003,0.005672,-27.870001000000002,15.37,-21.68,2c
2019-07-15_135540:680,-0.446899,0.046265,-0.23233,-0.005861,0.0007509999999999999,0.0028940000000000003,-27.870001000000002,15.37,-21.68,2c
2019-07-15_135540:700,-0.445374,0.045745999999999995,-0.231812,-0.004243,0.000629,0.002376,-27.870001000000002,15.37,-21.68,2c
2019-07-15_135540:720,-0.43518100000000004,0.048279,-0.230804,-0.0028399999999999996,0.000629,0.00323,-27.059998999999998,15.37,-22.870001000000002,2c
2019-07-15_135540:740,-0.435699,0.044739,-0.231323,-0.0011,-0.000897,0.004603,-27.059998999999998,15.37,-22.870001000000002,2c
2019-07-15_135540:760,-0.46670500000000004,0.041168,-0.23791500000000002,0.001341,-0.002667,0.0035659999999999997,-27.5,15.06,-23.68,2c
2019-07-15_135540:780,-0.453003,0.042694,-0.241486,0.00247,-0.001598,0.002009,-27.5,15.06,-23.68,2c
2019-07-15_135540:800,-0.451477,0.035065,-0.249115,0.003478,-0.00034700000000000003,0.0028940000000000003,-27.5,15.06,-23.68,2c
2019-07-15_135540:820,-0.449432,0.031494,-0.240479,0.004057,0.000629,0.004817,-27.5,15.06,-23.25,2c
2019-07-15_135540:840,-0.447388,0.024384,-0.238434,0.004881,0.001301,0.005733,-27.5,15.06,-23.25,2c
2019-07-15_135540:860,-0.44891400000000004,0.014221000000000001,-0.23486300000000002,0.0068650000000000004,0.0020329999999999997,0.0032909999999999997,-27.5,15.06,-23.25,2c
2019-07-15_135540:880,-0.445862,0.009125,-0.23690799999999998,0.010985,0.001972,-0.001256,-27.5,15.06,-23.25,2c
2019-07-15_135540:900,-0.452484,0.004059,-0.242004,0.016631,0.00124,-0.006291,-27.5,15.06,-23.25,2c
2019-07-15_135540:920,-0.458588,0.0055850000000000006,-0.24096700000000001,0.023375,0.0020329999999999997,-0.008428,-27.870001000000002,16.059998999999998,-22.870001000000002,2c
2019-07-15_135540:940,-0.463654,0.012695,-0.24096700000000001,0.030882,0.0038950000000000005,-0.010076,-27.870001000000002,16.059998999999998,-22.870001000000002,2c
2019-07-15_135540:960,-0.461121,0.027435,-0.23895300000000003,0.036253,0.006489,-0.012425,-27.5,16.5,-22.059998999999998,2c
2019-07-15_135540:980,-0.45401,0.034546,-0.23486300000000002,0.039702,0.008869,-0.013677000000000002,-27.5,16.5,-22.059998999999998,2c
2019-07-15_135541:000,-0.44232200000000005,0.050323,-0.23486300000000002,0.040984,0.01012,-0.013951,-27.5,16.5,-22.059998999999998,2c
2019-07-15_135541:020,-0.43518100000000004,0.058441,-0.233856,0.040038,0.008747,-0.01267,-28.559998999999998,15.68,-22.059998999999998,2c
2019-07-15_135541:040,-0.43518100000000004,0.066071,-0.237427,0.035399,0.004353,-0.010747,-28.559998999999998,15.68,-22.059998999999998,2c
2019-07-15_135541:060,-0.44027700000000003,0.069641,-0.23791500000000002,0.031493,0.001972,-0.008824,-28.559998999999998,16.870001000000002,-21.25,2c
2019-07-15_135541:080,-0.443329,0.070648,-0.236389,0.026701,0.000629,-0.006963,-28.559998999999998,16.870001000000002,-21.25,2c
2019-07-15_135541:100,-0.44995100000000005,0.067596,-0.235382,0.021117,0.000294,-0.005376,-28.559998999999998,16.870001000000002,-21.25,2c
2019-07-15_135541:120,-0.45553599999999994,0.05996699999999999,-0.23486300000000002,0.017027,0.001301,-0.0048270000000000006,-28.559998999999998,17.559998999999998,-18.870001000000002,2c
2019-07-15_135541:140,-0.44384799999999996,0.057434000000000006,-0.233337,0.014616,0.001697,-0.006169,-28.559998999999998,17.559998999999998,-18.870001000000002,2c
2019-07-15_135541:160,-0.44384799999999996,0.056915,-0.23486300000000002,0.012633,0.000843,-0.006963,-28.870001000000002,18.0,-19.25,2c
2019-07-15_135541:180,-0.447388,0.05996699999999999,-0.233856,0.010893,-0.000164,-0.007298000000000001,-28.870001000000002,18.0,-19.25,2c
2019-07-15_135541:200,-0.449432,0.063538,-0.236389,0.008971,-0.000958,-0.006626999999999999,-28.870001000000002,18.0,-19.25,2c
2019-07-15_135541:220,-0.448425,0.06405599999999999,-0.235382,0.006712,-0.0007740000000000001,-0.005437,-28.870001000000002,17.559998999999998,-18.870001000000002,2c
2019-07-15_135541:240,-0.44027700000000003,0.065063,-0.23486300000000002,0.00479,-0.001843,-0.0046429999999999996,-28.870001000000002,17.559998999999998,-18.870001000000002,2c
2019-07-15_135541:260,-0.435699,0.072174,-0.237427,0.00302,-0.003399,-0.00446,-28.559998999999998,17.68,-19.25,2c
2019-07-15_135541:280,-0.437225,0.08843999999999999,-0.24353000000000002,-0.0007639999999999999,-0.006451,-0.002172,-28.559998999999998,17.68,-19.25,2c
2019-07-15_135541:300,-0.43621800000000005,0.091003,-0.248108,-0.006258,-0.008159999999999999,0.002589,-28.559998999999998,17.68,-19.25,2c
2019-07-15_135541:320,-0.44281000000000004,0.090485,-0.24706999999999998,-0.0123,-0.009106,0.006007,-29.25,16.5,-18.870001000000002,2c
2019-07-15_135541:340,-0.445374,0.09201000000000001,-0.25012199999999996,-0.019533000000000002,-0.00877,0.009212,-29.25,16.5,-18.870001000000002,2c
2019-07-15_135541:360,-0.449432,0.083374,-0.24963400000000002,-0.026491000000000004,-0.008709,0.011775,-29.25,18.0,-18.5,2c
2019-07-15_135541:380,-0.45043900000000003,0.065063,-0.24658200000000002,-0.030672,-0.008038,0.011073000000000001,-29.25,18.0,-18.5,2c
2019-07-15_135541:400,-0.44995100000000005,0.053863999999999995,-0.24453699999999998,-0.031557,-0.006908,0.008815,-29.25,18.0,-18.5,2c
2019-07-15_135541:420,-0.44891400000000004,0.041687,-0.241486,-0.029085000000000003,-0.006634,0.0068920000000000006,-28.870001000000002,17.559998999999998,-19.68,2c
2019-07-15_135541:440,-0.44995100000000005,0.040161,-0.239441,-0.025362,-0.005779,0.006343,-28.870001000000002,17.559998999999998,-19.68,2c
2019-07-15_135541:460,-0.44638100000000003,0.039124,-0.24096700000000001,-0.020998,-0.005047,0.006953,-28.870001000000002,16.059998999999998,-20.870001000000002,2c
2019-07-15_135541:480,-0.447906,0.040649,-0.244019,-0.017731999999999998,-0.004833,0.008143000000000001,-28.870001000000002,16.059998999999998,-20.870001000000002,2c
2019-07-15_135541:500,-0.44891400000000004,0.044739,-0.24658200000000002,-0.014497,-0.004376,0.009212,-28.870001000000002,16.059998999999998,-20.870001000000002,2c
2019-07-15_135541:520,-0.443329,0.044739,-0.24658200000000002,-0.012575,-0.003857,0.010066,-28.559998999999998,16.5,-20.059998999999998,2c
2019-07-15_135541:540,-0.43927,0.043701,-0.245544,-0.01111,-0.004192,0.010249,-28.559998999999998,16.5,-20.059998999999998,2c
2019-07-15_135541:560,-0.446899,0.038635,-0.244019,-0.009889,-0.004131,0.010402,-28.870001000000002,16.870001000000002,-20.5,2c
2019-07-15_135541:580,-0.447906,0.035065,-0.241486,-0.008699,-0.003399,0.010066,-28.870001000000002,16.870001000000002,-20.5,2c
2019-07-15_135541:600,-0.448425,0.027954000000000003,-0.24453699999999998,-0.006654,-0.003246,0.009456,-28.870001000000002,16.870001000000002,-20.5,2c
2019-07-15_135541:620,-0.44995100000000005,0.021851,-0.246063,-0.003664,-0.0031850000000000003,0.00735,-28.18,16.5,-20.870001000000002,2c
2019-07-15_135541:640,-0.44232200000000005,0.021851,-0.242004,-3.2e-05,-0.002728,0.004024,-28.18,16.5,-20.870001000000002,2c
2019-07-15_135541:660,-0.443329,0.022858,-0.24353000000000002,0.003325,-0.0030629999999999998,0.0010019999999999999,-28.18,16.5,-20.870001000000002,2c
2019-07-15_135541:680,-0.438751,0.025421,-0.23995999999999998,0.0064069999999999995,-0.003704,-0.000798,-28.18,16.5,-20.870001000000002,2c
2019-07-15_135541:700,-0.437225,0.032013,-0.24353000000000002,0.009764,-0.004376,-0.002507,-28.18,16.5,-20.870001000000002,2c
2019-07-15_135541:720,-0.43670699999999996,0.037108999999999996,-0.24706999999999998,0.012694,-0.005229999999999999,-0.003453,-19.75,16.5,-21.68,2c
2019-07-15_135541:740,-0.43774399999999997,0.042694,-0.24963400000000002,0.015471,-0.005718,-0.003392,-19.75,16.5,-21.68,2c
2019-07-15_135541:760,-0.443329,0.039124,-0.25521900000000003,0.017821,-0.00584,-0.0024460000000000003,-28.25,16.18,-21.370001000000002,2c
2019-07-15_135541:780,-0.44384799999999996,0.038635,-0.256226,0.020475999999999998,-0.005261,-0.000676,-28.25,16.18,-21.370001000000002,2c
2019-07-15_135541:800,-0.446899,0.035583,-0.258759,0.022978,-0.004437,0.001582,-28.25,16.18,-21.370001000000002,2c
2019-07-15_135541:820,-0.44638100000000003,0.036072,-0.256744,0.024168000000000002,-0.003704,0.0031079999999999997,-28.0,17.0,-21.370001000000002,2c
2019-07-15_135541:840,-0.437225,0.036591000000000005,-0.2547,0.024168000000000002,-0.003643,0.0042369999999999994,-28.0,17.0,-21.370001000000002,2c
2019-07-15_135541:860,-0.434174,0.034058,-0.252686,0.02307,-0.004253,0.003871,-28.0,17.68,-20.18,2c
2019-07-15_135541:880,-0.430634,0.03302,-0.250641,0.021269,-0.005961999999999999,0.003474,-28.0,17.68,-20.18,2c
2019-07-15_135541:900,-0.433655,0.027435,-0.25317399999999995,0.019286,-0.007548999999999999,0.004207,-28.0,17.68,-20.18,2c
2019-07-15_135541:920,-0.431122,0.025908999999999998,-0.256226,0.017668,-0.008434,0.0036270000000000004,-27.870001000000002,17.68,-19.75,2c
2019-07-15_135541:940,-0.42758199999999996,0.027435,-0.259277,0.0166,-0.009106,0.003078,-27.870001000000002,17.68,-19.75,2c
2019-07-15_135541:960,-0.431641,0.025908999999999998,-0.260284,0.01541,-0.01054,0.002376,-27.059998999999998,19.18,-20.059998999999998,2c
2019-07-15_135541:980,-0.431122,0.027435,-0.257751,0.014281,-0.011211,0.001185,-27.059998999999998,19.18,-20.059998999999998,2c
2019-07-15_135542:000,-0.443329,0.027954000000000003,-0.260284,0.013762,-0.011822,0.0010019999999999999,-27.059998999999998,19.18,-20.059998999999998,2c
2019-07-15_135542:020,-0.449432,0.034546,-0.267914,0.013030000000000002,-0.010693000000000001,0.001979,-26.75,19.870001000000002,-20.559998999999998,2c
2019-07-15_135542:040,-0.439758,0.036591000000000005,-0.26944,0.011290000000000001,-0.009075,0.004207,-26.75,19.870001000000002,-20.559998999999998,2c
2019-07-15_135542:060,-0.43011499999999997,0.035065,-0.268951,0.008634999999999999,-0.009106,0.006343,-27.18,19.18,-19.370001000000002,2c
2019-07-15_135542:080,-0.421967,0.026917,-0.269958,0.0064069999999999995,-0.010081999999999999,0.007411,-27.18,19.18,-19.370001000000002,2c
2019-07-15_135542:100,-0.417389,0.024902,-0.271484,0.005461,-0.011883,0.007136,-27.18,19.18,-19.370001000000002,2c
2019-07-15_135542:120,-0.426544,0.027435,-0.279114,0.004668,-0.013347999999999999,0.007289,-26.870001000000002,19.5,-19.370001000000002,2c
2019-07-15_135542:140,-0.431122,0.029480000000000003,-0.28064,0.003264,-0.01408,0.008601000000000001,-26.870001000000002,19.5,-19.370001000000002,2c
2019-07-15_135542:160,-0.435699,0.027954000000000003,-0.281647,0.001097,-0.013287,0.008784,-26.370001000000002,20.68,-18.559998999999998,2c
2019-07-15_135542:180,-0.44281000000000004,0.023895,-0.279114,-0.0007639999999999999,-0.011486,0.007533,-26.370001000000002,20.68,-18.559998999999998,2c
2019-07-15_135542:200,-0.431641,0.021851,-0.28112800000000004,-0.002168,-0.009167,0.007594,-26.370001000000002,20.68,-18.559998999999998,2c
2019-07-15_135542:220,-0.417389,0.019318000000000002,-0.28369099999999997,-0.003145,-0.008678,0.007869,-26.0,20.68,-20.18,2c
2019-07-15_135542:240,-0.423004,0.018799,-0.285706,-0.004457,-0.009807999999999999,0.007075,-26.0,20.68,-20.18,2c
2019-07-15_135542:260,-0.432159,0.016753999999999998,-0.29232800000000003,-0.005128,-0.00996,0.006404000000000001,-26.370001000000002,21.0,-20.18,2c
2019-07-15_135542:280,-0.432648,0.01828,-0.28927600000000003,-0.005647,-0.008556,0.005946,-26.370001000000002,21.0,-20.18,2c
2019-07-15_135542:300,-0.429596,0.01828,-0.28875700000000004,-0.006532,-0.006786,0.005427,-26.370001000000002,21.0,-20.18,2c
2019-07-15_135542:320,-0.418915,0.017273,-0.290283,-0.007387,-0.006023,0.004634,-25.68,21.0,-19.75,2c
2019-07-15_135542:340,-0.404175,0.017792,-0.291321,-0.008424,-0.006695,0.004298,-25.68,21.0,-19.75,2c
2019-07-15_135542:360,-0.40368699999999996,0.016753999999999998,-0.296387,-0.009553,-0.009441,0.004481000000000001,-24.870001000000002,20.25,-21.0,2c
2019-07-15_135542:380,-0.417908,0.019806,-0.296906,-0.011018,-0.011761,0.004878,-24.870001000000002,20.25,-21.0,2c
2019-07-15_135542:400,-0.432648,0.021851,-0.302002,-0.012086,-0.01115,0.005549,-24.870001000000002,20.25,-21.0,2c
2019-07-15_135542:420,-0.43774399999999997,0.015747,-0.301483,-0.013887,-0.008831,0.005733,-25.68,19.870001000000002,-21.0,2c
2019-07-15_135542:440,-0.427063,0.001007,-0.297913,-0.013887,-0.005779,0.006007,-25.68,19.870001000000002,-21.0,2c
2019-07-15_135542:460,-0.420441,0.0,-0.298431,-0.011812000000000001,-0.003704,0.007991,-25.25,20.68,-21.75,2c
2019-07-15_135542:480,-0.404694,0.000488,-0.29943800000000004,-0.009035,-0.0037649999999999997,0.010798,-25.25,20.68,-21.75,2c
2019-07-15_135542:500,-0.406738,0.001495,-0.303528,-0.007448000000000001,-0.004894,0.010737,-25.25,20.68,-21.75,2c
2019-07-15_135542:520,-0.410278,0.0035399999999999997,-0.305542,-0.006104999999999999,-0.006023,0.009608,-25.0,19.870001000000002,-21.370001000000002,2c
2019-07-15_135542:540,-0.41384899999999997,0.015228,-0.304016,-0.005067,-0.006023,0.008204000000000001,-25.0,19.870001000000002,-21.370001000000002,2c
2019-07-15_135542:560,-0.423004,0.008636,-0.305542,-0.006135,-0.005261,0.006465,-25.370001000000002,20.68,-21.0,2c
2019-07-15_135542:580,-0.41384899999999997,0.007599,-0.301483,-0.005586,-0.003918,0.005275,-25.370001000000002,20.68,-21.0,2c
2019-07-15_135542:600,-0.41485600000000006,0.0030210000000000002,-0.303528,-0.004671,-0.003643,0.005214,-25.370001000000002,20.68,-21.0,2c
2019-07-15_135542:620,-0.420441,-0.0035399999999999997,-0.29895,-0.003084,-0.003582,0.005397,-24.559998999999998,21.0,-22.559998999999998,2c
2019-07-15_135542:640,-0.423004,0.005065999999999999,-0.297913,-0.0007030000000000001,-0.0021780000000000002,0.005214,-24.559998999999998,21.0,-22.559998999999998,2c
2019-07-15_135542:660,-0.408752,0.010162000000000001,-0.29943800000000004,-0.000459,-0.0006219999999999999,0.005824,-25.0,20.25,-21.370001000000002,2c
2019-07-15_135542:680,-0.389954,0.025421,-0.307068,-0.002443,-0.001598,0.007075,-25.0,20.25,-21.370001000000002,2c
2019-07-15_135542:700,-0.396057,0.023375999999999997,-0.314697,-0.006441,-0.004894,0.00674,-25.0,20.25,-21.370001000000002,2c
2019-07-15_135542:720,-0.42147799999999996,0.009644,-0.315216,-0.010042,-0.0069700000000000005,0.005549,-24.559998999999998,20.68,-22.18,2c
2019-07-15_135542:740,-0.433167,-0.006072999999999999,-0.311646,-0.011293000000000001,-0.005566,0.004359,-24.559998999999998,20.68,-22.18,2c
2019-07-15_135542:760,-0.427063,-0.014221000000000001,-0.311646,-0.008974,-0.0020559999999999997,0.002315,-23.75,20.68,-23.75,2c
2019-07-15_135542:780,-0.415375,-0.002014,-0.305054,-0.005525,0.000233,0.001277,-23.75,20.68,-23.75,2c
2019-07-15_135542:800,-0.404175,0.004547,-0.30249000000000004,-0.003389,0.000965,0.001338,-23.75,20.68,-23.75,2c
2019-07-15_135542:820,-0.408752,0.0030210000000000002,-0.302002,-0.002779,-0.00037799999999999997,0.002009,-23.5,20.25,-22.18,2c
2019-07-15_135542:840,-0.417389,0.006072999999999999,-0.308075,-0.0008560000000000001,-0.000897,0.003474,-23.5,20.25,-22.18,2c
2019-07-15_135542:860,-0.411804,0.015747,-0.31012,0.000151,-0.000164,0.003963,-23.870001000000002,21.0,-22.559998999999998,2c
2019-07-15_135542:880,-0.41485600000000006,0.024384,-0.30654899999999996,-0.000978,0.000172,0.00442,-23.870001000000002,21.0,-22.559998999999998,2c
2019-07-15_135542:900,-0.405212,0.024384,-0.304535,-0.0034799999999999996,0.0005070000000000001,0.004878,-23.870001000000002,21.0,-22.559998999999998,2c
2019-07-15_135542:920,-0.407227,-0.002014,-0.29895,-0.006379999999999999,-0.0006219999999999999,0.0058850000000000005,-24.25,20.68,-22.559998999999998,2c
2019-07-15_135542:940,-0.410797,-0.010162000000000001,-0.30249000000000004,-0.005525,-0.001537,0.0065260000000000006,-24.25,20.68,-22.559998999999998,2c
2019-07-15_135542:960,-0.410797,-0.001007,-0.310638,-0.0019850000000000002,-0.0014759999999999999,0.005946,-24.25,20.68,-23.0,2c
2019-07-15_135542:980,-0.40774499999999997,0.0,-0.307587,-0.0007639999999999999,-0.0014759999999999999,0.004634,-24.25,20.68,-23.0,2c
2019-07-15_135543:000,-0.399109,0.0055850000000000006,-0.305054,-0.001161,-0.001324,0.004024,-24.25,20.68,-23.0,2c
2019-07-15_135543:020,-0.410278,0.0025329999999999997,-0.30249000000000004,-0.001771,-0.0023309999999999997,0.00381,-23.870001000000002,21.0,-22.559998999999998,2c
2019-07-15_135543:040,-0.409271,0.006072999999999999,-0.30249000000000004,-0.001771,-0.0024530000000000003,0.003016,-23.870001000000002,21.0,-22.559998999999998,2c
2019-07-15_135543:060,-0.39859,0.004059,-0.304016,-0.002443,-0.0027890000000000002,0.002711,-25.0,19.870001000000002,-22.559998999999998,2c
2019-07-15_135543:080,-0.401123,-0.012177,-0.304016,-0.0026260000000000003,-0.004772,0.0032909999999999997,-25.0,19.870001000000002,-22.559998999999998,2c
2019-07-15_135543:100,-0.416382,-0.014221000000000001,-0.30654899999999996,-0.001253,-0.006359,0.00381,-25.0,19.870001000000002,-22.559998999999998,2c
2019-07-15_135543:120,-0.437225,-0.014221000000000001,-0.330963,0.00247,-0.006298,0.0035659999999999997,-23.870001000000002,20.68,-22.18,2c
2019-07-15_135543:140,-0.402161,-0.006592,-0.302002,0.009642,-0.003124,0.009608,-23.870001000000002,20.68,-22.18,2c
2019-07-15_135543:160,-0.42248500000000005,-0.011687999999999999,-0.317749,0.010161,-0.003704,0.010981999999999999,-23.870001000000002,20.68,-23.370001000000002,2c
2019-07-15_135543:180,-0.41384899999999997,0.007111,-0.308075,0.010375,-0.001843,0.006862,-23.870001000000002,20.68,-23.370001000000002,2c
2019-07-15_135543:200,-0.39859,0.006072999999999999,-0.296906,0.008237999999999999,-0.000683,0.008204000000000001,-23.870001000000002,20.68,-23.370001000000002,2c
2019-07-15_135543:220,-0.390961,-0.004059,-0.300476,0.002074,-0.001873,0.007686,-23.870001000000002,21.68,-22.18,2c
2019-07-15_135543:240,-0.42605600000000005,0.0055850000000000006,-0.311646,-0.0018329999999999998,-0.00404,0.004146,-23.870001000000002,21.68,-22.18,2c
2019-07-15_135543:260,-0.416382,0.012695,-0.309601,-0.004915,-0.000286,0.0042369999999999994,-23.18,21.370001000000002,-23.370001000000002,2c
2019-07-15_135543:280,-0.417389,0.002014,-0.320282,-0.0068980000000000005,-0.0007740000000000001,0.003505,-23.18,21.370001000000002,-23.370001000000002,2c
2019-07-15_135543:300,-0.406219,-0.000488,-0.31723,-0.005525,-0.0005610000000000001,0.004359,-23.18,21.370001000000002,-23.370001000000002,2c
2019-07-15_135543:320,-0.396057,-0.015747,-0.296387,-0.003542,-0.0007440000000000001,0.008204000000000001,-23.5,21.68,-22.559998999999998,2c
2019-07-15_135543:340,-0.396545,-0.01828,-0.29538000000000003,-0.003725,-0.002239,0.007197,-23.5,21.68,-22.559998999999998,2c
2019-07-15_135543:360,-0.39859,-0.01828,-0.31369,-0.003725,-0.002575,0.001857,-22.75,21.370001000000002,-21.370001000000002,2c
2019-07-15_135543:380,-0.416901,-0.017792,-0.320282,-0.002168,-0.00172,-0.000676,-22.75,21.370001000000002,-21.370001000000002,2c
2019-07-15_135543:400,-0.40063499999999996,-0.008636,-0.304016,-0.0036030000000000003,-0.002575,-0.00033999999999999997,-22.75,21.370001000000002,-21.370001000000002,2c
2019-07-15_135543:420,-0.41586300000000004,-0.011687999999999999,-0.311127,-0.002046,-0.0014759999999999999,0.001674,-23.5,22.059998999999998,-23.0,2c
2019-07-15_135543:440,-0.409271,-0.006592,-0.307068,-0.002443,-0.001324,0.000453,-23.5,22.059998999999998,-23.0,2c
2019-07-15_135543:460,-0.416382,-0.007111,-0.30300900000000003,-0.006197,-0.0011099999999999999,-0.006444,-23.870001000000002,21.370001000000002,-22.18,2c
2019-07-15_135543:480,-0.421967,-0.005065999999999999,-0.32132,-0.006532,0.000843,-0.005986,-23.870001000000002,21.370001000000002,-22.18,2c
2019-07-15_135543:500,-0.421967,-0.0030210000000000002,-0.320801,-0.002443,0.003803,0.0024059999999999997,-23.870001000000002,21.370001000000002,-22.18,2c
2019-07-15_135543:520,-0.406219,-0.005065999999999999,-0.309113,-0.002229,0.0036200000000000004,0.0025280000000000003,-23.18,21.370001000000002,-21.75,2c
2019-07-15_135543:540,-0.401642,0.001007,-0.305542,-0.004243,0.0026739999999999997,-0.001073,-23.18,21.370001000000002,-21.75,2c
2019-07-15_135543:560,-0.39859,0.008636,-0.30300900000000003,-0.005525,0.001179,0.000148,-22.059998999999998,21.0,-22.559998999999998,2c
2019-07-15_135543:580,-0.40316799999999997,-0.004059,-0.300964,-0.006197,-0.000103,-0.000524,-22.059998999999998,21.0,-22.559998999999998,2c
2019-07-15_135543:600,-0.40976,-0.012177,-0.305542,-0.003999,-0.000164,8.7e-05,-22.059998999999998,21.0,-22.559998999999998,2c
2019-07-15_135543:620,-0.406219,-0.014221000000000001,-0.308075,-0.0016190000000000002,-0.0007440000000000001,0.000606,-23.870001000000002,21.370001000000002,-21.75,2c
2019-07-15_135543:640,-0.416901,-0.002014,-0.305542,-0.000642,0.00011100000000000001,-0.000188,-23.870001000000002,21.370001000000002,-21.75,2c
2019-07-15_135543:660,-0.416901,0.005065999999999999,-0.307587,-0.001222,0.000294,-0.000646,-24.25,21.370001000000002,-22.18,2c
2019-07-15_135543:680,-0.408752,0.0055850000000000006,-0.306061,-0.004243,0.000294,-0.001134,-24.25,21.370001000000002,-22.18,2c
2019-07-15_135543:700,-0.411804,0.0,-0.30654899999999996,-0.0039380000000000005,0.000446,-0.001531,-24.25,21.370001000000002,-22.18,2c
2019-07-15_135543:720,-0.41232299999999994,0.000488,-0.307068,-0.0025039999999999997,0.0007509999999999999,-0.000737,-23.870001000000002,20.25,-21.370001000000002,2c
2019-07-15_135543:740,-0.410797,0.009125,-0.305542,-0.0028399999999999996,0.0011480000000000001,0.000545,-23.870001000000002,20.25,-21.370001000000002,2c
2019-07-15_135543:760,-0.411804,0.018799,-0.30300900000000003,-0.003389,0.0011480000000000001,0.001338,-23.870001000000002,20.25,-21.370001000000002,2c
2019-07-15_135543:780,-0.411804,-0.0030210000000000002,-0.298431,-0.005647,0.000629,0.0024059999999999997,-24.25,21.0,-23.0,2c
2019-07-15_135543:800,-0.412811,-0.013213999999999998,-0.29895,-0.0028399999999999996,0.000446,0.000789,-24.25,21.0,-23.0,2c
2019-07-15_135543:820,-0.40976,-0.011169,-0.30300900000000003,9e-05,0.000172,-0.001317,-23.870001000000002,21.0,-22.18,2c
2019-07-15_135543:840,-0.41485600000000006,0.0,-0.30654899999999996,0.0008230000000000001,0.000629,-0.00147,-23.870001000000002,21.0,-22.18,2c
2019-07-15_135543:860,-0.410797,0.010162000000000001,-0.300476,0.00067,0.0005679999999999999,-0.001256,-24.68,20.68,-21.75,2c
2019-07-15_135543:880,-0.40976,0.002014,-0.29943800000000004,-3.2e-05,-0.000225,-0.000859,-24.68,20.68,-21.75,2c
2019-07-15_135543:900,-0.411285,-0.0025329999999999997,-0.297913,0.001952,-0.000286,0.00020899999999999998,-24.68,20.68,-21.75,2c
2019-07-15_135543:920,-0.41842700000000005,0.008118,-0.308594,0.002867,-0.000286,0.001277,-24.25,21.0,-22.18,2c
2019-07-15_135543:940,-0.41232299999999994,0.012695,-0.307068,0.001036,0.0006900000000000001,0.00323,-24.25,21.0,-22.18,2c
2019-07-15_135543:960,-0.41485600000000006,0.011687999999999999,-0.305054,9e-05,0.0005679999999999999,0.00323,-24.25,21.0,-22.18,2c
2019-07-15_135543:980,-0.416382,0.004059,-0.300964,-0.0018329999999999998,0.000843,0.00265,-25.0,21.0,-22.18,2c
2019-07-15_135544:000,-0.406738,-0.009644,-0.300476,-0.0016190000000000002,0.000965,0.00265,-25.0,21.0,-22.18,2c
2019-07-15_135544:020,-0.41842700000000005,-0.0035399999999999997,-0.29742399999999997,2.8999999999999997e-05,0.000294,0.00381,-23.870001000000002,21.370001000000002,-21.370001000000002,2c
2019-07-15_135544:040,-0.41943400000000003,-0.0055850000000000006,-0.30300900000000003,0.001952,0.000782,0.003749,-23.870001000000002,21.370001000000002,-21.370001000000002,2c
2019-07-15_135544:060,-0.42858900000000005,0.010162000000000001,-0.307068,0.000487,0.001179,0.001124,-24.68,21.370001000000002,-21.0,2c
2019-07-15_135544:080,-0.415375,0.010651,-0.302002,-0.0016190000000000002,0.002613,0.00020899999999999998,-24.68,21.370001000000002,-21.0,2c
2019-07-15_135544:100,-0.404175,0.0025329999999999997,-0.296906,-0.003084,0.0005070000000000001,-0.000524,-24.68,21.370001000000002,-21.0,2c
2019-07-15_135544:120,-0.41586300000000004,0.0,-0.297913,-0.0026260000000000003,0.000294,-0.001256,-24.25,20.68,-21.0,2c
2019-07-15_135544:140,-0.441803,-0.002014,-0.306061,-0.001314,0.004414,-0.0023239999999999997,-24.25,20.68,-21.0,2c
2019-07-15_135544:160,-0.425018,0.005065999999999999,-0.304535,-0.000246,0.005756,-0.0013779999999999999,-24.25,20.68,-21.0,2c
2019-07-15_135544:180,-0.417908,-0.001007,-0.304535,0.0014939999999999999,0.007404000000000001,0.000484,-25.0,20.25,-21.75,2c
2019-07-15_135544:200,-0.427063,0.0035399999999999997,-0.295898,0.001952,0.007526000000000001,0.000392,-25.0,20.25,-21.75,2c
2019-07-15_135544:220,-0.44384799999999996,0.009125,-0.293854,0.002348,0.00951,-0.00033999999999999997,-24.68,21.0,-21.75,2c
2019-07-15_135544:240,-0.408752,0.009644,-0.304535,0.001616,0.012440000000000001,-0.002995,-24.68,21.0,-21.75,2c
2019-07-15_135544:260,-0.40976,0.013213999999999998,-0.305054,0.000151,0.011524,-0.005589,-24.68,21.0,-21.75,2c
2019-07-15_135544:280,-0.402161,0.001495,-0.29538000000000003,-0.000368,0.00951,-0.005712,-25.370001000000002,21.0,-20.18,2c
2019-07-15_135544:300,-0.415375,0.006072999999999999,-0.294373,0.0015550000000000002,0.007281999999999999,-0.005437,-25.370001000000002,21.0,-20.18,2c
2019-07-15_135544:320,-0.42453,0.0055850000000000006,-0.290802,0.004881,0.006732999999999999,-0.006352,-25.370001000000002,21.370001000000002,-19.75,2c
2019-07-15_135544:340,-0.42147799999999996,0.010162000000000001,-0.282654,0.006529000000000001,0.006885,-0.0076950000000000005,-25.370001000000002,21.370001000000002,-19.75,2c
2019-07-15_135544:360,-0.425537,0.014221000000000001,-0.283173,0.007658,0.006275,-0.005315,-25.370001000000002,21.370001000000002,-19.75,2c
2019-07-15_135544:380,-0.438751,0.012695,-0.281647,0.007445,0.007281999999999999,-0.003179,-26.059998999999998,21.0,-20.559998999999998,2c
2019-07-15_135544:400,-0.43670699999999996,0.012695,-0.278595,0.006804000000000001,0.008594,-0.002049,-26.059998999999998,21.0,-20.559998999999998,2c
2019-07-15_135544:420,-0.432159,0.010162000000000001,-0.279633,0.004607,0.009998,0.0012460000000000001,-26.059998999999998,21.0,-19.370001000000002,2c
2019-07-15_135544:440,-0.433167,-0.0035399999999999997,-0.275055,0.0036,0.010914,0.0036270000000000004,-26.059998999999998,21.0,-19.370001000000002,2c
2019-07-15_135544:460,-0.423492,-0.006592,-0.271484,0.0036609999999999998,0.011859999999999999,0.000606,-26.059998999999998,21.0,-19.370001000000002,2c
2019-07-15_135544:480,-0.454529,-0.013213999999999998,-0.268433,0.0038130000000000004,0.011372,-0.0023239999999999997,-25.68,21.68,-19.75,2c
2019-07-15_135544:500,-0.44638100000000003,-0.009644,-0.262848,0.004332,0.012592,-0.002263,-25.68,21.68,-19.75,2c
2019-07-15_135544:520,-0.42248500000000005,-0.009644,-0.265381,0.003325,0.012318,0.001338,-27.18,20.68,-17.0,2c
2019-07-15_135544:540,-0.418915,-0.001495,-0.260803,0.0017989999999999998,0.010639000000000001,0.004298,-27.18,20.68,-17.0,2c
2019-07-15_135544:560,-0.43011499999999997,-0.005065999999999999,-0.255707,-3.2e-05,0.008076,0.001277,-27.18,20.68,-17.0,2c
2019-07-15_135544:580,-0.44027700000000003,-0.002014,-0.251648,-0.001558,0.006611,-0.005956,-27.25,20.25,-19.5,2c
2019-07-15_135544:600,-0.431122,0.001495,-0.251648,-0.001436,0.006672,-0.00855,-27.25,20.25,-19.5,2c
2019-07-15_135544:620,-0.42758199999999996,0.0035399999999999997,-0.252686,-0.001314,0.006275,-0.007756,-27.18,20.25,-19.370001000000002,2c
2019-07-15_135544:640,-0.421967,0.0055850000000000006,-0.25012199999999996,-0.001222,0.004475,-0.006719,-27.18,20.25,-19.370001000000002,2c
2019-07-15_135544:660,-0.426544,0.008636,-0.24963400000000002,-0.000642,0.00182,-0.006901999999999999,-27.18,20.25,-19.370001000000002,2c
2019-07-15_135544:680,-0.430634,0.010651,-0.25216700000000003,-0.000185,-0.000225,-0.007176,-28.25,20.68,-17.370001000000002,2c
2019-07-15_135544:700,-0.44638100000000003,0.016753999999999998,-0.256226,0.000609,-0.001324,-0.005589,-28.25,20.68,-17.370001000000002,2c
2019-07-15_135544:720,-0.425537,0.019806,-0.2659,0.0009449999999999999,-0.000683,-0.003575,-28.25,19.870001000000002,-17.75,2c
2019-07-15_135544:740,-0.43823199999999995,0.019806,-0.263855,0.0005480000000000001,-0.001446,-0.003453,-28.25,19.870001000000002,-17.75,2c
2019-07-15_135544:760,-0.435699,0.024384,-0.260803,0.000365,-0.0014759999999999999,-0.002782,-28.25,19.870001000000002,-17.75,2c
2019-07-15_135544:780,-0.438751,0.020844,-0.256226,-0.000459,-0.001263,-0.002721,-28.0,20.25,-17.370001000000002,2c
2019-07-15_135544:800,-0.42858900000000005,0.023895,-0.255707,-0.001314,-0.00172,-0.001866,-28.0,20.25,-17.370001000000002,2c
2019-07-15_135544:820,-0.432648,0.020844,-0.260284,-0.002779,-0.0027890000000000002,0.00088,-28.0,20.25,-18.18,2c
2019-07-15_135544:840,-0.434174,0.015747,-0.261322,-0.0033280000000000002,-0.003979,0.002467,-28.0,20.25,-18.18,2c
2019-07-15_135544:860,-0.43823199999999995,0.015228,-0.264374,-0.003206,-0.004711,0.001124,-28.0,20.25,-18.18,2c
2019-07-15_135544:880,-0.44638100000000003,0.019318000000000002,-0.260803,-0.002748,-0.004711,5.6000000000000006e-05,-29.0,19.870001000000002,-17.370001000000002,2c
2019-07-15_135544:900,-0.438751,0.020844,-0.258759,-0.0026260000000000003,-0.003582,-0.001042,-29.0,19.870001000000002,-17.370001000000002,2c
2019-07-15_135544:920,-0.441803,0.021851,-0.259796,-0.0029010000000000004,-0.00346,-0.001592,-28.68,19.870001000000002,-18.559998999999998,2c
2019-07-15_135544:940,-0.43823199999999995,0.023895,-0.254211,-0.003114,-0.003124,-0.000798,-28.68,19.870001000000002,-18.559998999999998,2c
2019-07-15_135544:960,-0.439758,0.024384,-0.25827,-0.003999,-0.0031850000000000003,-0.001073,-28.68,19.870001000000002,-18.559998999999998,2c
2019-07-15_135544:980,-0.43823199999999995,0.026427999999999997,-0.261322,-0.004732,-0.0030629999999999998,-0.000524,-29.75,19.5,-17.75,2c
2019-07-15_135545:000,-0.434174,0.024384,-0.262848,-0.006104999999999999,-0.003307,0.00020899999999999998,-29.75,19.5,-17.75,2c
2019-07-15_135545:020,-0.427063,0.021851,-0.265381,-0.006441,-0.004131,-0.000585,-28.25,19.5,-18.559998999999998,2c
2019-07-15_135545:040,-0.431122,0.025908999999999998,-0.264862,-0.005922,-0.005779,-0.001927,-28.25,19.5,-18.559998999999998,2c
2019-07-15_135545:060,-0.432648,0.026427999999999997,-0.264862,-0.005464,-0.006115,-0.000737,-28.25,19.5,-18.559998999999998,2c
2019-07-15_135545:080,-0.43621800000000005,0.028961,-0.263336,-0.0049759999999999995,-0.006634,0.0010630000000000001,-28.68,19.870001000000002,-17.75,2c
2019-07-15_135545:100,-0.437225,0.032013,-0.263855,-0.005067,-0.006573000000000001,0.0024059999999999997,-28.68,19.870001000000002,-17.75,2c
2019-07-15_135545:120,-0.420959,0.029480000000000003,-0.272003,-0.00525,-0.0053219999999999995,0.0028940000000000003,-28.25,19.18,-19.75,2c
2019-07-15_135545:140,-0.44027700000000003,0.025421,-0.276062,-0.005128,-0.005718,0.001277,-28.25,19.18,-19.75,2c
2019-07-15_135545:160,-0.42807,0.023895,-0.275055,-0.004671,-0.0053219999999999995,0.000453,-28.25,19.18,-19.75,2c
2019-07-15_135545:180,-0.430634,0.024384,-0.278595,-0.0038469999999999997,-0.004986,0.000606,-29.0,19.18,-18.559998999999998,2c
2019-07-15_135545:200,-0.441284,0.029968,-0.279114,-0.003023,-0.004833,0.0010019999999999999,-29.0,19.18,-18.559998999999998,2c
2019-07-15_135545:220,-0.44232200000000005,0.032532,-0.28112800000000004,-0.0025039999999999997,-0.002605,0.001582,-28.0,18.75,-19.0,2c
2019-07-15_135545:240,-0.43927,0.034058,-0.282166,-0.002687,-0.000897,0.0024059999999999997,-28.0,18.75,-19.0,2c
2019-07-15_135545:260,-0.432648,0.029968,-0.276062,-0.0026260000000000003,0.00038500000000000003,0.002254,-28.0,18.75,-19.0,2c
2019-07-15_135545:280,-0.42758199999999996,0.029480000000000003,-0.276581,-0.002229,0.0005070000000000001,0.0012460000000000001,-27.18,19.18,-18.18,2c
2019-07-15_135545:300,-0.423004,0.028442000000000002,-0.26944,-0.001497,0.00011100000000000001,0.0012460000000000001,-27.18,19.18,-18.18,2c
2019-07-15_135545:320,-0.427063,0.029480000000000003,-0.270477,-0.000825,-0.0011099999999999999,0.001674,-28.68,18.370001000000002,-20.18,2c
2019-07-15_135545:340,-0.431641,0.034058,-0.268951,-3.2e-05,-0.0016589999999999999,0.002009,-28.68,18.370001000000002,-20.18,2c
2019-07-15_135545:360,-0.43774399999999997,0.03302,-0.274536,-0.000246,-0.001934,0.002711,-28.68,18.370001000000002,-20.18,2c
2019-07-15_135545:380,-0.431641,0.035583,-0.275055,-0.0007639999999999999,-0.001446,0.002711,-28.370001000000002,18.75,-18.25,2c
2019-07-15_135545:400,-0.43011499999999997,0.03302,-0.274017,-0.001314,-0.001446,0.002955,-28.370001000000002,18.75,-18.25,2c
2019-07-15_135545:420,-0.427063,0.03302,-0.269958,-0.00229,-0.0014759999999999999,0.002833,-28.370001000000002,18.75,-18.68,2c
2019-07-15_135545:440,-0.42858900000000005,0.029968,-0.270477,-0.0029620000000000002,-0.0023309999999999997,0.002742,-28.370001000000002,18.75,-18.68,2c
2019-07-15_135545:460,-0.431641,0.025421,-0.273529,-0.003389,-0.002728,0.003505,-28.370001000000002,18.75,-18.68,2c
2019-07-15_135545:480,-0.434692,0.024384,-0.276062,-0.003114,-0.002575,0.003871,-29.059998999999998,19.5,-19.059998999999998,2c
2019-07-15_135545:500,-0.434692,0.025908999999999998,-0.274017,-0.002687,-0.0023309999999999997,0.0035659999999999997,-29.059998999999998,19.5,-19.059998999999998,2c
2019-07-15_135545:520,-0.426544,0.024384,-0.275055,-0.002687,-0.00172,0.003016,-28.059998999999998,19.5,-18.68,2c
2019-07-15_135545:540,-0.42248500000000005,0.026917,-0.27301,-0.0023510000000000002,-0.001934,0.002711,-28.059998999999998,19.5,-18.68,2c
2019-07-15_135545:560,-0.425537,0.025908999999999998,-0.276062,-0.002748,-0.0031850000000000003,0.0025280000000000003,-28.059998999999998,19.5,-18.68,2c
2019-07-15_135545:580,-0.431122,0.025421,-0.278107,-0.0025039999999999997,-0.003918,0.002711,-28.370001000000002,19.870001000000002,-19.870001000000002,2c
2019-07-15_135545:600,-0.434692,0.027435,-0.279114,-0.00229,-0.0035210000000000003,0.002742,-28.370001000000002,19.870001000000002,-19.870001000000002,2c
2019-07-15_135545:620,-0.434174,0.027435,-0.280121,-0.0023510000000000002,-0.002514,0.002589,-27.68,19.18,-19.5,2c
2019-07-15_135545:640,-0.432648,0.027954000000000003,-0.279633,-0.0019850000000000002,-0.002117,0.003016,-27.68,19.18,-19.5,2c
2019-07-15_135545:660,-0.43011499999999997,0.026427999999999997,-0.280121,-0.001955,-0.0016589999999999999,0.0034130000000000002,-27.68,19.18,-19.5,2c
2019-07-15_135545:680,-0.42758199999999996,0.027435,-0.277588,-0.0019850000000000002,-0.001995,0.003474,-28.059998999999998,20.25,-18.25,2c
2019-07-15_135545:700,-0.425537,0.028442000000000002,-0.275055,-0.002443,-0.0023309999999999997,0.0034130000000000002,-28.059998999999998,20.25,-18.25,2c
2019-07-15_135545:720,-0.430634,0.029968,-0.278595,-0.003084,-0.002667,0.003474,-28.0,18.75,-18.68,2c
2019-07-15_135545:740,-0.435699,0.027954000000000003,-0.278107,-0.003389,-0.002239,0.0035659999999999997,-28.0,18.75,-18.68,2c
2019-07-15_135545:760,-0.434692,0.026427999999999997,-0.278595,-0.003664,-0.001324,0.0028940000000000003,-28.0,18.75,-18.68,2c
2019-07-15_135545:780,-0.429108,0.027435,-0.277069,-0.00406,-0.000897,0.002833,-28.68,19.870001000000002,-18.68,2c
2019-07-15_135545:800,-0.42758199999999996,0.027435,-0.274536,-0.0038469999999999997,-0.0008349999999999999,0.003016,-28.68,19.870001000000002,-18.68,2c
2019-07-15_135545:820,-0.423492,0.024902,-0.272491,-0.004457,-0.001446,0.002711,-28.0,19.870001000000002,-19.059998999999998,2c
2019-07-15_135545:840,-0.423004,0.024902,-0.270966,-0.004274,-0.0020559999999999997,0.002742,-28.0,19.870001000000002,-19.059998999999998,2c
2019-07-15_135545:860,-0.42858900000000005,0.023895,-0.277069,-0.0038469999999999997,-0.002575,0.0036270000000000004,-28.0,19.870001000000002,-19.059998999999998,2c
2019-07-15_135545:880,-0.441284,0.021851,-0.277588,-0.0032670000000000004,-0.0021780000000000002,0.0035659999999999997,-28.0,19.5,-19.5,2c
2019-07-15_135545:900,-0.431122,0.023375999999999997,-0.279114,-0.002779,-0.001324,0.0036270000000000004,-28.0,19.5,-19.5,2c
2019-07-15_135545:920,-0.426544,0.024902,-0.276581,-0.002687,-0.001385,0.0027719999999999997,-27.559998999999998,19.5,-19.059998999999998,2c
2019-07-15_135545:940,-0.425018,0.025908999999999998,-0.276062,-0.002565,-0.001598,0.002009,-27.559998999999998,19.5,-19.059998999999998,2c
2019-07-15_135545:960,-0.426544,0.025908999999999998,-0.277588,-0.0028399999999999996,-0.00227,0.0024059999999999997,-27.559998999999998,19.5,-19.059998999999998,2c
2019-07-15_135545:980,-0.43011499999999997,0.025421,-0.279114,-0.003084,-0.002605,0.002711,-28.0,20.25,-18.68,2c
2019-07-15_135546:000,-0.435699,0.024384,-0.28064,-0.0026260000000000003,-0.001995,0.002467,-28.0,20.25,-18.68,2c
2019-07-15_135546:020,-0.431641,0.026917,-0.278107,-0.0026260000000000003,-0.001537,0.0024059999999999997,-28.0,19.18,-18.68,2c
2019-07-15_135546:040,-0.42453,0.028442000000000002,-0.275543,-0.002748,-0.001446,0.0034130000000000002,-28.0,19.18,-18.68,2c
2019-07-15_135546:060,-0.425018,0.028442000000000002,-0.277069,-0.0033280000000000002,-0.001934,0.0036270000000000004,-28.0,19.18,-18.68,2c
2019-07-15_135546:080,-0.425537,0.027435,-0.276062,-0.0036030000000000003,-0.002392,0.0036880000000000003,-28.25,19.5,-18.68,2c
2019-07-15_135546:100,-0.431122,0.025908999999999998,-0.279114,-0.004396,-0.002514,0.0036880000000000003,-28.25,19.5,-18.68,2c
2019-07-15_135546:120,-0.433655,0.024902,-0.278595,-0.004518,-0.0021780000000000002,0.004085,-28.0,19.18,-20.68,2c
2019-07-15_135546:140,-0.431641,0.023375999999999997,-0.278107,-0.004274,-0.0014759999999999999,0.004207,-28.0,19.18,-20.68,2c
2019-07-15_135546:160,-0.44281000000000004,0.019806,-0.274017,-0.004121,-0.00108,0.004298,-28.0,19.18,-20.68,2c
2019-07-15_135546:180,-0.420959,0.021332,-0.276062,-0.003664,0.000172,0.0036270000000000004,-28.059998999999998,19.5,-19.059998999999998,2c
2019-07-15_135546:200,-0.42453,0.025908999999999998,-0.278107,-0.003664,-0.0007440000000000001,0.002955,-28.059998999999998,19.5,-19.059998999999998,2c
2019-07-15_135546:220,-0.42401099999999997,0.025908999999999998,-0.275055,-0.003725,-0.001141,0.003078,-28.059998999999998,18.75,-19.059998999999998,2c
2019-07-15_135546:240,-0.43011499999999997,0.023375999999999997,-0.278107,-0.003999,-0.001446,0.0028940000000000003,-28.059998999999998,18.75,-19.059998999999998,2c
2019-07-15_135546:260,-0.429108,0.024384,-0.277588,-0.003664,-0.000958,0.0027719999999999997,-28.059998999999998,18.75,-19.059998999999998,2c
2019-07-15_135546:280,-0.425537,0.023895,-0.278107,-0.0033280000000000002,-0.0007740000000000001,0.002833,-28.059998999999998,18.75,-19.5,2c
2019-07-15_135546:300,-0.421967,0.024902,-0.276062,-0.0032670000000000004,-0.001446,0.002589,-28.059998999999998,18.75,-19.5,2c
2019-07-15_135546:320,-0.42147799999999996,0.026427999999999997,-0.276581,-0.003145,-0.002514,0.002589,-28.059998999999998,19.870001000000002,-20.25,2c
2019-07-15_135546:340,-0.425018,0.024902,-0.276062,-0.003389,-0.0035210000000000003,0.002315,-28.059998999999998,19.870001000000002,-20.25,2c
2019-07-15_135546:360,-0.42758199999999996,0.025908999999999998,-0.278107,-0.003389,-0.003704,0.002376,-28.059998999999998,19.870001000000002,-20.25,2c
2019-07-15_135546:380,-0.43518100000000004,0.026427999999999997,-0.281647,-0.003542,-0.0030629999999999998,0.0025280000000000003,-28.059998999999998,19.5,-19.059998999999998,2c
2019-07-15_135546:400,-0.434692,0.026917,-0.28369099999999997,-0.0033280000000000002,-0.001782,0.002711,-28.059998999999998,19.5,-19.059998999999998,2c
2019-07-15_135546:420,-0.431641,0.028961,-0.28418000000000004,-0.00345,-0.001141,0.002955,-28.370001000000002,19.5,-19.870001000000002,2c
2019-07-15_135546:440,-0.431122,0.028442000000000002,-0.28112800000000004,-0.003725,-0.000439,0.00323,-28.370001000000002,19.5,-19.870001000000002,2c
2019-07-15_135546:460,-0.421967,0.028442000000000002,-0.276062,-0.00406,1.9e-05,0.00323,-28.370001000000002,19.5,-19.870001000000002,2c
2019-07-15_135546:480,-0.427063,0.028961,-0.276581,-0.004274,-0.0005610000000000001,0.0031079999999999997,-27.25,19.18,-19.059998999999998,2c
2019-07-15_135546:500,-0.430634,0.027435,-0.276581,-0.004182,-0.0005610000000000001,0.00323,-27.25,19.18,-19.059998999999998,2c
2019-07-15_135546:520,-0.432648,0.025421,-0.282166,-0.00406,1.9e-05,0.0033520000000000004,-27.68,19.18,-20.68,2c
2019-07-15_135546:540,-0.434692,0.024902,-0.281647,-0.003786,0.0005070000000000001,0.0028940000000000003,-27.68,19.18,-20.68,2c
2019-07-15_135546:560,-0.42807,0.025421,-0.280121,-0.00345,0.0011480000000000001,0.0027719999999999997,-27.68,19.18,-20.68,2c
2019-07-15_135546:580,-0.427063,0.027435,-0.279114,-0.003145,0.0016359999999999999,0.002589,-27.68,19.18,-20.68,2c
2019-07-15_135546:600,-0.43011499999999997,0.026917,-0.276581,-0.00345,0.001179,0.002742,-27.68,19.18,-20.68,2c
2019-07-15_135546:620,-0.43011499999999997,0.028961,-0.276581,-0.0038770000000000002,0.00124,0.0028940000000000003,-28.059998999999998,19.18,-17.059998999999998,2c
2019-07-15_135546:640,-0.429596,0.027954000000000003,-0.276062,-0.0038770000000000002,0.001575,0.0028940000000000003,-28.059998999999998,19.18,-17.059998999999998,2c
2019-07-15_135546:660,-0.425537,0.028961,-0.275543,-0.004121,0.001301,0.002315,-28.059998999999998,19.18,-17.059998999999998,2c
2019-07-15_135546:680,-0.42453,0.027954000000000003,-0.276062,-0.004243,0.0010869999999999999,0.002589,-28.370001000000002,19.18,-18.68,2c
2019-07-15_135546:700,-0.42807,0.027435,-0.278107,-0.004274,0.0007509999999999999,0.0033520000000000004,-28.370001000000002,19.18,-18.68,2c
2019-07-15_135546:720,-0.429108,0.026427999999999997,-0.278107,-0.004121,0.00035499999999999996,0.003749,-27.68,18.75,-19.059998999999998,2c
2019-07-15_135546:740,-0.430634,0.025421,-0.276581,-0.0038770000000000002,0.0006900000000000001,0.004085,-27.68,18.75,-19.059998999999998,2c
2019-07-15_135546:760,-0.429108,0.024902,-0.275543,-0.0034799999999999996,0.000629,0.004481000000000001,-27.68,18.75,-19.059998999999998,2c
2019-07-15_135546:780,-0.42807,0.026917,-0.27301,-0.003145,0.000782,0.004603,-20.68,19.870001000000002,-18.68,2c
2019-07-15_135546:800,-0.43011499999999997,0.025421,-0.275055,-0.0033280000000000002,0.0007509999999999999,0.004146,-20.68,19.870001000000002,-18.68,2c
2019-07-15_135546:820,-0.431122,0.024384,-0.274536,-0.0034799999999999996,0.00035499999999999996,0.003871,-27.68,19.18,-18.559998999999998,2c
2019-07-15_135546:840,-0.433167,0.024384,-0.274017,-0.003145,0.000446,0.003901,-27.68,19.18,-18.559998999999998,2c
2019-07-15_135546:860,-0.43670699999999996,0.024902,-0.274536,-0.0038770000000000002,0.000446,0.003749,-27.68,19.18,-18.559998999999998,2c
2019-07-15_135546:880,-0.432159,0.024902,-0.272003,-0.0039380000000000005,0.000904,0.003749,-28.059998999999998,19.870001000000002,-17.870001000000002,2c
2019-07-15_135546:900,-0.42807,0.021332,-0.268951,-0.003725,0.0010869999999999999,0.0034130000000000002,-28.059998999999998,19.870001000000002,-17.870001000000002,2c
2019-07-15_135546:920,-0.431122,0.021851,-0.270477,-0.003725,0.000446,0.002955,-28.370001000000002,19.5,-18.25,2c
2019-07-15_135546:940,-0.432159,0.024384,-0.270477,-0.00345,0.00011100000000000001,0.0032909999999999997,-28.370001000000002,19.5,-18.25,2c
2019-07-15_135546:960,-0.432648,0.023375999999999997,-0.271484,-0.0034799999999999996,0.000233,0.0034130000000000002,-28.370001000000002,19.5,-18.25,2c
2019-07-15_135546:980,-0.432648,0.024902,-0.270966,-0.0033280000000000002,0.000629,0.0032909999999999997,-28.059998999999998,19.870001000000002,-18.25,2c
2019-07-15_135547:000,-0.432648,0.023895,-0.26944,-0.0034799999999999996,0.0006900000000000001,0.00323,-28.059998999999998,19.870001000000002,-18.25,2c
2019-07-15_135547:020,-0.432159,0.023895,-0.272003,-0.0036030000000000003,0.0006900000000000001,0.003078,-28.370001000000002,19.5,-18.68,2c
2019-07-15_135547:040,-0.43011499999999997,0.022369,-0.269958,-0.0034799999999999996,0.000294,0.0027719999999999997,-28.370001000000002,19.5,-18.68,2c
2019-07-15_135547:060,-0.42858900000000005,0.022858,-0.267426,-0.0034799999999999996,-0.000103,0.002467,-28.370001000000002,19.5,-18.68,2c
2019-07-15_135547:080,-0.429108,0.021851,-0.267914,-0.0029620000000000002,-0.0008349999999999999,0.002467,-27.25,20.25,-17.059998999999998,2c
2019-07-15_135547:100,-0.429596,0.025421,-0.266907,-0.0028399999999999996,-0.001843,0.002315,-27.25,20.25,-17.059998999999998,2c
2019-07-15_135547:120,-0.43011499999999997,0.025908999999999998,-0.26944,-0.002382,-0.0021780000000000002,0.002467,-28.059998999999998,19.870001000000002,-18.68,2c
2019-07-15_135547:140,-0.431641,0.025908999999999998,-0.268433,-0.002687,-0.002605,0.002589,-28.059998999999998,19.870001000000002,-18.68,2c
2019-07-15_135547:160,-0.434174,0.025908999999999998,-0.270477,-0.0028399999999999996,-0.002392,0.002742,-28.059998999999998,19.870001000000002,-18.68,2c
2019-07-15_135547:180,-0.433655,0.026917,-0.272003,-0.003114,-0.0024530000000000003,0.002742,-28.75,20.25,-19.059998999999998,2c
2019-07-15_135547:200,-0.434174,0.025908999999999998,-0.271484,-0.0034799999999999996,-0.002239,0.002711,-28.75,20.25,-19.059998999999998,2c
2019-07-15_135547:220,-0.432648,0.026427999999999997,-0.270966,-0.003786,-0.002239,0.002467,-27.25,19.18,-19.059998999999998,2c
2019-07-15_135547:240,-0.432648,0.024902,-0.272491,-0.003725,-0.0020559999999999997,0.002467,-27.25,19.18,-19.059998999999998,2c
2019-07-15_135547:260,-0.434692,0.023895,-0.272491,-0.0034799999999999996,-0.0020559999999999997,0.002376,-27.25,19.18,-19.059998999999998,2c
2019-07-15_135547:280,-0.434692,0.021332,-0.275055,-0.003206,-0.001598,0.0021920000000000004,-27.25,19.18,-18.25,2c
2019-07-15_135547:300,-0.433167,0.023375999999999997,-0.272491,-0.0028399999999999996,-0.001019,0.002254,-27.25,19.18,-18.25,2c
2019-07-15_135547:320,-0.43011499999999997,0.022858,-0.272491,-0.002565,-0.000897,0.00207,-27.68,19.18,-19.059998999999998,2c
2019-07-15_135547:340,-0.431122,0.025908999999999998,-0.270477,-0.0025039999999999997,-0.001141,0.001857,-27.68,19.18,-19.059998999999998,2c
2019-07-15_135547:360,-0.42858900000000005,0.027954000000000003,-0.268951,-0.0026260000000000003,-0.001598,0.002009,-27.68,19.18,-19.059998999999998,2c
2019-07-15_135547:380,-0.42605600000000005,0.028442000000000002,-0.270477,-0.0029620000000000002,-0.00227,0.0016129999999999999,-26.559998999999998,19.5,-20.68,2c
2019-07-15_135547:400,-0.42758199999999996,0.028442000000000002,-0.270477,-0.0033280000000000002,-0.002972,0.001124,-26.559998999999998,19.5,-20.68,2c
2019-07-15_135547:420,-0.43011499999999997,0.028442000000000002,-0.275055,-0.003145,-0.003124,0.001399,-28.059998999999998,18.75,-19.870001000000002,2c
2019-07-15_135547:440,-0.431641,0.027954000000000003,-0.275543,-0.003084,-0.003124,0.00265,-28.059998999999998,18.75,-19.870001000000002,2c
2019-07-15_135547:460,-0.433167,0.027435,-0.277069,-0.003023,-0.002728,0.0027719999999999997,-28.059998999999998,18.75,-19.870001000000002,2c
2019-07-15_135547:480,-0.43011499999999997,0.026427999999999997,-0.276062,-0.002779,-0.002605,0.002742,-28.059998999999998,19.870001000000002,-19.5,2c
2019-07-15_135547:500,-0.43011499999999997,0.027435,-0.275543,-0.0026260000000000003,-0.002667,0.0032909999999999997,-28.059998999999998,19.870001000000002,-19.5,2c
2019-07-15_135547:520,-0.431122,0.026917,-0.275543,-0.002687,-0.0024530000000000003,0.0035659999999999997,-27.25,19.18,-19.059998999999998,2c
2019-07-15_135547:540,-0.431641,0.026917,-0.274017,-0.0029010000000000004,-0.00227,0.003474,-27.25,19.18,-19.059998999999998,2c
2019-07-15_135547:560,-0.430634,0.025421,-0.275055,-0.0032670000000000004,-0.0021780000000000002,0.0031079999999999997,-27.25,19.18,-19.059998999999998,2c
2019-07-15_135547:580,-0.432159,0.025421,-0.275055,-0.0029620000000000002,-0.0020559999999999997,0.003016,-27.68,19.18,-17.5,2c
2019-07-15_135547:600,-0.431122,0.023375999999999997,-0.273529,-0.003114,-0.0021780000000000002,0.002955,-27.68,19.18,-17.5,2c
2019-07-15_135547:620,-0.426544,0.025421,-0.27301,-0.003114,-0.001995,0.003078,-27.68,19.18,-17.5,2c
2019-07-15_135547:640,-0.42605600000000005,0.023895,-0.272491,-0.0028399999999999996,-0.003002,0.002315,-27.68,18.75,-19.5,2c
2019-07-15_135547:660,-0.43011499999999997,0.027435,-0.274536,-0.0029010000000000004,-0.00346,0.002315,-27.68,18.75,-19.5,2c
2019-07-15_135547:680,-0.429108,0.028961,-0.276062,-0.0029620000000000002,-0.003399,0.002376,-27.25,19.5,-18.68,2c
2019-07-15_135547:700,-0.431641,0.029480000000000003,-0.276062,-0.003786,-0.003399,0.002254,-27.25,19.5,-18.68,2c
2019-07-15_135547:720,-0.429596,0.028442000000000002,-0.276581,-0.0038469999999999997,-0.003002,0.002254,-27.25,19.5,-18.25,2c
2019-07-15_135547:740,-0.42807,0.026427999999999997,-0.276062,-0.003999,-0.0031850000000000003,0.0025280000000000003,-27.25,19.5,-18.25,2c
2019-07-15_135547:760,-0.427063,0.023895,-0.278107,-0.003542,-0.003307,0.0025280000000000003,-27.25,19.5,-18.25,2c
2019-07-15_135547:780,-0.429108,0.024902,-0.279114,-0.003206,-0.003002,0.0027719999999999997,-27.68,19.5,-18.25,2c
2019-07-15_135547:800,-0.42807,0.024902,-0.279114,-0.0029620000000000002,-0.003002,0.002955,-27.68,19.5,-18.25,2c
2019-07-15_135547:820,-0.42807,0.025421,-0.280121,-0.002443,-0.002972,0.0028940000000000003,-27.68,19.5,-18.25,2c
2019-07-15_135547:840,-0.427063,0.026917,-0.279633,-0.001894,-0.002605,0.0028940000000000003,-28.059998999999998,18.75,-19.870001000000002,2c
2019-07-15_135547:860,-0.42758199999999996,0.027954000000000003,-0.280121,-0.002229,-0.0027890000000000002,0.002711,-28.059998999999998,18.75,-19.870001000000002,2c
2019-07-15_135547:880,-0.42758199999999996,0.028961,-0.281647,-0.002443,-0.002514,0.002742,-28.059998999999998,19.5,-19.5,2c
2019-07-15_135547:900,-0.42858900000000005,0.028442000000000002,-0.28112800000000004,-0.003023,-0.002117,0.002955,-28.059998999999998,19.5,-19.5,2c
2019-07-15_135547:920,-0.42807,0.027954000000000003,-0.281647,-0.003206,-0.0021780000000000002,0.003016,-28.059998999999998,19.5,-19.5,2c
2019-07-15_135547:940,-0.425018,0.027435,-0.279633,-0.003664,-0.0020559999999999997,0.0028940000000000003,-27.68,19.5,-19.059998999999998,2c
2019-07-15_135547:960,-0.42401099999999997,0.027435,-0.28064,-0.0039380000000000005,-0.002575,0.003016,-27.68,19.5,-19.059998999999998,2c
2019-07-15_135547:980,-0.423492,0.025421,-0.281647,-0.004121,-0.002972,0.003078,-28.059998999999998,19.18,-19.5,2c
2019-07-15_135548:000,-0.42401099999999997,0.026917,-0.28112800000000004,-0.003999,-0.0030629999999999998,0.002711,-28.059998999999998,19.18,-19.5,2c
2019-07-15_135548:020,-0.425537,0.025421,-0.28112800000000004,-0.003999,-0.003643,0.002711,-28.059998999999998,19.18,-19.5,2c
2019-07-15_135548:040,-0.427063,0.025421,-0.282654,-0.003786,-0.003368,0.002711,-28.059998999999998,19.18,-19.5,2c
2019-07-15_135548:060,-0.429596,0.025908999999999998,-0.28112800000000004,-0.0038770000000000002,-0.003002,0.002742,-28.059998999999998,19.18,-19.5,2c
2019-07-15_135548:080,-0.42858900000000005,0.025421,-0.282166,-0.0036030000000000003,-0.0024530000000000003,0.003169,-27.68,19.18,-20.25,2c
2019-07-15_135548:100,-0.425018,0.025908999999999998,-0.282166,-0.003725,-0.00227,0.0028940000000000003,-27.68,19.18,-20.25,2c
2019-07-15_135548:120,-0.42605600000000005,0.024384,-0.28369099999999997,-0.003664,-0.002392,0.001857,-28.059998999999998,19.18,-19.5,2c
2019-07-15_135548:140,-0.425018,0.026917,-0.284698,-0.0033280000000000002,-0.0024530000000000003,0.001979,-28.059998999999998,19.18,-19.5,2c
2019-07-15_135548:160,-0.425018,0.026917,-0.285217,-0.0033280000000000002,-0.00227,0.0021920000000000004,-28.059998999999998,19.18,-19.5,2c
2019-07-15_135548:180,-0.426544,0.027435,-0.286224,-0.003145,-0.0021780000000000002,0.002254,-28.059998999999998,19.18,-19.870001000000002,2c
2019-07-15_135548:200,-0.425537,0.026917,-0.28369099999999997,-0.003084,-0.001598,0.0021920000000000004,-28.059998999999998,19.18,-19.870001000000002,2c
2019-07-15_135548:220,-0.42248500000000005,0.028961,-0.28418000000000004,-0.003023,-0.0014759999999999999,0.0025280000000000003,-28.059998999999998,19.5,-20.25,2c
2019-07-15_135548:240,-0.421967,0.027954000000000003,-0.284698,-0.003114,-0.0016589999999999999,0.00323,-28.059998999999998,19.5,-20.25,2c
2019-07-15_135548:260,-0.423004,0.027435,-0.283173,-0.0032670000000000004,-0.001843,0.003169,-28.059998999999998,19.5,-20.25,2c
2019-07-15_135548:280,-0.425537,0.027435,-0.285217,-0.0034799999999999996,-0.00227,0.0027719999999999997,-26.0,0.25,-11.18,2c
2019-07-15_135548:300,-0.42758199999999996,0.026427999999999997,-0.28418000000000004,-0.0034799999999999996,-0.001995,0.002467,-26.0,0.25,-11.18,2c
2019-07-15_135548:320,-0.427063,0.026427999999999997,-0.28418000000000004,-0.003542,-0.001782,0.002254,-26.0,0.25,-11.18,2c
2019-07-15_135548:340,-0.427063,0.026917,-0.284698,-0.00345,-0.001537,0.0021920000000000004,-15.5,0.56,-4.75,2c
2019-07-15_135548:360,-0.425537,0.026917,-0.283173,-0.003145,-0.001263,0.002315,-15.5,0.56,-4.75,2c
2019-07-15_135548:380,-0.42401099999999997,0.027435,-0.28369099999999997,-0.0033280000000000002,-0.001202,0.002009,-15.87,1.25,-6.0,2c
2019-07-15_135548:400,-0.42453,0.027954000000000003,-0.282654,-0.0029010000000000004,-0.001141,0.0021920000000000004,-15.87,1.25,-6.0,2c
2019-07-15_135548:420,-0.423492,0.028961,-0.282654,-0.003145,-0.001141,0.002376,-15.87,1.25,-6.0,2c
2019-07-15_135548:440,-0.423492,0.029480000000000003,-0.28369099999999997,-0.003145,-0.001263,0.002315,-16.25,1.0,-7.56,2c
2019-07-15_135548:460,-0.421967,0.026917,-0.282654,-0.003145,-0.001202,0.0024059999999999997,-16.25,1.0,-7.56,2c
2019-07-15_135548:480,-0.42147799999999996,0.025908999999999998,-0.28418000000000004,-0.003084,-0.001324,0.002376,-15.5,1.0,-6.37,2c
2019-07-15_135548:500,-0.421967,0.028961,-0.283173,-0.002565,-0.001843,0.002376,-15.5,1.0,-6.37,2c
2019-07-15_135548:520,-0.423004,0.028442000000000002,-0.28369099999999997,-0.002565,-0.002239,0.002376,-15.5,1.0,-6.37,2c
2019-07-15_135548:540,-0.42401099999999997,0.029480000000000003,-0.285706,-0.002229,-0.001934,0.002376,-15.18,1.25,-5.56,2c
2019-07-15_135548:560,-0.42453,0.029968,-0.287231,-0.002168,-0.001873,0.002467,-15.18,1.25,-5.56,2c
2019-07-15_135548:580,-0.425018,0.032013,-0.287231,-0.002443,-0.001934,0.002711,-15.5,1.06,-5.0,2c
2019-07-15_135548:600,-0.42453,0.030487,-0.284698,-0.002779,-0.0016589999999999999,0.0028940000000000003,-15.5,1.06,-5.0,2c
2019-07-15_135548:620,-0.423492,0.031006,-0.28674299999999997,-0.003023,-0.001873,0.0027719999999999997,-15.5,1.06,-5.0,2c
2019-07-15_135548:640,-0.423004,0.031006,-0.286224,-0.0033280000000000002,-0.00172,0.003016,-15.18,-0.25,-6.18,2c
2019-07-15_135548:660,-0.423004,0.028961,-0.285706,-0.003664,-0.001598,0.0032909999999999997,-15.18,-0.25,-6.18,2c
2019-07-15_135548:680,-0.423004,0.027435,-0.28775,-0.003542,-0.001843,0.0034130000000000002,-16.25,0.75,-7.37,2c
2019-07-15_135548:700,-0.42401099999999997,0.026917,-0.285706,-0.003542,-0.001446,0.0031079999999999997,-16.25,0.75,-7.37,2c
2019-07-15_135548:720,-0.425537,0.027435,-0.287231,-0.003542,-0.001385,0.0028940000000000003,-16.25,0.75,-7.37,2c
2019-07-15_135548:740,-0.42401099999999997,0.027435,-0.286224,-0.0034799999999999996,-0.001324,0.002742,-16.25,0.75,-7.37,2c
2019-07-15_135548:760,-0.423004,0.027435,-0.285706,-0.003114,-0.0008349999999999999,0.0027719999999999997,-16.25,0.75,-7.37,2c
2019-07-15_135548:780,-0.42401099999999997,0.028961,-0.28418000000000004,-0.003084,-0.0005,0.0028940000000000003,-15.87,1.06,-6.18,2c
2019-07-15_135548:800,-0.420959,0.028961,-0.281647,-0.003145,-0.0007740000000000001,0.0028940000000000003,-15.87,1.06,-6.18,2c
2019-07-15_135548:820,-0.420441,0.027954000000000003,-0.284698,-0.003389,-0.001324,0.002467,-15.87,1.06,-6.18,2c
2019-07-15_135548:840,-0.41995200000000005,0.027954000000000003,-0.287231,-0.0032670000000000004,-0.001782,0.002376,-15.5,1.06,-6.18,2c
2019-07-15_135548:860,-0.42248500000000005,0.028442000000000002,-0.288269,-0.003023,-0.002239,0.0027719999999999997,-15.5,1.06,-6.18,2c
2019-07-15_135548:880,-0.425018,0.027954000000000003,-0.28979499999999997,-0.002748,-0.002239,0.003016,-15.5,0.37,-7.0,2c
2019-07-15_135548:900,-0.425018,0.028442000000000002,-0.286224,-0.002779,-0.001537,0.003016,-15.5,0.37,-7.0,2c
2019-07-15_135548:920,-0.42401099999999997,0.029480000000000003,-0.288269,-0.0026260000000000003,-0.001263,0.003169,-15.5,0.37,-7.0,2c
2019-07-15_135548:940,-0.423492,0.029480000000000003,-0.28674299999999997,-0.0028399999999999996,-0.000683,0.003474,-16.25,0.75,-6.18,2c
2019-07-15_135548:960,-0.421967,0.028442000000000002,-0.28674299999999997,-0.003145,-0.0008349999999999999,0.0033520000000000004,-16.25,0.75,-6.18,2c
2019-07-15_135548:980,-0.42453,0.026917,-0.288269,-0.003084,-0.0007740000000000001,0.003169,-14.75,0.37,-7.0,2c
2019-07-15_135549:000,-0.42401099999999997,0.027435,-0.285217,-0.003206,-0.0006219999999999999,0.0031079999999999997,-14.75,0.37,-7.0,2c
2019-07-15_135549:020,-0.425018,0.027954000000000003,-0.285217,-0.003206,-0.0007440000000000001,0.003169,-14.75,0.37,-7.0,2c
2019-07-15_135549:040,-0.42147799999999996,0.028442000000000002,-0.285217,-0.003023,-0.00034700000000000003,0.003474,-15.5,0.75,-6.56,2c
2019-07-15_135549:060,-0.420959,0.027435,-0.282654,-0.00345,-0.0007440000000000001,0.0031079999999999997,-15.5,0.75,-6.56,2c
2019-07-15_135549:080,-0.420959,0.027954000000000003,-0.284698,-0.0033280000000000002,-0.001202,0.002711,-15.5,0.75,-7.0,2c
2019-07-15_135549:100,-0.42248500000000005,0.026917,-0.284698,-0.0033280000000000002,-0.001263,0.003078,-15.5,0.75,-7.0,2c
2019-07-15_135549:120,-0.423492,0.026427999999999997,-0.28674299999999997,-0.003542,-0.001537,0.003078,-15.5,0.75,-7.0,2c
2019-07-15_135549:140,-0.42401099999999997,0.026427999999999997,-0.286224,-0.0032670000000000004,-0.001446,0.0028940000000000003,-15.5,1.06,-7.0,2c
2019-07-15_135549:160,-0.423004,0.026917,-0.285706,-0.0029620000000000002,-0.001446,0.002833,-15.5,1.06,-7.0,2c
2019-07-15_135549:180,-0.423004,0.027954000000000003,-0.287231,-0.003023,-0.0014759999999999999,0.002742,-16.25,0.37,-6.56,2c
2019-07-15_135549:200,-0.421967,0.026427999999999997,-0.286224,-0.003023,-0.001263,0.002742,-16.25,0.37,-6.56,2c
2019-07-15_135549:220,-0.42147799999999996,0.026917,-0.286224,-0.003114,-0.001598,0.002742,-16.25,0.37,-6.56,2c
2019-07-15_135549:240,-0.423004,0.026917,-0.28775,-0.003145,-0.0016589999999999999,0.002711,-15.18,1.5,-6.18,2c
2019-07-15_135549:260,-0.423004,0.026917,-0.28674299999999997,-0.0029010000000000004,-0.00172,0.002589,-15.18,1.5,-6.18,2c
2019-07-15_135549:280,-0.421967,0.027954000000000003,-0.28674299999999997,-0.003023,-0.0014759999999999999,0.0024059999999999997,-15.5,0.75,-6.56,2c
2019-07-15_135549:300,-0.42401099999999997,0.027954000000000003,-0.28674299999999997,-0.002779,-0.001385,0.00265,-15.5,0.75,-6.56,2c
2019-07-15_135549:320,-0.42248500000000005,0.027954000000000003,-0.287231,-0.002748,-0.001446,0.0025280000000000003,-15.5,0.75,-6.56,2c
2019-07-15_135549:340,-0.42147799999999996,0.028442000000000002,-0.286224,-0.0026260000000000003,-0.001263,0.002711,-15.18,0.75,-6.56,2c
2019-07-15_135549:360,-0.423492,0.028961,-0.28775,-0.0028399999999999996,-0.001537,0.002833,-15.18,0.75,-6.56,2c
2019-07-15_135549:380,-0.42401099999999997,0.027954000000000003,-0.287231,-0.003084,-0.0014759999999999999,0.002833,-15.87,0.75,-6.18,2c
2019-07-15_135549:400,-0.42401099999999997,0.028442000000000002,-0.286224,-0.003114,-0.001385,0.0027719999999999997,-15.87,0.75,-6.18,2c
2019-07-15_135549:420,-0.42453,0.028442000000000002,-0.287231,-0.003084,-0.001263,0.002833,-15.87,0.75,-6.18,2c
2019-07-15_135549:440,-0.423492,0.026917,-0.284698,-0.0033280000000000002,-0.001141,0.002467,-16.25,0.37,-7.0,2c
2019-07-15_135549:460,-0.42248500000000005,0.027954000000000003,-0.28418000000000004,-0.0032670000000000004,-0.00108,0.002254,-16.25,0.37,-7.0,2c
2019-07-15_135549:480,-0.41995200000000005,0.027435,-0.285706,-0.0034799999999999996,-0.001263,0.0025280000000000003,-14.75,0.0,-7.37,2c
2019-07-15_135549:500,-0.421967,0.027435,-0.285706,-0.003389,-0.0020559999999999997,0.001979,-14.75,0.0,-7.37,2c
2019-07-15_135549:520,-0.42147799999999996,0.027435,-0.28927600000000003,-0.0032670000000000004,-0.001995,0.001918,-14.75,0.0,-7.37,2c
2019-07-15_135549:540,-0.42248500000000005,0.028961,-0.28875700000000004,-0.0028399999999999996,-0.001934,0.002254,-15.18,0.37,-6.18,2c
2019-07-15_135549:560,-0.42453,0.028442000000000002,-0.28927600000000003,-0.002687,-0.001782,0.002376,-15.18,0.37,-6.18,2c
2019-07-15_135549:580,-0.423492,0.027954000000000003,-0.28927600000000003,-0.0025039999999999997,-0.001446,0.0021920000000000004,-16.559998999999998,0.37,-7.0,2c
2019-07-15_135549:600,-0.423492,0.031006,-0.28674299999999997,-0.002168,-0.00108,0.0021920000000000004,-16.559998999999998,0.37,-7.0,2c
2019-07-15_135549:620,-0.420959,0.030487,-0.28875700000000004,-0.002229,-0.0008349999999999999,0.00265,-16.559998999999998,0.37,-7.0,2c
2019-07-15_135549:640,-0.42248500000000005,0.029480000000000003,-0.28927600000000003,-0.0023510000000000002,-0.0011099999999999999,0.002711,-15.18,1.06,-6.18,2c
2019-07-15_135549:660,-0.42147799999999996,0.030487,-0.28674299999999997,-0.0029010000000000004,-0.00108,0.002589,-15.18,1.06,-6.18,2c
2019-07-15_135549:680,-0.42401099999999997,0.029968,-0.288269,-0.002748,-0.0007740000000000001,0.00265,-15.5,0.75,-7.37,2c
2019-07-15_135549:700,-0.42453,0.031006,-0.28674299999999997,-0.003084,-0.000897,0.002833,-15.5,0.75,-7.37,2c
2019-07-15_135549:720,-0.423492,0.028442000000000002,-0.28674299999999997,-0.003114,-0.0007440000000000001,0.0032909999999999997,-15.5,0.75,-7.37,2c
2019-07-15_135549:740,-0.421967,0.027954000000000003,-0.286224,-0.0033280000000000002,-0.000683,0.0028940000000000003,-15.87,1.06,-6.56,2c
2019-07-15_135549:760,-0.42248500000000005,0.028442000000000002,-0.287231,-0.00345,-0.0008349999999999999,0.002315,-15.87,1.06,-6.56,2c
2019-07-15_135549:780,-0.420441,0.027435,-0.286224,-0.0034799999999999996,-0.001019,0.002589,-15.87,1.06,-6.56,2c
2019-07-15_135549:800,-0.42147799999999996,0.027954000000000003,-0.28418000000000004,-0.0032670000000000004,-0.000897,0.002742,-15.87,1.06,-6.56,2c
2019-07-15_135549:820,-0.42147799999999996,0.028442000000000002,-0.287231,-0.003145,-0.0011099999999999999,0.0027719999999999997,-15.87,1.06,-6.56,2c
2019-07-15_135549:840,-0.420959,0.027435,-0.28674299999999997,-0.002779,-0.001141,0.002742,-12.56,0.0,-6.56,2c
2019-07-15_135549:860,-0.420441,0.028961,-0.28875700000000004,-0.002779,-0.001446,0.002742,-12.56,0.0,-6.56,2c
2019-07-15_135549:880,-0.42248500000000005,0.029480000000000003,-0.28775,-0.002748,-0.001782,0.002833,-15.5,1.06,-7.37,2c
2019-07-15_135549:900,-0.42147799999999996,0.028961,-0.28674299999999997,-0.002687,-0.001537,0.0027719999999999997,-15.5,1.06,-7.37,2c
2019-07-15_135549:920,-0.42248500000000005,0.027954000000000003,-0.28927600000000003,-0.003084,-0.001782,0.00265,-15.5,1.06,-7.37,2c
2019-07-15_135549:940,-0.421967,0.027954000000000003,-0.28979499999999997,-0.003023,-0.0016589999999999999,0.00265,-15.87,0.37,-6.56,2c
2019-07-15_135549:960,-0.42147799999999996,0.027435,-0.28927600000000003,-0.002779,-0.001202,0.0027719999999999997,-15.87,0.37,-6.56,2c
2019-07-15_135549:980,-0.423004,0.027435,-0.28927600000000003,-0.0028399999999999996,-0.001385,0.0028940000000000003,-15.87,0.37,-5.75,2c
2019-07-15_135550:000,-0.42248500000000005,0.029480000000000003,-0.288269,-0.0029010000000000004,-0.00108,0.0027719999999999997,-15.87,0.37,-5.75,2c
2019-07-15_135550:020,-0.42248500000000005,0.028961,-0.28875700000000004,-0.003023,-0.001141,0.0027719999999999997,-15.87,0.37,-5.75,2c
2019-07-15_135550:040,-0.42147799999999996,0.028442000000000002,-0.28775,-0.003114,-0.001019,0.002833,-15.18,0.75,-7.0,2c
2019-07-15_135550:060,-0.423004,0.027435,-0.28979499999999997,-0.003389,-0.0011099999999999999,0.002742,-15.18,0.75,-7.0,2c
2019-07-15_135550:080,-0.420441,0.028442000000000002,-0.286224,-0.0033280000000000002,-0.00108,0.003016,-15.5,1.06,-6.18,2c
2019-07-15_135550:100,-0.418915,0.026917,-0.286224,-0.003114,-0.0014759999999999999,0.002833,-15.5,1.06,-6.18,2c
2019-07-15_135550:120,-0.42605600000000005,0.029480000000000003,-0.28775,-0.0029010000000000004,-0.000958,0.002955,-15.5,1.06,-6.18,2c
2019-07-15_135550:140,-0.421967,0.028442000000000002,-0.28775,-0.003084,-0.001141,0.00323,-15.87,0.75,-5.37,2c
2019-07-15_135550:160,-0.41943400000000003,0.030487,-0.287231,-0.0036030000000000003,-0.0007740000000000001,0.002315,-15.87,0.75,-5.37,2c
2019-07-15_135550:180,-0.420441,0.028961,-0.28875700000000004,-0.0039380000000000005,-0.001141,0.002131,-15.18,1.06,-7.37,2c
2019-07-15_135550:200,-0.420959,0.026917,-0.290283,-0.003999,-0.00108,0.002467,-15.18,1.06,-7.37,2c
2019-07-15_135550:220,-0.421967,0.025908999999999998,-0.291321,-0.00345,-0.001324,0.0025280000000000003,-15.18,1.06,-7.37,2c
2019-07-15_135550:240,-0.425018,0.026427999999999997,-0.290802,-0.0029620000000000002,-0.0007740000000000001,0.002589,-15.5,1.5,-6.56,2c
2019-07-15_135550:260,-0.42248500000000005,0.028961,-0.28875700000000004,-0.0025039999999999997,-0.00037799999999999997,0.0027719999999999997,-15.5,1.5,-6.56,2c
2019-07-15_135550:280,-0.420441,0.028961,-0.28775,-0.0025039999999999997,-0.0005610000000000001,0.0031079999999999997,-15.5,0.37,-6.56,2c
2019-07-15_135550:300,-0.42248500000000005,0.029968,-0.285706,-0.0028399999999999996,-0.00034700000000000003,0.003078,-15.5,0.37,-6.56,2c
2019-07-15_135550:320,-0.42147799999999996,0.029968,-0.285706,-0.0032670000000000004,-0.00037799999999999997,0.002833,-15.5,0.37,-6.56,2c
2019-07-15_135550:340,-0.42147799999999996,0.027435,-0.287231,-0.0034799999999999996,-0.0005,0.0025280000000000003,-15.5,0.75,-7.0,2c
2019-07-15_135550:360,-0.423492,0.027435,-0.286224,-0.003664,-0.0006219999999999999,0.00265,-15.5,0.75,-7.0,2c
2019-07-15_135550:380,-0.42401099999999997,0.028442000000000002,-0.285217,-0.0033280000000000002,-0.000286,0.0027719999999999997,-15.18,1.06,-6.56,2c
2019-07-15_135550:400,-0.42401099999999997,0.027954000000000003,-0.287231,-0.0029620000000000002,-0.0007440000000000001,0.002711,-15.18,1.06,-6.56,2c
2019-07-15_135550:420,-0.42453,0.029480000000000003,-0.28775,-0.003023,-0.000958,0.0024059999999999997,-15.18,1.06,-6.56,2c
2019-07-15_135550:440,-0.423004,0.029968,-0.28674299999999997,-0.003114,-0.00037799999999999997,0.002467,-16.25,0.75,-6.18,2c
2019-07-15_135550:460,-0.42248500000000005,0.030487,-0.285706,-0.003084,-0.0005,0.0025280000000000003,-16.25,0.75,-6.18,2c
2019-07-15_135550:480,-0.42248500000000005,0.029480000000000003,-0.285217,-0.0032670000000000004,-0.0005,0.002467,-15.5,0.0,-6.56,2c
2019-07-15_135550:500,-0.41995200000000005,0.028442000000000002,-0.28369099999999997,-0.003206,-0.000286,0.0024059999999999997,-15.5,0.0,-6.56,2c
2019-07-15_135550:520,-0.420441,0.028442000000000002,-0.28674299999999997,-0.003084,-0.0006219999999999999,0.002376,-15.5,0.0,-6.56,2c
2019-07-15_135550:540,-0.42248500000000005,0.028961,-0.28674299999999997,-0.003023,-0.001141,0.002254,-15.18,1.5,-6.56,2c
2019-07-15_135550:560,-0.42147799999999996,0.028961,-0.285217,-0.003084,-0.001141,0.0021920000000000004,-15.18,1.5,-6.56,2c
2019-07-15_135550:580,-0.42147799999999996,0.030487,-0.28674299999999997,-0.003084,-0.001537,0.002315,-14.0,1.06,-6.56,2c
2019-07-15_135550:600,-0.42147799999999996,0.031006,-0.285706,-0.0028399999999999996,-0.0014759999999999999,0.002315,-14.0,1.06,-6.56,2c
2019-07-15_135550:620,-0.42147799999999996,0.030487,-0.28775,-0.0028399999999999996,-0.0016589999999999999,0.0025280000000000003,-14.0,1.06,-6.56,2c
2019-07-15_135550:640,-0.423004,0.031494,-0.287231,-0.002443,-0.001873,0.002742,-15.87,1.5,-8.56,2c
2019-07-15_135550:660,-0.423004,0.031494,-0.287231,-0.0026260000000000003,-0.00172,0.0028940000000000003,-15.87,1.5,-8.56,2c
2019-07-15_135550:680,-0.423004,0.031006,-0.28875700000000004,-0.0028399999999999996,-0.001782,0.003078,-15.18,0.0,-6.56,2c
2019-07-15_135550:700,-0.42248500000000005,0.031006,-0.28979499999999997,-0.003114,-0.001324,0.003078,-15.18,0.0,-6.56,2c
2019-07-15_135550:720,-0.42401099999999997,0.029480000000000003,-0.28927600000000003,-0.003542,-0.001263,0.0028940000000000003,-15.18,0.0,-6.56,2c
2019-07-15_135550:740,-0.423492,0.029968,-0.28927600000000003,-0.0034799999999999996,-0.001019,0.0027719999999999997,-14.37,1.5,-7.75,2c
2019-07-15_135550:760,-0.42248500000000005,0.029968,-0.28674299999999997,-0.0032670000000000004,-0.001019,0.003016,-14.37,1.5,-7.75,2c
2019-07-15_135550:780,-0.421967,0.028442000000000002,-0.288269,-0.003206,-0.000897,0.003078,-16.25,0.75,-6.18,2c
2019-07-15_135550:800,-0.42401099999999997,0.029480000000000003,-0.286224,-0.003023,-0.0006219999999999999,0.002955,-16.25,0.75,-6.18,2c
2019-07-15_135550:820,-0.420441,0.029968,-0.285706,-0.003389,-0.000958,0.003169,-16.25,0.75,-6.18,2c
2019-07-15_135550:840,-0.41842700000000005,0.028442000000000002,-0.285706,-0.003786,-0.001324,0.0021920000000000004,-15.5,1.06,-6.56,2c
2019-07-15_135550:860,-0.420441,0.028961,-0.28674299999999997,-0.0036030000000000003,-0.001782,0.001918,-15.5,1.06,-6.56,2c
2019-07-15_135550:880,-0.42147799999999996,0.029480000000000003,-0.28875700000000004,-0.003389,-0.002117,0.002589,-15.5,0.0,-6.18,2c
2019-07-15_135550:900,-0.42248500000000005,0.027435,-0.290802,-0.0029620000000000002,-0.001873,0.00265,-15.5,0.0,-6.18,2c
2019-07-15_135550:920,-0.42401099999999997,0.028442000000000002,-0.28875700000000004,-0.0025039999999999997,-0.0014759999999999999,0.002589,-15.5,0.0,-6.18,2c
2019-07-15_135550:940,-0.42248500000000005,0.029968,-0.28979499999999997,-0.001894,-0.0007740000000000001,0.0027719999999999997,-15.5,0.75,-6.56,2c
2019-07-15_135550:960,-0.42248500000000005,0.031494,-0.28927600000000003,-0.002565,-0.0007740000000000001,0.0031079999999999997,-15.5,0.75,-6.56,2c
2019-07-15_135550:980,-0.42453,0.032013,-0.290802,-0.002779,-0.000286,0.0032909999999999997,-15.5,0.37,-7.0,2c
2019-07-15_135551:000,-0.420959,0.029968,-0.28418000000000004,-0.003389,-0.00037799999999999997,0.003078,-15.5,0.37,-7.0,2c
2019-07-15_135551:020,-0.423492,0.029968,-0.290283,-0.0038469999999999997,-0.0006219999999999999,0.002711,-15.5,0.37,-7.0,2c
2019-07-15_135551:040,-0.42453,0.029480000000000003,-0.288269,-0.0033280000000000002,-0.0006219999999999999,0.002833,-15.5,1.06,-6.18,2c
2019-07-15_135551:060,-0.42147799999999996,0.026427999999999997,-0.286224,-0.003664,1.9e-05,0.002833,-15.5,1.06,-6.18,2c
2019-07-15_135551:080,-0.42248500000000005,0.024902,-0.286224,-0.003114,-0.00037799999999999997,0.003078,-15.87,0.75,-6.56,2c
2019-07-15_135551:100,-0.42147799999999996,0.027435,-0.284698,-0.002748,-0.0005610000000000001,0.0025280000000000003,-15.87,0.75,-6.56,2c
2019-07-15_135551:120,-0.425018,0.027435,-0.286224,-0.002443,-0.0006219999999999999,0.0024059999999999997,-15.87,0.75,-6.56,2c
2019-07-15_135551:140,-0.423004,0.031494,-0.286224,-0.003084,-0.0005610000000000001,0.002376,-15.5,0.0,-5.75,2c
2019-07-15_135551:160,-0.42401099999999997,0.031494,-0.286224,-0.003206,-0.00037799999999999997,0.0024059999999999997,-15.5,0.0,-5.75,2c
2019-07-15_135551:180,-0.42147799999999996,0.029968,-0.28674299999999997,-0.003389,-0.00037799999999999997,0.002467,-15.5,0.75,-7.0,2c
2019-07-15_135551:200,-0.420959,0.029480000000000003,-0.285706,-0.003145,-0.0007440000000000001,0.002254,-15.5,0.75,-7.0,2c
2019-07-15_135551:220,-0.420441,0.028442000000000002,-0.28674299999999997,-0.002779,-0.000897,0.0021920000000000004,-15.5,0.75,-7.0,2c
2019-07-15_135551:240,-0.420959,0.028961,-0.285706,-0.002565,-0.00108,0.002131,-16.25,0.75,-7.0,2c
2019-07-15_135551:260,-0.42147799999999996,0.030487,-0.284698,-0.0026260000000000003,-0.001019,0.0021920000000000004,-16.25,0.75,-7.0,2c
2019-07-15_135551:280,-0.42248500000000005,0.031006,-0.287231,-0.002229,-0.001446,0.002376,-15.5,0.37,-5.37,2c
2019-07-15_135551:300,-0.423004,0.030487,-0.28674299999999997,-0.002443,-0.001324,0.002315,-15.5,0.37,-5.37,2c
2019-07-15_135551:320,-0.42453,0.031494,-0.287231,-0.0026260000000000003,-0.001324,0.002589,-15.5,0.37,-5.37,2c
2019-07-15_135551:340,-0.42401099999999997,0.032013,-0.288269,-0.002779,-0.001141,0.002376,-15.5,0.37,-6.56,2c
2019-07-15_135551:360,-0.42401099999999997,0.032013,-0.28674299999999997,-0.0029010000000000004,-0.001019,0.002833,-15.5,0.37,-6.56,2c
2019-07-15_135551:380,-0.42248500000000005,0.030487,-0.28674299999999997,-0.003084,-0.0008349999999999999,0.0027719999999999997,-15.87,0.0,-6.18,2c
2019-07-15_135551:400,-0.42248500000000005,0.032532,-0.284698,-0.0029620000000000002,-0.0005,0.002742,-15.87,0.0,-6.18,2c
2019-07-15_135551:420,-0.420441,0.030487,-0.285706,-0.003145,-0.001019,0.0028940000000000003,-15.87,0.0,-6.18,2c
2019-07-15_135551:440,-0.42147799999999996,0.029480000000000003,-0.28674299999999997,-0.003206,-0.0008349999999999999,0.002955,-15.87,0.37,-6.18,2c
2019-07-15_135551:460,-0.423492,0.028442000000000002,-0.285706,-0.0033280000000000002,-0.00108,0.002711,-15.87,0.37,-6.18,2c
2019-07-15_135551:480,-0.42248500000000005,0.028442000000000002,-0.286224,-0.003084,-0.001202,0.002711,-18.75,0.37,-7.0,2c
2019-07-15_135551:500,-0.423004,0.029968,-0.287231,-0.003145,-0.001263,0.002742,-18.75,0.37,-7.0,2c
2019-07-15_135551:520,-0.42605600000000005,0.029968,-0.285706,-0.0029010000000000004,-0.001598,0.0028940000000000003,-18.75,0.37,-7.0,2c
2019-07-15_135551:540,-0.423004,0.031006,-0.28418000000000004,-0.0029010000000000004,-0.001263,0.002955,-15.5,0.75,-5.37,2c
2019-07-15_135551:560,-0.41943400000000003,0.030487,-0.285217,-0.003023,-0.001324,0.002833,-15.5,0.75,-5.37,2c
2019-07-15_135551:580,-0.420441,0.029480000000000003,-0.28674299999999997,-0.0033280000000000002,-0.001598,0.002254,-16.559998999999998,0.75,-6.18,2c
2019-07-15_135551:600,-0.420441,0.028961,-0.28927600000000003,-0.003389,-0.001934,0.002009,-16.559998999999998,0.75,-6.18,2c
2019-07-15_135551:620,-0.421967,0.028961,-0.28979499999999997,-0.003206,-0.00227,0.0025280000000000003,-16.559998999999998,0.75,-6.18,2c
2019-07-15_135551:640,-0.42401099999999997,0.029480000000000003,-0.290283,-0.0028399999999999996,-0.00227,0.002376,-15.5,1.06,-6.56,2c
2019-07-15_135551:660,-0.423492,0.031006,-0.28979499999999997,-0.0025039999999999997,-0.001598,0.002315,-15.5,1.06,-6.56,2c
2019-07-15_135551:680,-0.421967,0.032013,-0.288269,-0.0025039999999999997,-0.001324,0.002833,-15.37,-0.37,-5.37,2c
2019-07-15_135551:700,-0.42147799999999996,0.032532,-0.28875700000000004,-0.002382,-0.000958,0.0032909999999999997,-15.37,-0.37,-5.37,2c
2019-07-15_135551:720,-0.421967,0.032532,-0.287231,-0.0029010000000000004,-0.000683,0.003078,-15.37,-0.37,-5.37,2c
2019-07-15_135551:740,-0.420959,0.031006,-0.28775,-0.0034799999999999996,-0.0008349999999999999,0.002742,-15.37,-0.06,-6.18,2c
2019-07-15_135551:760,-0.42248500000000005,0.028961,-0.28674299999999997,-0.0036030000000000003,-0.0011099999999999999,0.002589,-15.37,-0.06,-6.18,2c
2019-07-15_135551:780,-0.426544,0.028961,-0.28775,-0.003389,-0.001019,0.0027719999999999997,-15.37,-0.06,-6.18,2c
2019-07-15_135551:800,-0.421967,0.029480000000000003,-0.284698,-0.003145,-0.0005610000000000001,0.0028940000000000003,-16.5,0.25,-6.18,2c
2019-07-15_135551:820,-0.42147799999999996,0.028961,-0.284698,-0.0028399999999999996,-0.0007440000000000001,0.002742,-16.5,0.25,-6.18,2c
2019-07-15_135551:840,-0.42248500000000005,0.031006,-0.285706,-0.003023,-0.0007740000000000001,0.002376,-15.37,0.25,-6.56,2c
2019-07-15_135551:860,-0.42248500000000005,0.031494,-0.285217,-0.002779,-0.001202,0.002833,-15.37,0.25,-6.56,2c
2019-07-15_135551:880,-0.42248500000000005,0.031494,-0.28674299999999997,-0.003084,-0.001263,0.00265,-15.37,0.25,-6.56,2c
2019-07-15_135551:900,-0.423004,0.031494,-0.28674299999999997,-0.0034799999999999996,-0.0007440000000000001,0.0025280000000000003,-16.870001000000002,0.25,-7.0,2c
2019-07-15_135551:920,-0.421967,0.029480000000000003,-0.28674299999999997,-0.0032670000000000004,-0.0008349999999999999,0.0024059999999999997,-16.870001000000002,0.25,-7.0,2c
2019-07-15_135551:940,-0.421967,0.029480000000000003,-0.287231,-0.003206,-0.0011099999999999999,0.002376,-15.06,0.25,-7.0,2c
2019-07-15_135551:960,-0.420959,0.030487,-0.286224,-0.002779,-0.00108,0.0021920000000000004,-15.06,0.25,-7.0,2c
2019-07-15_135551:980,-0.42147799999999996,0.031006,-0.287231,-0.0025039999999999997,-0.001385,0.002467,-15.06,0.25,-7.0,2c
2019-07-15_135552:000,-0.420441,0.03302,-0.287231,-0.0025039999999999997,-0.001537,0.002467,-15.75,0.68,-7.0,2c
2019-07-15_135552:020,-0.421967,0.03302,-0.28875700000000004,-0.0023510000000000002,-0.001446,0.0025280000000000003,-15.75,0.68,-7.0,2c
2019-07-15_135552:040,-0.421967,0.032532,-0.288269,-0.0028399999999999996,-0.0014759999999999999,0.00265,-15.06,-0.37,-7.0,2c
2019-07-15_135552:060,-0.42248500000000005,0.032532,-0.28775,-0.003145,-0.001537,0.002589,-15.06,-0.37,-7.0,2c
2019-07-15_135552:080,-0.423004,0.031494,-0.28875700000000004,-0.003145,-0.001202,0.002742,-15.06,-0.37,-7.0,2c
2019-07-15_135552:100,-0.423004,0.031006,-0.288269,-0.00345,-0.0011099999999999999,0.002742,-15.75,-0.06,-6.56,2c
2019-07-15_135552:120,-0.421967,0.030487,-0.28875700000000004,-0.003206,-0.00108,0.002742,-15.75,-0.06,-6.56,2c
2019-07-15_135552:140,-0.42248500000000005,0.030487,-0.287231,-0.0032670000000000004,-0.001141,0.0027719999999999997,-15.75,0.25,-7.37,2c
2019-07-15_135552:160,-0.423004,0.030487,-0.28674299999999997,-0.0029620000000000002,-0.0011099999999999999,0.0027719999999999997,-15.75,0.25,-7.37,2c
2019-07-15_135552:180,-0.423492,0.031006,-0.28775,-0.0028399999999999996,-0.0007740000000000001,0.002742,-15.75,0.25,-7.37,2c
2019-07-15_135552:200,-0.421967,0.031006,-0.285706,-0.003023,-0.000897,0.0027719999999999997,-16.5,0.25,-5.0,2c
2019-07-15_135552:220,-0.42147799999999996,0.030487,-0.28418000000000004,-0.003145,-0.001019,0.002467,-16.5,0.25,-5.0,2c
2019-07-15_135552:240,-0.41943400000000003,0.030487,-0.283173,-0.00345,-0.001019,0.002315,-15.75,0.68,-6.56,2c
2019-07-15_135552:260,-0.41995200000000005,0.028961,-0.28418000000000004,-0.003145,-0.001324,0.002589,-15.75,0.68,-6.56,2c
2019-07-15_135552:280,-0.421967,0.028961,-0.285217,-0.003114,-0.001873,0.001918,-15.75,0.68,-6.56,2c
2019-07-15_135552:300,-0.42147799999999996,0.030487,-0.287231,-0.002687,-0.0020559999999999997,0.001582,-15.06,0.25,-6.18,2c
2019-07-15_135552:320,-0.421967,0.031006,-0.28875700000000004,-0.002382,-0.0020559999999999997,0.002131,-15.06,0.25,-6.18,2c
2019-07-15_135552:340,-0.42401099999999997,0.032532,-0.28979499999999997,-0.002229,-0.0020559999999999997,0.002315,-15.37,1.0,-6.56,2c
2019-07-15_135552:360,-0.42453,0.032532,-0.28875700000000004,-0.0019850000000000002,-0.001446,0.0024059999999999997,-15.37,1.0,-6.56,2c
2019-07-15_135552:380,-0.42248500000000005,0.033539,-0.28979499999999997,-0.00229,-0.00108,0.002711,-15.37,1.0,-6.56,2c
2019-07-15_135552:400,-0.42248500000000005,0.03302,-0.28875700000000004,-0.0028399999999999996,-0.000958,0.003169,-15.37,0.25,-6.56,2c
2019-07-15_135552:420,-0.421967,0.032532,-0.288269,-0.003145,-0.000897,0.003016,-15.37,0.25,-6.56,2c
2019-07-15_135552:440,-0.420441,0.031494,-0.28875700000000004,-0.00345,-0.000958,0.0028940000000000003,-15.37,-0.06,-6.56,2c
2019-07-15_135552:460,-0.420959,0.031494,-0.28674299999999997,-0.003664,-0.001324,0.003016,-15.37,-0.06,-6.56,2c
2019-07-15_135552:480,-0.42147799999999996,0.029968,-0.28875700000000004,-0.0034799999999999996,-0.001263,0.003078,-15.37,-0.06,-6.56,2c
2019-07-15_135552:500,-0.42147799999999996,0.029480000000000003,-0.28875700000000004,-0.0033280000000000002,-0.001598,0.0034130000000000002,-16.18,0.68,-5.75,2c
2019-07-15_135552:520,-0.42248500000000005,0.029480000000000003,-0.287231,-0.003084,-0.001324,0.0027719999999999997,-16.18,0.68,-5.75,2c
2019-07-15_135552:540,-0.42147799999999996,0.030487,-0.28927600000000003,-0.003206,-0.001324,0.0021920000000000004,-15.37,0.68,-7.0,2c
2019-07-15_135552:560,-0.42147799999999996,0.030487,-0.28775,-0.003084,-0.001324,0.002711,-15.37,0.68,-7.0,2c
2019-07-15_135552:580,-0.421967,0.030487,-0.288269,-0.003023,-0.001141,0.00265,-15.37,0.68,-7.0,2c
2019-07-15_135552:600,-0.42147799999999996,0.031006,-0.28927600000000003,-0.0029620000000000002,-0.001202,0.0028940000000000003,-15.75,0.68,-6.56,2c
2019-07-15_135552:620,-0.42248500000000005,0.030487,-0.28927600000000003,-0.002779,-0.001263,0.002742,-15.75,0.68,-6.56,2c
2019-07-15_135552:640,-0.42147799999999996,0.032532,-0.28927600000000003,-0.0029010000000000004,-0.001202,0.002467,-15.06,0.25,-7.0,2c
2019-07-15_135552:660,-0.420959,0.031494,-0.288269,-0.003084,-0.001141,0.002467,-15.06,0.25,-7.0,2c
2019-07-15_135552:680,-0.42147799999999996,0.032532,-0.28927600000000003,-0.003145,-0.001202,0.0025280000000000003,-15.06,0.25,-7.0,2c
2019-07-15_135552:700,-0.420441,0.031494,-0.28775,-0.003145,-0.001446,0.002711,-15.37,-0.06,-7.0,2c
2019-07-15_135552:720,-0.42147799999999996,0.031006,-0.28875700000000004,-0.003206,-0.001446,0.002589,-15.37,-0.06,-7.0,2c
2019-07-15_135552:740,-0.42147799999999996,0.031494,-0.28927600000000003,-0.0029620000000000002,-0.00172,0.0027719999999999997,-15.06,-0.37,-6.56,2c
2019-07-15_135552:760,-0.42147799999999996,0.032013,-0.288269,-0.002748,-0.001202,0.003078,-15.06,-0.37,-6.56,2c
2019-07-15_135552:780,-0.423004,0.03302,-0.28927600000000003,-0.002779,-0.001446,0.002955,-15.06,-0.37,-6.56,2c
2019-07-15_135552:800,-0.42147799999999996,0.03302,-0.290283,-0.003023,-0.00108,0.002955,-15.06,-0.06,-6.18,2c
2019-07-15_135552:820,-0.420959,0.032532,-0.28927600000000003,-0.0033280000000000002,-0.001141,0.003016,-15.06,-0.06,-6.18,2c
2019-07-15_135552:840,-0.420959,0.031006,-0.28979499999999997,-0.0034799999999999996,-0.00108,0.002833,-15.06,0.25,-6.18,2c
2019-07-15_135552:860,-0.42147799999999996,0.030487,-0.28927600000000003,-0.003725,-0.001324,0.002742,-15.06,0.25,-6.18,2c
2019-07-15_135552:880,-0.42147799999999996,0.031494,-0.28927600000000003,-0.0036030000000000003,-0.001385,0.0028940000000000003,-15.06,0.25,-6.18,2c
2019-07-15_135552:900,-0.42248500000000005,0.030487,-0.28875700000000004,-0.003114,-0.00108,0.003078,-15.75,1.0,-5.75,2c
2019-07-15_135552:920,-0.423492,0.032013,-0.286224,-0.0032670000000000004,-0.000897,0.0032909999999999997,-15.75,1.0,-5.75,2c
2019-07-15_135552:940,-0.41842700000000005,0.031494,-0.28674299999999997,-0.0032670000000000004,-0.0008349999999999999,0.003078,-15.75,0.25,-7.37,2c
2019-07-15_135552:960,-0.41842700000000005,0.029968,-0.287231,-0.003542,-0.001202,0.002376,-15.75,0.25,-7.37,2c
2019-07-15_135552:980,-0.416901,0.031006,-0.288269,-0.003725,-0.001843,0.001918,-15.75,0.25,-7.37,2c
2019-07-15_135553:000,-0.41995200000000005,0.029480000000000003,-0.28979499999999997,-0.003542,-0.00227,0.002254,-15.37,-0.06,-6.18,2c
2019-07-15_135553:020,-0.421967,0.029480000000000003,-0.28927600000000003,-0.002748,-0.002117,0.002589,-15.37,-0.06,-6.18,2c
2019-07-15_135553:040,-0.423492,0.032532,-0.290802,-0.002443,-0.001995,0.0027719999999999997,-15.75,0.68,-7.0,2c
2019-07-15_135553:060,-0.423004,0.033539,-0.290283,-0.002168,-0.001537,0.0031079999999999997,-15.75,0.68,-7.0,2c
2019-07-15_135553:080,-0.42248500000000005,0.034058,-0.291321,-0.0025039999999999997,-0.0011099999999999999,0.003474,-15.75,0.68,-7.0,2c
2019-07-15_135553:100,-0.42147799999999996,0.033539,-0.28979499999999997,-0.003023,-0.00108,0.003474,-15.75,0.68,-6.18,2c
2019-07-15_135553:120,-0.41995200000000005,0.03302,-0.28875700000000004,-0.00345,-0.0007740000000000001,0.0032909999999999997,-15.75,0.68,-6.18,2c
2019-07-15_135553:140,-0.420441,0.030487,-0.28875700000000004,-0.0039380000000000005,-0.000958,0.00323,-15.37,-0.06,-5.75,2c
2019-07-15_135553:160,-0.42248500000000005,0.029968,-0.28775,-0.0038469999999999997,-0.001019,0.003169,-15.37,-0.06,-5.75,2c
2019-07-15_135553:180,-0.42147799999999996,0.029968,-0.287231,-0.003725,-0.0007440000000000001,0.003078,-15.37,-0.06,-5.75,2c
2019-07-15_135553:200,-0.420959,0.028961,-0.28775,-0.0034799999999999996,-0.0008349999999999999,0.003016,-15.06,0.68,-5.75,2c
2019-07-15_135553:220,-0.420441,0.029968,-0.28775,-0.003206,-0.001141,0.002711,-15.06,0.68,-5.75,2c
2019-07-15_135553:240,-0.42147799999999996,0.030487,-0.28875700000000004,-0.0033280000000000002,-0.001263,0.002711,-15.37,1.0,-7.0,2c
2019-07-15_135553:260,-0.41995200000000005,0.031006,-0.288269,-0.0032670000000000004,-0.001385,0.002833,-15.37,1.0,-7.0,2c
2019-07-15_135553:280,-0.420441,0.031006,-0.28875700000000004,-0.0033280000000000002,-0.001202,0.002589,-15.37,1.0,-7.0,2c
2019-07-15_135553:300,-0.420959,0.030487,-0.28927600000000003,-0.003206,-0.00172,0.002589,-15.37,0.68,-6.56,2c
2019-07-15_135553:320,-0.420959,0.031006,-0.28927600000000003,-0.003084,-0.001537,0.0024059999999999997,-15.37,0.68,-6.56,2c
2019-07-15_135553:340,-0.420441,0.031006,-0.28927600000000003,-0.0029010000000000004,-0.001537,0.0025280000000000003,-15.06,1.0,-6.56,2c
2019-07-15_135553:360,-0.42147799999999996,0.032013,-0.28979499999999997,-0.0028399999999999996,-0.00172,0.00265,-15.06,1.0,-6.56,2c
2019-07-15_135553:380,-0.41995200000000005,0.03302,-0.290802,-0.0028399999999999996,-0.001934,0.0027719999999999997,-15.06,1.0,-6.56,2c
2019-07-15_135553:400,-0.420441,0.032013,-0.290283,-0.0028399999999999996,-0.001843,0.003016,-16.18,0.25,-6.56,2c
2019-07-15_135553:420,-0.41995200000000005,0.032013,-0.290802,-0.0028399999999999996,-0.001598,0.003016,-16.18,0.25,-6.56,2c
2019-07-15_135553:440,-0.420441,0.032532,-0.28979499999999997,-0.003084,-0.001782,0.003078,-15.75,0.68,-7.0,2c
2019-07-15_135553:460,-0.420959,0.032532,-0.28979499999999997,-0.003145,-0.001934,0.003169,-15.75,0.68,-7.0,2c
2019-07-15_135553:480,-0.42248500000000005,0.031006,-0.29180900000000004,-0.00345,-0.001873,0.0034130000000000002,-15.75,0.68,-7.0,2c
2019-07-15_135553:500,-0.421967,0.031006,-0.28979499999999997,-0.003389,-0.001782,0.0035659999999999997,-15.06,0.25,-6.56,2c
2019-07-15_135553:520,-0.41943400000000003,0.031006,-0.288269,-0.003389,-0.001324,0.003474,-15.06,0.25,-6.56,2c
2019-07-15_135553:540,-0.423004,0.031006,-0.29284699999999997,-0.00345,-0.001263,0.003078,-24.18,0.68,-7.75,2c
2019-07-15_135553:560,-0.420441,0.028961,-0.28979499999999997,-0.00345,-0.001019,0.0033520000000000004,-24.18,0.68,-7.75,2c
2019-07-15_135553:580,-0.420959,0.028442000000000002,-0.291321,-0.003542,-0.001202,0.002955,-24.18,0.68,-7.75,2c
2019-07-15_135553:600,-0.420959,0.028961,-0.291321,-0.003389,-0.001141,0.0028940000000000003,-15.37,0.68,-7.37,2c
2019-07-15_135553:620,-0.42147799999999996,0.028961,-0.290802,-0.003206,-0.000958,0.002833,-15.37,0.68,-7.37,2c
2019-07-15_135553:640,-0.41943400000000003,0.029968,-0.290802,-0.003145,-0.001019,0.002742,-15.06,0.25,-6.56,2c
2019-07-15_135553:660,-0.41995200000000005,0.029968,-0.28927600000000003,-0.003023,-0.0011099999999999999,0.002589,-15.06,0.25,-6.56,2c
2019-07-15_135553:680,-0.418915,0.029480000000000003,-0.290802,-0.002748,-0.001202,0.002711,-15.06,0.25,-6.56,2c
2019-07-15_135553:700,-0.41995200000000005,0.031006,-0.290283,-0.002687,-0.001141,0.002589,-15.37,0.25,-7.0,2c
2019-07-15_135553:720,-0.420441,0.031494,-0.28979499999999997,-0.0028399999999999996,-0.001263,0.002589,-15.37,0.25,-7.0,2c
2019-07-15_135553:740,-0.41943400000000003,0.031006,-0.290802,-0.002748,-0.0011099999999999999,0.002742,-15.75,0.68,-7.37,2c
2019-07-15_135553:760,-0.41943400000000003,0.030487,-0.28875700000000004,-0.0025039999999999997,-0.001324,0.002833,-15.75,0.68,-7.37,2c
2019-07-15_135553:780,-0.423492,0.032532,-0.288269,-0.0026260000000000003,-0.000958,0.002711,-15.75,0.68,-7.37,2c
2019-07-15_135553:800,-0.41943400000000003,0.032013,-0.28875700000000004,-0.0029620000000000002,-0.001019,0.003169,-15.75,-0.37,-7.75,2c
2019-07-15_135553:820,-0.417389,0.030487,-0.28875700000000004,-0.00345,-0.001324,0.002833,-15.75,-0.37,-7.75,2c
2019-07-15_135553:840,-0.417908,0.031006,-0.28979499999999997,-0.0036030000000000003,-0.0014759999999999999,0.0021920000000000004,-15.75,0.25,-7.0,2c
2019-07-15_135553:860,-0.418915,0.031494,-0.29180900000000004,-0.003542,-0.001782,0.0027719999999999997,-15.75,0.25,-7.0,2c
2019-07-15_135553:880,-0.420959,0.029968,-0.29284699999999997,-0.0032670000000000004,-0.001873,0.003169,-15.75,0.25,-7.0,2c
2019-07-15_135553:900,-0.420959,0.028442000000000002,-0.293854,-0.0029620000000000002,-0.001537,0.0028940000000000003,-15.37,0.68,-5.75,2c
2019-07-15_135553:920,-0.41995200000000005,0.029968,-0.29180900000000004,-0.0026260000000000003,-0.001263,0.0028940000000000003,-15.37,0.68,-5.75,2c
2019-07-15_135553:940,-0.418915,0.031006,-0.293854,-0.002748,-0.0011099999999999999,0.0031079999999999997,-14.68,-0.37,-7.0,2c
2019-07-15_135553:960,-0.420441,0.029968,-0.290283,-0.0029620000000000002,-0.00108,0.00323,-14.68,-0.37,-7.0,2c
2019-07-15_135553:980,-0.41995200000000005,0.029480000000000003,-0.29180900000000004,-0.003023,-0.0008349999999999999,0.003078,-14.68,-0.37,-7.0,2c
2019-07-15_135554:000,-0.41842700000000005,0.030487,-0.29232800000000003,-0.0033280000000000002,-0.000897,0.0027719999999999997,-15.75,-0.06,-5.37,2c
2019-07-15_135554:020,-0.42147799999999996,0.027954000000000003,-0.291321,-0.0034799999999999996,-0.000958,0.002315,-15.75,-0.06,-5.37,2c
2019-07-15_135554:040,-0.421967,0.028442000000000002,-0.290802,-0.003084,-0.000958,0.0024059999999999997,-15.06,0.68,-7.37,2c
2019-07-15_135554:060,-0.42147799999999996,0.030487,-0.28979499999999997,-0.0029010000000000004,-0.0005610000000000001,0.0025280000000000003,-15.06,0.68,-7.37,2c
2019-07-15_135554:080,-0.41943400000000003,0.031006,-0.28927600000000003,-0.0026260000000000003,-0.000683,0.002589,-15.06,0.68,-7.37,2c
2019-07-15_135554:100,-0.41943400000000003,0.032532,-0.28979499999999997,-0.0028399999999999996,-0.0008349999999999999,0.002376,-15.06,1.0,-6.18,2c
2019-07-15_135554:120,-0.418915,0.03302,-0.28979499999999997,-0.0029010000000000004,-0.000958,0.0025280000000000003,-15.06,1.0,-6.18,2c
2019-07-15_135554:140,-0.41842700000000005,0.032013,-0.28979499999999997,-0.003145,-0.000958,0.002711,-15.37,1.0,-6.56,2c
2019-07-15_135554:160,-0.418915,0.032013,-0.290802,-0.0034799999999999996,-0.00108,0.002742,-15.37,1.0,-6.56,2c
2019-07-15_135554:180,-0.41943400000000003,0.029968,-0.290283,-0.003389,-0.001202,0.0027719999999999997,-15.37,1.0,-6.56,2c
2019-07-15_135554:200,-0.418915,0.029968,-0.290283,-0.0033280000000000002,-0.001446,0.0028940000000000003,-15.37,0.25,-6.18,2c
2019-07-15_135554:220,-0.420441,0.029968,-0.291321,-0.003084,-0.001385,0.002711,-15.37,0.25,-6.18,2c
2019-07-15_135554:240,-0.420441,0.028961,-0.290802,-0.002687,-0.001385,0.002742,-15.37,0.25,-7.0,2c
2019-07-15_135554:260,-0.420441,0.029968,-0.29232800000000003,-0.0028399999999999996,-0.001263,0.00265,-15.37,0.25,-7.0,2c
2019-07-15_135554:280,-0.418915,0.030487,-0.290802,-0.002565,-0.001263,0.002376,-15.37,0.25,-7.0,2c
2019-07-15_135554:300,-0.417389,0.030487,-0.29232800000000003,-0.002687,-0.001537,0.0021920000000000004,-15.37,-0.06,-7.75,2c
2019-07-15_135554:320,-0.41995200000000005,0.031494,-0.290283,-0.002687,-0.001446,0.002315,-15.37,-0.06,-7.75,2c
2019-07-15_135554:340,-0.420959,0.032532,-0.29284699999999997,-0.002565,-0.001263,0.00265,-15.75,0.68,-6.56,2c
2019-07-15_135554:360,-0.420959,0.03302,-0.29232800000000003,-0.002779,-0.00108,0.002833,-15.75,0.68,-6.56,2c
2019-07-15_135554:380,-0.41943400000000003,0.032532,-0.29232800000000003,-0.0029620000000000002,-0.001263,0.0028940000000000003,-15.75,0.68,-6.56,2c
2019-07-15_135554:400,-0.41842700000000005,0.03302,-0.291321,-0.003145,-0.001141,0.003016,-15.06,0.25,-7.0,2c
2019-07-15_135554:420,-0.41943400000000003,0.032013,-0.29180900000000004,-0.0034799999999999996,-0.001324,0.0031079999999999997,-15.06,0.25,-7.0,2c
2019-07-15_135554:440,-0.418915,0.031494,-0.29232800000000003,-0.00345,-0.001324,0.003078,-15.37,0.68,-6.56,2c
2019-07-15_135554:460,-0.41943400000000003,0.030487,-0.29232800000000003,-0.003725,-0.001141,0.003078,-15.37,0.68,-6.56,2c
2019-07-15_135554:480,-0.418915,0.029480000000000003,-0.291321,-0.0034799999999999996,-0.001202,0.0028940000000000003,-15.37,0.68,-6.56,2c
2019-07-15_135554:500,-0.417908,0.029480000000000003,-0.291321,-0.003389,-0.001385,0.0027719999999999997,-15.37,0.25,-6.56,2c
2019-07-15_135554:520,-0.41995200000000005,0.029480000000000003,-0.290802,-0.003206,-0.001598,0.0027719999999999997,-15.37,0.25,-6.56,2c
2019-07-15_135554:540,-0.41995200000000005,0.030487,-0.29180900000000004,-0.002687,-0.001385,0.002589,-14.68,-0.37,-7.0,2c
2019-07-15_135554:560,-0.420959,0.031006,-0.291321,-0.0026260000000000003,-0.001202,0.002955,-14.68,-0.37,-7.0,2c
2019-07-15_135554:580,-0.42147799999999996,0.031006,-0.291321,-0.002779,-0.001202,0.0028940000000000003,-14.68,-0.37,-7.0,2c
2019-07-15_135554:600,-0.41943400000000003,0.030487,-0.290283,-0.0028399999999999996,-0.0008349999999999999,0.002711,-16.18,0.25,-6.18,2c
2019-07-15_135554:620,-0.418915,0.032013,-0.28927600000000003,-0.003023,-0.001019,0.0027719999999999997,-16.18,0.25,-6.18,2c
2019-07-15_135554:640,-0.417908,0.031494,-0.28979499999999997,-0.003023,-0.001202,0.0024059999999999997,-15.37,-0.06,-7.0,2c
2019-07-15_135554:660,-0.417908,0.031006,-0.29180900000000004,-0.003145,-0.001598,0.0021920000000000004,-15.37,-0.06,-7.0,2c
2019-07-15_135554:680,-0.417908,0.03302,-0.293854,-0.003114,-0.001873,0.002711,-15.37,-0.06,-7.0,2c
2019-07-15_135554:700,-0.418915,0.029968,-0.294373,-0.003023,-0.001843,0.0027719999999999997,-16.18,0.25,-6.56,2c
2019-07-15_135554:720,-0.41943400000000003,0.030487,-0.293335,-0.002687,-0.001385,0.002711,-16.18,0.25,-6.56,2c
2019-07-15_135554:740,-0.41995200000000005,0.031494,-0.294373,-0.002687,-0.001019,0.0027719999999999997,-16.18,0.68,-7.0,2c
2019-07-15_135554:760,-0.41995200000000005,0.032013,-0.29232800000000003,-0.002687,-0.0006219999999999999,0.002955,-16.18,0.68,-7.0,2c
2019-07-15_135554:780,-0.417908,0.032532,-0.29232800000000003,-0.003114,-0.000683,0.003016,-16.18,0.68,-7.0,2c
2019-07-15_135554:800,-0.418915,0.031494,-0.29232800000000003,-0.0032670000000000004,-0.000897,0.0028940000000000003,-15.06,0.68,-6.18,2c
2019-07-15_135554:820,-0.41995200000000005,0.031494,-0.290802,-0.00345,-0.000897,0.002742,-15.06,0.68,-6.18,2c
2019-07-15_135554:840,-0.41943400000000003,0.029480000000000003,-0.290802,-0.003389,-0.0006219999999999999,0.00265,-15.06,0.25,-7.0,2c
2019-07-15_135554:860,-0.42248500000000005,0.030487,-0.29180900000000004,-0.0032670000000000004,-0.0007440000000000001,0.002955,-15.06,0.25,-7.0,2c
2019-07-15_135554:880,-0.41995200000000005,0.031006,-0.28979499999999997,-0.003023,-0.0005,0.0032909999999999997,-15.06,0.25,-7.0,2c
2019-07-15_135554:900,-0.418915,0.029968,-0.28979499999999997,-0.0029010000000000004,-0.0005,0.0024059999999999997,-15.37,1.0,-6.18,2c
2019-07-15_135554:920,-0.417908,0.030487,-0.28875700000000004,-0.0029620000000000002,-0.0007440000000000001,0.002315,-15.37,1.0,-6.18,2c
2019-07-15_135554:940,-0.41943400000000003,0.032013,-0.290283,-0.002748,-0.000958,0.002589,-15.06,0.68,-6.18,2c
2019-07-15_135554:960,-0.41943400000000003,0.031494,-0.290802,-0.0029620000000000002,-0.0011099999999999999,0.002742,-15.06,0.68,-6.18,2c
2019-07-15_135554:980,-0.41943400000000003,0.031494,-0.290283,-0.0029010000000000004,-0.00108,0.002711,-15.06,0.68,-6.18,2c
2019-07-15_135555:000,-0.418915,0.029968,-0.29180900000000004,-0.0028399999999999996,-0.000897,0.0024059999999999997,-15.37,0.68,-5.75,2c
2019-07-15_135555:020,-0.41943400000000003,0.031006,-0.290283,-0.0028399999999999996,-0.001141,0.0024059999999999997,-15.37,0.68,-5.75,2c
2019-07-15_135555:040,-0.41842700000000005,0.031494,-0.291321,-0.0029620000000000002,-0.0011099999999999999,0.0024059999999999997,-15.37,0.25,-7.0,2c
2019-07-15_135555:060,-0.418915,0.032013,-0.29180900000000004,-0.0029010000000000004,-0.001446,0.002467,-15.37,0.25,-7.0,2c
2019-07-15_135555:080,-0.41943400000000003,0.031006,-0.291321,-0.003023,-0.001537,0.00265,-15.37,0.25,-7.0,2c
2019-07-15_135555:100,-0.41943400000000003,0.03302,-0.291321,-0.003023,-0.001324,0.002467,-15.37,0.68,-7.37,2c
2019-07-15_135555:120,-0.41943400000000003,0.032532,-0.29232800000000003,-0.0029620000000000002,-0.001385,0.002742,-15.37,0.68,-7.37,2c
2019-07-15_135555:140,-0.41995200000000005,0.032532,-0.293854,-0.003084,-0.001141,0.002833,-15.37,0.68,-7.37,2c
2019-07-15_135555:160,-0.41995200000000005,0.032013,-0.294373,-0.003023,-0.00108,0.002833,-15.37,0.68,-7.37,2c
2019-07-15_135555:180,-0.418915,0.031494,-0.29180900000000004,-0.0029620000000000002,-0.00108,0.0027719999999999997,-15.37,0.68,-7.37,2c
2019-07-15_135555:200,-0.41943400000000003,0.031006,-0.29232800000000003,-0.0029010000000000004,-0.0008349999999999999,0.002711,-15.75,-0.06,-7.0,2c
2019-07-15_135555:220,-0.417389,0.032013,-0.29180900000000004,-0.003145,-0.0011099999999999999,0.002742,-15.75,-0.06,-7.0,2c
2019-07-15_135555:240,-0.41995200000000005,0.029968,-0.29232800000000003,-0.0029620000000000002,-0.00108,0.0025280000000000003,-15.06,-0.06,-8.18,2c
2019-07-15_135555:260,-0.42401099999999997,0.031006,-0.29538000000000003,-0.0028399999999999996,-0.000897,0.002009,-15.06,-0.06,-8.18,2c
2019-07-15_135555:280,-0.41943400000000003,0.033539,-0.28674299999999997,-0.0029010000000000004,-0.000103,0.002376,-15.06,-0.06,-8.18,2c
2019-07-15_135555:300,-0.418915,0.032013,-0.293335,-0.0029010000000000004,-4.2e-05,0.00265,-15.06,1.0,-7.37,2c
2019-07-15_135555:320,-0.41842700000000005,0.031006,-0.29180900000000004,-0.002748,5e-05,0.002955,-15.06,1.0,-7.37,2c
2019-07-15_135555:340,-0.416901,0.028442000000000002,-0.293854,-0.0025039999999999997,-4.2e-05,0.0034130000000000002,-15.06,1.0,-7.37,2c
2019-07-15_135555:360,-0.41842700000000005,0.027435,-0.293335,-0.00229,-0.0005,0.003474,-15.37,-0.06,-6.56,2c
2019-07-15_135555:380,-0.42147799999999996,0.027435,-0.293335,-0.0018329999999999998,-0.0007440000000000001,0.002589,-15.37,-0.06,-6.56,2c
2019-07-15_135555:400,-0.425018,0.031494,-0.29284699999999997,-0.001375,-0.000286,0.0024059999999999997,-16.18,-0.06,-6.56,2c
2019-07-15_135555:420,-0.425018,0.032013,-0.291321,-0.001375,0.000629,0.002376,-16.18,-0.06,-6.56,2c
2019-07-15_135555:440,-0.423004,0.034058,-0.29180900000000004,-0.001771,0.001179,0.0017350000000000002,-16.18,-0.06,-6.56,2c
2019-07-15_135555:460,-0.42147799999999996,0.036072,-0.29180900000000004,-0.002443,0.001362,0.00207,-15.06,1.06,-6.5,2c
2019-07-15_135555:480,-0.427063,0.035583,-0.290283,-0.003084,0.001972,0.00265,-15.06,1.06,-6.5,2c
2019-07-15_135555:500,-0.42248500000000005,0.035065,-0.296387,-0.003389,0.002705,0.003016,-15.06,0.25,-5.68,2c
2019-07-15_135555:520,-0.42605600000000005,0.035583,-0.296387,-0.0032670000000000004,0.0032840000000000005,0.003016,-15.06,0.25,-5.68,2c
2019-07-15_135555:540,-0.43518100000000004,0.036591000000000005,-0.29180900000000004,-0.003084,0.0036810000000000002,0.0035659999999999997,-15.06,0.25,-5.68,2c
2019-07-15_135555:560,-0.434174,0.038116000000000004,-0.285217,-0.003023,0.005024,0.004024,-15.37,0.0,-6.06,2c
2019-07-15_135555:580,-0.42147799999999996,0.041687,-0.275543,-0.00345,0.006336,0.005549,-15.37,0.0,-6.06,2c
2019-07-15_135555:600,-0.41995200000000005,0.035583,-0.275543,-0.004854,0.006214,0.006343,-18.0,0.75,-5.25,2c
2019-07-15_135555:620,-0.42401099999999997,0.032532,-0.268951,-0.006197,0.0061530000000000005,0.0065569999999999995,-18.0,0.75,-5.25,2c
2019-07-15_135555:640,-0.425537,0.025421,-0.26944,-0.0068980000000000005,0.0054210000000000005,0.00674,-18.0,0.75,-5.25,2c
2019-07-15_135555:660,-0.427063,0.022858,-0.269958,-0.0069900000000000006,0.004688,0.005763,-16.059998999999998,0.75,-5.87,2c
2019-07-15_135555:680,-0.42605600000000005,0.019318000000000002,-0.270477,-0.006197,0.003742,0.005275,-16.059998999999998,0.75,-5.87,2c
2019-07-15_135555:700,-0.420959,0.020844,-0.273529,-0.005312,0.002613,0.004634,-15.75,0.75,-7.5,2c
2019-07-15_135555:720,-0.423492,0.022369,-0.274017,-0.004182,0.000904,0.004542,-15.75,0.75,-7.5,2c
2019-07-15_135555:740,-0.417908,0.022369,-0.278107,-0.002779,0.000233,0.004298,-15.75,0.75,-7.5,2c
2019-07-15_135555:760,-0.423492,0.026427999999999997,-0.28418000000000004,-0.001497,-0.000439,0.00381,-15.56,0.75,-5.87,2c
2019-07-15_135555:780,-0.421967,0.030487,-0.285217,-0.0007030000000000001,-0.00034700000000000003,0.003749,-15.56,0.75,-5.87,2c
2019-07-15_135555:800,-0.42605600000000005,0.031494,-0.286224,-0.0007639999999999999,-0.0007440000000000001,0.0036270000000000004,-15.18,1.06,-5.37,2c
2019-07-15_135555:820,-0.42858900000000005,0.035583,-0.284698,-0.0007030000000000001,-0.000103,0.0036880000000000003,-15.18,1.06,-5.37,2c
2019-07-15_135555:840,-0.43011499999999997,0.037108999999999996,-0.284698,-0.0017100000000000001,0.000446,0.004359,-15.18,1.06,-5.37,2c
2019-07-15_135555:860,-0.429108,0.034546,-0.281647,-0.0029010000000000004,0.000843,0.005031,-16.059998999999998,0.37,-6.18,2c
2019-07-15_135555:880,-0.429108,0.032013,-0.279114,-0.00406,0.000782,0.006343,-16.059998999999998,0.37,-6.18,2c
2019-07-15_135555:900,-0.432159,0.026427999999999997,-0.278107,-0.005372999999999999,0.000294,0.0074719999999999995,-15.25,1.06,-5.75,2c
2019-07-15_135555:920,-0.431641,0.020844,-0.277588,-0.006502,0.000294,0.008204000000000001,-15.25,1.06,-5.75,2c
2019-07-15_135555:940,-0.429596,0.019806,-0.277588,-0.0068980000000000005,0.0005679999999999999,0.007991,-15.25,1.06,-5.75,2c
2019-07-15_135555:960,-0.42605600000000005,0.015747,-0.279114,-0.007387,0.0010869999999999999,0.007991,-15.25,0.87,-5.75,2c
2019-07-15_135555:980,-0.42807,0.014740000000000001,-0.280121,-0.007631000000000001,0.000843,0.006953,-15.25,0.87,-5.75,2c
2019-07-15_135556:000,-0.42758199999999996,0.016266,-0.279114,-0.007967,0.0007509999999999999,0.006007,-15.68,0.87,-6.87,2c
2019-07-15_135556:020,-0.42605600000000005,0.015747,-0.275543,-0.008119,0.0006900000000000001,0.004481000000000001,-15.68,0.87,-6.87,2c
2019-07-15_135556:040,-0.429596,0.016753999999999998,-0.276062,-0.008119,0.000294,0.002955,-15.68,0.87,-6.87,2c
2019-07-15_135556:060,-0.430634,0.019806,-0.273529,-0.008241,0.00011100000000000001,0.00207,-15.56,1.18,-4.87,2c
2019-07-15_135556:080,-0.429108,0.021332,-0.272491,-0.008028,-0.000225,0.001399,-15.56,1.18,-4.87,2c
2019-07-15_135556:100,-0.42858900000000005,0.021332,-0.27301,-0.007844,-0.001202,0.000789,-15.25,1.56,-6.5,2c
2019-07-15_135556:120,-0.42758199999999996,0.025421,-0.269958,-0.007051000000000001,-0.001598,0.000392,-15.25,1.56,-6.5,2c
2019-07-15_135556:140,-0.43011499999999997,0.026427999999999997,-0.269958,-0.006441,-0.0021780000000000002,0.00020899999999999998,-15.25,1.56,-6.5,2c
2019-07-15_135556:160,-0.43011499999999997,0.026427999999999997,-0.270966,-0.005769,-0.002392,0.00020899999999999998,-15.68,0.56,-5.18,2c
2019-07-15_135556:180,-0.425018,0.026427999999999997,-0.272491,-0.005128,-0.0024530000000000003,-6.6e-05,-15.68,0.56,-5.18,2c
2019-07-15_135556:200,-0.42605600000000005,0.031006,-0.276062,-0.003542,-0.003399,0.00027,-15.68,0.5,-5.68,2c
2019-07-15_135556:220,-0.427063,0.031006,-0.276581,-0.0029620000000000002,-0.003918,0.000545,-15.68,0.5,-5.68,2c
2019-07-15_135556:240,-0.429108,0.033539,-0.281647,-0.002229,-0.004253,0.000728,-15.68,0.5,-5.68,2c
2019-07-15_135556:260,-0.429108,0.034058,-0.282166,-0.001558,-0.003796,0.001521,-15.68,0.87,-5.37,2c
2019-07-15_135556:280,-0.430634,0.034546,-0.282166,-0.001558,-0.003246,0.0025280000000000003,-15.68,0.87,-5.37,2c
2019-07-15_135556:300,-0.429596,0.032532,-0.281647,-0.0016489999999999999,-0.002575,0.003474,-15.68,0.37,-6.06,2c
2019-07-15_135556:320,-0.42807,0.031006,-0.280121,-0.0018329999999999998,-0.0020559999999999997,0.0034130000000000002,-15.68,0.37,-6.06,2c
2019-07-15_135556:340,-0.429108,0.029480000000000003,-0.279633,-0.001955,-0.00227,0.00265,-15.68,0.37,-6.06,2c
2019-07-15_135556:360,-0.432648,0.029968,-0.279114,-0.0016489999999999999,-0.0023309999999999997,0.002254,-15.68,0.5,-5.0,2c
2019-07-15_135556:380,-0.430634,0.031006,-0.277069,-0.0016489999999999999,-0.001324,0.001796,-15.68,0.5,-5.0,2c
2019-07-15_135556:400,-0.42758199999999996,0.033539,-0.278595,-0.001314,-0.0008349999999999999,0.001582,-16.059998999999998,0.0,-6.56,2c
2019-07-15_135556:420,-0.425537,0.034546,-0.277069,-0.001558,-0.0008349999999999999,0.001521,-16.059998999999998,0.0,-6.56,2c
2019-07-15_135556:440,-0.426544,0.033539,-0.278107,-0.0019850000000000002,-0.001537,0.0016129999999999999,-16.059998999999998,0.0,-6.56,2c
2019-07-15_135556:460,-0.42807,0.032532,-0.278595,-0.00229,-0.001934,0.001979,-16.059998999999998,0.0,-5.75,2c
2019-07-15_135556:480,-0.42807,0.031006,-0.278107,-0.002443,-0.0020559999999999997,0.0024059999999999997,-16.059998999999998,0.0,-5.75,2c
2019-07-15_135556:500,-0.427063,0.032013,-0.278595,-0.002779,-0.00172,0.002711,-15.68,0.0,-6.56,2c
2019-07-15_135556:520,-0.426544,0.030487,-0.276581,-0.0029010000000000004,-0.0014759999999999999,0.003016,-15.68,0.0,-6.56,2c
2019-07-15_135556:540,-0.425018,0.029480000000000003,-0.278595,-0.003145,-0.001537,0.003078,-15.68,0.0,-6.56,2c
2019-07-15_135556:560,-0.427063,0.027435,-0.278595,-0.003389,-0.001598,0.0027719999999999997,-16.059998999999998,0.37,-5.37,2c
2019-07-15_135556:580,-0.42758199999999996,0.027435,-0.278595,-0.0029620000000000002,-0.001385,0.002742,-16.059998999999998,0.37,-5.37,2c
2019-07-15_135556:600,-0.42858900000000005,0.027435,-0.278107,-0.0026260000000000003,-0.0014759999999999999,0.0027719999999999997,-16.370001000000002,0.37,-5.37,2c
2019-07-15_135556:620,-0.429596,0.027435,-0.276581,-0.002382,-0.001446,0.002955,-16.370001000000002,0.37,-5.37,2c
2019-07-15_135556:640,-0.42858900000000005,0.028442000000000002,-0.277588,-0.002107,-0.0014759999999999999,0.003078,-16.370001000000002,0.37,-5.37,2c
2019-07-15_135556:660,-0.426544,0.027954000000000003,-0.275055,-0.002443,-0.001263,0.0027719999999999997,-15.0,0.75,-6.18,2c
2019-07-15_135556:680,-0.425537,0.027435,-0.277588,-0.0025039999999999997,-0.001385,0.002589,-15.0,0.75,-6.18,2c
2019-07-15_135556:700,-0.42605600000000005,0.028442000000000002,-0.278107,-0.002748,-0.00172,0.0021920000000000004,-15.0,1.06,-6.18,2c
2019-07-15_135556:720,-0.425537,0.027954000000000003,-0.278107,-0.0026260000000000003,-0.0020559999999999997,0.002131,-15.0,1.06,-6.18,2c
2019-07-15_135556:740,-0.42858900000000005,0.027435,-0.278107,-0.002687,-0.002117,0.0021920000000000004,-15.0,1.06,-6.18,2c
2019-07-15_135556:760,-0.427063,0.027954000000000003,-0.279114,-0.002565,-0.001934,0.0025280000000000003,-15.25,0.37,-7.0,2c
2019-07-15_135556:780,-0.427063,0.028442000000000002,-0.279633,-0.0023510000000000002,-0.0024530000000000003,0.002315,-15.25,0.37,-7.0,2c
2019-07-15_135556:800,-0.427063,0.029968,-0.278595,-0.0023510000000000002,-0.001995,0.001918,-15.25,1.06,-6.18,2c
2019-07-15_135556:820,-0.42453,0.029480000000000003,-0.278107,-0.002687,-0.00172,0.001918,-15.25,1.06,-6.18,2c
2019-07-15_135556:840,-0.42401099999999997,0.026917,-0.279114,-0.002443,-0.002239,0.001338,-15.25,1.06,-6.18,2c
2019-07-15_135556:860,-0.423004,0.027954000000000003,-0.28064,-0.002046,-0.002728,0.001185,-15.68,0.75,-5.0,2c
2019-07-15_135556:880,-0.425537,0.029968,-0.282166,-0.001771,-0.003002,0.001521,-15.68,0.75,-5.0,2c
2019-07-15_135556:900,-0.427063,0.028442000000000002,-0.282654,-0.0016190000000000002,-0.0027890000000000002,0.001399,-15.18,0.5,-5.75,2c
2019-07-15_135556:920,-0.431122,0.029968,-0.283173,-0.001253,-0.002667,0.001582,-15.18,0.5,-5.75,2c
2019-07-15_135556:940,-0.429596,0.03302,-0.28369099999999997,-0.001161,-0.001843,0.001582,-15.18,0.5,-5.75,2c
2019-07-15_135556:960,-0.425537,0.03302,-0.28369099999999997,-0.0011,-0.001019,0.001674,-15.18,0.5,-5.37,2c
2019-07-15_135556:980,-0.42248500000000005,0.033539,-0.283173,-0.001497,-0.001263,0.001979,-15.18,0.5,-5.37,2c
2019-07-15_135557:000,-0.42248500000000005,0.034058,-0.28418000000000004,-0.002046,-0.001598,0.0021920000000000004,-15.18,0.5,-5.75,2c
2019-07-15_135557:020,-0.425018,0.029968,-0.28418000000000004,-0.003023,-0.001995,0.001979,-15.18,0.5,-5.75,2c
2019-07-15_135557:040,-0.42453,0.031006,-0.28418000000000004,-0.003114,-0.0021780000000000002,0.001857,-15.18,0.5,-5.75,2c
2019-07-15_135557:060,-0.429596,0.030487,-0.28418000000000004,-0.0032670000000000004,-0.001873,0.001857,-15.56,1.18,-6.56,2c
2019-07-15_135557:080,-0.42758199999999996,0.029480000000000003,-0.284698,-0.003023,-0.001598,0.001979,-15.56,1.18,-6.56,2c
2019-07-15_135557:100,-0.42807,0.028442000000000002,-0.28418000000000004,-0.002748,-0.001202,0.001857,-14.87,0.5,-7.37,2c
2019-07-15_135557:120,-0.423004,0.029968,-0.282654,-0.002107,-0.000683,0.0024059999999999997,-14.87,0.5,-7.37,2c
2019-07-15_135557:140,-0.42758199999999996,0.028961,-0.285217,-0.001558,-0.000958,0.002711,-14.87,0.5,-7.37,2c
2019-07-15_135557:160,-0.42807,0.029480000000000003,-0.28418000000000004,-0.0016489999999999999,-0.0007740000000000001,0.002833,-15.56,0.5,-6.18,2c
2019-07-15_135557:180,-0.42807,0.029968,-0.284698,-0.001253,0.00011100000000000001,0.002742,-15.56,0.5,-6.18,2c
2019-07-15_135557:200,-0.42807,0.030487,-0.283173,-0.001161,0.000629,0.002589,-16.0,0.0,-5.75,2c
2019-07-15_135557:220,-0.42401099999999997,0.027954000000000003,-0.280121,-0.001436,0.000843,0.0025280000000000003,-16.0,0.0,-5.75,2c
2019-07-15_135557:240,-0.423492,0.028442000000000002,-0.278107,-0.001253,0.00038500000000000003,0.002254,-16.0,0.0,-5.75,2c
2019-07-15_135557:260,-0.433655,0.025421,-0.278107,-0.0005200000000000001,0.000629,0.001521,-16.0,0.87,-5.75,2c
2019-07-15_135557:280,-0.42807,0.026917,-0.28064,0.000426,0.0006900000000000001,0.000941,-16.0,0.87,-5.75,2c
2019-07-15_135557:300,-0.423004,0.032013,-0.28064,0.00067,0.0010869999999999999,0.000453,-15.18,1.56,-7.0,2c
2019-07-15_135557:320,-0.425537,0.03302,-0.278595,-0.000368,0.00124,-5e-06,-15.18,1.56,-7.0,2c
2019-07-15_135557:340,-0.418915,0.036591000000000005,-0.282166,-0.0007639999999999999,0.000782,0.00088,-15.18,1.56,-7.0,2c
2019-07-15_135557:360,-0.42605600000000005,0.033539,-0.277588,-0.001771,0.000172,0.0016129999999999999,-16.0,0.0,-7.0,2c
2019-07-15_135557:380,-0.430634,0.037108999999999996,-0.277069,-0.001955,0.000233,0.00265,-16.0,0.0,-7.0,2c
2019-07-15_135557:400,-0.429596,0.035583,-0.278107,-0.0029010000000000004,0.000446,0.0031079999999999997,-15.18,1.0,-5.37,2c
2019-07-15_135557:420,-0.429108,0.034546,-0.278107,-0.0034799999999999996,0.0005679999999999999,0.002833,-15.18,1.0,-5.37,2c
2019-07-15_135557:440,-0.430634,0.032013,-0.277588,-0.003725,0.000782,0.002589,-15.18,1.0,-5.37,2c
2019-07-15_135557:460,-0.42453,0.029968,-0.277588,-0.0039380000000000005,0.0006900000000000001,0.002131,-15.18,1.06,-5.0,2c
2019-07-15_135557:480,-0.420441,0.028961,-0.28064,-0.00345,0.00011100000000000001,0.0021920000000000004,-15.18,1.06,-5.0,2c
2019-07-15_135557:500,-0.43011499999999997,0.027435,-0.28112800000000004,-0.002779,-0.000164,0.002315,-16.25,0.0,-4.68,2c
2019-07-15_135557:520,-0.431122,0.029968,-0.28112800000000004,-0.0019850000000000002,0.00011100000000000001,0.0024059999999999997,-16.25,0.0,-4.68,2c
2019-07-15_135557:540,-0.427063,0.031494,-0.278595,-0.000917,0.0011480000000000001,0.002589,-16.25,0.0,-4.68,2c
2019-07-15_135557:560,-0.427063,0.03302,-0.278107,-0.000642,0.000965,0.002589,-15.56,0.75,-6.25,2c
2019-07-15_135557:580,-0.427063,0.03302,-0.276062,-0.001314,0.00011100000000000001,0.003078,-15.56,0.75,-6.25,2c
2019-07-15_135557:600,-0.430634,0.03302,-0.27301,-0.0016489999999999999,0.00035499999999999996,0.003474,-15.56,0.75,-6.25,2c
2019-07-15_135557:620,-0.429596,0.028442000000000002,-0.277069,-0.0016489999999999999,0.000172,0.002833,-15.56,0.75,-6.25,2c
2019-07-15_135557:640,-0.42605600000000005,0.030487,-0.277069,-0.001558,-0.000103,0.002742,-15.56,0.75,-6.25,2c
2019-07-15_135557:660,-0.42758199999999996,0.029968,-0.276581,-0.001497,-0.000164,0.0034130000000000002,-16.68,0.37,-5.87,2c
2019-07-15_135557:680,-0.423004,0.027954000000000003,-0.277069,-0.0018329999999999998,-0.0005610000000000001,0.004085,-16.68,0.37,-5.87,2c
2019-07-15_135557:700,-0.425018,0.027435,-0.277069,-0.00229,-0.000958,0.004146,-16.0,0.75,-4.25,2c
2019-07-15_135557:720,-0.43011499999999997,0.023375999999999997,-0.277588,-0.0029620000000000002,-0.001263,0.0036270000000000004,-16.0,0.75,-4.25,2c
2019-07-15_135557:740,-0.432648,0.023375999999999997,-0.280121,-0.003114,-0.0011099999999999999,0.002711,-16.0,0.75,-4.25,2c
2019-07-15_135557:760,-0.433655,0.023375999999999997,-0.279114,-0.0029620000000000002,-0.0005,0.00207,-15.25,0.06,-5.5,2c
2019-07-15_135557:780,-0.432648,0.023375999999999997,-0.275543,-0.002687,-0.000225,0.001338,-15.25,0.06,-5.5,2c
2019-07-15_135557:800,-0.429596,0.026917,-0.274536,-0.0023510000000000002,-0.0005,0.00088,-15.68,0.87,-6.68,2c
2019-07-15_135557:820,-0.423004,0.031006,-0.272491,-0.0025039999999999997,-0.001019,0.0010630000000000001,-15.68,0.87,-6.68,2c
2019-07-15_135557:840,-0.420959,0.032532,-0.274536,-0.0026260000000000003,-0.002117,0.001979,-15.68,0.87,-6.68,2c
2019-07-15_135557:860,-0.420441,0.031494,-0.276581,-0.003023,-0.003643,0.00265,-16.0,0.87,-5.5,2c
2019-07-15_135557:880,-0.42401099999999997,0.030487,-0.278107,-0.003206,-0.004772,0.0032909999999999997,-16.0,0.87,-5.5,2c
2019-07-15_135557:900,-0.43011499999999997,0.027954000000000003,-0.278595,-0.0028399999999999996,-0.004772,0.003749,-15.56,-0.18,-6.25,2c
2019-07-15_135557:920,-0.431122,0.026427999999999997,-0.280121,-0.0025039999999999997,-0.003857,0.0034130000000000002,-15.56,-0.18,-6.25,2c
2019-07-15_135557:940,-0.430634,0.026917,-0.282654,-0.0019850000000000002,-0.003124,0.002742,-15.56,-0.18,-6.25,2c
