timestamp,AccX,AccY,AccZ,GyroX,GyroY,GyroZ,MagX,MagY,MagZ,Activity
2019-07-15_171331:500,-0.42147799999999996,-0.05996699999999999,-0.42605600000000005,0.029294999999999998,-0.038494,-0.003392,-14.5,8.5,-42.18,1b
2019-07-15_171331:520,-0.430634,-0.035583,-0.437225,0.035185,-0.033977999999999994,-0.004765999999999999,-14.5,8.5,-42.18,1b
2019-07-15_171331:540,-0.394012,-0.026427999999999997,-0.44281000000000004,0.032805,-0.034039,-0.002904,-12.25,9.18,-44.18,1b
2019-07-15_171331:560,-0.399109,-0.057434000000000006,-0.453491,0.02777,-0.036633,0.0042369999999999994,-12.25,9.18,-44.18,1b
2019-07-15_171331:580,-0.423492,-0.091003,-0.5048520000000001,0.026427,-0.036449,0.005275,-12.25,9.18,-44.18,1b
2019-07-15_171331:600,-0.34570300000000004,-0.07421900000000001,-0.48553500000000005,0.025969,-0.034312999999999996,0.000606,-11.18,10.68,-44.5,1b
2019-07-15_171331:620,-0.256226,-0.052338,-0.47079499999999996,0.024199000000000002,-0.034863,-0.001714,-11.18,10.68,-44.5,1b
2019-07-15_171331:640,-0.239441,-0.06405599999999999,-0.440796,0.019621,-0.030254000000000003,-0.005589,-10.06,11.68,-42.560001,1b
2019-07-15_171331:660,-0.2659,-0.06253099999999999,-0.45654300000000003,0.019347,-0.026226,-0.008092,-10.06,11.68,-42.560001,1b
2019-07-15_171331:680,-0.23690799999999998,-0.05285599999999999,-0.477905,0.019530000000000002,-0.026135000000000002,-0.000188,-10.06,11.68,-42.560001,1b
2019-07-15_171331:700,-0.25012199999999996,-0.045226999999999996,-0.49111899999999997,0.016203,-0.026135000000000002,0.014430000000000002,-7.87,12.87,-45.25,1b
2019-07-15_171331:720,-0.267914,-0.066071,-0.47433500000000006,0.010497,-0.020519,0.017909,-7.87,12.87,-45.25,1b
2019-07-15_171331:740,-0.245544,-0.06149299999999999,-0.467224,0.00421,-0.011729999999999999,0.008784,-7.87,13.18,-44.560001,1b
2019-07-15_171331:760,-0.235382,-0.051849,-0.453003,-0.000307,-0.0060539999999999995,0.006801000000000001,-7.87,13.18,-44.560001,1b
2019-07-15_171331:780,-0.21911599999999998,-0.042694,-0.449432,-0.00345,-0.003582,0.013453,-7.87,13.18,-44.560001,1b
2019-07-15_171331:800,-0.23995999999999998,-0.023895,-0.432648,-0.010103000000000001,-0.001537,0.019435,-6.06,13.87,-43.369999,1b
2019-07-15_171331:820,-0.243011,-0.026427999999999997,-0.435699,-0.018281,0.005268,0.022394999999999998,-6.06,13.87,-43.369999,1b
2019-07-15_171331:840,-0.260284,-0.034058,-0.417908,-0.025514,0.012043,0.022548,-6.06,13.5,-44.25,1b
2019-07-15_171331:860,-0.274017,-0.024384,-0.388916,-0.030672,0.019091999999999998,0.022456,-6.06,13.5,-44.25,1b
2019-07-15_171331:880,-0.28927600000000003,-0.013702,-0.389435,-0.035707,0.027912,0.025537999999999998,-6.06,13.5,-44.25,1b
2019-07-15_171331:900,-0.282654,-0.014740000000000001,-0.395538,-0.042085000000000004,0.035938,0.031428,-6.5,13.18,-43.75,1b
2019-07-15_171331:920,-0.271484,-0.014221000000000001,-0.383331,-0.047395,0.041583999999999996,0.036128,-6.5,13.18,-43.75,1b
2019-07-15_171331:940,-0.277069,-0.004059,-0.358917,-0.050325,0.045032,0.038202999999999994,-7.25,11.68,-43.75,1b
2019-07-15_171331:960,-0.28927600000000003,-0.0025329999999999997,-0.34570300000000004,-0.054903,0.046223,0.038386,-7.25,11.68,-43.75,1b
2019-07-15_171331:980,-0.26181,-0.0035399999999999997,-0.336548,-0.059633000000000005,0.045704,0.038783,-7.25,11.68,-43.75,1b
2019-07-15_171332:000,-0.272003,-0.031006,-0.323334,-0.06411900000000001,0.041798,0.038997000000000004,-8.68,10.56,-45.0,1b
2019-07-15_171332:020,-0.274536,-0.045226999999999996,-0.320801,-0.06314199999999999,0.039478,0.03741,-8.68,10.56,-45.0,1b
2019-07-15_171332:040,-0.276062,-0.024384,-0.32486,-0.0589,0.039448000000000004,0.034082999999999995,-11.56,8.68,-44.560001,1b
2019-07-15_171332:060,-0.260284,-0.015228,-0.3396,-0.058473000000000004,0.039478,0.034236,-11.56,8.68,-44.560001,1b
2019-07-15_171332:080,-0.28775,-0.040161,-0.34570300000000004,-0.057375,0.039143,0.038264,-11.56,8.68,-44.560001,1b
2019-07-15_171332:100,-0.323853,-0.06149299999999999,-0.361969,-0.05237000000000001,0.038074000000000004,0.037257,-11.56,5.87,-43.75,1b
2019-07-15_171332:120,-0.38028,-0.07016,-0.390442,-0.044344,0.035297,0.030420999999999997,-11.56,5.87,-43.75,1b
2019-07-15_171332:140,-0.411285,-0.056915,-0.389435,-0.036043,0.033558,0.024074,-16.75,4.37,-43.869999,1b
2019-07-15_171332:160,-0.41333000000000003,-0.05285599999999999,-0.392487,-0.029298,0.033741,0.019893,-16.75,4.37,-43.869999,1b
2019-07-15_171332:180,-0.39859,-0.05285599999999999,-0.399109,-0.026032999999999997,0.032947000000000004,0.017177,-16.75,4.37,-43.869999,1b
2019-07-15_171332:200,-0.44891400000000004,-0.05996699999999999,-0.399109,-0.023958,0.033161,0.01678,-16.370001000000002,2.75,-44.369999,1b
2019-07-15_171332:220,-0.49316400000000005,-0.095062,-0.45095799999999997,-0.02054,0.024677,0.013972,-16.370001000000002,2.75,-44.369999,1b
2019-07-15_171332:240,-0.41842700000000005,-0.09353600000000001,-0.38385,-0.014100999999999999,0.026112,0.002131,-16.25,2.75,-42.68,1b
2019-07-15_171332:260,-0.461121,-0.086914,-0.444855,-0.010683,0.021534,-0.009099,-16.25,2.75,-42.68,1b
2019-07-15_171332:280,-0.41333000000000003,-0.078796,-0.385864,-0.005983,0.020283000000000002,-0.006963,-16.25,2.75,-42.68,1b
2019-07-15_171332:300,-0.378265,-0.08081100000000001,-0.353851,-0.005403,0.022816,-0.0046429999999999996,-17.870001000000002,1.68,-42.369999,1b
2019-07-15_171332:320,-0.364532,-0.082855,-0.322845,-0.004732,0.026782999999999998,-0.004064,-17.870001000000002,1.68,-42.369999,1b
2019-07-15_171332:340,-0.34368899999999997,-0.081848,-0.31012,-0.004915,0.022999000000000002,-0.0016530000000000002,-19.25,1.25,-42.0,1b
2019-07-15_171332:360,-0.341125,-0.080322,-0.30654899999999996,-0.006197,0.016621,0.002467,-19.25,1.25,-42.0,1b
2019-07-15_171332:380,-0.331482,-0.082855,-0.316223,-0.0071730000000000006,0.010578,0.00442,-19.25,1.25,-42.0,1b
2019-07-15_171332:400,-0.32843,-0.074738,-0.31369,-0.007844,0.005543,0.000484,-19.68,0.87,-41.18,1b
2019-07-15_171332:420,-0.305054,-0.063538,-0.312164,-0.00818,-0.00034700000000000003,-0.006352,-19.68,0.87,-41.18,1b
2019-07-15_171332:440,-0.297913,-0.057953,-0.314697,-0.008516,-0.004772,-0.011266,-20.059998999999998,0.56,-41.5,1b
2019-07-15_171332:460,-0.304535,-0.05285599999999999,-0.311127,-0.007783,-0.008373,-0.013219,-20.059998999999998,0.56,-41.5,1b
2019-07-15_171332:480,-0.311127,-0.049805,-0.307068,-0.006044,-0.010754000000000001,-0.014072999999999999,-20.059998999999998,0.56,-41.5,1b
2019-07-15_171332:500,-0.324371,-0.044219999999999995,-0.30300900000000003,-0.0034799999999999996,-0.011028,-0.015782,-20.059998999999998,0.25,-41.18,1b
2019-07-15_171332:520,-0.331482,-0.035583,-0.29538000000000003,-0.0011,-0.009899,-0.015934999999999998,-20.059998999999998,0.25,-41.18,1b
2019-07-15_171332:540,-0.334534,-0.031006,-0.285217,0.000884,-0.008099,-0.012609,-19.25,-0.5,-42.0,1b
2019-07-15_171332:560,-0.33758499999999997,-0.025421,-0.268433,0.002348,-0.005961999999999999,-0.009343,-19.25,-0.5,-42.0,1b
2019-07-15_171332:580,-0.34570300000000004,-0.023895,-0.262848,0.002806,-0.004497999999999999,-0.007817000000000001,-19.25,-0.5,-42.0,1b
2019-07-15_171332:600,-0.334015,-0.021851,-0.25012199999999996,0.001891,-0.003796,-0.0065049999999999995,-19.0,-0.06,-41.5,1b
2019-07-15_171332:620,-0.331482,-0.021332,-0.24706999999999998,0.000884,-0.0006219999999999999,-0.004857,-19.0,-0.06,-41.5,1b
2019-07-15_171332:640,-0.338593,-0.022858,-0.263336,-9.300000000000001e-05,0.001759,-0.004033,-19.25,-0.87,-40.75,1b
2019-07-15_171332:660,-0.333496,-0.022858,-0.266907,-0.001558,0.0021550000000000002,-0.003057,-19.25,-0.87,-40.75,1b
2019-07-15_171332:680,-0.35131799999999996,-0.027435,-0.274017,-0.003206,0.000233,-0.000524,-19.25,-0.87,-40.75,1b
2019-07-15_171332:700,-0.388916,-0.031494,-0.274536,-0.004793,-0.001537,0.002376,-19.25,-1.18,-40.75,1b
2019-07-15_171332:720,-0.434692,-0.034058,-0.287231,-0.006441,0.0007509999999999999,0.003901,-19.25,-1.18,-40.75,1b
2019-07-15_171332:740,-0.447906,-0.038635,-0.305542,-0.007234,0.005268,0.004817,-19.0,-1.56,-41.18,1b
2019-07-15_171332:760,-0.41384899999999997,-0.037108999999999996,-0.300964,-0.007509,0.008137,0.004603,-19.0,-1.56,-41.18,1b
2019-07-15_171332:780,-0.405212,-0.029968,-0.327423,-0.008119,0.004566,0.003871,-19.0,-1.56,-41.18,1b
2019-07-15_171332:800,-0.40976,-0.026917,-0.33300799999999997,-0.008851999999999999,0.000782,0.005092,-18.559998999999998,-0.87,-40.0,1b
2019-07-15_171332:820,-0.482483,-0.014221000000000001,-0.358429,-0.00992,0.0005070000000000001,0.0076549999999999995,-18.559998999999998,-0.87,-40.0,1b
2019-07-15_171332:840,-0.46469099999999997,-0.0030210000000000002,-0.382324,-0.010438,-0.00346,0.010005,-20.5,-1.56,-40.369999,1b
2019-07-15_171332:860,-0.46926899999999994,0.013702,-0.372162,-0.012697,-0.0014759999999999999,0.011714,-20.5,-1.56,-40.369999,1b
2019-07-15_171332:880,-0.473846,0.018799,-0.44027700000000003,-0.01407,-0.0055049999999999995,0.014583,-20.5,-1.56,-40.369999,1b
2019-07-15_171332:900,-0.441803,0.028961,-0.42858900000000005,-0.015749000000000003,-0.009075,0.014918,-19.370001000000002,-1.18,-40.0,1b
2019-07-15_171332:920,-0.394531,0.036591000000000005,-0.421967,-0.017061,-0.006573000000000001,0.016109000000000002,-19.370001000000002,-1.18,-40.0,1b
2019-07-15_171332:940,-0.397583,0.035583,-0.41586300000000004,-0.014162000000000001,0.001179,0.015773,-18.25,-1.56,-40.369999,1b
2019-07-15_171332:960,-0.36654699999999996,0.034546,-0.41384899999999997,-0.010622,0.002491,0.007808,-18.25,-1.56,-40.369999,1b
2019-07-15_171332:980,-0.34317,0.042175,-0.406219,-0.007051000000000001,-0.001995,-0.0013779999999999999,-18.25,-1.56,-40.369999,1b
2019-07-15_171333:000,-0.34875500000000004,0.043701,-0.412811,-0.001771,-0.008709,-0.004125,-18.68,-2.25,-40.75,1b
2019-07-15_171333:020,-0.34368899999999997,0.050842,-0.391479,0.00479,-0.010418,-0.005254,-18.68,-2.25,-40.75,1b
2019-07-15_171333:040,-0.34570300000000004,0.05285599999999999,-0.390961,0.006926000000000001,-0.008617,-0.000676,-19.059998999999998,-3.37,-39.560001,1b
2019-07-15_171333:060,-0.31723,0.051849,-0.36248800000000003,0.0075060000000000005,-0.003582,0.008204000000000001,-19.059998999999998,-3.37,-39.560001,1b
2019-07-15_171333:080,-0.312653,0.048279,-0.353851,0.0058579999999999995,0.000965,0.015650999999999998,-19.059998999999998,-3.37,-39.560001,1b
2019-07-15_171333:100,-0.29995700000000003,0.037598,-0.330475,0.0036609999999999998,0.004963,0.01974,-19.059998999999998,-2.68,-39.68,1b
2019-07-15_171333:120,-0.293854,0.029480000000000003,-0.310638,0.001341,0.006092,0.019556999999999998,-19.059998999999998,-2.68,-39.68,1b
2019-07-15_171333:140,-0.305542,0.020325,-0.28979499999999997,-0.0007030000000000001,0.006092,0.016047,-18.25,-2.25,-39.25,1b
2019-07-15_171333:160,-0.317749,0.016266,-0.278107,-0.002168,0.004932,0.011378000000000001,-18.25,-2.25,-39.25,1b
2019-07-15_171333:180,-0.335541,0.015747,-0.262848,-0.0032670000000000004,0.004536,0.00854,-18.25,-2.25,-39.25,1b
2019-07-15_171333:200,-0.34063699999999997,0.015747,-0.257751,-0.003664,0.004353,0.009608,-18.68,-1.56,-39.68,1b
2019-07-15_171333:220,-0.340118,0.009125,-0.266388,-0.0033280000000000002,0.0042,0.011653,-18.68,-1.56,-39.68,1b
2019-07-15_171333:240,-0.33300799999999997,0.0055850000000000006,-0.263855,-0.002748,0.002369,0.011073000000000001,-19.059998999999998,-1.56,-39.68,1b
2019-07-15_171333:260,-0.327423,0.0035399999999999997,-0.262329,-0.0017100000000000001,-0.000286,0.009273,-19.059998999999998,-1.56,-39.68,1b
2019-07-15_171333:280,-0.331482,0.007599,-0.26181,-0.000917,-0.0020559999999999997,0.007686,-19.059998999999998,-1.56,-39.68,1b
2019-07-15_171333:300,-0.341125,0.010162000000000001,-0.267426,-0.0008560000000000001,-0.0023309999999999997,0.006679000000000001,-18.68,-1.56,-39.25,1b
2019-07-15_171333:320,-0.380798,0.021332,-0.279114,-0.0019850000000000002,0.001301,0.00561,-18.68,-1.56,-39.25,1b
2019-07-15_171333:340,-0.407227,0.018799,-0.300964,-0.002443,0.0033450000000000003,0.005824,-19.370001000000002,-1.87,-39.25,1b
2019-07-15_171333:360,-0.391479,0.021332,-0.29995700000000003,-0.0036030000000000003,0.008990999999999999,0.004695,-19.370001000000002,-1.87,-39.25,1b
2019-07-15_171333:380,-0.386902,0.021332,-0.316742,-0.004854,0.008594,0.003901,-19.370001000000002,-1.87,-39.25,1b
2019-07-15_171333:400,-0.394531,0.015747,-0.327423,-0.004671,0.00774,0.002742,-19.370001000000002,-2.68,-38.869999,1b
2019-07-15_171333:420,-0.43011499999999997,0.009125,-0.336548,-0.003114,0.006214,-0.00446,-19.370001000000002,-2.68,-38.869999,1b
2019-07-15_171333:440,-0.42605600000000005,0.009644,-0.347748,-0.002229,0.006336,-0.006047,-19.0,-1.87,-39.25,1b
2019-07-15_171333:460,-0.421967,0.008636,-0.35943600000000003,-0.000459,0.008015000000000001,-0.004308,-19.0,-1.87,-39.25,1b
2019-07-15_171333:480,-0.48553500000000005,0.0,-0.365021,0.001097,0.008137,-0.004125,-19.0,-1.87,-39.25,1b
2019-07-15_171333:500,-0.5185850000000001,-0.007599,-0.383331,0.001433,0.006611,-0.005437,-20.059998999999998,-2.25,-39.68,1b
2019-07-15_171333:520,-0.48043800000000003,-0.013213999999999998,-0.37112399999999995,0.003691,0.006214,-0.012546999999999999,-20.059998999999998,-2.25,-39.68,1b
2019-07-15_171333:540,-0.46875,-0.017273,-0.406738,0.0038740000000000003,0.00301,-0.014012,-20.059998999999998,-3.06,-38.060001,1b
2019-07-15_171333:560,-0.418915,-0.021332,-0.396057,0.002867,0.002369,-0.012486,-20.059998999999998,-3.06,-38.060001,1b
2019-07-15_171333:580,-0.391968,-0.026917,-0.385376,0.001341,0.006611,-0.006383,-20.059998999999998,-3.06,-38.060001,1b
2019-07-15_171333:600,-0.389954,-0.034058,-0.354858,0.000365,0.009266,-0.00266,-20.059998999999998,-3.37,-38.060001,1b
2019-07-15_171333:620,-0.397064,-0.05285599999999999,-0.342163,-0.000978,0.008015000000000001,0.003169,-20.059998999999998,-3.37,-38.060001,1b
2019-07-15_171333:640,-0.381317,-0.056427,-0.326904,-0.0016190000000000002,0.006214,0.00323,-21.559998999999998,-3.37,-37.68,1b
2019-07-15_171333:660,-0.361481,-0.053375,-0.323853,-0.0029010000000000004,-0.001873,0.005946,-21.559998999999998,-3.37,-37.68,1b
2019-07-15_171333:680,-0.344696,-0.048798,-0.318756,-0.00461,-0.006908,0.005733,-21.559998999999998,-3.37,-37.68,1b
2019-07-15_171333:700,-0.33197,-0.044219999999999995,-0.32995599999999997,-0.005403,-0.010815,0.004542,-20.18,-3.37,-37.68,1b
2019-07-15_171333:720,-0.318268,-0.036591000000000005,-0.326385,-0.009035,-0.017254,0.00146,-20.18,-3.37,-37.68,1b
2019-07-15_171333:740,-0.333496,-0.031494,-0.324371,-0.010042,-0.017315,0.000453,-20.18,-3.37,-37.68,1b
2019-07-15_171333:760,-0.340118,-0.025908999999999998,-0.308594,-0.011415,-0.013988999999999998,-0.00385,-20.5,-3.06,-38.869999,1b
2019-07-15_171333:780,-0.34317,-0.021851,-0.29742399999999997,-0.01169,-0.005657,-0.007573000000000001,-20.5,-3.06,-38.869999,1b
2019-07-15_171333:800,-0.340118,-0.015747,-0.281647,-0.011293000000000001,-0.003124,-0.008367,-19.370001000000002,-3.75,-37.25,1b
2019-07-15_171333:820,-0.334015,-0.011169,-0.270966,-0.010622,-0.000958,-0.008428,-19.370001000000002,-3.75,-37.25,1b
2019-07-15_171333:840,-0.339111,-0.007111,-0.262848,-0.010438,-0.0014759999999999999,-0.007573000000000001,-19.370001000000002,-3.75,-37.25,1b
2019-07-15_171333:860,-0.350281,-0.006072999999999999,-0.257233,-0.010713,-0.002575,-0.0036969999999999998,-19.059998999999998,-5.18,-38.869999,1b
2019-07-15_171333:880,-0.36654699999999996,-0.002014,-0.254211,-0.010713,-0.0020559999999999997,-0.002721,-19.059998999999998,-5.18,-38.869999,1b
2019-07-15_171333:900,-0.3508,-0.0025329999999999997,-0.256226,-0.011415,-0.002117,-0.0014089999999999999,-19.059998999999998,-5.56,-37.68,1b
2019-07-15_171333:920,-0.34368899999999997,-0.001495,-0.251648,-0.012636,-0.000683,-0.000646,-19.059998999999998,-5.56,-37.68,1b
2019-07-15_171333:940,-0.36554000000000003,-0.000488,-0.27301,-0.01288,-0.000683,-6.6e-05,-19.059998999999998,-5.56,-37.68,1b
2019-07-15_171333:960,-0.389954,-0.0030210000000000002,-0.281647,-0.013947999999999999,-0.0016589999999999999,-5e-06,-19.059998999999998,-6.0,-37.25,1b
2019-07-15_171333:980,-0.420441,-0.0035399999999999997,-0.280121,-0.014100999999999999,-0.0020559999999999997,0.000148,-19.059998999999998,-6.0,-37.25,1b
2019-07-15_171334:000,-0.416901,-0.004547,-0.278595,-0.014223,-0.0006219999999999999,0.000606,-19.370001000000002,-7.37,-38.060001,1b
2019-07-15_171334:020,-0.41842700000000005,-0.007111,-0.266388,-0.014406,0.003101,0.0025280000000000003,-19.370001000000002,-7.37,-38.060001,1b
2019-07-15_171334:040,-0.42248500000000005,-0.006592,-0.272003,-0.013826,0.005665,0.003963,-19.370001000000002,-7.37,-38.060001,1b
2019-07-15_171334:060,-0.42807,-0.006072999999999999,-0.278107,-0.013612,0.005268,0.004359,-24.18,-7.37,-38.869999,1b
2019-07-15_171334:080,-0.433167,-0.0030210000000000002,-0.291321,-0.013338,0.005543,0.0042369999999999994,-24.18,-7.37,-38.869999,1b
2019-07-15_171334:100,-0.425537,-0.001007,-0.303528,-0.012758,0.006,0.0032909999999999997,-19.370001000000002,-7.75,-38.060001,1b
2019-07-15_171334:120,-0.432159,0.013213999999999998,-0.317749,-0.011842,0.005817,0.001857,-19.370001000000002,-7.75,-38.060001,1b
2019-07-15_171334:140,-0.45806899999999995,0.022369,-0.335022,-0.011964,0.0027660000000000002,0.001857,-19.370001000000002,-7.75,-38.060001,1b
2019-07-15_171334:160,-0.47943100000000005,0.035583,-0.35180700000000004,-0.01349,-0.001263,0.004146,-19.75,-8.56,-37.25,1b
2019-07-15_171334:180,-0.492645,0.051330999999999995,-0.359955,-0.015413,-0.003002,0.009273,-19.75,-8.56,-37.25,1b
2019-07-15_171334:200,-0.48043800000000003,0.056427,-0.395538,-0.016878,-0.006847,0.012965,-18.68,-8.56,-37.25,1b
2019-07-15_171334:220,-0.401123,0.076263,-0.393005,-0.019136,-0.008709,0.016109000000000002,-18.68,-8.56,-37.25,1b
2019-07-15_171334:240,-0.387909,0.075226,-0.40774499999999997,-0.019411,-0.009502,0.019954,-18.68,-8.56,-37.25,1b
2019-07-15_171334:260,-0.377747,0.081329,-0.392487,-0.017549000000000002,-0.006786,0.016505000000000002,-19.75,-8.87,-37.68,1b
2019-07-15_171334:280,-0.411285,0.078278,-0.39502,-0.015474000000000002,-0.006115,0.0068920000000000006,-19.75,-8.87,-37.68,1b
2019-07-15_171334:300,-0.36911,0.095581,-0.368591,-0.013216,-0.005718,0.0033520000000000004,-19.370001000000002,-10.37,-38.5,1b
2019-07-15_171334:320,-0.353851,0.087952,-0.36706500000000003,-0.011354000000000001,-0.009625,0.005549,-19.370001000000002,-10.37,-38.5,1b
2019-07-15_171334:340,-0.338593,0.08743300000000001,-0.35638400000000003,-0.009889,-0.01228,0.0074719999999999995,-19.370001000000002,-10.37,-38.5,1b
2019-07-15_171334:360,-0.334534,0.080322,-0.34317,-0.009645,-0.013194999999999998,0.013697999999999998,-18.68,-10.37,-37.68,1b
2019-07-15_171334:380,-0.328949,0.070648,-0.341125,-0.009584,-0.013866,0.023341,-18.68,-10.37,-37.68,1b
2019-07-15_171334:400,-0.311127,0.055389,-0.320282,-0.010438,-0.013287,0.029567000000000003,-22.68,-10.68,-36.5,1b
2019-07-15_171334:420,-0.31012,0.048279,-0.309601,-0.011812000000000001,-0.011486,0.031245,-22.68,-10.68,-36.5,1b
2019-07-15_171334:440,-0.317749,0.033539,-0.297913,-0.012544,-0.009807999999999999,0.030757,-22.68,-10.68,-36.5,1b
2019-07-15_171334:460,-0.320801,0.028961,-0.28674299999999997,-0.012758,-0.00877,0.02737,-18.0,-10.37,-37.68,1b
2019-07-15_171334:480,-0.334015,0.021851,-0.276581,-0.012819,-0.008312,0.023677,-18.0,-10.37,-37.68,1b
2019-07-15_171334:500,-0.32843,0.023895,-0.266907,-0.012483,-0.008038,0.021022,-18.0,-10.0,-36.560001,1b
2019-07-15_171334:520,-0.335022,0.022858,-0.266388,-0.012361,-0.008953000000000001,0.020686000000000003,-18.0,-10.0,-36.560001,1b
2019-07-15_171334:540,-0.34063699999999997,0.023895,-0.273529,-0.011903,-0.009838,0.021144,-18.0,-10.0,-36.560001,1b
2019-07-15_171334:560,-0.34265100000000004,0.022858,-0.274536,-0.012208,-0.010143000000000001,0.02035,-18.0,-10.37,-38.18,1b
2019-07-15_171334:580,-0.349274,0.021332,-0.285217,-0.012086,-0.010693000000000001,0.017177,-18.0,-10.37,-38.18,1b
2019-07-15_171334:600,-0.361481,0.019318000000000002,-0.28927600000000003,-0.011629,-0.011028,0.012202,-18.0,-9.87,-38.560001,1b
2019-07-15_171334:620,-0.37316900000000003,0.020325,-0.286224,-0.010561,-0.009411,0.008601000000000001,-18.0,-9.87,-38.560001,1b
2019-07-15_171334:640,-0.381805,0.025421,-0.285217,-0.008577,-0.0035210000000000003,0.007197,-18.0,-9.87,-38.560001,1b
2019-07-15_171334:660,-0.375214,0.028961,-0.297913,-0.0067150000000000005,0.002277,0.0065569999999999995,-17.559998999999998,-9.87,-37.369999,1b
2019-07-15_171334:680,-0.35131799999999996,0.033539,-0.310638,-0.004396,0.005604,0.004603,-17.559998999999998,-9.87,-37.369999,1b
2019-07-15_171334:700,-0.347229,0.037108999999999996,-0.32995599999999997,-0.002687,0.00481,0.000667,-17.559998999999998,-11.25,-36.560001,1b
2019-07-15_171334:720,-0.364014,0.040649,-0.35739099999999996,-0.000368,0.00301,-0.003179,-17.559998999999998,-11.25,-36.560001,1b
2019-07-15_171334:740,-0.401642,0.040161,-0.37011700000000003,0.0016769999999999999,0.000965,-0.007756,-17.559998999999998,-11.25,-36.560001,1b
2019-07-15_171334:760,-0.40774499999999997,0.042175,-0.37674,0.004149,0.001362,-0.012029,-16.5,-11.0,-36.560001,1b
2019-07-15_171334:780,-0.43670699999999996,0.046265,-0.377228,0.0058579999999999995,0.0042,-0.012546999999999999,-16.5,-11.0,-36.560001,1b
2019-07-15_171334:800,-0.505371,0.039642000000000004,-0.394531,0.0075060000000000005,0.007618000000000001,-0.010167,-16.870001000000002,-11.68,-37.369999,1b
2019-07-15_171334:820,-0.525177,0.021332,-0.393005,0.009795,0.008533,-0.010167,-16.870001000000002,-11.68,-37.369999,1b
2019-07-15_171334:840,-0.492645,0.020844,-0.378265,0.011961,0.011982,-0.014531,-16.870001000000002,-11.68,-37.369999,1b
2019-07-15_171334:860,-0.420441,0.013213999999999998,-0.40368699999999996,0.013701,0.008594,-0.016973,-16.870001000000002,-11.68,-37.75,1b
2019-07-15_171334:880,-0.397583,0.004059,-0.389954,0.014616,0.004291,-0.015538,-16.870001000000002,-11.68,-37.75,1b
2019-07-15_171334:900,-0.385864,-0.0030210000000000002,-0.379272,0.013975999999999999,0.000904,-0.010961,-17.18,-11.25,-36.560001,1b
2019-07-15_171334:920,-0.36911,-0.012177,-0.353333,0.012236,0.001697,-0.004064,-17.18,-11.25,-36.560001,1b
2019-07-15_171334:940,-0.364014,-0.022858,-0.349792,0.010039,0.001575,0.001674,-17.18,-11.25,-36.560001,1b
2019-07-15_171334:960,-0.34674099999999997,-0.032013,-0.34368899999999997,0.008513,-0.0005,0.0017350000000000002,-17.559998999999998,-10.25,-36.560001,1b
2019-07-15_171334:980,-0.34570300000000004,-0.031494,-0.34265100000000004,0.006346,-0.00642,0.000667,-17.559998999999998,-10.25,-36.560001,1b
2019-07-15_171335:000,-0.34875500000000004,-0.037598,-0.342163,0.004454,-0.009807999999999999,0.002376,-16.5,-10.56,-37.0,1b
2019-07-15_171335:020,-0.346222,-0.043213,-0.342163,0.00302,-0.010967,0.002711,-16.5,-10.56,-37.0,1b
2019-07-15_171335:040,-0.322327,-0.042694,-0.345215,0.002287,-0.012859,-6.6e-05,-16.5,-10.56,-37.0,1b
2019-07-15_171335:060,-0.316223,-0.036072,-0.338074,0.002409,-0.013073,-0.003728,-16.5,-10.25,-37.369999,1b
2019-07-15_171335:080,-0.314697,-0.031494,-0.33197,0.002745,-0.011883,-0.007909000000000001,-16.5,-10.25,-37.369999,1b
2019-07-15_171335:100,-0.313171,-0.021851,-0.319794,0.002928,-0.009899,-0.012212,-16.059998999999998,-10.25,-37.0,1b
2019-07-15_171335:120,-0.318756,-0.015747,-0.310638,0.0036609999999999998,-0.007427,-0.014072999999999999,-16.059998999999998,-10.25,-37.0,1b
2019-07-15_171335:140,-0.326904,-0.006592,-0.300964,0.003691,-0.005444,-0.013402,-16.059998999999998,-10.25,-37.0,1b
2019-07-15_171335:160,-0.325897,-0.0025329999999999997,-0.29538000000000003,0.003355,-0.004253,-0.012273000000000001,-15.37,-10.25,-37.0,1b
2019-07-15_171335:180,-0.326385,0.0030210000000000002,-0.293854,0.002135,-0.005108,-0.010808,-15.37,-10.25,-37.0,1b
2019-07-15_171335:200,-0.34317,0.004547,-0.291321,0.000426,-0.006451,-0.007756,-15.06,-9.87,-37.369999,1b
2019-07-15_171335:220,-0.34875500000000004,0.001007,-0.294373,-0.0016489999999999999,-0.007916,-0.005101,-15.06,-9.87,-37.369999,1b
2019-07-15_171335:240,-0.335541,0.0,-0.285217,-0.004182,-0.0060539999999999995,-0.003453,-15.06,-9.87,-37.369999,1b
2019-07-15_171335:260,-0.33197,0.0,-0.28927600000000003,-0.006044,-0.003643,-0.001256,-14.68,-11.0,-37.369999,1b
2019-07-15_171335:280,-0.33758499999999997,-0.0030210000000000002,-0.29943800000000004,-0.008119,-0.0031850000000000003,0.00027,-14.68,-11.0,-37.369999,1b
2019-07-15_171335:300,-0.35436999999999996,-0.0035399999999999997,-0.29895,-0.011231999999999999,-0.004711,0.001796,-14.68,-9.87,-37.0,1b
2019-07-15_171335:320,-0.382324,-0.009644,-0.303528,-0.01169,-0.004192,0.002376,-14.68,-9.87,-37.0,1b
2019-07-15_171335:340,-0.381317,-0.008636,-0.30654899999999996,-0.013277,0.001759,0.004695,-14.68,-9.87,-37.0,1b
2019-07-15_171335:360,-0.379791,-0.007599,-0.31723,-0.013368000000000001,0.004353,0.006282,-14.25,-11.25,-37.75,1b
2019-07-15_171335:380,-0.382812,-0.006592,-0.327423,-0.014162000000000001,0.005604,0.007197,-14.25,-11.25,-37.75,1b
2019-07-15_171335:400,-0.386383,-0.000488,-0.338074,-0.015077000000000002,0.005695,0.008081999999999999,-14.25,-11.0,-35.369999,1b
2019-07-15_171335:420,-0.391968,0.006592,-0.35943600000000003,-0.016023,0.005207,0.009852,-14.25,-11.0,-35.369999,1b
2019-07-15_171335:440,-0.394012,0.012177,-0.36911,-0.017731999999999998,0.006214,0.011378000000000001,-14.25,-11.0,-35.369999,1b
2019-07-15_171335:460,-0.447388,0.023895,-0.377747,-0.01999,0.007801000000000001,0.012385,-14.25,-11.68,-37.0,1b
2019-07-15_171335:480,-0.494171,0.025908999999999998,-0.406219,-0.021852,0.006214,0.012172,-14.25,-11.68,-37.0,1b
2019-07-15_171335:500,-0.475861,0.035583,-0.381317,-0.024232,0.00954,0.012385,-15.06,-12.06,-36.18,1b
2019-07-15_171335:520,-0.515015,0.034058,-0.417389,-0.025026,0.00713,0.014094,-15.06,-12.06,-36.18,1b
2019-07-15_171335:540,-0.46060200000000007,0.035065,-0.40570100000000003,-0.024721,0.0053289999999999995,0.014369,-15.06,-12.06,-36.18,1b
2019-07-15_171335:560,-0.401642,0.036072,-0.379791,-0.022188,0.005543,0.011714,-13.56,-12.5,-35.75,1b
2019-07-15_171335:580,-0.358917,0.037108999999999996,-0.36248800000000003,-0.016663999999999998,0.008869,0.005397,-13.56,-12.5,-35.75,1b
2019-07-15_171335:600,-0.355377,0.050323,-0.360962,-0.011629,0.006672,-0.0014089999999999999,-14.68,-13.56,-35.060001,1b
2019-07-15_171335:620,-0.332489,0.07016,-0.36044299999999996,-0.006104999999999999,0.000782,-0.002995,-14.68,-13.56,-35.060001,1b
2019-07-15_171335:640,-0.338074,0.072174,-0.36654699999999996,-0.001375,-0.006756,-0.004582,-14.68,-13.56,-35.060001,1b
2019-07-15_171335:660,-0.34674099999999997,0.081329,-0.361969,0.00183,-0.011944,-0.008245,-15.06,-13.56,-35.369999,1b
2019-07-15_171335:680,-0.353333,0.08743300000000001,-0.35131799999999996,0.005522,-0.012158,-0.006169,-15.06,-13.56,-35.369999,1b
2019-07-15_171335:700,-0.346222,0.08590700000000001,-0.3508,0.007536,-0.010876,-0.000676,-15.68,-13.18,-33.869999,1b
2019-07-15_171335:720,-0.32843,0.08590700000000001,-0.3396,0.007842,-0.009228,0.006343,-15.68,-13.18,-33.869999,1b
2019-07-15_171335:740,-0.314178,0.07775900000000001,-0.328949,0.0071400000000000005,-0.007763,0.013697999999999998,-15.68,-13.18,-33.869999,1b
2019-07-15_171335:760,-0.312653,0.064545,-0.31012,0.005614,-0.006786,0.016353,-13.56,-12.5,-34.18,1b
2019-07-15_171335:780,-0.317749,0.057953,-0.29943800000000004,0.0036609999999999998,-0.00584,0.016291999999999997,-13.56,-12.5,-34.18,1b
2019-07-15_171335:800,-0.31723,0.047272,-0.28674299999999997,0.002867,-0.006023,0.015773,-13.87,-12.75,-35.369999,1b
2019-07-15_171335:820,-0.322327,0.040161,-0.276062,0.002196,-0.006298,0.014491,-13.87,-12.75,-35.369999,1b
2019-07-15_171335:840,-0.335022,0.032532,-0.270477,0.0017989999999999998,-0.00642,0.013392,-13.87,-12.75,-35.369999,1b
2019-07-15_171335:860,-0.344177,0.028442000000000002,-0.277069,0.002074,-0.006359,0.013789,-13.87,-12.5,-33.869999,1b
2019-07-15_171335:880,-0.347229,0.022369,-0.28369099999999997,0.003325,-0.005566,0.013789,-13.87,-12.5,-33.869999,1b
2019-07-15_171335:900,-0.341644,0.021851,-0.293854,0.00479,-0.006176,0.012445999999999999,-13.87,-12.06,-35.369999,1b
2019-07-15_171335:920,-0.344177,0.023375999999999997,-0.294373,0.00601,-0.007183,0.010249,-13.87,-12.06,-35.369999,1b
2019-07-15_171335:940,-0.347229,0.024902,-0.293854,0.006712,-0.007702,0.007533,-13.87,-12.06,-35.369999,1b
2019-07-15_171335:960,-0.34875500000000004,0.031494,-0.285706,0.007109000000000001,-0.005627,0.005488,-13.18,-10.56,-35.060001,1b
2019-07-15_171335:980,-0.369598,0.033539,-0.300476,0.007384,-0.0035210000000000003,0.004146,-13.18,-10.56,-35.060001,1b
2019-07-15_171336:000,-0.356903,0.033539,-0.311646,0.007719,-0.001995,0.002131,-13.18,-11.25,-34.18,1b
2019-07-15_171336:020,-0.349274,0.031494,-0.329437,0.007872,-0.0020559999999999997,-0.001042,-13.18,-11.25,-34.18,1b
2019-07-15_171336:040,-0.378754,0.030487,-0.344696,0.008329999999999999,-0.002972,-0.00446,-13.18,-11.25,-34.18,1b
2019-07-15_171336:060,-0.404175,0.028442000000000002,-0.34875500000000004,0.008971,-0.00034700000000000003,-0.006963,-12.5,-10.56,-34.0,1b
2019-07-15_171336:080,-0.374176,0.030487,-0.354858,0.010435999999999999,0.002277,-0.008824,-12.5,-10.56,-34.0,1b
2019-07-15_171336:100,-0.366058,0.031494,-0.36654699999999996,0.010588,0.0031620000000000003,-0.009618000000000002,-12.87,-9.87,-35.5,1b
2019-07-15_171336:120,-0.38028,0.026427999999999997,-0.378265,0.010161,0.00301,-0.007298000000000001,-12.87,-9.87,-35.5,1b
2019-07-15_171336:140,-0.426544,0.022858,-0.384857,0.009123000000000001,0.0027660000000000002,-0.004582,-12.87,-9.87,-35.5,1b
2019-07-15_171336:160,-0.48706099999999997,0.006592,-0.412811,0.009306,0.002094,-0.005376,-11.68,-10.56,-35.18,1b
2019-07-15_171336:180,-0.461639,0.004059,-0.391968,0.009398,0.006732999999999999,-0.010167,-11.68,-10.56,-35.18,1b
2019-07-15_171336:200,-0.472321,-0.000488,-0.420441,0.009978,0.008137,-0.014195,-12.87,-10.25,-34.25,1b
2019-07-15_171336:220,-0.43823199999999995,-0.007599,-0.404694,0.010313,0.007404000000000001,-0.015477000000000001,-12.87,-10.25,-34.25,1b
2019-07-15_171336:240,-0.41333000000000003,-0.012177,-0.398071,0.009856,0.006275,-0.015721000000000002,-12.87,-10.25,-34.25,1b
2019-07-15_171336:260,-0.375702,-0.016266,-0.374176,0.008666,0.006092,-0.014012,-12.06,-9.06,-34.68,1b
2019-07-15_171336:280,-0.353851,-0.021851,-0.361969,0.007109000000000001,0.004566,-0.008945999999999999,-12.06,-9.06,-34.68,1b
2019-07-15_171336:300,-0.369598,-0.031006,-0.345215,0.005614,0.0031620000000000003,-0.0048270000000000006,-12.06,-9.06,-35.18,1b
2019-07-15_171336:320,-0.37112399999999995,-0.041168,-0.341125,0.004607,0.001423,-0.002721,-12.06,-9.06,-35.18,1b
2019-07-15_171336:340,-0.35436999999999996,-0.042694,-0.334015,0.0038740000000000003,-0.000439,-0.000585,-12.06,-9.06,-35.18,1b
2019-07-15_171336:360,-0.33300799999999997,-0.045226999999999996,-0.325897,0.003691,-0.003124,0.00027,-11.68,-8.75,-32.25,1b
2019-07-15_171336:380,-0.323853,-0.045226999999999996,-0.326385,0.0042710000000000005,-0.006634,-0.00324,-11.68,-8.75,-32.25,1b
2019-07-15_171336:400,-0.30300900000000003,-0.034546,-0.327423,0.003691,-0.011761,-0.009099,-11.68,-8.75,-34.0,1b
2019-07-15_171336:420,-0.293335,-0.023895,-0.326385,0.002623,-0.016186000000000002,-0.012212,-11.68,-8.75,-34.0,1b
2019-07-15_171336:440,-0.29284699999999997,-0.021851,-0.32486,0.00302,-0.01759,-0.014134,-11.68,-8.75,-34.0,1b
2019-07-15_171336:460,-0.29895,-0.012695,-0.321808,0.001891,-0.018261000000000003,-0.017644,-9.87,-8.5,-34.25,1b
2019-07-15_171336:480,-0.308075,-0.008118,-0.321808,0.001738,-0.0182,-0.017797,-9.87,-8.5,-34.25,1b
2019-07-15_171336:500,-0.316742,-0.006072999999999999,-0.318756,0.001616,-0.01704,-0.015203,-9.87,-8.75,-34.0,1b
2019-07-15_171336:520,-0.31369,-0.0030210000000000002,-0.314697,0.001433,-0.015881,-0.011754,-9.87,-8.75,-34.0,1b
2019-07-15_171336:540,-0.309113,-0.000488,-0.312164,0.0016769999999999999,-0.016338,-0.006719,-9.87,-8.75,-34.0,1b
2019-07-15_171336:560,-0.310638,-0.001007,-0.308594,0.00128,-0.018108000000000003,-0.0011949999999999999,-8.75,-8.75,-33.5,1b
2019-07-15_171336:580,-0.29284699999999997,-0.0030210000000000002,-0.306061,0.000365,-0.021771000000000002,0.0028940000000000003,-8.75,-8.75,-33.5,1b
2019-07-15_171336:600,-0.302002,-0.010651,-0.30654899999999996,-0.0016489999999999999,-0.024426,0.0065260000000000006,-8.06,-9.06,-34.25,1b
2019-07-15_171336:620,-0.32132,-0.015228,-0.312653,-0.003206,-0.025036000000000003,0.007991,-8.06,-9.06,-34.25,1b
2019-07-15_171336:640,-0.328949,-0.021851,-0.32132,-0.005525,-0.024151,0.006862,-8.06,-9.06,-34.25,1b
2019-07-15_171336:660,-0.32843,-0.024384,-0.341125,-0.006929,-0.024426,0.005549,-8.75,-8.5,-34.25,1b
2019-07-15_171336:680,-0.337067,-0.023375999999999997,-0.363007,-0.00757,-0.026074,0.003749,-8.75,-8.5,-34.25,1b
2019-07-15_171336:700,-0.365021,-0.022369,-0.371643,-0.008638,-0.023235,0.002467,-6.18,-8.06,-35.18,1b
2019-07-15_171336:720,-0.38739,-0.021332,-0.38028,-0.008362999999999999,-0.01646,0.00265,-6.18,-8.06,-35.18,1b
2019-07-15_171336:740,-0.395538,-0.020844,-0.375702,-0.00818,-0.008831,0.00207,-6.18,-8.06,-35.18,1b
2019-07-15_171336:760,-0.393494,-0.019318000000000002,-0.374695,-0.008119,-0.000683,0.001857,-4.75,-9.5,-34.68,1b
2019-07-15_171336:780,-0.364014,-0.013213999999999998,-0.39502,-0.007661,0.005543,0.0027719999999999997,-4.75,-9.5,-34.68,1b
2019-07-15_171336:800,-0.355377,-0.009644,-0.397583,-0.007051000000000001,0.008808,0.002376,-5.25,-9.5,-33.869999,1b
2019-07-15_171336:820,-0.375702,0.006592,-0.409271,-0.006776000000000001,0.009113,0.001399,-5.25,-9.5,-33.869999,1b
2019-07-15_171336:840,-0.391968,0.009644,-0.418915,-0.00757,0.006855,0.001796,-5.25,-9.5,-33.869999,1b
2019-07-15_171336:860,-0.396057,0.017273,-0.434692,-0.008759999999999999,0.005756,0.0042369999999999994,-4.75,-8.75,-34.060001,1b
2019-07-15_171336:880,-0.410797,0.026917,-0.42858900000000005,-0.01111,0.00536,0.007075,-4.75,-8.75,-34.060001,1b
2019-07-15_171336:900,-0.421967,0.027954000000000003,-0.48706099999999997,-0.012086,-0.000683,0.008081999999999999,-5.56,-9.5,-33.560001,1b
2019-07-15_171336:920,-0.408752,0.033539,-0.476379,-0.014100999999999999,-0.001843,0.00854,-5.56,-9.5,-33.560001,1b
2019-07-15_171336:940,-0.34674099999999997,0.037108999999999996,-0.429596,-0.013429,0.002277,0.011592,-5.56,-9.5,-33.560001,1b
2019-07-15_171336:960,-0.303528,0.037598,-0.40823400000000004,-0.012147,0.008533,0.011714,-5.56,-8.75,-33.25,1b
2019-07-15_171336:980,-0.29895,0.036591000000000005,-0.399109,-0.010286,0.008594,0.007808,-5.56,-8.75,-33.25,1b
2019-07-15_171337:000,-0.27301,0.042694,-0.388916,-0.009553,0.006794,0.006282,-4.75,-10.25,-33.560001,1b
2019-07-15_171337:020,-0.29232800000000003,0.03302,-0.384857,-0.005983,-0.001537,0.00561,-4.75,-10.25,-33.560001,1b
2019-07-15_171337:040,-0.300476,0.032013,-0.385376,-0.003786,-0.00584,0.0021920000000000004,-4.75,-10.25,-33.560001,1b
2019-07-15_171337:060,-0.305054,0.032532,-0.37674,-0.000825,-0.006298,-0.000798,-4.75,-9.87,-34.060001,1b
2019-07-15_171337:080,-0.308075,0.033539,-0.378265,0.002135,-0.0060539999999999995,-0.00147,-4.75,-9.87,-34.060001,1b
2019-07-15_171337:100,-0.297913,0.034058,-0.378754,0.0038130000000000004,-0.0071530000000000005,-0.000463,-4.75,-10.25,-33.25,1b
2019-07-15_171337:120,-0.29742399999999997,0.032532,-0.370636,0.00479,-0.007640999999999999,0.001124,-4.75,-10.25,-33.25,1b
2019-07-15_171337:140,-0.29895,0.028442000000000002,-0.35791,0.0054,-0.006756,0.003078,-4.75,-10.25,-33.25,1b
2019-07-15_171337:160,-0.303528,0.022858,-0.348267,0.005675,-0.004131,0.004024,-4.06,-9.5,-33.560001,1b
2019-07-15_171337:180,-0.305542,0.015228,-0.334015,0.0064069999999999995,-0.0021780000000000002,0.002711,-4.06,-9.5,-33.560001,1b
2019-07-15_171337:200,-0.309113,0.011169,-0.33197,0.006651000000000001,-0.001385,0.00027,-4.06,-9.06,-33.560001,1b
2019-07-15_171337:220,-0.311127,0.007599,-0.323853,0.007445,-0.001141,-0.0013779999999999999,-4.06,-9.06,-33.560001,1b
2019-07-15_171337:240,-0.312164,0.004547,-0.323853,0.008237999999999999,-0.001995,-0.004064,-4.06,-9.06,-33.560001,1b
2019-07-15_171337:260,-0.315216,0.0055850000000000006,-0.325378,0.008666,-0.002575,-0.005589,-3.68,-9.06,-33.25,1b
2019-07-15_171337:280,-0.322845,0.009125,-0.327911,0.009917,-0.004376,-0.008092,-3.68,-9.06,-33.25,1b
2019-07-15_171337:300,-0.325897,0.009644,-0.32843,0.010313,-0.004833,-0.008031,-3.0,-8.75,-34.060001,1b
2019-07-15_171337:320,-0.32995599999999997,0.009644,-0.325378,0.010527,-0.003643,-0.009038,-3.0,-8.75,-34.060001,1b
2019-07-15_171337:340,-0.332489,0.008636,-0.320801,0.010985,-0.0007740000000000001,-0.011082999999999999,-3.0,-8.75,-34.060001,1b
2019-07-15_171337:360,-0.33605999999999997,0.013213999999999998,-0.322845,0.010924,0.000965,-0.012273000000000001,-3.0,-8.06,-34.060001,1b
2019-07-15_171337:380,-0.33758499999999997,0.012177,-0.33300799999999997,0.011443,0.0032840000000000005,-0.014195,-3.0,-8.06,-34.060001,1b
2019-07-15_171337:400,-0.34674099999999997,0.012695,-0.346222,0.011778,0.0032840000000000005,-0.015721000000000002,-1.87,-7.68,-35.25,1b
2019-07-15_171337:420,-0.348267,0.014740000000000001,-0.355896,0.013701,0.008076,-0.021306,-1.87,-7.68,-35.25,1b
2019-07-15_171337:440,-0.346222,0.016266,-0.367584,0.015165999999999999,0.010853,-0.023808000000000003,-1.87,-7.68,-35.25,1b
2019-07-15_171337:460,-0.352844,0.01828,-0.37674,0.016081,0.011372,-0.024877,-2.18,-7.37,-34.369999,1b
2019-07-15_171337:480,-0.352325,0.021332,-0.37265,0.019347,0.012714,-0.027471,-2.18,-7.37,-34.369999,1b
2019-07-15_171337:500,-0.358917,0.023895,-0.384338,0.020322999999999997,0.013386000000000002,-0.027745,-1.56,-7.75,-34.060001,1b
2019-07-15_171337:520,-0.36248800000000003,0.024384,-0.389954,0.022063,0.015949,-0.027074,-1.56,-7.75,-34.060001,1b
2019-07-15_171337:540,-0.401642,0.023895,-0.40570100000000003,0.022673,0.015368999999999999,-0.026463999999999998,-1.56,-7.75,-34.060001,1b
2019-07-15_171337:560,-0.431122,0.012695,-0.43011499999999997,0.023253,0.013325,-0.027013,-1.56,-6.68,-34.369999,1b
2019-07-15_171337:580,-0.420959,0.013702,-0.420441,0.024779,0.010578,-0.033299,-1.56,-6.68,-34.369999,1b
2019-07-15_171337:600,-0.44638100000000003,0.011169,-0.447388,0.025115000000000002,0.009724,-0.034763999999999996,-2.68,-4.87,-34.060001,1b
2019-07-15_171337:620,-0.41995200000000005,0.010162000000000001,-0.441803,0.026244,0.009113,-0.035039,-2.68,-4.87,-34.060001,1b
2019-07-15_171337:640,-0.40368699999999996,0.0030210000000000002,-0.43670699999999996,0.025115000000000002,0.010517,-0.032262,-2.68,-4.87,-34.060001,1b
2019-07-15_171337:660,-0.384857,0.001007,-0.41586300000000004,0.02426,0.011859999999999999,-0.029485,-2.68,-4.5,-34.369999,1b
2019-07-15_171337:680,-0.335022,-0.013702,-0.390961,0.022581999999999998,0.014301,-0.023503,-2.68,-4.5,-34.369999,1b
2019-07-15_171337:700,-0.331482,-0.023895,-0.365021,0.021941,0.013781999999999999,-0.023441999999999998,-2.68,-4.5,-34.369999,1b
2019-07-15_171337:720,-0.32843,-0.027954000000000003,-0.36044299999999996,0.021269,0.00774,-0.024816,-2.0,-4.06,-34.75,1b
2019-07-15_171337:740,-0.32486,-0.033539,-0.344177,0.021208,0.0054210000000000005,-0.024877,-2.0,-4.06,-34.75,1b
2019-07-15_171337:760,-0.319275,-0.034546,-0.34265100000000004,0.021788,0.0023079999999999997,-0.026799,-3.06,-2.75,-34.75,1b
2019-07-15_171337:780,-0.30249000000000004,-0.026917,-0.34317,0.022581999999999998,-0.001537,-0.029149,-3.06,-2.75,-34.75,1b
2019-07-15_171337:800,-0.293854,-0.024902,-0.349792,0.022643,-0.007488,-0.03098,-3.06,-2.75,-34.75,1b
2019-07-15_171337:820,-0.272003,-0.01828,-0.3396,0.022397999999999998,-0.011028,-0.03272,-2.18,-2.75,-34.75,1b
2019-07-15_171337:840,-0.270477,-0.009644,-0.335541,0.021727,-0.013744,-0.034459,-2.18,-2.75,-34.75,1b
2019-07-15_171337:860,-0.273529,-0.0035399999999999997,-0.333496,0.021056000000000002,-0.014750999999999998,-0.035192,-1.5,-2.37,-35.25,1b
2019-07-15_171337:880,-0.29486100000000004,0.004059,-0.334015,0.02014,-0.015057,-0.034032,-1.5,-2.37,-35.25,1b
2019-07-15_171337:900,-0.308075,0.007111,-0.33605999999999997,0.019530000000000002,-0.01408,-0.031072000000000002,-1.5,-2.37,-35.25,1b
2019-07-15_171337:920,-0.322327,0.007111,-0.332489,0.018279,-0.012402,-0.027806,-2.0,-1.37,-34.25,1b
2019-07-15_171337:940,-0.323853,0.008636,-0.32843,0.017149,-0.010418,-0.023961,-2.0,-1.37,-34.25,1b
2019-07-15_171337:960,-0.320282,0.009125,-0.325897,0.015165999999999999,-0.009807999999999999,-0.018926,-1.18,-0.25,-35.869999,1b
2019-07-15_171337:980,-0.31012,0.007111,-0.319275,0.012969,-0.010143000000000001,-0.014866999999999998,-1.18,-0.25,-35.869999,1b
2019-07-15_171338:000,-0.311127,0.007111,-0.311646,0.010375,-0.009564,-0.011693,-1.18,-0.25,-35.869999,1b
2019-07-15_171338:020,-0.319794,0.0055850000000000006,-0.322327,0.007781000000000001,-0.008373,-0.008641,-0.5,0.37,-35.869999,1b
2019-07-15_171338:040,-0.319275,0.004059,-0.33605999999999997,0.004668,-0.008282,-0.007421,-0.5,0.37,-35.869999,1b
2019-07-15_171338:060,-0.322327,0.005065999999999999,-0.342163,0.001616,-0.008434,-0.0066879999999999995,-0.87,0.0,-36.68,1b
2019-07-15_171338:080,-0.329437,0.0030210000000000002,-0.34875500000000004,-0.001375,-0.009502,-0.005437,-0.87,0.0,-36.68,1b
2019-07-15_171338:100,-0.34674099999999997,0.0030210000000000002,-0.34674099999999997,-0.004457,-0.008617,-0.004247,-0.87,0.0,-36.68,1b
2019-07-15_171338:120,-0.376221,0.002014,-0.364014,-0.006593000000000001,-0.004711,-0.003453,-0.06,1.0,-35.869999,1b
2019-07-15_171338:140,-0.378754,0.0025329999999999997,-0.36911,-0.008119,-0.0008349999999999999,-0.002385,-0.06,1.0,-35.869999,1b
2019-07-15_171338:160,-0.37316900000000003,0.0030210000000000002,-0.372162,-0.009096,0.001697,-0.0009199999999999999,0.56,0.56,-36.68,1b
2019-07-15_171338:180,-0.37112399999999995,0.006072999999999999,-0.374695,-0.00937,0.0030399999999999997,-0.000188,0.56,0.56,-36.68,1b
2019-07-15_171338:200,-0.379272,0.012695,-0.391479,-0.010042,0.004566,-0.00033999999999999997,0.56,0.56,-36.68,1b
2019-07-15_171338:220,-0.385376,0.019318000000000002,-0.39859,-0.010286,0.007281999999999999,0.000606,1.0,0.25,-35.869999,1b
2019-07-15_171338:240,-0.417908,0.031494,-0.410278,-0.010896,0.00954,0.0031079999999999997,1.0,0.25,-35.869999,1b
2019-07-15_171338:260,-0.409271,0.028961,-0.439758,-0.012361,0.006489,0.005824,0.18,0.5,-36.68,1b
2019-07-15_171338:280,-0.387909,0.039124,-0.411804,-0.014009,0.010273000000000001,0.008479,0.18,0.5,-36.68,1b
2019-07-15_171338:300,-0.45095799999999997,0.029968,-0.491638,-0.012758,0.003498,0.008418,-0.5,0.87,-36.68,1b
2019-07-15_171338:320,-0.43518100000000004,0.032532,-0.474854,-0.013277,0.0026739999999999997,0.00735,-0.5,0.87,-36.68,1b
2019-07-15_171338:340,-0.384338,0.038116000000000004,-0.425537,-0.012636,0.007220999999999999,0.009944,-0.5,0.87,-36.68,1b
2019-07-15_171338:360,-0.290283,0.036591000000000005,-0.37011700000000003,-0.008516,0.020557,0.010341,-0.5,0.5,-36.25,1b
2019-07-15_171338:380,-0.291321,0.036591000000000005,-0.36248800000000003,-0.00757,0.021809000000000002,0.006679000000000001,-0.5,0.5,-36.25,1b
2019-07-15_171338:400,-0.282654,0.037598,-0.372162,-0.00461,0.016499,-0.000981,-0.5,0.5,-36.25,1b
2019-07-15_171338:420,-0.28064,0.040649,-0.35180700000000004,-0.0019850000000000002,0.009387999999999999,-0.004979,-0.5,-0.5,-37.5,1b
2019-07-15_171338:440,-0.307587,0.037108999999999996,-0.36554000000000003,0.002287,0.00243,-0.007817000000000001,-0.5,-0.5,-37.5,1b
2019-07-15_171338:460,-0.309113,0.036591000000000005,-0.361969,0.0063159999999999996,-0.0005610000000000001,-0.012943999999999999,-1.18,0.18,-37.5,1b
2019-07-15_171338:480,-0.314697,0.043213,-0.36349499999999996,0.010313,-0.002911,-0.015874,-1.18,0.18,-37.5,1b
2019-07-15_171338:500,-0.311127,0.044739,-0.367584,0.013365,-0.005261,-0.014866999999999998,-1.18,0.18,-37.5,1b
2019-07-15_171338:520,-0.296387,0.043213,-0.35791,0.015501,-0.006908,-0.012822,-1.18,-0.5,-36.25,1b
2019-07-15_171338:540,-0.295898,0.041168,-0.349274,0.016753,-0.006695,-0.010472,-1.18,-0.5,-36.25,1b
2019-07-15_171338:560,-0.293854,0.035065,-0.341125,0.017363,-0.006298,-0.007176,-2.0,0.18,-36.25,1b
2019-07-15_171338:580,-0.296906,0.025421,-0.33300799999999997,0.017821,-0.005108,-0.006719,-2.0,0.18,-36.25,1b
2019-07-15_171338:600,-0.304016,0.021332,-0.332489,0.018156,-0.005169,-0.009281999999999999,-2.0,0.18,-36.25,1b
2019-07-15_171338:620,-0.312653,0.014221000000000001,-0.328949,0.019072,-0.005169,-0.011754,-0.87,1.68,-36.25,1b
2019-07-15_171338:640,-0.313171,0.009125,-0.323853,0.020262,-0.005444,-0.014591999999999999,-0.87,1.68,-36.25,1b
2019-07-15_171338:660,-0.317749,0.007111,-0.326385,0.022002,-0.00584,-0.017186,-0.5,2.75,-35.18,1b
2019-07-15_171338:680,-0.323334,0.010162000000000001,-0.328949,0.023863,-0.006847,-0.019962999999999998,-0.5,2.75,-35.18,1b
2019-07-15_171338:700,-0.330475,0.010651,-0.333496,0.025237,-0.008617,-0.022678999999999998,-0.5,2.75,-35.18,1b
2019-07-15_171338:720,-0.331482,0.013702,-0.332489,0.027098,-0.008953000000000001,-0.024816,-1.06,3.06,-37.869999,1b
2019-07-15_171338:740,-0.33605999999999997,0.017792,-0.335541,0.028624,-0.007977,-0.026677,-1.06,3.06,-37.869999,1b
2019-07-15_171338:760,-0.34063699999999997,0.023895,-0.336548,0.029479,-0.006298,-0.027593,-0.37,4.56,-37.5,1b
2019-07-15_171338:780,-0.35180700000000004,0.027954000000000003,-0.341125,0.029814,-0.004894,-0.027745,-0.37,4.56,-37.5,1b
2019-07-15_171338:800,-0.34674099999999997,0.032532,-0.347229,0.029906,-0.003796,-0.028142,-0.37,4.56,-37.5,1b
2019-07-15_171338:820,-0.361481,0.03302,-0.35436999999999996,0.030302,-0.00346,-0.028539,0.0,5.68,-35.5,1b
2019-07-15_171338:840,-0.358917,0.035583,-0.350281,0.030364,-0.001019,-0.028263999999999997,0.0,5.68,-35.5,1b
2019-07-15_171338:860,-0.37011700000000003,0.037108999999999996,-0.349792,0.030547,0.00243,-0.027683999999999997,-0.37,6.75,-36.369999,1b
2019-07-15_171338:880,-0.36706500000000003,0.039124,-0.352325,0.029875,0.005543,-0.02628,-0.37,6.75,-36.369999,1b
2019-07-15_171338:900,-0.341644,0.039642000000000004,-0.36349499999999996,0.028745999999999997,0.005543,-0.025487,-0.37,6.75,-36.369999,1b
2019-07-15_171338:920,-0.341644,0.040161,-0.377228,0.027617000000000003,0.0026739999999999997,-0.026616,-1.06,7.5,-36.75,1b
2019-07-15_171338:940,-0.354858,0.039642000000000004,-0.38739,0.026091000000000003,-0.0007740000000000001,-0.027074,-1.06,7.5,-36.75,1b
2019-07-15_171338:960,-0.381317,0.032532,-0.395538,0.024596,-0.00172,-0.026067,-1.5,8.5,-36.0,1b
2019-07-15_171338:980,-0.385376,0.026427999999999997,-0.397583,0.023772,0.00243,-0.026067,-1.5,8.5,-36.0,1b
2019-07-15_171339:000,-0.418915,0.01828,-0.429596,0.023589,0.005756,-0.028539,-1.5,8.5,-36.0,1b
2019-07-15_171339:020,-0.408752,0.012177,-0.44433599999999995,0.02426,0.006732999999999999,-0.031011,-1.87,9.56,-34.369999,1b
2019-07-15_171339:040,-0.429108,0.007111,-0.446899,0.025847000000000002,0.01012,-0.033299,-1.87,9.56,-34.369999,1b
2019-07-15_171339:060,-0.43011499999999997,-0.001007,-0.471283,0.027982999999999997,0.009266,-0.035771,-2.56,11.18,-35.25,1b
2019-07-15_171339:080,-0.37112399999999995,-0.004547,-0.42807,0.032011000000000005,0.012195999999999999,-0.038487,-2.56,11.18,-35.25,1b
2019-07-15_171339:100,-0.315704,-0.004059,-0.40063499999999996,0.032866,0.014454,-0.037847000000000006,-2.56,11.18,-35.25,1b
2019-07-15_171339:120,-0.277588,-0.0025329999999999997,-0.379272,0.032622000000000005,0.018757,-0.032537,-3.25,11.5,-34.369999,1b
2019-07-15_171339:140,-0.288269,-0.009125,-0.38028,0.031004000000000004,0.013721,-0.02509,-3.25,11.5,-34.369999,1b
2019-07-15_171339:160,-0.303528,-0.020325,-0.386902,0.029356,0.005756,-0.022771,-4.06,12.25,-33.560001,1b
2019-07-15_171339:180,-0.296387,-0.01828,-0.37674,0.027708,-0.001141,-0.026463999999999998,-4.06,12.25,-33.560001,1b
2019-07-15_171339:200,-0.311646,-0.019806,-0.381805,0.026914999999999998,-0.00584,-0.027410000000000004,-4.06,12.25,-33.560001,1b
2019-07-15_171339:220,-0.305054,-0.015747,-0.383331,0.026366000000000004,-0.008159999999999999,-0.028539,-5.18,13.0,-33.25,1b
2019-07-15_171339:240,-0.29538000000000003,-0.009644,-0.393005,0.02484,-0.010937,-0.030797,-5.18,13.0,-33.25,1b
2019-07-15_171339:260,-0.29284699999999997,-0.006072999999999999,-0.385376,0.022978,-0.012402,-0.030858,-5.18,14.56,-33.560001,1b
2019-07-15_171339:280,-0.297913,-0.0030210000000000002,-0.373688,0.020812,-0.011271999999999999,-0.030583,-5.18,14.56,-33.560001,1b
2019-07-15_171339:300,-0.29895,0.001007,-0.365021,0.018736000000000003,-0.0069700000000000005,-0.030797,-5.18,14.56,-33.560001,1b
2019-07-15_171339:320,-0.29995700000000003,0.004059,-0.350281,0.016936,-0.001843,-0.030522000000000004,-5.87,14.18,-32.869999,1b
2019-07-15_171339:340,-0.29995700000000003,0.0030210000000000002,-0.341644,0.01541,0.0005679999999999999,-0.029668,-5.87,14.18,-32.869999,1b
2019-07-15_171339:360,-0.29486100000000004,0.0055850000000000006,-0.327911,0.014219999999999998,0.001759,-0.028722,-6.56,14.18,-31.68,1b
2019-07-15_171339:380,-0.294373,0.0055850000000000006,-0.31723,0.013640000000000001,0.001301,-0.026097000000000002,-6.56,14.18,-31.68,1b
2019-07-15_171339:400,-0.291321,0.007111,-0.316223,0.01245,-0.000286,-0.022678999999999998,-6.56,14.18,-31.68,1b
2019-07-15_171339:420,-0.314178,0.007599,-0.327423,0.011045999999999999,-0.00285,-0.019962999999999998,-7.68,15.37,-32.869999,1b
2019-07-15_171339:440,-0.311646,0.011687999999999999,-0.32486,0.00891,-0.005229999999999999,-0.017461,-7.68,15.37,-32.869999,1b
2019-07-15_171339:460,-0.31012,0.011687999999999999,-0.323853,0.006712,-0.004437,-0.013951,-8.37,15.06,-31.25,1b
2019-07-15_171339:480,-0.320282,0.007599,-0.327423,0.004332,-0.00285,-0.011479000000000001,-8.37,15.06,-31.25,1b
2019-07-15_171339:500,-0.31369,0.007599,-0.33605999999999997,0.00183,-0.00227,-0.010533,-8.37,15.06,-31.25,1b
2019-07-15_171339:520,-0.325897,0.004547,-0.352844,-0.000368,-0.001782,-0.009373999999999999,-8.75,15.06,-31.68,1b
2019-07-15_171339:540,-0.332489,0.007599,-0.356903,-0.001955,-0.001019,-0.007817000000000001,-8.75,15.06,-31.68,1b
2019-07-15_171339:560,-0.35791,0.009125,-0.36554000000000003,-0.0033280000000000002,0.0018809999999999999,-0.004765999999999999,-8.87,14.75,-31.68,1b
2019-07-15_171339:580,-0.379791,0.011687999999999999,-0.364014,-0.004915,0.004963,-0.000279,-8.87,14.75,-31.68,1b
2019-07-15_171339:600,-0.378265,0.011169,-0.360962,-0.007051000000000001,0.008076,0.004085,-8.87,14.75,-31.68,1b
2019-07-15_171339:620,-0.36706500000000003,0.010162000000000001,-0.36911,-0.009187,0.010456,0.006862,-9.25,14.75,-32.060001,1b
2019-07-15_171339:640,-0.35436999999999996,0.014740000000000001,-0.386902,-0.011079,0.00954,0.0077469999999999995,-9.25,14.75,-32.060001,1b
2019-07-15_171339:660,-0.375214,0.025421,-0.40011599999999997,-0.012941,0.008320000000000001,0.008418,-9.25,14.75,-30.870001000000002,1b
2019-07-15_171339:680,-0.43621800000000005,0.023895,-0.431122,-0.014406,0.004536,0.010188,-9.25,14.75,-30.870001000000002,1b
2019-07-15_171339:700,-0.41384899999999997,0.036072,-0.42605600000000005,-0.015931999999999998,1.9e-05,0.012324,-9.25,14.75,-30.870001000000002,1b
2019-07-15_171339:720,-0.44638100000000003,0.042175,-0.445862,-0.017396000000000002,0.003834,0.015773,-10.0,13.75,-32.060001,1b
2019-07-15_171339:740,-0.45654300000000003,0.042175,-0.484009,-0.017854,0.002613,0.020747,-10.0,13.75,-32.060001,1b
2019-07-15_171339:760,-0.43621800000000005,0.036591000000000005,-0.459595,-0.018526,0.002094,0.023341,-10.37,12.68,-32.060001,1b
2019-07-15_171339:780,-0.393005,0.032013,-0.42248500000000005,-0.015290999999999999,0.00536,0.020869,-10.37,12.68,-32.060001,1b
2019-07-15_171339:800,-0.327423,0.041168,-0.382324,-0.010713,0.013569,0.014308000000000001,-10.37,12.68,-32.060001,1b
2019-07-15_171339:820,-0.318268,0.046752999999999996,-0.36654699999999996,-0.005983,0.019275999999999998,0.009669,-10.0,12.68,-33.25,1b
2019-07-15_171339:840,-0.278107,0.051849,-0.35436999999999996,-0.002168,0.01656,0.008601000000000001,-10.0,12.68,-33.25,1b
2019-07-15_171339:860,-0.300476,0.048279,-0.34570300000000004,0.001219,0.01067,0.0065569999999999995,-10.68,12.68,-32.369999,1b
2019-07-15_171339:880,-0.308075,0.047272,-0.344177,0.003539,0.005268,0.002833,-10.68,12.68,-32.369999,1b
2019-07-15_171339:900,-0.29742399999999997,0.049805,-0.338593,0.006712,0.002888,0.000728,-10.68,12.68,-32.369999,1b
2019-07-15_171339:920,-0.296906,0.047791,-0.339111,0.008787999999999999,-0.000103,-0.000981,-11.5,12.68,-31.25,1b
2019-07-15_171339:940,-0.275055,0.044219999999999995,-0.336548,0.009764,-0.004131,-0.002782,-11.5,12.68,-31.25,1b
2019-07-15_171339:960,-0.271484,0.041687,-0.337067,0.0101,-0.01054,-0.00443,-12.25,13.37,-32.060001,1b
2019-07-15_171339:980,-0.278595,0.035583,-0.338074,0.010191,-0.013287,-0.0057729999999999995,-12.25,13.37,-32.060001,1b
2019-07-15_171340:000,-0.288269,0.032013,-0.341125,0.010191,-0.014813,-0.007115000000000001,-12.25,13.37,-32.060001,1b
2019-07-15_171340:020,-0.30249000000000004,0.028442000000000002,-0.341125,0.010648999999999999,-0.015147999999999998,-0.009434999999999999,-12.25,13.37,-31.68,1b
2019-07-15_171340:040,-0.31012,0.026917,-0.341644,0.011656,-0.014750999999999998,-0.011815,-12.25,13.37,-31.68,1b
2019-07-15_171340:060,-0.32132,0.022858,-0.34317,0.012175,-0.013073,-0.013341,-10.75,12.68,-31.25,1b
2019-07-15_171340:080,-0.316742,0.022858,-0.341644,0.012907,-0.011883,-0.014684000000000001,-10.75,12.68,-31.25,1b
2019-07-15_171340:100,-0.326385,0.025421,-0.34674099999999997,0.013701,-0.011822,-0.016454,-10.75,12.68,-31.25,1b
2019-07-15_171340:120,-0.335541,0.024902,-0.34674099999999997,0.014677,-0.010876,-0.018132,-11.56,13.75,-31.25,1b
2019-07-15_171340:140,-0.32486,0.025908999999999998,-0.3396,0.016081,-0.008892,-0.020696,-11.56,13.75,-31.25,1b
2019-07-15_171340:160,-0.316223,0.031006,-0.335541,0.017333,-0.006695,-0.023015,-11.56,13.06,-30.870001000000002,1b
2019-07-15_171340:180,-0.310638,0.034058,-0.332489,0.018491999999999998,-0.005657,-0.023961,-11.56,13.06,-30.870001000000002,1b
2019-07-15_171340:200,-0.314178,0.035583,-0.333496,0.019591,-0.006451,-0.025365000000000002,-11.56,13.06,-30.870001000000002,1b
2019-07-15_171340:220,-0.32132,0.037598,-0.335022,0.021056000000000002,-0.007702,-0.027074,-5.37,12.68,-32.369999,1b
2019-07-15_171340:240,-0.34570300000000004,0.040649,-0.340118,0.022337,-0.006847,-0.027683999999999997,-5.37,12.68,-32.369999,1b
2019-07-15_171340:260,-0.349792,0.042175,-0.35131799999999996,0.02426,-0.003307,-0.027927999999999998,-12.25,13.37,-31.68,1b
2019-07-15_171340:280,-0.338074,0.044739,-0.349792,0.025693999999999998,0.000172,-0.027927999999999998,-12.25,13.37,-31.68,1b
2019-07-15_171340:300,-0.33197,0.047272,-0.364014,0.026639999999999997,0.002094,-0.027745,-12.25,13.37,-31.68,1b
2019-07-15_171340:320,-0.328949,0.047272,-0.378754,0.027495,0.001759,-0.028263999999999997,-13.06,13.75,-30.870001000000002,1b
2019-07-15_171340:340,-0.327911,0.048279,-0.396545,0.027831,0.000233,-0.029454,-13.06,13.75,-30.870001000000002,1b
2019-07-15_171340:360,-0.344177,0.045745999999999995,-0.406738,0.027953,-0.0007740000000000001,-0.031072000000000002,-14.87,13.75,-30.0,1b
2019-07-15_171340:380,-0.36044299999999996,0.043213,-0.411804,0.028502,0.00182,-0.032445,-14.87,13.75,-30.0,1b
2019-07-15_171340:400,-0.402161,0.036072,-0.431641,0.028838,0.004566,-0.034184,-14.87,13.75,-30.0,1b
2019-07-15_171340:420,-0.429108,0.028442000000000002,-0.458588,0.029631,0.004871,-0.036565,-15.25,13.18,-30.370001000000002,1b
2019-07-15_171340:440,-0.402649,0.022858,-0.452484,0.031096,0.006855,-0.04102,-15.25,13.18,-30.370001000000002,1b
2019-07-15_171340:460,-0.411285,0.023895,-0.457581,0.032408,0.006611,-0.044347000000000004,-15.37,13.56,-30.370001000000002,1b
2019-07-15_171340:480,-0.411804,0.017792,-0.470276,0.033476,0.006855,-0.04453,-15.37,13.56,-30.370001000000002,1b
2019-07-15_171340:500,-0.385864,0.014221000000000001,-0.45401,0.03369,0.007984,-0.043675,-15.37,13.56,-30.370001000000002,1b
2019-07-15_171340:520,-0.363007,0.016266,-0.43670699999999996,0.031827999999999995,0.01067,-0.040349,-16.370001000000002,14.0,-28.25,1b
2019-07-15_171340:540,-0.312653,0.009644,-0.40063499999999996,0.029082,0.014637,-0.03391,-16.370001000000002,14.0,-28.25,1b
2019-07-15_171340:560,-0.307587,0.0,-0.375214,0.027250999999999997,0.016621,-0.0304,-18.0,14.0,-29.5,1b
2019-07-15_171340:580,-0.29180900000000004,-0.010651,-0.36554000000000003,0.025907999999999997,0.013508000000000001,-0.031987,-18.0,14.0,-29.5,1b
2019-07-15_171340:600,-0.288269,-0.009644,-0.35131799999999996,0.024992,0.007679000000000001,-0.031987,-18.0,14.0,-29.5,1b
2019-07-15_171340:620,-0.296387,-0.012695,-0.352844,0.025786,0.0035590000000000005,-0.029149,-19.5,13.37,-28.25,1b
2019-07-15_171340:640,-0.278595,-0.011687999999999999,-0.352844,0.02603,0.000965,-0.0286,-19.5,13.37,-28.25,1b
2019-07-15_171340:660,-0.273529,-0.010651,-0.35739099999999996,0.025297999999999998,-0.003704,-0.029606999999999998,-19.870001000000002,13.37,-27.370001000000002,1b
2019-07-15_171340:680,-0.256226,-0.005065999999999999,-0.35436999999999996,0.024718,-0.008159999999999999,-0.029668,-19.870001000000002,13.37,-27.370001000000002,1b
2019-07-15_171340:700,-0.2547,-0.0025329999999999997,-0.353851,0.022856,-0.011364,-0.028752,-19.870001000000002,13.37,-27.370001000000002,1b
2019-07-15_171340:720,-0.264374,0.0,-0.352844,0.020597999999999998,-0.012158,-0.027195999999999998,-21.0,14.06,-27.0,1b
2019-07-15_171340:740,-0.266907,0.001007,-0.35180700000000004,0.018675,-0.01228,-0.02802,-21.0,14.06,-27.0,1b
2019-07-15_171340:760,-0.279633,0.001495,-0.358429,0.016814,-0.012950999999999999,-0.030126,-22.059998999999998,14.18,-25.75,1b
2019-07-15_171340:780,-0.28979499999999997,0.0025329999999999997,-0.36044299999999996,0.015562000000000001,-0.013287,-0.029943,-22.059998999999998,14.18,-25.75,1b
2019-07-15_171340:800,-0.305542,0.002014,-0.361969,0.014219999999999998,-0.01228,-0.027745,-22.059998999999998,14.18,-25.75,1b
2019-07-15_171340:820,-0.312164,0.0,-0.36248800000000003,0.013091,-0.009807999999999999,-0.02567,-21.68,12.06,-27.75,1b
2019-07-15_171340:840,-0.316742,0.001495,-0.364014,0.011443,-0.008159999999999999,-0.023441999999999998,-21.68,12.06,-27.75,1b
2019-07-15_171340:860,-0.311127,-0.001495,-0.36706500000000003,0.009978,-0.005901,-0.021153,-22.559998999999998,12.06,-27.68,1b
2019-07-15_171340:880,-0.29232800000000003,-0.000488,-0.348267,0.008574,-0.003582,-0.019994,-22.559998999999998,12.06,-27.68,1b
2019-07-15_171340:900,-0.29232800000000003,0.0,-0.354858,0.007201000000000001,-0.0021780000000000002,-0.019566999999999998,-22.559998999999998,12.06,-27.68,1b
2019-07-15_171340:920,-0.295898,0.004547,-0.360962,0.006712,-0.001873,-0.018712,-22.25,11.0,-27.25,1b
2019-07-15_171340:940,-0.320282,0.006072999999999999,-0.364532,0.005187,-0.001782,-0.014866999999999998,-22.25,11.0,-27.25,1b
2019-07-15_171340:960,-0.334534,0.006072999999999999,-0.36554000000000003,0.004485,-0.000683,-0.013859999999999999,-23.5,11.37,-27.68,1b
2019-07-15_171340:980,-0.350281,0.006592,-0.365021,0.00247,0.005817,-0.011022,-23.5,11.37,-27.68,1b
2019-07-15_171341:000,-0.35943600000000003,0.004059,-0.364532,0.001341,0.008472,-0.011144,-23.5,11.37,-27.68,1b
2019-07-15_171341:020,-0.346222,0.004059,-0.36349499999999996,0.0007,0.00951,-0.010411,-23.18,10.68,-27.559998999999998,1b
2019-07-15_171341:040,-0.347229,0.004059,-0.363007,0.000365,0.008594,-0.008367,-23.18,10.68,-27.559998999999998,1b
2019-07-15_171341:060,-0.335541,0.0055850000000000006,-0.37316900000000003,0.000426,0.007465,-0.006719,-23.559998999999998,10.37,-27.559998999999998,1b
2019-07-15_171341:080,-0.342163,0.007599,-0.38385,0.000487,0.005543,-0.007421,-23.559998999999998,10.37,-27.559998999999998,1b
2019-07-15_171341:100,-0.35180700000000004,0.013213999999999998,-0.391968,0.0007610000000000001,0.005756,-0.008763,-23.559998999999998,10.37,-27.559998999999998,1b
2019-07-15_171341:120,-0.387909,0.028961,-0.411804,0.0009449999999999999,0.006,-0.009038,-25.059998999999998,10.37,-28.370001000000002,1b
2019-07-15_171341:140,-0.406219,0.035065,-0.43670699999999996,0.000426,0.004871,-0.006383,-25.059998999999998,10.37,-28.370001000000002,1b
2019-07-15_171341:160,-0.399597,0.047272,-0.41232299999999994,-3.2e-05,0.007679000000000001,-0.004704,-24.68,9.18,-28.75,1b
2019-07-15_171341:180,-0.405212,0.055389,-0.459595,-0.000185,0.007618000000000001,-0.001592,-24.68,9.18,-28.75,1b
2019-07-15_171341:200,-0.40011599999999997,0.057434000000000006,-0.48706099999999997,-0.000978,0.001301,-0.0014089999999999999,-24.68,9.18,-28.75,1b
2019-07-15_171341:220,-0.391968,0.05996699999999999,-0.445374,-0.0011,0.001972,-0.00033999999999999997,-25.559998999999998,8.87,-28.370001000000002,1b
2019-07-15_171341:240,-0.364532,0.057953,-0.42248500000000005,0.001006,0.014178999999999999,0.0017350000000000002,-25.559998999999998,8.87,-28.370001000000002,1b
2019-07-15_171341:260,-0.293854,0.061005,-0.383331,0.001616,0.018543,0.00085,-25.559998999999998,8.87,-28.370001000000002,1b
2019-07-15_171341:280,-0.285217,0.05996699999999999,-0.382812,0.0040880000000000005,0.015643999999999998,-0.002934,-26.25,9.68,-28.370001000000002,1b
2019-07-15_171341:300,-0.2659,0.055908000000000006,-0.37674,0.005064,0.012531,-0.004064,-26.25,9.68,-28.370001000000002,1b
2019-07-15_171341:320,-0.29486100000000004,0.046265,-0.38028,0.006987,0.005024,-0.005376,-26.559998999999998,9.68,-26.75,1b
2019-07-15_171341:340,-0.294373,0.042175,-0.377747,0.010527,0.00124,-0.008611,-26.559998999999998,9.68,-26.75,1b
2019-07-15_171341:360,-0.298431,0.044219999999999995,-0.379791,0.014311,-0.001019,-0.012334,-27.370001000000002,8.56,-27.18,1b
2019-07-15_171341:380,-0.29742399999999997,0.044739,-0.386383,0.017363,-0.003399,-0.013005000000000001,-27.370001000000002,8.56,-27.18,1b
2019-07-15_171341:400,-0.29180900000000004,0.043213,-0.373688,0.019865,-0.0053219999999999995,-0.010015000000000001,-27.370001000000002,8.56,-27.18,1b
2019-07-15_171341:420,-0.29742399999999997,0.040649,-0.36706500000000003,0.020201,-0.004986,-0.009953,-27.370001000000002,9.68,-28.370001000000002,1b
2019-07-15_171341:440,-0.300476,0.039124,-0.35180700000000004,0.020018,-0.002728,-0.010869,-27.370001000000002,9.68,-28.370001000000002,1b
2019-07-15_171341:460,-0.298431,0.034058,-0.344696,0.019988,-0.001598,-0.011479000000000001,-27.370001000000002,9.68,-28.370001000000002,1b
2019-07-15_171341:480,-0.298431,0.031494,-0.338593,0.019621,-0.0007740000000000001,-0.013921000000000001,-28.059998999999998,9.68,-28.75,1b
2019-07-15_171341:500,-0.309113,0.025908999999999998,-0.32995599999999997,0.019621,-0.0005,-0.014806,-28.059998999999998,9.68,-28.75,1b
2019-07-15_171341:520,-0.31369,0.021851,-0.32995599999999997,0.019469,-0.0005,-0.016728,-27.68,9.25,-28.68,1b
2019-07-15_171341:540,-0.319794,0.019318000000000002,-0.327911,0.020201,-0.0005610000000000001,-0.018254,-27.68,9.25,-28.68,1b
2019-07-15_171341:560,-0.323853,0.01828,-0.328949,0.02072,-0.001202,-0.019109,-27.68,9.25,-28.68,1b
2019-07-15_171341:580,-0.328949,0.017792,-0.333496,0.021666,-0.0021780000000000002,-0.020513,-27.68,9.25,-28.68,1b
2019-07-15_171341:600,-0.327423,0.023375999999999997,-0.33197,0.022978,-0.003307,-0.023107,-27.68,9.25,-28.68,1b
2019-07-15_171341:620,-0.325378,0.028961,-0.33197,0.023802,-0.00285,-0.024419,-28.870001000000002,8.87,-27.870001000000002,1b
2019-07-15_171341:640,-0.32486,0.036591000000000005,-0.33300799999999997,0.024503999999999998,1.9e-05,-0.024083,-28.870001000000002,8.87,-27.870001000000002,1b
2019-07-15_171341:660,-0.329437,0.040649,-0.341125,0.024168000000000002,0.002613,-0.022954,-28.870001000000002,8.87,-27.870001000000002,1b
2019-07-15_171341:680,-0.335541,0.041687,-0.348267,0.024107,0.0042,-0.023015,-30.25,9.18,-27.870001000000002,1b
2019-07-15_171341:700,-0.331482,0.042175,-0.35131799999999996,0.024046,0.0060609999999999995,-0.026006,-30.25,9.18,-27.870001000000002,1b
2019-07-15_171341:720,-0.34063699999999997,0.042694,-0.361481,0.024443,0.009266,-0.028874,-29.870001000000002,9.0,-27.870001000000002,1b
2019-07-15_171341:740,-0.345215,0.042175,-0.37316900000000003,0.025389,0.011982,-0.029851,-29.870001000000002,9.0,-27.870001000000002,1b
2019-07-15_171341:760,-0.345215,0.040649,-0.385376,0.026914999999999998,0.013447,-0.030522000000000004,-29.870001000000002,9.0,-27.870001000000002,1b
2019-07-15_171341:780,-0.34570300000000004,0.040161,-0.389954,0.029020999999999998,0.013630000000000001,-0.03159,-30.25,9.25,-28.25,1b
2019-07-15_171341:800,-0.35943600000000003,0.040649,-0.396545,0.030608,0.013447,-0.031316000000000004,-30.25,9.25,-28.25,1b
2019-07-15_171341:820,-0.404694,0.038116000000000004,-0.416901,0.032011000000000005,0.013386000000000002,-0.030187000000000002,-30.68,8.56,-27.870001000000002,1b
2019-07-15_171341:840,-0.44995100000000005,0.031006,-0.42858900000000005,0.032469,0.011249,-0.030644,-30.68,8.56,-27.870001000000002,1b
2019-07-15_171341:860,-0.438751,0.029968,-0.42453,0.033141000000000004,0.009602,-0.033666,-30.68,8.56,-27.870001000000002,1b
2019-07-15_171341:880,-0.41232299999999994,0.024384,-0.44384799999999996,0.033658999999999994,0.008869,-0.037175,-31.68,8.87,-26.559998999999998,1b
2019-07-15_171341:900,-0.383331,0.020325,-0.44232200000000005,0.033934,0.007343000000000001,-0.038364999999999996,-31.68,8.87,-26.559998999999998,1b
2019-07-15_171341:920,-0.370636,0.016753999999999998,-0.446899,0.032744,0.004963,-0.037175,-33.18,8.18,-26.18,1b
2019-07-15_171341:940,-0.370636,0.007111,-0.44027700000000003,0.030088999999999998,0.0030399999999999997,-0.032383999999999996,-33.18,8.18,-26.18,1b
2019-07-15_171341:960,-0.344696,-0.005065999999999999,-0.395538,0.027708,0.004475,-0.02683,-33.18,8.18,-26.18,1b
2019-07-15_171341:980,-0.338593,-0.014740000000000001,-0.380798,0.025693999999999998,0.009144,-0.024631999999999998,-33.869999,7.75,-25.370001000000002,1b
2019-07-15_171342:000,-0.312653,-0.023375999999999997,-0.363007,0.024992,0.010517,-0.023563999999999998,-33.869999,7.75,-25.370001000000002,1b
2019-07-15_171342:020,-0.29742399999999997,-0.028961,-0.35180700000000004,0.023711000000000003,0.007465,-0.023229,-33.560001,7.06,-26.18,1b
2019-07-15_171342:040,-0.290802,-0.031494,-0.34674099999999997,0.023772,0.003406,-0.024358,-33.560001,7.06,-26.18,1b
2019-07-15_171342:060,-0.28064,-0.025908999999999998,-0.346222,0.023863,-0.000103,-0.026891,-33.560001,7.06,-26.18,1b
2019-07-15_171342:080,-0.282166,-0.022369,-0.354858,0.023863,-0.005627,-0.029454,-33.869999,7.0,-24.559998999999998,1b
2019-07-15_171342:100,-0.283173,-0.013213999999999998,-0.3508,0.02365,-0.009228,-0.031194,-33.869999,7.0,-24.559998999999998,1b
2019-07-15_171342:120,-0.285217,-0.009644,-0.352844,0.022917,-0.009625,-0.031925999999999996,-34.369999,6.68,-24.559998999999998,1b
2019-07-15_171342:140,-0.283173,-0.004059,-0.344696,0.022337,-0.007763,-0.030583,-34.369999,6.68,-24.559998999999998,1b
2019-07-15_171342:160,-0.290283,-0.002014,-0.345215,0.021117,-0.006298,-0.029393,-34.369999,6.68,-24.559998999999998,1b
2019-07-15_171342:180,-0.297913,-0.001495,-0.34368899999999997,0.019804,-0.005718,-0.028417,-35.18,6.68,-23.870001000000002,1b
2019-07-15_171342:200,-0.309601,-0.000488,-0.337067,0.017821,-0.005901,-0.026067,-35.18,6.68,-23.870001000000002,1b
2019-07-15_171342:220,-0.314178,0.000488,-0.33300799999999997,0.016295,-0.005108,-0.023168,-35.5,6.06,-25.370001000000002,1b
2019-07-15_171342:240,-0.328949,0.000488,-0.329437,0.013944999999999999,-0.004101,-0.020177,-35.5,6.06,-25.370001000000002,1b
2019-07-15_171342:260,-0.33197,0.000488,-0.331482,0.011045999999999999,-0.003643,-0.018315,-35.5,6.06,-25.370001000000002,1b
2019-07-15_171342:280,-0.322845,0.0,-0.325897,0.007719,-0.003368,-0.016271,-35.18,5.68,-26.18,1b
2019-07-15_171342:300,-0.313171,-0.005065999999999999,-0.32132,0.0054,-0.001934,-0.014409,-35.18,5.68,-26.18,1b
2019-07-15_171342:320,-0.307587,-0.0055850000000000006,-0.323334,0.003081,-0.0014759999999999999,-0.013738,-35.18,5.68,-25.75,1b
2019-07-15_171342:340,-0.319275,-0.007111,-0.334015,0.001402,-0.00285,-0.012486,-35.18,5.68,-25.75,1b
2019-07-15_171342:360,-0.326385,-0.007599,-0.333496,0.000212,-0.00172,-0.010625,-35.18,5.68,-25.75,1b
2019-07-15_171342:380,-0.344696,-0.008118,-0.341125,-0.0005200000000000001,0.0007509999999999999,-0.008306000000000001,-35.5,5.0,-24.559998999999998,1b
2019-07-15_171342:400,-0.349792,-0.007111,-0.3396,-0.000917,0.004078,-0.006108,-35.5,5.0,-24.559998999999998,1b
2019-07-15_171342:420,-0.368073,-0.006072999999999999,-0.352325,-0.00229,0.005604,-0.00385,-35.869999,4.56,-24.559998999999998,1b
2019-07-15_171342:440,-0.380798,-0.006072999999999999,-0.361481,-0.0032670000000000004,0.006458,-0.002995,-35.869999,4.56,-24.559998999999998,1b
2019-07-15_171342:460,-0.374176,-0.006592,-0.382324,-0.003542,0.0054210000000000005,-0.004033,-35.869999,4.56,-24.559998999999998,1b
2019-07-15_171342:480,-0.361481,0.006072999999999999,-0.38739,-0.003145,0.006794,-0.0048270000000000006,-35.869999,4.18,-24.559998999999998,1b
2019-07-15_171342:500,-0.386902,0.022369,-0.40823400000000004,-0.003023,0.0070079999999999995,-0.003453,-35.869999,4.18,-24.559998999999998,1b
2019-07-15_171342:520,-0.44433599999999995,0.027954000000000003,-0.459595,-0.003725,0.001911,-0.000127,-36.560001,3.06,-23.870001000000002,1b
2019-07-15_171342:540,-0.41485600000000006,0.038635,-0.43927,-0.004518,0.002888,0.0028940000000000003,-36.560001,3.06,-23.870001000000002,1b
2019-07-15_171342:560,-0.45043900000000003,0.045226999999999996,-0.477905,-0.0039380000000000005,0.002705,0.0034130000000000002,-36.560001,3.06,-23.870001000000002,1b
2019-07-15_171342:580,-0.43011499999999997,0.05438200000000001,-0.474854,-0.0039380000000000005,0.001362,0.000545,-40.25,3.5,-24.559998999999998,1b
2019-07-15_171342:600,-0.404694,0.05996699999999999,-0.44638100000000003,-0.003023,0.006611,0.0012460000000000001,-40.25,3.5,-24.559998999999998,1b
2019-07-15_171342:620,-0.337067,0.063538,-0.395538,-0.001894,0.016315,0.0035659999999999997,-37.68,3.56,-24.559998999999998,1b
2019-07-15_171342:640,-0.31012,0.063538,-0.376221,2.8999999999999997e-05,0.02129,0.0027719999999999997,-37.68,3.56,-24.559998999999998,1b
2019-07-15_171342:660,-0.272003,0.067108,-0.37011700000000003,0.001738,0.016956,-0.001042,-37.68,3.56,-24.559998999999998,1b
2019-07-15_171342:680,-0.28064,0.065582,-0.358917,0.00421,0.008594,-0.004704,-37.0,4.0,-23.059998999999998,1b
2019-07-15_171342:700,-0.30654899999999996,0.064545,-0.36248800000000003,0.007658,0.0018809999999999999,-0.009221,-37.0,4.0,-23.059998999999998,1b
2019-07-15_171342:720,-0.31723,0.069641,-0.363007,0.010985,-0.001446,-0.011937,-37.68,4.0,-23.870001000000002,1b
2019-07-15_171342:740,-0.325897,0.070648,-0.365021,0.013304,-0.004314,-0.009281999999999999,-37.68,4.0,-23.870001000000002,1b
2019-07-15_171342:760,-0.322327,0.067596,-0.36248800000000003,0.014555000000000002,-0.005566,-0.003179,-37.68,4.0,-23.870001000000002,1b
2019-07-15_171342:780,-0.323853,0.064545,-0.354858,0.014219999999999998,-0.004711,0.000728,-38.060001,4.25,-23.059998999999998,1b
2019-07-15_171342:800,-0.323853,0.056427,-0.340118,0.013548,-0.002575,0.0027719999999999997,-38.060001,4.25,-23.059998999999998,1b
2019-07-15_171342:820,-0.319794,0.049805,-0.327423,0.012816,-0.000286,0.003474,-37.68,4.25,-23.870001000000002,1b
2019-07-15_171342:840,-0.313171,0.040161,-0.311646,0.012175,0.0016359999999999999,0.0024059999999999997,-37.68,4.25,-23.870001000000002,1b
2019-07-15_171342:860,-0.307068,0.036591000000000005,-0.300964,0.011565,0.001301,0.00020899999999999998,-37.68,4.25,-23.870001000000002,1b
2019-07-15_171342:880,-0.313171,0.034546,-0.29180900000000004,0.011229000000000001,-0.000103,-0.0014089999999999999,-31.059998999999998,5.06,-22.68,1b
2019-07-15_171342:900,-0.323853,0.031494,-0.29180900000000004,0.011168,-0.000103,-0.002263,-31.059998999999998,5.06,-22.68,1b
2019-07-15_171342:920,-0.322327,0.031006,-0.298431,0.011504,-0.00172,-0.0033009999999999997,-38.5,4.56,-23.370001000000002,1b
2019-07-15_171342:940,-0.323334,0.031006,-0.29895,0.011290000000000001,-0.003979,-0.004979,-38.5,4.56,-23.370001000000002,1b
2019-07-15_171342:960,-0.323334,0.033539,-0.303528,0.011382,-0.006451,-0.0065049999999999995,-38.5,4.56,-23.370001000000002,1b
2019-07-15_171342:980,-0.330475,0.036591000000000005,-0.300964,0.011565,-0.0069700000000000005,-0.007481999999999999,-39.369999,5.25,-24.18,1b
2019-07-15_171343:000,-0.34265100000000004,0.041687,-0.29895,0.0119,-0.004711,-0.008489,-39.369999,5.25,-24.18,1b
2019-07-15_171343:020,-0.35180700000000004,0.041687,-0.315216,0.012022,-0.002117,-0.009557,-39.060001,4.56,-24.18,1b
2019-07-15_171343:040,-0.337067,0.044219999999999995,-0.327911,0.012358,-0.001324,-0.01154,-39.060001,4.56,-24.18,1b
2019-07-15_171343:060,-0.34368899999999997,0.045226999999999996,-0.336548,0.012633,-0.002575,-0.014256,-39.060001,4.56,-24.18,1b
2019-07-15_171343:080,-0.364014,0.045226999999999996,-0.35791,0.013701,-0.003582,-0.016118,-38.68,5.25,-23.870001000000002,1b
2019-07-15_171343:100,-0.390961,0.043701,-0.37011700000000003,0.015013,-0.0035210000000000003,-0.01621,-38.68,5.25,-23.870001000000002,1b
2019-07-15_171343:120,-0.39859,0.039642000000000004,-0.368591,0.017149,0.000782,-0.015141,-39.75,4.56,-24.559998999999998,1b
2019-07-15_171343:140,-0.375214,0.041168,-0.377228,0.019133,0.004749000000000001,-0.015263999999999998,-39.75,4.56,-24.559998999999998,1b
2019-07-15_171343:160,-0.36554000000000003,0.042175,-0.388916,0.020079,0.005878,-0.014653,-39.75,4.56,-24.559998999999998,1b
2019-07-15_171343:180,-0.377747,0.040649,-0.39502,0.020018,0.006275,-0.013127000000000002,-39.75,4.25,-23.370001000000002,1b
2019-07-15_171343:200,-0.416382,0.033539,-0.410797,0.019621,0.0053289999999999995,-0.013524000000000001,-39.75,4.25,-23.370001000000002,1b
2019-07-15_171343:220,-0.457581,0.020844,-0.427063,0.019286,0.003406,-0.018315,-40.560001,4.68,-24.559998999999998,1b
2019-07-15_171343:240,-0.439758,0.018799,-0.42605600000000005,0.019988,0.004536,-0.023625,-40.560001,4.68,-24.559998999999998,1b
2019-07-15_171343:260,-0.42248500000000005,0.010651,-0.45553599999999994,0.021056000000000002,0.003437,-0.025762,-40.560001,4.68,-24.559998999999998,1b
2019-07-15_171343:280,-0.404175,0.006072999999999999,-0.444855,0.022307,0.001697,-0.026219,-40.869999,4.0,-22.68,1b
2019-07-15_171343:300,-0.377228,0.004547,-0.427063,0.021513,0.004291,-0.024968,-40.869999,4.0,-22.68,1b
2019-07-15_171343:320,-0.336548,0.001007,-0.40063499999999996,0.019681999999999998,0.00835,-0.020452,-42.369999,2.5,-23.370001000000002,1b
2019-07-15_171343:340,-0.31369,-0.007599,-0.384857,0.017728999999999998,0.010181,-0.017003,-42.369999,2.5,-23.370001000000002,1b
2019-07-15_171343:360,-0.316742,-0.019318000000000002,-0.37011700000000003,0.01602,0.008533,-0.019261,-42.369999,2.5,-23.370001000000002,1b
2019-07-15_171343:380,-0.295898,-0.01828,-0.364014,0.015501,0.0054210000000000005,-0.021641999999999998,-42.0,3.18,-22.68,1b
2019-07-15_171343:400,-0.29180900000000004,-0.015747,-0.356903,0.015471,0.00124,-0.019444,-42.0,3.18,-22.68,1b
2019-07-15_171343:420,-0.298431,-0.014221000000000001,-0.359955,0.015898,-0.002911,-0.0174,-43.5,1.68,-22.18,1b
2019-07-15_171343:440,-0.296387,-0.009644,-0.365021,0.01541,-0.007548999999999999,-0.018132,-43.5,1.68,-22.18,1b
2019-07-15_171343:460,-0.29486100000000004,0.0,-0.35943600000000003,0.014616,-0.010815,-0.018254,-43.5,1.68,-22.18,1b
2019-07-15_171343:480,-0.293854,0.0,-0.356903,0.013701,-0.011729999999999999,-0.017644,-44.560001,1.75,-23.370001000000002,1b
2019-07-15_171343:500,-0.287231,0.004059,-0.347748,0.012358,-0.010815,-0.017919,-44.560001,1.75,-23.370001000000002,1b
2019-07-15_171343:520,-0.28927600000000003,0.004547,-0.349792,0.011045999999999999,-0.009564,-0.017735,-43.5,1.18,-22.25,1b
2019-07-15_171343:540,-0.293854,0.004547,-0.34368899999999997,0.009703,-0.008617,-0.016973,-43.5,1.18,-22.25,1b
2019-07-15_171343:560,-0.300476,0.005065999999999999,-0.338593,0.009001,-0.008373,-0.015934999999999998,-43.5,1.18,-22.25,1b
2019-07-15_171343:580,-0.312164,0.004059,-0.334015,0.008391,-0.007092,-0.013799,-43.75,1.25,-24.0,1b
2019-07-15_171343:600,-0.32132,0.0025329999999999997,-0.32995599999999997,0.007872,-0.00584,-0.011601,-43.75,1.25,-24.0,1b
2019-07-15_171343:620,-0.327423,0.0035399999999999997,-0.330475,0.006529000000000001,-0.004497999999999999,-0.009770000000000001,-44.869999,0.87,-24.0,1b
2019-07-15_171343:640,-0.315704,0.001495,-0.32132,0.004729,-0.003979,-0.007634,-44.869999,0.87,-24.0,1b
2019-07-15_171343:660,-0.313171,0.002014,-0.316223,0.002928,-0.001598,-0.005651,-44.869999,0.87,-24.0,1b
2019-07-15_171343:680,-0.314178,0.001007,-0.318268,0.001006,0.0005070000000000001,-0.0046429999999999996,-44.18,0.06,-23.870001000000002,1b
2019-07-15_171343:700,-0.312164,0.004059,-0.327423,-0.000917,0.000294,-0.004521,-44.18,0.06,-23.870001000000002,1b
2019-07-15_171343:720,-0.318268,0.0030210000000000002,-0.341125,-0.002382,-0.001324,-0.00443,-44.869999,0.06,-24.559998999999998,1b
2019-07-15_171343:740,-0.335022,0.004547,-0.341125,-0.004274,-0.0020559999999999997,-0.003179,-44.869999,0.06,-24.559998999999998,1b
2019-07-15_171343:760,-0.358429,0.005065999999999999,-0.350281,-0.0057079999999999995,0.000904,-0.001042,-44.869999,0.06,-24.559998999999998,1b
2019-07-15_171343:780,-0.378265,0.005065999999999999,-0.359955,-0.0068980000000000005,0.004566,0.0010630000000000001,-44.560001,-0.18,-24.18,1b
2019-07-15_171343:800,-0.382812,0.006072999999999999,-0.35791,-0.008241,0.007801000000000001,0.004085,-44.560001,-0.18,-24.18,1b
2019-07-15_171343:820,-0.380798,0.007111,-0.358917,-0.009828,0.009845999999999999,0.005946,-45.25,-0.5,-23.370001000000002,1b
2019-07-15_171343:840,-0.377747,0.009644,-0.372162,-0.010713,0.010273000000000001,0.0065569999999999995,-45.25,-0.5,-23.370001000000002,1b
2019-07-15_171343:860,-0.38028,0.016753999999999998,-0.38385,-0.011446,0.009998,0.005427,-45.25,-0.5,-23.370001000000002,1b
2019-07-15_171343:880,-0.432648,0.029480000000000003,-0.41232299999999994,-0.011751000000000001,0.009876000000000001,0.004695,-44.869999,-0.75,-24.18,1b
2019-07-15_171343:900,-0.45654300000000003,0.029968,-0.433655,-0.011903,0.0060609999999999995,0.005092,-44.869999,-0.75,-24.18,1b
2019-07-15_171343:920,-0.45095799999999997,0.037598,-0.41333000000000003,-0.012147,0.0071909999999999995,0.006129,-46.060001,-0.75,-23.370001000000002,1b
2019-07-15_171343:940,-0.48043800000000003,0.042694,-0.441284,-0.011629,0.008808,0.007411,-46.060001,-0.75,-23.370001000000002,1b
2019-07-15_171343:960,-0.445862,0.047272,-0.44232200000000005,-0.011170999999999999,0.006458,0.007075,-46.060001,-0.75,-23.370001000000002,1b
2019-07-15_171343:980,-0.406738,0.053863999999999995,-0.414337,-0.010286,0.006947,0.006465,-46.68,-0.5,-23.059998999999998,1b
2019-07-15_171344:000,-0.360962,0.056427,-0.386902,-0.008302,0.012043,0.007411,-46.68,-0.5,-23.059998999999998,1b
2019-07-15_171344:020,-0.320801,0.065063,-0.35638400000000003,-0.005922,0.017414,0.007258,-46.369999,-0.5,-22.68,1b
2019-07-15_171344:040,-0.296906,0.066071,-0.356903,-0.004579,0.015430000000000001,0.00674,-46.369999,-0.5,-22.68,1b
2019-07-15_171344:060,-0.298431,0.067596,-0.334015,-0.003206,0.011311,0.008723,-46.369999,-0.5,-22.68,1b
2019-07-15_171344:080,-0.317749,0.062012,-0.345215,-0.001894,0.004475,0.010005,-47.5,-0.75,-21.059998999999998,1b
2019-07-15_171344:100,-0.317749,0.060486,-0.333496,-0.000124,0.000629,0.007808,-47.5,-0.75,-21.059998999999998,1b
2019-07-15_171344:120,-0.31723,0.06149299999999999,-0.334534,0.001341,-0.001934,0.006221,-47.060001,0.18,-21.559998999999998,1b
2019-07-15_171344:140,-0.30654899999999996,0.054901,-0.337067,0.002959,-0.004894,0.006129,-47.060001,0.18,-21.559998999999998,1b
2019-07-15_171344:160,-0.296387,0.048279,-0.33605999999999997,0.003325,-0.009228,0.006343,-47.060001,0.18,-21.559998999999998,1b
2019-07-15_171344:180,-0.29486100000000004,0.044739,-0.332489,0.004057,-0.011729999999999999,0.008081999999999999,-47.869999,-0.06,-21.559998999999998,1b
2019-07-15_171344:200,-0.30654899999999996,0.036591000000000005,-0.32486,0.004607,-0.013134,0.007808,-47.869999,-0.06,-21.559998999999998,1b
2019-07-15_171344:220,-0.314697,0.03302,-0.324371,0.005582999999999999,-0.013226,0.006679000000000001,-47.869999,-0.5,-22.25,1b
2019-07-15_171344:240,-0.32132,0.028961,-0.31723,0.0064069999999999995,-0.012341,0.005672,-47.869999,-0.5,-22.25,1b
2019-07-15_171344:260,-0.320282,0.028442000000000002,-0.315704,0.007445,-0.011089,0.0051530000000000005,-47.869999,-0.5,-22.25,1b
2019-07-15_171344:280,-0.320801,0.025421,-0.309113,0.008269,-0.010204000000000001,0.00442,-47.869999,0.56,-21.559998999999998,1b
2019-07-15_171344:300,-0.32132,0.023895,-0.30654899999999996,0.008452,-0.01054,0.0034130000000000002,-47.869999,0.56,-21.559998999999998,1b
2019-07-15_171344:320,-0.323853,0.021332,-0.310638,0.009245,-0.011334,0.001796,-48.18,1.37,-22.75,1b
2019-07-15_171344:340,-0.334534,0.018799,-0.317749,0.009703,-0.012158,-0.0016530000000000002,-48.18,1.37,-22.75,1b
2019-07-15_171344:360,-0.33605999999999997,0.022369,-0.324371,0.011045999999999999,-0.011364,-0.004369,-48.18,1.37,-22.75,1b
2019-07-15_171344:380,-0.33605999999999997,0.023895,-0.326385,0.012053,-0.010204000000000001,-0.006108,-47.5,1.37,-22.25,1b
2019-07-15_171344:400,-0.32995599999999997,0.027435,-0.32486,0.013030000000000002,-0.00642,-0.007084999999999999,-47.5,1.37,-22.25,1b
2019-07-15_171344:420,-0.34875500000000004,0.035583,-0.331482,0.013304,-0.001782,-0.0066879999999999995,-47.060001,0.56,-24.25,1b
2019-07-15_171344:440,-0.354858,0.032013,-0.338593,0.013425999999999999,-0.000286,-0.007084999999999999,-47.060001,0.56,-24.25,1b
2019-07-15_171344:460,-0.353851,0.033539,-0.330475,0.014037,0.00536,-0.012425,-47.060001,0.56,-24.25,1b
2019-07-15_171344:480,-0.358917,0.034546,-0.342163,0.014830000000000001,0.006885,-0.015996,-47.5,1.37,-23.5,1b
2019-07-15_171344:500,-0.372162,0.035583,-0.3508,0.015349000000000002,0.006672,-0.017522,-47.5,1.37,-23.5,1b
2019-07-15_171344:520,-0.37011700000000003,0.035583,-0.35739099999999996,0.015837,0.006336,-0.017308,-47.869999,0.18,-23.18,1b
2019-07-15_171344:540,-0.37316900000000003,0.031494,-0.365021,0.016416999999999998,0.006397,-0.017003,-47.869999,0.18,-23.18,1b
2019-07-15_171344:560,-0.385376,0.031006,-0.375702,0.016416999999999998,0.005756,-0.016789,-47.869999,0.18,-23.18,1b
2019-07-15_171344:580,-0.408752,0.028961,-0.391479,0.016631,0.004749000000000001,-0.01685,-48.18,1.0,-23.5,1b
2019-07-15_171344:600,-0.44027700000000003,0.019806,-0.416901,0.017149,0.0005070000000000001,-0.019505,-48.18,1.0,-23.5,1b
2019-07-15_171344:620,-0.433167,0.015747,-0.41586300000000004,0.017485,-0.000439,-0.02097,-51.5,-0.06,-22.75,1b
2019-07-15_171344:640,-0.44638100000000003,0.008118,-0.447906,0.018736000000000003,-0.002605,-0.022954,-51.5,-0.06,-22.75,1b
2019-07-15_171344:660,-0.423492,0.0055850000000000006,-0.441803,0.018736000000000003,-0.001782,-0.021306,-51.5,-0.06,-22.75,1b
2019-07-15_171344:680,-0.415375,0.0035399999999999997,-0.448425,0.017728999999999998,-0.001324,-0.018254,-48.560001,-0.5,-21.18,1b
2019-07-15_171344:700,-0.381317,-0.006072999999999999,-0.434692,0.016203,0.00011100000000000001,-0.015080000000000001,-48.560001,-0.5,-21.18,1b
2019-07-15_171344:720,-0.352325,-0.012695,-0.406219,0.014494,0.003834,-0.013463,-48.869999,-1.5,-21.18,1b
2019-07-15_171344:740,-0.316742,-0.019318000000000002,-0.376221,0.012816,0.0061530000000000005,-0.013402,-48.869999,-1.5,-21.18,1b
2019-07-15_171344:760,-0.309113,-0.023895,-0.36554000000000003,0.010832,0.005085,-0.014072999999999999,-48.869999,-1.5,-21.18,1b
2019-07-15_171344:780,-0.282654,-0.029480000000000003,-0.34674099999999997,0.009917,0.003437,-0.014469999999999998,-47.869999,-1.87,-21.559998999999998,1b
2019-07-15_171344:800,-0.28927600000000003,-0.035583,-0.347748,0.009123000000000001,-0.0027890000000000002,-0.016454,-47.869999,-1.87,-21.559998999999998,1b
2019-07-15_171344:820,-0.295898,-0.034058,-0.350281,0.009642,-0.004437,-0.018315,-49.25,-2.18,-21.559998999999998,1b
2019-07-15_171344:840,-0.300964,-0.027954000000000003,-0.358429,0.010924,-0.009228,-0.024571,-49.25,-2.18,-21.559998999999998,1b
2019-07-15_171344:860,-0.300476,-0.022858,-0.355896,0.011106999999999999,-0.010357,-0.02628,-49.25,-2.18,-21.559998999999998,1b
2019-07-15_171344:880,-0.29284699999999997,-0.013213999999999998,-0.349792,0.010985,-0.010081999999999999,-0.02628,-47.869999,-2.87,-22.0,1b
2019-07-15_171344:900,-0.285706,-0.0035399999999999997,-0.348267,0.010648999999999999,-0.008892,-0.02567,-47.869999,-2.87,-22.0,1b
2019-07-15_171344:920,-0.28775,0.0,-0.349274,0.010161,-0.009167,-0.025334,-47.869999,-4.37,-21.559998999999998,1b
2019-07-15_171344:940,-0.29284699999999997,0.002014,-0.34674099999999997,0.009306,-0.009807999999999999,-0.022954,-47.869999,-4.37,-21.559998999999998,1b
2019-07-15_171344:960,-0.304535,0.0035399999999999997,-0.34674099999999997,0.008849,-0.009807999999999999,-0.020116,-47.869999,-4.37,-21.559998999999998,1b
2019-07-15_171344:980,-0.319275,0.002014,-0.34674099999999997,0.008513,-0.008953000000000001,-0.019231,-47.869999,-5.18,-21.18,1b
2019-07-15_171345:000,-0.321808,0.004059,-0.34368899999999997,0.007597,-0.006573000000000001,-0.014409,-47.869999,-5.18,-21.18,1b
2019-07-15_171345:020,-0.32843,0.0030210000000000002,-0.344177,0.006987,-0.006359,-0.012395,-47.5,-5.87,-22.25,1b
2019-07-15_171345:040,-0.312164,0.0035399999999999997,-0.33605999999999997,0.005461,-0.004711,-0.009281999999999999,-47.5,-5.87,-22.25,1b
2019-07-15_171345:060,-0.309601,0.001007,-0.333496,0.002562,-0.003582,-0.006352,-47.5,-5.87,-22.25,1b
2019-07-15_171345:080,-0.324371,-0.004059,-0.338593,0.001402,-0.003399,-0.006047,-47.5,-7.0,-21.18,1b
2019-07-15_171345:100,-0.32843,-0.004059,-0.33758499999999997,-0.000642,-0.002117,-0.004125,-47.5,-7.0,-21.18,1b
2019-07-15_171345:120,-0.33758499999999997,-0.009125,-0.344177,-0.001222,-0.001782,-0.00324,-47.5,-7.0,-21.18,1b
2019-07-15_171345:140,-0.334534,-0.009125,-0.338593,-0.0029620000000000002,0.000446,-0.000646,-47.060001,-6.5,-22.75,1b
2019-07-15_171345:160,-0.34674099999999997,-0.009644,-0.338074,-0.003786,0.001484,0.000331,-47.060001,-6.5,-22.75,1b
2019-07-15_171345:180,-0.355896,-0.009125,-0.336548,-0.005006,0.002949,0.001399,-46.060001,-6.5,-21.559998999999998,1b
2019-07-15_171345:200,-0.373688,-0.007599,-0.336548,-0.006319,0.004932,0.0010630000000000001,-46.060001,-6.5,-21.559998999999998,1b
2019-07-15_171345:220,-0.36349499999999996,-0.0030210000000000002,-0.335022,-0.007631000000000001,0.006611,0.000484,-46.060001,-6.5,-21.559998999999998,1b
2019-07-15_171345:240,-0.35638400000000003,-0.002014,-0.332489,-0.009248000000000001,0.006214,0.001857,-47.5,-6.87,-21.559998999999998,1b
2019-07-15_171345:260,-0.347748,0.0,-0.3396,-0.010957,0.004229999999999999,0.0031079999999999997,-47.5,-6.87,-21.559998999999998,1b
2019-07-15_171345:280,-0.35791,0.0030210000000000002,-0.347229,-0.012971000000000002,0.0006900000000000001,0.0036270000000000004,-47.060001,-7.56,-20.370001000000002,1b
2019-07-15_171345:300,-0.416382,0.010162000000000001,-0.36911,-0.015016,-0.0027890000000000002,0.004542,-47.060001,-7.56,-20.370001000000002,1b
2019-07-15_171345:320,-0.448425,0.012177,-0.405212,-0.017152,-0.006786,0.005763,-47.060001,-7.56,-20.370001000000002,1b
2019-07-15_171345:340,-0.458588,0.021851,-0.40570100000000003,-0.018983,-0.003307,0.0076549999999999995,-46.369999,-6.87,-20.0,1b
2019-07-15_171345:360,-0.486023,0.029968,-0.471283,-0.018343,-0.001782,0.008081999999999999,-46.369999,-6.87,-20.0,1b
2019-07-15_171345:380,-0.461639,0.037598,-0.486023,-0.019075,-0.004497999999999999,0.006953,-46.68,-8.25,-21.18,1b
2019-07-15_171345:400,-0.399109,0.043701,-0.45605500000000004,-0.019136,-0.0023309999999999997,0.008204000000000001,-46.68,-8.25,-21.18,1b
2019-07-15_171345:420,-0.35943600000000003,0.042694,-0.44433599999999995,-0.016756,0.003101,0.007289,-46.68,-8.25,-21.18,1b
2019-07-15_171345:440,-0.293335,0.047272,-0.402649,-0.013550999999999999,0.010731000000000001,0.000606,-47.869999,-7.56,-20.370001000000002,1b
2019-07-15_171345:460,-0.288269,0.05285599999999999,-0.390442,-0.008912999999999999,0.014851,-0.007115000000000001,-47.869999,-7.56,-20.370001000000002,1b
2019-07-15_171345:480,-0.257751,0.066071,-0.386902,-0.005312,0.012379000000000001,-0.009953,-46.68,-7.56,-19.18,1b
2019-07-15_171345:500,-0.259277,0.066071,-0.376221,-0.001375,0.00655,-0.0076950000000000005,-46.68,-7.56,-19.18,1b
2019-07-15_171345:520,-0.28112800000000004,0.06405599999999999,-0.381317,0.002074,0.000172,-0.008245,-46.68,-7.56,-19.18,1b
2019-07-15_171345:540,-0.304016,0.068115,-0.37112399999999995,0.006194,-0.001995,-0.01154,-47.060001,-7.87,-18.370001000000002,1b
2019-07-15_171345:560,-0.322327,0.066589,-0.37316900000000003,0.00952,-0.002392,-0.012273000000000001,-47.060001,-7.87,-18.370001000000002,1b
2019-07-15_171345:580,-0.318268,0.065582,-0.36654699999999996,0.012358,-0.001843,-0.010564,-47.060001,-8.25,-19.559998999999998,1b
2019-07-15_171345:600,-0.314697,0.063019,-0.355377,0.014098,-0.0007740000000000001,-0.008702,-47.060001,-8.25,-19.559998999999998,1b
2019-07-15_171345:620,-0.31012,0.059479,-0.34063699999999997,0.015227000000000001,0.0011480000000000001,-0.006719,-47.060001,-8.25,-19.559998999999998,1b
2019-07-15_171345:640,-0.305054,0.05285599999999999,-0.322845,0.016142,0.002705,-0.005956,-46.060001,-8.68,-20.75,1b
2019-07-15_171345:660,-0.30654899999999996,0.049805,-0.313171,0.016753,0.002888,-0.006719,-46.060001,-8.68,-20.75,1b
2019-07-15_171345:680,-0.306061,0.046752999999999996,-0.304016,0.017149,0.001972,-0.007634,-45.68,-8.37,-20.0,1b
2019-07-15_171345:700,-0.307068,0.044739,-0.29895,0.017424000000000002,-0.0005610000000000001,-0.007634,-45.68,-8.37,-20.0,1b
2019-07-15_171345:720,-0.311646,0.042175,-0.300964,0.017485,-0.00346,-0.006963,-45.68,-8.37,-20.0,1b
2019-07-15_171345:740,-0.323853,0.039642000000000004,-0.303528,0.017363,-0.006634,-0.007024,-46.060001,-8.37,-20.0,1b
2019-07-15_171345:760,-0.335022,0.035583,-0.309113,0.017363,-0.008892,-0.007909000000000001,-46.060001,-8.37,-20.0,1b
2019-07-15_171345:780,-0.33605999999999997,0.032013,-0.31369,0.017271,-0.010296,-0.009281999999999999,-45.68,-8.37,-20.370001000000002,1b
2019-07-15_171345:800,-0.33605999999999997,0.032013,-0.312164,0.018065,-0.009502,-0.010747,-45.68,-8.37,-20.370001000000002,1b
2019-07-15_171345:820,-0.33758499999999997,0.03302,-0.320282,0.018491999999999998,-0.007824,-0.012731000000000001,-45.68,-8.37,-20.370001000000002,1b
2019-07-15_171345:840,-0.350281,0.034546,-0.327911,0.019011,-0.004772,-0.013859999999999999,-44.560001,-8.37,-21.559998999999998,1b
2019-07-15_171345:860,-0.353333,0.035065,-0.34570300000000004,0.019743,-0.003002,-0.015203,-44.560001,-8.37,-21.559998999999998,1b
2019-07-15_171345:880,-0.352325,0.035065,-0.34674099999999997,0.020934,-0.001263,-0.018315,-45.25,-9.18,-21.559998999999998,1b
2019-07-15_171345:900,-0.35131799999999996,0.036591000000000005,-0.3508,0.022643,0.001972,-0.021764,-45.25,-9.18,-21.559998999999998,1b
2019-07-15_171345:920,-0.349792,0.040161,-0.365021,0.024046,0.003498,-0.023351,-45.25,-9.18,-21.559998999999998,1b
2019-07-15_171345:940,-0.364014,0.039124,-0.371643,0.025115000000000002,0.0032229999999999997,-0.023686000000000002,-44.560001,-9.18,-22.0,1b
2019-07-15_171345:960,-0.35739099999999996,0.041168,-0.381317,0.025969,0.003834,-0.024236,-44.560001,-9.18,-22.0,1b
2019-07-15_171345:980,-0.355896,0.038635,-0.388428,0.026366000000000004,0.004475,-0.024419,-45.25,-9.87,-22.75,1b
2019-07-15_171346:000,-0.368073,0.036072,-0.399109,0.026701,0.005665,-0.024571,-45.25,-9.87,-22.75,1b
2019-07-15_171346:020,-0.39859,0.032013,-0.420959,0.026427,0.004475,-0.026219,-45.25,-9.87,-22.75,1b
2019-07-15_171346:040,-0.455017,0.021851,-0.44027700000000003,0.026427,0.002827,-0.029943,-39.75,-10.18,-22.0,1b
2019-07-15_171346:060,-0.437225,0.024902,-0.42807,0.027708,0.005543,-0.034856,-39.75,-10.18,-22.0,1b
2019-07-15_171346:080,-0.432648,0.021332,-0.452484,0.028380000000000002,0.008198,-0.037114,-44.560001,-11.06,-22.0,1b
2019-07-15_171346:100,-0.378265,0.01828,-0.44232200000000005,0.028899,0.009266,-0.037114,-44.560001,-11.06,-22.0,1b
2019-07-15_171346:120,-0.36654699999999996,0.015747,-0.443329,0.028776999999999997,0.007862000000000001,-0.037114,-44.560001,-11.06,-22.0,1b
2019-07-15_171346:140,-0.323334,0.009644,-0.417389,0.027098,0.0054210000000000005,-0.035192,-43.75,-11.75,-22.25,1b
2019-07-15_171346:160,-0.31723,0.0055850000000000006,-0.394531,0.025633,0.0060609999999999995,-0.030461000000000002,-43.75,-11.75,-22.25,1b
2019-07-15_171346:180,-0.32843,-0.011169,-0.385376,0.024168000000000002,0.0061530000000000005,-0.026402,-43.5,-12.56,-22.75,1b
2019-07-15_171346:200,-0.310638,-0.016753999999999998,-0.364014,0.023467,0.004566,-0.025945,-43.5,-12.56,-22.75,1b
2019-07-15_171346:220,-0.300964,-0.01828,-0.361481,0.022856,0.0020329999999999997,-0.025547999999999998,-43.5,-12.56,-22.75,1b
2019-07-15_171346:240,-0.28064,-0.019806,-0.35791,0.022734,-0.0005,-0.025151,-43.5,-12.87,-22.75,1b
2019-07-15_171346:260,-0.276581,-0.01828,-0.363007,0.022459,-0.003918,-0.027410000000000004,-43.5,-12.87,-22.75,1b
2019-07-15_171346:280,-0.272491,-0.011687999999999999,-0.361969,0.022337,-0.009167,-0.030644,-35.060001,-14.37,-22.25,1b
2019-07-15_171346:300,-0.27301,-0.004547,-0.356903,0.022185,-0.011271999999999999,-0.032383999999999996,-35.060001,-14.37,-22.25,1b
2019-07-15_171346:320,-0.27301,0.001495,-0.350281,0.02191,-0.010631999999999999,-0.03272,-35.060001,-14.37,-22.25,1b
2019-07-15_171346:340,-0.26944,0.006072999999999999,-0.3508,0.021727,-0.009075,-0.032323000000000005,-42.0,-14.56,-22.25,1b
2019-07-15_171346:360,-0.277588,0.008636,-0.353851,0.021269,-0.008892,-0.031468,-42.0,-14.56,-22.25,1b
2019-07-15_171346:380,-0.29538000000000003,0.010651,-0.353333,0.020659,-0.00996,-0.029729000000000002,-40.18,-15.18,-24.0,1b
2019-07-15_171346:400,-0.304535,0.011687999999999999,-0.35131799999999996,0.019804,-0.00996,-0.026006,-40.18,-15.18,-24.0,1b
2019-07-15_171346:420,-0.31369,0.010162000000000001,-0.34875500000000004,0.018553,-0.009289,-0.021519999999999997,-40.18,-15.18,-24.0,1b
2019-07-15_171346:440,-0.320282,0.008636,-0.347748,0.016356,-0.008495,-0.0174,-40.869999,-16.75,-24.0,1b
2019-07-15_171346:460,-0.320801,0.0035399999999999997,-0.342163,0.013701,-0.007916,-0.014256,-40.869999,-16.75,-24.0,1b
2019-07-15_171346:480,-0.312164,-0.000488,-0.342163,0.011504,-0.00404,-0.01209,-39.75,-16.25,-25.18,1b
2019-07-15_171346:500,-0.305542,0.0,-0.336548,0.009123000000000001,-0.0006219999999999999,-0.011082999999999999,-39.75,-16.25,-25.18,1b
2019-07-15_171346:520,-0.296906,0.001495,-0.34570300000000004,0.00659,-0.0007440000000000001,-0.011601,-39.75,-16.25,-25.18,1b
2019-07-15_171346:540,-0.31723,0.0025329999999999997,-0.348267,0.004485,-0.001385,-0.011082999999999999,-40.5,-15.87,-26.25,1b
2019-07-15_171346:560,-0.341125,0.002014,-0.352325,0.002226,-0.0011099999999999999,-0.009343,-40.5,-15.87,-26.25,1b
2019-07-15_171346:580,-0.350281,0.0025329999999999997,-0.35739099999999996,0.00067,0.002827,-0.006963,-39.68,-16.25,-26.25,1b
2019-07-15_171346:600,-0.353333,0.0025329999999999997,-0.359955,-0.001314,0.006947,-0.0048270000000000006,-39.68,-16.25,-26.25,1b
2019-07-15_171346:620,-0.342163,0.0030210000000000002,-0.36349499999999996,-0.002687,0.008808,-0.00324,-39.68,-16.25,-26.25,1b
2019-07-15_171346:640,-0.3508,0.0030210000000000002,-0.370636,-0.004243,0.00835,-0.002568,-40.060001,-16.68,-25.870001000000002,1b
2019-07-15_171346:660,-0.352325,0.0055850000000000006,-0.381805,-0.00525,0.006275,-0.00147,-40.060001,-16.68,-25.870001000000002,1b
2019-07-15_171346:680,-0.352844,0.009644,-0.387909,-0.005372999999999999,0.006732999999999999,-0.001927,-40.060001,-15.56,-25.5,1b
2019-07-15_171346:700,-0.40011599999999997,0.023895,-0.410797,-0.00525,0.007404000000000001,-0.002263,-40.060001,-15.56,-25.5,1b
2019-07-15_171346:720,-0.42807,0.023375999999999997,-0.440796,-0.005861,0.0036200000000000004,-0.000585,-40.060001,-15.56,-25.5,1b
2019-07-15_171346:740,-0.427063,0.03302,-0.41842700000000005,-0.006593000000000001,0.004353,0.0010019999999999999,-40.5,-15.87,-24.68,1b
2019-07-15_171346:760,-0.45196499999999995,0.035583,-0.46060200000000007,-0.006135,0.008472,0.001674,-40.5,-15.87,-24.68,1b
2019-07-15_171346:780,-0.416901,0.040649,-0.444855,-0.005586,0.010242,0.001338,-40.0,-17.059998999999998,-25.18,1b
2019-07-15_171346:800,-0.35739099999999996,0.047272,-0.39859,-0.004457,0.015491,0.00265,-40.0,-17.059998999999998,-25.18,1b
2019-07-15_171346:820,-0.301483,0.051849,-0.378265,-0.002687,0.020222,0.002833,-40.0,-17.059998999999998,-25.18,1b
2019-07-15_171346:840,-0.268433,0.055908000000000006,-0.378754,-0.000917,0.015034,-0.001073,-40.68,-15.87,-23.5,1b
2019-07-15_171346:860,-0.288269,0.057953,-0.37316900000000003,0.001097,0.007862000000000001,-0.00504,-40.68,-15.87,-23.5,1b
2019-07-15_171346:880,-0.311646,0.056915,-0.384338,0.0040880000000000005,0.001575,-0.007573000000000001,-41.369999,-16.25,-23.5,1b
2019-07-15_171346:900,-0.31012,0.05438200000000001,-0.384857,0.008391,-0.00285,-0.012486,-41.369999,-16.25,-23.5,1b
2019-07-15_171346:920,-0.31369,0.060486,-0.392487,0.012358,-0.005901,-0.014988999999999999,-41.369999,-16.25,-23.5,1b
2019-07-15_171346:940,-0.326904,0.059479,-0.40368699999999996,0.016295,-0.008434,-0.011998,-40.68,-16.68,-23.18,1b
2019-07-15_171346:960,-0.322845,0.056427,-0.40316799999999997,0.018736000000000003,-0.010479,-0.006566,-40.68,-16.68,-23.18,1b
2019-07-15_171346:980,-0.329437,0.05285599999999999,-0.388916,0.020812,-0.008282,-0.002049,-40.369999,-16.68,-23.18,1b
2019-07-15_171347:000,-0.32995599999999997,0.048798,-0.377228,0.020995,-0.002911,0.00146,-40.369999,-16.68,-23.18,1b
2019-07-15_171347:020,-0.320282,0.040649,-0.353333,0.02072,0.0031620000000000003,0.002711,-40.369999,-16.68,-23.18,1b
2019-07-15_171347:040,-0.311127,0.034058,-0.338593,0.019469,0.007923000000000001,0.0010019999999999999,-40.0,-15.18,-22.370001000000002,1b
2019-07-15_171347:060,-0.304535,0.027435,-0.316223,0.018462,0.009937,-0.002568,-40.0,-15.18,-22.370001000000002,1b
2019-07-15_171347:080,-0.296387,0.021851,-0.300964,0.01721,0.009052,-0.005712,-47.25,-15.5,-23.559998999999998,1b
2019-07-15_171347:100,-0.29232800000000003,0.01828,-0.29180900000000004,0.016631,0.0060609999999999995,-0.008763,-47.25,-15.5,-23.559998999999998,1b
2019-07-15_171347:120,-0.29995700000000003,0.015747,-0.293854,0.016631,0.00124,-0.01154,-47.25,-15.5,-23.559998999999998,1b
2019-07-15_171347:140,-0.314697,0.014740000000000001,-0.300476,0.016753,-0.004101,-0.012883000000000002,-40.369999,-15.5,-23.25,1b
2019-07-15_171347:160,-0.33300799999999997,0.017273,-0.307587,0.017485,-0.007427,-0.012792,-40.369999,-15.5,-23.25,1b
2019-07-15_171347:180,-0.338593,0.01828,-0.311646,0.018065,-0.008709,-0.012546999999999999,-41.0,-15.06,-23.559998999999998,1b
2019-07-15_171347:200,-0.338074,0.019318000000000002,-0.313171,0.018401,-0.006756,-0.013066,-41.0,-15.06,-23.559998999999998,1b
2019-07-15_171347:220,-0.334015,0.024384,-0.32132,0.018797,-0.004376,-0.014256,-41.0,-15.06,-23.559998999999998,1b
2019-07-15_171347:240,-0.339111,0.026427999999999997,-0.330475,0.01895,-0.004376,-0.01566,-40.369999,-15.5,-24.370001000000002,1b
2019-07-15_171347:260,-0.341125,0.027954000000000003,-0.341125,0.019011,-0.003704,-0.018132,-40.369999,-15.5,-24.370001000000002,1b
2019-07-15_171347:280,-0.35791,0.026427999999999997,-0.34875500000000004,0.019194,-0.0027890000000000002,-0.019566999999999998,-39.560001,-15.5,-25.25,1b
2019-07-15_171347:300,-0.379272,0.020325,-0.363007,0.019743,-0.000103,-0.019383,-39.560001,-15.5,-25.25,1b
2019-07-15_171347:320,-0.386902,0.017792,-0.371643,0.021391,0.001759,-0.020177,-39.560001,-15.5,-25.25,1b
2019-07-15_171347:340,-0.37011700000000003,0.018799,-0.374176,0.022521,0.003406,-0.021092,-39.18,-15.75,-24.370001000000002,1b
2019-07-15_171347:360,-0.36349499999999996,0.021332,-0.38028,0.023589,0.003437,-0.020696,-39.18,-15.75,-24.370001000000002,1b
2019-07-15_171347:380,-0.369598,0.019318000000000002,-0.386902,0.023863,0.0030399999999999997,-0.020452,-38.5,-15.75,-24.370001000000002,1b
2019-07-15_171347:400,-0.404694,0.016266,-0.405212,0.02365,0.002369,-0.021641999999999998,-38.5,-15.75,-24.370001000000002,1b
2019-07-15_171347:420,-0.431122,0.010162000000000001,-0.425537,0.023131,1.9e-05,-0.024755000000000003,-38.5,-15.75,-24.370001000000002,1b
2019-07-15_171347:440,-0.432648,0.0025329999999999997,-0.42401099999999997,0.023711000000000003,0.001697,-0.029393,-37.75,-16.559998999999998,-24.75,1b
2019-07-15_171347:460,-0.425537,-0.0030210000000000002,-0.44027700000000003,0.025389,0.0032840000000000005,-0.031987,-37.75,-16.559998999999998,-24.75,1b
2019-07-15_171347:480,-0.416382,-0.011169,-0.449432,0.026639999999999997,0.0027660000000000002,-0.033055,-37.0,-16.18,-26.370001000000002,1b
2019-07-15_171347:500,-0.381317,-0.014221000000000001,-0.42147799999999996,0.028105,0.004414,-0.033666,-37.0,-16.18,-26.370001000000002,1b
2019-07-15_171347:520,-0.35791,-0.020844,-0.41485600000000006,0.028502,0.005695,-0.033635000000000005,-37.0,-16.18,-26.370001000000002,1b
2019-07-15_171347:540,-0.290802,-0.021332,-0.382812,0.027953,0.006947,-0.031774000000000004,-36.68,-16.18,-25.559998999999998,1b
2019-07-15_171347:560,-0.291321,-0.022858,-0.370636,0.027433999999999997,0.006275,-0.029332,-36.68,-16.18,-25.559998999999998,1b
2019-07-15_171347:580,-0.30654899999999996,-0.032013,-0.369598,0.026976,0.003437,-0.030248,-36.68,-16.559998999999998,-26.059998999999998,1b
2019-07-15_171347:600,-0.307068,-0.033539,-0.359955,0.026518,-0.00037799999999999997,-0.031713,-36.68,-16.559998999999998,-26.059998999999998,1b
2019-07-15_171347:620,-0.31012,-0.031494,-0.358917,0.026244,-0.0023309999999999997,-0.031011,-36.68,-16.559998999999998,-26.059998999999998,1b
2019-07-15_171347:640,-0.294373,-0.028442000000000002,-0.358917,0.026182999999999998,-0.003246,-0.03159,-36.0,-18.0,-24.870001000000002,1b
2019-07-15_171347:660,-0.295898,-0.023895,-0.364014,0.025786,-0.005779,-0.035649,-36.0,-18.0,-24.870001000000002,1b
2019-07-15_171347:680,-0.282654,-0.017273,-0.361481,0.024657,-0.00935,-0.038213,-35.560001,-18.370001000000002,-26.059998999999998,1b
2019-07-15_171347:700,-0.28112800000000004,-0.013702,-0.352844,0.023863,-0.009899,-0.038610000000000005,-35.560001,-18.370001000000002,-26.059998999999998,1b
2019-07-15_171347:720,-0.284698,-0.011687999999999999,-0.350281,0.023375,-0.009167,-0.038243,-35.560001,-18.370001000000002,-26.059998999999998,1b
2019-07-15_171347:740,-0.288269,-0.010162000000000001,-0.348267,0.023253,-0.008282,-0.037297000000000004,-34.869999,-18.75,-26.5,1b
2019-07-15_171347:760,-0.297913,-0.006592,-0.346222,0.023191999999999997,-0.007244,-0.036229000000000004,-34.869999,-18.75,-26.5,1b
2019-07-15_171347:780,-0.301483,-0.001495,-0.342163,0.023253,-0.005901,-0.03391,-33.0,-19.5,-28.870001000000002,1b
2019-07-15_171347:800,-0.305542,0.001495,-0.337067,0.022856,-0.005047,-0.030248,-33.0,-19.5,-28.870001000000002,1b
2019-07-15_171347:820,-0.309601,0.0055850000000000006,-0.33300799999999997,0.021605000000000003,-0.004497999999999999,-0.025212000000000002,-33.0,-19.5,-28.870001000000002,1b
2019-07-15_171347:840,-0.314178,0.007111,-0.329437,0.019133,-0.004833,-0.020391,-32.25,-19.870001000000002,-29.68,1b
2019-07-15_171347:860,-0.314697,0.0025329999999999997,-0.32132,0.015501,-0.005229999999999999,-0.01621,-32.25,-19.870001000000002,-29.68,1b
2019-07-15_171347:880,-0.315216,0.0,-0.315704,0.011290000000000001,-0.003979,-0.013127000000000002,-31.18,-20.68,-28.5,1b
2019-07-15_171347:900,-0.307587,-0.0035399999999999997,-0.320801,0.0075060000000000005,-0.002667,-0.01154,-31.18,-20.68,-28.5,1b
2019-07-15_171347:920,-0.29995700000000003,-0.008636,-0.338074,0.00421,-0.002392,-0.010686,-31.18,-20.68,-28.5,1b
2019-07-15_171347:940,-0.312164,-0.007599,-0.344177,0.001006,-0.003399,-0.009557,-30.870001000000002,-20.0,-26.870001000000002,1b
2019-07-15_171347:960,-0.349274,-0.008636,-0.358429,-0.0018329999999999998,-0.00346,-0.006841,-30.870001000000002,-20.0,-26.870001000000002,1b
2019-07-15_171347:980,-0.372162,-0.009125,-0.366058,-0.004274,0.000446,-0.003331,-30.5,-19.870001000000002,-28.870001000000002,1b
2019-07-15_171348:000,-0.382324,-0.009644,-0.375214,-0.006441,0.006855,-0.000737,-30.5,-19.870001000000002,-28.870001000000002,1b
2019-07-15_171348:020,-0.35943600000000003,-0.004059,-0.385864,-0.007967,0.010273000000000001,0.000941,-30.5,-19.870001000000002,-28.870001000000002,1b
2019-07-15_171348:040,-0.366058,-0.000488,-0.401642,-0.009187,0.009205,0.001857,-30.059998999999998,-20.18,-29.68,1b
2019-07-15_171348:060,-0.376221,0.014740000000000001,-0.421967,-0.009156999999999998,0.009327,0.000941,-30.059998999999998,-20.18,-29.68,1b
2019-07-15_171348:080,-0.395538,0.019318000000000002,-0.430634,-0.008759999999999999,0.01067,0.000606,-29.370001000000002,-21.059998999999998,-28.059998999999998,1b
2019-07-15_171348:100,-0.447388,0.027954000000000003,-0.45605500000000004,-0.008454999999999999,0.01012,0.002315,-29.370001000000002,-21.059998999999998,-28.059998999999998,1b
2019-07-15_171348:120,-0.437225,0.036591000000000005,-0.43823199999999995,-0.009156999999999998,0.01656,0.006465,-29.370001000000002,-21.059998999999998,-28.059998999999998,1b
2019-07-15_171348:140,-0.449432,0.037108999999999996,-0.46569799999999995,-0.008119,0.017841,0.011073000000000001,-30.5,-21.370001000000002,-26.870001000000002,1b
2019-07-15_171348:160,-0.41232299999999994,0.040161,-0.45907600000000004,-0.008577,0.017016999999999997,0.009913,-30.5,-21.370001000000002,-26.870001000000002,1b
2019-07-15_171348:180,-0.384338,0.043701,-0.438751,-0.00757,0.016375999999999998,0.009395,-31.18,-20.68,-28.059998999999998,1b
2019-07-15_171348:200,-0.359955,0.044739,-0.402649,-0.006258,0.022877,0.008815,-31.18,-20.68,-28.059998999999998,1b
2019-07-15_171348:220,-0.36349499999999996,0.044739,-0.38385,-0.004396,0.026722000000000003,0.006404000000000001,-31.18,-20.68,-28.059998999999998,1b
2019-07-15_171348:240,-0.339111,0.047791,-0.38739,-0.0028399999999999996,0.024525,0.0031079999999999997,-31.18,-21.370001000000002,-26.5,1b
2019-07-15_171348:260,-0.304535,0.050842,-0.355896,-0.001161,0.017353,0.000789,-31.18,-21.370001000000002,-26.5,1b
2019-07-15_171348:280,-0.282166,0.046265,-0.358429,0.001036,0.008472,-0.002995,-31.5,-20.25,-26.5,1b
2019-07-15_171348:300,-0.28875700000000004,0.046265,-0.35638400000000003,0.003203,5e-05,-0.005254,-31.5,-20.25,-26.5,1b
2019-07-15_171348:320,-0.314697,0.045745999999999995,-0.355896,0.004942,-0.00584,-0.0036969999999999998,-31.5,-20.25,-26.5,1b
2019-07-15_171348:340,-0.325897,0.041168,-0.34875500000000004,0.005614,-0.007183,-0.0025989999999999997,-31.5,-20.68,-25.68,1b
2019-07-15_171348:360,-0.340118,0.035583,-0.33300799999999997,0.006651000000000001,-0.004192,-0.0016530000000000002,-31.5,-20.68,-25.68,1b
2019-07-15_171348:380,-0.335541,0.031494,-0.32486,0.007384,-0.001873,-0.0016530000000000002,-32.68,-20.25,-24.870001000000002,1b
2019-07-15_171348:400,-0.325378,0.027435,-0.30654899999999996,0.009001,0.003834,-0.003575,-32.68,-20.25,-24.870001000000002,1b
2019-07-15_171348:420,-0.314697,0.024384,-0.296387,0.010375,0.004871,-0.006108,-32.68,-20.25,-24.870001000000002,1b
2019-07-15_171348:440,-0.311127,0.021851,-0.290283,0.010985,0.004229999999999999,-0.0075120000000000004,-31.870001000000002,-20.25,-27.68,1b
2019-07-15_171348:460,-0.309601,0.022369,-0.282654,0.012907,0.000172,-0.010472,-31.870001000000002,-20.25,-27.68,1b
2019-07-15_171348:480,-0.312653,0.022369,-0.282654,0.013762,-0.001446,-0.0109,-31.5,-19.559998999999998,-27.68,1b
2019-07-15_171348:500,-0.326904,0.022858,-0.28674299999999997,0.015959,-0.00877,-0.013677000000000002,-31.5,-19.559998999999998,-27.68,1b
2019-07-15_171348:520,-0.34063699999999997,0.023895,-0.291321,0.017363,-0.011822,-0.016057,-31.5,-19.559998999999998,-27.68,1b
2019-07-15_171348:540,-0.347229,0.026917,-0.297913,0.018156,-0.012493,-0.016973,-31.18,-20.68,-28.059998999999998,1b
2019-07-15_171348:560,-0.339111,0.028961,-0.305542,0.021056000000000002,-0.00935,-0.019505,-31.18,-20.68,-28.059998999999998,1b
2019-07-15_171348:580,-0.332489,0.035583,-0.309601,0.022002,-0.007183,-0.020756999999999998,-29.68,-20.25,-26.75,1b
2019-07-15_171348:600,-0.330475,0.040161,-0.335022,0.024596,-0.003124,-0.024021999999999998,-29.68,-20.25,-26.75,1b
2019-07-15_171348:620,-0.34368899999999997,0.043213,-0.3396,0.026122000000000003,-0.00037799999999999997,-0.02567,-29.68,-20.25,-26.75,1b
2019-07-15_171348:640,-0.354858,0.042694,-0.347748,0.026976,0.0006900000000000001,-0.026219,-29.370001000000002,-19.559998999999998,-28.0,1b
2019-07-15_171348:660,-0.364014,0.043213,-0.34674099999999997,0.029479,0.00655,-0.027074,-29.370001000000002,-19.559998999999998,-28.0,1b
2019-07-15_171348:680,-0.35436999999999996,0.043213,-0.355896,0.030608,0.007801000000000001,-0.027623,-27.870001000000002,-19.559998999999998,-28.870001000000002,1b
2019-07-15_171348:700,-0.365021,0.042694,-0.370636,0.032164,0.008594,-0.030338999999999998,-27.870001000000002,-19.559998999999998,-28.870001000000002,1b
2019-07-15_171348:720,-0.363007,0.045745999999999995,-0.376221,0.032469,0.009327,-0.029332,-27.870001000000002,-19.559998999999998,-28.870001000000002,1b
2019-07-15_171348:740,-0.392487,0.041168,-0.389954,0.03195,0.009144,-0.028142,-27.75,-20.68,-30.5,1b
2019-07-15_171348:760,-0.44433599999999995,0.037108999999999996,-0.40774499999999997,0.031675999999999996,0.006672,-0.027471,-27.75,-20.68,-30.5,1b
2019-07-15_171348:780,-0.45907600000000004,0.026917,-0.41995200000000005,0.031218,0.001972,-0.029119,-27.75,-20.68,-30.5,1b
2019-07-15_171348:800,-0.47689799999999993,0.020325,-0.417908,0.031401,0.002888,-0.031651,-28.25,-19.68,-30.0,1b
2019-07-15_171348:820,-0.431122,0.008636,-0.432648,0.031889,0.001972,-0.032445,-28.25,-19.68,-30.0,1b
2019-07-15_171348:840,-0.404175,-0.0025329999999999997,-0.426544,0.031737,0.0010869999999999999,-0.032445,-26.25,-19.68,-29.559998999999998,1b
2019-07-15_171348:860,-0.377747,-0.011169,-0.41384899999999997,0.030638,-0.003002,-0.029271,-26.25,-19.68,-29.559998999999998,1b
2019-07-15_171348:880,-0.337067,-0.019806,-0.38385,0.029233999999999996,-0.003368,-0.027989,-26.25,-19.68,-29.559998999999998,1b
2019-07-15_171348:900,-0.329437,-0.022369,-0.365021,0.027219999999999998,-0.001446,-0.025487,-27.059998999999998,-19.68,-30.370001000000002,1b
2019-07-15_171348:920,-0.312164,-0.030487,-0.353851,0.026914999999999998,-0.001598,-0.025762,-27.059998999999998,-19.68,-30.370001000000002,1b
2019-07-15_171348:940,-0.296906,-0.031006,-0.349792,0.025693999999999998,-0.003979,-0.028081000000000002,-26.68,-19.0,-30.870001000000002,1b
2019-07-15_171348:960,-0.307587,-0.033539,-0.352844,0.024596,-0.007977,-0.029149,-26.68,-19.0,-30.870001000000002,1b
2019-07-15_171348:980,-0.308075,-0.036591000000000005,-0.36248800000000003,0.023863,-0.009838,-0.030187000000000002,-26.68,-19.0,-30.870001000000002,1b
2019-07-15_171349:000,-0.297913,-0.037108999999999996,-0.366058,0.023436000000000002,-0.01228,-0.034062,-25.25,-19.25,-30.870001000000002,1b
2019-07-15_171349:020,-0.28927600000000003,-0.027435,-0.356903,0.023711000000000003,-0.013988999999999998,-0.038976,-25.25,-19.25,-30.870001000000002,1b
2019-07-15_171349:040,-0.282166,-0.022369,-0.356903,0.024962,-0.013347999999999999,-0.042026999999999995,-25.25,-19.68,-31.25,1b
2019-07-15_171349:060,-0.274536,-0.014740000000000001,-0.354858,0.025053,-0.013226,-0.042211,-25.25,-19.68,-31.25,1b
2019-07-15_171349:080,-0.272003,-0.006072999999999999,-0.356903,0.025572,-0.013531,-0.039891,-25.25,-19.68,-31.25,1b
2019-07-15_171349:100,-0.29742399999999997,0.001007,-0.364014,0.024779,-0.014750999999999998,-0.035954,-23.75,-20.0,-32.0,1b
2019-07-15_171349:120,-0.320801,0.004059,-0.35791,0.023313999999999998,-0.013591999999999998,-0.032262,-23.75,-20.0,-32.0,1b
2019-07-15_171349:140,-0.322845,0.006592,-0.353851,0.021208,-0.01054,-0.028356,-21.18,-19.18,-32.869999,1b
2019-07-15_171349:160,-0.318756,0.010651,-0.348267,0.018004,-0.007763,-0.024480000000000002,-21.18,-19.18,-32.869999,1b
2019-07-15_171349:180,-0.31723,0.008636,-0.348267,0.014037,-0.006847,-0.020848,-21.18,-19.18,-32.869999,1b
2019-07-15_171349:200,-0.305542,0.006072999999999999,-0.33758499999999997,0.009703,-0.006451,-0.018102,-20.870001000000002,-19.18,-33.68,1b
2019-07-15_171349:220,-0.305054,0.0,-0.33300799999999997,0.00598,-0.005047,-0.01566,-20.870001000000002,-19.18,-33.68,1b
2019-07-15_171349:240,-0.303528,-0.005065999999999999,-0.34063699999999997,0.002745,-0.004376,-0.014318,-20.5,-18.5,-34.369999,1b
2019-07-15_171349:260,-0.309113,-0.010651,-0.34265100000000004,0.000487,-0.004711,-0.013524000000000001,-20.5,-18.5,-34.369999,1b
2019-07-15_171349:280,-0.312653,-0.013213999999999998,-0.345215,-0.000642,-0.003368,-0.011876000000000001,-20.5,-18.5,-34.369999,1b
2019-07-15_171349:300,-0.328949,-0.012695,-0.35131799999999996,-0.001955,-0.0011099999999999999,-0.009953,-20.5,-19.559998999999998,-34.869999,1b
2019-07-15_171349:320,-0.329437,-0.009644,-0.35791,-0.003023,0.00301,-0.007237,-20.5,-19.559998999999998,-34.869999,1b
2019-07-15_171349:340,-0.326385,-0.006072999999999999,-0.375702,-0.0038469999999999997,0.005024,-0.006169,-21.18,-18.5,-34.869999,1b
2019-07-15_171349:360,-0.33605999999999997,-0.0025329999999999997,-0.384338,-0.005769,0.003956,-0.005376,-21.18,-18.5,-34.869999,1b
2019-07-15_171349:380,-0.361481,0.0055850000000000006,-0.402161,-0.007631000000000001,0.0035590000000000005,-0.003575,-21.18,-18.5,-34.869999,1b
2019-07-15_171349:400,-0.386902,0.021332,-0.42858900000000005,-0.008851999999999999,0.003834,-0.002385,-20.870001000000002,-20.0,-34.369999,1b
2019-07-15_171349:420,-0.42605600000000005,0.028961,-0.45043900000000003,-0.010316,0.002949,-0.0019879999999999997,-20.870001000000002,-20.0,-34.369999,1b
2019-07-15_171349:440,-0.42758199999999996,0.036591000000000005,-0.44433599999999995,-0.0123,0.005665,-5e-06,-19.75,-20.0,-34.0,1b
2019-07-15_171349:460,-0.431641,0.039124,-0.449432,-0.013368000000000001,0.00893,0.0036880000000000003,-19.75,-20.0,-34.0,1b
2019-07-15_171349:480,-0.41586300000000004,0.039124,-0.467743,-0.013887,0.008990999999999999,0.0036270000000000004,-19.75,-20.0,-34.0,1b
2019-07-15_171349:500,-0.41232299999999994,0.038635,-0.46060200000000007,-0.01407,0.008137,0.001857,-20.5,-20.25,-32.869999,1b
2019-07-15_171349:520,-0.373688,0.040161,-0.427063,-0.012544,0.011982,0.001521,-20.5,-20.25,-32.869999,1b
2019-07-15_171349:540,-0.320282,0.046265,-0.396057,-0.009981,0.018359999999999998,0.001338,-20.870001000000002,-20.68,-33.68,1b
2019-07-15_171349:560,-0.317749,0.045226999999999996,-0.391479,-0.006654,0.019733,0.000484,-20.870001000000002,-20.68,-33.68,1b
2019-07-15_171349:580,-0.305542,0.05285599999999999,-0.368591,-0.004396,0.018879,-0.000279,-20.870001000000002,-20.68,-33.68,1b
2019-07-15_171349:600,-0.29943800000000004,0.053375,-0.367584,-0.001955,0.014178999999999999,-0.001592,-21.870001000000002,-20.68,-32.0,1b
2019-07-15_171349:620,-0.294373,0.055389,-0.35943600000000003,0.001341,0.009448999999999999,-0.007817000000000001,-21.870001000000002,-20.68,-32.0,1b
2019-07-15_171349:640,-0.282166,0.058441,-0.365021,0.005064,0.004566,-0.016789,-22.25,-21.059998999999998,-30.5,1b
2019-07-15_171349:660,-0.272491,0.06253099999999999,-0.364532,0.009306,0.00011100000000000001,-0.023563999999999998,-22.25,-21.059998999999998,-30.5,1b
2019-07-15_171349:680,-0.279114,0.058960000000000005,-0.377228,0.013578999999999999,-0.004925,-0.027471,-22.25,-21.059998999999998,-30.5,1b
2019-07-15_171349:700,-0.285217,0.059479,-0.368591,0.018491999999999998,-0.007548999999999999,-0.028263999999999997,-21.18,-21.059998999999998,-30.059998999999998,1b
2019-07-15_171349:720,-0.31369,0.055389,-0.35943600000000003,0.02365,-0.006176,-0.026555000000000002,-21.18,-21.059998999999998,-30.059998999999998,1b
2019-07-15_171349:740,-0.31723,0.055908000000000006,-0.35180700000000004,0.028380000000000002,-0.0008349999999999999,-0.023808000000000003,-21.18,-21.75,-31.68,1b
2019-07-15_171349:760,-0.305542,0.055389,-0.341125,0.032683,0.004139,-0.021703,-21.18,-21.75,-31.68,1b
2019-07-15_171349:780,-0.29486100000000004,0.05438200000000001,-0.336548,0.035948,0.006092,-0.021428,-21.18,-21.75,-31.68,1b
2019-07-15_171349:800,-0.29995700000000003,0.050323,-0.335022,0.037444,0.0031620000000000003,-0.022161,-20.559998999999998,-21.059998999999998,-32.5,1b
2019-07-15_171349:820,-0.312653,0.045226999999999996,-0.32843,0.038512,1.9e-05,-0.022435,-20.559998999999998,-21.059998999999998,-32.5,1b
2019-07-15_171349:840,-0.32995599999999997,0.043701,-0.329437,0.039182999999999996,-0.003002,-0.023563999999999998,-21.0,-20.18,-32.869999,1b
2019-07-15_171349:860,-0.347748,0.041168,-0.330963,0.039641,-0.004131,-0.026463999999999998,-21.0,-20.18,-32.869999,1b
2019-07-15_171349:880,-0.344696,0.045745999999999995,-0.329437,0.040038,-0.004376,-0.030736000000000003,-21.0,-20.18,-32.869999,1b
2019-07-15_171349:900,-0.34317,0.049316000000000006,-0.325897,0.040526,-0.0030629999999999998,-0.034368,-20.559998999999998,-19.5,-33.18,1b
2019-07-15_171349:920,-0.338593,0.05285599999999999,-0.32486,0.040526,-0.001934,-0.035832,-20.559998999999998,-19.5,-33.18,1b
2019-07-15_171349:940,-0.32843,0.056915,-0.319794,0.040038,-0.001446,-0.035375,-18.370001000000002,-19.059998999999998,-34.0,1b
2019-07-15_171349:960,-0.326904,0.057434000000000006,-0.326385,0.039458,-0.003246,-0.033971,-18.370001000000002,-19.059998999999998,-34.0,1b
2019-07-15_171349:980,-0.334015,0.05996699999999999,-0.335022,0.039305,-0.004986,-0.033788,-18.370001000000002,-19.059998999999998,-34.0,1b
2019-07-15_171350:000,-0.35436999999999996,0.062012,-0.342163,0.038786,-0.005261,-0.032781,-18.75,-18.370001000000002,-33.68,1b
2019-07-15_171350:020,-0.35638400000000003,0.06253099999999999,-0.345215,0.037656999999999996,-0.003399,-0.030522000000000004,-18.75,-18.370001000000002,-33.68,1b
2019-07-15_171350:040,-0.341644,0.060486,-0.344177,0.036131,-0.001385,-0.028203,-17.68,-18.0,-35.560001,1b
2019-07-15_171350:060,-0.32995599999999997,0.058441,-0.34265100000000004,0.03427,0.00038500000000000003,-0.026494,-17.68,-18.0,-35.560001,1b
2019-07-15_171350:080,-0.341644,0.06149299999999999,-0.360962,0.032469,-0.000225,-0.025273,-17.68,-18.0,-35.560001,1b
2019-07-15_171350:100,-0.35791,0.061005,-0.373688,0.031157,-0.000683,-0.024021999999999998,-17.25,-17.0,-34.869999,1b
2019-07-15_171350:120,-0.360962,0.058960000000000005,-0.386902,0.029692000000000003,-0.000439,-0.023168,-17.25,-17.0,-34.869999,1b
2019-07-15_171350:140,-0.364014,0.059479,-0.390961,0.028044,0.00011100000000000001,-0.022038,-16.18,-17.18,-36.75,1b
2019-07-15_171350:160,-0.36911,0.057953,-0.393005,0.026122000000000003,0.001301,-0.019628,-16.18,-17.18,-36.75,1b
2019-07-15_171350:180,-0.377747,0.050842,-0.396545,0.024443,0.0031620000000000003,-0.018315,-16.18,-17.18,-36.75,1b
2019-07-15_171350:200,-0.401642,0.044219999999999995,-0.411285,0.022917,0.00301,-0.019962999999999998,-16.18,-16.059998999999998,-35.560001,1b
2019-07-15_171350:220,-0.40368699999999996,0.038635,-0.40976,0.022246000000000002,0.004353,-0.022893,-16.18,-16.059998999999998,-35.560001,1b
2019-07-15_171350:240,-0.387909,0.034546,-0.411804,0.022002,0.007801000000000001,-0.023747,-15.87,-15.68,-36.68,1b
2019-07-15_171350:260,-0.394531,0.022858,-0.444855,0.021208,0.006214,-0.022831999999999998,-15.87,-15.68,-36.68,1b
2019-07-15_171350:280,-0.381805,0.013702,-0.439758,0.021117,0.0036200000000000004,-0.022618,-15.87,-15.68,-36.68,1b
2019-07-15_171350:300,-0.366058,0.008636,-0.429596,0.020995,0.004627,-0.0239,-16.0,-15.0,-37.060001,1b
2019-07-15_171350:320,-0.319275,0.005065999999999999,-0.411804,0.019988,0.009144,-0.023503,-16.0,-15.0,-37.060001,1b
2019-07-15_171350:340,-0.282166,0.004059,-0.401642,0.018401,0.011066,-0.020055,-15.56,-15.37,-36.25,1b
2019-07-15_171350:360,-0.300476,-0.004547,-0.385864,0.016142,0.010975,-0.016393,-15.56,-15.37,-36.25,1b
2019-07-15_171350:380,-0.308594,-0.012177,-0.390442,0.014311,0.00774,-0.016118,-15.56,-15.37,-36.25,1b
2019-07-15_171350:400,-0.31012,-0.016266,-0.377228,0.012633,0.003803,-0.017247,-15.56,-15.0,-37.060001,1b
2019-07-15_171350:420,-0.314697,-0.018799,-0.375214,0.012511,0.001545,-0.016606,-15.56,-15.0,-37.060001,1b
2019-07-15_171350:440,-0.307587,-0.015228,-0.373688,0.012572,0.00011100000000000001,-0.01685,-15.56,-13.75,-36.25,1b
2019-07-15_171350:460,-0.31012,-0.007111,-0.375214,0.012053,-0.0030629999999999998,-0.017583,-15.56,-13.75,-36.25,1b
2019-07-15_171350:480,-0.300476,-0.001495,-0.369598,0.010497,-0.005961999999999999,-0.017522,-15.56,-13.75,-36.25,1b
2019-07-15_171350:500,-0.30249000000000004,0.001007,-0.355377,0.009245,-0.006176,-0.0174,-14.5,-13.37,-37.5,1b
2019-07-15_171350:520,-0.29943800000000004,0.005065999999999999,-0.34368899999999997,0.007658,-0.004376,-0.018865,-14.5,-13.37,-37.5,1b
