timestamp,AccX,AccY,AccZ,GyroX,GyroY,GyroZ,MagX,MagY,MagZ,Activity
2019-07-15_154820:140,-0.381317,-0.006592,-0.33300799999999997,-0.0005200000000000001,-0.0030629999999999998,-0.002843,-39.0,4.18,-9.75,2b
2019-07-15_154820:160,-0.399109,-0.006072999999999999,-0.328949,-0.003145,-0.002972,-5e-06,-39.0,3.75,-10.56,2b
2019-07-15_154820:180,-0.399597,-0.013213999999999998,-0.325897,-0.005861,-0.0006219999999999999,0.00146,-39.0,3.75,-10.56,2b
2019-07-15_154820:200,-0.394531,-0.021332,-0.32132,-0.0069900000000000006,0.001911,0.00146,-39.0,3.75,-10.56,2b
2019-07-15_154820:220,-0.385864,-0.023375999999999997,-0.317749,-0.006837,0.003742,0.0012460000000000001,-39.0,3.75,-11.0,2b
2019-07-15_154820:240,-0.373688,-0.023895,-0.316742,-0.006044,0.004414,0.001277,-39.0,3.75,-11.0,2b
2019-07-15_154820:260,-0.375214,-0.023895,-0.320801,-0.004854,0.003406,0.000728,-37.869999,3.75,-9.75,2b
2019-07-15_154820:280,-0.378754,-0.020325,-0.318756,-0.004182,0.002491,0.001338,-37.869999,3.75,-9.75,2b
2019-07-15_154820:300,-0.382324,-0.019806,-0.318756,-0.004274,0.001972,0.001857,-37.869999,3.75,-9.75,2b
2019-07-15_154820:320,-0.388428,-0.016266,-0.315704,-0.005189,0.0016359999999999999,0.0016129999999999999,-38.68,3.37,-10.56,2b
2019-07-15_154820:340,-0.394531,-0.021332,-0.313171,-0.005861,0.001972,0.001521,-38.68,3.37,-10.56,2b
2019-07-15_154820:360,-0.393005,-0.022369,-0.312653,-0.0057079999999999995,0.002888,-0.001256,-39.369999,2.68,-9.75,2b
2019-07-15_154820:380,-0.396545,-0.019318000000000002,-0.310638,-0.005464,0.0030399999999999997,-0.0013779999999999999,-39.369999,2.68,-9.75,2b
2019-07-15_154820:400,-0.397583,-0.020844,-0.304016,-0.004396,0.004566,-0.0013779999999999999,-39.369999,2.68,-9.75,2b
2019-07-15_154820:420,-0.388916,-0.019318000000000002,-0.30249000000000004,-0.003999,0.004871,-0.0011949999999999999,-39.0,2.68,-10.18,2b
2019-07-15_154820:440,-0.384857,-0.017792,-0.300964,-0.002748,0.003437,8.7e-05,-39.0,2.68,-10.18,2b
2019-07-15_154820:460,-0.393005,-0.016753999999999998,-0.297913,-0.001771,0.001972,0.000392,-39.0,2.68,-10.18,2b
2019-07-15_154820:480,-0.404175,-0.016753999999999998,-0.301483,-0.001558,0.00182,0.00085,-39.0,2.68,-10.18,2b
2019-07-15_154820:500,-0.402649,-0.013702,-0.311127,-0.000825,0.0032229999999999997,0.001185,-39.0,2.68,-10.18,2b
2019-07-15_154820:520,-0.402649,-0.012177,-0.309601,-0.001039,0.004749000000000001,0.0010019999999999999,-39.369999,2.68,-11.0,2b
2019-07-15_154820:540,-0.396057,-0.009125,-0.307587,-0.001253,0.006275,0.001674,-39.369999,2.68,-11.0,2b
2019-07-15_154820:560,-0.39859,-0.005065999999999999,-0.30300900000000003,-0.0029010000000000004,0.0061530000000000005,0.0034130000000000002,-39.68,3.06,-10.56,2b
2019-07-15_154820:580,-0.40011599999999997,-0.006592,-0.29232800000000003,-0.004671,0.006336,0.004298,-39.68,3.06,-10.56,2b
2019-07-15_154820:600,-0.397583,-0.008636,-0.287231,-0.006379999999999999,0.005878,0.003749,-39.68,3.06,-10.56,2b
2019-07-15_154820:620,-0.391968,-0.009644,-0.279114,-0.007661,0.004688,0.0032909999999999997,-39.369999,2.25,-8.18,2b
2019-07-15_154820:640,-0.394012,-0.010651,-0.278107,-0.008759999999999999,0.002552,0.0035659999999999997,-39.369999,2.25,-8.18,2b
2019-07-15_154820:660,-0.395538,-0.012177,-0.262848,-0.009706000000000001,0.0006900000000000001,0.003901,-39.68,3.06,-9.37,2b
2019-07-15_154820:680,-0.397583,-0.013702,-0.266388,-0.010225,-0.001843,0.004207,-39.68,3.06,-9.37,2b
2019-07-15_154820:700,-0.410797,-0.009644,-0.267426,-0.010683,-0.00346,0.005031,-39.68,3.06,-9.37,2b
2019-07-15_154820:720,-0.41842700000000005,-0.009644,-0.265381,-0.011293000000000001,-0.004192,0.005275,-39.68,2.68,-8.18,2b
2019-07-15_154820:740,-0.42248500000000005,-0.008118,-0.263336,-0.012086,-0.003857,0.004298,-39.68,2.68,-8.18,2b
2019-07-15_154820:760,-0.40823400000000004,-0.009644,-0.26181,-0.012971000000000002,-0.003582,0.004085,-39.68,3.06,-9.37,2b
2019-07-15_154820:780,-0.402649,-0.008636,-0.261322,-0.013429,-0.005108,0.0036270000000000004,-39.68,3.06,-9.37,2b
2019-07-15_154820:800,-0.396057,-0.007599,-0.260284,-0.013826,-0.007916,0.003169,-39.68,3.06,-9.37,2b
2019-07-15_154820:820,-0.401123,-0.009125,-0.260284,-0.013826,-0.010693000000000001,0.003016,-39.369999,2.25,-8.56,2b
2019-07-15_154820:840,-0.406738,-0.013213999999999998,-0.257233,-0.013277,-0.012493,0.002955,-39.369999,2.25,-8.56,2b
2019-07-15_154820:860,-0.40063499999999996,-0.013702,-0.257751,-0.011751000000000001,-0.013287,0.003169,-39.68,2.25,-9.75,2b
2019-07-15_154820:880,-0.395538,-0.014221000000000001,-0.259277,-0.0105,-0.015513999999999998,0.0032909999999999997,-39.68,2.25,-9.75,2b
2019-07-15_154820:900,-0.389435,-0.013213999999999998,-0.274536,-0.008699,-0.018047,0.003505,-39.68,2.25,-9.75,2b
2019-07-15_154820:920,-0.390442,-0.013213999999999998,-0.28927600000000003,-0.007234,-0.021313,0.0027719999999999997,-39.0,2.68,-9.37,2b
2019-07-15_154820:940,-0.382324,-0.009125,-0.29180900000000004,-0.005312,-0.023815,0.001185,-39.0,2.68,-9.37,2b
2019-07-15_154820:960,-0.382324,-0.006072999999999999,-0.29995700000000003,-0.004182,-0.025158,-0.001042,-40.060001,2.68,-11.0,2b
2019-07-15_154820:980,-0.374695,0.000488,-0.30300900000000003,-0.003145,-0.025889999999999996,-0.001805,-40.060001,2.68,-11.0,2b
2019-07-15_154821:000,-0.373688,0.005065999999999999,-0.307587,-0.002229,-0.02647,-0.00147,-40.060001,2.68,-11.0,2b
2019-07-15_154821:020,-0.36911,0.006072999999999999,-0.312164,-0.0025039999999999997,-0.026806,-0.001531,-39.68,2.25,-11.0,2b
2019-07-15_154821:040,-0.376221,0.010651,-0.325897,-0.0026260000000000003,-0.027874,-0.000524,-39.68,2.25,-11.0,2b
2019-07-15_154821:060,-0.378754,0.011169,-0.325897,-0.003389,-0.027416000000000003,0.001338,-38.25,1.56,-12.87,2b
2019-07-15_154821:080,-0.36911,0.008118,-0.327911,-0.00406,-0.026287,0.001185,-38.25,1.56,-12.87,2b
2019-07-15_154821:100,-0.360962,0.007599,-0.32843,-0.004396,-0.025219,-0.000279,-38.25,1.56,-12.87,2b
2019-07-15_154821:120,-0.345215,0.006592,-0.32995599999999997,-0.004274,-0.024944,-0.000463,-38.68,2.25,-12.18,2b
2019-07-15_154821:140,-0.33300799999999997,0.008118,-0.34265100000000004,-0.003542,-0.026409,-0.000279,-38.68,2.25,-12.18,2b
2019-07-15_154821:160,-0.324371,0.009125,-0.36248800000000003,-0.003114,-0.029522000000000003,0.00020899999999999998,-37.18,2.0,-13.68,2b
2019-07-15_154821:180,-0.34317,0.012695,-0.379272,-0.0025039999999999997,-0.032177,0.001124,-37.18,2.0,-13.68,2b
2019-07-15_154821:200,-0.342163,0.011687999999999999,-0.382324,-0.0023510000000000002,-0.031994,0.0021920000000000004,-37.18,2.0,-13.68,2b
2019-07-15_154821:220,-0.3396,0.012695,-0.385864,-0.002168,-0.030132,0.0028940000000000003,-36.5,1.56,-15.25,2b
2019-07-15_154821:240,-0.331482,0.013702,-0.382324,-0.0023510000000000002,-0.028393,0.003474,-36.5,1.56,-15.25,2b
2019-07-15_154821:260,-0.320282,0.011687999999999999,-0.384857,-0.002565,-0.026958999999999997,0.004542,-36.75,2.25,-15.25,2b
2019-07-15_154821:280,-0.308594,0.010162000000000001,-0.40316799999999997,-0.003206,-0.027538,0.005763,-36.75,2.25,-15.25,2b
2019-07-15_154821:300,-0.31012,0.010651,-0.406219,-0.004121,-0.028393,0.0058850000000000005,-36.75,2.25,-15.25,2b
2019-07-15_154821:320,-0.31369,0.008118,-0.408752,-0.004518,-0.026683999999999996,0.005214,-40.5,2.68,-17.68,2b
2019-07-15_154821:340,-0.309113,0.007599,-0.410278,-0.004579,-0.024029,0.004359,-40.5,2.68,-17.68,2b
2019-07-15_154821:360,-0.29486100000000004,0.006072999999999999,-0.410278,-0.004457,-0.022686,0.004207,-35.25,2.68,-16.75,2b
2019-07-15_154821:380,-0.285706,0.0055850000000000006,-0.414337,-0.0038469999999999997,-0.023235,0.005336,-35.25,2.68,-16.75,2b
2019-07-15_154821:400,-0.291321,0.001495,-0.425537,-0.0038469999999999997,-0.02351,0.006679000000000001,-35.25,2.68,-16.75,2b
2019-07-15_154821:420,-0.29232800000000003,0.0030210000000000002,-0.42758199999999996,-0.0038469999999999997,-0.023174,0.007258,-34.5,2.68,-18.870001000000002,2b
2019-07-15_154821:440,-0.300964,-0.001007,-0.430634,-0.003664,-0.021374,0.006679000000000001,-34.5,2.68,-18.870001000000002,2b
2019-07-15_154821:460,-0.30249000000000004,0.0,-0.42807,-0.003725,-0.018902000000000002,0.005763,-34.560001,1.56,-18.870001000000002,2b
2019-07-15_154821:480,-0.296387,-0.001495,-0.427063,-0.003145,-0.016735,0.006007,-34.560001,1.56,-18.870001000000002,2b
2019-07-15_154821:500,-0.29538000000000003,-0.001495,-0.43011499999999997,-0.0034799999999999996,-0.014477,0.00561,-34.560001,1.56,-18.870001000000002,2b
2019-07-15_154821:520,-0.29486100000000004,-0.004059,-0.427063,-0.0028399999999999996,-0.012402,0.005397,-32.75,2.25,-19.68,2b
2019-07-15_154821:540,-0.294373,-0.005065999999999999,-0.421967,-0.002229,-0.010235,0.0051530000000000005,-32.75,2.25,-19.68,2b
2019-07-15_154821:560,-0.28927600000000003,-0.005065999999999999,-0.417389,-0.001375,-0.008892,0.0051530000000000005,-34.18,2.25,-19.25,2b
2019-07-15_154821:580,-0.288269,-0.0025329999999999997,-0.41384899999999997,-0.001039,-0.007640999999999999,0.005031,-34.18,2.25,-19.25,2b
2019-07-15_154821:600,-0.28369099999999997,-0.001495,-0.40976,-0.000978,-0.007183,0.005092,-34.18,2.25,-19.25,2b
2019-07-15_154821:620,-0.28979499999999997,-0.002014,-0.404694,-0.001222,-0.006756,0.0061600000000000005,-32.68,2.68,-19.68,2b
2019-07-15_154821:640,-0.282654,0.0,-0.406219,-0.001497,-0.0069700000000000005,0.0077469999999999995,-32.68,2.68,-19.68,2b
2019-07-15_154821:660,-0.28775,-0.001007,-0.410278,-0.002168,-0.0069700000000000005,0.008815,-25.75,2.25,-20.18,2b
2019-07-15_154821:680,-0.28674299999999997,-0.0035399999999999997,-0.40976,-0.003023,-0.006786,0.008418,-25.75,2.25,-20.18,2b
2019-07-15_154821:700,-0.285217,-0.005065999999999999,-0.410278,-0.0034799999999999996,-0.006908,0.0077469999999999995,-25.75,2.25,-20.18,2b
2019-07-15_154821:720,-0.28775,-0.012695,-0.416901,-0.003999,-0.006695,0.007991,-33.5,3.06,-20.25,2b
2019-07-15_154821:740,-0.28927600000000003,-0.014740000000000001,-0.416382,-0.003664,-0.006298,0.007808,-33.5,3.06,-20.25,2b
2019-07-15_154821:760,-0.293335,-0.019318000000000002,-0.420959,-0.0029620000000000002,-0.005718,0.0076549999999999995,-32.369999,2.68,-20.68,2b
2019-07-15_154821:780,-0.290802,-0.021332,-0.417908,-0.001375,-0.003918,0.006068,-32.369999,2.68,-20.68,2b
2019-07-15_154821:800,-0.293854,-0.019318000000000002,-0.416901,-0.000368,-0.002514,0.005733,-32.369999,2.68,-20.68,2b
2019-07-15_154821:820,-0.28875700000000004,-0.01828,-0.414337,2.8999999999999997e-05,-0.001385,0.005275,-32.75,3.37,-21.059998999999998,2b
2019-07-15_154821:840,-0.287231,-0.016266,-0.411285,0.000365,0.000172,0.00381,-32.75,3.37,-21.059998999999998,2b
2019-07-15_154821:860,-0.281647,-0.014221000000000001,-0.409271,0.000426,0.000629,0.0035659999999999997,-33.18,3.06,-21.059998999999998,2b
2019-07-15_154821:880,-0.280121,-0.013213999999999998,-0.40823400000000004,-0.0005200000000000001,0.0007509999999999999,0.0034130000000000002,-33.18,3.06,-21.059998999999998,2b
2019-07-15_154821:900,-0.28112800000000004,-0.014221000000000001,-0.40570100000000003,-0.001314,0.0005679999999999999,0.003016,-33.18,3.06,-21.059998999999998,2b
2019-07-15_154821:920,-0.276581,-0.017273,-0.406219,-0.001375,0.000904,0.002589,-33.18,3.75,-20.18,2b
2019-07-15_154821:940,-0.274536,-0.016753999999999998,-0.404694,-0.0011,-0.000103,0.0024059999999999997,-33.18,3.75,-20.18,2b
2019-07-15_154821:960,-0.275543,-0.016266,-0.404175,-0.001314,-0.0008349999999999999,0.001979,-32.75,4.18,-21.0,2b
2019-07-15_154821:980,-0.272003,-0.013702,-0.404694,-0.001039,-0.002239,0.001857,-32.75,4.18,-21.0,2b
2019-07-15_154822:000,-0.28064,-0.013702,-0.407227,-0.001314,-0.002911,0.001918,-32.75,4.18,-21.0,2b
2019-07-15_154822:020,-0.277069,-0.012695,-0.40823400000000004,-0.0016489999999999999,-0.003124,0.002009,-32.0,3.75,-21.0,2b
2019-07-15_154822:040,-0.278595,-0.012695,-0.41384899999999997,-0.0023510000000000002,-0.00404,0.001979,-32.0,3.75,-21.0,2b
2019-07-15_154822:060,-0.282166,-0.012695,-0.416382,-0.002565,-0.004589,0.001857,-32.75,3.06,-20.18,2b
2019-07-15_154822:080,-0.28064,-0.011687999999999999,-0.41943400000000003,-0.003084,-0.00404,0.0024059999999999997,-32.75,3.06,-20.18,2b
2019-07-15_154822:100,-0.281647,-0.014221000000000001,-0.421967,-0.0034799999999999996,-0.003796,0.002955,-32.75,3.06,-20.18,2b
2019-07-15_154822:120,-0.28112800000000004,-0.017792,-0.42147799999999996,-0.003664,-0.00346,0.003016,-31.68,4.18,-21.25,2b
2019-07-15_154822:140,-0.279114,-0.01828,-0.421967,-0.003206,-0.002667,0.001796,-31.68,4.18,-21.25,2b
2019-07-15_154822:160,-0.277069,-0.019318000000000002,-0.423492,-0.003023,-0.0023309999999999997,0.001857,-33.18,3.75,-21.75,2b
2019-07-15_154822:180,-0.274017,-0.017273,-0.420959,-0.002168,-0.0016589999999999999,0.0017350000000000002,-33.18,3.75,-21.75,2b
2019-07-15_154822:200,-0.270966,-0.016266,-0.420441,-0.002046,-0.001537,0.001582,-33.18,3.75,-21.75,2b
2019-07-15_154822:220,-0.270966,-0.013702,-0.420441,-0.0017100000000000001,-0.0014759999999999999,0.0017350000000000002,-32.75,3.37,-21.25,2b
2019-07-15_154822:240,-0.270966,-0.012177,-0.417389,-0.0017100000000000001,-0.001324,0.002131,-32.75,3.37,-21.25,2b
2019-07-15_154822:260,-0.276581,-0.012177,-0.417908,-0.00229,-0.001385,0.00265,-32.75,3.37,-21.25,2b
2019-07-15_154822:280,-0.280121,-0.013213999999999998,-0.416382,-0.0029010000000000004,-0.001019,0.0033520000000000004,-32.75,3.75,-20.559998999999998,2b
2019-07-15_154822:300,-0.273529,-0.012695,-0.415375,-0.003542,-0.000286,0.003169,-32.75,3.75,-20.559998999999998,2b
2019-07-15_154822:320,-0.269958,-0.014740000000000001,-0.420959,-0.0034799999999999996,-0.000103,0.001857,-32.75,3.75,-21.25,2b
2019-07-15_154822:340,-0.271484,-0.013702,-0.41842700000000005,-0.003542,-0.0005,0.001124,-32.75,3.75,-21.25,2b
2019-07-15_154822:360,-0.276062,-0.013702,-0.420959,-0.0034799999999999996,-0.000958,0.001857,-32.0,3.06,-20.18,2b
2019-07-15_154822:380,-0.279114,-0.013702,-0.416901,-0.0032670000000000004,-0.0005,0.002376,-32.0,3.06,-20.18,2b
2019-07-15_154822:400,-0.278107,-0.012695,-0.418915,-0.002779,5e-05,0.00265,-32.0,3.06,-20.18,2b
2019-07-15_154822:420,-0.276062,-0.011687999999999999,-0.41842700000000005,-0.0025039999999999997,0.000782,0.003016,-32.75,3.37,-22.5,2b
2019-07-15_154822:440,-0.276062,-0.011169,-0.415375,-0.0028399999999999996,0.000904,0.0034130000000000002,-32.75,3.37,-22.5,2b
2019-07-15_154822:460,-0.277588,-0.012695,-0.416901,-0.0029010000000000004,0.000843,0.003505,-32.75,3.37,-22.5,2b
2019-07-15_154822:480,-0.279114,-0.016266,-0.41485600000000006,-0.0033280000000000002,0.0007509999999999999,0.003505,-32.369999,3.37,-21.25,2b
2019-07-15_154822:500,-0.278107,-0.01828,-0.41384899999999997,-0.00345,0.0011480000000000001,0.003871,-32.369999,3.37,-21.25,2b
2019-07-15_154822:520,-0.277588,-0.018799,-0.412811,-0.003084,0.001026,0.0031079999999999997,-33.18,3.75,-19.370001000000002,2b
2019-07-15_154822:540,-0.277069,-0.018799,-0.412811,-0.002687,0.0010869999999999999,0.002376,-33.18,3.75,-19.370001000000002,2b
2019-07-15_154822:560,-0.275055,-0.016266,-0.410797,-0.0023510000000000002,0.0007509999999999999,0.002254,-33.18,3.75,-19.370001000000002,2b
2019-07-15_154822:580,-0.275543,-0.016266,-0.410797,-0.00229,0.0005679999999999999,0.0024059999999999997,-33.18,3.06,-20.559998999999998,2b
2019-07-15_154822:600,-0.278595,-0.015747,-0.409271,-0.002046,0.000294,0.002254,-33.18,3.06,-20.559998999999998,2b
2019-07-15_154822:620,-0.278107,-0.016266,-0.411804,-0.002046,0.00011100000000000001,0.002254,-32.75,3.06,-21.25,2b
2019-07-15_154822:640,-0.279114,-0.015228,-0.40976,-0.001955,-0.000103,0.002254,-32.75,3.06,-21.25,2b
2019-07-15_154822:660,-0.277069,-0.014221000000000001,-0.410797,-0.001771,-0.0005,0.002376,-32.75,3.06,-21.25,2b
2019-07-15_154822:680,-0.278595,-0.012177,-0.409271,-0.0019850000000000002,-0.0008349999999999999,0.00265,-32.0,2.68,-21.0,2b
2019-07-15_154822:700,-0.280121,-0.014221000000000001,-0.40823400000000004,-0.002382,-0.001446,0.0031079999999999997,-32.0,2.68,-21.0,2b
2019-07-15_154822:720,-0.277069,-0.014740000000000001,-0.409271,-0.002687,-0.001782,0.0032909999999999997,-32.369999,3.75,-20.559998999999998,2b
2019-07-15_154822:740,-0.277069,-0.013702,-0.40774499999999997,-0.003145,-0.0024530000000000003,0.0035659999999999997,-32.369999,3.75,-20.559998999999998,2b
2019-07-15_154822:760,-0.276581,-0.014221000000000001,-0.40976,-0.003542,-0.002575,0.003901,-32.369999,3.75,-20.559998999999998,2b
2019-07-15_154822:780,-0.280121,-0.015747,-0.409271,-0.0038469999999999997,-0.002911,0.003749,-33.18,3.37,-20.559998999999998,2b
2019-07-15_154822:800,-0.278107,-0.015228,-0.410278,-0.004182,-0.002911,0.00381,-33.18,3.37,-20.559998999999998,2b
2019-07-15_154822:820,-0.278107,-0.016266,-0.411804,-0.004182,-0.003002,0.003963,-32.75,2.25,-20.559998999999998,2b
2019-07-15_154822:840,-0.276062,-0.017792,-0.411285,-0.004182,-0.00346,0.003901,-32.75,2.25,-20.559998999999998,2b
2019-07-15_154822:860,-0.276062,-0.016753999999999998,-0.411804,-0.00406,-0.003643,0.00381,-32.75,2.25,-20.559998999999998,2b
2019-07-15_154822:880,-0.27301,-0.01828,-0.415375,-0.0036030000000000003,-0.003979,0.0036880000000000003,-32.75,3.37,-21.0,2b
2019-07-15_154822:900,-0.276062,-0.01828,-0.417389,-0.0036030000000000003,-0.00404,0.0033520000000000004,-32.75,3.37,-21.0,2b
2019-07-15_154822:920,-0.277069,-0.017273,-0.417389,-0.0033280000000000002,-0.004253,0.003474,-32.369999,3.06,-21.0,2b
2019-07-15_154822:940,-0.277069,-0.016753999999999998,-0.41485600000000006,-0.0034799999999999996,-0.004101,0.003871,-32.369999,3.06,-21.0,2b
2019-07-15_154822:960,-0.274536,-0.017792,-0.416382,-0.0038770000000000002,-0.003979,0.002315,-32.369999,3.06,-21.0,2b
2019-07-15_154822:980,-0.267426,-0.016266,-0.41943400000000003,-0.004121,-0.003643,0.00146,-32.369999,3.37,-20.559998999999998,2b
2019-07-15_154823:000,-0.2659,-0.017273,-0.420441,-0.0038770000000000002,-0.003979,0.002131,-32.369999,3.37,-20.559998999999998,2b
2019-07-15_154823:020,-0.269958,-0.018799,-0.420959,-0.003664,-0.004376,0.001796,-41.18,3.37,-21.75,2b
2019-07-15_154823:040,-0.26944,-0.017792,-0.417908,-0.0032670000000000004,-0.004376,0.0016129999999999999,-41.18,3.37,-21.75,2b
2019-07-15_154823:060,-0.268951,-0.016266,-0.42147799999999996,-0.0026260000000000003,-0.003796,0.002131,-41.18,3.37,-21.75,2b
2019-07-15_154823:080,-0.270966,-0.016753999999999998,-0.42248500000000005,-0.002748,-0.004314,0.002254,-32.0,3.75,-21.75,2b
2019-07-15_154823:100,-0.267914,-0.015747,-0.42147799999999996,-0.002443,-0.003796,0.002467,-32.0,3.75,-21.75,2b
2019-07-15_154823:120,-0.269958,-0.016753999999999998,-0.42401099999999997,-0.0025039999999999997,-0.0037649999999999997,0.002467,-32.369999,3.37,-21.75,2b
2019-07-15_154823:140,-0.272003,-0.014740000000000001,-0.42401099999999997,-0.0029620000000000002,-0.003582,0.00265,-32.369999,3.37,-21.75,2b
2019-07-15_154823:160,-0.274536,-0.014740000000000001,-0.42453,-0.00345,-0.002667,0.003016,-32.369999,3.37,-21.75,2b
2019-07-15_154823:180,-0.272003,-0.015747,-0.42453,-0.004182,-0.00227,0.0024059999999999997,-32.369999,3.75,-21.25,2b
2019-07-15_154823:200,-0.26944,-0.016266,-0.423004,-0.00461,-0.0021780000000000002,0.0017350000000000002,-32.369999,3.75,-21.25,2b
2019-07-15_154823:220,-0.26944,-0.017273,-0.423492,-0.004579,-0.001873,0.001918,-32.369999,4.18,-22.5,2b
2019-07-15_154823:240,-0.271484,-0.017792,-0.420959,-0.004457,-0.001324,0.001918,-32.369999,4.18,-22.5,2b
2019-07-15_154823:260,-0.266907,-0.018799,-0.423004,-0.004121,-0.0011099999999999999,0.001857,-32.369999,4.18,-22.5,2b
2019-07-15_154823:280,-0.2659,-0.01828,-0.421967,-0.0033280000000000002,-0.000897,0.001857,-33.18,3.75,-21.75,2b
2019-07-15_154823:300,-0.266388,-0.017273,-0.420441,-0.003023,-0.001324,0.0016129999999999999,-33.18,3.75,-21.75,2b
2019-07-15_154823:320,-0.264374,-0.016266,-0.420959,-0.002565,-0.001202,0.001521,-31.68,3.06,-23.68,2b
2019-07-15_154823:340,-0.267426,-0.013702,-0.420441,-0.00229,-0.0016589999999999999,0.0012460000000000001,-31.68,3.06,-23.68,2b
2019-07-15_154823:360,-0.268951,-0.013702,-0.421967,-0.0025039999999999997,-0.0014759999999999999,0.001185,-31.68,3.06,-23.68,2b
2019-07-15_154823:380,-0.267426,-0.013213999999999998,-0.423492,-0.002443,-0.001385,0.001277,-32.0,3.06,-23.68,2b
2019-07-15_154823:400,-0.267426,-0.012695,-0.423492,-0.002382,-0.001263,0.0012460000000000001,-32.0,3.06,-23.68,2b
2019-07-15_154823:420,-0.267426,-0.012177,-0.423492,-0.002748,-0.001202,0.001124,-32.0,3.75,-21.75,2b
2019-07-15_154823:440,-0.267426,-0.013213999999999998,-0.421967,-0.002748,-0.001263,0.001124,-32.0,3.75,-21.75,2b
2019-07-15_154823:460,-0.268951,-0.012695,-0.420441,-0.002779,-0.001202,0.001277,-32.0,3.75,-21.75,2b
2019-07-15_154823:480,-0.266388,-0.012695,-0.421967,-0.002687,-0.000958,0.00146,-31.68,3.75,-21.0,2b
2019-07-15_154823:500,-0.266907,-0.012695,-0.42147799999999996,-0.0029010000000000004,-0.000958,0.0016129999999999999,-31.68,3.75,-21.0,2b
2019-07-15_154823:520,-0.2659,-0.012177,-0.421967,-0.003084,-0.001019,0.0017350000000000002,-31.68,3.37,-21.0,2b
2019-07-15_154823:540,-0.269958,-0.013702,-0.420959,-0.003023,-0.001019,0.001857,-31.68,3.37,-21.0,2b
2019-07-15_154823:560,-0.273529,-0.012695,-0.421967,-0.0029620000000000002,-0.0008349999999999999,0.001796,-31.68,3.37,-21.0,2b
2019-07-15_154823:580,-0.270477,-0.011687999999999999,-0.41995200000000005,-0.003084,-0.000164,0.002009,-32.0,2.68,-22.18,2b
2019-07-15_154823:600,-0.263855,-0.011169,-0.41842700000000005,-0.00345,-0.000164,0.001521,-32.0,2.68,-22.18,2b
2019-07-15_154823:620,-0.26181,-0.011687999999999999,-0.42147799999999996,-0.0036030000000000003,-0.000439,0.00088,-32.369999,3.37,-22.5,2b
2019-07-15_154823:640,-0.262848,-0.011169,-0.421967,-0.003999,-0.001141,0.001185,-32.369999,3.37,-22.5,2b
2019-07-15_154823:660,-0.265381,-0.013702,-0.421967,-0.0039380000000000005,-0.00172,0.001582,-32.369999,3.37,-22.5,2b
2019-07-15_154823:680,-0.268433,-0.015747,-0.42248500000000005,-0.0032670000000000004,-0.001598,0.001582,-32.369999,3.75,-21.75,2b
2019-07-15_154823:700,-0.267914,-0.012695,-0.42248500000000005,-0.002687,-0.00108,0.001918,-32.369999,3.75,-21.75,2b
2019-07-15_154823:720,-0.267426,-0.011687999999999999,-0.423004,-0.002229,-0.0008349999999999999,0.00265,-32.369999,3.75,-23.0,2b
2019-07-15_154823:740,-0.266388,-0.010162000000000001,-0.42147799999999996,-0.0019850000000000002,-0.0006219999999999999,0.002955,-32.369999,3.75,-23.0,2b
2019-07-15_154823:760,-0.268951,-0.008636,-0.423004,-0.00229,-0.000683,0.003169,-32.369999,3.75,-23.0,2b
2019-07-15_154823:780,-0.26944,-0.008118,-0.42147799999999996,-0.0028399999999999996,-0.0005610000000000001,0.0032909999999999997,-31.68,3.37,-22.5,2b
2019-07-15_154823:800,-0.268951,-0.009644,-0.420441,-0.003389,-0.000439,0.0036880000000000003,-31.68,3.37,-22.5,2b
2019-07-15_154823:820,-0.26944,-0.010651,-0.42147799999999996,-0.003999,-0.00034700000000000003,0.00381,-32.0,3.06,-21.75,2b
2019-07-15_154823:840,-0.268951,-0.013213999999999998,-0.41943400000000003,-0.004335,-0.0005610000000000001,0.0036880000000000003,-32.0,3.06,-21.75,2b
2019-07-15_154823:860,-0.268951,-0.015747,-0.42147799999999996,-0.004274,-0.000439,0.0033520000000000004,-32.0,3.06,-21.75,2b
2019-07-15_154823:880,-0.268433,-0.017273,-0.420959,-0.00406,-0.000103,0.003169,-31.68,3.37,-21.75,2b
2019-07-15_154823:900,-0.266388,-0.016753999999999998,-0.41943400000000003,-0.003206,5e-05,0.002955,-31.68,3.37,-21.75,2b
2019-07-15_154823:920,-0.265381,-0.016266,-0.418915,-0.002748,-0.000439,0.0028940000000000003,-31.370001000000002,2.68,-23.0,2b
2019-07-15_154823:940,-0.265381,-0.015228,-0.417389,-0.002382,-0.000958,0.00265,-31.370001000000002,2.68,-23.0,2b
2019-07-15_154823:960,-0.265381,-0.012177,-0.41943400000000003,-0.002107,-0.00108,0.00265,-31.370001000000002,2.68,-23.0,2b
2019-07-15_154823:980,-0.267914,-0.012177,-0.420441,-0.002107,-0.001324,0.002467,-31.68,2.68,-21.75,2b
2019-07-15_154824:000,-0.266907,-0.011169,-0.41995200000000005,-0.0026260000000000003,-0.001385,0.002589,-31.68,2.68,-21.75,2b
2019-07-15_154824:020,-0.267426,-0.011687999999999999,-0.421967,-0.0028399999999999996,-0.001537,0.00265,-32.369999,3.37,-21.75,2b
2019-07-15_154824:040,-0.268433,-0.011169,-0.42147799999999996,-0.003023,-0.0016589999999999999,0.002833,-32.369999,3.37,-21.75,2b
2019-07-15_154824:060,-0.268951,-0.013213999999999998,-0.42147799999999996,-0.003145,-0.001385,0.003169,-32.369999,3.37,-21.75,2b
2019-07-15_154824:080,-0.26944,-0.013702,-0.421967,-0.003389,-0.001385,0.00323,-31.68,3.75,-22.18,2b
2019-07-15_154824:100,-0.268433,-0.014221000000000001,-0.421967,-0.0032670000000000004,-0.000958,0.0032909999999999997,-31.68,3.75,-22.18,2b
2019-07-15_154824:120,-0.266388,-0.015747,-0.423492,-0.003114,-0.0005610000000000001,0.003474,-32.369999,3.06,-22.18,2b
2019-07-15_154824:140,-0.266388,-0.015228,-0.421967,-0.0033280000000000002,-0.0005,0.0032909999999999997,-32.369999,3.06,-22.18,2b
2019-07-15_154824:160,-0.264862,-0.015747,-0.42248500000000005,-0.0033280000000000002,-0.0007440000000000001,0.00323,-32.369999,3.06,-22.18,2b
2019-07-15_154824:180,-0.265381,-0.015228,-0.421967,-0.0032670000000000004,-0.000958,0.0032909999999999997,-31.68,3.06,-21.75,2b
2019-07-15_154824:200,-0.266388,-0.017273,-0.42147799999999996,-0.003206,-0.000897,0.00323,-31.68,3.06,-21.75,2b
2019-07-15_154824:220,-0.267426,-0.016266,-0.423492,-0.003114,-0.0008349999999999999,0.003016,-32.0,3.37,-23.0,2b
2019-07-15_154824:240,-0.264374,-0.015747,-0.41995200000000005,-0.003145,-0.00034700000000000003,0.0027719999999999997,-32.0,3.37,-23.0,2b
2019-07-15_154824:260,-0.267914,-0.016266,-0.42401099999999997,-0.003114,-0.0005610000000000001,0.0028940000000000003,-32.0,3.37,-23.0,2b
2019-07-15_154824:280,-0.267914,-0.015747,-0.42147799999999996,-0.0032670000000000004,-0.00037799999999999997,0.002711,-32.0,3.06,-22.5,2b
2019-07-15_154824:300,-0.265381,-0.015747,-0.420441,-0.003206,-0.000225,0.00265,-32.0,3.06,-22.5,2b
2019-07-15_154824:320,-0.265381,-0.015228,-0.421967,-0.003145,-0.000164,0.002467,-32.369999,3.37,-21.25,2b
2019-07-15_154824:340,-0.267914,-0.015228,-0.41943400000000003,-0.003389,-0.000683,0.002589,-32.369999,3.37,-21.25,2b
2019-07-15_154824:360,-0.267914,-0.016266,-0.420959,-0.00345,-0.000683,0.0024059999999999997,-32.369999,3.37,-21.25,2b
2019-07-15_154824:380,-0.267914,-0.016266,-0.42147799999999996,-0.003206,-0.000439,0.002467,-32.369999,3.75,-21.75,2b
2019-07-15_154824:400,-0.267914,-0.015228,-0.420959,-0.0032670000000000004,-0.0005,0.002589,-32.369999,3.75,-21.75,2b
2019-07-15_154824:420,-0.272003,-0.014740000000000001,-0.42147799999999996,-0.0029620000000000002,-0.0007440000000000001,0.002589,-32.0,2.68,-21.75,2b
2019-07-15_154824:440,-0.268951,-0.012177,-0.41842700000000005,-0.003114,-0.000225,0.003474,-32.0,2.68,-21.75,2b
2019-07-15_154824:460,-0.265381,-0.015228,-0.420441,-0.003542,-0.00037799999999999997,0.002467,-32.0,2.68,-21.75,2b
2019-07-15_154824:480,-0.263336,-0.011687999999999999,-0.42147799999999996,-0.003999,-0.000439,0.00146,-33.18,3.37,-21.75,2b
2019-07-15_154824:500,-0.264862,-0.014221000000000001,-0.421967,-0.004182,-0.000897,0.002467,-33.18,3.37,-21.75,2b
2019-07-15_154824:520,-0.269958,-0.016266,-0.423492,-0.004182,-0.0008349999999999999,0.0024059999999999997,-32.369999,3.37,-22.5,2b
2019-07-15_154824:540,-0.272003,-0.017273,-0.421967,-0.003725,-0.0006219999999999999,0.001796,-32.369999,3.37,-22.5,2b
2019-07-15_154824:560,-0.269958,-0.015747,-0.42248500000000005,-0.0029620000000000002,5e-05,0.002376,-32.369999,3.37,-22.5,2b
2019-07-15_154824:580,-0.26944,-0.014740000000000001,-0.421967,-0.0025039999999999997,0.0005070000000000001,0.002833,-32.369999,4.18,-22.5,2b
2019-07-15_154824:600,-0.266388,-0.012177,-0.420959,-0.002168,0.000629,0.002833,-32.369999,4.18,-22.5,2b
2019-07-15_154824:620,-0.267426,-0.011687999999999999,-0.41995200000000005,-0.002443,0.000294,0.002589,-32.75,3.06,-21.75,2b
2019-07-15_154824:640,-0.270966,-0.011169,-0.418915,-0.003023,1.9e-05,0.002254,-32.75,3.06,-21.75,2b
2019-07-15_154824:660,-0.27301,-0.011169,-0.41995200000000005,-0.0032670000000000004,-0.000225,0.002742,-32.75,3.06,-21.75,2b
2019-07-15_154824:680,-0.27301,-0.013213999999999998,-0.41943400000000003,-0.003786,0.000172,0.0031079999999999997,-32.0,3.06,-21.25,2b
2019-07-15_154824:700,-0.268951,-0.014221000000000001,-0.41842700000000005,-0.00406,0.000172,0.002742,-32.0,3.06,-21.25,2b
2019-07-15_154824:720,-0.268433,-0.014740000000000001,-0.41943400000000003,-0.004121,-0.000164,0.002589,-32.369999,4.18,-20.559998999999998,2b
2019-07-15_154824:740,-0.266388,-0.016266,-0.417908,-0.003786,-0.000164,0.0028940000000000003,-32.369999,4.18,-20.559998999999998,2b
2019-07-15_154824:760,-0.268433,-0.016266,-0.41842700000000005,-0.003389,-0.000439,0.0027719999999999997,-32.369999,4.18,-20.559998999999998,2b
2019-07-15_154824:780,-0.269958,-0.015228,-0.416382,-0.003114,-0.000439,0.002742,-32.0,3.75,-22.5,2b
2019-07-15_154824:800,-0.270477,-0.013702,-0.417908,-0.002748,-0.0006219999999999999,0.0025280000000000003,-32.0,3.75,-22.5,2b
2019-07-15_154824:820,-0.269958,-0.012695,-0.41842700000000005,-0.003023,-0.000439,0.002315,-32.369999,3.37,-22.18,2b
2019-07-15_154824:840,-0.269958,-0.013213999999999998,-0.416382,-0.003145,-0.0007740000000000001,0.002467,-32.369999,3.37,-22.18,2b
2019-07-15_154824:860,-0.26944,-0.013213999999999998,-0.41943400000000003,-0.00345,-0.001202,0.002315,-32.369999,3.37,-22.18,2b
2019-07-15_154824:880,-0.269958,-0.014740000000000001,-0.418915,-0.003389,-0.001141,0.002254,-31.68,3.37,-21.0,2b
2019-07-15_154824:900,-0.269958,-0.014740000000000001,-0.41995200000000005,-0.003206,-0.00108,0.002589,-31.68,3.37,-21.0,2b
2019-07-15_154824:920,-0.268951,-0.014221000000000001,-0.420441,-0.003145,-0.001446,0.002742,-32.369999,3.37,-22.18,2b
2019-07-15_154824:940,-0.271484,-0.014221000000000001,-0.41943400000000003,-0.003114,-0.001446,0.0027719999999999997,-32.369999,3.37,-22.18,2b
2019-07-15_154824:960,-0.270966,-0.014221000000000001,-0.420441,-0.0029010000000000004,-0.001202,0.0028940000000000003,-32.369999,3.37,-22.18,2b
2019-07-15_154824:980,-0.268951,-0.012695,-0.420441,-0.003389,-0.0008349999999999999,0.002955,-32.75,3.37,-21.75,2b
2019-07-15_154825:000,-0.26944,-0.012177,-0.41943400000000003,-0.00345,-0.0005,0.0028940000000000003,-32.75,3.37,-21.75,2b
2019-07-15_154825:020,-0.266907,-0.013213999999999998,-0.420441,-0.003725,-0.0007740000000000001,0.0027719999999999997,-31.370001000000002,2.68,-20.559998999999998,2b
2019-07-15_154825:040,-0.268433,-0.014740000000000001,-0.41842700000000005,-0.0038770000000000002,-0.000897,0.0027719999999999997,-31.370001000000002,2.68,-20.559998999999998,2b
2019-07-15_154825:060,-0.26944,-0.015228,-0.420959,-0.0036030000000000003,-0.00108,0.002833,-31.370001000000002,2.68,-20.559998999999998,2b
2019-07-15_154825:080,-0.269958,-0.016266,-0.41943400000000003,-0.00345,-0.000897,0.002742,-31.0,2.68,-21.75,2b
2019-07-15_154825:100,-0.268433,-0.015228,-0.41995200000000005,-0.00345,-0.0007740000000000001,0.002742,-31.0,2.68,-21.75,2b
2019-07-15_154825:120,-0.26944,-0.014221000000000001,-0.420959,-0.0033280000000000002,-0.00108,0.0027719999999999997,-32.75,3.37,-21.75,2b
2019-07-15_154825:140,-0.267426,-0.013702,-0.41943400000000003,-0.003084,-0.001263,0.0027719999999999997,-32.75,3.37,-21.75,2b
2019-07-15_154825:160,-0.268951,-0.014740000000000001,-0.42147799999999996,-0.003145,-0.00108,0.00265,-32.75,3.37,-21.75,2b
2019-07-15_154825:180,-0.269958,-0.014740000000000001,-0.41995200000000005,-0.003023,-0.000897,0.002742,-32.0,3.06,-22.5,2b
2019-07-15_154825:200,-0.269958,-0.015747,-0.41995200000000005,-0.002748,-0.0007440000000000001,0.002711,-32.0,3.06,-22.5,2b
2019-07-15_154825:220,-0.273529,-0.014221000000000001,-0.41995200000000005,-0.0026260000000000003,-0.0006219999999999999,0.003078,-32.369999,3.06,-23.0,2b
2019-07-15_154825:240,-0.27301,-0.014221000000000001,-0.41842700000000005,-0.0026260000000000003,-0.0005,0.0028940000000000003,-32.369999,3.06,-23.0,2b
2019-07-15_154825:260,-0.266388,-0.014221000000000001,-0.41943400000000003,-0.003114,-0.00037799999999999997,0.001521,-32.369999,3.06,-23.0,2b
2019-07-15_154825:280,-0.264374,-0.013702,-0.420959,-0.003542,-0.000897,0.001796,-32.369999,3.37,-21.0,2b
2019-07-15_154825:300,-0.264374,-0.013702,-0.420959,-0.003542,-0.0014759999999999999,0.002254,-32.369999,3.37,-21.0,2b
2019-07-15_154825:320,-0.264374,-0.015228,-0.421967,-0.0034799999999999996,-0.0016589999999999999,0.001857,-32.75,3.06,-21.25,2b
2019-07-15_154825:340,-0.272003,-0.017273,-0.42147799999999996,-0.0029010000000000004,-0.001202,0.0016129999999999999,-32.75,3.06,-21.25,2b
2019-07-15_154825:360,-0.273529,-0.016266,-0.420959,-0.001894,-0.0006219999999999999,0.00207,-32.75,3.06,-21.25,2b
2019-07-15_154825:380,-0.271484,-0.014221000000000001,-0.421967,-0.0018329999999999998,-0.0005610000000000001,0.002467,-32.369999,3.06,-21.25,2b
2019-07-15_154825:400,-0.268951,-0.011687999999999999,-0.41995200000000005,-0.0016489999999999999,0.000172,0.002711,-32.369999,3.06,-21.25,2b
2019-07-15_154825:420,-0.267426,-0.011687999999999999,-0.41995200000000005,-0.002107,-0.000286,0.0025280000000000003,-32.369999,3.37,-23.0,2b
2019-07-15_154825:440,-0.267914,-0.010162000000000001,-0.41943400000000003,-0.0028399999999999996,-0.0005610000000000001,0.0027719999999999997,-32.369999,3.37,-23.0,2b
2019-07-15_154825:460,-0.270966,-0.009644,-0.418915,-0.0034799999999999996,-0.000439,0.0032909999999999997,-32.369999,3.37,-23.0,2b
2019-07-15_154825:480,-0.272491,-0.013213999999999998,-0.41943400000000003,-0.00406,-0.0005610000000000001,0.002955,-32.0,4.18,-21.75,2b
2019-07-15_154825:500,-0.271484,-0.013702,-0.417389,-0.004335,-0.0005,0.0025280000000000003,-32.0,4.18,-21.75,2b
2019-07-15_154825:520,-0.269958,-0.016266,-0.41943400000000003,-0.004182,-0.0008349999999999999,0.002589,-31.68,2.68,-22.18,2b
2019-07-15_154825:540,-0.26944,-0.017792,-0.417908,-0.003786,-0.0005610000000000001,0.002711,-31.68,2.68,-22.18,2b
2019-07-15_154825:560,-0.268951,-0.017273,-0.418915,-0.003145,-0.0007440000000000001,0.002589,-31.68,2.68,-22.18,2b
2019-07-15_154825:580,-0.269958,-0.017273,-0.417389,-0.002565,-0.00037799999999999997,0.002589,-32.369999,3.06,-21.0,2b
2019-07-15_154825:600,-0.26944,-0.015228,-0.417908,-0.002443,-0.0005,0.002131,-32.369999,3.06,-21.0,2b
2019-07-15_154825:620,-0.267914,-0.013213999999999998,-0.417908,-0.0023510000000000002,-0.0011099999999999999,0.002315,-32.0,3.06,-21.75,2b
2019-07-15_154825:640,-0.267426,-0.012695,-0.417389,-0.0028399999999999996,-0.00108,0.002254,-32.0,3.06,-21.75,2b
2019-07-15_154825:660,-0.267426,-0.013213999999999998,-0.41842700000000005,-0.003114,-0.0014759999999999999,0.00207,-32.0,3.06,-21.75,2b
2019-07-15_154825:680,-0.270477,-0.013702,-0.41943400000000003,-0.003206,-0.001446,0.0021920000000000004,-32.369999,2.68,-21.0,2b
2019-07-15_154825:700,-0.269958,-0.013702,-0.41842700000000005,-0.003389,-0.001385,0.002315,-32.369999,2.68,-21.0,2b
2019-07-15_154825:720,-0.269958,-0.014740000000000001,-0.420959,-0.0032670000000000004,-0.001263,0.002589,-32.75,3.06,-21.25,2b
2019-07-15_154825:740,-0.26944,-0.012695,-0.421967,-0.003206,-0.001446,0.0027719999999999997,-32.75,3.06,-21.25,2b
2019-07-15_154825:760,-0.269958,-0.013213999999999998,-0.420441,-0.003114,-0.001324,0.0028940000000000003,-32.75,3.06,-21.25,2b
2019-07-15_154825:780,-0.26944,-0.013702,-0.420959,-0.003145,-0.001263,0.003016,-32.75,3.75,-22.18,2b
2019-07-15_154825:800,-0.271484,-0.015228,-0.420441,-0.003114,-0.001141,0.003078,-32.75,3.75,-22.18,2b
2019-07-15_154825:820,-0.270477,-0.011687999999999999,-0.417908,-0.00345,-0.0006219999999999999,0.00323,-32.369999,3.37,-21.75,2b
2019-07-15_154825:840,-0.267914,-0.013213999999999998,-0.41943400000000003,-0.003725,-0.001141,0.00323,-32.369999,3.37,-21.75,2b
2019-07-15_154825:860,-0.268951,-0.014221000000000001,-0.41995200000000005,-0.003786,-0.0008349999999999999,0.003169,-32.369999,3.37,-21.75,2b
2019-07-15_154825:880,-0.266907,-0.014740000000000001,-0.420441,-0.003725,-0.000897,0.0031079999999999997,-31.370001000000002,3.75,-22.5,2b
2019-07-15_154825:900,-0.266907,-0.015228,-0.41943400000000003,-0.00345,-0.000958,0.002833,-31.370001000000002,3.75,-22.5,2b
2019-07-15_154825:920,-0.268951,-0.016266,-0.420441,-0.0033280000000000002,-0.00108,0.0028940000000000003,-32.75,3.06,-22.18,2b
2019-07-15_154825:940,-0.268951,-0.016266,-0.420959,-0.002565,-0.000958,0.002742,-32.75,3.06,-22.18,2b
2019-07-15_154825:960,-0.268433,-0.014740000000000001,-0.420959,-0.0026260000000000003,-0.00108,0.0027719999999999997,-32.75,3.06,-22.18,2b
2019-07-15_154825:980,-0.270966,-0.016266,-0.421967,-0.002229,-0.001019,0.0027719999999999997,-32.75,3.75,-20.559998999999998,2b
2019-07-15_154826:000,-0.27301,-0.010651,-0.420441,-0.002382,-0.0008349999999999999,0.003016,-32.75,3.75,-20.559998999999998,2b
2019-07-15_154826:020,-0.26944,-0.012177,-0.420441,-0.0028399999999999996,-0.00034700000000000003,0.003474,-32.369999,3.06,-23.0,2b
2019-07-15_154826:040,-0.266388,-0.014221000000000001,-0.420441,-0.003664,-0.000439,0.002254,-32.369999,3.06,-23.0,2b
2019-07-15_154826:060,-0.264374,-0.013213999999999998,-0.420441,-0.004396,-0.0007440000000000001,0.002009,-32.369999,3.06,-23.0,2b
2019-07-15_154826:080,-0.266388,-0.017273,-0.420959,-0.004243,-0.00108,0.0027719999999999997,-32.369999,4.18,-23.0,2b
2019-07-15_154826:100,-0.270477,-0.017792,-0.420441,-0.003542,-0.001202,0.002711,-32.369999,4.18,-23.0,2b
2019-07-15_154826:120,-0.271484,-0.01828,-0.420441,-0.0029010000000000004,-0.0007740000000000001,0.0021920000000000004,-32.0,3.06,-21.75,2b
2019-07-15_154826:140,-0.269958,-0.015228,-0.420441,-0.002046,-0.00037799999999999997,0.002376,-32.0,3.06,-21.75,2b
2019-07-15_154826:160,-0.268433,-0.013702,-0.41943400000000003,-0.0017100000000000001,-0.000164,0.003016,-32.0,3.06,-21.75,2b
2019-07-15_154826:180,-0.266388,-0.011687999999999999,-0.41943400000000003,-0.001771,-0.000225,0.003078,-31.68,3.75,-22.18,2b
2019-07-15_154826:200,-0.267914,-0.011687999999999999,-0.41842700000000005,-0.00229,-0.000286,0.0027719999999999997,-31.68,3.75,-22.18,2b
2019-07-15_154826:220,-0.26944,-0.010651,-0.420441,-0.002779,-0.000683,0.0028940000000000003,-31.68,2.68,-22.18,2b
2019-07-15_154826:240,-0.273529,-0.014740000000000001,-0.417908,-0.0033280000000000002,-0.000683,0.00323,-31.68,2.68,-22.18,2b
2019-07-15_154826:260,-0.271484,-0.015228,-0.41842700000000005,-0.0039380000000000005,-0.000225,0.00323,-31.68,2.68,-22.18,2b
2019-07-15_154826:280,-0.270966,-0.017792,-0.41842700000000005,-0.0038469999999999997,-0.000103,0.003016,-32.75,3.37,-21.25,2b
2019-07-15_154826:300,-0.26944,-0.01828,-0.41842700000000005,-0.003999,-0.00037799999999999997,0.0025280000000000003,-32.75,3.37,-21.25,2b
2019-07-15_154826:320,-0.268951,-0.018799,-0.416901,-0.003542,-0.0005,0.0021920000000000004,-32.75,3.37,-21.25,2b
2019-07-15_154826:340,-0.269958,-0.017792,-0.41995200000000005,-0.0029010000000000004,-0.0005610000000000001,0.002131,-32.369999,3.37,-22.5,2b
2019-07-15_154826:360,-0.270477,-0.016266,-0.416382,-0.0025039999999999997,-0.00034700000000000003,0.002131,-32.369999,3.37,-22.5,2b
2019-07-15_154826:380,-0.267914,-0.014221000000000001,-0.41943400000000003,-0.002382,-0.0005,0.002131,-32.0,3.37,-21.0,2b
2019-07-15_154826:400,-0.2659,-0.013213999999999998,-0.41842700000000005,-0.002229,-0.0005,0.0021920000000000004,-32.0,3.37,-21.0,2b
2019-07-15_154826:420,-0.268951,-0.012695,-0.418915,-0.002687,-0.0011099999999999999,0.00207,-32.0,3.37,-21.0,2b
2019-07-15_154826:440,-0.268951,-0.013213999999999998,-0.41995200000000005,-0.003114,-0.001385,0.002131,-32.0,3.37,-21.75,2b
2019-07-15_154826:460,-0.26944,-0.015228,-0.420441,-0.0032670000000000004,-0.001446,0.002131,-32.0,3.37,-21.75,2b
2019-07-15_154826:480,-0.26944,-0.015228,-0.420959,-0.0034799999999999996,-0.001537,0.002315,-32.369999,2.68,-21.75,2b
2019-07-15_154826:500,-0.26944,-0.015747,-0.41995200000000005,-0.003206,-0.001385,0.0025280000000000003,-32.369999,2.68,-21.75,2b
2019-07-15_154826:520,-0.26944,-0.014740000000000001,-0.420441,-0.0029010000000000004,-0.001446,0.0027719999999999997,-32.369999,2.68,-21.75,2b
2019-07-15_154826:540,-0.267914,-0.015228,-0.420441,-0.002779,-0.001385,0.0028940000000000003,-32.369999,3.06,-21.75,2b
2019-07-15_154826:560,-0.269958,-0.014221000000000001,-0.42147799999999996,-0.0029010000000000004,-0.001019,0.002833,-32.369999,3.06,-21.75,2b
2019-07-15_154826:580,-0.268951,-0.013702,-0.420959,-0.003206,-0.001202,0.002833,-32.369999,3.75,-23.25,2b
2019-07-15_154826:600,-0.269958,-0.015228,-0.420441,-0.0036030000000000003,-0.0007740000000000001,0.0027719999999999997,-32.369999,3.75,-23.25,2b
2019-07-15_154826:620,-0.267914,-0.016266,-0.41943400000000003,-0.003786,-0.0008349999999999999,0.002589,-32.369999,3.75,-23.25,2b
2019-07-15_154826:640,-0.268433,-0.016753999999999998,-0.420441,-0.003725,-0.000958,0.002589,-31.68,3.06,-21.75,2b
2019-07-15_154826:660,-0.267426,-0.017792,-0.41995200000000005,-0.003206,-0.000958,0.002833,-31.68,3.06,-21.75,2b
2019-07-15_154826:680,-0.268951,-0.017273,-0.420441,-0.003084,-0.001019,0.002711,-32.369999,3.37,-22.5,2b
2019-07-15_154826:700,-0.269958,-0.015747,-0.41943400000000003,-0.0028399999999999996,-0.0011099999999999999,0.0024059999999999997,-32.369999,3.37,-22.5,2b
2019-07-15_154826:720,-0.269958,-0.016266,-0.41943400000000003,-0.002443,-0.001019,0.002467,-32.369999,3.37,-22.5,2b
2019-07-15_154826:740,-0.272003,-0.014740000000000001,-0.41943400000000003,-0.002687,-0.0008349999999999999,0.002315,-32.75,3.06,-21.25,2b
2019-07-15_154826:760,-0.271484,-0.011687999999999999,-0.417908,-0.0028399999999999996,-0.000897,0.002711,-32.75,3.06,-21.25,2b
2019-07-15_154826:780,-0.266907,-0.013213999999999998,-0.417908,-0.0032670000000000004,-0.0005610000000000001,0.002742,-32.75,3.75,-22.18,2b
2019-07-15_154826:800,-0.264862,-0.013213999999999998,-0.42147799999999996,-0.0036030000000000003,-0.0006219999999999999,0.001674,-32.75,3.75,-22.18,2b
2019-07-15_154826:820,-0.264374,-0.014740000000000001,-0.421967,-0.003725,-0.000958,0.001857,-32.75,3.75,-22.18,2b
2019-07-15_154826:840,-0.268433,-0.016266,-0.423492,-0.003999,-0.001385,0.002742,-32.0,3.06,-22.18,2b
2019-07-15_154826:860,-0.271484,-0.017792,-0.420959,-0.0036030000000000003,-0.001446,0.0024059999999999997,-32.0,3.06,-22.18,2b
2019-07-15_154826:880,-0.271484,-0.016266,-0.420959,-0.003145,-0.0008349999999999999,0.001918,-31.68,3.75,-21.75,2b
2019-07-15_154826:900,-0.268433,-0.014740000000000001,-0.41995200000000005,-0.0029010000000000004,-0.000439,0.0025280000000000003,-31.68,3.75,-21.75,2b
2019-07-15_154826:920,-0.266907,-0.014221000000000001,-0.41943400000000003,-0.002443,-0.000103,0.002955,-31.68,3.75,-21.75,2b
2019-07-15_154826:940,-0.26944,-0.012695,-0.420959,-0.0026260000000000003,-0.000439,0.00265,-32.0,3.06,-20.18,2b
2019-07-15_154826:960,-0.269958,-0.012695,-0.41943400000000003,-0.003023,-0.0005,0.002589,-32.0,3.06,-20.18,2b
2019-07-15_154826:980,-0.274017,-0.012177,-0.420441,-0.003206,-0.0005610000000000001,0.002955,-32.0,3.37,-22.5,2b
2019-07-15_154827:000,-0.272003,-0.013702,-0.417389,-0.0036030000000000003,-0.0005610000000000001,0.0034130000000000002,-32.0,3.37,-22.5,2b
2019-07-15_154827:020,-0.269958,-0.014740000000000001,-0.418915,-0.004182,-0.0005610000000000001,0.0028940000000000003,-32.0,3.37,-22.5,2b
2019-07-15_154827:040,-0.267914,-0.014740000000000001,-0.418915,-0.004121,-0.0007740000000000001,0.0025280000000000003,-32.0,3.37,-21.25,2b
2019-07-15_154827:060,-0.2659,-0.017273,-0.41943400000000003,-0.004121,-0.000897,0.002955,-32.0,3.37,-21.25,2b
2019-07-15_154827:080,-0.268433,-0.017792,-0.418915,-0.00406,-0.00108,0.003078,-31.68,3.06,-21.25,2b
2019-07-15_154827:100,-0.268433,-0.017792,-0.41842700000000005,-0.0036030000000000003,-0.001202,0.003016,-31.68,3.06,-21.25,2b
2019-07-15_154827:120,-0.268433,-0.015747,-0.41943400000000003,-0.0029620000000000002,-0.00108,0.002833,-31.68,3.06,-21.25,2b
2019-07-15_154827:140,-0.26944,-0.015228,-0.420959,-0.003145,-0.001263,0.002711,-31.68,3.75,-21.75,2b
2019-07-15_154827:160,-0.272003,-0.013702,-0.420441,-0.003023,-0.001263,0.00265,-31.68,3.75,-21.75,2b
2019-07-15_154827:180,-0.26944,-0.014221000000000001,-0.420959,-0.003664,-0.000958,0.0024059999999999997,-32.369999,3.75,-21.25,2b
2019-07-15_154827:200,-0.268951,-0.014221000000000001,-0.41995200000000005,-0.003999,-0.001141,0.0024059999999999997,-32.369999,3.75,-21.25,2b
2019-07-15_154827:220,-0.268951,-0.014740000000000001,-0.421967,-0.003786,-0.001324,0.002376,-32.369999,3.75,-21.25,2b
2019-07-15_154827:240,-0.26944,-0.014740000000000001,-0.42147799999999996,-0.0038770000000000002,-0.0011099999999999999,0.0025280000000000003,-31.68,3.06,-22.18,2b
2019-07-15_154827:260,-0.267914,-0.014221000000000001,-0.420959,-0.0033280000000000002,-0.00108,0.002467,-31.68,3.06,-22.18,2b
2019-07-15_154827:280,-0.26944,-0.013213999999999998,-0.420959,-0.003114,-0.000958,0.00265,-32.0,3.75,-21.25,2b
2019-07-15_154827:300,-0.269958,-0.012695,-0.418915,-0.003206,-0.0007440000000000001,0.002833,-32.0,3.75,-21.25,2b
2019-07-15_154827:320,-0.268951,-0.012695,-0.41842700000000005,-0.003542,-0.0005610000000000001,0.002742,-32.0,3.75,-21.25,2b
2019-07-15_154827:340,-0.268433,-0.013213999999999998,-0.420959,-0.003664,-0.000286,0.0027719999999999997,-32.369999,3.75,-20.18,2b
2019-07-15_154827:360,-0.267426,-0.012695,-0.420441,-0.004243,-0.0006219999999999999,0.0027719999999999997,-32.369999,3.75,-20.18,2b
2019-07-15_154827:380,-0.267914,-0.013702,-0.417908,-0.00461,-0.0007740000000000001,0.0024059999999999997,-32.0,3.06,-21.25,2b
2019-07-15_154827:400,-0.267914,-0.015747,-0.41842700000000005,-0.004335,-0.001202,0.00265,-32.0,3.06,-21.25,2b
2019-07-15_154827:420,-0.26944,-0.017792,-0.41842700000000005,-0.0038770000000000002,-0.0011099999999999999,0.002589,-32.0,3.06,-21.25,2b
2019-07-15_154827:440,-0.272003,-0.017273,-0.417908,-0.0032670000000000004,-0.001263,0.0024059999999999997,-31.370001000000002,3.06,-21.75,2b
2019-07-15_154827:460,-0.270966,-0.014221000000000001,-0.417908,-0.0029620000000000002,-0.001324,0.002833,-31.370001000000002,3.06,-21.75,2b
2019-07-15_154827:480,-0.2659,-0.013702,-0.418915,-0.0029620000000000002,-0.001141,0.00207,-32.0,3.75,-21.75,2b
2019-07-15_154827:500,-0.264374,-0.010651,-0.41842700000000005,-0.0032670000000000004,-0.0014759999999999999,0.001338,-32.0,3.75,-21.75,2b
2019-07-15_154827:520,-0.263336,-0.010651,-0.420959,-0.003786,-0.001995,0.0021920000000000004,-32.0,3.75,-21.75,2b
2019-07-15_154827:540,-0.265381,-0.013213999999999998,-0.420441,-0.0038469999999999997,-0.002392,0.002254,-32.75,3.37,-22.5,2b
2019-07-15_154827:560,-0.270477,-0.014221000000000001,-0.421967,-0.003542,-0.002667,0.00207,-32.75,3.37,-22.5,2b
2019-07-15_154827:580,-0.269958,-0.015228,-0.421967,-0.003023,-0.0021780000000000002,0.002254,-32.0,3.37,-21.75,2b
2019-07-15_154827:600,-0.269958,-0.014740000000000001,-0.421967,-0.00229,-0.001843,0.002833,-32.0,3.37,-21.75,2b
2019-07-15_154827:620,-0.266907,-0.013702,-0.42147799999999996,-0.002168,-0.00172,0.002955,-32.0,3.37,-21.75,2b
2019-07-15_154827:640,-0.265381,-0.011687999999999999,-0.420959,-0.002046,-0.001598,0.002711,-32.0,2.68,-20.559998999999998,2b
2019-07-15_154827:660,-0.2659,-0.009125,-0.42147799999999996,-0.002565,-0.001782,0.00265,-32.0,2.68,-20.559998999999998,2b
2019-07-15_154827:680,-0.268433,-0.010162000000000001,-0.421967,-0.0032670000000000004,-0.002117,0.0031079999999999997,-32.369999,3.37,-21.75,2b
2019-07-15_154827:700,-0.268433,-0.011687999999999999,-0.42147799999999996,-0.003664,-0.001843,0.0033520000000000004,-32.369999,3.37,-21.75,2b
2019-07-15_154827:720,-0.268433,-0.012695,-0.423004,-0.00406,-0.00172,0.0027719999999999997,-32.369999,3.37,-21.75,2b
2019-07-15_154827:740,-0.267914,-0.013213999999999998,-0.42248500000000005,-0.00406,-0.001873,0.002589,-31.68,3.06,-21.25,2b
2019-07-15_154827:760,-0.266907,-0.016266,-0.423004,-0.00406,-0.001598,0.0027719999999999997,-31.68,3.06,-21.25,2b
2019-07-15_154827:780,-0.266388,-0.016266,-0.423492,-0.0039380000000000005,-0.001598,0.002711,-34.560001,3.37,-23.0,2b
2019-07-15_154827:800,-0.2659,-0.016266,-0.421967,-0.0034799999999999996,-0.001324,0.0024059999999999997,-34.560001,3.37,-23.0,2b
2019-07-15_154827:820,-0.264862,-0.014740000000000001,-0.42401099999999997,-0.003023,-0.0011099999999999999,0.002131,-34.560001,3.37,-23.0,2b
2019-07-15_154827:840,-0.264862,-0.012695,-0.42248500000000005,-0.002748,-0.0011099999999999999,0.0021920000000000004,-32.0,3.06,-22.5,2b
2019-07-15_154827:860,-0.264374,-0.012177,-0.42248500000000005,-0.002687,-0.00108,0.002254,-32.0,3.06,-22.5,2b
2019-07-15_154827:880,-0.2659,-0.011687999999999999,-0.423004,-0.0029620000000000002,-0.001202,0.002009,-32.369999,3.06,-22.18,2b
2019-07-15_154827:900,-0.264862,-0.011169,-0.421967,-0.003206,-0.0007440000000000001,0.002009,-32.369999,3.06,-22.18,2b
2019-07-15_154827:920,-0.2659,-0.011687999999999999,-0.42453,-0.003084,-0.0008349999999999999,0.002254,-32.369999,3.06,-22.18,2b
2019-07-15_154827:940,-0.266388,-0.012695,-0.42401099999999997,-0.0032670000000000004,-0.001141,0.002376,-32.369999,3.37,-21.75,2b
2019-07-15_154827:960,-0.266907,-0.012177,-0.42248500000000005,-0.003023,-0.0007740000000000001,0.002742,-32.369999,3.37,-21.75,2b
2019-07-15_154827:980,-0.266907,-0.011687999999999999,-0.42248500000000005,-0.002779,-0.0006219999999999999,0.002833,-32.0,3.37,-23.25,2b
2019-07-15_154828:000,-0.265381,-0.012695,-0.420441,-0.0029620000000000002,-0.00037799999999999997,0.003016,-32.0,3.37,-23.25,2b
2019-07-15_154828:020,-0.264374,-0.011687999999999999,-0.421967,-0.003206,-0.000439,0.00323,-32.0,3.37,-23.25,2b
2019-07-15_154828:040,-0.265381,-0.011687999999999999,-0.421967,-0.0032670000000000004,-0.0005610000000000001,0.003078,-21.5,3.37,-22.5,2b
2019-07-15_154828:060,-0.265381,-0.013213999999999998,-0.42147799999999996,-0.00345,-0.000897,0.0028940000000000003,-21.5,3.37,-22.5,2b
2019-07-15_154828:080,-0.267426,-0.013702,-0.42248500000000005,-0.0034799999999999996,-0.000958,0.003016,-32.0,3.06,-22.18,2b
2019-07-15_154828:100,-0.268951,-0.015747,-0.42147799999999996,-0.0033280000000000002,-0.0005,0.002955,-32.0,3.06,-22.18,2b
2019-07-15_154828:120,-0.269958,-0.013702,-0.421967,-0.003206,-0.000897,0.003016,-32.0,3.06,-22.18,2b
2019-07-15_154828:140,-0.268951,-0.013702,-0.42248500000000005,-0.003145,-0.00034700000000000003,0.0033520000000000004,-33.18,3.06,-23.0,2b
2019-07-15_154828:160,-0.264862,-0.013213999999999998,-0.41943400000000003,-0.003389,-0.00037799999999999997,0.00265,-33.18,3.06,-23.0,2b
2019-07-15_154828:180,-0.262848,-0.012177,-0.421967,-0.003664,-0.00037799999999999997,0.001796,-32.369999,3.37,-23.0,2b
2019-07-15_154828:200,-0.262329,-0.013702,-0.421967,-0.0038770000000000002,-0.0008349999999999999,0.0021920000000000004,-32.369999,3.37,-23.0,2b
2019-07-15_154828:220,-0.262329,-0.015747,-0.42248500000000005,-0.0036030000000000003,-0.001324,0.002315,-32.369999,3.37,-23.0,2b
2019-07-15_154828:240,-0.270966,-0.016266,-0.421967,-0.002779,-0.001537,0.001979,-31.68,3.37,-23.0,2b
2019-07-15_154828:260,-0.26944,-0.014740000000000001,-0.421967,-0.002229,-0.000683,0.002131,-31.68,3.37,-23.0,2b
2019-07-15_154828:280,-0.267426,-0.011687999999999999,-0.425018,-0.0016489999999999999,-0.000164,0.002467,-32.369999,3.06,-21.75,2b
2019-07-15_154828:300,-0.266388,-0.011687999999999999,-0.42147799999999996,-0.001497,1.9e-05,0.0027719999999999997,-32.369999,3.06,-21.75,2b
2019-07-15_154828:320,-0.264374,-0.010162000000000001,-0.42248500000000005,-0.002107,1.9e-05,0.002742,-32.369999,3.06,-21.75,2b
2019-07-15_154828:340,-0.266388,-0.010651,-0.421967,-0.002779,-0.00034700000000000003,0.002467,-32.369999,3.37,-20.18,2b
2019-07-15_154828:360,-0.267426,-0.012177,-0.420959,-0.003145,-0.0005,0.0028940000000000003,-32.369999,3.37,-20.18,2b
2019-07-15_154828:380,-0.269958,-0.014221000000000001,-0.420959,-0.0034799999999999996,-0.000103,0.0031079999999999997,-31.68,3.37,-23.0,2b
2019-07-15_154828:400,-0.268951,-0.016266,-0.42147799999999996,-0.0036030000000000003,-0.00034700000000000003,0.0027719999999999997,-31.68,3.37,-23.0,2b
2019-07-15_154828:420,-0.266907,-0.015228,-0.421967,-0.0032670000000000004,-0.000286,0.002376,-31.68,3.37,-23.0,2b
2019-07-15_154828:440,-0.2659,-0.016266,-0.42147799999999996,-0.0028399999999999996,-0.00034700000000000003,0.002254,-32.0,3.06,-21.75,2b
2019-07-15_154828:460,-0.265381,-0.017273,-0.41995200000000005,-0.0026260000000000003,-0.00034700000000000003,0.001979,-32.0,3.06,-21.75,2b
2019-07-15_154828:480,-0.267426,-0.014740000000000001,-0.41943400000000003,-0.002107,-0.00034700000000000003,0.001857,-32.369999,3.06,-21.25,2b
2019-07-15_154828:500,-0.264862,-0.014221000000000001,-0.417908,-0.0018329999999999998,-0.00034700000000000003,0.001857,-32.369999,3.06,-21.25,2b
2019-07-15_154828:520,-0.266907,-0.012695,-0.41995200000000005,-0.001955,-0.00037799999999999997,0.001918,-32.369999,3.06,-21.25,2b
2019-07-15_154828:540,-0.266388,-0.012177,-0.420441,-0.002229,-0.000683,0.001979,-31.68,3.06,-22.18,2b
2019-07-15_154828:560,-0.266907,-0.011687999999999999,-0.42147799999999996,-0.002748,-0.00108,0.002131,-31.68,3.06,-22.18,2b
2019-07-15_154828:580,-0.267914,-0.012177,-0.42147799999999996,-0.0029620000000000002,-0.0011099999999999999,0.002131,-32.0,3.06,-21.75,2b
2019-07-15_154828:600,-0.268951,-0.013213999999999998,-0.41995200000000005,-0.003114,-0.001141,0.002254,-32.0,3.06,-21.75,2b
2019-07-15_154828:620,-0.268951,-0.014221000000000001,-0.42147799999999996,-0.0032670000000000004,-0.000958,0.002467,-32.0,3.06,-21.75,2b
2019-07-15_154828:640,-0.267914,-0.014740000000000001,-0.421967,-0.0033280000000000002,-0.001263,0.0025280000000000003,-32.0,3.06,-21.0,2b
2019-07-15_154828:660,-0.266388,-0.015747,-0.420441,-0.003023,-0.0011099999999999999,0.002711,-32.0,3.06,-21.0,2b
2019-07-15_154828:680,-0.266907,-0.014740000000000001,-0.42147799999999996,-0.003084,-0.0007740000000000001,0.002742,-31.68,3.37,-23.25,2b
2019-07-15_154828:700,-0.2659,-0.013702,-0.41995200000000005,-0.0029620000000000002,-0.001202,0.002833,-31.68,3.37,-23.25,2b
2019-07-15_154828:720,-0.266388,-0.015228,-0.420959,-0.0028399999999999996,-0.0014759999999999999,0.002742,-31.68,3.37,-23.25,2b
2019-07-15_154828:740,-0.266388,-0.014221000000000001,-0.420441,-0.003023,-0.001446,0.0028940000000000003,-32.369999,3.06,-21.75,2b
2019-07-15_154828:760,-0.266388,-0.014740000000000001,-0.41995200000000005,-0.003114,-0.001446,0.0028940000000000003,-32.369999,3.06,-21.75,2b
2019-07-15_154828:780,-0.270477,-0.014221000000000001,-0.421967,-0.003114,-0.001141,0.0027719999999999997,-32.369999,2.68,-21.0,2b
2019-07-15_154828:800,-0.270477,-0.014221000000000001,-0.420959,-0.003389,-0.0011099999999999999,0.0032909999999999997,-32.369999,2.68,-21.0,2b
2019-07-15_154828:820,-0.2659,-0.015747,-0.420441,-0.003389,-0.0011099999999999999,0.002467,-32.369999,2.68,-21.0,2b
2019-07-15_154828:840,-0.264374,-0.014740000000000001,-0.42248500000000005,-0.0036030000000000003,-0.001202,0.001582,-31.0,3.37,-21.75,2b
2019-07-15_154828:860,-0.263336,-0.015747,-0.42248500000000005,-0.0036030000000000003,-0.001263,0.00207,-31.0,3.37,-21.75,2b
2019-07-15_154828:880,-0.264862,-0.016753999999999998,-0.423492,-0.0032670000000000004,-0.0014759999999999999,0.002009,-32.0,3.75,-22.5,2b
2019-07-15_154828:900,-0.269958,-0.015228,-0.421967,-0.0029010000000000004,-0.00108,0.001857,-32.0,3.75,-22.5,2b
2019-07-15_154828:920,-0.268433,-0.015228,-0.421967,-0.00229,-0.000683,0.001979,-32.0,3.75,-22.5,2b
2019-07-15_154828:940,-0.264862,-0.013702,-0.421967,-0.002229,-0.000225,0.00265,-32.0,3.06,-23.68,2b
2019-07-15_154828:960,-0.264374,-0.011687999999999999,-0.42147799999999996,-0.0025039999999999997,-0.000286,0.002711,-32.0,3.06,-23.68,2b
2019-07-15_154828:980,-0.264862,-0.012695,-0.420959,-0.0029010000000000004,-0.0005610000000000001,0.002254,-32.0,3.37,-21.75,2b
2019-07-15_154829:000,-0.267914,-0.012695,-0.421967,-0.003145,-0.0006219999999999999,0.002315,-32.0,3.37,-21.75,2b
2019-07-15_154829:020,-0.269958,-0.012177,-0.420441,-0.003389,-0.000683,0.002467,-32.0,3.37,-21.75,2b
2019-07-15_154829:040,-0.268951,-0.012177,-0.41995200000000005,-0.003786,-0.0005,0.0031079999999999997,-32.0,2.68,-21.25,2b
2019-07-15_154829:060,-0.266388,-0.014740000000000001,-0.418915,-0.003999,-0.0008349999999999999,0.003016,-32.0,2.68,-21.25,2b
2019-07-15_154829:080,-0.264862,-0.014221000000000001,-0.41943400000000003,-0.004182,-0.0011099999999999999,0.002467,-31.370001000000002,2.68,-22.5,2b
2019-07-15_154829:100,-0.266388,-0.016753999999999998,-0.41943400000000003,-0.0038770000000000002,-0.001202,0.0024059999999999997,-31.370001000000002,2.68,-22.5,2b
2019-07-15_154829:120,-0.266907,-0.016266,-0.420959,-0.0033280000000000002,-0.001141,0.002467,-31.370001000000002,2.68,-22.5,2b
2019-07-15_154829:140,-0.267426,-0.016753999999999998,-0.41995200000000005,-0.0029010000000000004,-0.001537,0.0024059999999999997,-31.370001000000002,3.75,-21.0,2b
2019-07-15_154829:160,-0.267426,-0.015228,-0.41995200000000005,-0.0023510000000000002,-0.001385,0.002131,-31.370001000000002,3.75,-21.0,2b
2019-07-15_154829:180,-0.268433,-0.014740000000000001,-0.42248500000000005,-0.00229,-0.001446,0.002315,-31.68,2.25,-23.0,2b
2019-07-15_154829:200,-0.265381,-0.011687999999999999,-0.42147799999999996,-0.0026260000000000003,-0.001385,0.002009,-31.68,2.25,-23.0,2b
2019-07-15_154829:220,-0.264862,-0.011687999999999999,-0.420441,-0.003084,-0.0014759999999999999,0.001979,-31.68,2.25,-23.0,2b
2019-07-15_154829:240,-0.265381,-0.013702,-0.423492,-0.0032670000000000004,-0.0016589999999999999,0.00207,-32.369999,3.37,-23.0,2b
2019-07-15_154829:260,-0.265381,-0.014740000000000001,-0.420959,-0.003389,-0.001782,0.002254,-32.369999,3.37,-23.0,2b
2019-07-15_154829:280,-0.267426,-0.015228,-0.423004,-0.0034799999999999996,-0.001873,0.0024059999999999997,-32.369999,3.37,-22.5,2b
2019-07-15_154829:300,-0.267426,-0.015228,-0.42248500000000005,-0.003206,-0.0014759999999999999,0.002589,-32.369999,3.37,-22.5,2b
2019-07-15_154829:320,-0.267426,-0.012695,-0.42248500000000005,-0.003023,-0.001385,0.002711,-32.369999,3.37,-22.5,2b
2019-07-15_154829:340,-0.2659,-0.012177,-0.42401099999999997,-0.003145,-0.001202,0.00265,-32.0,3.06,-21.25,2b
2019-07-15_154829:360,-0.265381,-0.012695,-0.423004,-0.003389,-0.001019,0.0027719999999999997,-32.0,3.06,-21.25,2b
2019-07-15_154829:380,-0.264374,-0.012695,-0.423492,-0.0034799999999999996,-0.001263,0.0028940000000000003,-32.369999,2.68,-22.5,2b
2019-07-15_154829:400,-0.267914,-0.013702,-0.423004,-0.003542,-0.0008349999999999999,0.002711,-32.369999,2.68,-22.5,2b
2019-07-15_154829:420,-0.266388,-0.013213999999999998,-0.423004,-0.0034799999999999996,-0.0007740000000000001,0.003078,-32.369999,2.68,-22.5,2b
2019-07-15_154829:440,-0.268433,-0.015228,-0.42248500000000005,-0.0034799999999999996,-0.0007740000000000001,0.0031079999999999997,-32.369999,2.68,-21.75,2b
2019-07-15_154829:460,-0.26944,-0.013213999999999998,-0.420441,-0.00345,-0.0007440000000000001,0.0034130000000000002,-32.369999,2.68,-21.75,2b
2019-07-15_154829:480,-0.265381,-0.013213999999999998,-0.421967,-0.003542,-0.0005610000000000001,0.003749,-32.369999,3.06,-22.5,2b
2019-07-15_154829:500,-0.260284,-0.013702,-0.421967,-0.0038770000000000002,-0.000958,0.002376,-32.369999,3.06,-22.5,2b
2019-07-15_154829:520,-0.262329,-0.013702,-0.42248500000000005,-0.004274,-0.001385,0.002376,-32.369999,3.06,-22.5,2b
2019-07-15_154829:540,-0.264862,-0.015747,-0.425018,-0.0038770000000000002,-0.0011099999999999999,0.003016,-32.0,3.06,-21.25,2b
2019-07-15_154829:560,-0.267914,-0.015228,-0.42401099999999997,-0.0033280000000000002,-0.000958,0.0024059999999999997,-32.0,3.06,-21.25,2b
2019-07-15_154829:580,-0.269958,-0.016266,-0.425537,-0.003084,-0.0006219999999999999,0.002254,-32.0,3.06,-21.25,2b
2019-07-15_154829:600,-0.267426,-0.015228,-0.42453,-0.0023510000000000002,0.00035499999999999996,0.0028940000000000003,-32.369999,2.68,-21.75,2b
2019-07-15_154829:620,-0.263855,-0.012695,-0.421967,-0.002229,0.0005679999999999999,0.0031079999999999997,-32.369999,2.68,-21.75,2b
2019-07-15_154829:640,-0.263336,-0.011169,-0.420959,-0.002779,-0.000103,0.002955,-31.370001000000002,3.37,-22.18,2b
2019-07-15_154829:660,-0.263336,-0.011169,-0.41995200000000005,-0.003084,-0.000439,0.0027719999999999997,-31.370001000000002,3.37,-22.18,2b
2019-07-15_154829:680,-0.267426,-0.011687999999999999,-0.421967,-0.003664,-0.0006219999999999999,0.0036270000000000004,-32.75,2.68,-21.75,2b
2019-07-15_154829:700,-0.268951,-0.012695,-0.418915,-0.004182,-0.000683,0.0034130000000000002,-32.75,2.68,-21.75,2b
2019-07-15_154829:720,-0.268951,-0.016266,-0.420441,-0.00406,-0.000439,0.00265,-32.75,2.68,-21.75,2b
2019-07-15_154829:740,-0.267426,-0.016266,-0.420959,-0.004182,-0.0005610000000000001,0.0024059999999999997,-31.68,3.37,-21.25,2b
2019-07-15_154829:760,-0.266388,-0.016266,-0.420959,-0.003664,-0.000683,0.003016,-31.68,3.37,-21.25,2b
2019-07-15_154829:780,-0.266907,-0.016753999999999998,-0.420441,-0.003084,-0.00037799999999999997,0.0032909999999999997,-31.68,2.68,-22.5,2b
2019-07-15_154829:800,-0.266388,-0.014740000000000001,-0.41943400000000003,-0.0029620000000000002,-0.0005610000000000001,0.002955,-31.68,2.68,-22.5,2b
2019-07-15_154829:820,-0.266388,-0.012695,-0.41995200000000005,-0.002779,-0.00037799999999999997,0.002742,-31.68,2.68,-22.5,2b
2019-07-15_154829:840,-0.266388,-0.012177,-0.41943400000000003,-0.003084,-0.0007740000000000001,0.002467,-32.369999,3.75,-23.0,2b
2019-07-15_154829:860,-0.265381,-0.012177,-0.418915,-0.003664,-0.000958,0.002467,-32.369999,3.75,-23.0,2b
2019-07-15_154829:880,-0.265381,-0.012177,-0.41995200000000005,-0.003664,-0.001324,0.002467,-32.369999,3.75,-23.0,2b
2019-07-15_154829:900,-0.266388,-0.013702,-0.421967,-0.0038770000000000002,-0.0016589999999999999,0.002376,-32.0,3.37,-21.75,2b
2019-07-15_154829:920,-0.266388,-0.013702,-0.42248500000000005,-0.003999,-0.001537,0.002589,-32.0,3.37,-21.75,2b
2019-07-15_154829:940,-0.264862,-0.014740000000000001,-0.421967,-0.0034799999999999996,-0.001782,0.002589,-31.370001000000002,3.06,-22.18,2b
2019-07-15_154829:960,-0.266388,-0.013702,-0.421967,-0.003145,-0.001873,0.0028940000000000003,-31.370001000000002,3.06,-22.18,2b
2019-07-15_154829:980,-0.266388,-0.013213999999999998,-0.423492,-0.003114,-0.0014759999999999999,0.002833,-32.369999,2.68,-23.0,2b
2019-07-15_154830:000,-0.266388,-0.013213999999999998,-0.421967,-0.003084,-0.001385,0.0027719999999999997,-32.369999,2.68,-23.0,2b
2019-07-15_154830:020,-0.266388,-0.013702,-0.423004,-0.003084,-0.001019,0.003016,-32.369999,2.68,-23.0,2b
2019-07-15_154830:040,-0.264862,-0.013213999999999998,-0.423492,-0.003206,-0.000958,0.003016,-31.68,2.25,-23.0,2b
2019-07-15_154830:060,-0.264862,-0.015228,-0.42248500000000005,-0.0029620000000000002,-0.00108,0.00265,-31.68,2.25,-23.0,2b
2019-07-15_154830:080,-0.2659,-0.013702,-0.42248500000000005,-0.003023,-0.0011099999999999999,0.0025280000000000003,-31.68,2.25,-23.0,2b
2019-07-15_154830:100,-0.2659,-0.014740000000000001,-0.421967,-0.0026260000000000003,-0.000897,0.002742,-32.369999,2.68,-21.75,2b
2019-07-15_154830:120,-0.268951,-0.014740000000000001,-0.421967,-0.0028399999999999996,-0.0008349999999999999,0.002589,-32.369999,2.68,-21.75,2b
2019-07-15_154830:140,-0.267426,-0.012695,-0.42248500000000005,-0.002565,-0.000683,0.0028940000000000003,-32.369999,2.68,-22.5,2b
2019-07-15_154830:160,-0.263855,-0.013702,-0.41943400000000003,-0.0029620000000000002,-0.0005610000000000001,0.002315,-32.369999,2.68,-22.5,2b
2019-07-15_154830:180,-0.261322,-0.012177,-0.42248500000000005,-0.00345,-0.0005,0.001399,-32.369999,2.68,-22.5,2b
2019-07-15_154830:200,-0.260803,-0.013213999999999998,-0.423492,-0.003389,-0.001141,0.001979,-32.369999,3.75,-21.25,2b
2019-07-15_154830:220,-0.262848,-0.015228,-0.42453,-0.003542,-0.0014759999999999999,0.002131,-32.369999,3.75,-21.25,2b
2019-07-15_154830:240,-0.268951,-0.015747,-0.425018,-0.0032670000000000004,-0.0016589999999999999,0.001796,-32.369999,2.68,-22.18,2b
2019-07-15_154830:260,-0.268433,-0.015747,-0.423492,-0.002443,-0.0008349999999999999,0.001918,-32.369999,2.68,-22.18,2b
2019-07-15_154830:280,-0.266907,-0.013213999999999998,-0.42453,-0.001771,-0.000286,0.002376,-32.369999,2.68,-22.18,2b
2019-07-15_154830:300,-0.2659,-0.012177,-0.42248500000000005,-0.0016190000000000002,-0.000225,0.002589,-31.68,3.06,-22.18,2b
2019-07-15_154830:320,-0.263336,-0.010651,-0.421967,-0.002107,5e-05,0.00265,-31.68,3.06,-22.18,2b
2019-07-15_154830:340,-0.263855,-0.010162000000000001,-0.421967,-0.0026260000000000003,0.000294,0.0025280000000000003,-32.0,2.25,-21.0,2b
2019-07-15_154830:360,-0.26944,-0.010651,-0.420959,-0.00345,-0.00034700000000000003,0.002955,-32.0,2.25,-21.0,2b
2019-07-15_154830:380,-0.266907,-0.012695,-0.420959,-0.0036030000000000003,-0.000225,0.00323,-32.0,2.25,-21.0,2b
2019-07-15_154830:400,-0.266388,-0.015228,-0.420959,-0.003725,-0.000286,0.0028940000000000003,-32.369999,3.75,-21.25,2b
2019-07-15_154830:420,-0.264862,-0.015747,-0.41995200000000005,-0.0038469999999999997,-0.0006219999999999999,0.002742,-32.369999,3.75,-21.25,2b
2019-07-15_154830:440,-0.264374,-0.016266,-0.420441,-0.0034799999999999996,-0.0008349999999999999,0.0028940000000000003,-32.0,2.68,-21.75,2b
2019-07-15_154830:460,-0.266907,-0.016753999999999998,-0.420441,-0.003114,-0.00108,0.003078,-32.0,2.68,-21.75,2b
2019-07-15_154830:480,-0.265381,-0.015747,-0.421967,-0.002748,-0.00108,0.00265,-32.0,2.68,-21.75,2b
2019-07-15_154830:500,-0.2659,-0.014740000000000001,-0.421967,-0.002565,-0.0011099999999999999,0.002254,-32.0,3.37,-22.18,2b
2019-07-15_154830:520,-0.2659,-0.013702,-0.421967,-0.002382,-0.001324,0.002315,-32.0,3.37,-22.18,2b
2019-07-15_154830:540,-0.266388,-0.012177,-0.421967,-0.002382,-0.0011099999999999999,0.002315,-32.0,2.68,-21.75,2b
2019-07-15_154830:560,-0.264374,-0.011687999999999999,-0.421967,-0.0029010000000000004,-0.001446,0.002315,-32.0,2.68,-21.75,2b
2019-07-15_154830:580,-0.264862,-0.012695,-0.423492,-0.0028399999999999996,-0.001324,0.0021920000000000004,-32.0,2.68,-21.75,2b
2019-07-15_154830:600,-0.266388,-0.012695,-0.423004,-0.003206,-0.001324,0.0025280000000000003,-31.370001000000002,2.68,-21.25,2b
2019-07-15_154830:620,-0.266388,-0.013213999999999998,-0.423004,-0.00345,-0.001141,0.002742,-31.370001000000002,2.68,-21.25,2b
2019-07-15_154830:640,-0.265381,-0.014221000000000001,-0.423004,-0.003114,-0.00108,0.002955,-32.369999,3.06,-21.75,2b
2019-07-15_154830:660,-0.265381,-0.013213999999999998,-0.421967,-0.003145,-0.000958,0.003078,-32.369999,3.06,-21.75,2b
2019-07-15_154830:680,-0.264374,-0.014740000000000001,-0.42248500000000005,-0.003023,-0.001019,0.0031079999999999997,-32.369999,3.06,-21.75,2b
2019-07-15_154830:700,-0.265381,-0.014221000000000001,-0.42248500000000005,-0.0033280000000000002,-0.001019,0.003169,-32.369999,2.68,-22.5,2b
2019-07-15_154830:720,-0.264374,-0.014740000000000001,-0.42248500000000005,-0.003206,-0.001202,0.003016,-32.369999,2.68,-22.5,2b
2019-07-15_154830:740,-0.265381,-0.015228,-0.42453,-0.003145,-0.0011099999999999999,0.0028940000000000003,-32.369999,3.37,-22.18,2b
2019-07-15_154830:760,-0.266388,-0.016266,-0.423492,-0.003114,-0.001019,0.002833,-32.369999,3.37,-22.18,2b
2019-07-15_154830:780,-0.265381,-0.016266,-0.423492,-0.003023,-0.00108,0.002833,-32.369999,3.37,-22.18,2b
2019-07-15_154830:800,-0.26944,-0.016266,-0.421967,-0.0032670000000000004,-0.001019,0.002711,-31.0,3.06,-22.18,2b
2019-07-15_154830:820,-0.270477,-0.013702,-0.421967,-0.003023,-0.0007740000000000001,0.002711,-31.0,3.06,-22.18,2b
2019-07-15_154830:840,-0.265381,-0.013213999999999998,-0.420441,-0.003206,-0.0005610000000000001,0.003169,-31.68,3.37,-23.25,2b
2019-07-15_154830:860,-0.26181,-0.013213999999999998,-0.420959,-0.003542,-0.000164,0.002254,-31.68,3.37,-23.25,2b
2019-07-15_154830:880,-0.261322,-0.012695,-0.42248500000000005,-0.004182,-0.0005610000000000001,0.001796,-31.68,3.37,-23.25,2b
2019-07-15_154830:900,-0.262848,-0.015747,-0.423492,-0.004121,-0.001141,0.0024059999999999997,-32.369999,3.75,-21.75,2b
2019-07-15_154830:920,-0.2659,-0.017273,-0.423004,-0.0039380000000000005,-0.001141,0.002376,-32.369999,3.75,-21.75,2b
2019-07-15_154830:940,-0.267426,-0.016266,-0.42401099999999997,-0.003206,-0.001019,0.001979,-33.18,3.37,-22.18,2b
2019-07-15_154830:960,-0.267914,-0.014221000000000001,-0.421967,-0.002382,-0.000683,0.002315,-33.18,3.37,-22.18,2b
2019-07-15_154830:980,-0.264862,-0.013702,-0.42248500000000005,-0.0019850000000000002,-0.000286,0.002833,-33.18,3.37,-22.18,2b
2019-07-15_154831:000,-0.263855,-0.012695,-0.421967,-0.002168,-4.2e-05,0.0028940000000000003,-31.370001000000002,3.37,-21.0,2b
2019-07-15_154831:020,-0.264862,-0.011169,-0.421967,-0.002748,-0.0005610000000000001,0.0025280000000000003,-31.370001000000002,3.37,-21.0,2b
2019-07-15_154831:040,-0.266388,-0.011687999999999999,-0.421967,-0.003206,-0.000958,0.0025280000000000003,-31.68,3.37,-21.25,2b
2019-07-15_154831:060,-0.268433,-0.014740000000000001,-0.420959,-0.003725,-0.000958,0.0027719999999999997,-31.68,3.37,-21.25,2b
2019-07-15_154831:080,-0.267914,-0.016266,-0.42147799999999996,-0.003725,-0.000439,0.002833,-31.68,3.37,-21.25,2b
2019-07-15_154831:100,-0.267426,-0.015228,-0.42147799999999996,-0.003725,-0.000439,0.002742,-32.0,2.68,-21.25,2b
2019-07-15_154831:120,-0.264374,-0.015747,-0.420441,-0.0036030000000000003,-0.0007440000000000001,0.002376,-32.0,2.68,-21.25,2b
2019-07-15_154831:140,-0.264374,-0.016266,-0.41943400000000003,-0.0034799999999999996,-0.00108,0.002315,-32.0,2.68,-22.18,2b
2019-07-15_154831:160,-0.264862,-0.015228,-0.41943400000000003,-0.003389,-0.001202,0.0021920000000000004,-32.0,2.68,-22.18,2b
2019-07-15_154831:180,-0.264862,-0.015228,-0.420959,-0.003145,-0.001324,0.002254,-32.0,2.68,-22.18,2b
2019-07-15_154831:200,-0.263855,-0.014221000000000001,-0.421967,-0.003084,-0.001324,0.002131,-32.0,3.06,-23.25,2b
2019-07-15_154831:220,-0.262848,-0.012695,-0.42248500000000005,-0.0029620000000000002,-0.0014759999999999999,0.002254,-32.0,3.06,-23.25,2b
2019-07-15_154831:240,-0.264374,-0.012177,-0.42248500000000005,-0.003114,-0.00172,0.002009,-32.75,3.06,-22.18,2b
2019-07-15_154831:260,-0.264374,-0.012695,-0.42248500000000005,-0.003114,-0.001995,0.002254,-32.75,3.06,-22.18,2b
2019-07-15_154831:280,-0.264374,-0.010651,-0.425537,-0.003389,-0.001782,0.0021920000000000004,-32.75,3.06,-22.18,2b
2019-07-15_154831:300,-0.266388,-0.011687999999999999,-0.425537,-0.003664,-0.001873,0.002467,-31.68,3.37,-21.25,2b
2019-07-15_154831:320,-0.2659,-0.012177,-0.42401099999999997,-0.003664,-0.0016589999999999999,0.002833,-31.68,3.37,-21.25,2b
2019-07-15_154831:340,-0.265381,-0.012177,-0.425018,-0.00406,-0.0014759999999999999,0.0027719999999999997,-31.370001000000002,3.06,-22.18,2b
2019-07-15_154831:360,-0.264862,-0.013213999999999998,-0.42453,-0.003786,-0.001385,0.002955,-31.370001000000002,3.06,-22.18,2b
2019-07-15_154831:380,-0.265381,-0.013702,-0.42401099999999997,-0.003725,-0.001202,0.00323,-31.370001000000002,3.06,-22.18,2b
2019-07-15_154831:400,-0.264862,-0.012695,-0.42401099999999997,-0.003725,-0.000958,0.003505,-31.68,3.75,-21.75,2b
2019-07-15_154831:420,-0.263855,-0.012695,-0.423492,-0.003725,-0.0007740000000000001,0.003474,-31.68,3.75,-21.75,2b
2019-07-15_154831:440,-0.264374,-0.014221000000000001,-0.423004,-0.0038770000000000002,-0.0011099999999999999,0.00323,-33.18,3.37,-22.5,2b
2019-07-15_154831:460,-0.263336,-0.013213999999999998,-0.421967,-0.0033280000000000002,-0.000683,0.0033520000000000004,-33.18,3.37,-22.5,2b
2019-07-15_154831:480,-0.263855,-0.014221000000000001,-0.425018,-0.003389,-0.001141,0.003505,-33.18,3.37,-22.5,2b
2019-07-15_154831:500,-0.265381,-0.014740000000000001,-0.423004,-0.003389,-0.000958,0.003169,-32.0,2.25,-22.5,2b
2019-07-15_154831:520,-0.266388,-0.013213999999999998,-0.42453,-0.003114,-0.000958,0.00323,-32.0,2.25,-22.5,2b
2019-07-15_154831:540,-0.266907,-0.013702,-0.42248500000000005,-0.003023,-0.0007740000000000001,0.0032909999999999997,-31.370001000000002,3.06,-23.0,2b
2019-07-15_154831:560,-0.266907,-0.012695,-0.420959,-0.0029010000000000004,-0.0008349999999999999,0.003169,-31.370001000000002,3.06,-23.0,2b
2019-07-15_154831:580,-0.264374,-0.012177,-0.421967,-0.003114,-0.0005610000000000001,0.003749,-31.370001000000002,3.06,-23.0,2b
2019-07-15_154831:600,-0.259796,-0.012177,-0.420959,-0.003664,-0.000683,0.0032909999999999997,-32.369999,2.68,-21.75,2b
2019-07-15_154831:620,-0.260803,-0.011687999999999999,-0.42453,-0.004243,-0.001324,0.0021920000000000004,-32.369999,2.68,-21.75,2b
2019-07-15_154831:640,-0.262329,-0.014221000000000001,-0.425018,-0.0039380000000000005,-0.0014759999999999999,0.002955,-32.0,3.06,-22.5,2b
2019-07-15_154831:660,-0.2659,-0.016753999999999998,-0.425537,-0.003999,-0.001446,0.002955,-32.0,3.06,-22.5,2b
2019-07-15_154831:680,-0.266907,-0.016266,-0.425537,-0.0036030000000000003,-0.000958,0.0024059999999999997,-32.0,3.06,-22.5,2b
2019-07-15_154831:700,-0.267426,-0.015747,-0.425018,-0.0029010000000000004,-0.00037799999999999997,0.002711,-32.75,3.37,-22.5,2b
2019-07-15_154831:720,-0.263855,-0.015228,-0.421967,-0.002687,5e-05,0.0032909999999999997,-32.75,3.37,-22.5,2b
2019-07-15_154831:740,-0.262329,-0.014221000000000001,-0.423004,-0.002382,0.000294,0.0033520000000000004,-31.370001000000002,4.18,-23.0,2b
2019-07-15_154831:760,-0.262848,-0.012177,-0.420959,-0.002687,-4.2e-05,0.002833,-31.370001000000002,4.18,-23.0,2b
2019-07-15_154831:780,-0.264862,-0.013213999999999998,-0.42248500000000005,-0.003145,-0.00037799999999999997,0.002742,-31.370001000000002,4.18,-23.0,2b
2019-07-15_154831:800,-0.268433,-0.013702,-0.421967,-0.003725,-0.000683,0.0031079999999999997,-32.0,3.06,-21.75,2b
2019-07-15_154831:820,-0.264862,-0.015747,-0.42147799999999996,-0.0038469999999999997,-0.00034700000000000003,0.003169,-32.0,3.06,-21.75,2b
2019-07-15_154831:840,-0.264862,-0.016266,-0.42248500000000005,-0.003786,-0.0007740000000000001,0.002254,-32.369999,3.37,-22.5,2b
2019-07-15_154831:860,-0.264862,-0.015747,-0.420959,-0.003725,-0.0008349999999999999,0.002589,-32.369999,3.37,-22.5,2b
2019-07-15_154831:880,-0.265381,-0.015228,-0.42147799999999996,-0.003389,-0.0008349999999999999,0.002742,-32.369999,3.37,-22.5,2b
2019-07-15_154831:900,-0.266907,-0.014740000000000001,-0.421967,-0.002779,-0.0007440000000000001,0.00265,-31.370001000000002,3.06,-23.68,2b
2019-07-15_154831:920,-0.265381,-0.013702,-0.420441,-0.0029620000000000002,-0.0007740000000000001,0.002742,-31.370001000000002,3.06,-23.68,2b
2019-07-15_154831:940,-0.265381,-0.011687999999999999,-0.421967,-0.003389,-0.0008349999999999999,0.002589,-31.68,3.37,-21.75,2b
2019-07-15_154831:960,-0.265381,-0.011169,-0.420959,-0.0036030000000000003,-0.0008349999999999999,0.0025280000000000003,-31.68,3.37,-21.75,2b
2019-07-15_154831:980,-0.263336,-0.013213999999999998,-0.42147799999999996,-0.0039380000000000005,-0.000897,0.002315,-31.68,3.37,-21.75,2b
2019-07-15_154832:000,-0.265381,-0.014221000000000001,-0.42248500000000005,-0.0039380000000000005,-0.0011099999999999999,0.002315,-32.369999,3.37,-22.5,2b
2019-07-15_154832:020,-0.264862,-0.014221000000000001,-0.421967,-0.0039380000000000005,-0.001202,0.002376,-32.369999,3.37,-22.5,2b
2019-07-15_154832:040,-0.265381,-0.015228,-0.421967,-0.003389,-0.0014759999999999999,0.002315,-31.370001000000002,3.06,-22.5,2b
2019-07-15_154832:060,-0.264862,-0.013702,-0.420959,-0.0033280000000000002,-0.001202,0.0025280000000000003,-31.370001000000002,3.06,-22.5,2b
2019-07-15_154832:080,-0.262848,-0.014221000000000001,-0.423492,-0.0029620000000000002,-0.001324,0.00265,-31.370001000000002,3.06,-22.5,2b
2019-07-15_154832:100,-0.263336,-0.015228,-0.423004,-0.0028399999999999996,-0.001202,0.0024059999999999997,-32.0,3.06,-21.75,2b
2019-07-15_154832:120,-0.263336,-0.013213999999999998,-0.425018,-0.002687,-0.001446,0.002315,-32.0,3.06,-21.75,2b
2019-07-15_154832:140,-0.264862,-0.012177,-0.425018,-0.002748,-0.001446,0.002376,-31.370001000000002,3.37,-22.5,2b
2019-07-15_154832:160,-0.2659,-0.013702,-0.42453,-0.003023,-0.00108,0.0024059999999999997,-31.370001000000002,3.37,-22.5,2b
2019-07-15_154832:180,-0.263336,-0.011687999999999999,-0.425018,-0.003023,-0.000958,0.002376,-31.370001000000002,3.37,-22.5,2b
2019-07-15_154832:200,-0.264374,-0.013702,-0.425537,-0.003206,-0.00108,0.002315,-32.0,2.68,-21.25,2b
2019-07-15_154832:220,-0.264862,-0.013702,-0.423004,-0.003145,-0.0008349999999999999,0.0021920000000000004,-32.0,2.68,-21.25,2b
2019-07-15_154832:240,-0.263855,-0.013702,-0.42401099999999997,-0.0032670000000000004,-0.0006219999999999999,0.0024059999999999997,-31.370001000000002,3.06,-21.75,2b
2019-07-15_154832:260,-0.264374,-0.014740000000000001,-0.42248500000000005,-0.003206,-0.001019,0.0027719999999999997,-31.370001000000002,3.06,-21.75,2b
2019-07-15_154832:280,-0.266388,-0.015228,-0.423004,-0.003023,-0.000897,0.002711,-31.370001000000002,3.06,-21.75,2b
2019-07-15_154832:300,-0.264862,-0.012695,-0.423492,-0.0029010000000000004,-0.0007440000000000001,0.0027719999999999997,-31.68,3.06,-22.5,2b
2019-07-15_154832:320,-0.263855,-0.011687999999999999,-0.420959,-0.0029620000000000002,-0.00037799999999999997,0.003016,-31.68,3.06,-22.5,2b
2019-07-15_154832:340,-0.260803,-0.012177,-0.421967,-0.0033280000000000002,-0.0007440000000000001,0.001857,-32.369999,3.37,-22.18,2b
2019-07-15_154832:360,-0.259796,-0.011169,-0.421967,-0.0038770000000000002,-0.001141,0.002009,-32.369999,3.37,-22.18,2b
2019-07-15_154832:380,-0.261322,-0.012695,-0.42453,-0.00406,-0.00108,0.002315,-32.369999,3.37,-22.18,2b
2019-07-15_154832:400,-0.264862,-0.015228,-0.42453,-0.0039380000000000005,-0.00172,0.001796,-32.369999,3.37,-22.18,2b
2019-07-15_154832:420,-0.267914,-0.016266,-0.42453,-0.0033280000000000002,-0.001141,0.0017350000000000002,-32.369999,3.37,-22.18,2b
2019-07-15_154832:440,-0.26944,-0.015747,-0.425537,-0.002443,-0.0007440000000000001,0.0021920000000000004,-32.0,2.68,-22.5,2b
2019-07-15_154832:460,-0.264374,-0.014221000000000001,-0.423492,-0.0017100000000000001,5e-05,0.00265,-32.0,2.68,-22.5,2b
2019-07-15_154832:480,-0.264374,-0.012695,-0.42401099999999997,-0.0016489999999999999,-0.000103,0.002315,-32.0,2.68,-22.5,2b
2019-07-15_154832:500,-0.263336,-0.010651,-0.42401099999999997,-0.002046,-0.00034700000000000003,0.002009,-31.68,2.68,-22.5,2b
2019-07-15_154832:520,-0.264374,-0.010162000000000001,-0.423004,-0.00229,-0.00034700000000000003,0.002131,-31.68,2.68,-22.5,2b
2019-07-15_154832:540,-0.268433,-0.011169,-0.421967,-0.002779,-0.0005,0.002589,-32.0,2.68,-21.75,2b
2019-07-15_154832:560,-0.264374,-0.011687999999999999,-0.420959,-0.003389,-0.00034700000000000003,0.0025280000000000003,-32.0,2.68,-21.75,2b
2019-07-15_154832:580,-0.264374,-0.012177,-0.421967,-0.003664,-0.0008349999999999999,0.002131,-32.0,2.68,-21.75,2b
2019-07-15_154832:600,-0.263855,-0.013213999999999998,-0.423492,-0.0036030000000000003,-0.0011099999999999999,0.002131,-31.370001000000002,3.06,-22.5,2b
2019-07-15_154832:620,-0.264374,-0.014740000000000001,-0.420441,-0.0032670000000000004,-0.00108,0.0024059999999999997,-31.370001000000002,3.06,-22.5,2b
2019-07-15_154832:640,-0.264374,-0.013213999999999998,-0.42248500000000005,-0.0029620000000000002,-0.000897,0.0027719999999999997,-31.68,2.25,-21.0,2b
2019-07-15_154832:660,-0.264374,-0.013702,-0.421967,-0.0029010000000000004,-0.00108,0.002742,-31.68,2.25,-21.0,2b
2019-07-15_154832:680,-0.263855,-0.013213999999999998,-0.423004,-0.002779,-0.00108,0.00265,-31.68,2.25,-21.0,2b
2019-07-15_154832:700,-0.263336,-0.013213999999999998,-0.423004,-0.0029010000000000004,-0.001263,0.002589,-31.370001000000002,3.06,-21.0,2b
2019-07-15_154832:720,-0.264374,-0.011169,-0.423004,-0.0028399999999999996,-0.001263,0.0025280000000000003,-31.370001000000002,3.06,-21.0,2b
2019-07-15_154832:740,-0.264374,-0.012695,-0.425018,-0.003084,-0.001385,0.0025280000000000003,-31.68,3.06,-22.5,2b
2019-07-15_154832:760,-0.264862,-0.012177,-0.425537,-0.003206,-0.001202,0.0024059999999999997,-31.68,3.06,-22.5,2b
2019-07-15_154832:780,-0.265381,-0.012695,-0.425018,-0.0032670000000000004,-0.001263,0.002315,-31.68,3.06,-22.5,2b
2019-07-15_154832:800,-0.265381,-0.012695,-0.423492,-0.003145,-0.0008349999999999999,0.0025280000000000003,-31.68,2.68,-23.0,2b
2019-07-15_154832:820,-0.264374,-0.013213999999999998,-0.42248500000000005,-0.003023,-0.0005610000000000001,0.002711,-31.68,2.68,-23.0,2b
2019-07-15_154832:840,-0.264374,-0.013213999999999998,-0.423004,-0.003023,-0.0005,0.0027719999999999997,-32.0,3.37,-21.25,2b
2019-07-15_154832:860,-0.262848,-0.013702,-0.423004,-0.003145,-0.000683,0.0028940000000000003,-32.0,3.37,-21.25,2b
2019-07-15_154832:880,-0.264374,-0.012695,-0.421967,-0.003084,-0.0006219999999999999,0.002833,-32.0,3.37,-21.25,2b
2019-07-15_154832:900,-0.264374,-0.013702,-0.423492,-0.003145,-0.00034700000000000003,0.003016,-31.370001000000002,2.68,-23.0,2b
2019-07-15_154832:920,-0.263336,-0.013702,-0.42147799999999996,-0.0033280000000000002,-0.0007740000000000001,0.002833,-31.370001000000002,2.68,-23.0,2b
2019-07-15_154832:940,-0.263855,-0.014740000000000001,-0.42401099999999997,-0.003542,-0.0007440000000000001,0.0025280000000000003,-32.0,2.68,-22.5,2b
2019-07-15_154832:960,-0.265381,-0.016266,-0.42401099999999997,-0.003206,-0.0008349999999999999,0.002376,-32.0,2.68,-22.5,2b
2019-07-15_154832:980,-0.264374,-0.015747,-0.423004,-0.0029620000000000002,-0.0006219999999999999,0.0025280000000000003,-32.0,2.68,-22.5,2b
2019-07-15_154833:000,-0.263336,-0.016266,-0.42453,-0.0023510000000000002,-0.0005610000000000001,0.0021920000000000004,-32.75,2.68,-21.25,2b
2019-07-15_154833:020,-0.268433,-0.014740000000000001,-0.423492,-0.0023510000000000002,-0.0007440000000000001,0.002315,-32.75,2.68,-21.25,2b
2019-07-15_154833:040,-0.268433,-0.010651,-0.423004,-0.0023510000000000002,-0.000286,0.002711,-31.370001000000002,3.06,-21.0,2b
2019-07-15_154833:060,-0.263855,-0.011169,-0.420959,-0.0029010000000000004,-0.000225,0.002467,-31.370001000000002,3.06,-21.0,2b
2019-07-15_154833:080,-0.262329,-0.010651,-0.42147799999999996,-0.0036030000000000003,-0.00037799999999999997,0.001674,-31.370001000000002,3.06,-21.0,2b
2019-07-15_154833:100,-0.258759,-0.011169,-0.421967,-0.004182,-0.0006219999999999999,0.002009,-32.369999,2.68,-23.0,2b
2019-07-15_154833:120,-0.261322,-0.014221000000000001,-0.421967,-0.004243,-0.001202,0.002376,-32.369999,2.68,-23.0,2b
2019-07-15_154833:140,-0.264374,-0.016266,-0.42401099999999997,-0.0038469999999999997,-0.0016589999999999999,0.002009,-32.75,3.37,-23.0,2b
2019-07-15_154833:160,-0.267914,-0.016266,-0.42453,-0.003084,-0.0008349999999999999,0.00207,-32.75,3.37,-23.0,2b
2019-07-15_154833:180,-0.267426,-0.014740000000000001,-0.425537,-0.0023510000000000002,-0.000164,0.002742,-32.75,3.37,-23.0,2b
2019-07-15_154833:200,-0.264374,-0.012177,-0.423004,-0.002107,-0.000103,0.002711,-32.369999,3.37,-21.75,2b
2019-07-15_154833:220,-0.262848,-0.010651,-0.421967,-0.002687,-0.000164,0.0028940000000000003,-32.369999,3.37,-21.75,2b
2019-07-15_154833:240,-0.263855,-0.010651,-0.421967,-0.003145,-0.0005,0.002589,-32.369999,2.68,-21.75,2b
2019-07-15_154833:260,-0.264862,-0.011169,-0.421967,-0.003389,-0.000225,0.002711,-32.369999,2.68,-21.75,2b
2019-07-15_154833:280,-0.266388,-0.013213999999999998,-0.421967,-0.0038770000000000002,-0.000683,0.0028940000000000003,-32.369999,2.68,-21.75,2b
2019-07-15_154833:300,-0.266907,-0.014221000000000001,-0.42147799999999996,-0.00406,-0.0006219999999999999,0.003078,-31.370001000000002,3.06,-22.5,2b
2019-07-15_154833:320,-0.2659,-0.014221000000000001,-0.41995200000000005,-0.0036030000000000003,-0.0008349999999999999,0.002711,-31.370001000000002,3.06,-22.5,2b
2019-07-15_154833:340,-0.264374,-0.013213999999999998,-0.420959,-0.0036030000000000003,-0.001019,0.002742,-31.68,3.06,-22.18,2b
2019-07-15_154833:360,-0.263336,-0.013213999999999998,-0.423492,-0.0033280000000000002,-0.0008349999999999999,0.00265,-31.68,3.06,-22.18,2b
2019-07-15_154833:380,-0.263336,-0.013213999999999998,-0.42248500000000005,-0.0032670000000000004,-0.000958,0.002589,-31.68,3.06,-22.18,2b
2019-07-15_154833:400,-0.264374,-0.012177,-0.423004,-0.003542,-0.001019,0.002589,-31.370001000000002,2.68,-22.5,2b
2019-07-15_154833:420,-0.263855,-0.012695,-0.420959,-0.003389,-0.0011099999999999999,0.00265,-31.370001000000002,2.68,-22.5,2b
2019-07-15_154833:440,-0.263336,-0.012177,-0.42248500000000005,-0.0034799999999999996,-0.001537,0.0025280000000000003,-37.869999,2.68,-21.75,2b
2019-07-15_154833:460,-0.262848,-0.013213999999999998,-0.42147799999999996,-0.0036030000000000003,-0.001446,0.002589,-37.869999,2.68,-21.75,2b
2019-07-15_154833:480,-0.264374,-0.012695,-0.423004,-0.0034799999999999996,-0.0016589999999999999,0.002467,-37.869999,2.68,-21.75,2b
2019-07-15_154833:500,-0.264374,-0.012695,-0.423492,-0.00345,-0.001598,0.002376,-32.75,3.06,-21.75,2b
2019-07-15_154833:520,-0.265381,-0.013702,-0.42248500000000005,-0.0032670000000000004,-0.001782,0.002467,-32.75,3.06,-21.75,2b
2019-07-15_154833:540,-0.2659,-0.012177,-0.425018,-0.0032670000000000004,-0.0014759999999999999,0.002589,-32.0,2.25,-23.0,2b
2019-07-15_154833:560,-0.264862,-0.012695,-0.42453,-0.0033280000000000002,-0.001019,0.002711,-32.0,2.25,-23.0,2b
2019-07-15_154833:580,-0.264374,-0.012177,-0.425018,-0.0033280000000000002,-0.000958,0.002711,-32.0,2.25,-23.0,2b
2019-07-15_154833:600,-0.263855,-0.012695,-0.425537,-0.00345,-0.000958,0.0027719999999999997,-31.68,1.56,-21.25,2b
2019-07-15_154833:620,-0.263855,-0.012695,-0.42248500000000005,-0.0036030000000000003,-0.001141,0.002955,-31.68,1.56,-21.25,2b
2019-07-15_154833:640,-0.263336,-0.012177,-0.42248500000000005,-0.003664,-0.000897,0.002955,-31.68,3.37,-23.0,2b
2019-07-15_154833:660,-0.262329,-0.013213999999999998,-0.423004,-0.003664,-0.0007740000000000001,0.002955,-31.68,3.37,-23.0,2b
2019-07-15_154833:680,-0.262329,-0.013213999999999998,-0.423492,-0.0036030000000000003,-0.001446,0.003078,-31.68,3.37,-23.0,2b
2019-07-15_154833:700,-0.263855,-0.013213999999999998,-0.42401099999999997,-0.00345,-0.001324,0.002955,-32.0,2.0,-22.5,2b
2019-07-15_154833:720,-0.267426,-0.012695,-0.42401099999999997,-0.003542,-0.001324,0.002833,-32.0,2.0,-22.5,2b
2019-07-15_154833:740,-0.265381,-0.011687999999999999,-0.42453,-0.0032670000000000004,-0.0007440000000000001,0.003016,-30.18,2.25,-21.75,2b
2019-07-15_154833:760,-0.266388,-0.012177,-0.421967,-0.003389,-0.000683,0.002955,-30.18,2.25,-21.75,2b
2019-07-15_154833:780,-0.263336,-0.011169,-0.42147799999999996,-0.003389,-0.000683,0.0033520000000000004,-30.18,2.25,-21.75,2b
2019-07-15_154833:800,-0.258759,-0.011687999999999999,-0.421967,-0.0036030000000000003,-0.0007440000000000001,0.00323,-32.369999,2.25,-21.75,2b
2019-07-15_154833:820,-0.259277,-0.011687999999999999,-0.42401099999999997,-0.004121,-0.0011099999999999999,0.002131,-32.369999,2.25,-21.75,2b
2019-07-15_154833:840,-0.261322,-0.013702,-0.42401099999999997,-0.004396,-0.0014759999999999999,0.002467,-32.369999,2.25,-21.75,2b
2019-07-15_154833:860,-0.262848,-0.015228,-0.426544,-0.004243,-0.001598,0.002833,-33.18,3.06,-21.25,2b
2019-07-15_154833:880,-0.2659,-0.015747,-0.42605600000000005,-0.0038770000000000002,-0.001537,0.002589,-33.18,3.06,-21.25,2b
2019-07-15_154833:900,-0.2659,-0.013702,-0.427063,-0.003084,-0.001019,0.002376,-31.68,3.06,-21.75,2b
2019-07-15_154833:920,-0.263855,-0.012695,-0.425018,-0.0023510000000000002,-0.000439,0.003169,-31.68,3.06,-21.75,2b
2019-07-15_154833:940,-0.263336,-0.010651,-0.425018,-0.002107,1.9e-05,0.0032909999999999997,-31.68,3.06,-21.75,2b
2019-07-15_154833:960,-0.263336,-0.009644,-0.42605600000000005,-0.002382,0.00011100000000000001,0.002711,-31.68,2.68,-23.0,2b
2019-07-15_154833:980,-0.267426,-0.009644,-0.42401099999999997,-0.003023,-0.000103,0.002589,-31.68,2.68,-23.0,2b
2019-07-15_154834:000,-0.267426,-0.009644,-0.42401099999999997,-0.003542,-0.000164,0.002742,-31.68,2.68,-22.5,2b
2019-07-15_154834:020,-0.265381,-0.012177,-0.420959,-0.003786,5e-05,0.0032909999999999997,-31.68,2.68,-22.5,2b
2019-07-15_154834:040,-0.263855,-0.013702,-0.42147799999999996,-0.00406,0.000172,0.00265,-31.68,2.68,-22.5,2b
2019-07-15_154834:060,-0.263336,-0.012695,-0.421967,-0.0038469999999999997,0.00011100000000000001,0.002467,-32.75,2.68,-21.75,2b
2019-07-15_154834:080,-0.262848,-0.013213999999999998,-0.41995200000000005,-0.0034799999999999996,-0.00034700000000000003,0.0031079999999999997,-32.75,2.68,-21.75,2b
2019-07-15_154834:100,-0.264374,-0.013213999999999998,-0.420441,-0.003145,-0.000683,0.0033520000000000004,-32.0,2.68,-21.0,2b
2019-07-15_154834:120,-0.264862,-0.011169,-0.418915,-0.003145,-0.00037799999999999997,0.0033520000000000004,-32.0,2.68,-21.0,2b
2019-07-15_154834:140,-0.264862,-0.012177,-0.42147799999999996,-0.0033280000000000002,-0.000683,0.00323,-32.0,2.68,-21.0,2b
2019-07-15_154834:160,-0.264374,-0.012177,-0.42248500000000005,-0.003786,-0.00108,0.0027719999999999997,-32.0,2.68,-21.25,2b
2019-07-15_154834:180,-0.264374,-0.014221000000000001,-0.421967,-0.003664,-0.0011099999999999999,0.002376,-32.0,2.68,-21.25,2b
2019-07-15_154834:200,-0.264862,-0.014740000000000001,-0.423004,-0.003206,-0.001141,0.002254,-32.0,2.68,-21.75,2b
2019-07-15_154834:220,-0.266907,-0.013213999999999998,-0.42147799999999996,-0.003023,-0.001202,0.002467,-32.0,2.68,-21.75,2b
2019-07-15_154834:240,-0.265381,-0.013213999999999998,-0.423492,-0.002748,-0.001019,0.002315,-32.0,2.68,-21.75,2b
2019-07-15_154834:260,-0.264374,-0.011687999999999999,-0.423004,-0.002687,-0.0011099999999999999,0.002254,-32.369999,3.06,-22.18,2b
2019-07-15_154834:280,-0.264374,-0.012177,-0.42401099999999997,-0.0028399999999999996,-0.000958,0.0025280000000000003,-32.369999,3.06,-22.18,2b
2019-07-15_154834:300,-0.263855,-0.011169,-0.423492,-0.002687,-0.000897,0.002711,-32.369999,2.68,-21.75,2b
2019-07-15_154834:320,-0.265381,-0.012177,-0.421967,-0.0029010000000000004,-0.0011099999999999999,0.00265,-32.369999,2.68,-21.75,2b
2019-07-15_154834:340,-0.264374,-0.012695,-0.423004,-0.0029010000000000004,-0.000439,0.0031079999999999997,-32.369999,2.68,-21.75,2b
2019-07-15_154834:360,-0.26181,-0.013702,-0.42248500000000005,-0.0028399999999999996,-0.0007440000000000001,0.003016,-32.0,3.06,-23.0,2b
2019-07-15_154834:380,-0.262329,-0.014221000000000001,-0.42248500000000005,-0.002779,-0.000958,0.0025280000000000003,-32.0,3.06,-23.0,2b
2019-07-15_154834:400,-0.267426,-0.013213999999999998,-0.423004,-0.002748,-0.0011099999999999999,0.002467,-31.370001000000002,3.06,-22.5,2b
2019-07-15_154834:420,-0.2659,-0.014740000000000001,-0.421967,-0.0026260000000000003,-0.0011099999999999999,0.0027719999999999997,-31.370001000000002,3.06,-22.5,2b
2019-07-15_154834:440,-0.266388,-0.012177,-0.42453,-0.002443,-0.0007740000000000001,0.002711,-31.370001000000002,3.06,-22.5,2b
2019-07-15_154834:460,-0.268951,-0.012177,-0.42147799999999996,-0.0026260000000000003,-0.0005610000000000001,0.002711,-32.369999,3.06,-21.25,2b
2019-07-15_154834:480,-0.267426,-0.011169,-0.421967,-0.003084,-0.0007740000000000001,0.0027719999999999997,-32.369999,3.06,-21.25,2b
2019-07-15_154834:500,-0.260284,-0.012695,-0.420959,-0.00345,-0.0005,0.002315,-32.0,3.06,-22.18,2b
2019-07-15_154834:520,-0.259796,-0.012177,-0.421967,-0.003542,-0.0011099999999999999,0.0016129999999999999,-32.0,3.06,-22.18,2b
2019-07-15_154834:540,-0.259796,-0.014221000000000001,-0.42248500000000005,-0.00345,-0.001141,0.00207,-32.0,3.06,-22.18,2b
2019-07-15_154834:560,-0.26181,-0.014740000000000001,-0.42453,-0.003084,-0.001843,0.0021920000000000004,-31.370001000000002,3.37,-21.75,2b
2019-07-15_154834:580,-0.267426,-0.014740000000000001,-0.42605600000000005,-0.002779,-0.001537,0.00207,-31.370001000000002,3.37,-21.75,2b
2019-07-15_154834:600,-0.266388,-0.013213999999999998,-0.42605600000000005,-0.002046,-0.00108,0.002131,-31.68,2.0,-23.0,2b
2019-07-15_154834:620,-0.2659,-0.011687999999999999,-0.426544,-0.0016190000000000002,-0.000439,0.002467,-31.68,2.0,-23.0,2b
2019-07-15_154834:640,-0.264374,-0.010162000000000001,-0.42453,-0.001558,-0.000164,0.002589,-31.68,2.0,-23.0,2b
2019-07-15_154834:660,-0.262848,-0.008636,-0.42453,-0.002382,-0.000439,0.002467,-32.0,2.68,-22.18,2b
2019-07-15_154834:680,-0.263855,-0.009644,-0.42248500000000005,-0.002748,-0.000103,0.002589,-32.0,2.68,-22.18,2b
2019-07-15_154834:700,-0.267426,-0.010651,-0.42401099999999997,-0.00345,-0.000164,0.00323,-32.0,3.06,-22.18,2b
2019-07-15_154834:720,-0.265381,-0.013213999999999998,-0.420959,-0.0034799999999999996,-4.2e-05,0.003749,-32.0,3.06,-22.18,2b
2019-07-15_154834:740,-0.264374,-0.014740000000000001,-0.423492,-0.0034799999999999996,-0.00034700000000000003,0.0032909999999999997,-32.0,3.06,-22.18,2b
2019-07-15_154834:760,-0.263855,-0.014740000000000001,-0.423004,-0.003664,-0.0005,0.0028940000000000003,-32.0,2.68,-22.18,2b
2019-07-15_154834:780,-0.264374,-0.015228,-0.42248500000000005,-0.0036030000000000003,-0.000683,0.002833,-32.0,2.68,-22.18,2b
2019-07-15_154834:800,-0.264374,-0.016266,-0.421967,-0.003206,-0.0005,0.003016,-32.0,2.68,-23.0,2b
2019-07-15_154834:820,-0.2659,-0.015747,-0.420959,-0.003084,-0.0007440000000000001,0.0028940000000000003,-32.0,2.68,-23.0,2b
2019-07-15_154834:840,-0.266907,-0.014740000000000001,-0.42147799999999996,-0.003023,-0.000683,0.0025280000000000003,-32.0,2.68,-23.0,2b
2019-07-15_154834:860,-0.266388,-0.013213999999999998,-0.421967,-0.002779,-0.00037799999999999997,0.002376,-31.370001000000002,2.68,-22.5,2b
2019-07-15_154834:880,-0.264374,-0.012177,-0.421967,-0.002779,-0.000439,0.002467,-31.370001000000002,2.68,-22.5,2b
2019-07-15_154834:900,-0.26181,-0.011687999999999999,-0.421967,-0.003206,-0.0006219999999999999,0.00265,-31.68,2.68,-22.18,2b
2019-07-15_154834:920,-0.260284,-0.013213999999999998,-0.421967,-0.0033280000000000002,-0.001202,0.002833,-31.68,2.68,-22.18,2b
2019-07-15_154834:940,-0.261322,-0.015747,-0.42401099999999997,-0.0033280000000000002,-0.001598,0.0027719999999999997,-31.68,2.68,-22.18,2b
2019-07-15_154834:960,-0.267914,-0.014740000000000001,-0.423004,-0.002748,-0.001598,0.002711,-32.369999,2.68,-21.25,2b
2019-07-15_154834:980,-0.270477,-0.014221000000000001,-0.423004,-0.00229,-0.0011099999999999999,0.002742,-32.369999,2.68,-21.25,2b
2019-07-15_154835:000,-0.266907,-0.012177,-0.42453,-0.0023510000000000002,-0.00037799999999999997,0.0028940000000000003,-31.370001000000002,2.68,-23.68,2b
2019-07-15_154835:020,-0.263336,-0.013213999999999998,-0.421967,-0.0029010000000000004,-0.000286,0.0034130000000000002,-31.370001000000002,2.68,-23.68,2b
2019-07-15_154835:040,-0.263855,-0.014221000000000001,-0.423004,-0.0032670000000000004,-0.0006219999999999999,0.003016,-31.370001000000002,2.68,-23.68,2b
2019-07-15_154835:060,-0.263855,-0.016753999999999998,-0.423004,-0.003389,-0.0007740000000000001,0.002467,-32.369999,3.06,-21.25,2b
2019-07-15_154835:080,-0.263855,-0.016266,-0.423004,-0.002779,-0.0007740000000000001,0.002315,-32.369999,3.06,-21.25,2b
2019-07-15_154835:100,-0.2659,-0.015747,-0.425018,-0.0025039999999999997,-0.000958,0.001979,-32.75,2.68,-23.0,2b
2019-07-15_154835:120,-0.267426,-0.012177,-0.423004,-0.002107,-0.0011099999999999999,0.002009,-32.75,2.68,-23.0,2b
2019-07-15_154835:140,-0.26944,-0.009644,-0.423492,-0.002168,-0.000439,0.0025280000000000003,-32.75,2.68,-23.0,2b
2019-07-15_154835:160,-0.267914,-0.009125,-0.42147799999999996,-0.0025039999999999997,-0.00037799999999999997,0.003474,-32.75,2.25,-21.75,2b
2019-07-15_154835:180,-0.264374,-0.010162000000000001,-0.41995200000000005,-0.003664,1.9e-05,0.00323,-32.75,2.25,-21.75,2b
2019-07-15_154835:200,-0.262848,-0.012177,-0.42147799999999996,-0.004457,-0.000164,0.002254,-32.369999,2.68,-22.18,2b
2019-07-15_154835:220,-0.261322,-0.016266,-0.41995200000000005,-0.004793,-0.0005610000000000001,0.002742,-32.369999,2.68,-22.18,2b
2019-07-15_154835:240,-0.263336,-0.017273,-0.421967,-0.004579,-0.00108,0.003016,-32.369999,2.68,-22.18,2b
2019-07-15_154835:260,-0.267426,-0.018799,-0.421967,-0.003542,-0.001202,0.0025280000000000003,-32.0,2.25,-21.75,2b
2019-07-15_154835:280,-0.266907,-0.016266,-0.423492,-0.002382,-0.000897,0.0025280000000000003,-32.0,2.25,-21.75,2b
2019-07-15_154835:300,-0.268433,-0.013702,-0.42248500000000005,-0.0018329999999999998,-0.000683,0.003016,-31.68,3.06,-21.75,2b
2019-07-15_154835:320,-0.267426,-0.013213999999999998,-0.420441,-0.0016489999999999999,-0.000286,0.002955,-31.68,3.06,-21.75,2b
2019-07-15_154835:340,-0.264374,-0.010651,-0.423004,-0.002382,-0.000225,0.0027719999999999997,-31.68,3.06,-21.75,2b
2019-07-15_154835:360,-0.264862,-0.012695,-0.42147799999999996,-0.0029620000000000002,-0.0005,0.0025280000000000003,-31.68,3.75,-21.75,2b
2019-07-15_154835:380,-0.266907,-0.014740000000000001,-0.42147799999999996,-0.003389,-0.000683,0.002467,-31.68,3.75,-21.75,2b
2019-07-15_154835:400,-0.266388,-0.015747,-0.41995200000000005,-0.003389,-0.0005,0.0027719999999999997,-32.0,4.18,-21.75,2b
2019-07-15_154835:420,-0.270477,-0.016266,-0.418915,-0.0033280000000000002,-0.001019,0.002742,-32.0,4.18,-21.75,2b
2019-07-15_154835:440,-0.262329,-0.015228,-0.420441,-0.003206,-0.000897,0.002955,-32.0,4.18,-21.75,2b
2019-07-15_154835:460,-0.26181,-0.016266,-0.421967,-0.003023,-0.001263,0.0027719999999999997,-32.0,3.06,-22.5,2b
2019-07-15_154835:480,-0.268433,-0.015747,-0.42147799999999996,-0.003114,-0.001598,0.002315,-32.0,3.06,-22.5,2b
2019-07-15_154835:500,-0.267426,-0.016266,-0.42401099999999997,-0.003145,-0.001202,0.002589,-32.0,2.25,-23.25,2b
2019-07-15_154835:520,-0.266907,-0.015747,-0.42248500000000005,-0.0028399999999999996,-0.001019,0.0024059999999999997,-32.0,2.25,-23.25,2b
2019-07-15_154835:540,-0.263336,-0.013702,-0.42248500000000005,-0.002748,-0.0007740000000000001,0.002315,-32.0,2.25,-23.25,2b
2019-07-15_154835:560,-0.263336,-0.014740000000000001,-0.42248500000000005,-0.0029620000000000002,-0.0008349999999999999,0.002376,-32.0,2.25,-21.75,2b
2019-07-15_154835:580,-0.263855,-0.014740000000000001,-0.42248500000000005,-0.003114,-0.001141,0.001979,-32.0,2.25,-21.75,2b
2019-07-15_154835:600,-0.266388,-0.015228,-0.423492,-0.003206,-0.001202,0.001796,-32.0,3.06,-20.559998999999998,2b
2019-07-15_154835:620,-0.267914,-0.015228,-0.42248500000000005,-0.0032670000000000004,-0.00108,0.0017350000000000002,-32.0,3.06,-20.559998999999998,2b
2019-07-15_154835:640,-0.266388,-0.014221000000000001,-0.423492,-0.003084,-0.00108,0.001857,-32.0,3.06,-20.559998999999998,2b
2019-07-15_154835:660,-0.264862,-0.013702,-0.42248500000000005,-0.003023,-0.0007440000000000001,0.002009,-32.369999,3.37,-22.18,2b
2019-07-15_154835:680,-0.265381,-0.013213999999999998,-0.42248500000000005,-0.0028399999999999996,-0.000897,0.00207,-32.369999,3.37,-22.18,2b
2019-07-15_154835:700,-0.265381,-0.013213999999999998,-0.42248500000000005,-0.003206,-0.000958,0.00207,-32.369999,3.06,-22.18,2b
2019-07-15_154835:720,-0.262848,-0.015228,-0.420959,-0.00345,-0.000958,0.002009,-32.369999,3.06,-22.18,2b
2019-07-15_154835:740,-0.262848,-0.015747,-0.421967,-0.0033280000000000002,-0.001202,0.0021920000000000004,-32.369999,3.06,-22.18,2b
2019-07-15_154835:760,-0.265381,-0.015228,-0.423004,-0.0029620000000000002,-0.001385,0.002315,-32.369999,2.68,-22.5,2b
2019-07-15_154835:780,-0.264374,-0.014740000000000001,-0.42147799999999996,-0.002687,-0.001263,0.002131,-32.369999,2.68,-22.5,2b
2019-07-15_154835:800,-0.267426,-0.014221000000000001,-0.423492,-0.0026260000000000003,-0.0016589999999999999,0.0024059999999999997,-32.369999,2.68,-22.18,2b
2019-07-15_154835:820,-0.269958,-0.013702,-0.421967,-0.002565,-0.001263,0.002467,-32.369999,2.68,-22.18,2b
2019-07-15_154835:840,-0.268951,-0.011687999999999999,-0.42248500000000005,-0.0028399999999999996,-0.00108,0.002467,-32.369999,2.68,-22.18,2b
2019-07-15_154835:860,-0.264862,-0.011687999999999999,-0.423004,-0.00345,-0.0006219999999999999,0.003078,-31.68,2.68,-23.0,2b
2019-07-15_154835:880,-0.260284,-0.011687999999999999,-0.421967,-0.0039380000000000005,-0.001019,0.002376,-31.68,2.68,-23.0,2b
2019-07-15_154835:900,-0.26181,-0.012695,-0.425537,-0.004579,-0.0011099999999999999,0.001674,-32.0,3.06,-21.75,2b
2019-07-15_154835:920,-0.262848,-0.015228,-0.42401099999999997,-0.004274,-0.001263,0.002254,-32.0,3.06,-21.75,2b
2019-07-15_154835:940,-0.265381,-0.016266,-0.425537,-0.004182,-0.00172,0.002589,-32.0,3.06,-21.75,2b
2019-07-15_154835:960,-0.266907,-0.015747,-0.42453,-0.003145,-0.000897,0.002315,-31.68,3.06,-22.5,2b
2019-07-15_154835:980,-0.266388,-0.013702,-0.425018,-0.002779,-0.00034700000000000003,0.0024059999999999997,-31.68,3.06,-22.5,2b
2019-07-15_154836:000,-0.263855,-0.012177,-0.423004,-0.00229,0.000233,0.002955,-31.68,2.68,-23.68,2b
2019-07-15_154836:020,-0.264374,-0.011169,-0.423004,-0.002687,0.000172,0.0027719999999999997,-31.68,2.68,-23.68,2b
2019-07-15_154836:040,-0.263855,-0.011169,-0.42248500000000005,-0.003114,-0.000103,0.0025280000000000003,-31.68,2.68,-23.68,2b
2019-07-15_154836:060,-0.265381,-0.011687999999999999,-0.423004,-0.003542,-0.0005610000000000001,0.0024059999999999997,-32.0,3.37,-21.25,2b
2019-07-15_154836:080,-0.268951,-0.014221000000000001,-0.421967,-0.0038469999999999997,-0.0007740000000000001,0.003016,-32.0,3.37,-21.25,2b
2019-07-15_154836:100,-0.266907,-0.015747,-0.421967,-0.0038469999999999997,-0.0005610000000000001,0.0031079999999999997,-32.369999,2.68,-21.75,2b
2019-07-15_154836:120,-0.266388,-0.013702,-0.421967,-0.003542,-0.000439,0.002315,-32.369999,2.68,-21.75,2b
2019-07-15_154836:140,-0.266388,-0.014221000000000001,-0.420959,-0.0032670000000000004,-0.00037799999999999997,0.00265,-32.369999,2.68,-21.75,2b
2019-07-15_154836:160,-0.265381,-0.012695,-0.421967,-0.003206,-0.000103,0.003016,-31.68,2.68,-23.0,2b
2019-07-15_154836:180,-0.264862,-0.012695,-0.420441,-0.0032670000000000004,-0.0005,0.0028940000000000003,-31.68,2.68,-23.0,2b
2019-07-15_154836:200,-0.2659,-0.012695,-0.42147799999999996,-0.003206,-0.00037799999999999997,0.0027719999999999997,-32.369999,3.37,-23.0,2b
2019-07-15_154836:220,-0.266388,-0.013213999999999998,-0.41943400000000003,-0.00345,-0.000439,0.002833,-32.369999,3.37,-23.0,2b
2019-07-15_154836:240,-0.266907,-0.014740000000000001,-0.41995200000000005,-0.003664,-0.0007740000000000001,0.0027719999999999997,-32.369999,3.37,-23.0,2b
2019-07-15_154836:260,-0.263855,-0.013702,-0.420441,-0.003542,-0.000683,0.0027719999999999997,-32.369999,2.68,-22.18,2b
2019-07-15_154836:280,-0.264862,-0.013702,-0.41995200000000005,-0.0034799999999999996,-0.001202,0.002589,-32.369999,2.68,-22.18,2b
2019-07-15_154836:300,-0.264374,-0.013213999999999998,-0.420441,-0.00345,-0.001385,0.00265,-33.869999,2.68,-22.18,2b
2019-07-15_154836:320,-0.266388,-0.013213999999999998,-0.420441,-0.003145,-0.001385,0.002467,-33.869999,2.68,-22.18,2b
2019-07-15_154836:340,-0.2659,-0.013702,-0.420441,-0.003389,-0.001385,0.0025280000000000003,-33.869999,2.68,-22.18,2b
2019-07-15_154836:360,-0.266907,-0.012177,-0.42401099999999997,-0.003725,-0.001537,0.00265,-31.68,3.06,-22.18,2b
2019-07-15_154836:380,-0.267426,-0.012177,-0.42248500000000005,-0.0034799999999999996,-0.001141,0.0027719999999999997,-31.68,3.06,-22.18,2b
2019-07-15_154836:400,-0.2659,-0.012695,-0.42248500000000005,-0.0033280000000000002,-0.000958,0.002742,-32.0,2.25,-23.0,2b
2019-07-15_154836:420,-0.265381,-0.013702,-0.421967,-0.003389,-0.0008349999999999999,0.002955,-32.0,2.25,-23.0,2b
2019-07-15_154836:440,-0.264374,-0.015228,-0.421967,-0.003542,-0.001141,0.0025280000000000003,-32.0,2.25,-23.0,2b
2019-07-15_154836:460,-0.264862,-0.014221000000000001,-0.421967,-0.0032670000000000004,-0.001385,0.0021920000000000004,-31.68,3.06,-22.5,2b
2019-07-15_154836:480,-0.264374,-0.014221000000000001,-0.42147799999999996,-0.003114,-0.001537,0.002376,-31.68,3.06,-22.5,2b
2019-07-15_154836:500,-0.264374,-0.015747,-0.423004,-0.003023,-0.001537,0.002315,-32.0,2.68,-22.18,2b
2019-07-15_154836:520,-0.266388,-0.014221000000000001,-0.42248500000000005,-0.002779,-0.001598,0.0025280000000000003,-32.0,2.68,-22.18,2b
2019-07-15_154836:540,-0.266388,-0.012177,-0.42248500000000005,-0.0028399999999999996,-0.0014759999999999999,0.002711,-32.0,2.68,-22.18,2b
2019-07-15_154836:560,-0.264374,-0.011687999999999999,-0.42248500000000005,-0.003206,-0.001385,0.001918,-32.0,3.06,-23.0,2b
2019-07-15_154836:580,-0.261322,-0.011169,-0.423004,-0.003389,-0.001446,0.001582,-32.0,3.06,-23.0,2b
2019-07-15_154836:600,-0.262329,-0.011687999999999999,-0.425537,-0.003786,-0.001598,0.002254,-24.370001000000002,3.06,-21.75,2b
2019-07-15_154836:620,-0.261322,-0.013213999999999998,-0.425537,-0.003542,-0.001843,0.00207,-24.370001000000002,3.06,-21.75,2b
2019-07-15_154836:640,-0.265381,-0.013702,-0.427063,-0.003084,-0.001324,0.001979,-24.370001000000002,3.06,-21.75,2b
2019-07-15_154836:660,-0.266907,-0.013213999999999998,-0.426544,-0.0026260000000000003,-0.000897,0.002315,-32.75,3.06,-22.5,2b
2019-07-15_154836:680,-0.265381,-0.012177,-0.42453,-0.0023510000000000002,-0.0005,0.00265,-32.75,3.06,-22.5,2b
2019-07-15_154836:700,-0.264862,-0.012695,-0.425537,-0.002046,1.9e-05,0.00265,-32.369999,3.06,-21.75,2b
2019-07-15_154836:720,-0.262329,-0.009644,-0.425018,-0.0025039999999999997,1.9e-05,0.0028940000000000003,-32.369999,3.06,-21.75,2b
2019-07-15_154836:740,-0.261322,-0.010651,-0.42248500000000005,-0.0029620000000000002,-0.000439,0.0028940000000000003,-32.369999,3.06,-21.75,2b
2019-07-15_154836:760,-0.264374,-0.011169,-0.423492,-0.003084,-0.0005610000000000001,0.003169,-32.369999,2.68,-22.18,2b
2019-07-15_154836:780,-0.266388,-0.011687999999999999,-0.420959,-0.0034799999999999996,-0.0007440000000000001,0.00323,-32.369999,2.68,-22.18,2b
2019-07-15_154836:800,-0.266907,-0.013702,-0.423004,-0.00345,-0.000225,0.0028940000000000003,-32.75,2.25,-23.0,2b
2019-07-15_154836:820,-0.264374,-0.013702,-0.421967,-0.003542,-0.000164,0.002833,-32.75,2.25,-23.0,2b
2019-07-15_154836:840,-0.264374,-0.014740000000000001,-0.421967,-0.0034799999999999996,-0.000225,0.0028940000000000003,-32.75,2.25,-23.0,2b
2019-07-15_154836:860,-0.264862,-0.015228,-0.421967,-0.0028399999999999996,-0.000103,0.0028940000000000003,-32.75,3.37,-21.25,2b
2019-07-15_154836:880,-0.264862,-0.015228,-0.420441,-0.0026260000000000003,-0.000439,0.0028940000000000003,-32.75,3.37,-21.25,2b
2019-07-15_154836:900,-0.264374,-0.013213999999999998,-0.42147799999999996,-0.002382,-0.00034700000000000003,0.0028940000000000003,-31.68,3.06,-19.75,2b
2019-07-15_154836:920,-0.265381,-0.013213999999999998,-0.421967,-0.002443,-0.000683,0.0028940000000000003,-31.68,3.06,-19.75,2b
2019-07-15_154836:940,-0.264374,-0.012695,-0.420959,-0.0028399999999999996,-0.000683,0.002833,-31.68,3.06,-19.75,2b
2019-07-15_154836:960,-0.264374,-0.012177,-0.42248500000000005,-0.0029620000000000002,-0.0007740000000000001,0.002742,-32.0,2.25,-22.5,2b
2019-07-15_154836:980,-0.265381,-0.011687999999999999,-0.421967,-0.0036030000000000003,-0.0007740000000000001,0.003016,-32.0,2.25,-22.5,2b
2019-07-15_154837:000,-0.264374,-0.014221000000000001,-0.423004,-0.003664,-0.0007740000000000001,0.003169,-32.369999,2.25,-21.75,2b
2019-07-15_154837:020,-0.263855,-0.016266,-0.421967,-0.003389,-0.001019,0.0028940000000000003,-32.369999,2.25,-21.75,2b
2019-07-15_154837:040,-0.2659,-0.014740000000000001,-0.42248500000000005,-0.0033280000000000002,-0.001019,0.003078,-32.369999,2.25,-21.75,2b
2019-07-15_154837:060,-0.264374,-0.014740000000000001,-0.42147799999999996,-0.003023,-0.000958,0.0031079999999999997,-32.369999,2.68,-23.68,2b
2019-07-15_154837:080,-0.264862,-0.014740000000000001,-0.421967,-0.0028399999999999996,-0.0007440000000000001,0.003169,-32.369999,2.68,-23.68,2b
2019-07-15_154837:100,-0.263336,-0.013702,-0.421967,-0.003145,-0.0007440000000000001,0.00323,-31.68,2.68,-22.18,2b
2019-07-15_154837:120,-0.262329,-0.014221000000000001,-0.423492,-0.003145,-0.00108,0.0028940000000000003,-31.68,2.68,-22.18,2b
2019-07-15_154837:140,-0.264374,-0.014740000000000001,-0.42248500000000005,-0.0033280000000000002,-0.0014759999999999999,0.002467,-31.68,2.68,-22.18,2b
2019-07-15_154837:160,-0.265381,-0.015747,-0.423004,-0.003206,-0.001324,0.002467,-32.0,2.68,-21.25,2b
2019-07-15_154837:180,-0.266388,-0.014740000000000001,-0.42248500000000005,-0.003084,-0.001019,0.002467,-32.0,2.68,-21.25,2b
2019-07-15_154837:200,-0.265381,-0.013213999999999998,-0.423492,-0.0028399999999999996,-0.0008349999999999999,0.002467,-32.369999,3.37,-22.18,2b
2019-07-15_154837:220,-0.267914,-0.014221000000000001,-0.423004,-0.0029010000000000004,-0.0005610000000000001,0.002467,-32.369999,3.37,-22.18,2b
2019-07-15_154837:240,-0.266388,-0.012177,-0.42248500000000005,-0.003084,-0.0005,0.003169,-32.369999,3.37,-22.18,2b
2019-07-15_154837:260,-0.26181,-0.012695,-0.42147799999999996,-0.003664,-0.0007440000000000001,0.002742,-31.370001000000002,2.68,-21.25,2b
2019-07-15_154837:280,-0.261322,-0.012695,-0.421967,-0.003999,-0.00108,0.0017350000000000002,-31.370001000000002,2.68,-21.25,2b
2019-07-15_154837:300,-0.262848,-0.014740000000000001,-0.42401099999999997,-0.004182,-0.001324,0.002254,-31.370001000000002,2.68,-21.25,2b
2019-07-15_154837:320,-0.262848,-0.017273,-0.42453,-0.00406,-0.001446,0.002467,-32.369999,2.68,-22.18,2b
2019-07-15_154837:340,-0.266388,-0.016266,-0.425537,-0.0036030000000000003,-0.001598,0.002131,-32.369999,2.68,-22.18,2b
2019-07-15_154837:360,-0.266388,-0.015228,-0.42605600000000005,-0.0029010000000000004,-0.0008349999999999999,0.001857,-31.370001000000002,2.68,-21.75,2b
2019-07-15_154837:380,-0.266388,-0.013702,-0.42401099999999997,-0.0023510000000000002,-0.000439,0.002315,-31.370001000000002,2.68,-21.75,2b
2019-07-15_154837:400,-0.2659,-0.012177,-0.425018,-0.00229,1.9e-05,0.00265,-31.370001000000002,2.68,-21.75,2b
2019-07-15_154837:420,-0.262848,-0.010162000000000001,-0.42453,-0.002443,-0.000103,0.002315,-32.369999,2.68,-21.75,2b
2019-07-15_154837:440,-0.264374,-0.011169,-0.42248500000000005,-0.003023,-0.000103,0.002254,-32.369999,2.68,-21.75,2b
2019-07-15_154837:460,-0.2659,-0.010651,-0.423004,-0.0036030000000000003,-0.00034700000000000003,0.002589,-32.369999,2.25,-21.0,2b
2019-07-15_154837:480,-0.266907,-0.013213999999999998,-0.420441,-0.00406,-0.00037799999999999997,0.003016,-32.369999,2.25,-21.0,2b
2019-07-15_154837:500,-0.2659,-0.013702,-0.420959,-0.0038469999999999997,-0.0005610000000000001,0.002833,-32.369999,2.25,-21.0,2b
2019-07-15_154837:520,-0.264862,-0.014221000000000001,-0.421967,-0.003786,-0.0005,0.0025280000000000003,-31.68,3.06,-21.75,2b
2019-07-15_154837:540,-0.265381,-0.013702,-0.420441,-0.003725,-0.000683,0.002742,-31.68,3.06,-21.75,2b
2019-07-15_154837:560,-0.263336,-0.014740000000000001,-0.42147799999999996,-0.0034799999999999996,-0.000897,0.002467,-32.0,2.68,-22.5,2b
2019-07-15_154837:580,-0.264862,-0.014221000000000001,-0.420441,-0.003145,-0.00108,0.002315,-32.0,2.68,-22.5,2b
2019-07-15_154837:600,-0.264374,-0.012695,-0.42147799999999996,-0.003023,-0.001019,0.002376,-32.0,2.68,-22.5,2b
2019-07-15_154837:620,-0.264374,-0.011169,-0.421967,-0.0029010000000000004,-0.0011099999999999999,0.0024059999999999997,-32.369999,2.68,-21.75,2b
2019-07-15_154837:640,-0.264374,-0.011687999999999999,-0.421967,-0.0029010000000000004,-0.001263,0.002467,-32.369999,2.68,-21.75,2b
2019-07-15_154837:660,-0.263855,-0.011687999999999999,-0.423004,-0.003114,-0.0011099999999999999,0.002711,-31.68,2.68,-22.5,2b
2019-07-15_154837:680,-0.264374,-0.011169,-0.420441,-0.0032670000000000004,-0.001385,0.002742,-31.68,2.68,-22.5,2b
2019-07-15_154837:700,-0.264862,-0.012177,-0.421967,-0.003664,-0.001385,0.002711,-31.68,2.68,-22.5,2b
2019-07-15_154837:720,-0.265381,-0.012177,-0.423004,-0.003542,-0.0014759999999999999,0.002742,-31.68,2.0,-21.0,2b
2019-07-15_154837:740,-0.264862,-0.013702,-0.423492,-0.0033280000000000002,-0.001019,0.002711,-31.68,2.0,-21.0,2b
2019-07-15_154837:760,-0.264374,-0.012695,-0.42453,-0.0032670000000000004,-0.00108,0.002833,-31.0,3.06,-21.0,2b
2019-07-15_154837:780,-0.264862,-0.012695,-0.423004,-0.003114,-0.00108,0.0028940000000000003,-31.0,3.06,-21.0,2b
2019-07-15_154837:800,-0.264862,-0.012695,-0.42248500000000005,-0.003206,-0.000958,0.002955,-31.0,3.06,-21.0,2b
2019-07-15_154837:820,-0.263336,-0.012177,-0.42248500000000005,-0.0033280000000000002,-0.00108,0.002833,-32.0,3.06,-22.5,2b
2019-07-15_154837:840,-0.263336,-0.013213999999999998,-0.423004,-0.0036030000000000003,-0.001202,0.002955,-32.0,3.06,-22.5,2b
2019-07-15_154837:860,-0.265381,-0.014221000000000001,-0.423492,-0.00345,-0.001263,0.0027719999999999997,-31.68,3.06,-23.0,2b
2019-07-15_154837:880,-0.264374,-0.013702,-0.42248500000000005,-0.0032670000000000004,-0.001324,0.002589,-31.68,3.06,-23.0,2b
2019-07-15_154837:900,-0.264374,-0.013702,-0.423492,-0.003145,-0.001324,0.002833,-31.68,3.06,-23.0,2b
2019-07-15_154837:920,-0.266907,-0.014221000000000001,-0.423004,-0.0028399999999999996,-0.0014759999999999999,0.002711,-32.0,3.06,-22.5,2b
2019-07-15_154837:940,-0.266388,-0.011169,-0.42248500000000005,-0.0029620000000000002,-0.001263,0.00323,-32.0,3.06,-22.5,2b
2019-07-15_154837:960,-0.263855,-0.012695,-0.42248500000000005,-0.003114,-0.00108,0.00323,-31.68,3.06,-22.18,2b
2019-07-15_154837:980,-0.26181,-0.012695,-0.42147799999999996,-0.003664,-0.001263,0.002315,-31.68,3.06,-22.18,2b
2019-07-15_154838:000,-0.261322,-0.012695,-0.42401099999999997,-0.0039380000000000005,-0.001446,0.002254,-31.68,3.06,-22.18,2b
2019-07-15_154838:020,-0.263855,-0.015228,-0.42605600000000005,-0.003725,-0.001385,0.002742,-31.68,2.25,-22.18,2b
2019-07-15_154838:040,-0.266907,-0.015747,-0.425537,-0.0032670000000000004,-0.001263,0.0028940000000000003,-31.68,2.25,-22.18,2b
2019-07-15_154838:060,-0.266388,-0.014740000000000001,-0.42605600000000005,-0.002565,-0.001019,0.00265,-32.369999,2.68,-23.0,2b
2019-07-15_154838:080,-0.264374,-0.012695,-0.42453,-0.0019850000000000002,-0.000439,0.00323,-32.369999,2.68,-23.0,2b
2019-07-15_154838:100,-0.26181,-0.012695,-0.42401099999999997,-0.002107,-0.000225,0.0036880000000000003,-32.369999,2.68,-23.0,2b
2019-07-15_154838:120,-0.260284,-0.010162000000000001,-0.423492,-0.002443,-0.000225,0.0033520000000000004,-32.0,3.06,-22.5,2b
2019-07-15_154838:140,-0.263855,-0.011687999999999999,-0.42248500000000005,-0.003023,-0.00037799999999999997,0.003016,-32.0,3.06,-22.5,2b
2019-07-15_154838:160,-0.264862,-0.013213999999999998,-0.423492,-0.0036030000000000003,-0.0007740000000000001,0.003016,-31.68,2.68,-23.0,2b
2019-07-15_154838:180,-0.265381,-0.015228,-0.420959,-0.0036030000000000003,-0.001019,0.003505,-31.68,2.68,-23.0,2b
2019-07-15_154838:200,-0.266907,-0.016266,-0.423492,-0.003725,-0.001141,0.0032909999999999997,-31.68,2.68,-23.0,2b
2019-07-15_154838:220,-0.266907,-0.015228,-0.420959,-0.0034799999999999996,-0.0007740000000000001,0.0027719999999999997,-32.369999,2.25,-22.5,2b
2019-07-15_154838:240,-0.2659,-0.016266,-0.421967,-0.0033280000000000002,-0.0006219999999999999,0.002955,-32.369999,2.25,-22.5,2b
2019-07-15_154838:260,-0.264862,-0.013702,-0.42248500000000005,-0.003145,-0.000439,0.00323,-32.0,2.68,-22.5,2b
2019-07-15_154838:280,-0.263336,-0.015228,-0.42147799999999996,-0.003023,-0.000439,0.00323,-32.0,2.68,-22.5,2b
2019-07-15_154838:300,-0.264862,-0.014740000000000001,-0.420959,-0.003084,-0.0005,0.003016,-32.0,2.68,-22.5,2b
2019-07-15_154838:320,-0.264862,-0.015228,-0.42147799999999996,-0.003206,-0.0007740000000000001,0.002833,-32.369999,3.06,-21.25,2b
2019-07-15_154838:340,-0.262848,-0.015747,-0.421967,-0.0033280000000000002,-0.0006219999999999999,0.002742,-32.369999,3.06,-21.25,2b
2019-07-15_154838:360,-0.263336,-0.015228,-0.42248500000000005,-0.003389,-0.00108,0.002589,-38.68,2.68,-23.0,2b
2019-07-15_154838:380,-0.2659,-0.014221000000000001,-0.423492,-0.003114,-0.0014759999999999999,0.0024059999999999997,-38.68,2.68,-23.0,2b
2019-07-15_154838:400,-0.2659,-0.014740000000000001,-0.425018,-0.003023,-0.001324,0.002467,-32.369999,2.68,-21.75,2b
2019-07-15_154838:420,-0.264862,-0.013213999999999998,-0.423492,-0.0029010000000000004,-0.001202,0.00265,-32.369999,2.68,-21.75,2b
2019-07-15_154838:440,-0.2659,-0.012695,-0.423004,-0.0029620000000000002,-0.001202,0.0027719999999999997,-32.369999,2.68,-21.75,2b
2019-07-15_154838:460,-0.264374,-0.012177,-0.423004,-0.003145,-0.0006219999999999999,0.002833,-32.0,3.06,-22.5,2b
2019-07-15_154838:480,-0.264374,-0.013213999999999998,-0.42147799999999996,-0.0032670000000000004,-0.0007440000000000001,0.003016,-32.0,3.06,-22.5,2b
2019-07-15_154838:500,-0.264374,-0.014221000000000001,-0.421967,-0.0034799999999999996,-0.000958,0.002955,-32.0,3.06,-22.5,2b
2019-07-15_154838:520,-0.263336,-0.014221000000000001,-0.423492,-0.0039380000000000005,-0.00108,0.002955,-31.370001000000002,1.56,-22.18,2b
2019-07-15_154838:540,-0.263336,-0.015228,-0.42147799999999996,-0.0038469999999999997,-0.001141,0.003016,-31.370001000000002,1.56,-22.18,2b
2019-07-15_154838:560,-0.263855,-0.014221000000000001,-0.421967,-0.003725,-0.001202,0.003016,-32.75,3.06,-21.75,2b
2019-07-15_154838:580,-0.263336,-0.015228,-0.421967,-0.003725,-0.001324,0.0031079999999999997,-32.75,3.06,-21.75,2b
2019-07-15_154838:600,-0.262329,-0.015747,-0.423004,-0.004121,-0.001446,0.0027719999999999997,-32.75,3.06,-21.75,2b
2019-07-15_154838:620,-0.263336,-0.015747,-0.423492,-0.0039380000000000005,-0.00172,0.0027719999999999997,-32.75,3.06,-21.25,2b
2019-07-15_154838:640,-0.267914,-0.016266,-0.42401099999999997,-0.003999,-0.0014759999999999999,0.0024059999999999997,-32.75,3.06,-21.25,2b
2019-07-15_154838:660,-0.264862,-0.014740000000000001,-0.42248500000000005,-0.003542,-0.001324,0.0027719999999999997,-31.68,2.68,-21.75,2b
2019-07-15_154838:680,-0.26181,-0.014221000000000001,-0.421967,-0.003664,-0.001141,0.0021920000000000004,-31.68,2.68,-21.75,2b
2019-07-15_154838:700,-0.260803,-0.012177,-0.425018,-0.003786,-0.001385,0.001399,-31.68,2.68,-21.75,2b
2019-07-15_154838:720,-0.260803,-0.012695,-0.426544,-0.0038770000000000002,-0.0016589999999999999,0.002009,-32.0,3.37,-21.25,2b
2019-07-15_154838:740,-0.26181,-0.014221000000000001,-0.426544,-0.0036030000000000003,-0.0016589999999999999,0.0021920000000000004,-32.0,3.37,-21.25,2b
2019-07-15_154838:760,-0.265381,-0.015228,-0.426544,-0.003542,-0.001385,0.001918,-31.68,3.06,-23.0,2b
2019-07-15_154838:780,-0.264862,-0.014740000000000001,-0.427063,-0.0029010000000000004,-0.000897,0.001979,-31.68,3.06,-23.0,2b
2019-07-15_154838:800,-0.263855,-0.014221000000000001,-0.427063,-0.0028399999999999996,-0.000683,0.002589,-31.68,3.06,-23.0,2b
2019-07-15_154838:820,-0.26181,-0.013702,-0.425018,-0.002382,-0.000286,0.002589,-32.0,3.06,-21.75,2b
2019-07-15_154838:840,-0.261322,-0.010651,-0.42401099999999997,-0.002748,-0.0005610000000000001,0.0024059999999999997,-32.0,3.06,-21.75,2b
2019-07-15_154838:860,-0.262329,-0.010651,-0.42401099999999997,-0.0029620000000000002,-0.0005,0.002131,-31.68,3.06,-23.68,2b
2019-07-15_154838:880,-0.266907,-0.011169,-0.42453,-0.0033280000000000002,-0.0005610000000000001,0.0025280000000000003,-31.68,3.06,-23.68,2b
2019-07-15_154838:900,-0.264862,-0.012177,-0.423492,-0.0036030000000000003,-0.00037799999999999997,0.003078,-31.68,3.06,-23.68,2b
2019-07-15_154838:920,-0.264374,-0.013213999999999998,-0.42401099999999997,-0.003725,-0.00034700000000000003,0.0024059999999999997,-32.0,3.06,-22.5,2b
2019-07-15_154838:940,-0.262848,-0.013702,-0.421967,-0.0036030000000000003,-0.00037799999999999997,0.002131,-32.0,3.06,-22.5,2b
2019-07-15_154838:960,-0.263336,-0.014221000000000001,-0.423492,-0.0036030000000000003,-0.00034700000000000003,0.0024059999999999997,-32.0,3.37,-23.25,2b
2019-07-15_154838:980,-0.264374,-0.014740000000000001,-0.421967,-0.0033280000000000002,-0.00037799999999999997,0.0024059999999999997,-32.0,3.37,-23.25,2b
2019-07-15_154839:000,-0.263855,-0.013213999999999998,-0.421967,-0.002687,-0.000286,0.0024059999999999997,-32.0,3.37,-23.25,2b
2019-07-15_154839:020,-0.262848,-0.012177,-0.42248500000000005,-0.002748,-0.000225,0.002376,-26.559998999999998,2.68,-21.25,2b
2019-07-15_154839:040,-0.262848,-0.012695,-0.42147799999999996,-0.002748,-0.0007740000000000001,0.002376,-26.559998999999998,2.68,-21.25,2b
2019-07-15_154839:060,-0.264374,-0.012177,-0.423004,-0.003023,-0.000683,0.002315,-32.0,2.68,-21.25,2b
2019-07-15_154839:080,-0.263336,-0.011169,-0.421967,-0.003023,-0.0007440000000000001,0.0021920000000000004,-32.0,2.68,-21.25,2b
2019-07-15_154839:100,-0.262848,-0.011687999999999999,-0.423492,-0.003389,-0.0008349999999999999,0.002315,-32.0,2.68,-21.25,2b
2019-07-15_154839:120,-0.263855,-0.012177,-0.42248500000000005,-0.003206,-0.001202,0.002376,-32.0,2.25,-23.0,2b
2019-07-15_154839:140,-0.263855,-0.012695,-0.421967,-0.003114,-0.001263,0.002589,-32.0,2.25,-23.0,2b
2019-07-15_154839:160,-0.264374,-0.013702,-0.42453,-0.003145,-0.001324,0.002589,-32.0,3.37,-22.5,2b
2019-07-15_154839:180,-0.263855,-0.013213999999999998,-0.421967,-0.0028399999999999996,-0.001141,0.002742,-32.0,3.37,-22.5,2b
2019-07-15_154839:200,-0.264374,-0.013702,-0.42453,-0.0028399999999999996,-0.001202,0.002742,-32.0,3.37,-22.5,2b
