timestamp,AccX,AccY,AccZ,GyroX,GyroY,GyroZ,MagX,MagY,MagZ,Activity
2019-07-15_121331:140,-0.327911,0.027954000000000003,-0.40316799999999997,-0.005731,-0.001303,-0.002735,-39.68,6.75,-19.68,3a
2019-07-15_121331:160,-0.384857,0.038635,-0.408752,-0.0007570000000000001,-0.003348,0.000195,-40.369999,6.37,-19.68,3a
2019-07-15_121331:180,-0.380798,0.056915,-0.411285,0.0026,-0.000662,0.0028190000000000003,-40.369999,6.37,-19.68,3a
2019-07-15_121331:200,-0.374176,0.065063,-0.411804,0.002997,0.0021149999999999997,0.004345,-40.369999,6.37,-19.68,3a
2019-07-15_121331:220,-0.373688,0.058960000000000005,-0.412811,0.002203,0.004312,0.004345,-40.369999,6.06,-20.059998999999998,3a
2019-07-15_121331:240,-0.390442,0.054901,-0.414337,0.003058,0.0072109999999999995,0.005932,-40.369999,6.06,-20.059998999999998,3a
2019-07-15_121331:260,-0.36706500000000003,0.05285599999999999,-0.399109,0.004309,0.010873,0.009167,-40.0,6.06,-20.559998999999998,3a
2019-07-15_121331:280,-0.371643,0.046265,-0.398071,0.005377000000000001,0.011606,0.010570999999999999,-40.0,6.06,-20.559998999999998,3a
2019-07-15_121331:300,-0.365021,0.05285599999999999,-0.390961,0.005377000000000001,0.012277,0.00993,-40.0,6.06,-20.559998999999998,3a
2019-07-15_121331:320,-0.36044299999999996,0.053863999999999995,-0.375214,0.00498,0.012521,0.010052,-40.369999,6.37,-18.870001000000002,3a
2019-07-15_121331:340,-0.358917,0.036591000000000005,-0.348267,0.002875,0.012856999999999999,0.008373,-40.369999,6.37,-18.870001000000002,3a
2019-07-15_121331:360,-0.371643,0.01828,-0.348267,0.00318,0.013986000000000002,0.007855,-40.369999,7.18,-19.68,3a
2019-07-15_121331:380,-0.378265,0.012695,-0.34317,0.006323,0.015787,0.009594,-40.369999,7.18,-19.68,3a
2019-07-15_121331:400,-0.368591,0.01828,-0.325897,0.010046,0.016702,0.011364,-40.369999,7.18,-19.68,3a
2019-07-15_121331:420,-0.353851,0.025908999999999998,-0.316223,0.011877,0.016183000000000003,0.012371,-41.5,7.56,-18.18,3a
2019-07-15_121331:440,-0.377228,0.027435,-0.309113,0.010291,0.014536000000000002,0.011822,-41.5,7.56,-18.18,3a
2019-07-15_121331:460,-0.391968,0.032013,-0.317749,0.007361,0.015787,0.011059000000000001,-41.060001,7.18,-18.18,3a
2019-07-15_121331:480,-0.404694,0.016266,-0.319275,0.0044009999999999995,0.018045,0.009715999999999999,-41.060001,7.18,-18.18,3a
2019-07-15_121331:500,-0.46417200000000003,0.000488,-0.31012,0.002386,0.022684,0.005413,-41.060001,7.18,-18.18,3a
2019-07-15_121331:520,-0.455017,0.0,-0.320282,0.004004,0.034036000000000004,0.004222999999999999,-42.18,9.0,-16.559998999999998,3a
2019-07-15_121331:540,-0.433655,0.008636,-0.315216,0.007909999999999999,0.046518000000000004,0.007732999999999999,-42.18,9.0,-16.559998999999998,3a
2019-07-15_121331:560,-0.42453,0.015228,-0.307587,0.010015999999999999,0.054941,0.010693000000000001,-41.869999,9.0,-16.559998999999998,3a
2019-07-15_121331:580,-0.44433599999999995,0.017792,-0.291321,0.008307,0.05979299999999999,0.012036,-41.869999,9.0,-16.559998999999998,3a
2019-07-15_121331:600,-0.443329,0.009644,-0.278107,0.0057740000000000005,0.066751,0.014813,-41.869999,9.0,-16.559998999999998,3a
2019-07-15_121331:620,-0.420959,0.0035399999999999997,-0.254211,0.0051329999999999995,0.07318999999999999,0.014843,-42.869999,9.0,-14.18,3a
2019-07-15_121331:640,-0.407227,-0.004059,-0.22421300000000002,0.0041259999999999995,0.07413600000000001,0.013104,-42.869999,9.0,-14.18,3a
2019-07-15_121331:660,-0.401123,-0.007111,-0.205902,0.004065,0.073923,0.012646,-44.68,10.06,-10.68,3a
2019-07-15_121331:680,-0.399597,-0.024902,-0.186066,0.0041259999999999995,0.070871,0.014965000000000001,-44.68,10.06,-10.68,3a
2019-07-15_121331:700,-0.40011599999999997,-0.036072,-0.17385899999999999,0.005377000000000001,0.065683,0.017407,-44.68,10.06,-10.68,3a
2019-07-15_121331:720,-0.402649,-0.046265,-0.153534,0.008887,0.060648,0.016094,-44.060001,10.06,-8.75,3a
2019-07-15_121331:740,-0.40570100000000003,-0.045226999999999996,-0.144897,0.012426999999999999,0.053873000000000004,0.012188,-44.060001,10.06,-8.75,3a
2019-07-15_121331:760,-0.420959,-0.043213,-0.135742,0.01615,0.045999,0.008526,-44.060001,10.87,-6.06,3a
2019-07-15_121331:780,-0.45043900000000003,-0.039124,-0.127594,0.019263,0.040537000000000004,0.005596,-44.060001,10.87,-6.06,3a
2019-07-15_121331:800,-0.46060200000000007,-0.036591000000000005,-0.133179,0.02085,0.037088,0.002636,-44.060001,10.87,-6.06,3a
2019-07-15_121331:820,-0.48196400000000006,-0.031494,-0.12048299999999999,0.022437000000000002,0.036081,-0.00047699999999999994,-45.060001,11.18,-3.25,3a
2019-07-15_121331:840,-0.489075,-0.030487,-0.108276,0.024237,0.036295,-0.003803,-45.060001,11.18,-3.25,3a
2019-07-15_121331:860,-0.478912,-0.029480000000000003,-0.098633,0.027869,0.036844,-0.009295999999999999,-45.869999,11.18,-3.68,3a
2019-07-15_121331:880,-0.46670500000000004,-0.023375999999999997,-0.094055,0.029394999999999998,0.036478,-0.010761,-45.869999,11.18,-3.68,3a
2019-07-15_121331:900,-0.47943100000000005,-0.004547,-0.09811399999999999,0.031682999999999996,0.034707999999999996,-0.010822,-45.869999,11.18,-3.68,3a
2019-07-15_121331:920,-0.475372,0.0030210000000000002,-0.100647,0.030858999999999998,0.035104,-0.007252,-45.0,11.18,-0.56,3a
2019-07-15_121331:940,-0.466217,0.0055850000000000006,-0.09301799999999999,0.028357,0.034769,-0.005054,-45.0,11.18,-0.56,3a
2019-07-15_121331:960,-0.467743,0.002014,-0.08843999999999999,0.025885000000000002,0.0319,-0.003742,-45.0,9.37,3.0,3a
2019-07-15_121331:980,-0.472321,-0.000488,-0.082855,0.024359,0.028725999999999998,-0.002735,-45.0,9.37,3.0,3a
2019-07-15_121332:000,-0.47180200000000005,-0.004059,-0.072693,0.023688,0.025735,-0.001545,-45.0,9.37,3.0,3a
2019-07-15_121332:020,-0.477905,-0.004059,-0.070648,0.023322,0.023752000000000002,-0.0008730000000000001,-45.75,9.37,3.37,3a
2019-07-15_121332:040,-0.49468999999999996,-0.004547,-0.073212,0.023322,0.02421,-0.001057,-45.75,9.37,3.37,3a
2019-07-15_121332:060,-0.503326,-0.004547,-0.076752,0.022253,0.024942,-0.001819,-46.060001,9.0,5.0,3a
2019-07-15_121332:080,-0.500275,-0.006072999999999999,-0.069641,0.020911000000000003,0.024759,-0.002857,-46.060001,9.0,5.0,3a
2019-07-15_121332:100,-0.489075,-0.006072999999999999,-0.065063,0.020117,0.024088,-0.003254,-46.060001,9.0,5.0,3a
2019-07-15_121332:120,-0.482483,-0.006072999999999999,-0.058960000000000005,0.019446,0.021951,-0.002918,-45.0,9.0,5.37,3a
2019-07-15_121332:140,-0.471283,-0.006072999999999999,-0.053863999999999995,0.019049,0.019022,-0.002003,-45.0,9.0,5.37,3a
2019-07-15_121332:160,-0.475372,-0.006592,-0.05285599999999999,0.018713,0.016122,-0.0012699999999999999,-45.0,9.37,6.5,3a
2019-07-15_121332:180,-0.481476,-0.006592,-0.046752999999999996,0.018469,0.014597,-0.0011480000000000001,-45.0,9.37,6.5,3a
2019-07-15_121332:200,-0.48553500000000005,-0.0055850000000000006,-0.041687,0.018987999999999998,0.014931999999999999,-0.002125,-45.0,9.37,6.5,3a
2019-07-15_121332:220,-0.491638,0.000488,-0.041687,0.018774000000000002,0.015451,-0.002918,-45.75,8.56,7.25,3a
2019-07-15_121332:240,-0.489075,0.001007,-0.039124,0.017584,0.014719,-0.002796,-45.75,8.56,7.25,3a
2019-07-15_121332:260,-0.491638,0.0035399999999999997,-0.037108999999999996,0.016547,0.012949,-0.0037119999999999996,-45.369999,9.0,8.87,3a
2019-07-15_121332:280,-0.48196400000000006,0.004547,-0.035583,0.014594,0.010812,-0.003406,-45.369999,9.0,8.87,3a
2019-07-15_121332:300,-0.497742,0.006592,-0.035583,0.012884999999999999,0.008157,-0.002796,-45.369999,9.0,8.87,3a
2019-07-15_121332:320,-0.49722299999999997,0.005065999999999999,-0.037598,0.011176,0.006509,-0.001819,-45.75,7.87,10.37,3a
2019-07-15_121332:340,-0.495697,0.0035399999999999997,-0.037598,0.009955,0.004984000000000001,-0.0008119999999999999,-45.75,7.87,10.37,3a
2019-07-15_121332:360,-0.49517799999999995,0.000488,-0.039642000000000004,0.008765,0.0037020000000000004,-1.9e-05,-44.560001,6.75,10.0,3a
2019-07-15_121332:380,-0.49316400000000005,0.0035399999999999997,-0.040161,0.007634999999999999,0.001962,0.0011099999999999999,-44.560001,6.75,10.0,3a
2019-07-15_121332:400,-0.495697,0.0025329999999999997,-0.039642000000000004,0.005591,0.000589,0.002239,-44.560001,6.75,10.0,3a
2019-07-15_121332:420,-0.49722299999999997,0.002014,-0.034058,0.004187,-0.000143,0.0030629999999999998,-44.25,7.56,11.18,3a
2019-07-15_121332:440,-0.500275,-0.000488,-0.035065,0.002936,-0.000143,0.003796,-44.25,7.56,11.18,3a
2019-07-15_121332:460,-0.497742,-0.002014,-0.034058,0.002325,0.000192,0.003796,-45.0,7.56,9.18,3a
2019-07-15_121332:480,-0.507904,-0.0035399999999999997,-0.038635,0.001349,0.000589,0.0042840000000000005,-45.0,7.56,9.18,3a
2019-07-15_121332:500,-0.508423,-0.006072999999999999,-0.039642000000000004,0.001349,0.001993,0.0047420000000000006,-45.0,7.56,9.18,3a
2019-07-15_121332:520,-0.501282,-0.004059,-0.035583,0.000708,0.0029690000000000003,0.003887,-44.560001,7.56,10.0,3a
2019-07-15_121332:540,-0.495697,-0.001495,-0.034546,0.0004940000000000001,0.0033659999999999996,0.002728,-44.560001,7.56,10.0,3a
2019-07-15_121332:560,-0.491638,0.0025329999999999997,-0.032532,0.0004940000000000001,0.0034270000000000004,0.001995,-44.25,7.18,10.0,3a
2019-07-15_121332:580,-0.48858599999999996,0.008118,-0.029480000000000003,-0.000146,0.001962,0.000714,-44.25,7.18,10.0,3a
2019-07-15_121332:600,-0.489075,0.015747,-0.038116000000000004,-0.003015,-0.001364,0.0011710000000000002,-44.25,7.18,10.0,3a
2019-07-15_121332:620,-0.49365200000000004,0.016266,-0.042175,-0.005396,-0.0032259999999999997,0.0033380000000000003,-44.0,7.56,10.06,3a
2019-07-15_121332:640,-0.49111899999999997,0.014221000000000001,-0.038116000000000004,-0.0078060000000000004,-0.004233,0.003796,-44.0,7.56,10.06,3a
2019-07-15_121332:660,-0.49111899999999997,0.012695,-0.042175,-0.009515000000000001,-0.004843,0.0026969999999999997,-44.560001,6.75,10.06,3a
2019-07-15_121332:680,-0.494171,0.012695,-0.039642000000000004,-0.01098,-0.004752,0.002728,-44.560001,6.75,10.06,3a
2019-07-15_121332:700,-0.501801,0.011169,-0.041687,-0.012689,-0.0043549999999999995,0.003948,-44.560001,6.75,10.06,3a
2019-07-15_121332:720,-0.501282,0.009644,-0.041168,-0.013635,-0.0032259999999999997,0.004864,-44.25,6.75,10.5,3a
2019-07-15_121332:740,-0.502808,0.005065999999999999,-0.038635,-0.014703,-0.001578,0.004009,-44.25,6.75,10.5,3a
2019-07-15_121332:760,-0.49975600000000003,0.0025329999999999997,-0.036072,-0.014581,-0.000967,0.0033380000000000003,-45.0,7.18,10.06,3a
2019-07-15_121332:780,-0.496704,0.0025329999999999997,-0.034058,-0.014215,-0.0008449999999999999,0.0020559999999999997,-45.0,7.18,10.06,3a
2019-07-15_121332:800,-0.49926800000000005,0.0,-0.035583,-0.013512999999999999,-0.000906,0.001263,-45.0,7.18,10.06,3a
2019-07-15_121332:820,-0.497742,0.0,-0.036072,-0.012323,-0.000723,0.0006519999999999999,-44.0,8.25,9.25,3a
2019-07-15_121332:840,-0.49722299999999997,0.0,-0.039124,-0.010706,-0.001364,0.000591,-44.0,8.25,9.25,3a
2019-07-15_121332:860,-0.497742,0.0,-0.041687,-0.009179999999999999,-0.002829,0.0011099999999999999,-45.369999,8.25,9.25,3a
2019-07-15_121332:880,-0.49926800000000005,0.0025329999999999997,-0.041687,-0.007928,-0.004019,0.002117,-45.369999,8.25,9.25,3a
2019-07-15_121332:900,-0.49823,0.0025329999999999997,-0.041687,-0.007012999999999999,-0.0048130000000000004,0.003094,-45.369999,8.25,9.25,3a
2019-07-15_121332:920,-0.500275,0.0025329999999999997,-0.041687,-0.005945000000000001,-0.004079999999999999,0.003948,-45.0,7.56,9.25,3a
2019-07-15_121332:940,-0.49722299999999997,0.002014,-0.043701,-0.005457,-0.003561,0.004345,-45.0,7.56,9.25,3a
2019-07-15_121332:960,-0.495697,0.0030210000000000002,-0.044739,-0.00509,-0.0035,0.003948,-45.0,7.87,9.25,3a
2019-07-15_121332:980,-0.501282,0.007599,-0.047272,-0.00506,-0.0028899999999999998,0.003857,-45.0,7.87,9.25,3a
2019-07-15_121333:000,-0.501801,0.007599,-0.049316000000000006,-0.005945000000000001,-0.002188,0.0032159999999999997,-45.0,7.87,9.25,3a
2019-07-15_121333:020,-0.500275,0.0025329999999999997,-0.048798,-0.006342,-0.001913,0.003399,-45.0,7.87,8.06,3a
2019-07-15_121333:040,-0.500275,0.0035399999999999997,-0.047791,-0.006586,-0.001059,0.004925,-45.0,7.87,8.06,3a
2019-07-15_121333:060,-0.49823,0.000488,-0.048279,-0.006677,-0.001364,0.005016,-45.369999,8.25,7.25,3a
2019-07-15_121333:080,-0.49926800000000005,-0.001007,-0.046752999999999996,-0.006737999999999999,-0.0018219999999999998,0.0053219999999999995,-45.369999,8.25,7.25,3a
2019-07-15_121333:100,-0.500793,-0.0025329999999999997,-0.043701,-0.006403,-0.001517,0.004864,-45.369999,8.25,7.25,3a
2019-07-15_121333:120,-0.49926800000000005,-0.0030210000000000002,-0.047272,-0.006067,-0.00112,0.004681,-45.369999,8.56,8.5,3a
2019-07-15_121333:140,-0.490112,-0.0055850000000000006,-0.040649,-0.005884,-0.001852,0.004070000000000001,-45.369999,8.56,8.5,3a
2019-07-15_121333:160,-0.490601,-0.006072999999999999,-0.043213,-0.005212,-0.002768,0.003399,-45.369999,8.25,8.5,3a
2019-07-15_121333:180,-0.490601,-0.0055850000000000006,-0.043701,-0.004816,-0.003897,0.00288,-45.369999,8.25,8.5,3a
2019-07-15_121333:200,-0.490601,-0.005065999999999999,-0.044739,-0.003961,-0.004691,0.002392,-45.369999,8.25,8.5,3a
2019-07-15_121333:220,-0.49823,-0.004059,-0.048279,-0.003961,-0.005026,0.002239,-44.560001,8.56,6.5,3a
2019-07-15_121333:240,-0.501282,-0.0035399999999999997,-0.047791,-0.002893,-0.0048130000000000004,0.001599,-44.560001,8.56,6.5,3a
2019-07-15_121333:260,-0.503326,-0.0035399999999999997,-0.050323,-0.002435,-0.004111,0.001263,-44.560001,9.37,8.87,3a
2019-07-15_121333:280,-0.49926800000000005,-0.002014,-0.049805,-0.001276,-0.002646,0.001049,-44.560001,9.37,8.87,3a
2019-07-15_121333:300,-0.497742,-0.002014,-0.05285599999999999,-0.00023799999999999998,-0.002768,0.0008359999999999999,-44.560001,9.37,8.87,3a
2019-07-15_121333:320,-0.49975600000000003,-0.000488,-0.053863999999999995,0.00022,-0.002768,0.000866,-45.75,9.0,7.68,3a
2019-07-15_121333:340,-0.503326,0.002014,-0.05285599999999999,0.000983,-0.002768,0.001995,-45.75,9.0,7.68,3a
2019-07-15_121333:360,-0.502808,0.0035399999999999997,-0.052338,0.001105,-0.002493,0.002575,-45.0,7.87,8.5,3a
2019-07-15_121333:380,-0.500793,0.002014,-0.052338,0.0017460000000000002,-0.001425,0.003399,-45.0,7.87,8.5,3a
2019-07-15_121333:400,-0.49722299999999997,0.002014,-0.050842,0.001929,-0.001181,0.0032159999999999997,-45.0,7.87,8.5,3a
2019-07-15_121333:420,-0.49926800000000005,0.0025329999999999997,-0.049805,0.001715,-0.000723,0.0034909999999999997,-44.560001,8.56,7.68,3a
2019-07-15_121333:440,-0.495697,0.001495,-0.048798,0.001807,-0.00054,0.003735,-44.560001,8.56,7.68,3a
2019-07-15_121333:460,-0.495697,0.002014,-0.048279,0.00199,-0.00041799999999999997,0.003887,-44.560001,8.25,8.5,3a
2019-07-15_121333:480,-0.497742,0.0,-0.048279,0.001929,-0.0006929999999999999,0.0035520000000000005,-44.560001,8.25,8.5,3a
2019-07-15_121333:500,-0.497742,0.0,-0.048279,0.002081,-0.000906,0.002758,-44.560001,8.25,8.5,3a
2019-07-15_121333:520,-0.49365200000000004,0.0,-0.047272,0.002539,-0.000967,0.002728,-44.560001,8.56,7.37,3a
2019-07-15_121333:540,-0.496216,0.0,-0.049316000000000006,0.0026,-0.0017,0.002728,-44.560001,8.56,7.37,3a
2019-07-15_121333:560,-0.49468999999999996,0.000488,-0.049316000000000006,0.002936,-0.001974,0.0026969999999999997,-44.560001,8.56,7.37,3a
2019-07-15_121333:580,-0.49823,-0.000488,-0.050323,0.003333,-0.002768,0.002758,-44.560001,7.56,8.06,3a
2019-07-15_121333:600,-0.49468999999999996,0.0,-0.050842,0.003912,-0.003043,0.002728,-44.560001,7.56,8.06,3a
2019-07-15_121333:620,-0.49722299999999997,0.002014,-0.053375,0.0041259999999999995,-0.002951,0.0028190000000000003,-44.0,9.0,7.37,3a
2019-07-15_121333:640,-0.49517799999999995,0.001495,-0.051849,0.004309,-0.0032869999999999996,0.003002,-44.0,9.0,7.37,3a
2019-07-15_121333:660,-0.497742,0.0025329999999999997,-0.05285599999999999,0.004248,-0.003378,0.003002,-44.0,9.0,7.37,3a
2019-07-15_121333:680,-0.496704,0.001007,-0.055389,0.0041259999999999995,-0.003561,0.0032159999999999997,-45.369999,8.56,7.68,3a
2019-07-15_121333:700,-0.496704,0.002014,-0.054901,0.004065,-0.003622,0.003399,-45.369999,8.56,7.68,3a
2019-07-15_121333:720,-0.496216,0.000488,-0.055389,0.003912,-0.003348,0.00346,-44.560001,8.25,6.87,3a
2019-07-15_121333:740,-0.49975600000000003,0.001007,-0.055908000000000006,0.00379,-0.003378,0.003399,-44.560001,8.25,6.87,3a
2019-07-15_121333:760,-0.49517799999999995,0.002014,-0.057434000000000006,0.003729,-0.0032869999999999996,0.00346,-44.560001,8.25,6.87,3a
2019-07-15_121333:780,-0.49926800000000005,0.001007,-0.057953,0.00379,-0.002951,0.0036130000000000003,-45.369999,8.25,7.68,3a
2019-07-15_121333:800,-0.496704,0.000488,-0.057953,0.003668,-0.002829,0.0035520000000000005,-45.369999,8.25,7.68,3a
2019-07-15_121333:820,-0.497742,0.000488,-0.05996699999999999,0.003271,-0.002829,0.003796,-44.25,7.87,7.68,3a
2019-07-15_121333:840,-0.496704,0.0,-0.058960000000000005,0.002997,-0.002432,0.0035520000000000005,-44.25,7.87,7.68,3a
2019-07-15_121333:860,-0.496704,0.0,-0.06149299999999999,0.002539,-0.002097,0.00288,-44.25,7.87,7.68,3a
2019-07-15_121333:880,-0.49468999999999996,0.001495,-0.06253099999999999,0.002448,-0.00231,0.002636,-41.369999,7.56,7.25,3a
2019-07-15_121333:900,-0.49722299999999997,0.001007,-0.062012,0.002325,-0.0023710000000000003,0.00288,-41.369999,7.56,7.25,3a
2019-07-15_121333:920,-0.497742,0.0,-0.06253099999999999,0.002478,-0.002554,0.0028190000000000003,-45.0,7.87,7.25,3a
2019-07-15_121333:940,-0.496216,0.0,-0.063019,0.0026,-0.001913,0.002758,-45.0,7.87,7.25,3a
2019-07-15_121333:960,-0.503845,0.000488,-0.05996699999999999,0.002722,-0.001974,0.0032770000000000004,-45.0,7.87,7.25,3a
2019-07-15_121333:980,-0.489594,0.001495,-0.061005,0.002539,-0.001242,0.0033380000000000003,-45.0,8.25,7.68,3a
2019-07-15_121334:000,-0.49517799999999995,0.0,-0.06149299999999999,0.002325,-0.001303,0.003002,-45.0,8.25,7.68,3a
2019-07-15_121334:020,-0.49926800000000005,0.002014,-0.060486,0.0021420000000000002,-0.001517,0.002728,-45.369999,8.56,7.68,3a
2019-07-15_121334:040,-0.496704,0.0030210000000000002,-0.061005,0.001685,-0.0010279999999999998,0.002941,-45.369999,8.56,7.68,3a
2019-07-15_121334:060,-0.49517799999999995,0.001007,-0.05996699999999999,0.00144,-0.0010279999999999998,0.00288,-45.369999,8.56,7.68,3a
2019-07-15_121334:080,-0.49468999999999996,0.000488,-0.060486,0.001501,-0.001242,0.002514,-45.369999,7.56,7.25,3a
2019-07-15_121334:100,-0.49823,0.0035399999999999997,-0.05996699999999999,0.00144,-0.001517,0.002392,-45.369999,7.56,7.25,3a
2019-07-15_121334:120,-0.49468999999999996,0.002014,-0.062012,0.00144,-0.001364,0.002636,-44.560001,9.37,5.68,3a
2019-07-15_121334:140,-0.49722299999999997,0.000488,-0.062012,0.00144,-0.001425,0.002728,-44.560001,9.37,5.68,3a
2019-07-15_121334:160,-0.49722299999999997,0.001495,-0.063538,0.001349,-0.001578,0.002575,-44.560001,9.37,5.68,3a
2019-07-15_121334:180,-0.49975600000000003,0.000488,-0.063019,0.001227,-0.001181,0.0021780000000000002,-45.369999,8.25,7.25,3a
2019-07-15_121334:200,-0.498749,0.001495,-0.06405599999999999,0.0016239999999999998,-0.00041799999999999997,0.0020559999999999997,-45.369999,8.25,7.25,3a
2019-07-15_121334:220,-0.496704,0.002014,-0.064545,0.001227,-0.000357,0.001843,-45.75,9.0,7.68,3a
2019-07-15_121334:240,-0.496216,0.001495,-0.064545,0.001501,-0.000143,0.001599,-45.75,9.0,7.68,3a
2019-07-15_121334:260,-0.49722299999999997,0.001007,-0.06405599999999999,0.001685,-0.000204,0.0019039999999999999,-45.75,9.0,7.68,3a
2019-07-15_121334:280,-0.496216,0.0035399999999999997,-0.06253099999999999,0.002081,-0.000204,0.0019039999999999999,-45.0,8.25,6.5,3a
2019-07-15_121334:300,-0.49722299999999997,0.005065999999999999,-0.06253099999999999,0.002264,7e-05,0.0021780000000000002,-45.0,8.25,6.5,3a
2019-07-15_121334:320,-0.49722299999999997,0.004059,-0.06253099999999999,0.002203,0.000314,0.0021780000000000002,-45.0,8.56,6.87,3a
2019-07-15_121334:340,-0.496216,0.005065999999999999,-0.061005,0.002386,0.000711,0.0023,-45.0,8.56,6.87,3a
2019-07-15_121334:360,-0.496704,0.0055850000000000006,-0.06253099999999999,0.002081,0.000925,0.002575,-45.0,8.56,6.87,3a
2019-07-15_121334:380,-0.496216,0.0055850000000000006,-0.06253099999999999,0.0020510000000000003,0.000925,0.0028190000000000003,-45.0,8.25,6.5,3a
2019-07-15_121334:400,-0.49468999999999996,0.005065999999999999,-0.060486,0.001685,0.000375,0.003002,-45.0,8.25,6.5,3a
2019-07-15_121334:420,-0.496704,0.005065999999999999,-0.05996699999999999,0.00144,0.000314,0.003094,-44.560001,8.25,8.06,3a
2019-07-15_121334:440,-0.49722299999999997,0.002014,-0.058960000000000005,0.001166,0.00025299999999999997,0.0035520000000000005,-44.560001,8.25,8.06,3a
2019-07-15_121334:460,-0.496216,0.004059,-0.058441,0.001379,0.00025299999999999997,0.003674,-44.560001,8.25,8.06,3a
2019-07-15_121334:480,-0.49926800000000005,0.002014,-0.058441,0.001105,0.00046699999999999997,0.0035520000000000005,-44.560001,9.0,6.87,3a
2019-07-15_121334:500,-0.49517799999999995,0.0025329999999999997,-0.058960000000000005,0.0009519999999999999,0.000711,0.0035520000000000005,-44.560001,9.0,6.87,3a
2019-07-15_121334:520,-0.49365200000000004,0.0030210000000000002,-0.058441,0.001044,0.000436,0.0033380000000000003,-45.0,7.56,8.06,3a
2019-07-15_121334:540,-0.49468999999999996,0.002014,-0.057434000000000006,0.000891,0.000131,0.002728,-45.0,7.56,8.06,3a
2019-07-15_121334:560,-0.49468999999999996,0.001495,-0.05996699999999999,0.000708,-8.2e-05,0.0024530000000000003,-45.0,7.56,8.06,3a
2019-07-15_121334:580,-0.494171,0.001007,-0.058441,0.000769,-0.000357,0.002758,-45.0,8.56,6.5,3a
2019-07-15_121334:600,-0.49316400000000005,0.0,-0.059479,0.0009519999999999999,-0.000479,0.002728,-45.0,8.56,6.5,3a
2019-07-15_121334:620,-0.49468999999999996,0.0,-0.060486,0.00144,-0.0008449999999999999,0.002728,-44.25,7.87,6.87,3a
2019-07-15_121334:640,-0.494171,0.0,-0.057953,0.002081,-0.0008449999999999999,0.0032770000000000004,-44.25,7.87,6.87,3a
2019-07-15_121334:660,-0.496216,0.000488,-0.061005,0.002448,-0.000723,0.00346,-44.25,7.87,6.87,3a
2019-07-15_121334:680,-0.49722299999999997,0.0025329999999999997,-0.06253099999999999,0.0026,-0.000662,0.003399,-44.25,7.56,6.5,3a
2019-07-15_121334:700,-0.49823,0.0030210000000000002,-0.06149299999999999,0.002539,-0.000601,0.00346,-44.25,7.56,6.5,3a
2019-07-15_121334:720,-0.49926800000000005,0.0030210000000000002,-0.06253099999999999,0.0020510000000000003,-0.000327,0.0031550000000000003,-44.0,7.18,7.68,3a
2019-07-15_121334:740,-0.49823,0.0030210000000000002,-0.058960000000000005,0.0018679999999999999,0.000192,0.0033380000000000003,-44.0,7.18,7.68,3a
2019-07-15_121334:760,-0.49722299999999997,0.0030210000000000002,-0.058960000000000005,0.0015630000000000002,0.000711,0.0035520000000000005,-44.0,7.18,7.68,3a
2019-07-15_121334:780,-0.49517799999999995,0.0025329999999999997,-0.058441,0.00144,0.000711,0.003796,-44.0,8.56,6.5,3a
2019-07-15_121334:800,-0.494171,0.0035399999999999997,-0.057953,0.001227,0.000436,0.004406,-44.0,8.56,6.5,3a
2019-07-15_121334:820,-0.494171,0.002014,-0.058441,0.000891,-2.1e-05,0.0044670000000000005,-45.0,8.56,6.87,3a
2019-07-15_121334:840,-0.49468999999999996,0.000488,-0.057953,0.000586,0.000314,0.0044670000000000005,-45.0,8.56,6.87,3a
2019-07-15_121334:860,-0.495697,-0.001495,-0.058441,-0.000146,-0.000327,0.004345,-45.0,8.56,6.87,3a
2019-07-15_121334:880,-0.49468999999999996,-0.0025329999999999997,-0.056915,-0.00023799999999999998,-0.000266,0.004070000000000001,-45.75,8.25,8.06,3a
2019-07-15_121334:900,-0.49722299999999997,-0.0025329999999999997,-0.057434000000000006,-0.000177,-0.000357,0.0036130000000000003,-45.75,8.25,8.06,3a
2019-07-15_121334:920,-0.496216,-0.004547,-0.057434000000000006,-0.000146,-8.2e-05,0.0032770000000000004,-45.0,7.87,7.25,3a
2019-07-15_121334:940,-0.49468999999999996,-0.004059,-0.056427,0.0005549999999999999,-0.000204,0.002941,-45.0,7.87,7.25,3a
2019-07-15_121334:960,-0.496216,-0.002014,-0.057953,0.000983,-0.000327,0.00288,-45.0,7.87,7.25,3a
2019-07-15_121334:980,-0.496704,-0.000488,-0.056427,0.001288,-0.000601,0.002728,-44.560001,9.37,6.5,3a
2019-07-15_121335:000,-0.496704,0.001495,-0.055908000000000006,0.001349,-0.00041799999999999997,0.002575,-44.560001,9.37,6.5,3a
2019-07-15_121335:020,-0.496216,0.002014,-0.056915,0.001227,-0.000204,0.0026969999999999997,-44.560001,8.56,7.37,3a
2019-07-15_121335:040,-0.49722299999999997,0.001495,-0.05438200000000001,0.001105,-0.00054,0.0028190000000000003,-44.560001,8.56,7.37,3a
2019-07-15_121335:060,-0.49468999999999996,0.0025329999999999997,-0.054901,0.000433,-0.000662,0.002728,-44.560001,8.56,7.37,3a
2019-07-15_121335:080,-0.49468999999999996,0.001495,-0.055908000000000006,3.7e-05,-0.000906,0.002636,-44.25,8.25,7.25,3a
2019-07-15_121335:100,-0.494171,0.000488,-0.05438200000000001,-0.00023799999999999998,-0.0010279999999999998,0.002575,-44.25,8.25,7.25,3a
2019-07-15_121335:120,-0.49468999999999996,0.0,-0.054901,-8.499999999999999e-05,-0.001364,0.002361,-44.25,8.56,7.68,3a
2019-07-15_121335:140,-0.494171,0.0,-0.05438200000000001,-0.000146,-0.001639,0.001995,-44.25,8.56,7.68,3a
2019-07-15_121335:160,-0.495697,-0.000488,-0.055908000000000006,0.000586,-0.001761,0.001843,-44.25,8.56,7.68,3a
2019-07-15_121335:180,-0.49468999999999996,0.001007,-0.057434000000000006,0.001349,-0.0022489999999999997,0.001843,-45.0,9.0,8.06,3a
2019-07-15_121335:200,-0.496216,0.0025329999999999997,-0.056915,0.001929,-0.002493,0.0023,-45.0,9.0,8.06,3a
2019-07-15_121335:220,-0.498749,0.0035399999999999997,-0.057953,0.002325,-0.002554,0.002636,-45.0,8.56,6.5,3a
2019-07-15_121335:240,-0.49316400000000005,0.006592,-0.057434000000000006,0.002478,-0.002585,0.003002,-45.0,8.56,6.5,3a
2019-07-15_121335:260,-0.49517799999999995,0.005065999999999999,-0.058960000000000005,0.001929,-0.0028899999999999998,0.0026969999999999997,-45.0,8.56,6.5,3a
2019-07-15_121335:280,-0.49468999999999996,0.006592,-0.06253099999999999,0.001288,-0.002951,0.002239,-45.0,8.25,7.37,3a
2019-07-15_121335:300,-0.496704,0.006592,-0.06253099999999999,0.000769,-0.0032869999999999996,0.002392,-45.0,8.25,7.37,3a
2019-07-15_121335:320,-0.49926800000000005,0.0055850000000000006,-0.063019,0.00037200000000000004,-0.002982,0.002728,-45.0,8.25,6.5,3a
2019-07-15_121335:340,-0.49975600000000003,0.0035399999999999997,-0.063538,0.00037200000000000004,-0.002493,0.003094,-45.0,8.25,6.5,3a
2019-07-15_121335:360,-0.497742,0.0030210000000000002,-0.063538,0.000708,-0.001974,0.0032770000000000004,-45.0,8.25,6.5,3a
2019-07-15_121335:380,-0.49517799999999995,0.002014,-0.062012,0.0008300000000000001,-0.001456,0.0035520000000000005,-44.25,8.56,7.68,3a
2019-07-15_121335:400,-0.49468999999999996,0.0025329999999999997,-0.062012,0.001349,-0.001425,0.0035520000000000005,-44.25,8.56,7.68,3a
2019-07-15_121335:420,-0.494171,0.0035399999999999997,-0.06405599999999999,0.001349,-0.001852,0.0031550000000000003,-51.560001,8.25,6.18,3a
2019-07-15_121335:440,-0.49975600000000003,0.0035399999999999997,-0.06253099999999999,0.00144,-0.00231,0.0033380000000000003,-51.560001,8.25,6.18,3a
2019-07-15_121335:460,-0.497742,0.0055850000000000006,-0.064545,0.001349,-0.002493,0.0031550000000000003,-51.560001,8.25,6.18,3a
2019-07-15_121335:480,-0.49517799999999995,0.0035399999999999997,-0.064545,0.001349,-0.001578,0.0031550000000000003,-45.369999,8.25,8.87,3a
2019-07-15_121335:500,-0.49517799999999995,0.0035399999999999997,-0.06405599999999999,0.001044,-0.001303,0.00288,-45.369999,8.25,8.87,3a
2019-07-15_121335:520,-0.49468999999999996,0.005065999999999999,-0.065063,0.00144,-0.00112,0.002636,-44.560001,8.56,6.18,3a
2019-07-15_121335:540,-0.49316400000000005,0.005065999999999999,-0.064545,0.001227,-0.001181,0.0030629999999999998,-44.560001,8.56,6.18,3a
2019-07-15_121335:560,-0.49316400000000005,0.0055850000000000006,-0.065063,0.001166,-0.001303,0.0030629999999999998,-44.560001,8.56,6.18,3a
2019-07-15_121335:580,-0.49316400000000005,0.004059,-0.06405599999999999,0.000891,-0.001578,0.003094,-45.0,8.25,6.5,3a
2019-07-15_121335:600,-0.49517799999999995,0.004547,-0.06405599999999999,0.0009519999999999999,-0.0017,0.0030629999999999998,-45.0,8.25,6.5,3a
2019-07-15_121335:620,-0.49517799999999995,0.0030210000000000002,-0.064545,0.001044,-0.001425,0.003002,-45.369999,7.56,5.68,3a
2019-07-15_121335:640,-0.49517799999999995,0.0025329999999999997,-0.063019,0.000769,-0.001425,0.002514,-45.369999,7.56,5.68,3a
2019-07-15_121335:660,-0.492645,0.0035399999999999997,-0.065063,0.001044,-0.0008449999999999999,0.002392,-45.369999,7.56,5.68,3a
2019-07-15_121335:680,-0.492645,0.0025329999999999997,-0.065063,0.001685,-0.000906,0.002575,-45.0,8.25,7.25,3a
2019-07-15_121335:700,-0.49316400000000005,0.0025329999999999997,-0.065582,0.001715,-0.001517,0.002514,-45.0,8.25,7.25,3a
2019-07-15_121335:720,-0.494171,0.004059,-0.067596,0.0018679999999999999,-0.0017,0.002758,-45.369999,8.56,8.06,3a
2019-07-15_121335:740,-0.496216,0.005065999999999999,-0.065063,0.001929,-0.0017,0.003002,-45.369999,8.56,8.06,3a
2019-07-15_121335:760,-0.495697,0.0055850000000000006,-0.068634,0.00199,-0.001517,0.002941,-45.369999,8.56,8.06,3a
2019-07-15_121335:780,-0.49517799999999995,0.0055850000000000006,-0.066589,0.001807,-0.001059,0.002941,-45.369999,9.0,6.5,3a
2019-07-15_121335:800,-0.494171,0.006072999999999999,-0.066589,0.001685,-0.000967,0.002941,-45.369999,9.0,6.5,3a
2019-07-15_121335:820,-0.491638,0.006592,-0.065582,0.001501,-0.000723,0.00288,-45.0,8.25,6.18,3a
2019-07-15_121335:840,-0.490601,0.0055850000000000006,-0.065063,0.000983,-0.0008449999999999999,0.002636,-45.0,8.25,6.18,3a
2019-07-15_121335:860,-0.49365200000000004,0.0055850000000000006,-0.065063,0.000586,-0.001364,0.002392,-45.0,8.25,6.18,3a
2019-07-15_121335:880,-0.49468999999999996,0.004059,-0.065582,0.000891,-0.001242,0.002636,-45.0,7.87,6.06,3a
2019-07-15_121335:900,-0.494171,0.004547,-0.064545,0.0008300000000000001,-0.0008449999999999999,0.0023,-45.0,7.87,6.06,3a
2019-07-15_121335:920,-0.49316400000000005,0.0055850000000000006,-0.063019,0.000769,-0.000906,0.0020559999999999997,-45.369999,9.0,6.5,3a
2019-07-15_121335:940,-0.49517799999999995,0.004547,-0.06253099999999999,0.000769,-0.00112,0.002117,-45.369999,9.0,6.5,3a
2019-07-15_121335:960,-0.490601,0.007111,-0.06405599999999999,0.000647,-0.001059,0.0020559999999999997,-45.369999,9.0,6.5,3a
2019-07-15_121335:980,-0.492126,0.0055850000000000006,-0.064545,0.000769,-0.0017,0.002117,-44.560001,8.25,6.87,3a
2019-07-15_121336:000,-0.492645,0.006072999999999999,-0.064545,0.0008300000000000001,-0.00231,0.001568,-44.560001,8.25,6.87,3a
2019-07-15_121336:020,-0.49365200000000004,0.006072999999999999,-0.066589,0.001227,-0.00231,0.001446,-46.060001,8.25,6.5,3a
2019-07-15_121336:040,-0.495697,0.006592,-0.065063,0.0016239999999999998,-0.0022489999999999997,0.001843,-46.060001,8.25,6.5,3a
2019-07-15_121336:060,-0.49926800000000005,0.006072999999999999,-0.066071,0.0015630000000000002,-0.001517,0.0021780000000000002,-46.060001,8.25,6.5,3a
2019-07-15_121336:080,-0.494171,0.007599,-0.067108,0.001807,-0.001059,0.0023,-45.0,7.87,7.25,3a
2019-07-15_121336:100,-0.492126,0.008636,-0.066071,0.002203,-0.000784,0.0023,-45.0,7.87,7.25,3a
2019-07-15_121336:120,-0.491638,0.008636,-0.066071,0.001929,-0.001578,0.002392,-46.060001,7.87,5.0,3a
2019-07-15_121336:140,-0.490601,0.009644,-0.066589,0.0020510000000000003,-0.001517,0.0024530000000000003,-46.060001,7.87,5.0,3a
2019-07-15_121336:160,-0.494171,0.009644,-0.066589,0.0016239999999999998,-0.001639,0.0031550000000000003,-46.060001,7.87,5.0,3a
2019-07-15_121336:180,-0.49365200000000004,0.008636,-0.068115,0.001379,-0.001913,0.0036130000000000003,-45.369999,8.25,6.5,3a
2019-07-15_121336:200,-0.492126,0.007111,-0.067108,0.001227,-0.001974,0.003399,-45.369999,8.25,6.5,3a
2019-07-15_121336:220,-0.490601,0.006592,-0.069122,0.001227,-0.0022489999999999997,0.0028190000000000003,-45.0,7.87,7.68,3a
2019-07-15_121336:240,-0.490601,0.006592,-0.067596,0.000983,-0.002829,0.002758,-45.0,7.87,7.68,3a
2019-07-15_121336:260,-0.491638,0.006072999999999999,-0.070648,0.001166,-0.003043,0.0032770000000000004,-45.0,7.87,7.68,3a
2019-07-15_121336:280,-0.492645,0.004547,-0.07016,0.000891,-0.003561,0.0032159999999999997,-45.0,8.25,6.18,3a
2019-07-15_121336:300,-0.49468999999999996,0.0055850000000000006,-0.071686,0.000708,-0.003378,0.003094,-45.0,8.25,6.18,3a
2019-07-15_121336:320,-0.49468999999999996,0.004059,-0.071686,0.001227,-0.002982,0.0030629999999999998,-45.369999,7.87,6.18,3a
2019-07-15_121336:340,-0.494171,0.0055850000000000006,-0.07016,0.001501,-0.003104,0.002758,-45.369999,7.87,6.18,3a
2019-07-15_121336:360,-0.49468999999999996,0.005065999999999999,-0.073212,0.0017460000000000002,-0.0028899999999999998,0.002728,-45.369999,7.87,6.18,3a
2019-07-15_121336:380,-0.494171,0.0055850000000000006,-0.0737,0.0017460000000000002,-0.002707,0.002575,-45.0,8.25,7.37,3a
2019-07-15_121336:400,-0.49517799999999995,0.006592,-0.075745,0.001807,-0.002493,0.002361,-45.0,8.25,7.37,3a
2019-07-15_121336:420,-0.49365200000000004,0.0055850000000000006,-0.075226,0.002081,-0.002097,0.0020559999999999997,-45.75,8.25,5.68,3a
2019-07-15_121336:440,-0.49365200000000004,0.006592,-0.075226,0.002203,-0.002036,0.0021780000000000002,-45.75,8.25,5.68,3a
2019-07-15_121336:460,-0.49316400000000005,0.008636,-0.076263,0.0021420000000000002,-0.001761,0.002361,-45.75,8.25,5.68,3a
2019-07-15_121336:480,-0.492645,0.008118,-0.074738,0.0020510000000000003,-0.001852,0.0024530000000000003,-45.0,8.25,6.5,3a
2019-07-15_121336:500,-0.492645,0.008118,-0.074738,0.001929,-0.002097,0.0026969999999999997,-45.0,8.25,6.5,3a
2019-07-15_121336:520,-0.49365200000000004,0.008636,-0.075745,0.0018679999999999999,-0.001456,0.002728,-45.0,7.56,6.18,3a
2019-07-15_121336:540,-0.492645,0.008636,-0.074738,0.001685,-0.001181,0.002728,-45.0,7.56,6.18,3a
2019-07-15_121336:560,-0.49316400000000005,0.007599,-0.075745,0.001501,-0.001303,0.002514,-45.0,7.56,6.18,3a
2019-07-15_121336:580,-0.492645,0.007111,-0.076263,0.001715,-0.001181,0.002514,-45.369999,7.87,5.37,3a
2019-07-15_121336:600,-0.492645,0.008636,-0.07421900000000001,0.001715,-0.00112,0.0026969999999999997,-45.369999,7.87,5.37,3a
2019-07-15_121336:620,-0.491638,0.008636,-0.076263,0.0020510000000000003,-0.001181,0.002758,-45.0,7.87,5.37,3a
2019-07-15_121336:640,-0.49722299999999997,0.007599,-0.075745,0.0020510000000000003,-0.001059,0.00288,-45.0,7.87,5.37,3a
2019-07-15_121336:660,-0.497742,0.008118,-0.075226,0.002081,-0.000662,0.0031550000000000003,-45.0,7.87,5.37,3a
2019-07-15_121336:680,-0.492645,0.009125,-0.075745,0.0020510000000000003,-0.000357,0.0032159999999999997,-44.560001,8.56,5.68,3a
2019-07-15_121336:700,-0.49365200000000004,0.007599,-0.074738,0.001715,-0.000204,0.002392,-44.560001,8.56,5.68,3a
2019-07-15_121336:720,-0.492126,0.010651,-0.076263,0.0015630000000000002,-0.000204,0.002239,-45.369999,7.18,5.0,3a
2019-07-15_121336:740,-0.492645,0.010162000000000001,-0.076263,0.001379,-0.000357,0.002514,-45.369999,7.18,5.0,3a
2019-07-15_121336:760,-0.494171,0.009644,-0.075745,0.001166,-0.000327,0.0026969999999999997,-45.369999,7.18,5.0,3a
2019-07-15_121336:780,-0.49365200000000004,0.008636,-0.075745,0.001715,0.000375,0.0030629999999999998,-45.0,8.25,5.68,3a
2019-07-15_121336:800,-0.49316400000000005,0.009125,-0.074738,0.0017460000000000002,0.000436,0.003674,-45.0,8.25,5.68,3a
2019-07-15_121336:820,-0.49111899999999997,0.010162000000000001,-0.0737,0.0016239999999999998,0.000436,0.003887,-45.0,8.25,5.68,3a
2019-07-15_121336:840,-0.490112,0.010162000000000001,-0.072693,0.001685,-0.000143,0.004345,-45.369999,7.56,5.68,3a
2019-07-15_121336:860,-0.490601,0.011169,-0.073212,0.001501,-0.000357,0.0042840000000000005,-45.369999,7.56,5.68,3a
2019-07-15_121336:880,-0.492645,0.010651,-0.072693,0.000769,-0.000662,0.004406,-45.369999,8.25,4.5,3a
2019-07-15_121336:900,-0.49517799999999995,0.008636,-0.072174,0.00015900000000000002,-0.000662,0.0047420000000000006,-45.369999,8.25,4.5,3a
2019-07-15_121336:920,-0.494171,0.009125,-0.07421900000000001,-8.499999999999999e-05,-0.000266,0.005078,-45.369999,7.87,6.5,3a
2019-07-15_121336:940,-0.494171,0.0055850000000000006,-0.07421900000000001,-0.000421,-0.000266,0.004864,-45.369999,7.87,6.5,3a
2019-07-15_121336:960,-0.490601,0.004059,-0.0737,-0.000177,-0.000143,0.004803,-45.369999,7.87,6.5,3a
2019-07-15_121336:980,-0.491638,0.004547,-0.07421900000000001,-8.499999999999999e-05,-0.000266,0.004925,-45.0,7.87,6.18,3a
2019-07-15_121337:000,-0.49365200000000004,0.0025329999999999997,-0.073212,-2.4e-05,-0.000601,0.004925,-45.0,7.87,6.18,3a
2019-07-15_121337:020,-0.49365200000000004,0.0030210000000000002,-0.076263,0.00015900000000000002,-0.00041799999999999997,0.004925,-45.0,7.87,6.18,3a
2019-07-15_121337:040,-0.49468999999999996,0.0035399999999999997,-0.0737,0.000433,-0.00041799999999999997,0.004864,-45.369999,8.56,5.68,3a
2019-07-15_121337:060,-0.49365200000000004,0.0025329999999999997,-0.072174,0.00025,-0.000266,0.004345,-45.369999,8.56,5.68,3a
2019-07-15_121337:080,-0.494171,0.0035399999999999997,-0.0737,0.00015900000000000002,7e-05,0.004009,-45.75,8.56,5.0,3a
2019-07-15_121337:100,-0.492645,0.0035399999999999997,-0.071686,-2.4e-05,0.000131,0.004009,-45.75,8.56,5.0,3a
2019-07-15_121337:120,-0.491638,0.0030210000000000002,-0.072693,-8.499999999999999e-05,0.000375,0.003857,-45.75,8.56,5.0,3a
2019-07-15_121337:140,-0.492126,0.0030210000000000002,-0.071686,-0.000146,0.000314,0.004009,-45.75,8.56,5.37,3a
2019-07-15_121337:160,-0.490601,0.0025329999999999997,-0.071686,0.00022,-8.2e-05,0.003796,-45.75,8.56,5.37,3a
2019-07-15_121337:180,-0.49316400000000005,0.0030210000000000002,-0.072174,0.00022,-0.000266,0.003948,-44.560001,9.0,6.5,3a
2019-07-15_121337:200,-0.492126,0.0025329999999999997,-0.070648,0.00015900000000000002,-0.000327,0.004009,-44.560001,9.0,6.5,3a
2019-07-15_121337:220,-0.494171,0.0035399999999999997,-0.072174,0.00025,-0.00041799999999999997,0.004009,-44.560001,9.0,6.5,3a
2019-07-15_121337:240,-0.492645,0.0025329999999999997,-0.070648,0.00022,-8.2e-05,0.003796,-45.369999,9.0,5.0,3a
2019-07-15_121337:260,-0.49365200000000004,0.002014,-0.071686,0.00015900000000000002,-0.000357,0.003796,-45.369999,9.0,5.0,3a
2019-07-15_121337:280,-0.494171,0.002014,-0.071167,3.7e-05,-0.000204,0.003735,-45.369999,8.25,7.25,3a
2019-07-15_121337:300,-0.49365200000000004,0.001007,-0.071686,-2.4e-05,-0.000266,0.003857,-45.369999,8.25,7.25,3a
2019-07-15_121337:320,-0.49316400000000005,0.0,-0.072174,0.00015900000000000002,-2.1e-05,0.003887,-45.369999,8.25,7.25,3a
2019-07-15_121337:340,-0.492645,0.000488,-0.072693,0.00015900000000000002,-8.2e-05,0.003796,-46.060001,9.0,5.68,3a
2019-07-15_121337:360,-0.494171,0.0,-0.071167,0.00015900000000000002,-0.000357,0.003948,-46.060001,9.0,5.68,3a
2019-07-15_121337:380,-0.49316400000000005,0.0,-0.072693,0.00022,-0.000143,0.004009,-45.0,9.0,5.37,3a
2019-07-15_121337:400,-0.49316400000000005,0.0,-0.069122,0.00015900000000000002,-2.1e-05,0.003857,-45.0,9.0,5.37,3a
2019-07-15_121337:420,-0.49517799999999995,-0.000488,-0.070648,0.00037200000000000004,0.000131,0.0034909999999999997,-45.0,9.0,5.37,3a
2019-07-15_121337:440,-0.49111899999999997,0.0,-0.070648,0.00031099999999999997,0.000589,0.0032159999999999997,-45.0,9.0,6.5,3a
2019-07-15_121337:460,-0.490112,-0.001007,-0.070648,0.00015900000000000002,4e-05,0.00288,-45.0,9.0,6.5,3a
2019-07-15_121337:480,-0.49111899999999997,-0.0030210000000000002,-0.070648,0.00031099999999999997,-2.1e-05,0.002117,-37.68,9.0,5.37,3a
2019-07-15_121337:500,-0.491638,-0.000488,-0.069641,0.0005549999999999999,-0.000357,0.0016600000000000002,-37.68,9.0,5.37,3a
2019-07-15_121337:520,-0.492126,-0.000488,-0.071167,0.001105,-0.000601,0.001843,-37.68,9.0,5.37,3a
2019-07-15_121337:540,-0.49365200000000004,0.0,-0.071686,0.001288,-0.000723,0.001721,-45.369999,8.56,5.68,3a
2019-07-15_121337:560,-0.492645,0.0025329999999999997,-0.069122,0.0015630000000000002,-0.000784,0.002239,-45.369999,8.56,5.68,3a
2019-07-15_121337:580,-0.49111899999999997,0.0025329999999999997,-0.069641,0.001929,-0.00054,0.002728,-45.369999,8.56,5.68,3a
2019-07-15_121337:600,-0.490601,0.005065999999999999,-0.069641,0.001807,-0.000723,0.0026969999999999997,-45.369999,8.56,5.68,3a
2019-07-15_121337:620,-0.489594,0.004547,-0.070648,0.001044,-0.001425,0.002636,-45.369999,8.56,5.68,3a
2019-07-15_121337:640,-0.49316400000000005,0.004547,-0.071167,0.0004940000000000001,-0.001303,0.002636,-44.560001,9.37,5.37,3a
2019-07-15_121337:660,-0.49517799999999995,0.005065999999999999,-0.07016,-0.000177,-0.001364,0.002636,-44.560001,9.37,5.37,3a
2019-07-15_121337:680,-0.496704,0.0035399999999999997,-0.072693,-0.000543,-0.000906,0.002392,-44.560001,8.56,5.37,3a
2019-07-15_121337:700,-0.49365200000000004,0.002014,-0.071167,-0.000482,-2.1e-05,0.001782,-44.560001,8.56,5.37,3a
2019-07-15_121337:720,-0.492645,0.002014,-0.073212,-2.4e-05,-0.000204,0.001507,-44.560001,8.56,5.37,3a
2019-07-15_121337:740,-0.491638,0.0035399999999999997,-0.075226,0.000647,-0.000601,0.0019039999999999999,-45.75,8.25,6.5,3a
2019-07-15_121337:760,-0.492645,0.0025329999999999997,-0.075226,0.001044,-0.001303,0.002728,-45.75,8.25,6.5,3a
2019-07-15_121337:780,-0.49365200000000004,0.005065999999999999,-0.076263,0.00144,-0.0017,0.0034909999999999997,-46.060001,9.0,6.87,3a
2019-07-15_121337:800,-0.49926800000000005,0.005065999999999999,-0.074738,0.001501,-0.0017,0.003948,-46.060001,9.0,6.87,3a
2019-07-15_121337:820,-0.501801,0.005065999999999999,-0.074738,0.001227,-0.001517,0.003674,-46.060001,9.0,6.87,3a
2019-07-15_121337:840,-0.498749,0.005065999999999999,-0.072174,0.0009519999999999999,-0.000601,0.0028190000000000003,-45.75,9.0,5.37,3a
2019-07-15_121337:860,-0.497742,0.006072999999999999,-0.069122,0.001227,0.00025299999999999997,0.001782,-45.75,9.0,5.37,3a
2019-07-15_121337:880,-0.497742,0.0055850000000000006,-0.068634,0.001166,0.00126,0.001385,-45.369999,8.56,5.0,3a
2019-07-15_121337:900,-0.49926800000000005,0.006592,-0.066589,0.000983,0.001596,0.0011099999999999999,-45.369999,8.56,5.0,3a
2019-07-15_121337:920,-0.49517799999999995,0.004547,-0.063019,0.001166,0.0022370000000000003,0.0008359999999999999,-45.369999,8.56,5.0,3a
2019-07-15_121337:940,-0.490601,0.0055850000000000006,-0.060486,0.001685,0.0034579999999999997,0.000317,-45.369999,8.56,6.18,3a
2019-07-15_121337:960,-0.48553500000000005,0.006072999999999999,-0.058441,0.002478,0.003915,-1.9e-05,-45.369999,8.56,6.18,3a
2019-07-15_121337:980,-0.48196400000000006,0.008636,-0.058960000000000005,0.002844,0.0037020000000000004,-1.9e-05,-45.0,8.56,5.0,3a
2019-07-15_121338:000,-0.48196400000000006,0.009125,-0.058960000000000005,0.003333,0.0021149999999999997,0.00053,-45.0,8.56,5.0,3a
2019-07-15_121338:020,-0.48654200000000003,0.009125,-0.063538,0.0034549999999999997,0.000192,0.001446,-45.0,8.56,5.0,3a
2019-07-15_121338:040,-0.49111899999999997,0.011169,-0.065063,0.00318,-0.001517,0.0024530000000000003,-45.369999,7.87,7.68,3a
2019-07-15_121338:060,-0.49468999999999996,0.011687999999999999,-0.067596,0.003058,-0.002097,0.0031550000000000003,-45.369999,7.87,7.68,3a
2019-07-15_121338:080,-0.495697,0.011687999999999999,-0.069641,0.002478,-0.002493,0.004070000000000001,-46.060001,9.0,5.68,3a
2019-07-15_121338:100,-0.49468999999999996,0.011687999999999999,-0.069122,0.001807,-0.002493,0.004986,-46.060001,9.0,5.68,3a
2019-07-15_121338:120,-0.495697,0.009125,-0.070648,0.001379,-0.002097,0.005413,-46.060001,9.0,5.68,3a
2019-07-15_121338:140,-0.49468999999999996,0.007111,-0.069641,0.0005549999999999999,-0.001639,0.005718,-45.0,8.25,5.37,3a
2019-07-15_121338:160,-0.492645,0.007111,-0.069122,9.8e-05,-0.0017,0.005932,-45.0,8.25,5.37,3a
2019-07-15_121338:180,-0.492645,0.0030210000000000002,-0.070648,-0.00036,-0.001242,0.005718,-45.0,8.25,5.68,3a
2019-07-15_121338:200,-0.49468999999999996,0.001007,-0.069641,-0.000421,-0.001364,0.005413,-45.0,8.25,5.68,3a
2019-07-15_121338:220,-0.49517799999999995,-0.000488,-0.070648,-0.000421,-0.001181,0.004986,-45.0,8.25,5.68,3a
2019-07-15_121338:240,-0.49111899999999997,-0.002014,-0.070648,3.7e-05,-0.001425,0.004589,-45.0,9.0,6.18,3a
2019-07-15_121338:260,-0.490112,-0.0035399999999999997,-0.071686,0.000769,-0.0017,0.0035520000000000005,-45.0,9.0,6.18,3a
2019-07-15_121338:280,-0.490601,-0.002014,-0.072693,0.001379,-0.0021579999999999998,0.0026969999999999997,-44.560001,9.0,6.18,3a
2019-07-15_121338:300,-0.49365200000000004,-0.001495,-0.075226,0.0020510000000000003,-0.002829,0.0021780000000000002,-44.560001,9.0,6.18,3a
2019-07-15_121338:320,-0.49468999999999996,-0.001495,-0.074738,0.0031190000000000002,-0.002768,0.001995,-44.560001,9.0,6.18,3a
2019-07-15_121338:340,-0.495697,0.000488,-0.073212,0.0035159999999999996,-0.001974,0.002117,-45.0,8.25,6.87,3a
2019-07-15_121338:360,-0.494171,0.002014,-0.07421900000000001,0.0041259999999999995,-0.001303,0.002117,-45.0,8.25,6.87,3a
2019-07-15_121338:380,-0.491638,0.004547,-0.075226,0.004462,-0.001059,0.002239,-45.0,8.56,6.18,3a
2019-07-15_121338:400,-0.492645,0.006072999999999999,-0.075226,0.004462,-0.001181,0.0021780000000000002,-45.0,8.56,6.18,3a
2019-07-15_121338:420,-0.49316400000000005,0.008118,-0.078278,0.004187,-0.001059,0.002361,-45.0,8.56,6.18,3a
2019-07-15_121338:440,-0.49517799999999995,0.009125,-0.076752,0.0035159999999999996,-0.00041799999999999997,0.002239,-44.25,8.56,5.68,3a
2019-07-15_121338:460,-0.496704,0.009125,-0.076752,0.002875,0.000192,0.0026969999999999997,-44.25,8.56,5.68,3a
2019-07-15_121338:480,-0.494171,0.007599,-0.075226,0.002203,0.00046699999999999997,0.002514,-45.369999,8.56,5.37,3a
2019-07-15_121338:500,-0.492645,0.007599,-0.073212,0.002081,0.000772,0.002117,-45.369999,8.56,5.37,3a
2019-07-15_121338:520,-0.494171,0.006072999999999999,-0.07421900000000001,0.0018679999999999999,0.0008640000000000001,0.002361,-45.369999,8.56,5.37,3a
2019-07-15_121338:540,-0.492645,0.005065999999999999,-0.072693,0.001807,0.000772,0.002361,-45.369999,8.56,6.87,3a
2019-07-15_121338:560,-0.492126,0.005065999999999999,-0.07016,0.001715,0.000925,0.002392,-45.369999,8.56,6.87,3a
2019-07-15_121338:580,-0.492645,0.005065999999999999,-0.069641,0.0018679999999999999,0.000772,0.002514,-45.369999,8.25,6.87,3a
2019-07-15_121338:600,-0.494171,0.005065999999999999,-0.066589,0.001929,0.000436,0.002361,-45.369999,8.25,6.87,3a
2019-07-15_121338:620,-0.49316400000000005,0.0055850000000000006,-0.065582,0.002081,0.000528,0.002239,-45.369999,8.25,6.87,3a
2019-07-15_121338:640,-0.494171,0.0055850000000000006,-0.066071,0.0020510000000000003,0.00065,0.0020559999999999997,-44.560001,9.0,6.87,3a
2019-07-15_121338:660,-0.490601,0.0055850000000000006,-0.066071,0.00199,0.00046699999999999997,0.0019039999999999999,-44.560001,9.0,6.87,3a
2019-07-15_121338:680,-0.490601,0.0055850000000000006,-0.066589,0.00199,-8.2e-05,0.001843,-45.369999,7.87,6.18,3a
2019-07-15_121338:700,-0.492126,0.0055850000000000006,-0.064545,0.002203,-0.00054,0.001843,-45.369999,7.87,6.18,3a
2019-07-15_121338:720,-0.492126,0.006072999999999999,-0.066589,0.001929,-0.000967,0.001843,-45.369999,7.87,6.18,3a
2019-07-15_121338:740,-0.49365200000000004,0.007111,-0.069122,0.002081,-0.001181,0.001843,-45.0,7.87,6.18,3a
2019-07-15_121338:760,-0.492126,0.007599,-0.067596,0.002203,-0.001181,0.001995,-45.0,7.87,6.18,3a
2019-07-15_121338:780,-0.492645,0.008118,-0.068115,0.002203,-0.001425,0.001843,-45.369999,7.87,5.0,3a
2019-07-15_121338:800,-0.49365200000000004,0.008118,-0.067596,0.0021420000000000002,-0.001852,0.002117,-45.369999,7.87,5.0,3a
2019-07-15_121338:820,-0.49468999999999996,0.007599,-0.069122,0.0020510000000000003,-0.001364,0.0019649999999999997,-45.369999,7.87,5.0,3a
2019-07-15_121338:840,-0.49517799999999995,0.009125,-0.069122,0.001929,-0.001303,0.001782,-45.0,7.87,5.68,3a
2019-07-15_121338:860,-0.492126,0.007111,-0.069122,0.0018679999999999999,-0.000967,0.0016600000000000002,-45.0,7.87,5.68,3a
2019-07-15_121338:880,-0.49111899999999997,0.008118,-0.071167,0.0020510000000000003,-0.001517,0.001568,-44.560001,8.25,5.37,3a
2019-07-15_121338:900,-0.49111899999999997,0.007599,-0.068634,0.002448,-0.001761,0.0019649999999999997,-44.560001,8.25,5.37,3a
2019-07-15_121338:920,-0.49365200000000004,0.009125,-0.071167,0.002325,-0.001852,0.002392,-44.560001,8.25,5.37,3a
2019-07-15_121338:940,-0.492645,0.010162000000000001,-0.071167,0.002325,-0.001913,0.0028190000000000003,-46.060001,7.87,6.18,3a
2019-07-15_121338:960,-0.496216,0.009644,-0.070648,0.002264,-0.002036,0.003002,-46.060001,7.87,6.18,3a
2019-07-15_121338:980,-0.496704,0.010162000000000001,-0.071167,0.002325,-0.001639,0.0032770000000000004,-45.0,8.25,5.37,3a
2019-07-15_121339:000,-0.491638,0.010162000000000001,-0.069641,0.0018679999999999999,-0.001517,0.0035520000000000005,-45.0,8.25,5.37,3a
2019-07-15_121339:020,-0.489594,0.008118,-0.071686,0.001349,-0.001852,0.003399,-45.0,8.25,5.37,3a
2019-07-15_121339:040,-0.49111899999999997,0.008636,-0.07421900000000001,0.001288,-0.002036,0.002758,-45.369999,8.56,6.18,3a
2019-07-15_121339:060,-0.490112,0.007111,-0.0737,0.001044,-0.0023710000000000003,0.0026969999999999997,-45.369999,8.56,6.18,3a
2019-07-15_121339:080,-0.49316400000000005,0.006592,-0.074738,0.000647,-0.002951,0.002758,-46.060001,7.87,5.37,3a
2019-07-15_121339:100,-0.494171,0.0055850000000000006,-0.073212,0.001166,-0.0028899999999999998,0.002728,-46.060001,7.87,5.37,3a
2019-07-15_121339:120,-0.49468999999999996,0.0055850000000000006,-0.076263,0.001685,-0.0021579999999999998,0.002941,-46.060001,7.87,5.37,3a
2019-07-15_121339:140,-0.49111899999999997,0.0055850000000000006,-0.076752,0.002386,-0.001852,0.003094,-45.0,8.25,6.5,3a
2019-07-15_121339:160,-0.49316400000000005,0.007111,-0.076263,0.0026,-0.002036,0.0030629999999999998,-45.0,8.25,6.5,3a
2019-07-15_121339:180,-0.492126,0.008636,-0.077271,0.002844,-0.0023710000000000003,0.00288,-45.0,8.25,6.18,3a
2019-07-15_121339:200,-0.495697,0.008636,-0.077271,0.002386,-0.0018219999999999998,0.002758,-45.0,8.25,6.18,3a
2019-07-15_121339:220,-0.496704,0.009644,-0.076263,0.002203,-0.0017,0.003002,-45.0,8.25,6.18,3a
2019-07-15_121339:240,-0.495697,0.007599,-0.076752,0.001685,-0.001303,0.003399,-45.0,9.0,5.68,3a
2019-07-15_121339:260,-0.49365200000000004,0.006592,-0.076752,0.001288,-0.000723,0.0030629999999999998,-45.0,9.0,5.68,3a
2019-07-15_121339:280,-0.494171,0.006592,-0.07775900000000001,0.001379,-0.000327,0.002728,-45.369999,6.37,5.0,3a
2019-07-15_121339:300,-0.494171,0.0055850000000000006,-0.075226,0.001288,-0.000266,0.002728,-45.369999,6.37,5.0,3a
2019-07-15_121339:320,-0.49316400000000005,0.0055850000000000006,-0.075226,0.0017460000000000002,-0.000266,0.002728,-45.369999,6.37,5.0,3a
2019-07-15_121339:340,-0.494171,0.0055850000000000006,-0.0737,0.002081,0.00025299999999999997,0.0026969999999999997,-45.369999,7.87,5.68,3a
2019-07-15_121339:360,-0.495697,0.0055850000000000006,-0.072693,0.002539,0.000192,0.002361,-45.369999,7.87,5.68,3a
2019-07-15_121339:380,-0.49468999999999996,0.0055850000000000006,-0.0737,0.002936,0.00046699999999999997,0.0023,-45.0,7.87,6.18,3a
2019-07-15_121339:400,-0.492126,0.007599,-0.071686,0.002783,0.000375,0.002117,-45.0,7.87,6.18,3a
2019-07-15_121339:420,-0.491638,0.009644,-0.073212,0.0026609999999999997,0.000192,0.0020559999999999997,-45.0,7.87,6.18,3a
2019-07-15_121339:440,-0.49111899999999997,0.010162000000000001,-0.073212,0.0026,-0.000143,0.002361,-45.0,8.25,5.68,3a
2019-07-15_121339:460,-0.491638,0.010162000000000001,-0.071167,0.002203,-0.000204,0.002392,-45.0,8.25,5.68,3a
2019-07-15_121339:480,-0.491638,0.010651,-0.072693,0.002325,7e-05,0.0026969999999999997,-46.060001,7.87,4.5,3a
2019-07-15_121339:500,-0.492645,0.010651,-0.072174,0.0018679999999999999,-0.000204,0.0028190000000000003,-46.060001,7.87,4.5,3a
2019-07-15_121339:520,-0.49365200000000004,0.011687999999999999,-0.072693,0.0018679999999999999,-0.000143,0.0032159999999999997,-46.060001,7.87,4.5,3a
2019-07-15_121339:540,-0.492126,0.010162000000000001,-0.073212,0.001715,-0.000327,0.0032770000000000004,-45.0,7.87,5.0,3a
2019-07-15_121339:560,-0.492126,0.012177,-0.071686,0.001166,-0.00041799999999999997,0.003399,-45.0,7.87,5.0,3a
2019-07-15_121339:580,-0.492126,0.011169,-0.074738,0.0008300000000000001,-0.000601,0.0036130000000000003,-45.369999,8.25,6.18,3a
2019-07-15_121339:600,-0.492645,0.011169,-0.0737,0.000433,-0.000662,0.0036130000000000003,-45.369999,8.25,6.18,3a
2019-07-15_121339:620,-0.495697,0.011169,-0.07421900000000001,3.7e-05,-0.0006929999999999999,0.003887,-45.369999,8.25,6.18,3a
2019-07-15_121339:640,-0.494171,0.009644,-0.07421900000000001,-2.4e-05,-0.000357,0.004070000000000001,-44.25,7.87,5.0,3a
2019-07-15_121339:660,-0.49316400000000005,0.008636,-0.072693,-0.000482,-0.000204,0.004131,-44.25,7.87,5.0,3a
2019-07-15_121339:680,-0.492645,0.009125,-0.073212,-0.000299,-8.2e-05,0.004131,-45.0,7.56,6.18,3a
2019-07-15_121339:700,-0.49316400000000005,0.008636,-0.0737,-0.000482,0.000192,0.004345,-45.0,7.56,6.18,3a
2019-07-15_121339:720,-0.494171,0.009125,-0.072693,-0.00036,0.000131,0.0044670000000000005,-45.0,7.56,6.18,3a
2019-07-15_121339:740,-0.492645,0.008118,-0.071686,-0.00036,0.000314,0.0044670000000000005,-44.560001,8.56,5.68,3a
2019-07-15_121339:760,-0.494171,0.008636,-0.070648,-0.000482,0.00025299999999999997,0.00462,-44.560001,8.56,5.68,3a
2019-07-15_121339:780,-0.494171,0.007111,-0.07016,-0.000696,0.000192,0.004925,-45.369999,9.0,5.68,3a
2019-07-15_121339:800,-0.49111899999999997,0.007599,-0.071167,-0.0009400000000000001,-2.1e-05,0.005139,-45.369999,9.0,5.68,3a
2019-07-15_121339:820,-0.490601,0.007111,-0.071167,-0.001215,-0.000662,0.004864,-45.369999,9.0,5.68,3a
2019-07-15_121339:840,-0.490601,0.006592,-0.072174,-0.0018859999999999999,-0.000906,0.004345,-46.5,7.87,5.68,3a
2019-07-15_121339:860,-0.49365200000000004,0.0055850000000000006,-0.071686,-0.002008,-0.001578,0.004406,-46.5,7.87,5.68,3a
2019-07-15_121339:880,-0.494171,0.004547,-0.072693,-0.002283,-0.001456,0.004345,-44.25,9.0,5.68,3a
2019-07-15_121339:900,-0.49468999999999996,0.0025329999999999997,-0.071686,-0.0018859999999999999,-0.0008449999999999999,0.004589,-44.25,9.0,5.68,3a
2019-07-15_121339:920,-0.491638,0.0025329999999999997,-0.071686,-0.00155,-0.000143,0.0047420000000000006,-44.25,9.0,5.68,3a
2019-07-15_121339:940,-0.490112,0.0035399999999999997,-0.072693,-0.001367,-0.000479,0.004864,-45.369999,9.0,5.37,3a
2019-07-15_121339:960,-0.489594,0.0030210000000000002,-0.071686,-0.0011539999999999999,-0.000723,0.004589,-45.369999,9.0,5.37,3a
2019-07-15_121339:980,-0.491638,0.0025329999999999997,-0.07421900000000001,-0.001093,-0.0010279999999999998,0.004681,-45.369999,9.0,5.37,3a
2019-07-15_121340:000,-0.492645,0.002014,-0.075226,-0.00155,-0.0017,0.004406,-45.369999,8.25,6.18,3a
2019-07-15_121340:020,-0.49722299999999997,0.001495,-0.074738,-0.001031,-0.001242,0.004528,-45.369999,8.25,6.18,3a
2019-07-15_121340:040,-0.496216,0.001007,-0.07421900000000001,-0.001428,-0.000967,0.0042840000000000005,-45.0,8.25,6.18,3a
2019-07-15_121340:060,-0.49468999999999996,-0.000488,-0.071686,-0.0009699999999999999,4e-05,0.00346,-45.0,8.25,6.18,3a
2019-07-15_121340:080,-0.49365200000000004,-0.001007,-0.071686,-0.0007570000000000001,0.000131,0.003094,-44.560001,9.0,6.18,3a
2019-07-15_121340:100,-0.49111899999999997,-0.000488,-0.072174,-8.499999999999999e-05,0.00025299999999999997,0.002728,-44.560001,9.0,6.18,3a
2019-07-15_121340:120,-0.491638,0.0,-0.071167,0.00025,4e-05,0.002575,-44.560001,9.0,6.18,3a
2019-07-15_121340:140,-0.492126,0.0,-0.072174,0.00037200000000000004,-2.1e-05,0.002575,-44.560001,9.37,6.5,3a
2019-07-15_121340:160,-0.49316400000000005,0.001495,-0.071167,0.000983,-0.000479,0.001843,-44.560001,9.37,6.5,3a
2019-07-15_121340:180,-0.494171,0.000488,-0.070648,0.001227,-8.2e-05,0.001843,-45.75,9.37,6.87,3a
2019-07-15_121340:200,-0.49316400000000005,0.0030210000000000002,-0.071686,0.001685,-0.00041799999999999997,0.0016600000000000002,-45.75,9.37,6.87,3a
2019-07-15_121340:220,-0.49365200000000004,0.004059,-0.071167,0.0018679999999999999,-0.000327,0.001721,-45.75,9.37,6.87,3a
2019-07-15_121340:240,-0.49365200000000004,0.004547,-0.072174,0.00199,-0.000601,0.001568,-44.25,8.56,5.37,3a
2019-07-15_121340:260,-0.494171,0.005065999999999999,-0.071167,0.00199,-0.000662,0.001721,-44.25,8.56,5.37,3a
2019-07-15_121340:280,-0.492645,0.006072999999999999,-0.071686,0.0026,-0.00054,0.002117,-46.060001,8.56,5.37,3a
2019-07-15_121340:300,-0.494171,0.006592,-0.071167,0.0026,-0.00054,0.002117,-46.060001,8.56,5.37,3a
2019-07-15_121340:320,-0.49316400000000005,0.006592,-0.072174,0.002386,-0.000479,0.0024530000000000003,-46.060001,8.56,5.37,3a
2019-07-15_121340:340,-0.49468999999999996,0.006592,-0.070648,0.002264,-8.2e-05,0.002575,-45.369999,9.0,5.0,3a
2019-07-15_121340:360,-0.495697,0.007599,-0.069641,0.00199,0.000192,0.002361,-45.369999,9.0,5.0,3a
2019-07-15_121340:380,-0.494171,0.006592,-0.070648,0.00199,0.000192,0.002239,-45.369999,8.56,5.37,3a
2019-07-15_121340:400,-0.49316400000000005,0.007111,-0.07016,0.0017460000000000002,0.000314,0.002392,-45.369999,8.56,5.37,3a
2019-07-15_121340:420,-0.491638,0.0055850000000000006,-0.069641,0.001685,4e-05,0.0020559999999999997,-45.369999,8.56,5.37,3a
2019-07-15_121340:440,-0.492645,0.006072999999999999,-0.07016,0.001929,0.000131,0.001568,-45.75,8.25,5.37,3a
2019-07-15_121340:460,-0.492645,0.0055850000000000006,-0.068115,0.001929,-0.000143,0.001446,-45.75,8.25,5.37,3a
2019-07-15_121340:480,-0.492645,0.006072999999999999,-0.07016,0.002203,-0.00041799999999999997,0.001324,-45.75,8.25,5.37,3a
2019-07-15_121340:500,-0.491638,0.0055850000000000006,-0.069641,0.002722,-0.0006929999999999999,0.000927,-45.0,8.25,6.18,3a
2019-07-15_121340:520,-0.49316400000000005,0.007599,-0.07016,0.003333,-0.000662,0.000927,-45.0,8.25,6.18,3a
2019-07-15_121340:540,-0.49365200000000004,0.009125,-0.071167,0.003668,-0.00054,0.001263,-44.560001,8.56,7.25,3a
2019-07-15_121340:560,-0.494171,0.012177,-0.068115,0.0034549999999999997,-0.00041799999999999997,0.001385,-44.560001,8.56,7.25,3a
2019-07-15_121340:580,-0.497742,0.011169,-0.067108,0.00321,-8.2e-05,0.001446,-44.560001,8.56,7.25,3a
2019-07-15_121340:600,-0.49926800000000005,0.013213999999999998,-0.068115,0.002783,0.000589,0.001446,-45.369999,8.56,6.5,3a
2019-07-15_121340:620,-0.494171,0.012695,-0.066071,0.002539,0.001047,0.001599,-45.369999,8.56,6.5,3a
2019-07-15_121340:640,-0.496216,0.012177,-0.067596,0.002081,0.001596,0.000866,-45.75,7.56,5.0,3a
2019-07-15_121340:660,-0.491638,0.011169,-0.063538,0.002478,0.001993,0.00037799999999999997,-45.75,7.56,5.0,3a
2019-07-15_121340:680,-0.494171,0.011169,-0.066071,0.002478,0.001505,0.00053,-45.75,7.56,5.0,3a
2019-07-15_121340:700,-0.496704,0.010651,-0.066589,0.002722,0.000986,0.001263,-45.369999,7.87,6.87,3a
2019-07-15_121340:720,-0.500275,0.010651,-0.06253099999999999,0.002875,0.0013210000000000001,0.002392,-45.369999,7.87,6.87,3a
2019-07-15_121340:740,-0.500275,0.010162000000000001,-0.059479,0.002783,0.002328,0.002514,-45.369999,7.87,6.5,3a
2019-07-15_121340:760,-0.49722299999999997,0.011169,-0.055908000000000006,0.002722,0.0033049999999999998,0.001385,-45.369999,7.87,6.5,3a
2019-07-15_121340:780,-0.494171,0.012177,-0.055908000000000006,0.0026609999999999997,0.003915,0.000317,-45.369999,7.87,6.5,3a
2019-07-15_121340:800,-0.489594,0.014221000000000001,-0.057434000000000006,0.0026,0.0034579999999999997,-0.00066,-44.25,7.87,6.5,3a
2019-07-15_121340:820,-0.492126,0.017792,-0.056915,0.002203,0.003091,-0.0006900000000000001,-44.25,7.87,6.5,3a
2019-07-15_121340:840,-0.492645,0.018799,-0.057434000000000006,0.000983,0.0021149999999999997,0.000439,-45.0,7.87,6.5,3a
2019-07-15_121340:860,-0.494171,0.01828,-0.055389,0.0005549999999999999,0.001505,0.001507,-45.0,7.87,6.5,3a
2019-07-15_121340:880,-0.495697,0.017792,-0.058441,3.7e-05,0.001199,0.001385,-45.0,7.87,6.5,3a
2019-07-15_121340:900,-0.495697,0.01828,-0.059479,-0.000543,0.0015660000000000001,0.0019039999999999999,-45.369999,7.87,6.87,3a
2019-07-15_121340:920,-0.492645,0.018799,-0.058441,-0.0011539999999999999,0.0015660000000000001,0.002514,-45.369999,7.87,6.87,3a
2019-07-15_121340:940,-0.490601,0.01828,-0.059479,-0.002069,0.0015660000000000001,0.003002,-45.369999,8.25,7.37,3a
2019-07-15_121340:960,-0.490112,0.017273,-0.058441,-0.0025570000000000002,0.000925,0.003002,-45.369999,8.25,7.37,3a
2019-07-15_121340:980,-0.488068,0.016266,-0.057953,-0.002832,0.0008640000000000001,0.003002,-45.369999,8.25,7.37,3a
2019-07-15_121341:000,-0.48706099999999997,0.014740000000000001,-0.057953,-0.002802,0.000131,0.00288,-45.0,7.87,7.37,3a
2019-07-15_121341:020,-0.48706099999999997,0.013702,-0.059479,-0.002802,-0.001059,0.0033380000000000003,-45.0,7.87,7.37,3a
2019-07-15_121341:040,-0.488068,0.012695,-0.06405599999999999,-0.003076,-0.0023710000000000003,0.004222999999999999,-44.25,7.87,5.68,3a
2019-07-15_121341:060,-0.489594,0.012177,-0.064545,-0.002893,-0.003622,0.004528,-44.25,7.87,5.68,3a
2019-07-15_121341:080,-0.492126,0.011687999999999999,-0.068634,-0.002618,-0.004079999999999999,0.004681,-44.25,7.87,5.68,3a
2019-07-15_121341:100,-0.49316400000000005,0.012695,-0.069122,-0.0017640000000000002,-0.004111,0.004528,-44.560001,7.87,5.68,3a
2019-07-15_121341:120,-0.49517799999999995,0.014221000000000001,-0.069122,-0.0016719999999999999,-0.0041719999999999995,0.0044670000000000005,-44.560001,7.87,5.68,3a
2019-07-15_121341:140,-0.500793,0.015747,-0.071167,-0.0016719999999999999,-0.003714,0.004681,-45.75,7.87,7.37,3a
2019-07-15_121341:160,-0.500793,0.016753999999999998,-0.068634,-0.0021609999999999997,-0.002646,0.0053219999999999995,-45.75,7.87,7.37,3a
2019-07-15_121341:180,-0.500793,0.014221000000000001,-0.068634,-0.003076,-0.001181,0.005596,-45.75,7.87,7.37,3a
2019-07-15_121341:200,-0.49823,0.011687999999999999,-0.067108,-0.0035340000000000002,-8.2e-05,0.005474000000000001,-45.369999,7.87,6.5,3a
2019-07-15_121341:220,-0.494171,0.009644,-0.064545,-0.003625,0.000436,0.005078,-45.369999,7.87,6.5,3a
2019-07-15_121341:240,-0.49111899999999997,0.009644,-0.064545,-0.0034119999999999997,0.000589,0.0042840000000000005,-45.0,8.56,5.68,3a
2019-07-15_121341:260,-0.490112,0.010651,-0.063538,-0.0034729999999999995,-2.1e-05,0.003887,-45.0,8.56,5.68,3a
2019-07-15_121341:280,-0.492645,0.008636,-0.064545,-0.0037479999999999996,-0.00041799999999999997,0.003674,-45.0,8.56,5.68,3a
2019-07-15_121341:300,-0.492645,0.008636,-0.06405599999999999,-0.0038090000000000003,-0.000601,0.003857,-45.369999,8.25,7.37,3a
2019-07-15_121341:320,-0.494171,0.007111,-0.065582,-0.0036869999999999997,-0.000723,0.0032159999999999997,-45.369999,8.25,7.37,3a
2019-07-15_121341:340,-0.494171,0.006592,-0.066071,-0.003015,-0.0008449999999999999,0.0021780000000000002,-45.369999,8.56,6.18,3a
2019-07-15_121341:360,-0.496704,0.009125,-0.063538,-0.002435,-0.00112,0.001599,-45.369999,8.56,6.18,3a
2019-07-15_121341:380,-0.500275,0.010651,-0.06405599999999999,-0.0018859999999999999,-0.000784,0.001782,-45.369999,8.56,6.18,3a
2019-07-15_121341:400,-0.494171,0.010651,-0.064545,-0.0007570000000000001,-0.0006929999999999999,0.002392,-44.560001,7.87,6.87,3a
2019-07-15_121341:420,-0.49111899999999997,0.010651,-0.065582,-8.499999999999999e-05,-0.0008449999999999999,0.00288,-44.560001,7.87,6.87,3a
2019-07-15_121341:440,-0.492126,0.009644,-0.065063,0.000983,-0.001242,0.002636,-45.369999,8.25,6.18,3a
2019-07-15_121341:460,-0.490112,0.010651,-0.065063,0.0017460000000000002,-0.001639,0.002758,-45.369999,8.25,6.18,3a
2019-07-15_121341:480,-0.491638,0.011687999999999999,-0.064545,0.0026609999999999997,-0.001974,0.0033380000000000003,-45.369999,8.25,6.18,3a
2019-07-15_121341:500,-0.49111899999999997,0.010651,-0.062012,0.003394,-0.00231,0.003735,-45.369999,9.0,5.68,3a
2019-07-15_121341:520,-0.49365200000000004,0.012177,-0.063538,0.004462,-0.00231,0.0032159999999999997,-45.369999,9.0,5.68,3a
2019-07-15_121341:540,-0.496216,0.014740000000000001,-0.066071,0.005103,-0.0023710000000000003,0.0035520000000000005,-45.0,9.0,6.5,3a
2019-07-15_121341:560,-0.49722299999999997,0.015747,-0.065063,0.005255,-0.0021579999999999998,0.004222999999999999,-45.0,9.0,6.5,3a
2019-07-15_121341:580,-0.497742,0.016753999999999998,-0.067108,0.004645000000000001,-0.0018219999999999998,0.00462,-45.0,9.0,6.5,3a
2019-07-15_121341:600,-0.49926800000000005,0.016753999999999998,-0.065582,0.004187,-0.001639,0.004193,-44.560001,8.56,6.5,3a
2019-07-15_121341:620,-0.49926800000000005,0.016753999999999998,-0.065582,0.0034549999999999997,-0.000967,0.0035520000000000005,-44.560001,8.56,6.5,3a
2019-07-15_121341:640,-0.491638,0.016266,-0.064545,0.002539,-0.00054,0.0034909999999999997,-45.75,8.25,6.18,3a
2019-07-15_121341:660,-0.492126,0.014740000000000001,-0.064545,0.0016239999999999998,-0.000662,0.003094,-45.75,8.25,6.18,3a
2019-07-15_121341:680,-0.494171,0.013702,-0.065063,0.000769,-0.000662,0.003094,-45.75,8.25,6.18,3a
2019-07-15_121341:700,-0.49517799999999995,0.011169,-0.065063,9.8e-05,-0.000723,0.0035520000000000005,-44.560001,8.25,5.68,3a
2019-07-15_121341:720,-0.496216,0.009125,-0.06405599999999999,-8.499999999999999e-05,-0.000204,0.00346,-44.560001,8.25,5.68,3a
2019-07-15_121341:740,-0.49468999999999996,0.008118,-0.06405599999999999,9.8e-05,0.000192,0.0030629999999999998,-45.0,7.56,5.0,3a
2019-07-15_121341:760,-0.494171,0.009125,-0.062012,0.0009519999999999999,0.000528,0.0028190000000000003,-45.0,7.56,5.0,3a
2019-07-15_121341:780,-0.489594,0.011169,-0.05996699999999999,0.001501,0.000436,0.00288,-45.0,7.56,5.0,3a
2019-07-15_121341:800,-0.488068,0.012695,-0.062012,0.00199,-8.2e-05,0.0035520000000000005,-45.369999,8.56,6.5,3a
2019-07-15_121341:820,-0.48858599999999996,0.013213999999999998,-0.063538,0.001715,-0.001181,0.004406,-45.369999,8.56,6.5,3a
2019-07-15_121341:840,-0.491638,0.011169,-0.063538,0.001044,-0.001639,0.0047420000000000006,-44.560001,9.0,6.18,3a
2019-07-15_121341:860,-0.49365200000000004,0.010651,-0.062012,0.00025,-0.002707,0.0042840000000000005,-44.560001,9.0,6.18,3a
2019-07-15_121341:880,-0.492126,0.008118,-0.065063,-0.000299,-0.0023710000000000003,0.003735,-44.560001,9.0,6.18,3a
2019-07-15_121341:900,-0.49111899999999997,0.007111,-0.066589,-0.0007570000000000001,-0.002829,0.0032770000000000004,-45.0,8.56,5.37,3a
2019-07-15_121341:920,-0.49111899999999997,0.005065999999999999,-0.067108,-0.000696,-0.003104,0.003094,-45.0,8.56,5.37,3a
2019-07-15_121341:940,-0.49316400000000005,0.0030210000000000002,-0.068115,-0.000543,-0.003043,0.00288,-46.060001,7.87,6.18,3a
2019-07-15_121341:960,-0.492126,0.004547,-0.069641,9.8e-05,-0.003561,0.0024530000000000003,-46.060001,7.87,6.18,3a
2019-07-15_121341:980,-0.492645,0.004059,-0.071167,0.0009519999999999999,-0.003622,0.0021780000000000002,-46.060001,7.87,6.18,3a
2019-07-15_121342:000,-0.496216,0.005065999999999999,-0.072174,0.0017460000000000002,-0.003775,0.001843,-44.25,8.56,5.68,3a
2019-07-15_121342:020,-0.495697,0.004547,-0.073212,0.002844,-0.003561,0.001721,-44.25,8.56,5.68,3a
2019-07-15_121342:040,-0.495697,0.006072999999999999,-0.07421900000000001,0.004706,-0.002646,0.002239,-45.75,8.25,6.18,3a
2019-07-15_121342:060,-0.49468999999999996,0.007599,-0.070648,0.0057740000000000005,-0.0022489999999999997,0.002636,-45.75,8.25,6.18,3a
2019-07-15_121342:080,-0.49517799999999995,0.011169,-0.07016,0.006445,-0.001974,0.002514,-45.75,8.25,6.18,3a
2019-07-15_121342:100,-0.49468999999999996,0.013213999999999998,-0.069122,0.006659,-0.0018219999999999998,0.0023,-44.560001,8.56,5.68,3a
2019-07-15_121342:120,-0.49316400000000005,0.015747,-0.068115,0.0065060000000000005,-0.001059,0.002575,-44.560001,8.56,5.68,3a
2019-07-15_121342:140,-0.496704,0.015747,-0.068634,0.005652,-0.000967,0.002758,-45.369999,8.56,5.68,3a
2019-07-15_121342:160,-0.49468999999999996,0.016753999999999998,-0.066589,0.00498,-0.0008449999999999999,0.002514,-45.369999,8.56,5.68,3a
2019-07-15_121342:180,-0.490112,0.015228,-0.070648,0.003851,-0.001181,0.002239,-45.369999,8.56,5.68,3a
2019-07-15_121342:200,-0.492645,0.014221000000000001,-0.069641,0.003394,-0.001181,0.001721,-45.0,8.25,5.37,3a
2019-07-15_121342:220,-0.492126,0.015747,-0.071686,0.0031190000000000002,-0.001242,0.001507,-45.0,8.25,5.37,3a
2019-07-15_121342:240,-0.492645,0.015747,-0.074738,0.0031190000000000002,-0.0017,0.0023,-44.560001,8.25,5.68,3a
2019-07-15_121342:260,-0.495697,0.015747,-0.0737,0.002844,-0.001639,0.0031550000000000003,-44.560001,8.25,5.68,3a
2019-07-15_121342:280,-0.496216,0.014740000000000001,-0.072693,0.002539,-0.001181,0.004070000000000001,-44.560001,8.25,5.68,3a
2019-07-15_121342:300,-0.49517799999999995,0.014740000000000001,-0.072693,0.002325,-0.001059,0.0042840000000000005,-44.560001,7.87,6.18,3a
2019-07-15_121342:320,-0.49316400000000005,0.015747,-0.07421900000000001,0.0021420000000000002,-0.000723,0.004222999999999999,-44.560001,7.87,6.18,3a
2019-07-15_121342:340,-0.492645,0.013213999999999998,-0.076752,0.001349,-0.000906,0.004406,-44.560001,7.87,5.68,3a
2019-07-15_121342:360,-0.49517799999999995,0.012695,-0.076752,0.000983,-0.001059,0.004193,-44.560001,7.87,5.68,3a
2019-07-15_121342:380,-0.490601,0.011169,-0.072174,0.00025,-0.0008449999999999999,0.004589,-44.560001,7.87,5.68,3a
2019-07-15_121342:400,-0.49111899999999997,0.008118,-0.072693,9.8e-05,-0.00054,0.004803,-45.369999,9.0,5.37,3a
2019-07-15_121342:420,-0.48858599999999996,0.006592,-0.071167,0.00022,-0.0006929999999999999,0.003948,-45.369999,9.0,5.37,3a
2019-07-15_121342:440,-0.494171,0.0055850000000000006,-0.074738,0.001288,-0.00112,0.0036130000000000003,-44.560001,7.87,5.37,3a
2019-07-15_121342:460,-0.49468999999999996,0.006072999999999999,-0.07421900000000001,0.00199,-0.0010279999999999998,0.003735,-44.560001,7.87,5.37,3a
2019-07-15_121342:480,-0.492126,0.006592,-0.074738,0.002386,-0.000601,0.0034909999999999997,-44.560001,7.87,5.37,3a
2019-07-15_121342:500,-0.49365200000000004,0.007111,-0.075226,0.002722,-0.000601,0.00346,-45.75,8.56,5.0,3a
2019-07-15_121342:520,-0.492126,0.009644,-0.074738,0.002539,-0.000327,0.0032159999999999997,-45.75,8.56,5.0,3a
2019-07-15_121342:540,-0.492126,0.010651,-0.075745,0.0021420000000000002,-0.000266,0.0026969999999999997,-45.75,8.56,6.5,3a
2019-07-15_121342:560,-0.491638,0.009644,-0.07421900000000001,0.00199,-0.0006929999999999999,0.0019039999999999999,-45.75,8.56,6.5,3a
2019-07-15_121342:580,-0.492126,0.008636,-0.075745,0.0017460000000000002,-0.000723,0.001507,-45.75,8.56,6.5,3a
2019-07-15_121342:600,-0.49316400000000005,0.010651,-0.076263,0.002081,-0.0006929999999999999,0.001843,-45.0,8.56,4.5,3a
2019-07-15_121342:620,-0.49365200000000004,0.008118,-0.076263,0.002081,-0.000784,0.002117,-45.0,8.56,4.5,3a
2019-07-15_121342:640,-0.49316400000000005,0.009125,-0.07775900000000001,0.002386,-0.000266,0.002575,-45.75,8.56,5.37,3a
2019-07-15_121342:660,-0.494171,0.010162000000000001,-0.076263,0.002875,-0.000143,0.0030629999999999998,-45.75,8.56,5.37,3a
2019-07-15_121342:680,-0.495697,0.009644,-0.075226,0.002936,0.000528,0.0031550000000000003,-45.75,8.56,5.37,3a
2019-07-15_121342:700,-0.49468999999999996,0.010162000000000001,-0.074738,0.00318,0.001169,0.0030629999999999998,-45.0,8.56,5.0,3a
2019-07-15_121342:720,-0.49722299999999997,0.010162000000000001,-0.071167,0.002844,0.0013210000000000001,0.002728,-45.0,8.56,5.0,3a
2019-07-15_121342:740,-0.49823,0.011169,-0.070648,0.002325,0.002298,0.0026969999999999997,-45.0,7.87,6.18,3a
2019-07-15_121342:760,-0.496704,0.011169,-0.064545,0.001715,0.00303,0.0020559999999999997,-45.0,7.87,6.18,3a
2019-07-15_121342:780,-0.492645,0.008636,-0.063538,0.001044,0.0028469999999999997,0.0009880000000000002,-45.0,7.87,6.18,3a
2019-07-15_121342:800,-0.49365200000000004,0.009125,-0.063538,0.000891,0.0028469999999999997,0.000439,-45.369999,8.25,6.5,3a
2019-07-15_121342:820,-0.494171,0.010162000000000001,-0.059479,0.001227,0.002908,-0.00014099999999999998,-45.369999,8.25,6.5,3a
2019-07-15_121342:840,-0.496704,0.009644,-0.05996699999999999,0.001685,0.0031219999999999998,-0.00047699999999999994,-44.560001,8.25,6.5,3a
2019-07-15_121342:860,-0.497742,0.011169,-0.061005,0.002264,0.003824,-0.000263,-44.560001,8.25,6.5,3a
2019-07-15_121342:880,-0.489075,0.013213999999999998,-0.058960000000000005,0.002386,0.0034270000000000004,0.000591,-44.560001,8.25,6.5,3a
2019-07-15_121342:900,-0.484009,0.012695,-0.059479,0.002478,0.002054,0.001232,-45.0,8.56,6.18,3a
2019-07-15_121342:920,-0.495697,0.010162000000000001,-0.062012,0.002325,0.000528,0.001568,-45.0,8.56,6.18,3a
2019-07-15_121342:940,-0.472321,0.013213999999999998,-0.061005,0.002478,-0.001761,0.0019039999999999999,-45.0,7.56,6.18,3a
2019-07-15_121342:960,-0.484009,0.015747,-0.066071,0.002264,-0.002982,0.0019649999999999997,-45.0,7.56,6.18,3a
2019-07-15_121342:980,-0.49517799999999995,0.017792,-0.066071,0.002264,-0.003622,0.002239,-45.0,7.56,6.18,3a
2019-07-15_121343:000,-0.495697,0.014740000000000001,-0.067596,0.002203,-0.003165,0.002514,-45.369999,7.87,5.68,3a
2019-07-15_121343:020,-0.49365200000000004,0.015228,-0.065582,0.002264,-0.003043,0.003002,-45.369999,7.87,5.68,3a
2019-07-15_121343:040,-0.494171,0.013702,-0.069122,0.002844,-0.003165,0.004009,-45.0,7.87,5.68,3a
2019-07-15_121343:060,-0.496216,0.011169,-0.068634,0.00379,-0.0028899999999999998,0.004222999999999999,-45.0,7.87,5.68,3a
2019-07-15_121343:080,-0.500275,0.012177,-0.071686,0.004065,-0.001913,0.004345,-45.0,7.87,5.68,3a
2019-07-15_121343:100,-0.502319,0.012695,-0.072174,0.0048579999999999995,-0.000906,0.00462,-45.0,8.25,6.87,3a
2019-07-15_121343:120,-0.498749,0.013702,-0.070648,0.004523,0.000436,0.0047420000000000006,-45.0,8.25,6.87,3a
2019-07-15_121343:140,-0.49517799999999995,0.012177,-0.071686,0.004248,0.000711,0.0042840000000000005,-45.0,7.56,5.68,3a
2019-07-15_121343:160,-0.490601,0.011169,-0.07016,0.0035770000000000003,0.000711,0.003674,-45.0,7.56,5.68,3a
2019-07-15_121343:180,-0.491638,0.012177,-0.071167,0.003607,0.00046699999999999997,0.0031550000000000003,-45.0,7.56,5.68,3a
2019-07-15_121343:200,-0.49823,0.008636,-0.073212,0.003729,0.000986,0.0020559999999999997,-44.560001,7.56,5.0,3a
2019-07-15_121343:220,-0.492126,0.012695,-0.067596,0.0026609999999999997,0.000589,0.0016600000000000002,-44.560001,7.56,5.0,3a
2019-07-15_121343:240,-0.49111899999999997,0.011169,-0.069122,0.002264,0.00065,0.000714,-45.0,7.87,5.68,3a
2019-07-15_121343:260,-0.48706099999999997,0.010651,-0.070648,0.00144,-0.000266,0.000317,-45.0,7.87,5.68,3a
2019-07-15_121343:280,-0.48858599999999996,0.011169,-0.068115,0.0015630000000000002,-0.0010279999999999998,0.001995,-45.0,7.87,5.68,3a
2019-07-15_121343:300,-0.489594,0.011687999999999999,-0.068634,0.001501,-0.0021579999999999998,0.0030629999999999998,-44.560001,7.87,7.37,3a
2019-07-15_121343:320,-0.494171,0.009644,-0.069122,0.0020510000000000003,-0.0022489999999999997,0.003399,-44.560001,7.87,7.37,3a
2019-07-15_121343:340,-0.49517799999999995,0.010651,-0.070648,0.002448,-0.001517,0.003735,-46.060001,7.56,6.18,3a
2019-07-15_121343:360,-0.49517799999999995,0.013213999999999998,-0.071167,0.002722,-0.001425,0.0035520000000000005,-46.060001,7.56,6.18,3a
2019-07-15_121343:380,-0.49722299999999997,0.012177,-0.070648,0.002448,-0.001517,0.0036130000000000003,-46.060001,7.56,6.18,3a
2019-07-15_121343:400,-0.496704,0.011687999999999999,-0.070648,0.002478,-0.001303,0.003887,-44.560001,7.56,4.5,3a
2019-07-15_121343:420,-0.49468999999999996,0.011169,-0.07016,0.002325,-0.000204,0.003796,-44.560001,7.56,4.5,3a
2019-07-15_121343:440,-0.492645,0.008636,-0.069641,0.002325,7e-05,0.002575,-45.75,7.87,6.18,3a
2019-07-15_121343:460,-0.494171,0.009644,-0.068634,0.002783,0.000131,0.001782,-45.75,7.87,6.18,3a
2019-07-15_121343:480,-0.494171,0.013702,-0.066071,0.002936,-2.1e-05,0.001568,-45.75,7.87,6.18,3a
2019-07-15_121343:500,-0.496704,0.012695,-0.069122,0.0026,-0.000266,0.0023,-45.369999,7.56,6.87,3a
2019-07-15_121343:520,-0.49316400000000005,0.012695,-0.068634,0.0026609999999999997,-8.2e-05,0.002575,-45.369999,7.56,6.87,3a
2019-07-15_121343:540,-0.49926800000000005,0.011687999999999999,-0.068115,0.002539,0.000131,0.002758,-45.369999,7.56,6.87,3a
2019-07-15_121343:560,-0.494171,0.011687999999999999,-0.071167,0.002997,4e-05,0.0032770000000000004,-45.0,7.56,5.37,3a
2019-07-15_121343:580,-0.489075,0.013213999999999998,-0.07016,0.002936,-0.001242,0.004070000000000001,-45.0,7.56,5.37,3a
2019-07-15_121343:600,-0.49316400000000005,0.013702,-0.072693,0.002325,-0.001578,0.004131,-45.75,7.56,6.18,3a
2019-07-15_121343:620,-0.49722299999999997,0.014221000000000001,-0.067596,0.0020510000000000003,-0.001913,0.0044670000000000005,-45.75,7.56,6.18,3a
2019-07-15_121343:640,-0.49365200000000004,0.013213999999999998,-0.067596,0.0020510000000000003,-0.0017,0.004589,-45.75,7.56,6.18,3a
2019-07-15_121343:660,-0.48858599999999996,0.015228,-0.066589,0.0015630000000000002,-0.001181,0.0034909999999999997,-45.369999,7.87,5.68,3a
2019-07-15_121343:680,-0.489075,0.014740000000000001,-0.066589,0.001349,-0.001456,0.00346,-45.369999,7.87,5.68,3a
2019-07-15_121343:700,-0.49365200000000004,0.014740000000000001,-0.069641,0.0004940000000000001,-0.001639,0.003887,-45.0,7.56,5.37,3a
2019-07-15_121343:720,-0.501801,0.013213999999999998,-0.070648,0.00031099999999999997,-0.001425,0.0042840000000000005,-45.0,7.56,5.37,3a
2019-07-15_121343:740,-0.495697,0.011687999999999999,-0.071167,3.7e-05,-0.000327,0.004193,-45.0,7.56,5.37,3a
2019-07-15_121343:760,-0.496216,0.010651,-0.069641,0.00025,0.000986,0.0035520000000000005,-45.75,8.25,5.68,3a
2019-07-15_121343:780,-0.489075,0.009644,-0.068634,0.000586,0.001657,0.00288,-45.75,8.25,5.68,3a
2019-07-15_121343:800,-0.48654200000000003,0.009125,-0.068634,0.000769,0.001169,0.003674,-45.75,8.56,5.68,3a
2019-07-15_121343:820,-0.48654200000000003,0.009125,-0.07016,0.001166,-0.000266,0.003948,-45.75,8.56,5.68,3a
2019-07-15_121343:840,-0.492126,0.009125,-0.07016,0.001349,-0.001425,0.0035520000000000005,-44.68,7.18,6.18,3a
2019-07-15_121343:860,-0.49468999999999996,0.008118,-0.068115,0.0017460000000000002,-0.0018219999999999998,0.0035520000000000005,-44.68,7.18,6.18,3a
2019-07-15_121343:880,-0.492126,0.009644,-0.067596,0.00199,-0.001456,0.0035520000000000005,-44.68,7.18,6.18,3a
2019-07-15_121343:900,-0.48654200000000003,0.008118,-0.068634,0.002203,-0.001425,0.0034909999999999997,-45.0,8.56,6.5,3a
2019-07-15_121343:920,-0.494171,0.009125,-0.07016,0.002386,-0.0018219999999999998,0.0034909999999999997,-45.0,8.56,6.5,3a
2019-07-15_121343:940,-0.494171,0.007599,-0.070648,0.002478,-0.001761,0.003399,-45.0,8.56,6.5,3a
2019-07-15_121343:960,-0.49975600000000003,0.008118,-0.07016,0.002875,-0.001578,0.00346,-45.369999,8.25,4.5,3a
2019-07-15_121343:980,-0.495697,0.008636,-0.071686,0.003058,-0.000967,0.003399,-45.369999,8.25,4.5,3a
2019-07-15_121344:000,-0.49316400000000005,0.008636,-0.071686,0.002997,-0.000204,0.0035520000000000005,-45.75,8.56,5.37,3a
2019-07-15_121344:020,-0.495697,0.008118,-0.069641,0.0034549999999999997,-2.1e-05,0.0035520000000000005,-45.75,8.56,5.37,3a
2019-07-15_121344:040,-0.49468999999999996,0.008636,-0.068115,0.003912,-0.000204,0.00288,-45.75,8.56,5.37,3a
2019-07-15_121344:060,-0.496704,0.009644,-0.070648,0.003851,-0.000357,0.002239,-45.369999,7.87,6.5,3a
2019-07-15_121344:080,-0.492645,0.013213999999999998,-0.068634,0.004065,-8.2e-05,0.002514,-45.369999,7.87,6.5,3a
2019-07-15_121344:100,-0.49365200000000004,0.013702,-0.069122,0.0034549999999999997,-0.000143,0.003094,-45.0,7.87,6.87,3a
2019-07-15_121344:120,-0.49316400000000005,0.012695,-0.068115,0.0026609999999999997,7e-05,0.0030629999999999998,-45.0,7.87,6.87,3a
2019-07-15_121344:140,-0.491638,0.012177,-0.069122,0.001929,-0.000266,0.0030629999999999998,-45.0,7.87,6.87,3a
2019-07-15_121344:160,-0.492645,0.011169,-0.068634,0.0016239999999999998,-0.00054,0.0032159999999999997,-45.75,7.56,5.68,3a
2019-07-15_121344:180,-0.494171,0.010651,-0.069641,0.001105,-0.000357,0.003674,-45.75,7.56,5.68,3a
2019-07-15_121344:200,-0.490601,0.010162000000000001,-0.068634,0.001044,-0.000723,0.004070000000000001,-44.560001,7.56,5.37,3a
2019-07-15_121344:220,-0.494171,0.009125,-0.067596,0.000983,-0.0010279999999999998,0.004131,-44.560001,7.56,5.37,3a
2019-07-15_121344:240,-0.49316400000000005,0.007599,-0.068115,0.0008300000000000001,-0.001059,0.003796,-44.560001,7.56,5.37,3a
2019-07-15_121344:260,-0.49468999999999996,0.007111,-0.07016,0.0009519999999999999,-0.00112,0.0033380000000000003,-45.369999,8.56,5.68,3a
2019-07-15_121344:280,-0.49468999999999996,0.006592,-0.072174,0.001288,-0.001456,0.003399,-45.369999,8.56,5.68,3a
2019-07-15_121344:300,-0.497742,0.007599,-0.071167,0.001349,-0.001059,0.0036130000000000003,-45.75,8.56,5.37,3a
2019-07-15_121344:320,-0.496216,0.007599,-0.068634,0.00199,-0.0006929999999999999,0.004131,-45.75,8.56,5.37,3a
2019-07-15_121344:340,-0.49365200000000004,0.009644,-0.068115,0.002264,-2.1e-05,0.0042840000000000005,-45.75,8.56,5.37,3a
2019-07-15_121344:360,-0.492645,0.008636,-0.066589,0.001929,-2.1e-05,0.004345,-44.68,8.56,6.5,3a
2019-07-15_121344:380,-0.490601,0.010162000000000001,-0.067108,0.001501,-0.000357,0.004009,-44.68,8.56,6.5,3a
2019-07-15_121344:400,-0.491638,0.009125,-0.068115,0.000769,-0.000662,0.003887,-45.0,8.25,5.37,3a
2019-07-15_121344:420,-0.492126,0.007111,-0.068634,0.00025,-0.0010279999999999998,0.003735,-45.0,8.25,5.37,3a
2019-07-15_121344:440,-0.491638,0.0055850000000000006,-0.069122,-0.000177,-0.001181,0.003887,-45.0,8.25,5.37,3a
2019-07-15_121344:460,-0.491638,0.004547,-0.07016,-0.000421,-0.001181,0.0033380000000000003,-44.560001,8.56,5.68,3a
2019-07-15_121344:480,-0.492645,0.0035399999999999997,-0.068634,3.7e-05,-0.001456,0.003002,-44.560001,8.56,5.68,3a
2019-07-15_121344:500,-0.494171,0.0035399999999999997,-0.069641,9.8e-05,-0.001639,0.002758,-45.0,8.56,6.18,3a
2019-07-15_121344:520,-0.491638,0.0035399999999999997,-0.071167,0.001044,-0.001456,0.0024530000000000003,-45.0,8.56,6.18,3a
2019-07-15_121344:540,-0.49517799999999995,0.0055850000000000006,-0.07016,0.001379,-0.001639,0.0019649999999999997,-45.0,8.56,6.18,3a
2019-07-15_121344:560,-0.49517799999999995,0.006592,-0.071167,0.002081,-0.001059,0.002239,-44.25,8.56,5.37,3a
2019-07-15_121344:580,-0.49468999999999996,0.007111,-0.072174,0.002478,-0.0008449999999999999,0.0021780000000000002,-44.25,8.56,5.37,3a
2019-07-15_121344:600,-0.494171,0.009125,-0.073212,0.002936,-0.000327,0.0020559999999999997,-45.75,9.37,6.5,3a
2019-07-15_121344:620,-0.495697,0.009644,-0.07016,0.0031190000000000002,0.000131,0.002636,-45.75,9.37,6.5,3a
2019-07-15_121344:640,-0.496704,0.009125,-0.067108,0.002722,0.00065,0.0030629999999999998,-45.75,9.37,6.5,3a
2019-07-15_121344:660,-0.49365200000000004,0.006592,-0.065063,0.002844,0.0013210000000000001,0.003002,-45.75,8.56,5.68,3a
2019-07-15_121344:680,-0.490601,0.006592,-0.066071,0.00321,0.000711,0.00288,-45.75,8.56,5.68,3a
2019-07-15_121344:700,-0.48754899999999995,0.0055850000000000006,-0.068634,0.0034549999999999997,-0.000143,0.0032770000000000004,-45.0,8.56,5.68,3a
2019-07-15_121344:720,-0.48858599999999996,0.0055850000000000006,-0.067108,0.003851,-0.000967,0.003887,-45.0,8.56,5.68,3a
2019-07-15_121344:740,-0.49365200000000004,0.004547,-0.069641,0.004370000000000001,-0.001242,0.003948,-45.0,8.56,5.68,3a
2019-07-15_121344:760,-0.496216,0.006592,-0.069641,0.004736,-0.000967,0.003674,-44.560001,7.87,6.5,3a
2019-07-15_121344:780,-0.495697,0.009644,-0.068634,0.004797,-0.000723,0.00346,-44.560001,7.87,6.5,3a
2019-07-15_121344:800,-0.491638,0.011687999999999999,-0.069122,0.003668,-0.001059,0.004009,-45.369999,8.25,5.0,3a
2019-07-15_121344:820,-0.490601,0.010651,-0.068115,0.002203,-0.001242,0.004009,-45.369999,8.25,5.0,3a
2019-07-15_121344:840,-0.495697,0.006072999999999999,-0.067596,0.000983,-0.001425,0.003399,-45.369999,8.25,5.0,3a
2019-07-15_121344:860,-0.496216,0.002014,-0.067596,0.000769,-0.001242,0.002392,-45.369999,8.25,6.87,3a
2019-07-15_121344:880,-0.494171,0.002014,-0.069641,0.0018679999999999999,-0.0006929999999999999,0.001843,-45.369999,8.25,6.87,3a
2019-07-15_121344:900,-0.491638,0.001495,-0.070648,0.002997,-0.000906,0.0021780000000000002,-44.560001,8.25,4.18,3a
2019-07-15_121344:920,-0.494171,0.005065999999999999,-0.069641,0.004065,-0.00112,0.003002,-44.560001,8.25,4.18,3a
2019-07-15_121344:940,-0.49365200000000004,0.008118,-0.070648,0.004797,-0.00112,0.004070000000000001,-44.560001,8.25,4.18,3a
2019-07-15_121344:960,-0.495697,0.010162000000000001,-0.07016,0.004736,-0.000662,0.0042840000000000005,-45.0,8.25,7.37,3a
2019-07-15_121344:980,-0.49111899999999997,0.011687999999999999,-0.069641,0.003973,-0.00041799999999999997,0.004070000000000001,-45.0,8.25,7.37,3a
2019-07-15_121345:000,-0.49365200000000004,0.013213999999999998,-0.072174,0.002539,-0.00041799999999999997,0.004131,-44.560001,8.25,5.68,3a
2019-07-15_121345:020,-0.490601,0.010651,-0.069122,0.000983,-0.000479,0.004589,-44.560001,8.25,5.68,3a
2019-07-15_121345:040,-0.49111899999999997,0.007599,-0.071686,-0.0006349999999999999,-0.00054,0.0047420000000000006,-44.560001,8.25,5.68,3a
2019-07-15_121345:060,-0.49111899999999997,0.0025329999999999997,-0.070648,-0.001367,-0.000906,0.003735,-44.25,8.25,6.18,3a
2019-07-15_121345:080,-0.492126,-0.000488,-0.071167,-0.001489,-0.0010279999999999998,0.003002,-44.25,8.25,6.18,3a
2019-07-15_121345:100,-0.494171,-0.0030210000000000002,-0.071167,-0.000482,-0.00112,0.003002,-45.0,8.56,5.37,3a
2019-07-15_121345:120,-0.49517799999999995,-0.0030210000000000002,-0.070648,0.00025,-0.001181,0.003399,-45.0,8.56,5.37,3a
2019-07-15_121345:140,-0.496704,-0.0035399999999999997,-0.069641,0.001715,-0.000357,0.00346,-45.0,8.56,5.37,3a
2019-07-15_121345:160,-0.495697,-0.000488,-0.068115,0.002844,-0.000266,0.002636,-45.369999,8.56,6.5,3a
2019-07-15_121345:180,-0.490601,0.0025329999999999997,-0.068634,0.0035159999999999996,-0.00041799999999999997,0.0020559999999999997,-45.369999,8.56,6.5,3a
2019-07-15_121345:200,-0.48706099999999997,0.008636,-0.070648,0.003333,-0.000906,0.001843,-44.68,8.25,6.18,3a
2019-07-15_121345:220,-0.49316400000000005,0.010651,-0.07016,0.002448,-0.001639,0.001782,-44.68,8.25,6.18,3a
2019-07-15_121345:240,-0.49823,0.009644,-0.071686,0.001501,-0.00112,0.001995,-44.68,8.25,6.18,3a
2019-07-15_121345:260,-0.496704,0.010162000000000001,-0.071167,0.0016239999999999998,7e-05,0.001721,-44.68,8.56,6.5,3a
2019-07-15_121345:280,-0.494171,0.009644,-0.070648,0.001227,0.000131,0.002392,-44.68,8.56,6.5,3a
2019-07-15_121345:300,-0.49316400000000005,0.008636,-0.072174,0.000708,-0.00041799999999999997,0.0032159999999999997,-44.25,8.25,5.37,3a
2019-07-15_121345:320,-0.494171,0.007111,-0.071686,0.000586,-0.000601,0.0042840000000000005,-44.25,8.25,5.37,3a
2019-07-15_121345:340,-0.49517799999999995,0.006592,-0.0737,0.0004940000000000001,-0.000479,0.0042840000000000005,-44.25,8.25,5.37,3a
2019-07-15_121345:360,-0.49823,0.009125,-0.070648,-0.000177,-0.000143,0.0036130000000000003,-45.75,7.87,6.87,3a
2019-07-15_121345:380,-0.49823,0.009125,-0.069122,-0.0009400000000000001,0.000772,0.0036130000000000003,-45.75,7.87,6.87,3a
2019-07-15_121345:400,-0.49365200000000004,0.004547,-0.065582,-0.00155,0.001505,0.0033380000000000003,-45.75,9.0,6.87,3a
2019-07-15_121345:420,-0.49365200000000004,0.001495,-0.065582,-0.001825,0.001382,0.001721,-45.75,9.0,6.87,3a
2019-07-15_121345:440,-0.491638,0.001495,-0.064545,-0.001215,0.001382,0.00053,-45.75,9.0,6.87,3a
2019-07-15_121345:460,-0.489594,0.0025329999999999997,-0.064545,-0.00023799999999999998,0.000589,0.000256,-44.68,8.56,6.5,3a
2019-07-15_121345:480,-0.492126,0.0055850000000000006,-0.066071,0.000647,-8.2e-05,0.0011099999999999999,-44.68,8.56,6.5,3a
2019-07-15_121345:500,-0.49111899999999997,0.007111,-0.067108,0.00144,-0.000266,0.002117,-45.75,8.25,5.68,3a
2019-07-15_121345:520,-0.492645,0.008118,-0.065582,0.0016239999999999998,-2.1e-05,0.002636,-45.75,8.25,5.68,3a
2019-07-15_121345:540,-0.49365200000000004,0.008118,-0.069122,0.0015630000000000002,-0.000662,0.00288,-45.75,8.25,5.68,3a
2019-07-15_121345:560,-0.490112,0.009644,-0.07016,0.001166,-0.000784,0.003002,-44.560001,9.0,6.18,3a
2019-07-15_121345:580,-0.496216,0.007599,-0.066589,0.000708,-0.0008449999999999999,0.0032770000000000004,-44.560001,9.0,6.18,3a
2019-07-15_121345:600,-0.49722299999999997,0.007599,-0.066589,0.00025,-0.000266,0.003948,-45.75,8.25,6.18,3a
2019-07-15_121345:620,-0.49517799999999995,0.0030210000000000002,-0.06253099999999999,3.7e-05,0.000528,0.004345,-45.75,8.25,6.18,3a
2019-07-15_121345:640,-0.49365200000000004,0.002014,-0.063019,0.00025,0.000772,0.003002,-45.75,8.25,6.18,3a
2019-07-15_121345:660,-0.492645,0.0025329999999999997,-0.06405599999999999,0.000647,0.00025299999999999997,0.0019649999999999997,-40.560001,9.0,6.18,3a
2019-07-15_121345:680,-0.49316400000000005,0.005065999999999999,-0.06149299999999999,0.0009519999999999999,7e-05,0.0019649999999999997,-40.560001,9.0,6.18,3a
2019-07-15_121345:700,-0.49517799999999995,0.005065999999999999,-0.063019,0.000983,-0.000266,0.001599,-45.369999,8.25,6.87,3a
2019-07-15_121345:720,-0.494171,0.006592,-0.062012,0.001105,-0.000327,0.001263,-45.369999,8.25,6.87,3a
2019-07-15_121345:740,-0.49111899999999997,0.008636,-0.064545,0.001166,-0.000723,0.001263,-45.369999,8.25,6.87,3a
2019-07-15_121345:760,-0.489075,0.010162000000000001,-0.066589,0.000647,-0.001517,0.001263,-45.369999,8.25,5.68,3a
2019-07-15_121345:780,-0.491638,0.009644,-0.068115,0.00015900000000000002,-0.0018219999999999998,0.001324,-45.369999,8.25,5.68,3a
2019-07-15_121345:800,-0.496216,0.008118,-0.066589,-0.000177,-0.001761,0.000927,-45.0,8.56,6.18,3a
2019-07-15_121345:820,-0.49722299999999997,0.008636,-0.066071,0.00022,-0.001303,0.000591,-45.0,8.56,6.18,3a
2019-07-15_121345:840,-0.494171,0.008118,-0.069122,0.000891,-0.000662,0.000714,-45.0,8.56,6.18,3a
2019-07-15_121345:860,-0.49365200000000004,0.010651,-0.066589,0.0017460000000000002,-0.000479,0.001385,-45.0,7.87,6.18,3a
2019-07-15_121345:880,-0.492645,0.012177,-0.066071,0.001807,-0.000662,0.002239,-45.0,7.87,6.18,3a
2019-07-15_121345:900,-0.492126,0.013213999999999998,-0.067596,0.0021420000000000002,-0.00041799999999999997,0.002239,-45.369999,8.56,6.18,3a
2019-07-15_121345:920,-0.492645,0.013702,-0.065582,0.0020510000000000003,-0.000662,0.0024530000000000003,-45.369999,8.56,6.18,3a
2019-07-15_121345:940,-0.489594,0.015747,-0.068115,0.001501,-0.001303,0.0026969999999999997,-45.369999,8.56,6.18,3a
2019-07-15_121345:960,-0.495697,0.014740000000000001,-0.067108,0.0005549999999999999,-0.001761,0.003002,-45.0,7.87,5.37,3a
2019-07-15_121345:980,-0.497742,0.013702,-0.066589,-0.000421,-0.001517,0.003399,-45.0,7.87,5.37,3a
2019-07-15_121346:000,-0.496704,0.009644,-0.067108,-0.0009699999999999999,-0.000967,0.0028190000000000003,-45.0,7.87,6.18,3a
2019-07-15_121346:020,-0.49823,0.008118,-0.066589,-0.001093,-0.000266,0.001782,-45.0,7.87,6.18,3a
2019-07-15_121346:040,-0.49468999999999996,0.008118,-0.066589,-0.000299,-8.2e-05,0.0011099999999999999,-45.0,7.87,6.18,3a
2019-07-15_121346:060,-0.49365200000000004,0.011169,-0.066589,0.00031099999999999997,7e-05,0.00053,-45.369999,8.25,6.5,3a
2019-07-15_121346:080,-0.49468999999999996,0.011687999999999999,-0.066589,0.0005549999999999999,7e-05,0.000927,-45.369999,8.25,6.5,3a
2019-07-15_121346:100,-0.49468999999999996,0.011687999999999999,-0.065582,0.001105,4e-05,0.0011099999999999999,-45.369999,7.87,5.68,3a
2019-07-15_121346:120,-0.494171,0.011169,-0.065582,0.001807,0.00046699999999999997,0.001568,-45.369999,7.87,5.68,3a
2019-07-15_121346:140,-0.49111899999999997,0.012177,-0.067596,0.002844,0.000314,0.0016600000000000002,-45.369999,7.87,5.68,3a
2019-07-15_121346:160,-0.49111899999999997,0.013702,-0.066589,0.003668,7e-05,0.0020559999999999997,-45.369999,8.56,6.5,3a
2019-07-15_121346:180,-0.494171,0.015747,-0.066071,0.004523,-0.000327,0.002728,-45.369999,8.56,6.5,3a
2019-07-15_121346:200,-0.49316400000000005,0.016753999999999998,-0.066071,0.00498,-0.00041799999999999997,0.003796,-45.369999,8.56,6.5,3a
2019-07-15_121346:220,-0.49365200000000004,0.015228,-0.06253099999999999,0.005103,-0.00054,0.005139,-45.369999,8.56,6.5,3a
2019-07-15_121346:240,-0.491638,0.015747,-0.06405599999999999,0.0050420000000000005,-0.00054,0.004406,-45.369999,8.56,6.5,3a
2019-07-15_121346:260,-0.491638,0.016753999999999998,-0.06405599999999999,0.004462,-0.0006929999999999999,0.003735,-45.75,8.25,6.18,3a
2019-07-15_121346:280,-0.490601,0.016753999999999998,-0.063019,0.003729,-0.00112,0.003887,-45.75,8.25,6.18,3a
2019-07-15_121346:300,-0.492126,0.016266,-0.06405599999999999,0.002722,-0.001578,0.0035520000000000005,-45.369999,7.87,5.68,3a
2019-07-15_121346:320,-0.490601,0.014740000000000001,-0.063019,0.001929,-0.001974,0.003399,-45.369999,7.87,5.68,3a
2019-07-15_121346:340,-0.48858599999999996,0.013213999999999998,-0.064545,0.001227,-0.002829,0.003094,-45.369999,7.87,5.68,3a
2019-07-15_121346:360,-0.490112,0.012177,-0.067108,0.000983,-0.0035,0.00288,-45.0,8.25,7.68,3a
2019-07-15_121346:380,-0.492126,0.011687999999999999,-0.065063,0.000983,-0.003836,0.002575,-45.0,8.25,7.68,3a
2019-07-15_121346:400,-0.497742,0.010162000000000001,-0.06405599999999999,0.000983,-0.0035,0.002636,-45.0,7.87,6.18,3a
2019-07-15_121346:420,-0.49722299999999997,0.010162000000000001,-0.066071,0.0015630000000000002,-0.002646,0.002758,-45.0,7.87,6.18,3a
2019-07-15_121346:440,-0.495697,0.009125,-0.067108,0.0020510000000000003,-0.002585,0.003094,-45.0,7.87,6.18,3a
2019-07-15_121346:460,-0.490601,0.010651,-0.07016,0.003058,-0.002951,0.0036130000000000003,-45.369999,8.56,5.37,3a
2019-07-15_121346:480,-0.49111899999999997,0.011169,-0.07016,0.0035159999999999996,-0.003622,0.004406,-45.369999,8.56,5.37,3a
2019-07-15_121346:500,-0.494171,0.011687999999999999,-0.0737,0.0034549999999999997,-0.003378,0.005383,-45.369999,7.87,6.18,3a
2019-07-15_121346:520,-0.495697,0.011687999999999999,-0.073212,0.0026609999999999997,-0.0032259999999999997,0.005261,-45.369999,7.87,6.18,3a
2019-07-15_121346:540,-0.494171,0.011687999999999999,-0.071686,0.0017460000000000002,-0.002646,0.004864,-45.369999,7.87,6.18,3a
2019-07-15_121346:560,-0.49517799999999995,0.010162000000000001,-0.072174,0.001227,-0.002493,0.00462,-45.369999,8.25,6.5,3a
2019-07-15_121346:580,-0.490112,0.009125,-0.070648,0.00037200000000000004,-0.002188,0.003857,-45.369999,8.25,6.5,3a
2019-07-15_121346:600,-0.489075,0.006592,-0.0737,0.00022,-0.002493,0.0032159999999999997,-44.0,7.87,5.37,3a
2019-07-15_121346:620,-0.49111899999999997,0.0055850000000000006,-0.075745,0.00031099999999999997,-0.002951,0.001263,-44.0,7.87,5.37,3a
2019-07-15_121346:640,-0.49365200000000004,0.007599,-0.076263,0.0004940000000000001,-0.0032259999999999997,0.000469,-44.0,7.87,5.37,3a
2019-07-15_121346:660,-0.492645,0.009644,-0.078278,0.000769,-0.003439,0.0008359999999999999,-45.369999,8.56,6.5,3a
2019-07-15_121346:680,-0.49365200000000004,0.010162000000000001,-0.076752,0.0009519999999999999,-0.003439,0.001232,-45.369999,8.56,6.5,3a
2019-07-15_121346:700,-0.49316400000000005,0.010162000000000001,-0.07775900000000001,0.001929,-0.002707,0.001263,-46.060001,8.25,5.37,3a
2019-07-15_121346:720,-0.491638,0.011169,-0.07775900000000001,0.002448,-0.002585,0.0011710000000000002,-46.060001,8.25,5.37,3a
2019-07-15_121346:740,-0.491638,0.013702,-0.078278,0.003394,-0.002982,0.0019649999999999997,-46.060001,8.25,5.37,3a
2019-07-15_121346:760,-0.49316400000000005,0.017273,-0.080322,0.00321,-0.002982,0.002575,-44.25,7.87,5.68,3a
2019-07-15_121346:780,-0.495697,0.019806,-0.07928500000000001,0.001715,-0.002646,0.003674,-44.25,7.87,5.68,3a
2019-07-15_121346:800,-0.495697,0.019806,-0.08081100000000001,0.001044,-0.002493,0.003796,-45.0,7.56,4.5,3a
2019-07-15_121346:820,-0.494171,0.017273,-0.079803,-0.0011539999999999999,-0.001364,0.0035520000000000005,-45.0,7.56,4.5,3a
2019-07-15_121346:840,-0.492645,0.014740000000000001,-0.07928500000000001,-0.0018859999999999999,-0.001517,0.003094,-45.0,7.56,4.5,3a
2019-07-15_121346:860,-0.492645,0.011687999999999999,-0.080322,-0.001947,-0.001303,0.002941,-45.0,7.87,5.0,3a
2019-07-15_121346:880,-0.49111899999999997,0.008636,-0.07928500000000001,-0.001489,-0.001456,0.0026969999999999997,-45.0,7.87,5.0,3a
2019-07-15_121346:900,-0.49111899999999997,0.006592,-0.08081100000000001,-0.001306,-0.0017,0.002361,-45.0,7.87,5.0,3a
2019-07-15_121346:920,-0.494171,0.007111,-0.079803,-8.499999999999999e-05,-0.001517,0.0024530000000000003,-45.75,7.18,5.0,3a
2019-07-15_121346:940,-0.494171,0.007111,-0.079803,0.00022,-0.001242,0.002392,-45.75,7.18,5.0,3a
2019-07-15_121346:960,-0.494171,0.008636,-0.079803,0.001044,-0.000662,0.0023,-45.369999,7.87,5.0,3a
2019-07-15_121346:980,-0.49316400000000005,0.008636,-0.078278,0.00144,-0.000357,0.0020559999999999997,-45.369999,7.87,5.0,3a
2019-07-15_121347:000,-0.490601,0.010162000000000001,-0.08081100000000001,0.002264,-0.00041799999999999997,0.0020559999999999997,-45.75,7.87,5.0,3a
2019-07-15_121347:020,-0.489594,0.011687999999999999,-0.080322,0.0026,-0.000327,0.002117,-45.75,7.87,5.0,3a
2019-07-15_121347:040,-0.491638,0.013213999999999998,-0.080322,0.00318,-0.000479,0.0026969999999999997,-45.75,7.87,5.0,3a
2019-07-15_121347:060,-0.492126,0.014221000000000001,-0.080322,0.0031190000000000002,-0.000357,0.002758,-46.060001,8.25,5.68,3a
2019-07-15_121347:080,-0.49111899999999997,0.016753999999999998,-0.078796,0.002203,-0.00054,0.0030629999999999998,-46.060001,8.25,5.68,3a
2019-07-15_121347:100,-0.490112,0.015228,-0.078796,0.0020510000000000003,-0.000357,0.003002,-45.75,7.18,5.68,3a
2019-07-15_121347:120,-0.491638,0.014221000000000001,-0.079803,0.001685,-0.0008449999999999999,0.00346,-45.75,7.18,5.68,3a
2019-07-15_121347:140,-0.491638,0.012177,-0.080322,0.0016239999999999998,-0.0010279999999999998,0.0036130000000000003,-45.75,7.18,5.68,3a
2019-07-15_121347:160,-0.49517799999999995,0.010651,-0.07928500000000001,0.0018679999999999999,-0.000662,0.004070000000000001,-45.369999,7.87,4.5,3a
2019-07-15_121347:180,-0.49823,0.010162000000000001,-0.07775900000000001,0.002264,0.00025299999999999997,0.004070000000000001,-45.369999,7.87,4.5,3a
2019-07-15_121347:200,-0.49365200000000004,0.011169,-0.07775900000000001,0.002264,0.000528,0.004345,-45.369999,7.87,4.5,3a
2019-07-15_121347:220,-0.489075,0.010162000000000001,-0.076752,0.002081,0.000375,0.0042840000000000005,-45.0,7.87,4.5,3a
2019-07-15_121347:240,-0.489075,0.009125,-0.076752,0.0018679999999999999,0.000192,0.0036130000000000003,-45.0,7.87,4.5,3a
2019-07-15_121347:260,-0.489594,0.008636,-0.078796,0.0018679999999999999,-0.000601,0.0031550000000000003,-45.369999,8.25,4.5,3a
2019-07-15_121347:280,-0.49316400000000005,0.008118,-0.076263,0.001929,-0.0008449999999999999,0.002392,-45.369999,8.25,4.5,3a
2019-07-15_121347:300,-0.49468999999999996,0.009125,-0.076752,0.002539,-0.000266,0.0019039999999999999,-45.0,8.25,4.5,3a
2019-07-15_121347:320,-0.49517799999999995,0.011169,-0.076752,0.002722,0.000375,0.0020559999999999997,-45.0,8.25,4.5,3a
2019-07-15_121347:340,-0.491638,0.011687999999999999,-0.075226,0.003058,0.000436,0.0023,-45.0,8.25,4.5,3a
2019-07-15_121347:360,-0.49111899999999997,0.010651,-0.075745,0.002936,0.00065,0.0023,-45.0,7.87,5.0,3a
2019-07-15_121347:380,-0.490601,0.012177,-0.077271,0.0031190000000000002,0.000528,0.0024530000000000003,-45.0,7.87,5.0,3a
2019-07-15_121347:400,-0.492126,0.012695,-0.077271,0.0031190000000000002,4e-05,0.00288,-45.0,7.87,5.0,3a
2019-07-15_121347:420,-0.490601,0.014740000000000001,-0.07775900000000001,0.002783,-2.1e-05,0.0032159999999999997,-45.0,7.87,4.5,3a
2019-07-15_121347:440,-0.49111899999999997,0.013213999999999998,-0.076752,0.002203,4e-05,0.0031550000000000003,-45.0,7.87,4.5,3a
2019-07-15_121347:460,-0.490601,0.014221000000000001,-0.076752,0.001715,7e-05,0.002239,-45.75,7.56,5.68,3a
2019-07-15_121347:480,-0.490112,0.014740000000000001,-0.075226,0.001288,-0.000327,0.001599,-45.75,7.56,5.68,3a
2019-07-15_121347:500,-0.490112,0.015228,-0.076752,0.000769,-0.00054,0.001232,-45.75,7.56,5.68,3a
2019-07-15_121347:520,-0.49365200000000004,0.016266,-0.078278,9.8e-05,-0.00112,0.001324,-45.369999,6.75,6.5,3a
2019-07-15_121347:540,-0.494171,0.014740000000000001,-0.078278,-0.00023799999999999998,-0.000784,0.001263,-45.369999,6.75,6.5,3a
2019-07-15_121347:560,-0.49722299999999997,0.013213999999999998,-0.076752,-0.000146,-0.00054,0.0011710000000000002,-45.0,7.87,5.37,3a
2019-07-15_121347:580,-0.497742,0.014221000000000001,-0.07775900000000001,0.00025,0.000314,0.001324,-45.0,7.87,5.37,3a
2019-07-15_121347:600,-0.49316400000000005,0.014221000000000001,-0.076752,0.000647,0.001199,0.001385,-45.0,7.87,5.37,3a
2019-07-15_121347:620,-0.490112,0.014740000000000001,-0.075745,0.001349,0.00126,0.001782,-45.75,7.56,5.0,3a
2019-07-15_121347:640,-0.490112,0.016753999999999998,-0.07421900000000001,0.0016239999999999998,0.0013210000000000001,0.0019649999999999997,-45.75,7.56,5.0,3a
2019-07-15_121347:660,-0.491638,0.017792,-0.0737,0.001807,0.000772,0.0020559999999999997,-45.0,7.87,5.0,3a
2019-07-15_121347:680,-0.492645,0.01828,-0.073212,0.0015630000000000002,0.000711,0.002239,-45.0,7.87,5.0,3a
2019-07-15_121347:700,-0.490112,0.017273,-0.07421900000000001,0.001349,0.000772,0.0021780000000000002,-45.0,7.87,5.0,3a
2019-07-15_121347:720,-0.490112,0.016753999999999998,-0.0737,0.001044,0.000131,0.002514,-46.5,7.18,6.18,3a
2019-07-15_121347:740,-0.489075,0.017273,-0.072693,0.001349,-0.000143,0.003002,-46.5,7.18,6.18,3a
2019-07-15_121347:760,-0.490601,0.016266,-0.074738,0.001166,-0.001059,0.002575,-46.060001,7.87,5.0,3a
2019-07-15_121347:780,-0.492126,0.017273,-0.074738,0.001227,-0.001303,0.002392,-46.060001,7.87,5.0,3a
2019-07-15_121347:800,-0.496704,0.016266,-0.075226,0.0008300000000000001,-0.00112,0.0026969999999999997,-46.060001,7.87,5.0,3a
2019-07-15_121347:820,-0.49517799999999995,0.017273,-0.076263,0.000769,-0.0008449999999999999,0.003002,-45.75,7.56,6.5,3a
2019-07-15_121347:840,-0.491638,0.016266,-0.075226,0.0004940000000000001,-0.000784,0.003674,-45.75,7.56,6.5,3a
2019-07-15_121347:860,-0.49517799999999995,0.013702,-0.073212,0.00037200000000000004,-0.000723,0.0036130000000000003,-45.369999,7.56,5.68,3a
2019-07-15_121347:880,-0.494171,0.014740000000000001,-0.073212,0.000708,-0.000479,0.0031550000000000003,-45.369999,7.56,5.68,3a
2019-07-15_121347:900,-0.49111899999999997,0.012695,-0.076263,0.000647,-0.00041799999999999997,0.0030629999999999998,-45.369999,7.56,5.68,3a
2019-07-15_121347:920,-0.49111899999999997,0.012177,-0.075745,0.000769,-0.00054,0.0020559999999999997,-45.0,7.56,6.18,3a
2019-07-15_121347:940,-0.49365200000000004,0.014221000000000001,-0.074738,0.001105,-0.000357,0.001324,-45.0,7.56,6.18,3a
2019-07-15_121347:960,-0.49468999999999996,0.014221000000000001,-0.075226,0.001685,-0.000143,0.0011710000000000002,-45.0,7.18,5.37,3a
2019-07-15_121347:980,-0.494171,0.016266,-0.072693,0.002325,4e-05,0.001232,-45.0,7.18,5.37,3a
2019-07-15_121348:000,-0.49111899999999997,0.018799,-0.0737,0.002875,0.00025299999999999997,0.001782,-45.0,7.18,5.37,3a
2019-07-15_121348:020,-0.491638,0.020844,-0.0737,0.002539,-8.2e-05,0.002239,-44.68,7.56,4.5,3a
2019-07-15_121348:040,-0.49111899999999997,0.022858,-0.073212,0.0021420000000000002,-2.1e-05,0.002514,-44.68,7.56,4.5,3a
2019-07-15_121348:060,-0.49111899999999997,0.021332,-0.074738,0.001105,-0.00041799999999999997,0.0028190000000000003,-44.68,7.18,4.5,3a
2019-07-15_121348:080,-0.494171,0.020325,-0.072693,0.0008300000000000001,-0.00054,0.002758,-44.68,7.18,4.5,3a
2019-07-15_121348:100,-0.492645,0.018799,-0.072174,0.00022,-0.000601,0.0030629999999999998,-44.68,7.18,4.5,3a
2019-07-15_121348:120,-0.490112,0.017273,-0.070648,9.8e-05,-0.0006929999999999999,0.0035520000000000005,-45.0,7.87,6.18,3a
2019-07-15_121348:140,-0.490112,0.015747,-0.070648,0.00022,-0.000906,0.00288,-45.0,7.87,6.18,3a
2019-07-15_121348:160,-0.491638,0.014740000000000001,-0.0737,0.0004940000000000001,-0.001364,0.003002,-45.75,7.18,5.68,3a
2019-07-15_121348:180,-0.490601,0.015228,-0.075226,0.001105,-0.001578,0.0028190000000000003,-45.75,7.18,5.68,3a
2019-07-15_121348:200,-0.492126,0.016266,-0.076752,0.001685,-0.001974,0.002575,-45.75,7.18,5.68,3a
2019-07-15_121348:220,-0.490601,0.017792,-0.078278,0.0021420000000000002,-0.0021579999999999998,0.002514,-45.0,7.56,5.0,3a
2019-07-15_121348:240,-0.492126,0.020325,-0.078278,0.002386,-0.001913,0.002361,-45.0,7.56,5.0,3a
2019-07-15_121348:260,-0.494171,0.021851,-0.078796,0.0020510000000000003,-0.002188,0.002514,-45.0,7.56,6.18,3a
2019-07-15_121348:280,-0.494171,0.022369,-0.076263,0.001715,-0.001578,0.002575,-45.0,7.56,6.18,3a
2019-07-15_121348:300,-0.49517799999999995,0.021332,-0.077271,0.001715,-0.001303,0.0028190000000000003,-45.0,7.56,6.18,3a
2019-07-15_121348:320,-0.49365200000000004,0.020844,-0.075745,0.001807,-0.000662,0.002758,-46.060001,7.18,5.68,3a
2019-07-15_121348:340,-0.492645,0.021332,-0.075745,0.002081,-0.000327,0.0026969999999999997,-46.060001,7.18,5.68,3a
2019-07-15_121348:360,-0.492126,0.023375999999999997,-0.075745,0.002264,-0.000327,0.0032159999999999997,-45.75,7.18,4.18,3a
2019-07-15_121348:380,-0.492126,0.022858,-0.07421900000000001,0.002203,-2.1e-05,0.003948,-45.75,7.18,4.18,3a
2019-07-15_121348:400,-0.49468999999999996,0.023375999999999997,-0.075745,0.001501,-0.000266,0.0047420000000000006,-45.75,7.18,4.18,3a
2019-07-15_121348:420,-0.49468999999999996,0.021332,-0.07421900000000001,0.001166,0.000192,0.004803,-45.369999,7.87,5.37,3a
2019-07-15_121348:440,-0.496216,0.019318000000000002,-0.07421900000000001,0.00025,0.00046699999999999997,0.005016,-45.369999,7.87,5.37,3a
2019-07-15_121348:460,-0.49316400000000005,0.015747,-0.075745,9.8e-05,0.000772,0.005078,-45.75,7.18,5.37,3a
2019-07-15_121348:480,-0.49468999999999996,0.014740000000000001,-0.071686,0.000433,0.000986,0.0052,-45.75,7.18,5.37,3a
2019-07-15_121348:500,-0.49316400000000005,0.011687999999999999,-0.071167,0.000983,0.001505,0.005078,-45.75,7.18,5.37,3a
2019-07-15_121348:520,-0.490601,0.012177,-0.071167,0.001501,0.001505,0.004589,-44.560001,7.18,6.18,3a
2019-07-15_121348:540,-0.492645,0.013213999999999998,-0.068634,0.00199,0.00126,0.004222999999999999,-44.560001,7.18,6.18,3a
2019-07-15_121348:560,-0.492645,0.014740000000000001,-0.069641,0.0021420000000000002,0.000986,0.004070000000000001,-46.060001,8.25,5.0,3a
2019-07-15_121348:580,-0.48754899999999995,0.015747,-0.067596,0.001807,0.00046699999999999997,0.003796,-46.060001,8.25,5.0,3a
2019-07-15_121348:600,-0.48754899999999995,0.015747,-0.071167,0.001685,-0.000143,0.002728,-46.060001,8.25,5.0,3a
2019-07-15_121348:620,-0.48858599999999996,0.016753999999999998,-0.072693,0.00144,-0.0008449999999999999,0.001599,-45.0,7.87,5.68,3a
2019-07-15_121348:640,-0.488068,0.016753999999999998,-0.0737,0.0015630000000000002,-0.001517,0.001721,-45.0,7.87,5.68,3a
2019-07-15_121348:660,-0.49111899999999997,0.017792,-0.07421900000000001,0.00144,-0.001761,0.0019039999999999999,-45.75,7.56,5.37,3a
2019-07-15_121348:680,-0.494171,0.019318000000000002,-0.071686,0.001288,-0.001761,0.0021780000000000002,-45.75,7.56,5.37,3a
2019-07-15_121348:700,-0.494171,0.018799,-0.072693,0.001227,-0.001059,0.002575,-45.75,7.56,5.37,3a
2019-07-15_121348:720,-0.492645,0.01828,-0.072174,0.001105,-0.0006929999999999999,0.0031550000000000003,-45.369999,7.56,5.0,3a
2019-07-15_121348:740,-0.48858599999999996,0.017273,-0.071167,0.001379,-0.0006929999999999999,0.003857,-45.369999,7.56,5.0,3a
2019-07-15_121348:760,-0.491638,0.017792,-0.072693,0.001715,-0.001303,0.0044670000000000005,-45.0,7.87,5.0,3a
2019-07-15_121348:780,-0.49517799999999995,0.017273,-0.073212,0.0020510000000000003,-0.0022489999999999997,0.005383,-45.0,7.87,5.0,3a
2019-07-15_121348:800,-0.49468999999999996,0.017792,-0.0737,0.0021420000000000002,-0.002432,0.006725,-45.0,7.87,5.0,3a
2019-07-15_121348:820,-0.49316400000000005,0.015228,-0.073212,0.00199,-0.002188,0.007336,-41.75,8.25,5.68,3a
2019-07-15_121348:840,-0.494171,0.013702,-0.075226,0.00144,-0.001425,0.006664,-41.75,8.25,5.68,3a
2019-07-15_121348:860,-0.491638,0.010651,-0.072693,0.001288,-0.00112,0.00639,-45.369999,7.87,5.0,3a
2019-07-15_121348:880,-0.491638,0.007599,-0.07421900000000001,0.001044,-0.0010279999999999998,0.005749,-45.369999,7.87,5.0,3a
2019-07-15_121348:900,-0.491638,0.0055850000000000006,-0.075226,0.001501,-0.001181,0.004986,-45.369999,7.87,5.0,3a
2019-07-15_121348:920,-0.494171,0.005065999999999999,-0.074738,0.00144,-0.001425,0.0044670000000000005,-45.75,8.25,5.68,3a
2019-07-15_121348:940,-0.49316400000000005,0.0055850000000000006,-0.075226,0.002264,-0.001425,0.0030629999999999998,-45.75,8.25,5.68,3a
2019-07-15_121348:960,-0.49111899999999997,0.006592,-0.076263,0.00318,-0.001517,0.0020559999999999997,-45.0,7.87,4.5,3a
2019-07-15_121348:980,-0.492126,0.007111,-0.075226,0.003729,-0.001456,0.001507,-45.0,7.87,4.5,3a
2019-07-15_121349:000,-0.49365200000000004,0.011687999999999999,-0.076263,0.004248,-0.001181,0.0011710000000000002,-45.0,7.87,4.5,3a
2019-07-15_121349:020,-0.492645,0.013702,-0.076263,0.0044009999999999995,-0.00112,0.001263,-44.25,8.25,5.68,3a
2019-07-15_121349:040,-0.492126,0.013702,-0.076263,0.004004,-0.001517,0.001843,-44.25,8.25,5.68,3a
2019-07-15_121349:060,-0.492126,0.014221000000000001,-0.077271,0.00379,-0.001456,0.0024530000000000003,-36.560001,7.87,5.68,3a
2019-07-15_121349:080,-0.49316400000000005,0.013213999999999998,-0.076263,0.0035159999999999996,-0.001578,0.002514,-36.560001,7.87,5.68,3a
2019-07-15_121349:100,-0.49517799999999995,0.012695,-0.076263,0.0034549999999999997,-0.001303,0.0028190000000000003,-36.560001,7.87,5.68,3a
2019-07-15_121349:120,-0.495697,0.011169,-0.075745,0.0035770000000000003,-0.000723,0.0028190000000000003,-45.75,8.25,6.87,3a
2019-07-15_121349:140,-0.492126,0.012695,-0.074738,0.003851,-0.000266,0.002728,-45.75,8.25,6.87,3a
2019-07-15_121349:160,-0.48858599999999996,0.013702,-0.077271,0.003729,-0.000601,0.0024530000000000003,-45.0,7.56,5.37,3a
2019-07-15_121349:180,-0.48754899999999995,0.016753999999999998,-0.074738,0.003607,-0.0008449999999999999,0.0026969999999999997,-45.0,7.56,5.37,3a
2019-07-15_121349:200,-0.49111899999999997,0.017273,-0.075226,0.003058,-0.001456,0.003002,-45.0,7.56,5.37,3a
2019-07-15_121349:220,-0.49365200000000004,0.017273,-0.074738,0.001807,-0.0017,0.00288,-44.68,7.56,5.37,3a
2019-07-15_121349:240,-0.49111899999999997,0.015747,-0.074738,0.0008300000000000001,-0.0017,0.003002,-44.68,7.56,5.37,3a
2019-07-15_121349:260,-0.489075,0.013213999999999998,-0.076752,-0.000146,-0.0018219999999999998,0.002728,-45.75,7.87,5.68,3a
2019-07-15_121349:280,-0.491638,0.012695,-0.076752,-0.000146,-0.002554,0.001995,-45.75,7.87,5.68,3a
2019-07-15_121349:300,-0.49517799999999995,0.011687999999999999,-0.078278,0.00037200000000000004,-0.002432,0.0023,-45.75,7.87,5.68,3a
2019-07-15_121349:320,-0.49722299999999997,0.011687999999999999,-0.078278,0.0004940000000000001,-0.001913,0.002575,-45.369999,8.25,5.68,3a
2019-07-15_121349:340,-0.496216,0.012177,-0.076752,0.001379,-0.001059,0.003002,-45.369999,8.25,5.68,3a
2019-07-15_121349:360,-0.492645,0.013702,-0.077271,0.0017460000000000002,-0.000266,0.003674,-45.369999,8.25,5.68,3a
2019-07-15_121349:380,-0.48858599999999996,0.015228,-0.076263,0.001685,-0.000327,0.004681,-45.369999,8.25,5.68,3a
2019-07-15_121349:400,-0.484497,0.014221000000000001,-0.079803,0.0015630000000000002,-0.0010279999999999998,0.005383,-45.369999,8.25,5.68,3a
2019-07-15_121349:420,-0.48553500000000005,0.013213999999999998,-0.079803,0.001349,-0.0023710000000000003,0.005657,-45.75,7.87,4.5,3a
2019-07-15_121349:440,-0.49316400000000005,0.011687999999999999,-0.081848,0.001166,-0.002646,0.005932,-45.75,7.87,4.5,3a
2019-07-15_121349:460,-0.49468999999999996,0.012177,-0.080322,0.001044,-0.002432,0.0060539999999999995,-46.060001,8.25,5.37,3a
2019-07-15_121349:480,-0.49468999999999996,0.010651,-0.081848,0.000647,-0.0018219999999999998,0.005749,-46.060001,8.25,5.37,3a
2019-07-15_121349:500,-0.494171,0.009125,-0.083374,0.00031099999999999997,-0.001517,0.004925,-46.060001,8.25,5.37,3a
2019-07-15_121349:520,-0.49365200000000004,0.006592,-0.081848,-8.499999999999999e-05,-0.001364,0.004345,-45.75,8.25,5.0,3a
2019-07-15_121349:540,-0.492126,0.007111,-0.082336,3.7e-05,-0.001242,0.003887,-45.75,8.25,5.0,3a
2019-07-15_121349:560,-0.49111899999999997,0.006072999999999999,-0.083862,-0.000421,-0.001425,0.00346,-45.369999,7.87,4.5,3a
2019-07-15_121349:580,-0.492126,0.005065999999999999,-0.082336,-0.000421,-0.001456,0.0035520000000000005,-45.369999,7.87,4.5,3a
2019-07-15_121349:600,-0.49365200000000004,0.004059,-0.083862,-0.00023799999999999998,-0.00112,0.003002,-45.369999,7.87,4.5,3a
2019-07-15_121349:620,-0.49365200000000004,0.0025329999999999997,-0.082855,0.00031099999999999997,-0.000723,0.002117,-45.0,8.25,5.0,3a
2019-07-15_121349:640,-0.495697,0.004547,-0.083374,0.00144,-0.000204,0.001446,-45.0,8.25,5.0,3a
2019-07-15_121349:660,-0.494171,0.007111,-0.082855,0.002203,-8.2e-05,0.0011710000000000002,-45.0,8.25,6.5,3a
2019-07-15_121349:680,-0.49316400000000005,0.010162000000000001,-0.081848,0.0026609999999999997,0.000375,0.0009880000000000002,-45.0,8.25,6.5,3a
2019-07-15_121349:700,-0.494171,0.014221000000000001,-0.081848,0.002448,0.000528,0.0011710000000000002,-45.0,8.25,6.5,3a
2019-07-15_121349:720,-0.496704,0.016266,-0.07928500000000001,0.00144,0.001382,0.001446,-45.369999,8.25,5.68,3a
2019-07-15_121349:740,-0.496216,0.015228,-0.077271,0.00031099999999999997,0.002176,0.001446,-45.369999,8.25,5.68,3a
2019-07-15_121349:760,-0.490601,0.012177,-0.075226,-0.00036,0.002725,0.001507,-46.060001,9.37,5.68,3a
2019-07-15_121349:780,-0.48754899999999995,0.010162000000000001,-0.074738,-0.000543,0.002573,0.001232,-46.060001,9.37,5.68,3a
2019-07-15_121349:800,-0.48754899999999995,0.010162000000000001,-0.075226,0.00025,0.001993,0.001568,-46.060001,9.37,5.68,3a
2019-07-15_121349:820,-0.48706099999999997,0.009644,-0.076263,0.000647,0.001505,0.001782,-45.0,9.0,4.5,3a
2019-07-15_121349:840,-0.48858599999999996,0.010651,-0.075226,0.0018679999999999999,-8.2e-05,0.003094,-45.0,9.0,4.5,3a
2019-07-15_121349:860,-0.489075,0.012695,-0.075745,0.002478,-2.1e-05,0.003796,-45.369999,8.25,5.37,3a
2019-07-15_121349:880,-0.49722299999999997,0.013213999999999998,-0.072693,0.0020510000000000003,-8.2e-05,0.003887,-45.369999,8.25,5.37,3a
2019-07-15_121349:900,-0.49468999999999996,0.014221000000000001,-0.0737,0.001288,0.000314,0.003887,-45.369999,8.25,5.37,3a
2019-07-15_121349:920,-0.48754899999999995,0.012177,-0.074738,0.000433,-0.000327,0.0035520000000000005,-45.75,9.0,5.37,3a
2019-07-15_121349:940,-0.488068,0.010162000000000001,-0.0737,3.7e-05,-0.000784,0.0026969999999999997,-45.75,9.0,5.37,3a
2019-07-15_121349:960,-0.492645,0.008636,-0.075226,0.00015900000000000002,-0.000967,0.002361,-44.68,7.87,6.18,3a
2019-07-15_121349:980,-0.49468999999999996,0.006592,-0.075745,0.000586,-0.000906,0.0026969999999999997,-44.68,7.87,6.18,3a
2019-07-15_121350:000,-0.495697,0.005065999999999999,-0.076263,0.001501,-0.000327,0.0026969999999999997,-44.68,7.87,6.18,3a
2019-07-15_121350:020,-0.494171,0.005065999999999999,-0.075745,0.002478,-2.1e-05,0.002636,-45.0,7.87,5.0,3a
2019-07-15_121350:040,-0.492126,0.0055850000000000006,-0.0737,0.003271,0.000192,0.0026969999999999997,-45.0,7.87,5.0,3a
2019-07-15_121350:060,-0.489594,0.008636,-0.075745,0.003851,7e-05,0.002392,-45.369999,7.56,5.0,3a
2019-07-15_121350:080,-0.489075,0.011169,-0.074738,0.004309,-0.0006929999999999999,0.001721,-45.369999,7.56,5.0,3a
2019-07-15_121350:100,-0.490601,0.012695,-0.075226,0.0035770000000000003,-0.000906,0.0016600000000000002,-45.369999,7.56,5.0,3a
2019-07-15_121350:120,-0.490112,0.015747,-0.076263,0.0026,-0.001181,0.001782,-44.68,7.87,5.0,3a
2019-07-15_121350:140,-0.49365200000000004,0.016266,-0.075745,0.0017460000000000002,-0.001303,0.0016600000000000002,-44.68,7.87,5.0,3a
2019-07-15_121350:160,-0.491638,0.015228,-0.076752,0.001379,-0.001242,0.000714,-45.369999,8.25,4.5,3a
2019-07-15_121350:180,-0.492645,0.013702,-0.078796,0.001227,-0.001578,0.001049,-45.369999,8.25,4.5,3a
2019-07-15_121350:200,-0.49365200000000004,0.013702,-0.07928500000000001,0.001105,-0.001364,0.001568,-45.369999,8.25,4.5,3a
2019-07-15_121350:220,-0.49365200000000004,0.014740000000000001,-0.079803,0.001379,-0.001242,0.001843,-45.0,7.56,6.5,3a
2019-07-15_121350:240,-0.49365200000000004,0.015228,-0.077271,0.001349,-0.000662,0.0023,-45.0,7.56,6.5,3a
2019-07-15_121350:260,-0.494171,0.016753999999999998,-0.07775900000000001,0.001044,-0.0006929999999999999,0.0023,-44.68,7.87,5.0,3a
2019-07-15_121350:280,-0.49365200000000004,0.014740000000000001,-0.077271,0.0009519999999999999,-0.000143,0.002514,-44.68,7.87,5.0,3a
2019-07-15_121350:300,-0.492126,0.015228,-0.077271,0.0004940000000000001,-0.000204,0.002575,-44.68,7.87,5.0,3a
2019-07-15_121350:320,-0.492645,0.013213999999999998,-0.07775900000000001,0.0004940000000000001,-0.00054,0.002392,-45.0,7.87,5.37,3a
2019-07-15_121350:340,-0.49316400000000005,0.012695,-0.076263,0.000891,-0.000601,0.0023,-45.0,7.87,5.37,3a
2019-07-15_121350:360,-0.49316400000000005,0.012695,-0.077271,0.001044,-0.000479,0.002361,-46.5,7.87,5.68,3a
2019-07-15_121350:380,-0.49316400000000005,0.013702,-0.074738,0.0018679999999999999,-0.000266,0.002361,-46.5,7.87,5.68,3a
2019-07-15_121350:400,-0.49316400000000005,0.014740000000000001,-0.074738,0.0020510000000000003,7e-05,0.002361,-46.5,7.87,5.68,3a
2019-07-15_121350:420,-0.490601,0.015747,-0.0737,0.001807,0.000131,0.002758,-45.75,7.87,4.5,3a
2019-07-15_121350:440,-0.490601,0.015228,-0.07421900000000001,0.001715,-2.1e-05,0.00288,-45.75,7.87,4.5,3a
2019-07-15_121350:460,-0.489594,0.015228,-0.07421900000000001,0.001715,-0.000906,0.002758,-45.369999,8.25,5.37,3a
2019-07-15_121350:480,-0.492126,0.017273,-0.076263,0.0016239999999999998,-0.00112,0.002728,-45.369999,8.25,5.37,3a
2019-07-15_121350:500,-0.49365200000000004,0.015228,-0.076752,0.001501,-0.001364,0.0031550000000000003,-45.369999,8.25,5.37,3a
2019-07-15_121350:520,-0.494171,0.016266,-0.076752,0.001501,-0.00112,0.002941,-45.369999,7.87,5.37,3a
2019-07-15_121350:540,-0.49468999999999996,0.014740000000000001,-0.076263,0.00144,-0.000601,0.0031550000000000003,-45.369999,7.87,5.37,3a
2019-07-15_121350:560,-0.49365200000000004,0.015228,-0.075226,0.001501,-0.00041799999999999997,0.0031550000000000003,-45.369999,7.87,5.37,3a
2019-07-15_121350:580,-0.49365200000000004,0.015228,-0.0737,0.001227,-0.000266,0.003094,-45.369999,7.87,5.37,3a
2019-07-15_121350:600,-0.495697,0.013702,-0.072693,0.00144,0.000131,0.003094,-45.369999,7.87,5.37,3a
2019-07-15_121350:620,-0.489594,0.016266,-0.0737,0.001105,0.000131,0.003399,-45.0,7.87,4.18,3a
2019-07-15_121350:640,-0.48706099999999997,0.014221000000000001,-0.071686,0.001105,-8.2e-05,0.0031550000000000003,-45.0,7.87,4.18,3a
2019-07-15_121350:660,-0.48858599999999996,0.013702,-0.07421900000000001,0.001044,-0.000601,0.0023,-44.68,7.18,5.0,3a
2019-07-15_121350:680,-0.48858599999999996,0.013213999999999998,-0.075745,0.000983,-0.001425,0.001843,-44.68,7.18,5.0,3a
2019-07-15_121350:700,-0.49111899999999997,0.014221000000000001,-0.077271,0.001288,-0.001974,0.0020559999999999997,-44.68,7.18,5.0,3a
2019-07-15_121350:720,-0.49316400000000005,0.014740000000000001,-0.076263,0.001501,-0.002188,0.002575,-53.5,7.56,5.37,3a
2019-07-15_121350:740,-0.49468999999999996,0.015228,-0.076263,0.001715,-0.001913,0.0031550000000000003,-53.5,7.56,5.37,3a
2019-07-15_121350:760,-0.492645,0.015747,-0.077271,0.001715,-0.001059,0.003399,-45.369999,7.56,5.37,3a
2019-07-15_121350:780,-0.491638,0.016266,-0.077271,0.001807,-0.000906,0.0033380000000000003,-45.369999,7.56,5.37,3a
2019-07-15_121350:800,-0.492645,0.017792,-0.077271,0.00144,-0.001242,0.0030629999999999998,-45.369999,7.56,5.37,3a
2019-07-15_121350:820,-0.49316400000000005,0.016753999999999998,-0.076752,0.000983,-0.001242,0.003002,-45.0,7.87,5.37,3a
2019-07-15_121350:840,-0.49365200000000004,0.016753999999999998,-0.076752,0.0004940000000000001,-0.000967,0.0031550000000000003,-45.0,7.87,5.37,3a
2019-07-15_121350:860,-0.49365200000000004,0.014221000000000001,-0.076263,0.00037200000000000004,-0.00054,0.0032159999999999997,-45.0,7.87,5.37,3a
2019-07-15_121350:880,-0.49316400000000005,0.014221000000000001,-0.076752,0.00037200000000000004,-0.00054,0.002636,-45.369999,7.87,5.0,3a
2019-07-15_121350:900,-0.49365200000000004,0.014740000000000001,-0.077271,0.000433,-0.00041799999999999997,0.0026969999999999997,-45.369999,7.87,5.0,3a
2019-07-15_121350:920,-0.492126,0.013702,-0.076263,0.00037200000000000004,-0.000357,0.0031550000000000003,-45.369999,8.25,6.18,3a
2019-07-15_121350:940,-0.492126,0.012695,-0.076263,0.0005549999999999999,-0.0008449999999999999,0.0032159999999999997,-45.369999,8.25,6.18,3a
2019-07-15_121350:960,-0.494171,0.012695,-0.077271,0.001166,-0.000357,0.003094,-45.0,7.87,5.0,3a
2019-07-15_121350:980,-0.494171,0.014221000000000001,-0.077271,0.0018679999999999999,-0.000143,0.00288,-45.0,7.87,5.0,3a
2019-07-15_121351:000,-0.49316400000000005,0.014740000000000001,-0.076263,0.001807,-2.1e-05,0.002758,-45.0,7.87,5.0,3a
2019-07-15_121351:020,-0.492126,0.014740000000000001,-0.075745,0.00199,-0.000204,0.002728,-45.75,7.87,3.75,3a
2019-07-15_121351:040,-0.492645,0.017273,-0.075226,0.00199,4e-05,0.002239,-45.75,7.87,3.75,3a
2019-07-15_121351:060,-0.49316400000000005,0.017273,-0.075745,0.00199,7e-05,0.001843,-45.75,7.87,3.75,3a
2019-07-15_121351:080,-0.492126,0.017792,-0.075226,0.001807,0.000314,0.001782,-45.0,7.56,5.68,3a
