timestamp,AccX,AccY,AccZ,GyroX,GyroY,GyroZ,MagX,MagY,MagZ,Activity
2019-07-15_143107:940,-0.383331,0.001495,-0.313171,-0.003145,-0.000439,0.0010630000000000001,-23.559998999999998,23.059998999999998,-22.870001000000002,2c
2019-07-15_143107:960,-0.379272,0.007111,-0.315704,-0.0028399999999999996,-0.000439,8.7e-05,-23.559998999999998,23.059998999999998,-22.870001000000002,2c
2019-07-15_143107:980,-0.37674,0.009125,-0.31723,-0.0032670000000000004,-0.001598,0.001338,-24.0,22.68,-24.5,2c
2019-07-15_143108:000,-0.394531,0.005065999999999999,-0.318756,-0.003023,-0.0024530000000000003,0.0025280000000000003,-24.0,22.68,-24.5,2c
2019-07-15_143108:020,-0.372162,0.0055850000000000006,-0.320282,-0.003114,-0.001263,0.002131,-24.0,22.68,-24.5,2c
2019-07-15_143108:040,-0.38028,0.001495,-0.325897,-0.0029620000000000002,-0.002605,0.001979,-23.18,22.68,-23.68,2c
2019-07-15_143108:060,-0.384857,0.001495,-0.325378,-0.0026260000000000003,-0.002514,0.00207,-23.18,22.68,-23.68,2c
2019-07-15_143108:080,-0.389954,0.0,-0.329437,-0.00229,-0.00172,0.000941,-24.0,23.059998999999998,-24.059998999999998,2c
2019-07-15_143108:100,-0.390442,0.0025329999999999997,-0.327423,-0.0018329999999999998,-0.0006219999999999999,-0.000646,-24.0,23.059998999999998,-24.059998999999998,2c
2019-07-15_143108:120,-0.38739,0.004059,-0.323334,-0.0017100000000000001,0.0005070000000000001,-0.000524,-24.0,23.059998999999998,-24.059998999999998,2c
2019-07-15_143108:140,-0.396057,0.001007,-0.323853,-0.0018329999999999998,0.000904,-0.000279,-24.0,22.25,-23.68,2c
2019-07-15_143108:160,-0.38739,0.0,-0.322327,-0.001436,0.0023079999999999997,-0.000585,-24.0,22.25,-23.68,2c
2019-07-15_143108:180,-0.386383,0.002014,-0.320801,-0.001253,0.002613,-0.001775,-24.370001000000002,22.25,-22.870001000000002,2c
2019-07-15_143108:200,-0.384338,0.0030210000000000002,-0.318756,-0.001039,0.003406,-0.003331,-24.370001000000002,22.25,-22.870001000000002,2c
2019-07-15_143108:220,-0.384338,0.0030210000000000002,-0.31723,-0.0017100000000000001,0.003742,-0.003179,-24.370001000000002,22.25,-22.870001000000002,2c
2019-07-15_143108:240,-0.375702,-0.001007,-0.319275,-0.0019850000000000002,0.003834,-0.002172,-24.0,21.870001000000002,-23.25,2c
2019-07-15_143108:260,-0.377228,-0.010651,-0.318756,-0.0017100000000000001,0.002369,-0.002782,-24.0,21.870001000000002,-23.25,2c
2019-07-15_143108:280,-0.378754,-0.014740000000000001,-0.318756,-0.000429,0.0011480000000000001,-0.005101,-24.370001000000002,22.25,-23.25,2c
2019-07-15_143108:300,-0.381317,-0.014221000000000001,-0.315704,0.0014939999999999999,0.000446,-0.007573000000000001,-24.370001000000002,22.25,-23.25,2c
2019-07-15_143108:320,-0.377228,-0.011169,-0.315704,0.002928,5e-05,-0.009221,-24.370001000000002,22.25,-23.25,2c
2019-07-15_143108:340,-0.381317,-0.012695,-0.313171,0.0050030000000000005,-0.0005,-0.01035,-24.370001000000002,22.68,-22.870001000000002,2c
2019-07-15_143108:360,-0.386902,-0.010162000000000001,-0.316223,0.0068650000000000004,-0.0005,-0.010961,-24.370001000000002,22.68,-22.870001000000002,2c
2019-07-15_143108:380,-0.388916,-0.007599,-0.315704,0.009581000000000001,-0.000683,-0.011144,-24.68,22.68,-22.059998999999998,2c
2019-07-15_143108:400,-0.398071,-0.0025329999999999997,-0.310638,0.011382,-0.0005,-0.011601,-24.68,22.68,-22.059998999999998,2c
2019-07-15_143108:420,-0.390442,0.0055850000000000006,-0.305054,0.012572,0.00035499999999999996,-0.010747,-24.68,22.68,-22.059998999999998,2c
2019-07-15_143108:440,-0.390442,0.007599,-0.305542,0.012846000000000002,0.000629,-0.009618000000000002,-24.68,21.870001000000002,-22.059998999999998,2c
2019-07-15_143108:460,-0.38739,0.009644,-0.30249000000000004,0.011839,-0.000286,-0.008367,-24.68,21.870001000000002,-22.059998999999998,2c
2019-07-15_143108:480,-0.389435,0.011687999999999999,-0.303528,0.010893,-0.0007440000000000001,-0.008153,-25.370001000000002,22.68,-21.68,2c
2019-07-15_143108:500,-0.385376,0.012695,-0.305542,0.009795,-0.0021780000000000002,-0.008214,-25.370001000000002,22.68,-21.68,2c
2019-07-15_143108:520,-0.404175,0.013213999999999998,-0.311127,0.009245,-0.002728,-0.007878,-25.370001000000002,22.68,-21.68,2c
2019-07-15_143108:540,-0.406738,0.014740000000000001,-0.31012,0.008971,-0.001019,-0.007909000000000001,-25.059998999999998,22.25,-21.68,2c
2019-07-15_143108:560,-0.39859,0.017273,-0.304016,0.008971,0.000965,-0.008641,-25.059998999999998,22.25,-21.68,2c
2019-07-15_143108:580,-0.393494,0.01828,-0.30249000000000004,0.008787999999999999,0.002552,-0.009343,-26.18,22.25,-22.059998999999998,2c
2019-07-15_143108:600,-0.379791,0.023375999999999997,-0.304016,0.008452,0.00243,-0.010472,-26.18,22.25,-22.059998999999998,2c
2019-07-15_143108:620,-0.378265,0.025908999999999998,-0.304016,0.007842,0.00124,-0.01035,-26.18,22.25,-22.059998999999998,2c
2019-07-15_143108:640,-0.38028,0.023375999999999997,-0.305054,0.0073230000000000005,-0.0005610000000000001,-0.010228000000000001,-26.559998999999998,21.870001000000002,-20.5,2c
2019-07-15_143108:660,-0.382812,0.023895,-0.304016,0.0071400000000000005,-0.001385,-0.010472,-26.559998999999998,21.870001000000002,-20.5,2c
2019-07-15_143108:680,-0.389435,0.025908999999999998,-0.311127,0.0071400000000000005,-0.001598,-0.009557,-26.18,21.559998999999998,-21.25,2c
2019-07-15_143108:700,-0.390961,0.025908999999999998,-0.313171,0.00659,-0.001263,-0.008367,-26.18,21.559998999999998,-21.25,2c
2019-07-15_143108:720,-0.395538,0.026427999999999997,-0.314697,0.006194,-0.00034700000000000003,-0.007359999999999999,-26.18,21.559998999999998,-21.25,2c
2019-07-15_143108:740,-0.397064,0.028442000000000002,-0.313171,0.005339,0.0006900000000000001,-0.007176,-26.18,21.870001000000002,-20.870001000000002,2c
2019-07-15_143108:760,-0.398071,0.025908999999999998,-0.309113,0.004942,0.002216,-0.00797,-26.18,21.870001000000002,-20.870001000000002,2c
2019-07-15_143108:780,-0.387909,0.027435,-0.30654899999999996,0.004942,0.0027660000000000002,-0.008367,-26.870001000000002,21.559998999999998,-19.25,2c
2019-07-15_143108:800,-0.386902,0.029480000000000003,-0.304535,0.004850999999999999,0.0026739999999999997,-0.008031,-26.870001000000002,21.559998999999998,-19.25,2c
2019-07-15_143108:820,-0.388916,0.034058,-0.300476,0.004729,0.0021550000000000002,-0.007817000000000001,-26.870001000000002,21.559998999999998,-19.25,2c
2019-07-15_143108:840,-0.391479,0.036591000000000005,-0.29742399999999997,0.004607,0.00182,-0.0075120000000000004,-27.25,21.870001000000002,-20.059998999999998,2c
2019-07-15_143108:860,-0.392487,0.039642000000000004,-0.293335,0.0040880000000000005,0.0005070000000000001,-0.006383,-27.25,21.870001000000002,-20.059998999999998,2c
2019-07-15_143108:880,-0.394012,0.043701,-0.29284699999999997,0.0036,-0.000103,-0.005834000000000001,-27.25,21.18,-21.25,2c
2019-07-15_143108:900,-0.395538,0.046752999999999996,-0.29538000000000003,0.0014939999999999999,-0.00108,-0.002263,-27.25,21.18,-21.25,2c
2019-07-15_143108:920,-0.393005,0.046265,-0.300476,-0.000429,-0.001843,5.6000000000000006e-05,-27.25,21.18,-21.25,2c
2019-07-15_143108:940,-0.392487,0.044219999999999995,-0.302002,-0.0023510000000000002,-0.002239,0.001857,-27.25,20.870001000000002,-20.5,2c
2019-07-15_143108:960,-0.396545,0.038116000000000004,-0.302002,-0.004121,-0.0023309999999999997,0.003016,-27.25,20.870001000000002,-20.5,2c
2019-07-15_143108:980,-0.395538,0.035065,-0.30300900000000003,-0.005312,-0.00172,0.0034130000000000002,-28.0,21.18,-20.870001000000002,2c
2019-07-15_143109:000,-0.381317,0.029480000000000003,-0.30249000000000004,-0.005586,-0.0020559999999999997,0.002711,-28.0,21.18,-20.870001000000002,2c
2019-07-15_143109:020,-0.378265,0.031494,-0.305542,-0.005464,-0.003704,0.00207,-28.0,21.18,-20.870001000000002,2c
2019-07-15_143109:040,-0.38739,0.031494,-0.309601,-0.005312,-0.0037649999999999997,0.002131,-27.559998999999998,21.559998999999998,-20.059998999999998,2c
2019-07-15_143109:060,-0.385864,0.034546,-0.313171,-0.00461,-0.004101,0.00085,-27.559998999999998,21.559998999999998,-20.059998999999998,2c
2019-07-15_143109:080,-0.393005,0.038116000000000004,-0.314178,-0.004457,-0.004101,0.000728,-27.559998999999998,20.870001000000002,-21.25,2c
2019-07-15_143109:100,-0.395538,0.037108999999999996,-0.311127,-0.004793,-0.003918,0.00265,-27.559998999999998,20.870001000000002,-21.25,2c
2019-07-15_143109:120,-0.391479,0.035583,-0.309113,-0.004732,-0.00346,0.0036270000000000004,-27.559998999999998,20.870001000000002,-21.25,2c
2019-07-15_143109:140,-0.377747,0.036072,-0.31012,-0.004579,-0.00346,0.004024,-27.25,20.870001000000002,-20.059998999999998,2c
2019-07-15_143109:160,-0.375702,0.034546,-0.310638,-0.0049759999999999995,-0.005169,0.005,-27.25,20.870001000000002,-20.059998999999998,2c
2019-07-15_143109:180,-0.384857,0.034058,-0.308594,-0.005189,-0.005657,0.005763,-27.559998999999998,22.25,-19.25,2c
2019-07-15_143109:200,-0.391479,0.028961,-0.304535,-0.0049759999999999995,-0.0053219999999999995,0.007289,-27.559998999999998,22.25,-19.25,2c
2019-07-15_143109:220,-0.387909,0.026917,-0.30249000000000004,-0.004396,-0.004772,0.00674,-27.559998999999998,22.25,-19.25,2c
2019-07-15_143109:240,-0.382812,0.027954000000000003,-0.302002,-0.0039380000000000005,-0.005169,0.006953,-27.25,21.18,-20.5,2c
2019-07-15_143109:260,-0.371643,0.026427999999999997,-0.29895,-0.0038469999999999997,-0.006573000000000001,0.008081999999999999,-27.25,21.18,-20.5,2c
2019-07-15_143109:280,-0.36654699999999996,0.025421,-0.306061,-0.003999,-0.009075,0.008081999999999999,-27.25,21.18,-20.5,2c
2019-07-15_143109:300,-0.371643,0.025908999999999998,-0.314178,-0.004671,-0.011944,0.00793,-27.25,21.18,-21.25,2c
2019-07-15_143109:320,-0.384857,0.025421,-0.325378,-0.00406,-0.014019,0.00561,-27.25,21.18,-21.25,2c
2019-07-15_143109:340,-0.393005,0.033539,-0.326904,-0.004121,-0.013622,0.005336,-26.559998999999998,21.870001000000002,-21.25,2c
2019-07-15_143109:360,-0.387909,0.033539,-0.322845,-0.006044,-0.01115,0.009547,-26.559998999999998,21.870001000000002,-21.25,2c
2019-07-15_143109:380,-0.379272,0.022858,-0.322327,-0.007051000000000001,-0.010631999999999999,0.010584999999999999,-26.559998999999998,21.870001000000002,-21.25,2c
2019-07-15_143109:400,-0.36911,0.019318000000000002,-0.321808,-0.008516,-0.009899,0.009334,-34.560001,22.25,-21.25,2c
2019-07-15_143109:420,-0.365021,0.015747,-0.32132,-0.008302,-0.011271999999999999,0.007686,-34.560001,22.25,-21.25,2c
2019-07-15_143109:440,-0.37265,0.013702,-0.321808,-0.008119,-0.012554000000000001,0.005488,-25.68,21.870001000000002,-22.0,2c
2019-07-15_143109:460,-0.377747,0.016266,-0.319794,-0.007448000000000001,-0.013134,0.005488,-25.68,21.870001000000002,-22.0,2c
2019-07-15_143109:480,-0.37674,0.013213999999999998,-0.320801,-0.006837,-0.013194999999999998,0.005824,-25.68,21.870001000000002,-22.0,2c
2019-07-15_143109:500,-0.368591,0.011687999999999999,-0.320282,-0.005861,-0.013531,0.0051530000000000005,-25.370001000000002,21.870001000000002,-21.68,2c
2019-07-15_143109:520,-0.36654699999999996,0.008118,-0.326385,-0.004274,-0.014750999999999998,0.0042369999999999994,-25.370001000000002,21.870001000000002,-21.68,2c
2019-07-15_143109:540,-0.36554000000000003,0.008636,-0.326385,-0.002107,-0.015881,0.003505,-25.059998999999998,21.559998999999998,-22.870001000000002,2c
2019-07-15_143109:560,-0.359955,0.014221000000000001,-0.325897,0.000151,-0.016644,0.00323,-25.059998999999998,21.559998999999998,-22.870001000000002,2c
2019-07-15_143109:580,-0.353851,0.019318000000000002,-0.324371,0.00128,-0.017651,0.003749,-25.059998999999998,21.559998999999998,-22.870001000000002,2c
2019-07-15_143109:600,-0.342163,0.025908999999999998,-0.326904,0.001891,-0.01939,0.004359,-24.68,21.559998999999998,-22.870001000000002,2c
2019-07-15_143109:620,-0.352844,0.030487,-0.342163,0.001402,-0.021587000000000002,0.0051530000000000005,-24.68,21.559998999999998,-22.870001000000002,2c
2019-07-15_143109:640,-0.35638400000000003,0.031494,-0.348267,0.000884,-0.02171,0.006862,-23.559998999999998,22.68,-23.68,2c
2019-07-15_143109:660,-0.3508,0.027954000000000003,-0.349792,-0.000246,-0.022686,0.007869,-23.559998999999998,22.68,-23.68,2c
2019-07-15_143109:680,-0.34570300000000004,0.027954000000000003,-0.35180700000000004,-0.0017100000000000001,-0.022961000000000002,0.008081999999999999,-23.559998999999998,22.68,-23.68,2c
2019-07-15_143109:700,-0.346222,0.026427999999999997,-0.368073,-0.00229,-0.024638999999999998,0.007289,-24.370001000000002,21.559998999999998,-23.25,2c
2019-07-15_143109:720,-0.366058,0.027435,-0.378754,-0.0025039999999999997,-0.023296,0.00561,-24.370001000000002,21.559998999999998,-23.25,2c
2019-07-15_143109:740,-0.36554000000000003,0.027954000000000003,-0.378265,-0.002046,-0.019694999999999997,0.005275,-22.870001000000002,21.870001000000002,-24.059998999999998,2c
2019-07-15_143109:760,-0.355377,0.027954000000000003,-0.382324,-0.0023510000000000002,-0.016064,0.007289,-22.870001000000002,21.870001000000002,-24.059998999999998,2c
2019-07-15_143109:780,-0.338074,0.027435,-0.379791,-0.003114,-0.014750999999999998,0.009791,-22.870001000000002,21.870001000000002,-24.059998999999998,2c
2019-07-15_143109:800,-0.325897,0.020844,-0.37265,-0.004396,-0.014750999999999998,0.011470000000000001,-22.870001000000002,21.870001000000002,-24.5,2c
2019-07-15_143109:820,-0.325897,0.014740000000000001,-0.370636,-0.005312,-0.015606,0.010798,-22.870001000000002,21.870001000000002,-24.5,2c
2019-07-15_143109:840,-0.335541,0.009644,-0.373688,-0.00525,-0.015118000000000001,0.010005,-21.059998999999998,22.68,-24.059998999999998,2c
2019-07-15_143109:860,-0.330963,0.008118,-0.37674,-0.004671,-0.014140999999999999,0.009608,-21.059998999999998,22.68,-24.059998999999998,2c
2019-07-15_143109:880,-0.332489,0.006592,-0.386902,-0.00406,-0.014202000000000001,0.009547,-21.059998999999998,22.68,-24.059998999999998,2c
2019-07-15_143109:900,-0.333496,0.004547,-0.38739,-0.0032670000000000004,-0.013194999999999998,0.009334,-21.75,23.059998999999998,-24.870001000000002,2c
2019-07-15_143109:920,-0.327911,0.001495,-0.383331,-0.001894,-0.011669,0.0077469999999999995,-21.75,23.059998999999998,-24.870001000000002,2c
2019-07-15_143109:940,-0.324371,0.0030210000000000002,-0.384338,-0.000429,-0.010418,0.005549,-21.059998999999998,22.68,-26.059998999999998,2c
2019-07-15_143109:960,-0.32132,0.006592,-0.391968,0.0007,-0.00996,0.004146,-21.059998999999998,22.68,-26.059998999999998,2c
2019-07-15_143109:980,-0.321808,0.010651,-0.397583,0.001341,-0.009411,0.004024,-21.059998999999998,22.68,-26.059998999999998,2c
2019-07-15_143110:000,-0.32132,0.011687999999999999,-0.398071,0.001341,-0.008038,0.0051530000000000005,-20.25,23.059998999999998,-26.059998999999998,2c
2019-07-15_143110:020,-0.317749,0.009644,-0.395538,0.0005480000000000001,-0.006908,0.0065260000000000006,-20.25,23.059998999999998,-26.059998999999998,2c
2019-07-15_143110:040,-0.319275,0.0025329999999999997,-0.393005,-9.300000000000001e-05,-0.005961999999999999,0.006404000000000001,-21.059998999999998,22.68,-26.18,2c
2019-07-15_143110:060,-0.318268,-0.006072999999999999,-0.393494,0.0005480000000000001,-0.004925,0.004634,-21.059998999999998,22.68,-26.18,2c
2019-07-15_143110:080,-0.320801,-0.006072999999999999,-0.393005,0.0017989999999999998,-0.004131,0.00323,-21.059998999999998,22.68,-26.18,2c
2019-07-15_143110:100,-0.323853,-0.006072999999999999,-0.392487,0.002684,-0.0030629999999999998,0.003505,-20.25,23.059998999999998,-26.059998999999998,2c
2019-07-15_143110:120,-0.319794,-0.006072999999999999,-0.388916,0.0036609999999999998,-0.001843,0.004085,-20.25,23.059998999999998,-26.059998999999998,2c
2019-07-15_143110:140,-0.316742,-0.009125,-0.390961,0.004454,-0.0011099999999999999,0.0036270000000000004,-20.25,23.68,-25.68,2c
2019-07-15_143110:160,-0.31012,-0.007599,-0.38739,0.004454,-0.000958,0.002711,-20.25,23.68,-25.68,2c
2019-07-15_143110:180,-0.305542,-0.009125,-0.385376,0.0040880000000000005,-0.001324,0.0035659999999999997,-20.25,23.68,-25.68,2c
2019-07-15_143110:200,-0.30654899999999996,-0.010162000000000001,-0.386902,0.0034170000000000003,-0.002392,0.0051530000000000005,-19.559998999999998,23.68,-26.18,2c
2019-07-15_143110:220,-0.304016,-0.013702,-0.38739,0.002928,-0.003246,0.007075,-19.559998999999998,23.68,-26.18,2c
2019-07-15_143110:240,-0.308594,-0.016753999999999998,-0.389435,0.00247,-0.003796,0.007869,-21.059998999999998,23.68,-25.75,2c
2019-07-15_143110:260,-0.311646,-0.017273,-0.388428,0.001402,-0.004589,0.00854,-21.059998999999998,23.68,-25.75,2c
2019-07-15_143110:280,-0.314178,-0.019318000000000002,-0.391968,2.8999999999999997e-05,-0.005108,0.009729999999999999,-21.059998999999998,23.68,-25.75,2c
2019-07-15_143110:300,-0.325897,-0.023375999999999997,-0.394012,-0.0011,-0.005047,0.009669,-20.25,23.68,-25.0,2c
2019-07-15_143110:320,-0.326385,-0.025421,-0.394012,-0.002382,-0.003246,0.008081999999999999,-20.25,23.68,-25.0,2c
2019-07-15_143110:340,-0.31723,-0.024902,-0.394531,-0.0032670000000000004,-0.0014759999999999999,0.005672,-19.559998999999998,24.5,-24.870001000000002,2c
2019-07-15_143110:360,-0.305542,-0.023895,-0.396057,-0.003664,-0.0011099999999999999,0.00323,-19.559998999999998,24.5,-24.870001000000002,2c
2019-07-15_143110:380,-0.305542,-0.021332,-0.39859,-0.004182,-0.001446,0.002131,-19.559998999999998,24.5,-24.870001000000002,2c
2019-07-15_143110:400,-0.314697,-0.020844,-0.391479,-0.003786,-0.001263,0.002131,-19.559998999999998,24.059998999999998,-25.0,2c
2019-07-15_143110:420,-0.313171,-0.020325,-0.388428,-0.0038469999999999997,-0.001019,0.001277,-19.559998999999998,24.059998999999998,-25.0,2c
2019-07-15_143110:440,-0.312653,-0.019318000000000002,-0.38739,-0.003389,-0.000683,0.001399,-19.559998999999998,24.870001000000002,-27.0,2c
2019-07-15_143110:460,-0.31369,-0.017792,-0.384338,-0.003389,-0.001141,0.002254,-19.559998999999998,24.870001000000002,-27.0,2c
2019-07-15_143110:480,-0.31369,-0.016753999999999998,-0.378265,-0.0038770000000000002,-0.001537,0.003901,-19.559998999999998,24.870001000000002,-27.0,2c
2019-07-15_143110:500,-0.295898,-0.014740000000000001,-0.386902,-0.004854,-0.001782,0.005275,-20.0,24.059998999999998,-25.0,2c
2019-07-15_143110:520,-0.29895,-0.015747,-0.389435,-0.006135,-0.00404,0.00561,-20.0,24.059998999999998,-25.0,2c
2019-07-15_143110:540,-0.31012,-0.018799,-0.390961,-0.007844,-0.0060539999999999995,0.005549,-18.870001000000002,24.059998999999998,-25.75,2c
2019-07-15_143110:560,-0.314697,-0.020325,-0.388916,-0.009492,-0.0062369999999999995,0.005397,-18.870001000000002,24.059998999999998,-25.75,2c
2019-07-15_143110:580,-0.318756,-0.024384,-0.388428,-0.009706000000000001,-0.00465,0.005214,-18.870001000000002,24.059998999999998,-25.75,2c
2019-07-15_143110:600,-0.312164,-0.027435,-0.386383,-0.008791,-0.003307,0.003474,-19.18,24.870001000000002,-25.370001000000002,2c
2019-07-15_143110:620,-0.296906,-0.020844,-0.390442,-0.007112,-0.00285,0.001674,-19.18,24.870001000000002,-25.370001000000002,2c
2019-07-15_143110:640,-0.29486100000000004,-0.018799,-0.396057,-0.006135,-0.004833,0.00027,-19.68,22.68,-26.559998999999998,2c
2019-07-15_143110:660,-0.306061,-0.013702,-0.390442,-0.004518,-0.005383,-0.001592,-19.68,22.68,-26.559998999999998,2c
2019-07-15_143110:680,-0.305054,-0.007599,-0.394531,-0.003725,-0.004101,-0.00147,-19.68,22.68,-26.559998999999998,2c
2019-07-15_143110:700,-0.304016,-0.007599,-0.390961,-0.003023,-0.003582,-0.000524,-19.559998999999998,23.370001000000002,-25.75,2c
2019-07-15_143110:720,-0.293854,-0.002014,-0.391968,-0.0028399999999999996,-0.003704,0.000392,-19.559998999999998,23.370001000000002,-25.75,2c
2019-07-15_143110:740,-0.28979499999999997,-0.001007,-0.394531,-0.003023,-0.005444,0.0016129999999999999,-19.559998999999998,24.059998999999998,-27.0,2c
2019-07-15_143110:760,-0.30654899999999996,0.0,-0.395538,-0.0036030000000000003,-0.007763,0.002467,-19.559998999999998,24.059998999999998,-27.0,2c
2019-07-15_143110:780,-0.315704,-0.001495,-0.40063499999999996,-0.003542,-0.00758,0.0021920000000000004,-19.559998999999998,24.059998999999998,-27.0,2c
2019-07-15_143110:800,-0.310638,-0.0030210000000000002,-0.399597,-0.004182,-0.006298,0.001124,-18.5,24.870001000000002,-25.370001000000002,2c
2019-07-15_143110:820,-0.311646,-0.004059,-0.392487,-0.004121,-0.005229999999999999,0.00085,-18.5,24.870001000000002,-25.370001000000002,2c
2019-07-15_143110:840,-0.29895,0.0,-0.395538,-0.003206,-0.00346,0.001277,-18.5,24.5,-26.559998999999998,2c
2019-07-15_143110:860,-0.282654,-0.004059,-0.406219,-0.003542,-0.004589,0.001277,-18.5,24.5,-26.559998999999998,2c
2019-07-15_143110:880,-0.290802,-0.004547,-0.406738,-0.00345,-0.006786,0.002131,-18.5,24.5,-26.559998999999998,2c
2019-07-15_143110:900,-0.305542,-0.006072999999999999,-0.404694,-0.003084,-0.007763,0.002376,-18.870001000000002,22.68,-25.75,2c
2019-07-15_143110:920,-0.318268,-0.007599,-0.402649,-0.002382,-0.0060539999999999995,0.00027,-18.870001000000002,22.68,-25.75,2c
2019-07-15_143110:940,-0.30654899999999996,-0.0025329999999999997,-0.401642,-0.0007639999999999999,-0.002911,-0.001531,-18.870001000000002,23.059998999999998,-26.18,2c
2019-07-15_143110:960,-0.294373,0.001495,-0.401123,-0.000185,-0.002239,-0.001714,-18.870001000000002,23.059998999999998,-26.18,2c
2019-07-15_143110:980,-0.31012,0.0030210000000000002,-0.397583,-0.000307,-0.003002,-0.001042,-18.870001000000002,23.059998999999998,-26.18,2c
2019-07-15_143111:000,-0.29742399999999997,0.005065999999999999,-0.40570100000000003,-0.000368,-0.001385,-0.000646,-18.870001000000002,24.5,-26.18,2c
2019-07-15_143111:020,-0.29538000000000003,0.001007,-0.406738,-0.0007639999999999999,-0.001843,-0.001073,-18.870001000000002,24.5,-26.18,2c
2019-07-15_143111:040,-0.307587,0.004059,-0.409271,-0.001222,-0.0023309999999999997,-0.0009199999999999999,-18.5,23.68,-26.559998999999998,2c
2019-07-15_143111:060,-0.315216,0.006072999999999999,-0.40316799999999997,-0.001497,-0.0016589999999999999,-0.000798,-18.5,23.68,-26.559998999999998,2c
2019-07-15_143111:080,-0.311646,0.000488,-0.410797,-0.0025039999999999997,0.000446,-0.001592,-18.5,23.68,-26.559998999999998,2c
2019-07-15_143111:100,-0.311646,0.004059,-0.415375,-0.0025039999999999997,0.001301,-0.00024900000000000004,-18.870001000000002,23.68,-26.18,2c
2019-07-15_143111:120,-0.30654899999999996,0.0025329999999999997,-0.410278,-0.003145,0.002552,0.001338,-18.870001000000002,23.68,-26.18,2c
2019-07-15_143111:140,-0.308075,0.004547,-0.407227,-0.003145,0.0026739999999999997,0.001979,-19.18,24.5,-26.559998999999998,2c
2019-07-15_143111:160,-0.297913,0.001007,-0.39859,-0.003542,0.003834,0.0021920000000000004,-19.18,24.5,-26.559998999999998,2c
2019-07-15_143111:180,-0.284698,0.0,-0.397064,-0.003725,0.004139,0.0025280000000000003,-19.18,24.5,-26.559998999999998,2c
2019-07-15_143111:200,-0.280121,0.000488,-0.393494,-0.0038469999999999997,0.002552,0.002589,-19.18,24.5,-26.18,2c
2019-07-15_143111:220,-0.29180900000000004,-0.001007,-0.394012,-0.004243,0.000446,0.002131,-19.18,24.5,-26.18,2c
2019-07-15_143111:240,-0.302002,-0.002014,-0.39502,-0.0038770000000000002,-0.0005610000000000001,0.002009,-18.5,23.370001000000002,-27.0,2c
2019-07-15_143111:260,-0.309113,-0.0025329999999999997,-0.396057,-0.003084,5e-05,0.0025280000000000003,-18.5,23.370001000000002,-27.0,2c
2019-07-15_143111:280,-0.308075,-0.0025329999999999997,-0.40316799999999997,-0.002382,0.001362,0.002711,-18.5,23.370001000000002,-27.0,2c
2019-07-15_143111:300,-0.303528,-0.0025329999999999997,-0.401642,-0.002168,0.002277,0.002589,-18.5,23.370001000000002,-25.0,2c
2019-07-15_143111:320,-0.305054,-0.0030210000000000002,-0.406738,-0.0016190000000000002,0.0030399999999999997,0.00265,-18.5,23.370001000000002,-25.0,2c
2019-07-15_143111:340,-0.303528,-0.002014,-0.409271,-0.001253,0.0035590000000000005,0.002131,-18.5,24.059998999999998,-26.559998999999998,2c
2019-07-15_143111:360,-0.29742399999999997,-0.000488,-0.406219,-0.001222,0.004139,0.001185,-18.5,24.059998999999998,-26.559998999999998,2c
2019-07-15_143111:380,-0.307587,0.0025329999999999997,-0.404175,-0.001222,0.004536,0.00088,-18.5,24.059998999999998,-26.559998999999998,2c
2019-07-15_143111:400,-0.318268,0.0030210000000000002,-0.40368699999999996,-0.0011,0.005482,0.001185,-18.870001000000002,23.68,-26.18,2c
2019-07-15_143111:420,-0.318756,0.0025329999999999997,-0.39859,-0.001314,0.007526000000000001,0.001185,-18.870001000000002,23.68,-26.18,2c
2019-07-15_143111:440,-0.297913,0.001007,-0.394531,-0.0019850000000000002,0.008990999999999999,0.001185,-19.559998999999998,23.370001000000002,-25.370001000000002,2c
2019-07-15_143111:460,-0.290283,-0.002014,-0.390961,-0.002565,0.007923000000000001,0.000484,-19.559998999999998,23.370001000000002,-25.370001000000002,2c
2019-07-15_143111:480,-0.29895,-0.007111,-0.390961,-0.002748,0.005268,-0.0016530000000000002,-19.559998999999998,23.370001000000002,-25.370001000000002,2c
2019-07-15_143111:500,-0.30249000000000004,-0.004547,-0.388916,-0.0016190000000000002,0.004017,-0.005651,-20.25,24.059998999999998,-25.0,2c
2019-07-15_143111:520,-0.306061,0.001495,-0.392487,0.000273,0.004353,-0.007909000000000001,-20.25,24.059998999999998,-25.0,2c
2019-07-15_143111:540,-0.296387,0.0030210000000000002,-0.390961,0.002135,0.004229999999999999,-0.007176,-20.68,22.68,-27.0,2c
2019-07-15_143111:560,-0.304016,0.004547,-0.392487,0.0036609999999999998,0.00243,-0.005101,-20.68,22.68,-27.0,2c
2019-07-15_143111:580,-0.312653,0.008636,-0.39502,0.00479,0.00124,-0.0025989999999999997,-20.68,22.68,-27.0,2c
2019-07-15_143111:600,-0.307587,0.006072999999999999,-0.383331,0.004393,0.001911,-0.000646,-21.059998999999998,24.059998999999998,-25.370001000000002,2c
2019-07-15_143111:620,-0.300964,0.007111,-0.386902,0.0038740000000000003,0.003498,0.00146,-21.059998999999998,24.059998999999998,-25.370001000000002,2c
2019-07-15_143111:640,-0.290802,0.006592,-0.383331,0.003355,0.005024,0.00381,-21.059998999999998,23.370001000000002,-24.559998999999998,2c
2019-07-15_143111:660,-0.29486100000000004,-0.004547,-0.385864,0.0014939999999999999,0.005665,0.00442,-21.059998999999998,23.370001000000002,-24.559998999999998,2c
2019-07-15_143111:680,-0.28775,-0.016266,-0.394012,0.001433,0.006611,0.0036270000000000004,-21.059998999999998,23.370001000000002,-24.559998999999998,2c
2019-07-15_143111:700,-0.300964,-0.01828,-0.40011599999999997,0.002226,0.00655,0.0016129999999999999,-21.059998999999998,23.68,-23.75,2c
2019-07-15_143111:720,-0.320282,-0.013213999999999998,-0.40011599999999997,0.004729,0.007343000000000001,0.0024059999999999997,-21.059998999999998,23.68,-23.75,2c
2019-07-15_143111:740,-0.331482,-0.008118,-0.39859,0.004454,0.012928,0.003901,-20.68,24.059998999999998,-23.75,2c
2019-07-15_143111:760,-0.322327,-0.013702,-0.393005,0.0017989999999999998,0.016621,0.004756,-20.68,24.059998999999998,-23.75,2c
2019-07-15_143111:780,-0.327423,-0.017273,-0.386902,0.000304,0.017506,0.0077469999999999995,-20.68,24.059998999999998,-23.75,2c
2019-07-15_143111:800,-0.316742,-0.028961,-0.38028,-0.001375,0.016956,0.010798,-22.18,24.870001000000002,-23.370001000000002,2c
2019-07-15_143111:820,-0.335022,-0.036591000000000005,-0.375214,-0.0025039999999999997,0.014454,0.012202,-22.18,24.870001000000002,-23.370001000000002,2c
2019-07-15_143111:840,-0.341644,-0.038635,-0.368073,-0.004274,0.013721,0.012385,-21.370001000000002,24.059998999999998,-23.0,2c
2019-07-15_143111:860,-0.340118,-0.037108999999999996,-0.364532,-0.007234,0.011982,0.012172,-21.370001000000002,24.059998999999998,-23.0,2c
2019-07-15_143111:880,-0.34674099999999997,-0.039642000000000004,-0.373688,-0.010622,0.009724,0.011714,-21.370001000000002,24.059998999999998,-23.0,2c
2019-07-15_143111:900,-0.358429,-0.041687,-0.372162,-0.013368000000000001,0.008747,0.011195,-22.25,25.18,-23.0,2c
2019-07-15_143111:920,-0.344696,-0.038116000000000004,-0.361969,-0.014497,0.008259,0.011043,-22.25,25.18,-23.0,2c
2019-07-15_143111:940,-0.35436999999999996,-0.038116000000000004,-0.353333,-0.015413,0.007404000000000001,0.009944,-22.559998999999998,24.5,-22.559998999999998,2c
2019-07-15_143111:960,-0.364532,-0.03302,-0.34063699999999997,-0.01581,0.009327,0.009212,-22.559998999999998,24.5,-22.559998999999998,2c
2019-07-15_143111:980,-0.365021,-0.029968,-0.353851,-0.016817,0.010242,0.009456,-22.559998999999998,24.5,-22.559998999999998,2c
2019-07-15_143112:000,-0.372162,-0.028961,-0.35791,-0.017335,0.01012,0.009791,-21.870001000000002,24.059998999999998,-23.370001000000002,2c
2019-07-15_143112:020,-0.370636,-0.029480000000000003,-0.347748,-0.017458,0.00835,0.008052,-21.870001000000002,24.059998999999998,-23.370001000000002,2c
2019-07-15_143112:040,-0.36248800000000003,-0.027435,-0.33758499999999997,-0.017122,0.005024,0.0068920000000000006,-22.870001000000002,24.5,-24.18,2c
2019-07-15_143112:060,-0.355896,-0.025908999999999998,-0.322327,-0.015687,0.0030399999999999997,0.005275,-22.870001000000002,24.5,-24.18,2c
2019-07-15_143112:080,-0.35943600000000003,-0.021332,-0.34368899999999997,-0.014100999999999999,-0.001263,0.00146,-22.870001000000002,24.5,-24.18,2c
2019-07-15_143112:100,-0.3508,-0.018799,-0.348267,-0.01169,-0.005627,-0.002843,-22.5,24.059998999999998,-23.0,2c
2019-07-15_143112:120,-0.35436999999999996,-0.012177,-0.352325,-0.008119,-0.008556,-0.006626999999999999,-22.5,24.059998999999998,-23.0,2c
2019-07-15_143112:140,-0.355377,-0.006072999999999999,-0.34368899999999997,-0.004915,-0.007640999999999999,-0.008214,-22.870001000000002,23.68,-23.370001000000002,2c
2019-07-15_143112:160,-0.341644,0.005065999999999999,-0.345215,-0.002107,-0.006023,-0.008884999999999999,-22.870001000000002,23.68,-23.370001000000002,2c
2019-07-15_143112:180,-0.33605999999999997,0.011687999999999999,-0.348267,-0.0007639999999999999,-0.0053219999999999995,-0.008945999999999999,-22.870001000000002,23.68,-23.370001000000002,2c
2019-07-15_143112:200,-0.332489,0.017792,-0.354858,0.000487,-0.004986,-0.008092,-22.5,23.370001000000002,-24.559998999999998,2c
2019-07-15_143112:220,-0.341125,0.024902,-0.358917,0.000365,-0.003857,-0.006841,-22.5,23.370001000000002,-24.559998999999998,2c
2019-07-15_143112:240,-0.337067,0.03302,-0.353333,-0.000368,-0.0021780000000000002,-0.00504,-22.5,23.370001000000002,-23.75,2c
2019-07-15_143112:260,-0.338074,0.031006,-0.354858,-0.001955,-0.001019,-0.0025989999999999997,-22.5,23.370001000000002,-23.75,2c
2019-07-15_143112:280,-0.315216,0.032013,-0.353851,-0.0038469999999999997,-0.002972,-0.002202,-22.5,23.370001000000002,-23.75,2c
2019-07-15_143112:300,-0.325378,0.031006,-0.354858,-0.005128,-0.005261,-0.001805,-22.870001000000002,22.25,-23.75,2c
2019-07-15_143112:320,-0.323334,0.026917,-0.353851,-0.007051000000000001,-0.007763,-0.00024900000000000004,-22.870001000000002,22.25,-23.75,2c
2019-07-15_143112:340,-0.320801,0.023375999999999997,-0.358917,-0.007906,-0.010296,0.000148,-23.559998999999998,23.059998999999998,-23.370001000000002,2c
2019-07-15_143112:360,-0.327911,0.01828,-0.358917,-0.008302,-0.011334,-0.001927,-23.559998999999998,23.059998999999998,-23.370001000000002,2c
2019-07-15_143112:380,-0.327423,0.015228,-0.360962,-0.007234,-0.011729999999999999,-0.005589,-23.559998999999998,23.059998999999998,-23.370001000000002,2c
2019-07-15_143112:400,-0.317749,0.015747,-0.365021,-0.005006,-0.012402,-0.009099,-22.18,22.68,-23.75,2c
2019-07-15_143112:420,-0.318268,0.013702,-0.361969,-0.0019850000000000002,-0.013073,-0.012334,-22.18,22.68,-23.75,2c
2019-07-15_143112:440,-0.316742,0.016753999999999998,-0.36911,0.001006,-0.013347999999999999,-0.013921000000000001,-22.5,21.870001000000002,-24.18,2c
2019-07-15_143112:460,-0.312164,0.01828,-0.37316900000000003,0.004729,-0.014140999999999999,-0.014195,-22.5,21.870001000000002,-24.18,2c
2019-07-15_143112:480,-0.335022,0.026427999999999997,-0.394012,0.0073230000000000005,-0.015057,-0.014591999999999999,-22.5,21.870001000000002,-24.18,2c
2019-07-15_143112:500,-0.34063699999999997,0.027435,-0.397064,0.009703,-0.013226,-0.013799,-22.18,21.870001000000002,-23.370001000000002,2c
2019-07-15_143112:520,-0.35131799999999996,0.034546,-0.408752,0.010161,-0.009838,-0.010625,-22.18,21.870001000000002,-23.370001000000002,2c
2019-07-15_143112:540,-0.3508,0.035583,-0.410278,0.010251999999999999,-0.007885,-0.008884999999999999,-22.18,22.25,-23.75,2c
2019-07-15_143112:560,-0.34265100000000004,0.036591000000000005,-0.406219,0.008666,-0.002514,-0.006566,-22.18,22.25,-23.75,2c
2019-07-15_143112:580,-0.336548,0.035065,-0.404175,0.007658,0.00035499999999999996,-0.005651,-22.18,22.25,-23.75,2c
2019-07-15_143112:600,-0.327423,0.035583,-0.393005,0.005278,0.0006900000000000001,-0.004979,-22.18,22.68,-24.559998999999998,2c
2019-07-15_143112:620,-0.32486,0.031006,-0.389435,0.003325,0.00038500000000000003,-0.003179,-22.18,22.68,-24.559998999999998,2c
2019-07-15_143112:640,-0.32486,0.028442000000000002,-0.381317,0.001158,-0.000439,-0.00024900000000000004,-23.18,22.25,-24.18,2c
2019-07-15_143112:660,-0.326385,0.025421,-0.38028,-0.000917,-0.0008349999999999999,0.003078,-23.18,22.25,-24.18,2c
2019-07-15_143112:680,-0.32843,0.023375999999999997,-0.378265,-0.003084,-0.001598,0.00561,-23.18,22.25,-24.18,2c
2019-07-15_143112:700,-0.323853,0.020325,-0.379272,-0.004579,-0.0023309999999999997,0.006953,-24.0,22.25,-24.559998999999998,2c
2019-07-15_143112:720,-0.32486,0.016266,-0.374176,-0.005525,-0.003246,0.007686,-24.0,22.25,-24.559998999999998,2c
2019-07-15_143112:740,-0.32843,0.014740000000000001,-0.37316900000000003,-0.005769,-0.003246,0.008143000000000001,-22.870001000000002,21.559998999999998,-22.559998999999998,2c
2019-07-15_143112:760,-0.326904,0.012177,-0.381805,-0.0058,-0.0035210000000000003,0.01031,-22.870001000000002,21.559998999999998,-22.559998999999998,2c
2019-07-15_143112:780,-0.324371,0.010651,-0.379272,-0.005586,-0.002972,0.011928,-22.870001000000002,21.559998999999998,-22.559998999999998,2c
2019-07-15_143112:800,-0.31723,0.008636,-0.378265,-0.005586,-0.002972,0.012568000000000001,-22.5,22.25,-23.370001000000002,2c
2019-07-15_143112:820,-0.310638,0.006072999999999999,-0.377747,-0.005372999999999999,-0.00404,0.013179,-22.5,22.25,-23.370001000000002,2c
2019-07-15_143112:840,-0.315704,0.001007,-0.38739,-0.005067,-0.004986,0.013697999999999998,-21.75,22.68,-23.75,2c
2019-07-15_143112:860,-0.325378,-0.000488,-0.391479,-0.0038770000000000002,-0.004437,0.015375999999999999,-21.75,22.68,-23.75,2c
2019-07-15_143112:880,-0.324371,-0.001495,-0.391968,-0.003023,-0.003307,0.015559,-21.75,22.68,-23.75,2c
2019-07-15_143112:900,-0.31723,-0.001495,-0.389435,-0.002443,-0.002605,0.014979,-21.370001000000002,22.68,-24.18,2c
2019-07-15_143112:920,-0.311646,-0.0035399999999999997,-0.386383,-0.0017100000000000001,-0.0031850000000000003,0.014033000000000002,-21.370001000000002,22.68,-24.18,2c
2019-07-15_143112:940,-0.310638,-0.004547,-0.384857,-0.0016489999999999999,-0.003582,0.013789,-22.5,22.68,-23.75,2c
2019-07-15_143112:960,-0.31369,-0.007599,-0.386383,-0.0019850000000000002,-0.004894,0.014369,-22.5,22.68,-23.75,2c
2019-07-15_143112:980,-0.316742,-0.010651,-0.386383,-0.0018329999999999998,-0.004986,0.013392,-22.5,22.68,-23.75,2c
2019-07-15_143113:000,-0.321808,-0.013213999999999998,-0.388428,-0.0016190000000000002,-0.004986,0.012445999999999999,-21.059998999999998,23.68,-24.559998999999998,2c
2019-07-15_143113:020,-0.321808,-0.013702,-0.384857,-0.0011,-0.0035210000000000003,0.008937,-21.059998999999998,23.68,-24.559998999999998,2c
2019-07-15_143113:040,-0.314697,-0.011169,-0.385376,-0.0007639999999999999,-0.0031850000000000003,0.0077469999999999995,-20.68,23.370001000000002,-24.559998999999998,2c
2019-07-15_143113:060,-0.312164,-0.010162000000000001,-0.383331,-0.001161,-0.0027890000000000002,0.00442,-20.68,23.370001000000002,-24.559998999999998,2c
2019-07-15_143113:080,-0.310638,-0.007111,-0.383331,-0.001253,-0.003246,0.0031079999999999997,-20.68,23.370001000000002,-24.559998999999998,2c
2019-07-15_143113:100,-0.311646,-0.004547,-0.383331,-0.0016190000000000002,-0.003857,0.002833,-21.370001000000002,23.059998999999998,-24.18,2c
2019-07-15_143113:120,-0.316223,0.002014,-0.381805,-0.0029010000000000004,-0.004772,0.002742,-21.370001000000002,23.059998999999998,-24.18,2c
2019-07-15_143113:140,-0.319275,0.001007,-0.381805,-0.003206,-0.004986,0.0027719999999999997,-25.370001000000002,23.68,-24.18,2c
2019-07-15_143113:160,-0.320801,0.0025329999999999997,-0.381805,-0.004457,-0.0055049999999999995,0.002955,-25.370001000000002,23.68,-24.18,2c
2019-07-15_143113:180,-0.320282,0.002014,-0.381317,-0.0057079999999999995,-0.005566,0.003016,-25.370001000000002,23.68,-24.18,2c
2019-07-15_143113:200,-0.323853,-0.001495,-0.381317,-0.005647,-0.005261,0.0027719999999999997,-20.25,24.5,-25.75,2c
2019-07-15_143113:220,-0.318756,0.0,-0.379791,-0.005983,-0.004589,0.0021920000000000004,-20.25,24.5,-25.75,2c
2019-07-15_143113:240,-0.314697,-0.001495,-0.382812,-0.005922,-0.004437,0.0017350000000000002,-20.25,24.5,-25.75,2c
2019-07-15_143113:260,-0.31012,-0.001007,-0.38739,-0.005128,-0.005047,0.000484,-21.370001000000002,23.68,-23.75,2c
2019-07-15_143113:280,-0.310638,0.001495,-0.390442,-0.004396,-0.005261,0.00088,-21.370001000000002,23.68,-23.75,2c
2019-07-15_143113:300,-0.312164,0.0025329999999999997,-0.394012,-0.003786,-0.005627,0.002467,-20.25,23.68,-25.0,2c
2019-07-15_143113:320,-0.31369,0.001007,-0.393494,-0.003389,-0.005108,0.0036270000000000004,-20.25,23.68,-25.0,2c
2019-07-15_143113:340,-0.311127,0.002014,-0.395538,-0.003389,-0.004528,0.004024,-20.25,23.68,-25.0,2c
2019-07-15_143113:360,-0.307587,-0.001495,-0.39859,-0.003725,-0.004376,0.004542,-20.25,23.059998999999998,-24.18,2c
2019-07-15_143113:380,-0.314697,-0.005065999999999999,-0.402649,-0.003786,-0.004101,0.003963,-20.25,23.059998999999998,-24.18,2c
2019-07-15_143113:400,-0.31723,-0.009125,-0.40316799999999997,-0.003725,-0.00285,0.002467,-19.870001000000002,23.370001000000002,-23.75,2c
2019-07-15_143113:420,-0.31369,-0.008118,-0.401123,-0.003023,-0.001202,0.0012460000000000001,-19.870001000000002,23.370001000000002,-23.75,2c
2019-07-15_143113:440,-0.311646,-0.008636,-0.399109,-0.001894,0.000172,5.6000000000000006e-05,-19.870001000000002,23.370001000000002,-23.75,2c
2019-07-15_143113:460,-0.304016,-0.0035399999999999997,-0.394531,-0.000825,0.0006900000000000001,-0.000279,-20.25,23.68,-24.559998999999998,2c
2019-07-15_143113:480,-0.29895,-0.004059,-0.394012,-0.000246,0.001026,0.000392,-20.25,23.68,-24.559998999999998,2c
2019-07-15_143113:500,-0.301483,-0.000488,-0.393005,-0.000368,5e-05,0.000789,-20.68,23.68,-25.370001000000002,2c
2019-07-15_143113:520,-0.30654899999999996,-0.001007,-0.392487,-0.001039,-0.000958,0.00088,-20.68,23.68,-25.370001000000002,2c
2019-07-15_143113:540,-0.309601,0.0,-0.391968,-0.001375,-0.00108,0.000941,-20.68,23.68,-25.370001000000002,2c
2019-07-15_143113:560,-0.30654899999999996,0.002014,-0.391968,-0.0017100000000000001,-0.00108,0.000789,-20.68,23.68,-25.0,2c
2019-07-15_143113:580,-0.307587,0.000488,-0.391479,-0.0018329999999999998,-0.001202,0.001185,-20.68,23.68,-25.0,2c
2019-07-15_143113:600,-0.31012,0.002014,-0.394012,-0.0025039999999999997,-0.001537,0.001918,-20.68,23.059998999999998,-24.18,2c
2019-07-15_143113:620,-0.314697,0.0,-0.39502,-0.002443,-0.001263,0.0025280000000000003,-20.68,23.059998999999998,-24.18,2c
2019-07-15_143113:640,-0.311646,-0.001495,-0.394012,-0.003023,-0.00034700000000000003,0.0025280000000000003,-21.370001000000002,23.059998999999998,-25.370001000000002,2c
2019-07-15_143113:660,-0.310638,-0.001007,-0.39502,-0.003084,-4.2e-05,0.002589,-21.370001000000002,23.059998999999998,-25.370001000000002,2c
2019-07-15_143113:680,-0.308075,-0.002014,-0.391968,-0.00345,-0.000164,0.002589,-21.370001000000002,23.059998999999998,-25.370001000000002,2c
2019-07-15_143113:700,-0.308594,-0.0025329999999999997,-0.391968,-0.0034799999999999996,-0.000225,0.00265,-20.68,23.68,-25.75,2c
2019-07-15_143113:720,-0.309113,-0.0025329999999999997,-0.390442,-0.0038770000000000002,-0.0005610000000000001,0.002742,-20.68,23.68,-25.75,2c
2019-07-15_143113:740,-0.311646,-0.0025329999999999997,-0.394531,-0.0039380000000000005,-0.000683,0.002711,-20.68,23.68,-25.75,2c
2019-07-15_143113:760,-0.310638,-0.0025329999999999997,-0.39502,-0.003786,-0.0005610000000000001,0.0024059999999999997,-19.559998999999998,23.68,-23.75,2c
2019-07-15_143113:780,-0.307587,-0.001007,-0.393005,-0.0039380000000000005,1.9e-05,0.002589,-19.559998999999998,23.68,-23.75,2c
2019-07-15_143113:800,-0.304016,-0.000488,-0.391968,-0.0034799999999999996,5e-05,0.0028940000000000003,-19.870001000000002,22.68,-24.18,2c
2019-07-15_143113:820,-0.303528,0.0,-0.390442,-0.0036030000000000003,-0.000683,0.002833,-19.870001000000002,22.68,-24.18,2c
2019-07-15_143113:840,-0.304535,0.0,-0.390961,-0.00406,-0.001141,0.003169,-19.870001000000002,22.68,-24.18,2c
2019-07-15_143113:860,-0.309113,-0.001495,-0.392487,-0.004579,-0.001324,0.002589,-19.870001000000002,23.059998999999998,-25.370001000000002,2c
2019-07-15_143113:880,-0.31012,0.0,-0.391479,-0.004457,-0.001324,0.002009,-19.870001000000002,23.059998999999998,-25.370001000000002,2c
2019-07-15_143113:900,-0.312164,0.0,-0.394012,-0.004243,-0.001385,0.002009,-21.059998999999998,23.370001000000002,-25.0,2c
2019-07-15_143113:920,-0.315216,-0.000488,-0.391479,-0.004121,-0.001202,0.0024059999999999997,-21.059998999999998,23.370001000000002,-25.0,2c
2019-07-15_143113:940,-0.31369,0.0,-0.390961,-0.0039380000000000005,-0.0008349999999999999,0.0028940000000000003,-21.059998999999998,23.370001000000002,-25.0,2c
2019-07-15_143113:960,-0.304016,0.0,-0.389435,-0.003999,-0.0005610000000000001,0.0034130000000000002,-19.870001000000002,23.68,-23.370001000000002,2c
2019-07-15_143113:980,-0.304535,-0.000488,-0.389435,-0.0039380000000000005,-0.00108,0.002254,-19.870001000000002,23.68,-23.370001000000002,2c
2019-07-15_143114:000,-0.305054,0.000488,-0.392487,-0.0038469999999999997,-0.001446,0.001399,-20.68,22.68,-26.18,2c
2019-07-15_143114:020,-0.30654899999999996,0.002014,-0.393005,-0.0033280000000000002,-0.0020559999999999997,0.002315,-20.68,22.68,-26.18,2c
2019-07-15_143114:040,-0.311127,0.001007,-0.396057,-0.003389,-0.002667,0.002955,-20.68,22.68,-26.18,2c
2019-07-15_143114:060,-0.314697,0.0025329999999999997,-0.396545,-0.003389,-0.0024530000000000003,0.003016,-21.059998999999998,23.68,-25.0,2c
2019-07-15_143114:080,-0.314178,0.0035399999999999997,-0.397064,-0.0032670000000000004,-0.0014759999999999999,0.0036270000000000004,-21.059998999999998,23.68,-25.0,2c
2019-07-15_143114:100,-0.309113,0.002014,-0.395538,-0.00345,-0.000439,0.0036880000000000003,-20.68,23.68,-25.0,2c
2019-07-15_143114:120,-0.306061,0.0030210000000000002,-0.392487,-0.003786,1.9e-05,0.003474,-20.68,23.68,-25.0,2c
2019-07-15_143114:140,-0.303528,0.001007,-0.393005,-0.003999,-0.000225,0.0033520000000000004,-20.68,23.68,-25.0,2c
2019-07-15_143114:160,-0.309113,0.0,-0.393005,-0.004274,-0.000958,0.0036880000000000003,-20.68,23.370001000000002,-23.0,2c
2019-07-15_143114:180,-0.311646,-0.000488,-0.393005,-0.0038770000000000002,-0.00108,0.004359,-20.68,23.370001000000002,-23.0,2c
2019-07-15_143114:200,-0.309113,-0.000488,-0.391968,-0.0036030000000000003,-0.0006219999999999999,0.004359,-20.68,23.059998999999998,-25.0,2c
2019-07-15_143114:220,-0.308075,-0.000488,-0.391479,-0.003542,-0.000958,0.003901,-20.68,23.059998999999998,-25.0,2c
2019-07-15_143114:240,-0.307587,0.0,-0.390442,-0.003725,-0.000958,0.003749,-20.68,23.059998999999998,-25.0,2c
2019-07-15_143114:260,-0.307068,0.0,-0.391479,-0.003725,-0.001141,0.003474,-20.25,23.059998999999998,-25.0,2c
2019-07-15_143114:280,-0.309113,-0.000488,-0.391479,-0.0038469999999999997,-0.001263,0.0031079999999999997,-20.25,23.059998999999998,-25.0,2c
2019-07-15_143114:300,-0.312653,-0.000488,-0.394531,-0.00345,-0.00108,0.0032909999999999997,-20.25,23.370001000000002,-25.75,2c
2019-07-15_143114:320,-0.312164,-0.001007,-0.393005,-0.003206,-0.0006219999999999999,0.003169,-20.25,23.370001000000002,-25.75,2c
2019-07-15_143114:340,-0.309601,-0.000488,-0.393005,-0.003084,-0.0006219999999999999,0.0032909999999999997,-20.25,23.370001000000002,-25.75,2c
2019-07-15_143114:360,-0.309113,0.0,-0.393005,-0.003023,-0.000286,0.00323,-20.25,23.68,-25.0,2c
2019-07-15_143114:380,-0.305054,0.001495,-0.391479,-0.002748,-0.0005610000000000001,0.0034130000000000002,-20.25,23.68,-25.0,2c
2019-07-15_143114:400,-0.307068,0.001007,-0.393005,-0.003206,-0.000958,0.00381,-21.059998999999998,23.68,-25.370001000000002,2c
2019-07-15_143114:420,-0.308594,0.001495,-0.390961,-0.003542,-0.001537,0.0036880000000000003,-21.059998999999998,23.68,-25.370001000000002,2c
2019-07-15_143114:440,-0.312164,-0.001007,-0.394012,-0.003664,-0.001385,0.0034130000000000002,-21.059998999999998,23.68,-25.370001000000002,2c
2019-07-15_143114:460,-0.314697,-0.001495,-0.394531,-0.003664,-0.0008349999999999999,0.003169,-24.0,23.370001000000002,-26.559998999999998,2c
2019-07-15_143114:480,-0.311646,-0.002014,-0.394531,-0.003206,-0.000225,0.0032909999999999997,-24.0,23.370001000000002,-26.559998999999998,2c
2019-07-15_143114:500,-0.308075,-0.001495,-0.394531,-0.003084,0.000172,0.0032909999999999997,-20.68,23.059998999999998,-25.75,2c
2019-07-15_143114:520,-0.305054,-0.001495,-0.390961,-0.0028399999999999996,-0.000103,0.0036880000000000003,-20.68,23.059998999999998,-25.75,2c
2019-07-15_143114:540,-0.304535,-0.000488,-0.391968,-0.002687,-0.0007440000000000001,0.003505,-20.68,23.059998999999998,-25.75,2c
2019-07-15_143114:560,-0.308075,-0.002014,-0.391479,-0.002779,-0.001141,0.00323,-19.870001000000002,23.370001000000002,-24.559998999999998,2c
2019-07-15_143114:580,-0.309601,-0.0035399999999999997,-0.392487,-0.002779,-0.001263,0.002589,-19.870001000000002,23.370001000000002,-24.559998999999998,2c
2019-07-15_143114:600,-0.310638,-0.0035399999999999997,-0.393005,-0.0026260000000000003,-0.001141,0.002376,-19.870001000000002,23.059998999999998,-24.559998999999998,2c
2019-07-15_143114:620,-0.31369,-0.004547,-0.390961,-0.002107,-0.0011099999999999999,0.002131,-19.870001000000002,23.059998999999998,-24.559998999999998,2c
2019-07-15_143114:640,-0.313171,-0.0035399999999999997,-0.391968,-0.001497,-0.000683,0.002009,-19.870001000000002,23.059998999999998,-24.559998999999998,2c
2019-07-15_143114:660,-0.308075,-0.001495,-0.390442,-0.001375,-0.0005610000000000001,0.0024059999999999997,-19.870001000000002,23.059998999999998,-24.18,2c
2019-07-15_143114:680,-0.305542,-0.000488,-0.389954,-0.001222,-0.0007440000000000001,0.001796,-19.870001000000002,23.059998999999998,-24.18,2c
2019-07-15_143114:700,-0.305542,0.0030210000000000002,-0.393494,-0.001558,-0.00108,0.001521,-19.870001000000002,23.68,-24.18,2c
2019-07-15_143114:720,-0.307587,0.004059,-0.394012,-0.002046,-0.001537,0.0024059999999999997,-19.870001000000002,23.68,-24.18,2c
2019-07-15_143114:740,-0.309113,0.0030210000000000002,-0.396057,-0.0026260000000000003,-0.001537,0.002833,-19.870001000000002,23.68,-24.18,2c
2019-07-15_143114:760,-0.312653,0.0,-0.394531,-0.0029620000000000002,-0.0016589999999999999,0.0028940000000000003,-20.68,23.370001000000002,-24.18,2c
2019-07-15_143114:780,-0.312164,-0.000488,-0.39502,-0.002779,-0.0007740000000000001,0.0031079999999999997,-20.68,23.370001000000002,-24.18,2c
2019-07-15_143114:800,-0.309113,-0.002014,-0.394012,-0.002565,-0.00037799999999999997,0.0035659999999999997,-21.059998999999998,23.370001000000002,-25.370001000000002,2c
2019-07-15_143114:820,-0.307587,-0.0030210000000000002,-0.393005,-0.0023510000000000002,-0.000439,0.003505,-21.059998999999998,23.370001000000002,-25.370001000000002,2c
2019-07-15_143114:840,-0.305054,-0.002014,-0.392487,-0.002046,-0.000439,0.0036270000000000004,-21.059998999999998,23.370001000000002,-25.370001000000002,2c
2019-07-15_143114:860,-0.309113,-0.002014,-0.391968,-0.00229,-0.000958,0.0036880000000000003,-19.559998999999998,23.370001000000002,-25.370001000000002,2c
2019-07-15_143114:880,-0.311646,-0.0035399999999999997,-0.391479,-0.0023510000000000002,-0.000958,0.003474,-19.559998999999998,23.370001000000002,-25.370001000000002,2c
2019-07-15_143114:900,-0.314697,-0.0030210000000000002,-0.389954,-0.0026260000000000003,-0.0008349999999999999,0.0034130000000000002,-20.25,23.370001000000002,-26.18,2c
2019-07-15_143114:920,-0.31369,-0.0035399999999999997,-0.390442,-0.002687,-0.000286,0.003016,-20.25,23.370001000000002,-26.18,2c
2019-07-15_143114:940,-0.31012,-0.0030210000000000002,-0.391479,-0.0028399999999999996,-0.00037799999999999997,0.002467,-20.25,23.370001000000002,-26.18,2c
2019-07-15_143114:960,-0.308075,-0.0030210000000000002,-0.391479,-0.002687,-0.00034700000000000003,0.0027719999999999997,-20.25,23.370001000000002,-25.75,2c
2019-07-15_143114:980,-0.307587,-0.0025329999999999997,-0.391479,-0.0028399999999999996,-0.0007440000000000001,0.0028940000000000003,-20.25,23.370001000000002,-25.75,2c
2019-07-15_143115:000,-0.309601,-0.004059,-0.390442,-0.0029620000000000002,-0.001019,0.00265,-20.68,23.370001000000002,-25.370001000000002,2c
2019-07-15_143115:020,-0.309601,-0.0030210000000000002,-0.389954,-0.0028399999999999996,-0.00108,0.0024059999999999997,-20.68,23.370001000000002,-25.370001000000002,2c
2019-07-15_143115:040,-0.308594,-0.0030210000000000002,-0.389954,-0.0029620000000000002,-0.0007740000000000001,0.0021920000000000004,-20.68,23.370001000000002,-25.370001000000002,2c
2019-07-15_143115:060,-0.306061,-0.0030210000000000002,-0.389954,-0.002687,-0.001263,0.0021920000000000004,-20.68,23.059998999999998,-25.370001000000002,2c
2019-07-15_143115:080,-0.306061,-0.002014,-0.390961,-0.0029010000000000004,-0.001782,0.002589,-20.68,23.059998999999998,-25.370001000000002,2c
2019-07-15_143115:100,-0.306061,-0.002014,-0.392487,-0.002748,-0.0020559999999999997,0.002711,-21.370001000000002,23.370001000000002,-26.559998999999998,2c
2019-07-15_143115:120,-0.308594,-0.002014,-0.390961,-0.0026260000000000003,-0.00227,0.002955,-21.370001000000002,23.370001000000002,-26.559998999999998,2c
2019-07-15_143115:140,-0.308075,-0.002014,-0.392487,-0.002687,-0.00285,0.0028940000000000003,-21.370001000000002,23.370001000000002,-26.559998999999998,2c
2019-07-15_143115:160,-0.309601,-0.002014,-0.391968,-0.003023,-0.002911,0.0027719999999999997,-20.25,23.68,-25.75,2c
2019-07-15_143115:180,-0.314697,-0.0030210000000000002,-0.393494,-0.003114,-0.002728,0.0028940000000000003,-20.25,23.68,-25.75,2c
2019-07-15_143115:200,-0.312653,-0.0035399999999999997,-0.39502,-0.003084,-0.001843,0.003169,-22.18,23.68,-25.370001000000002,2c
2019-07-15_143115:220,-0.309601,-0.0025329999999999997,-0.394012,-0.003023,-0.001202,0.003474,-22.18,23.68,-25.370001000000002,2c
2019-07-15_143115:240,-0.307587,-0.0030210000000000002,-0.395538,-0.003114,-0.00108,0.003474,-22.18,23.68,-25.370001000000002,2c
2019-07-15_143115:260,-0.306061,-0.0035399999999999997,-0.395538,-0.0029620000000000002,-0.001019,0.00323,-20.25,23.68,-25.75,2c
2019-07-15_143115:280,-0.306061,-0.0030210000000000002,-0.394012,-0.0032670000000000004,-0.001202,0.0032909999999999997,-20.25,23.68,-25.75,2c
2019-07-15_143115:300,-0.307587,-0.006072999999999999,-0.394012,-0.00345,-0.001598,0.003016,-20.25,24.5,-26.559998999999998,2c
2019-07-15_143115:320,-0.311646,-0.004547,-0.391479,-0.0033280000000000002,-0.0014759999999999999,0.0027719999999999997,-20.25,24.5,-26.559998999999998,2c
2019-07-15_143115:340,-0.31012,-0.0055850000000000006,-0.393005,-0.0029620000000000002,-0.001019,0.0031079999999999997,-20.25,24.5,-26.559998999999998,2c
2019-07-15_143115:360,-0.305054,-0.004059,-0.394531,-0.0029010000000000004,-0.000897,0.002376,-20.68,23.370001000000002,-26.18,2c
2019-07-15_143115:380,-0.306061,-0.004059,-0.395538,-0.003084,-0.00108,0.0016129999999999999,-20.68,23.370001000000002,-26.18,2c
2019-07-15_143115:400,-0.306061,-0.0030210000000000002,-0.396057,-0.0029620000000000002,-0.001324,0.0021920000000000004,-21.059998999999998,23.059998999999998,-25.0,2c
2019-07-15_143115:420,-0.306061,-0.004059,-0.395538,-0.002748,-0.001537,0.002376,-21.059998999999998,23.059998999999998,-25.0,2c
2019-07-15_143115:440,-0.311646,-0.004059,-0.396545,-0.0026260000000000003,-0.001446,0.002131,-21.059998999999998,23.059998999999998,-25.0,2c
2019-07-15_143115:460,-0.312164,-0.0030210000000000002,-0.396057,-0.0023510000000000002,-0.001019,0.002467,-19.870001000000002,24.059998999999998,-25.75,2c
2019-07-15_143115:480,-0.311127,-0.0025329999999999997,-0.394531,-0.002168,5e-05,0.003169,-19.870001000000002,24.059998999999998,-25.75,2c
2019-07-15_143115:500,-0.306061,-0.002014,-0.394012,-0.002565,0.0005679999999999999,0.0032909999999999997,-21.059998999999998,23.370001000000002,-25.75,2c
2019-07-15_143115:520,-0.305054,-0.0030210000000000002,-0.393494,-0.0025039999999999997,0.000294,0.002955,-21.059998999999998,23.370001000000002,-25.75,2c
2019-07-15_143115:540,-0.309601,-0.004059,-0.391479,-0.003084,-0.000225,0.0024059999999999997,-21.059998999999998,23.370001000000002,-25.75,2c
2019-07-15_143115:560,-0.309113,-0.004059,-0.391479,-0.003114,-0.00037799999999999997,0.0025280000000000003,-19.870001000000002,23.68,-24.559998999999998,2c
2019-07-15_143115:580,-0.309113,-0.004547,-0.389435,-0.003084,-0.000286,0.0028940000000000003,-19.870001000000002,23.68,-24.559998999999998,2c
2019-07-15_143115:600,-0.309113,-0.0055850000000000006,-0.391479,-0.003084,-0.000439,0.002833,-21.059998999999998,23.059998999999998,-25.75,2c
2019-07-15_143115:620,-0.309601,-0.005065999999999999,-0.392487,-0.0028399999999999996,-0.0005,0.00265,-21.059998999999998,23.059998999999998,-25.75,2c
2019-07-15_143115:640,-0.308594,-0.004059,-0.391968,-0.002565,-0.00037799999999999997,0.002254,-21.059998999999998,23.059998999999998,-25.75,2c
2019-07-15_143115:660,-0.307587,-0.0035399999999999997,-0.391479,-0.0026260000000000003,-0.0005610000000000001,0.002131,-20.25,23.68,-25.370001000000002,2c
2019-07-15_143115:680,-0.305054,-0.0030210000000000002,-0.390442,-0.002779,-0.000683,0.002315,-20.25,23.68,-25.370001000000002,2c
2019-07-15_143115:700,-0.303528,-0.0025329999999999997,-0.390961,-0.0029010000000000004,-0.001446,0.002254,-20.68,23.370001000000002,-25.0,2c
2019-07-15_143115:720,-0.305054,-0.002014,-0.390961,-0.002779,-0.001873,0.002315,-20.68,23.370001000000002,-25.0,2c
2019-07-15_143115:740,-0.308594,-0.0025329999999999997,-0.393494,-0.0028399999999999996,-0.002514,0.002376,-20.68,23.370001000000002,-25.0,2c
2019-07-15_143115:760,-0.31012,-0.0030210000000000002,-0.39502,-0.0029010000000000004,-0.0024530000000000003,0.0024059999999999997,-20.68,23.370001000000002,-25.370001000000002,2c
2019-07-15_143115:780,-0.309601,-0.0025329999999999997,-0.394012,-0.0029010000000000004,-0.002239,0.00265,-20.68,23.370001000000002,-25.370001000000002,2c
2019-07-15_143115:800,-0.309113,-0.001495,-0.395538,-0.002687,-0.001873,0.002589,-20.25,23.059998999999998,-25.370001000000002,2c
2019-07-15_143115:820,-0.309113,0.0,-0.394531,-0.003114,-0.001873,0.00265,-20.25,23.059998999999998,-25.370001000000002,2c
2019-07-15_143115:840,-0.308075,-0.001007,-0.394012,-0.0033280000000000002,-0.001446,0.003169,-20.25,23.059998999999998,-25.370001000000002,2c
2019-07-15_143115:860,-0.309113,-0.002014,-0.394012,-0.003786,-0.001537,0.0033520000000000004,-20.68,23.059998999999998,-25.75,2c
2019-07-15_143115:880,-0.305542,-0.004547,-0.394012,-0.003786,-0.001385,0.0035659999999999997,-20.68,23.059998999999998,-25.75,2c
2019-07-15_143115:900,-0.306061,-0.0055850000000000006,-0.39502,-0.0036030000000000003,-0.001263,0.00381,-20.68,22.68,-24.559998999999998,2c
2019-07-15_143115:920,-0.307068,-0.007599,-0.393494,-0.0034799999999999996,-0.001537,0.0034130000000000002,-20.68,22.68,-24.559998999999998,2c
2019-07-15_143115:940,-0.307587,-0.007111,-0.396545,-0.0033280000000000002,-0.001598,0.0027719999999999997,-20.68,22.68,-24.559998999999998,2c
2019-07-15_143115:960,-0.308075,-0.007111,-0.396545,-0.002779,-0.0014759999999999999,0.002833,-21.059998999999998,23.68,-26.18,2c
2019-07-15_143115:980,-0.31012,-0.0055850000000000006,-0.394531,-0.0026260000000000003,-0.001446,0.002711,-21.059998999999998,23.68,-26.18,2c
2019-07-15_143116:000,-0.309601,-0.0035399999999999997,-0.394012,-0.002687,-0.001446,0.0025280000000000003,-21.059998999999998,23.370001000000002,-24.559998999999998,2c
2019-07-15_143116:020,-0.304535,-0.002014,-0.391479,-0.002565,-0.000683,0.003078,-21.059998999999998,23.370001000000002,-24.559998999999998,2c
2019-07-15_143116:040,-0.304016,-0.0035399999999999997,-0.392487,-0.0029010000000000004,-0.0007440000000000001,0.002467,-21.059998999999998,23.370001000000002,-24.559998999999998,2c
2019-07-15_143116:060,-0.304016,-0.0035399999999999997,-0.394012,-0.0032670000000000004,-0.001385,0.001918,-20.25,24.059998999999998,-25.0,2c
2019-07-15_143116:080,-0.30654899999999996,-0.0035399999999999997,-0.39502,-0.003389,-0.001598,0.00265,-20.25,24.059998999999998,-25.0,2c
2019-07-15_143116:100,-0.309601,-0.006072999999999999,-0.396057,-0.003114,-0.001782,0.002955,-20.68,23.059998999999998,-25.370001000000002,2c
2019-07-15_143116:120,-0.312164,-0.006072999999999999,-0.395538,-0.003084,-0.001385,0.0025280000000000003,-20.68,23.059998999999998,-25.370001000000002,2c
2019-07-15_143116:140,-0.309113,-0.004547,-0.396057,-0.0029010000000000004,-0.0005610000000000001,0.0028940000000000003,-20.68,23.059998999999998,-25.370001000000002,2c
2019-07-15_143116:160,-0.305542,-0.004547,-0.393494,-0.002748,0.000233,0.0032909999999999997,-20.68,22.68,-25.370001000000002,2c
2019-07-15_143116:180,-0.305054,-0.004547,-0.394012,-0.003206,-0.000103,0.002955,-20.68,22.68,-25.370001000000002,2c
2019-07-15_143116:200,-0.305542,-0.0035399999999999997,-0.393494,-0.0034799999999999996,-0.000439,0.002711,-20.68,23.68,-25.0,2c
2019-07-15_143116:220,-0.308075,-0.0025329999999999997,-0.392487,-0.0036030000000000003,-0.000897,0.002711,-20.68,23.68,-25.0,2c
2019-07-15_143116:240,-0.308594,-0.005065999999999999,-0.39502,-0.0038469999999999997,-0.000897,0.0028940000000000003,-20.68,23.68,-25.0,2c
2019-07-15_143116:260,-0.306061,-0.006072999999999999,-0.393494,-0.003786,-0.0007740000000000001,0.002711,-19.870001000000002,23.68,-25.0,2c
2019-07-15_143116:280,-0.307068,-0.007599,-0.39502,-0.003206,-0.0008349999999999999,0.002376,-19.870001000000002,23.68,-25.0,2c
2019-07-15_143116:300,-0.307587,-0.006592,-0.395538,-0.0025039999999999997,-0.000683,0.001918,-19.870001000000002,23.370001000000002,-25.75,2c
2019-07-15_143116:320,-0.307587,-0.004547,-0.39502,-0.0026260000000000003,-0.000683,0.0017350000000000002,-19.870001000000002,23.370001000000002,-25.75,2c
2019-07-15_143116:340,-0.308594,-0.0030210000000000002,-0.394012,-0.00229,-0.0005,0.001796,-19.870001000000002,23.370001000000002,-25.75,2c
2019-07-15_143116:360,-0.30654899999999996,-0.001007,-0.39502,-0.0025039999999999997,-0.0006219999999999999,0.0016129999999999999,-21.059998999999998,23.68,-25.75,2c
2019-07-15_143116:380,-0.307587,-0.001007,-0.394012,-0.003023,-0.0007740000000000001,0.001674,-21.059998999999998,23.68,-25.75,2c
2019-07-15_143116:400,-0.310638,-0.002014,-0.393494,-0.0032670000000000004,-0.0008349999999999999,0.001857,-20.68,23.370001000000002,-24.559998999999998,2c
2019-07-15_143116:420,-0.308594,-0.001495,-0.393494,-0.003664,-0.000286,0.001796,-20.68,23.370001000000002,-24.559998999999998,2c
2019-07-15_143116:440,-0.308075,-0.0035399999999999997,-0.39502,-0.003542,-0.00034700000000000003,0.0017350000000000002,-20.68,23.370001000000002,-24.559998999999998,2c
2019-07-15_143116:460,-0.308075,-0.004059,-0.394531,-0.0033280000000000002,-0.000164,0.001674,-21.059998999999998,23.059998999999998,-24.18,2c
2019-07-15_143116:480,-0.305542,-0.0030210000000000002,-0.391968,-0.003084,-0.000103,0.00146,-21.059998999999998,23.059998999999998,-24.18,2c
2019-07-15_143116:500,-0.305054,-0.0030210000000000002,-0.393494,-0.002687,-0.0007740000000000001,0.001857,-20.68,23.059998999999998,-25.370001000000002,2c
2019-07-15_143116:520,-0.308075,-0.001495,-0.390961,-0.0026260000000000003,-0.00108,0.002254,-20.68,23.059998999999998,-25.370001000000002,2c
2019-07-15_143116:540,-0.309601,-0.000488,-0.393494,-0.003114,-0.0011099999999999999,0.002467,-20.68,23.059998999999998,-25.370001000000002,2c
2019-07-15_143116:560,-0.312653,-0.001495,-0.394012,-0.003145,-0.001019,0.0024059999999999997,-20.25,23.370001000000002,-25.0,2c
2019-07-15_143116:580,-0.311127,-0.0030210000000000002,-0.393494,-0.0029620000000000002,-0.000439,0.00207,-20.25,23.370001000000002,-25.0,2c
2019-07-15_143116:600,-0.308075,-0.0025329999999999997,-0.393005,-0.003114,-0.000286,0.0021920000000000004,-20.68,23.059998999999998,-25.370001000000002,2c
2019-07-15_143116:620,-0.30654899999999996,-0.0035399999999999997,-0.393494,-0.003114,-0.0006219999999999999,0.002131,-20.68,23.059998999999998,-25.370001000000002,2c
2019-07-15_143116:640,-0.304535,-0.0030210000000000002,-0.392487,-0.003114,-0.00108,0.001979,-20.68,23.059998999999998,-25.370001000000002,2c
2019-07-15_143116:660,-0.306061,-0.0035399999999999997,-0.391479,-0.0029620000000000002,-0.0011099999999999999,0.00207,-20.68,23.68,-25.370001000000002,2c
2019-07-15_143116:680,-0.309113,-0.0030210000000000002,-0.390961,-0.0029010000000000004,-0.001263,0.001857,-20.68,23.68,-25.370001000000002,2c
2019-07-15_143116:700,-0.314178,-0.0035399999999999997,-0.392487,-0.002748,-0.0011099999999999999,0.001796,-20.68,23.370001000000002,-25.370001000000002,2c
2019-07-15_143116:720,-0.313171,-0.002014,-0.393005,-0.0026260000000000003,-0.000683,0.001674,-20.68,23.370001000000002,-25.370001000000002,2c
2019-07-15_143116:740,-0.305542,-0.002014,-0.391968,-0.002687,-0.000683,0.0010630000000000001,-20.68,23.370001000000002,-25.370001000000002,2c
2019-07-15_143116:760,-0.304535,-0.0030210000000000002,-0.393494,-0.002687,-0.000683,0.000453,-20.68,23.059998999999998,-24.559998999999998,2c
2019-07-15_143116:780,-0.303528,-0.000488,-0.394531,-0.002687,-0.001782,0.001185,-20.68,23.059998999999998,-24.559998999999998,2c
2019-07-15_143116:800,-0.305054,-0.000488,-0.39502,-0.002687,-0.001995,0.001918,-21.370001000000002,23.059998999999998,-23.370001000000002,2c
2019-07-15_143116:820,-0.309113,-0.001495,-0.395538,-0.0025039999999999997,-0.0020559999999999997,0.001521,-21.370001000000002,23.059998999999998,-23.370001000000002,2c
2019-07-15_143116:840,-0.311127,0.0,-0.395538,-0.002168,-0.001202,0.001582,-21.370001000000002,23.059998999999998,-23.370001000000002,2c
2019-07-15_143116:860,-0.309601,-0.000488,-0.39502,-0.0025039999999999997,-0.000958,0.002254,-20.68,23.370001000000002,-25.0,2c
2019-07-15_143116:880,-0.308075,0.000488,-0.394531,-0.0025039999999999997,-0.0007440000000000001,0.002315,-20.68,23.370001000000002,-25.0,2c
2019-07-15_143116:900,-0.30654899999999996,0.001495,-0.394012,-0.0029010000000000004,-0.00108,0.002467,-21.370001000000002,23.370001000000002,-25.370001000000002,2c
2019-07-15_143116:920,-0.308075,0.000488,-0.393005,-0.0034799999999999996,-0.0011099999999999999,0.0027719999999999997,-21.370001000000002,23.370001000000002,-25.370001000000002,2c
2019-07-15_143116:940,-0.308594,0.000488,-0.393494,-0.003725,-0.00108,0.0032909999999999997,-21.370001000000002,23.370001000000002,-25.370001000000002,2c
2019-07-15_143116:960,-0.311127,0.0,-0.394012,-0.004121,-0.0008349999999999999,0.0033520000000000004,-20.68,23.370001000000002,-25.370001000000002,2c
2019-07-15_143116:980,-0.309601,-0.0025329999999999997,-0.391479,-0.0038770000000000002,-0.000683,0.002467,-20.68,23.370001000000002,-25.370001000000002,2c
2019-07-15_143117:000,-0.307068,-0.004059,-0.394012,-0.0036030000000000003,-0.000897,0.0025280000000000003,-20.68,22.68,-25.0,2c
2019-07-15_143117:020,-0.30300900000000003,-0.004059,-0.391968,-0.00345,-0.001324,0.002589,-20.68,22.68,-25.0,2c
2019-07-15_143117:040,-0.304016,-0.0030210000000000002,-0.391479,-0.003023,-0.001843,0.002376,-20.68,22.68,-25.0,2c
2019-07-15_143117:060,-0.306061,-0.0035399999999999997,-0.393005,-0.002748,-0.0023309999999999997,0.001857,-21.370001000000002,23.059998999999998,-25.370001000000002,2c
2019-07-15_143117:080,-0.307587,-0.001495,-0.390961,-0.0025039999999999997,-0.002514,0.001582,-21.370001000000002,23.059998999999998,-25.370001000000002,2c
2019-07-15_143117:100,-0.309113,-0.001007,-0.393005,-0.0023510000000000002,-0.0024530000000000003,0.0016129999999999999,-20.68,23.370001000000002,-25.0,2c
2019-07-15_143117:120,-0.31012,-0.000488,-0.393494,-0.0025039999999999997,-0.002239,0.00146,-20.68,23.370001000000002,-25.0,2c
2019-07-15_143117:140,-0.309113,0.0,-0.396545,-0.0019850000000000002,-0.001934,0.001338,-20.68,23.370001000000002,-25.0,2c
2019-07-15_143117:160,-0.307587,-0.000488,-0.396057,-0.001771,-0.001843,0.0016129999999999999,-20.25,22.68,-25.370001000000002,2c
2019-07-15_143117:180,-0.308075,0.0,-0.394531,-0.0019850000000000002,-0.0016589999999999999,0.001979,-20.25,22.68,-25.370001000000002,2c
2019-07-15_143117:200,-0.30654899999999996,0.000488,-0.39502,-0.001955,-0.0014759999999999999,0.00207,-19.559998999999998,22.68,-23.75,2c
2019-07-15_143117:220,-0.307068,0.002014,-0.39502,-0.001955,-0.001202,0.002589,-19.559998999999998,22.68,-23.75,2c
2019-07-15_143117:240,-0.30654899999999996,0.001495,-0.396545,-0.002382,-0.000897,0.0031079999999999997,-19.559998999999998,22.68,-23.75,2c
2019-07-15_143117:260,-0.308075,0.000488,-0.397064,-0.002565,-0.0006219999999999999,0.003169,-20.75,23.370001000000002,-26.18,2c
2019-07-15_143117:280,-0.305054,0.0,-0.395538,-0.003114,-0.0005610000000000001,0.003474,-20.75,23.370001000000002,-26.18,2c
2019-07-15_143117:300,-0.303528,0.0,-0.397064,-0.0032670000000000004,-0.0007740000000000001,0.0035659999999999997,-20.75,23.370001000000002,-24.18,2c
2019-07-15_143117:320,-0.303528,-0.002014,-0.395538,-0.0036030000000000003,-0.001141,0.0035659999999999997,-20.75,23.370001000000002,-24.18,2c
2019-07-15_143117:340,-0.307068,-0.0025329999999999997,-0.395538,-0.0034799999999999996,-0.00108,0.0035659999999999997,-20.75,23.370001000000002,-24.18,2c
2019-07-15_143117:360,-0.30654899999999996,-0.001495,-0.395538,-0.00345,-0.0011099999999999999,0.003749,-21.18,22.25,-25.370001000000002,2c
2019-07-15_143117:380,-0.309601,-0.0030210000000000002,-0.393494,-0.003389,-0.000897,0.0035659999999999997,-21.18,22.25,-25.370001000000002,2c
2019-07-15_143117:400,-0.309113,-0.002014,-0.394012,-0.003114,-0.0006219999999999999,0.003474,-20.75,23.370001000000002,-25.370001000000002,2c
2019-07-15_143117:420,-0.307587,-0.000488,-0.393494,-0.003145,-0.000439,0.003749,-20.75,23.370001000000002,-25.370001000000002,2c
2019-07-15_143117:440,-0.305542,-0.002014,-0.394012,-0.003206,-0.0005610000000000001,0.003078,-20.75,23.370001000000002,-25.370001000000002,2c
2019-07-15_143117:460,-0.305054,0.0,-0.395538,-0.003664,-0.000897,0.0028940000000000003,-20.0,23.059998999999998,-25.370001000000002,2c
2019-07-15_143117:480,-0.305542,-0.001495,-0.39502,-0.003389,-0.0007740000000000001,0.0036880000000000003,-20.0,23.059998999999998,-25.370001000000002,2c
2019-07-15_143117:500,-0.30654899999999996,-0.0025329999999999997,-0.396057,-0.003664,-0.001141,0.0036270000000000004,-21.18,23.370001000000002,-24.559998999999998,2c
2019-07-15_143117:520,-0.309113,-0.0030210000000000002,-0.396057,-0.003542,-0.000958,0.0032909999999999997,-21.18,23.370001000000002,-24.559998999999998,2c
2019-07-15_143117:540,-0.308594,-0.002014,-0.39502,-0.003389,-0.0005,0.003474,-21.18,23.370001000000002,-24.559998999999998,2c
2019-07-15_143117:560,-0.307068,-0.0025329999999999997,-0.393494,-0.003145,-0.000225,0.003963,-20.75,23.68,-24.18,2c
2019-07-15_143117:580,-0.305542,-0.001007,-0.393494,-0.003389,-0.00037799999999999997,0.003901,-20.75,23.68,-24.18,2c
2019-07-15_143117:600,-0.306061,-0.0030210000000000002,-0.391968,-0.0033280000000000002,-0.00034700000000000003,0.0035659999999999997,-21.18,23.059998999999998,-24.559998999999998,2c
2019-07-15_143117:620,-0.307068,-0.0030210000000000002,-0.392487,-0.003786,-0.0006219999999999999,0.0032909999999999997,-21.18,23.059998999999998,-24.559998999999998,2c
2019-07-15_143117:640,-0.308594,-0.0025329999999999997,-0.391968,-0.0038469999999999997,-0.0008349999999999999,0.0033520000000000004,-21.18,23.059998999999998,-24.559998999999998,2c
2019-07-15_143117:660,-0.308075,-0.004547,-0.392487,-0.003786,-0.0011099999999999999,0.00323,-19.68,23.68,-24.18,2c
2019-07-15_143117:680,-0.306061,-0.005065999999999999,-0.393005,-0.003389,-0.0011099999999999999,0.0024059999999999997,-19.68,23.68,-24.18,2c
2019-07-15_143117:700,-0.307068,-0.004547,-0.394531,-0.003084,-0.001385,0.002131,-19.68,23.68,-24.18,2c
2019-07-15_143117:720,-0.30654899999999996,-0.004059,-0.393494,-0.002779,-0.001446,0.0024059999999999997,-21.18,23.059998999999998,-25.370001000000002,2c
2019-07-15_143117:740,-0.30654899999999996,-0.0025329999999999997,-0.394531,-0.002748,-0.00172,0.0024059999999999997,-21.18,23.059998999999998,-25.370001000000002,2c
2019-07-15_143117:760,-0.30654899999999996,-0.002014,-0.395538,-0.0025039999999999997,-0.001202,0.002376,-21.18,22.68,-26.18,2c
2019-07-15_143117:780,-0.306061,0.0,-0.394012,-0.0026260000000000003,-0.001385,0.0024059999999999997,-21.18,22.68,-26.18,2c
2019-07-15_143117:800,-0.30654899999999996,0.0,-0.395538,-0.0029620000000000002,-0.001263,0.002376,-21.18,22.68,-26.18,2c
2019-07-15_143117:820,-0.307068,-0.000488,-0.396057,-0.0032670000000000004,-0.001446,0.0025280000000000003,-20.75,24.059998999999998,-25.0,2c
2019-07-15_143117:840,-0.307068,-0.0025329999999999997,-0.39502,-0.0036030000000000003,-0.001446,0.002742,-20.75,24.059998999999998,-25.0,2c
2019-07-15_143117:860,-0.305542,-0.002014,-0.395538,-0.003542,-0.001141,0.002955,-21.5,23.370001000000002,-24.18,2c
2019-07-15_143117:880,-0.306061,-0.0035399999999999997,-0.394012,-0.00345,-0.001324,0.0027719999999999997,-21.5,23.370001000000002,-24.18,2c
2019-07-15_143117:900,-0.305542,-0.0025329999999999997,-0.396545,-0.0032670000000000004,-0.001385,0.002711,-21.5,23.370001000000002,-24.18,2c
2019-07-15_143117:920,-0.306061,-0.0030210000000000002,-0.39502,-0.002779,-0.001324,0.002833,-21.5,23.059998999999998,-24.18,2c
2019-07-15_143117:940,-0.309113,-0.002014,-0.396057,-0.0026260000000000003,-0.001263,0.0028940000000000003,-21.5,23.059998999999998,-24.18,2c
2019-07-15_143117:960,-0.308075,-0.000488,-0.39502,-0.002748,-0.001019,0.0031079999999999997,-20.370001000000002,23.370001000000002,-25.0,2c
2019-07-15_143117:980,-0.308594,-0.001007,-0.39502,-0.0029620000000000002,-0.001263,0.003016,-20.370001000000002,23.370001000000002,-25.0,2c
2019-07-15_143118:000,-0.306061,0.0,-0.39502,-0.003206,-0.0007440000000000001,0.003078,-20.370001000000002,23.370001000000002,-25.0,2c
2019-07-15_143118:020,-0.304535,-0.001007,-0.395538,-0.00345,-0.000958,0.003078,-20.75,22.68,-25.370001000000002,2c
2019-07-15_143118:040,-0.308075,-0.0030210000000000002,-0.392487,-0.0036030000000000003,-0.0011099999999999999,0.002833,-20.75,22.68,-25.370001000000002,2c
2019-07-15_143118:060,-0.307587,-0.002014,-0.394012,-0.003206,-0.001141,0.003169,-20.370001000000002,23.370001000000002,-24.559998999999998,2c
2019-07-15_143118:080,-0.304016,-0.0035399999999999997,-0.392487,-0.003206,-0.00108,0.0027719999999999997,-20.370001000000002,23.370001000000002,-24.559998999999998,2c
2019-07-15_143118:100,-0.304535,-0.0035399999999999997,-0.39502,-0.003389,-0.0014759999999999999,0.0017350000000000002,-20.370001000000002,23.370001000000002,-24.559998999999998,2c
2019-07-15_143118:120,-0.304016,-0.001495,-0.396057,-0.003023,-0.001537,0.002009,-21.5,24.059998999999998,-24.559998999999998,2c
2019-07-15_143118:140,-0.306061,-0.002014,-0.395538,-0.0029010000000000004,-0.001873,0.002742,-21.5,24.059998999999998,-24.559998999999998,2c
2019-07-15_143118:160,-0.308075,-0.001007,-0.397583,-0.0025039999999999997,-0.001843,0.00265,-20.0,23.370001000000002,-25.370001000000002,2c
2019-07-15_143118:180,-0.307068,-0.001007,-0.396057,-0.002382,-0.001324,0.002833,-20.0,23.370001000000002,-25.370001000000002,2c
2019-07-15_143118:200,-0.308075,0.0,-0.397064,-0.002382,-0.000897,0.0032909999999999997,-20.0,23.370001000000002,-25.370001000000002,2c
2019-07-15_143118:220,-0.305542,0.0,-0.395538,-0.003084,-0.0007440000000000001,0.003474,-21.18,23.370001000000002,-25.370001000000002,2c
2019-07-15_143118:240,-0.303528,-0.000488,-0.39502,-0.003786,-0.0007440000000000001,0.003169,-21.18,23.370001000000002,-25.370001000000002,2c
2019-07-15_143118:260,-0.305054,-0.0030210000000000002,-0.39502,-0.0038469999999999997,-0.000897,0.002833,-20.0,23.68,-24.559998999999998,2c
2019-07-15_143118:280,-0.309601,-0.0055850000000000006,-0.393494,-0.0038770000000000002,-0.000958,0.003078,-20.0,23.68,-24.559998999999998,2c
2019-07-15_143118:300,-0.307068,-0.0055850000000000006,-0.394012,-0.003664,-0.00108,0.0031079999999999997,-20.0,23.68,-24.559998999999998,2c
2019-07-15_143118:320,-0.305054,-0.006592,-0.394012,-0.003145,-0.000958,0.002711,-20.75,22.68,-24.18,2c
2019-07-15_143118:340,-0.305054,-0.004059,-0.39502,-0.0029010000000000004,-0.001019,0.002315,-20.75,22.68,-24.18,2c
2019-07-15_143118:360,-0.304016,-0.002014,-0.395538,-0.0025039999999999997,-0.001324,0.0021920000000000004,-20.370001000000002,23.68,-24.559998999999998,2c
2019-07-15_143118:380,-0.305542,-0.001007,-0.393005,-0.002565,-0.001446,0.0024059999999999997,-20.370001000000002,23.68,-24.559998999999998,2c
2019-07-15_143118:400,-0.307068,0.0,-0.396057,-0.002687,-0.001202,0.002376,-20.370001000000002,23.68,-24.559998999999998,2c
2019-07-15_143118:420,-0.306061,0.0,-0.39502,-0.0029010000000000004,-0.001263,0.0021920000000000004,-21.18,22.68,-24.18,2c
2019-07-15_143118:440,-0.304535,-0.000488,-0.394531,-0.0033280000000000002,-0.001202,0.002315,-21.18,22.68,-24.18,2c
2019-07-15_143118:460,-0.304016,-0.001495,-0.39502,-0.003389,-0.001263,0.0024059999999999997,-21.18,23.370001000000002,-24.559998999999998,2c
2019-07-15_143118:480,-0.303528,-0.001495,-0.394531,-0.003206,-0.001598,0.002589,-21.18,23.370001000000002,-24.559998999999998,2c
2019-07-15_143118:500,-0.304535,-0.002014,-0.395538,-0.0032670000000000004,-0.001843,0.0027719999999999997,-21.18,23.370001000000002,-24.559998999999998,2c
2019-07-15_143118:520,-0.308075,-0.001007,-0.396545,-0.003145,-0.001782,0.00265,-20.370001000000002,22.68,-24.559998999999998,2c
2019-07-15_143118:540,-0.308075,-0.000488,-0.396057,-0.003084,-0.0016589999999999999,0.0028940000000000003,-20.370001000000002,22.68,-24.559998999999998,2c
2019-07-15_143118:560,-0.30654899999999996,-0.000488,-0.397064,-0.003084,-0.001385,0.0027719999999999997,-20.75,23.370001000000002,-25.0,2c
2019-07-15_143118:580,-0.304535,-0.000488,-0.395538,-0.003023,-0.000897,0.003016,-20.75,23.370001000000002,-25.0,2c
2019-07-15_143118:600,-0.303528,-0.000488,-0.396057,-0.0032670000000000004,-0.0011099999999999999,0.00323,-20.75,23.370001000000002,-25.0,2c
2019-07-15_143118:620,-0.304016,-0.001495,-0.395538,-0.003389,-0.001263,0.003505,-20.370001000000002,23.059998999999998,-25.0,2c
2019-07-15_143118:640,-0.305054,-0.002014,-0.39502,-0.003725,-0.001537,0.0033520000000000004,-20.370001000000002,23.059998999999998,-25.0,2c
2019-07-15_143118:660,-0.304535,-0.002014,-0.396057,-0.003725,-0.001446,0.0032909999999999997,-20.75,23.370001000000002,-26.18,2c
2019-07-15_143118:680,-0.305542,-0.0030210000000000002,-0.395538,-0.003786,-0.001263,0.003169,-20.75,23.370001000000002,-26.18,2c
2019-07-15_143118:700,-0.307068,-0.002014,-0.395538,-0.0036030000000000003,-0.00108,0.003016,-20.75,23.370001000000002,-26.18,2c
2019-07-15_143118:720,-0.306061,-0.0025329999999999997,-0.395538,-0.00345,-0.000958,0.00323,-20.370001000000002,23.059998999999998,-25.370001000000002,2c
2019-07-15_143118:740,-0.301483,-0.002014,-0.395538,-0.0034799999999999996,-0.000897,0.0027719999999999997,-20.370001000000002,23.059998999999998,-25.370001000000002,2c
2019-07-15_143118:760,-0.29995700000000003,-0.001007,-0.396545,-0.003145,-0.000897,0.001979,-20.75,23.370001000000002,-25.370001000000002,2c
2019-07-15_143118:780,-0.30249000000000004,-0.000488,-0.39502,-0.003389,-0.001934,0.002315,-20.75,23.370001000000002,-25.370001000000002,2c
2019-07-15_143118:800,-0.303528,-0.001007,-0.398071,-0.003023,-0.001843,0.0031079999999999997,-20.75,23.370001000000002,-25.370001000000002,2c
2019-07-15_143118:820,-0.309113,-0.001007,-0.399109,-0.003206,-0.001873,0.002742,-20.370001000000002,23.68,-24.559998999999998,2c
2019-07-15_143118:840,-0.308075,0.0,-0.397583,-0.003114,-0.001385,0.002955,-20.370001000000002,23.68,-24.559998999999998,2c
2019-07-15_143118:860,-0.306061,-0.001495,-0.396057,-0.003023,-0.00034700000000000003,0.0033520000000000004,-21.5,23.059998999999998,-27.0,2c
2019-07-15_143118:880,-0.30300900000000003,0.0,-0.394012,-0.003145,0.00011100000000000001,0.0032909999999999997,-21.5,23.059998999999998,-27.0,2c
2019-07-15_143118:900,-0.29995700000000003,-0.002014,-0.395538,-0.0033280000000000002,-0.00034700000000000003,0.0033520000000000004,-21.5,23.059998999999998,-27.0,2c
2019-07-15_143118:920,-0.304535,-0.0025329999999999997,-0.394531,-0.0034799999999999996,-0.0006219999999999999,0.0032909999999999997,-20.370001000000002,23.059998999999998,-24.559998999999998,2c
2019-07-15_143118:940,-0.307068,-0.0030210000000000002,-0.394531,-0.003389,-0.000897,0.003505,-20.370001000000002,23.059998999999998,-24.559998999999998,2c
2019-07-15_143118:960,-0.308594,-0.004547,-0.394531,-0.0033280000000000002,-0.000897,0.00323,-20.75,23.370001000000002,-25.0,2c
2019-07-15_143118:980,-0.30654899999999996,-0.0035399999999999997,-0.39502,-0.003114,-0.0007440000000000001,0.00265,-20.75,23.370001000000002,-25.0,2c
2019-07-15_143119:000,-0.304016,-0.004059,-0.397064,-0.002779,-0.000683,0.002254,-20.75,23.370001000000002,-25.0,2c
2019-07-15_143119:020,-0.30300900000000003,-0.0025329999999999997,-0.394531,-0.002748,-0.0008349999999999999,0.002467,-21.5,23.68,-25.0,2c
2019-07-15_143119:040,-0.303528,-0.0025329999999999997,-0.394531,-0.002748,-0.000897,0.00207,-21.5,23.68,-25.0,2c
2019-07-15_143119:060,-0.303528,0.0,-0.393494,-0.002687,-0.0007740000000000001,0.001796,-21.18,23.370001000000002,-24.559998999999998,2c
2019-07-15_143119:080,-0.30300900000000003,0.0,-0.393005,-0.003084,-0.0011099999999999999,0.001582,-21.18,23.370001000000002,-24.559998999999998,2c
2019-07-15_143119:100,-0.305054,0.000488,-0.39502,-0.003206,-0.001263,0.001796,-21.18,23.370001000000002,-24.559998999999998,2c
2019-07-15_143119:120,-0.305542,0.000488,-0.395538,-0.0032670000000000004,-0.0014759999999999999,0.002131,-20.75,23.68,-24.18,2c
2019-07-15_143119:140,-0.307068,0.0,-0.39502,-0.00345,-0.0014759999999999999,0.002315,-20.75,23.68,-24.18,2c
2019-07-15_143119:160,-0.306061,-0.000488,-0.396545,-0.00345,-0.001385,0.0024059999999999997,-20.75,23.059998999999998,-25.0,2c
2019-07-15_143119:180,-0.303528,0.0,-0.39502,-0.003084,-0.0014759999999999999,0.0021920000000000004,-20.75,23.059998999999998,-25.0,2c
2019-07-15_143119:200,-0.304535,0.000488,-0.396545,-0.003084,-0.001385,0.0021920000000000004,-20.75,23.059998999999998,-25.0,2c
2019-07-15_143119:220,-0.30654899999999996,-0.000488,-0.397064,-0.003084,-0.001263,0.002315,-21.18,23.68,-25.75,2c
2019-07-15_143119:240,-0.305054,0.0,-0.395538,-0.003145,-0.001019,0.002254,-21.18,23.68,-25.75,2c
2019-07-15_143119:260,-0.304535,0.001007,-0.397583,-0.003114,-0.000958,0.0028940000000000003,-20.370001000000002,23.68,-24.559998999999998,2c
2019-07-15_143119:280,-0.303528,0.001007,-0.395538,-0.0034799999999999996,-0.0011099999999999999,0.003078,-20.370001000000002,23.68,-24.559998999999998,2c
2019-07-15_143119:300,-0.304016,-0.000488,-0.397583,-0.0036030000000000003,-0.000958,0.002711,-20.370001000000002,23.68,-24.559998999999998,2c
2019-07-15_143119:320,-0.303528,0.0,-0.397064,-0.003664,-0.001263,0.002742,-20.75,23.370001000000002,-25.0,2c
2019-07-15_143119:340,-0.305542,-0.001007,-0.396545,-0.0033280000000000002,-0.000958,0.002711,-20.75,23.370001000000002,-25.0,2c
2019-07-15_143119:360,-0.308075,-0.0035399999999999997,-0.394531,-0.0033280000000000002,-0.00108,0.0025280000000000003,-21.18,23.059998999999998,-25.370001000000002,2c
2019-07-15_143119:380,-0.305054,0.0,-0.393005,-0.0029010000000000004,-0.000958,0.0028940000000000003,-21.18,23.059998999999998,-25.370001000000002,2c
2019-07-15_143119:400,-0.30249000000000004,0.0,-0.394012,-0.003084,-0.001263,0.002315,-21.18,23.059998999999998,-25.370001000000002,2c
2019-07-15_143119:420,-0.300964,0.000488,-0.397064,-0.003114,-0.001537,0.001277,-21.18,23.68,-25.370001000000002,2c
2019-07-15_143119:440,-0.305054,0.002014,-0.397583,-0.003114,-0.001995,0.002131,-21.18,23.68,-25.370001000000002,2c
2019-07-15_143119:460,-0.306061,0.000488,-0.399109,-0.0032670000000000004,-0.0016589999999999999,0.0027719999999999997,-20.75,23.370001000000002,-25.370001000000002,2c
2019-07-15_143119:480,-0.309601,0.002014,-0.398071,-0.0033280000000000002,-0.001263,0.0025280000000000003,-20.75,23.370001000000002,-25.370001000000002,2c
2019-07-15_143119:500,-0.307587,0.000488,-0.396545,-0.002779,-0.0005,0.002955,-20.75,23.370001000000002,-25.370001000000002,2c
2019-07-15_143119:520,-0.30300900000000003,0.002014,-0.396545,-0.002565,1.9e-05,0.0033520000000000004,-20.75,23.370001000000002,-25.370001000000002,2c
2019-07-15_143119:540,-0.30300900000000003,0.0025329999999999997,-0.394531,-0.0029620000000000002,-0.00037799999999999997,0.0034130000000000002,-20.75,23.370001000000002,-25.370001000000002,2c
2019-07-15_143119:560,-0.303528,0.002014,-0.39502,-0.0036030000000000003,-0.0005610000000000001,0.0036880000000000003,-21.18,23.68,-25.370001000000002,2c
2019-07-15_143119:580,-0.30654899999999996,0.0,-0.394012,-0.0038469999999999997,-0.0005,0.0035659999999999997,-21.18,23.68,-25.370001000000002,2c
2019-07-15_143119:600,-0.30654899999999996,-0.001007,-0.39502,-0.004121,-0.000683,0.00381,-21.18,23.68,-25.370001000000002,2c
2019-07-15_143119:620,-0.305542,-0.005065999999999999,-0.394012,-0.0039380000000000005,-0.0005610000000000001,0.0034130000000000002,-20.370001000000002,23.370001000000002,-24.559998999999998,2c
2019-07-15_143119:640,-0.304016,-0.006072999999999999,-0.39502,-0.00345,-0.0006219999999999999,0.002711,-20.370001000000002,23.370001000000002,-24.559998999999998,2c
2019-07-15_143119:660,-0.30249000000000004,-0.0035399999999999997,-0.395538,-0.0029010000000000004,-0.00108,0.002315,-20.75,23.059998999999998,-26.18,2c
2019-07-15_143119:680,-0.30249000000000004,-0.0025329999999999997,-0.39502,-0.00229,-0.0011099999999999999,0.0025280000000000003,-20.75,23.059998999999998,-26.18,2c
2019-07-15_143119:700,-0.304535,-0.001495,-0.396057,-0.0019850000000000002,-0.001263,0.002589,-20.75,23.059998999999998,-26.18,2c
2019-07-15_143119:720,-0.303528,0.001495,-0.39502,-0.002046,-0.000958,0.0021920000000000004,-20.75,24.059998999999998,-25.370001000000002,2c
2019-07-15_143119:740,-0.304535,0.0025329999999999997,-0.397064,-0.002382,-0.0011099999999999999,0.00207,-20.75,24.059998999999998,-25.370001000000002,2c
2019-07-15_143119:760,-0.30300900000000003,0.001007,-0.397064,-0.002779,-0.00108,0.0021920000000000004,-20.75,23.68,-24.18,2c
2019-07-15_143119:780,-0.304535,0.0,-0.397064,-0.003023,-0.0011099999999999999,0.002315,-20.75,23.68,-24.18,2c
2019-07-15_143119:800,-0.304016,0.0,-0.396545,-0.003023,-0.0011099999999999999,0.002467,-20.75,23.68,-24.18,2c
2019-07-15_143119:820,-0.305054,0.000488,-0.397583,-0.002779,-0.000958,0.002742,-20.75,23.370001000000002,-24.559998999999998,2c
2019-07-15_143119:840,-0.305054,0.0,-0.396545,-0.0029010000000000004,-0.0008349999999999999,0.002955,-20.75,23.370001000000002,-24.559998999999998,2c
2019-07-15_143119:860,-0.303528,0.0,-0.397064,-0.002748,-0.000897,0.0031079999999999997,-20.75,23.370001000000002,-24.559998999999998,2c
2019-07-15_143119:880,-0.304535,0.000488,-0.394531,-0.002748,-0.0005610000000000001,0.0031079999999999997,-20.75,23.370001000000002,-24.559998999999998,2c
2019-07-15_143119:900,-0.304016,0.0,-0.396545,-0.002687,-0.0005610000000000001,0.0031079999999999997,-20.75,23.370001000000002,-24.559998999999998,2c
2019-07-15_143119:920,-0.305542,0.0,-0.396057,-0.0026260000000000003,-0.0007440000000000001,0.003169,-20.370001000000002,23.68,-24.559998999999998,2c
2019-07-15_143119:940,-0.305054,-0.000488,-0.396057,-0.003023,-0.0005610000000000001,0.0033520000000000004,-20.370001000000002,23.68,-24.559998999999998,2c
2019-07-15_143119:960,-0.305542,-0.000488,-0.396545,-0.003084,-0.000958,0.0032909999999999997,-21.18,23.059998999999998,-25.370001000000002,2c
2019-07-15_143119:980,-0.304016,-0.001495,-0.393494,-0.003145,-0.000683,0.002833,-21.18,23.059998999999998,-25.370001000000002,2c
2019-07-15_143120:000,-0.30300900000000003,-0.001495,-0.397583,-0.003084,-0.000683,0.002833,-21.18,23.059998999999998,-25.370001000000002,2c
2019-07-15_143120:020,-0.307068,-0.002014,-0.396057,-0.003023,-0.0007440000000000001,0.0025280000000000003,-20.75,23.370001000000002,-25.0,2c
2019-07-15_143120:040,-0.309113,0.000488,-0.395538,-0.003023,-0.000897,0.002315,-20.75,23.370001000000002,-25.0,2c
2019-07-15_143120:060,-0.306061,0.001495,-0.393005,-0.0028399999999999996,-0.0005610000000000001,0.002955,-20.75,22.68,-25.370001000000002,2c
2019-07-15_143120:080,-0.30300900000000003,0.001007,-0.392487,-0.0032670000000000004,-0.0008349999999999999,0.0028940000000000003,-20.75,22.68,-25.370001000000002,2c
2019-07-15_143120:100,-0.29943800000000004,0.000488,-0.394531,-0.003725,-0.00108,0.002467,-20.75,22.68,-25.370001000000002,2c
2019-07-15_143120:120,-0.29943800000000004,-0.002014,-0.39502,-0.0038469999999999997,-0.001843,0.00265,-20.75,22.68,-25.370001000000002,2c
2019-07-15_143120:140,-0.303528,-0.0030210000000000002,-0.396057,-0.003542,-0.002117,0.002742,-20.75,22.68,-25.370001000000002,2c
2019-07-15_143120:160,-0.307068,-0.0035399999999999997,-0.398071,-0.003084,-0.00227,0.002742,-21.18,23.370001000000002,-23.75,2c
2019-07-15_143120:180,-0.307587,-0.002014,-0.397064,-0.0023510000000000002,-0.001537,0.003016,-21.18,23.370001000000002,-23.75,2c
2019-07-15_143120:200,-0.307587,-0.001007,-0.39859,-0.002046,-0.001141,0.0034130000000000002,-21.18,23.370001000000002,-23.75,2c
2019-07-15_143120:220,-0.305054,0.001007,-0.396057,-0.0023510000000000002,-0.0008349999999999999,0.0034130000000000002,-21.18,23.68,-24.559998999999998,2c
2019-07-15_143120:240,-0.30300900000000003,0.001007,-0.395538,-0.002779,-0.00034700000000000003,0.0034130000000000002,-21.18,23.68,-24.559998999999998,2c
2019-07-15_143120:260,-0.304016,0.0,-0.396057,-0.00345,-0.0007740000000000001,0.0032909999999999997,-19.68,22.68,-25.75,2c
2019-07-15_143120:280,-0.305542,-0.0025329999999999997,-0.394012,-0.003786,-0.000897,0.0036880000000000003,-19.68,22.68,-25.75,2c
2019-07-15_143120:300,-0.305054,-0.0030210000000000002,-0.394012,-0.00406,-0.0011099999999999999,0.0036270000000000004,-19.68,22.68,-25.75,2c
2019-07-15_143120:320,-0.303528,-0.005065999999999999,-0.394531,-0.003664,-0.000897,0.002711,-21.18,23.370001000000002,-25.0,2c
2019-07-15_143120:340,-0.304535,-0.0035399999999999997,-0.39502,-0.0032670000000000004,-0.001202,0.002315,-21.18,23.370001000000002,-25.0,2c
2019-07-15_143120:360,-0.304016,-0.002014,-0.396057,-0.0029620000000000002,-0.001019,0.002254,-20.370001000000002,23.68,-24.559998999999998,2c
2019-07-15_143120:380,-0.30249000000000004,-0.001007,-0.394012,-0.002687,-0.001324,0.0021920000000000004,-20.370001000000002,23.68,-24.559998999999998,2c
2019-07-15_143120:400,-0.30249000000000004,0.0,-0.39502,-0.002565,-0.001263,0.0021920000000000004,-20.370001000000002,23.68,-24.559998999999998,2c
2019-07-15_143120:420,-0.30300900000000003,0.0,-0.39502,-0.002748,-0.001537,0.00207,-20.75,23.68,-24.559998999999998,2c
2019-07-15_143120:440,-0.303528,0.0,-0.395538,-0.003084,-0.001598,0.0021920000000000004,-20.75,23.68,-24.559998999999998,2c
2019-07-15_143120:460,-0.305054,0.001007,-0.397583,-0.003114,-0.001324,0.002254,-20.75,23.370001000000002,-25.0,2c
2019-07-15_143120:480,-0.305542,0.0,-0.396057,-0.003206,-0.001263,0.002589,-20.75,23.370001000000002,-25.0,2c
2019-07-15_143120:500,-0.305542,0.000488,-0.397583,-0.003145,-0.001446,0.002711,-20.75,23.370001000000002,-25.0,2c
2019-07-15_143120:520,-0.306061,0.0,-0.397583,-0.003145,-0.0011099999999999999,0.002742,-20.370001000000002,24.059998999999998,-25.370001000000002,2c
2019-07-15_143120:540,-0.304535,-0.000488,-0.396057,-0.0032670000000000004,-0.000958,0.003169,-20.370001000000002,24.059998999999998,-25.370001000000002,2c
2019-07-15_143120:560,-0.302002,0.0,-0.396057,-0.003145,-0.0011099999999999999,0.003474,-20.75,24.059998999999998,-23.75,2c
2019-07-15_143120:580,-0.303528,-0.000488,-0.396057,-0.0034799999999999996,-0.000958,0.003505,-20.75,24.059998999999998,-23.75,2c
2019-07-15_143120:600,-0.303528,0.0,-0.396545,-0.003389,-0.001141,0.003474,-20.75,24.059998999999998,-23.75,2c
2019-07-15_143120:620,-0.303528,-0.001495,-0.396545,-0.003389,-0.001019,0.0036880000000000003,-20.370001000000002,23.68,-25.75,2c
2019-07-15_143120:640,-0.303528,-0.002014,-0.396545,-0.00345,-0.000958,0.0036270000000000004,-20.370001000000002,23.68,-25.75,2c
2019-07-15_143120:660,-0.302002,-0.001495,-0.397064,-0.00345,-0.000958,0.0033520000000000004,-20.0,22.68,-25.75,2c
2019-07-15_143120:680,-0.303528,-0.002014,-0.39502,-0.003389,-0.001537,0.003169,-20.0,22.68,-25.75,2c
2019-07-15_143120:700,-0.30300900000000003,-0.0035399999999999997,-0.396545,-0.003084,-0.001263,0.00323,-20.0,22.68,-25.75,2c
2019-07-15_143120:720,-0.308594,-0.002014,-0.396545,-0.003114,-0.001782,0.003169,-21.18,23.059998999999998,-25.0,2c
2019-07-15_143120:740,-0.307068,-0.002014,-0.396545,-0.003023,-0.0011099999999999999,0.003169,-21.18,23.059998999999998,-25.0,2c
2019-07-15_143120:760,-0.305054,-0.002014,-0.397064,-0.0032670000000000004,-0.000683,0.0028940000000000003,-20.75,23.68,-24.559998999999998,2c
2019-07-15_143120:780,-0.29995700000000003,-0.001495,-0.39502,-0.00345,-0.0011099999999999999,0.001918,-20.75,23.68,-24.559998999999998,2c
2019-07-15_143120:800,-0.29895,-0.000488,-0.396057,-0.00345,-0.001598,0.002131,-20.75,23.68,-24.559998999999998,2c
2019-07-15_143120:820,-0.300964,-0.000488,-0.397583,-0.003206,-0.001843,0.0028940000000000003,-20.75,23.370001000000002,-25.0,2c
2019-07-15_143120:840,-0.30249000000000004,-0.001495,-0.397064,-0.0032670000000000004,-0.00227,0.0027719999999999997,-20.75,23.370001000000002,-25.0,2c
2019-07-15_143120:860,-0.303528,-0.001007,-0.398071,-0.0029620000000000002,-0.001934,0.0028940000000000003,-21.18,23.370001000000002,-25.370001000000002,2c
2019-07-15_143120:880,-0.305054,0.001007,-0.39859,-0.002779,-0.001446,0.0032909999999999997,-21.18,23.370001000000002,-25.370001000000002,2c
2019-07-15_143120:900,-0.305054,0.000488,-0.39859,-0.0032670000000000004,-0.0008349999999999999,0.0035659999999999997,-21.18,23.370001000000002,-25.370001000000002,2c
2019-07-15_143120:920,-0.304016,0.001495,-0.397583,-0.0036030000000000003,-0.0006219999999999999,0.003749,-21.18,23.68,-25.75,2c
2019-07-15_143120:940,-0.301483,-0.001007,-0.396057,-0.004121,-0.0006219999999999999,0.00381,-21.18,23.68,-25.75,2c
2019-07-15_143120:960,-0.304535,-0.0025329999999999997,-0.397064,-0.004457,-0.0006219999999999999,0.003474,-20.370001000000002,23.370001000000002,-25.75,2c
2019-07-15_143120:980,-0.305054,-0.004547,-0.397583,-0.004182,-0.001019,0.0033520000000000004,-20.370001000000002,23.370001000000002,-25.75,2c
2019-07-15_143121:000,-0.303528,-0.005065999999999999,-0.396545,-0.00406,-0.0008349999999999999,0.0031079999999999997,-20.370001000000002,23.370001000000002,-25.75,2c
2019-07-15_143121:020,-0.302002,-0.006592,-0.395538,-0.003145,-0.00108,0.0027719999999999997,-21.18,23.370001000000002,-24.559998999999998,2c
2019-07-15_143121:040,-0.302002,-0.0025329999999999997,-0.396545,-0.002779,-0.001202,0.002376,-21.18,23.370001000000002,-24.559998999999998,2c
2019-07-15_143121:060,-0.301483,-0.001007,-0.396545,-0.002382,-0.00108,0.002254,-20.75,23.68,-25.370001000000002,2c
2019-07-15_143121:080,-0.30249000000000004,0.0025329999999999997,-0.396545,-0.0025039999999999997,-0.001263,0.002315,-20.75,23.68,-25.370001000000002,2c
2019-07-15_143121:100,-0.303528,0.0030210000000000002,-0.396545,-0.0029010000000000004,-0.0011099999999999999,0.0025280000000000003,-20.75,23.68,-25.370001000000002,2c
2019-07-15_143121:120,-0.303528,0.0030210000000000002,-0.397064,-0.003542,-0.001324,0.0025280000000000003,-19.0,23.370001000000002,-25.0,2c
2019-07-15_143121:140,-0.303528,0.001007,-0.396057,-0.003999,-0.001324,0.00265,-19.0,23.370001000000002,-25.0,2c
2019-07-15_143121:160,-0.30249000000000004,0.0,-0.398071,-0.003999,-0.001446,0.002467,-20.75,23.059998999999998,-25.75,2c
2019-07-15_143121:180,-0.304016,-0.002014,-0.398071,-0.0038469999999999997,-0.001385,0.002742,-20.75,23.059998999999998,-25.75,2c
2019-07-15_143121:200,-0.306061,-0.001007,-0.40063499999999996,-0.0036030000000000003,-0.000897,0.0027719999999999997,-20.75,23.059998999999998,-25.75,2c
2019-07-15_143121:220,-0.304016,-0.001495,-0.40063499999999996,-0.003023,-0.0007740000000000001,0.002833,-21.5,23.059998999999998,-25.75,2c
2019-07-15_143121:240,-0.302002,0.0,-0.397583,-0.002779,-0.0005,0.003078,-21.5,23.059998999999998,-25.75,2c
2019-07-15_143121:260,-0.29943800000000004,0.001007,-0.397064,-0.002748,-0.0006219999999999999,0.00323,-21.18,23.370001000000002,-24.559998999999998,2c
2019-07-15_143121:280,-0.29742399999999997,0.001007,-0.39502,-0.0032670000000000004,-0.0011099999999999999,0.0034130000000000002,-21.18,23.370001000000002,-24.559998999999998,2c
2019-07-15_143121:300,-0.29995700000000003,0.001007,-0.39502,-0.0033280000000000002,-0.001385,0.0033520000000000004,-21.18,23.370001000000002,-24.559998999999998,2c
2019-07-15_143121:320,-0.304016,-0.002014,-0.397064,-0.0038469999999999997,-0.001843,0.0033520000000000004,-20.370001000000002,23.370001000000002,-24.18,2c
2019-07-15_143121:340,-0.306061,-0.0025329999999999997,-0.396057,-0.003725,-0.001782,0.0032909999999999997,-20.370001000000002,23.370001000000002,-24.18,2c
2019-07-15_143121:360,-0.305542,-0.002014,-0.39859,-0.003084,-0.001263,0.002955,-21.18,24.059998999999998,-25.0,2c
2019-07-15_143121:380,-0.30300900000000003,-0.0030210000000000002,-0.397064,-0.003084,-0.001263,0.002955,-21.18,24.059998999999998,-25.0,2c
2019-07-15_143121:400,-0.302002,-0.001007,-0.396545,-0.0029010000000000004,-0.001141,0.0027719999999999997,-21.18,24.059998999999998,-25.0,2c
2019-07-15_143121:420,-0.30300900000000003,-0.000488,-0.397583,-0.003084,-0.001263,0.0027719999999999997,-20.370001000000002,23.370001000000002,-25.0,2c
2019-07-15_143121:440,-0.302002,-0.001007,-0.39502,-0.0034799999999999996,-0.001324,0.002742,-20.370001000000002,23.370001000000002,-25.0,2c
2019-07-15_143121:460,-0.30249000000000004,-0.000488,-0.39859,-0.0036030000000000003,-0.001263,0.002955,-20.0,23.370001000000002,-25.370001000000002,2c
2019-07-15_143121:480,-0.301483,-0.001495,-0.398071,-0.003786,-0.001141,0.0025280000000000003,-20.0,23.370001000000002,-25.370001000000002,2c
2019-07-15_143121:500,-0.301483,-0.0030210000000000002,-0.399109,-0.0036030000000000003,-0.0014759999999999999,0.002254,-20.0,23.370001000000002,-25.370001000000002,2c
2019-07-15_143121:520,-0.302002,-0.001495,-0.399109,-0.0032670000000000004,-0.0016589999999999999,0.00265,-21.18,23.68,-25.370001000000002,2c
2019-07-15_143121:540,-0.305542,0.0,-0.397583,-0.003145,-0.001324,0.0027719999999999997,-21.18,23.68,-25.370001000000002,2c
2019-07-15_143121:560,-0.304535,-0.000488,-0.395538,-0.003023,-0.00108,0.002589,-20.370001000000002,23.370001000000002,-26.559998999999998,2c
2019-07-15_143121:580,-0.303528,0.001007,-0.398071,-0.003206,-0.000958,0.0031079999999999997,-20.370001000000002,23.370001000000002,-26.559998999999998,2c
2019-07-15_143121:600,-0.29943800000000004,0.001007,-0.397064,-0.0032670000000000004,-0.001263,0.0031079999999999997,-20.370001000000002,23.370001000000002,-26.559998999999998,2c
2019-07-15_143121:620,-0.297913,0.0,-0.397064,-0.003664,-0.001598,0.002315,-20.75,23.059998999999998,-24.559998999999998,2c
2019-07-15_143121:640,-0.300964,0.0,-0.399109,-0.0038770000000000002,-0.001843,0.0027719999999999997,-20.75,23.059998999999998,-24.559998999999998,2c
2019-07-15_143121:660,-0.303528,-0.000488,-0.40011599999999997,-0.003542,-0.001873,0.0034130000000000002,-21.18,24.5,-25.75,2c
2019-07-15_143121:680,-0.306061,-0.002014,-0.401642,-0.003389,-0.001598,0.003078,-21.18,24.5,-25.75,2c
2019-07-15_143121:700,-0.304535,-0.001007,-0.399109,-0.003023,-0.000683,0.0031079999999999997,-21.18,24.5,-25.75,2c
2019-07-15_143121:720,-0.302002,0.0,-0.39859,-0.002779,-0.00034700000000000003,0.0035659999999999997,-19.25,23.059998999999998,-25.0,2c
2019-07-15_143121:740,-0.29943800000000004,0.000488,-0.397064,-0.0029620000000000002,-0.000439,0.0036880000000000003,-19.25,23.059998999999998,-25.0,2c
2019-07-15_143121:760,-0.29943800000000004,0.000488,-0.397064,-0.0032670000000000004,-0.000683,0.0034130000000000002,-19.25,23.059998999999998,-25.0,2c
2019-07-15_143121:780,-0.29995700000000003,0.0,-0.396545,-0.003389,-0.000958,0.0034130000000000002,-20.75,23.370001000000002,-25.75,2c
2019-07-15_143121:800,-0.30300900000000003,-0.0025329999999999997,-0.396057,-0.0036030000000000003,-0.0011099999999999999,0.003078,-20.75,23.370001000000002,-25.75,2c
2019-07-15_143121:820,-0.30654899999999996,-0.0030210000000000002,-0.398071,-0.003542,-0.001324,0.0033520000000000004,-20.370001000000002,23.68,-26.18,2c
2019-07-15_143121:840,-0.305542,-0.004547,-0.396057,-0.003114,-0.000897,0.0031079999999999997,-20.370001000000002,23.68,-26.18,2c
2019-07-15_143121:860,-0.302002,-0.005065999999999999,-0.397583,-0.0029620000000000002,-0.000683,0.002131,-21.18,23.059998999999998,-25.75,2c
2019-07-15_143121:880,-0.300476,-0.001495,-0.39859,-0.002565,-0.000897,0.001918,-21.18,23.059998999999998,-25.75,2c
2019-07-15_143121:900,-0.29943800000000004,0.0,-0.398071,-0.00229,-0.000897,0.002589,-21.18,23.059998999999998,-25.75,2c
2019-07-15_143121:920,-0.29895,-0.000488,-0.39859,-0.002229,-0.001263,0.002467,-20.75,24.059998999999998,-25.370001000000002,2c
2019-07-15_143121:940,-0.302002,-0.001007,-0.398071,-0.002443,-0.001446,0.002376,-20.75,24.059998999999998,-25.370001000000002,2c
2019-07-15_143121:960,-0.302002,-0.000488,-0.39859,-0.0029620000000000002,-0.0011099999999999999,0.002131,-20.75,24.059998999999998,-25.370001000000002,2c
2019-07-15_143121:980,-0.302002,-0.001007,-0.40011599999999997,-0.002779,-0.0011099999999999999,0.00207,-20.75,23.68,-25.75,2c
2019-07-15_143122:000,-0.303528,0.0,-0.40063499999999996,-0.0029620000000000002,-0.001019,0.002009,-20.75,23.68,-25.75,2c
2019-07-15_143122:020,-0.301483,0.0,-0.40011599999999997,-0.002565,-0.0006219999999999999,0.002376,-20.75,23.059998999999998,-25.370001000000002,2c
2019-07-15_143122:040,-0.300476,0.0,-0.397583,-0.002443,-0.0007740000000000001,0.0025280000000000003,-20.75,23.059998999999998,-25.370001000000002,2c
2019-07-15_143122:060,-0.29943800000000004,0.0,-0.39859,-0.0025039999999999997,-0.0008349999999999999,0.0027719999999999997,-20.75,23.059998999999998,-25.370001000000002,2c
2019-07-15_143122:080,-0.29943800000000004,0.000488,-0.398071,-0.002748,-0.00108,0.0027719999999999997,-20.75,23.370001000000002,-26.18,2c
2019-07-15_143122:100,-0.30249000000000004,0.001007,-0.398071,-0.0028399999999999996,-0.0008349999999999999,0.003016,-20.75,23.370001000000002,-26.18,2c
2019-07-15_143122:120,-0.302002,0.0,-0.399109,-0.003145,-0.0007740000000000001,0.003016,-21.18,23.68,-25.0,2c
2019-07-15_143122:140,-0.302002,-0.001495,-0.397064,-0.003084,-0.000683,0.003078,-21.18,23.68,-25.0,2c
2019-07-15_143122:160,-0.302002,-0.000488,-0.397583,-0.003023,-0.0007740000000000001,0.003078,-21.18,23.68,-25.0,2c
2019-07-15_143122:180,-0.300476,-0.001007,-0.39859,-0.003023,-0.000958,0.00323,-20.370001000000002,23.370001000000002,-26.18,2c
2019-07-15_143122:200,-0.300476,-0.002014,-0.396057,-0.003023,-0.000958,0.00323,-20.370001000000002,23.370001000000002,-26.18,2c
2019-07-15_143122:220,-0.30300900000000003,-0.0025329999999999997,-0.398071,-0.003145,-0.0011099999999999999,0.0031079999999999997,-21.18,23.68,-24.18,2c
2019-07-15_143122:240,-0.30249000000000004,-0.002014,-0.395538,-0.0029010000000000004,-0.00108,0.003016,-21.18,23.68,-24.18,2c
2019-07-15_143122:260,-0.30249000000000004,-0.001495,-0.397064,-0.003114,-0.001324,0.0028940000000000003,-21.18,23.68,-24.18,2c
2019-07-15_143122:280,-0.300964,-0.002014,-0.39859,-0.003084,-0.001141,0.002711,-20.370001000000002,23.370001000000002,-26.18,2c
2019-07-15_143122:300,-0.300476,-0.002014,-0.398071,-0.003023,-0.001141,0.002467,-20.370001000000002,23.370001000000002,-26.18,2c
2019-07-15_143122:320,-0.29995700000000003,0.0,-0.397583,-0.002748,-0.001202,0.002711,-20.75,23.370001000000002,-25.75,2c
2019-07-15_143122:340,-0.30249000000000004,-0.001007,-0.397583,-0.002748,-0.001385,0.00265,-20.75,23.370001000000002,-25.75,2c
2019-07-15_143122:360,-0.306061,-0.001495,-0.397583,-0.002748,-0.001324,0.00265,-20.75,23.370001000000002,-25.75,2c
2019-07-15_143122:380,-0.301483,0.0,-0.398071,-0.002565,-0.001202,0.0031079999999999997,-20.370001000000002,23.370001000000002,-26.18,2c
2019-07-15_143122:400,-0.297913,-0.001007,-0.39859,-0.003114,-0.001019,0.00265,-20.370001000000002,23.370001000000002,-26.18,2c
2019-07-15_143122:420,-0.297913,-0.001007,-0.40063499999999996,-0.0032670000000000004,-0.001324,0.002131,-20.370001000000002,23.370001000000002,-25.370001000000002,2c
2019-07-15_143122:440,-0.29995700000000003,-0.000488,-0.399109,-0.0034799999999999996,-0.001537,0.002711,-20.370001000000002,23.370001000000002,-25.370001000000002,2c
2019-07-15_143122:460,-0.29995700000000003,-0.002014,-0.401642,-0.003389,-0.0016589999999999999,0.003169,-20.370001000000002,23.370001000000002,-25.370001000000002,2c
2019-07-15_143122:480,-0.305542,-0.0030210000000000002,-0.401642,-0.003023,-0.0016589999999999999,0.003016,-21.18,23.370001000000002,-24.18,2c
2019-07-15_143122:500,-0.304016,-0.0025329999999999997,-0.401123,-0.002779,-0.001019,0.0031079999999999997,-21.18,23.370001000000002,-24.18,2c
2019-07-15_143122:520,-0.301483,-0.000488,-0.40063499999999996,-0.0025039999999999997,-0.000683,0.0036880000000000003,-20.75,23.370001000000002,-25.0,2c
2019-07-15_143122:540,-0.29943800000000004,-0.001007,-0.397583,-0.002687,-0.000103,0.003505,-20.75,23.370001000000002,-25.0,2c
2019-07-15_143122:560,-0.29943800000000004,-0.001495,-0.398071,-0.002779,-0.000225,0.0033520000000000004,-20.75,23.370001000000002,-25.0,2c
2019-07-15_143122:580,-0.300476,-0.002014,-0.398071,-0.0033280000000000002,-0.0006219999999999999,0.0034130000000000002,-20.0,23.68,-25.0,2c
2019-07-15_143122:600,-0.303528,-0.004059,-0.398071,-0.0036030000000000003,-0.000683,0.003078,-20.0,23.68,-25.0,2c
2019-07-15_143122:620,-0.304016,-0.0035399999999999997,-0.398071,-0.0033280000000000002,-0.0005610000000000001,0.002955,-20.370001000000002,23.68,-24.18,2c
2019-07-15_143122:640,-0.300964,-0.004059,-0.395538,-0.0032670000000000004,-0.0007440000000000001,0.0028940000000000003,-20.370001000000002,23.68,-24.18,2c
2019-07-15_143122:660,-0.300476,-0.004059,-0.398071,-0.002779,-0.0008349999999999999,0.00265,-20.370001000000002,23.68,-24.18,2c
2019-07-15_143122:680,-0.30249000000000004,-0.002014,-0.397064,-0.0028399999999999996,-0.001385,0.002376,-20.370001000000002,23.059998999999998,-25.370001000000002,2c
2019-07-15_143122:700,-0.300476,-0.002014,-0.396545,-0.0028399999999999996,-0.00108,0.002376,-20.370001000000002,23.059998999999998,-25.370001000000002,2c
2019-07-15_143122:720,-0.300476,0.0,-0.39859,-0.0029620000000000002,-0.000897,0.002131,-21.18,23.68,-24.559998999999998,2c
2019-07-15_143122:740,-0.29995700000000003,-0.000488,-0.398071,-0.003114,-0.000897,0.0024059999999999997,-21.18,23.68,-24.559998999999998,2c
2019-07-15_143122:760,-0.300476,-0.000488,-0.399597,-0.003206,-0.00108,0.002467,-21.18,23.68,-24.559998999999998,2c
2019-07-15_143122:780,-0.300964,-0.002014,-0.39859,-0.0032670000000000004,-0.0011099999999999999,0.002467,-21.18,23.370001000000002,-25.370001000000002,2c
2019-07-15_143122:800,-0.302002,-0.002014,-0.399109,-0.003145,-0.00108,0.0027719999999999997,-21.18,23.370001000000002,-25.370001000000002,2c
2019-07-15_143122:820,-0.302002,-0.001495,-0.40011599999999997,-0.0029620000000000002,-0.001385,0.0028940000000000003,-20.75,23.370001000000002,-26.18,2c
2019-07-15_143122:840,-0.30249000000000004,-0.001495,-0.397583,-0.003114,-0.001141,0.002833,-20.75,23.370001000000002,-26.18,2c
2019-07-15_143122:860,-0.300964,0.0,-0.40011599999999997,-0.003114,-0.001202,0.003016,-20.75,23.370001000000002,-26.18,2c
2019-07-15_143122:880,-0.301483,-0.001007,-0.399109,-0.003206,-0.000958,0.003078,-20.75,24.059998999999998,-25.370001000000002,2c
2019-07-15_143122:900,-0.300964,-0.001495,-0.398071,-0.003084,-0.0008349999999999999,0.0031079999999999997,-20.75,24.059998999999998,-25.370001000000002,2c
2019-07-15_143122:920,-0.300964,-0.0025329999999999997,-0.398071,-0.00345,-0.000958,0.003169,-21.5,23.370001000000002,-25.370001000000002,2c
2019-07-15_143122:940,-0.30249000000000004,-0.002014,-0.398071,-0.003145,-0.0007740000000000001,0.0032909999999999997,-21.5,23.370001000000002,-25.370001000000002,2c
2019-07-15_143122:960,-0.300964,-0.0025329999999999997,-0.40011599999999997,-0.003206,-0.0007440000000000001,0.00323,-21.5,23.370001000000002,-25.370001000000002,2c
2019-07-15_143122:980,-0.300476,-0.0030210000000000002,-0.39859,-0.003114,-0.000683,0.003078,-20.75,23.68,-25.370001000000002,2c
2019-07-15_143123:000,-0.301483,-0.0025329999999999997,-0.398071,-0.003389,-0.000958,0.003016,-20.75,23.68,-25.370001000000002,2c
2019-07-15_143123:020,-0.302002,-0.0025329999999999997,-0.399109,-0.003206,-0.0011099999999999999,0.002833,-21.18,23.059998999999998,-25.0,2c
2019-07-15_143123:040,-0.303528,-0.0025329999999999997,-0.398071,-0.003114,-0.001019,0.002711,-21.18,23.059998999999998,-25.0,2c
2019-07-15_143123:060,-0.30249000000000004,-0.0025329999999999997,-0.39859,-0.003084,-0.0007740000000000001,0.00265,-21.18,23.059998999999998,-25.0,2c
2019-07-15_143123:080,-0.300964,-0.0025329999999999997,-0.397583,-0.003084,-0.000897,0.002742,-20.370001000000002,23.370001000000002,-25.75,2c
2019-07-15_143123:100,-0.29895,-0.002014,-0.396057,-0.003023,-0.000683,0.00265,-20.370001000000002,23.370001000000002,-25.75,2c
2019-07-15_143123:120,-0.29995700000000003,-0.001495,-0.397583,-0.0029620000000000002,-0.001141,0.0027719999999999997,-24.5,23.370001000000002,-26.18,2c
2019-07-15_143123:140,-0.300964,-0.002014,-0.396545,-0.003114,-0.001141,0.002833,-24.5,23.370001000000002,-26.18,2c
2019-07-15_143123:160,-0.300964,-0.0025329999999999997,-0.39859,-0.003206,-0.001263,0.0028940000000000003,-24.5,23.370001000000002,-26.18,2c
2019-07-15_143123:180,-0.303528,-0.0030210000000000002,-0.39859,-0.0033280000000000002,-0.001202,0.002833,-26.25,23.059998999999998,-25.370001000000002,2c
2019-07-15_143123:200,-0.304535,-0.0030210000000000002,-0.395538,-0.0033280000000000002,-0.001263,0.002955,-26.25,23.059998999999998,-25.370001000000002,2c
2019-07-15_143123:220,-0.302002,-0.002014,-0.397583,-0.0033280000000000002,-0.001202,0.0032909999999999997,-20.75,23.370001000000002,-25.0,2c
2019-07-15_143123:240,-0.298431,-0.002014,-0.396545,-0.003145,-0.001202,0.0025280000000000003,-20.75,23.370001000000002,-25.0,2c
2019-07-15_143123:260,-0.298431,-0.001007,-0.399109,-0.00345,-0.001446,0.001796,-20.75,23.370001000000002,-25.0,2c
2019-07-15_143123:280,-0.29943800000000004,-0.001495,-0.40063499999999996,-0.003542,-0.001873,0.002589,-20.0,23.370001000000002,-25.370001000000002,2c
2019-07-15_143123:300,-0.300476,-0.002014,-0.401123,-0.003084,-0.0016589999999999999,0.003016,-20.0,23.370001000000002,-25.370001000000002,2c
2019-07-15_143123:320,-0.304016,-0.000488,-0.402161,-0.003145,-0.001782,0.0027719999999999997,-20.370001000000002,24.059998999999998,-25.370001000000002,2c
2019-07-15_143123:340,-0.303528,-0.001007,-0.40063499999999996,-0.003084,-0.000897,0.0027719999999999997,-20.370001000000002,24.059998999999998,-25.370001000000002,2c
2019-07-15_143123:360,-0.301483,0.0,-0.40011599999999997,-0.003114,-0.000286,0.0031079999999999997,-20.370001000000002,24.059998999999998,-25.370001000000002,2c
2019-07-15_143123:380,-0.300476,-0.001007,-0.399597,-0.0032670000000000004,-0.000103,0.0031079999999999997,-20.370001000000002,23.68,-25.0,2c
2019-07-15_143123:400,-0.297913,-0.001495,-0.39859,-0.0038469999999999997,-4.2e-05,0.002955,-20.370001000000002,23.68,-25.0,2c
2019-07-15_143123:420,-0.29943800000000004,-0.0035399999999999997,-0.396545,-0.00406,-0.0006219999999999999,0.003016,-20.370001000000002,23.68,-25.75,2c
2019-07-15_143123:440,-0.303528,-0.005065999999999999,-0.397583,-0.004243,-0.0006219999999999999,0.0027719999999999997,-20.370001000000002,23.68,-25.75,2c
2019-07-15_143123:460,-0.301483,-0.004059,-0.396057,-0.003664,-0.0006219999999999999,0.002742,-20.370001000000002,23.68,-25.75,2c
2019-07-15_143123:480,-0.30300900000000003,-0.004059,-0.397064,-0.00345,-0.000958,0.002711,-20.370001000000002,23.68,-25.0,2c
2019-07-15_143123:500,-0.300476,-0.0030210000000000002,-0.397583,-0.003145,-0.0011099999999999999,0.002315,-20.370001000000002,23.68,-25.0,2c
2019-07-15_143123:520,-0.29943800000000004,-0.002014,-0.397583,-0.003023,-0.001263,0.002254,-21.18,23.370001000000002,-25.370001000000002,2c
2019-07-15_143123:540,-0.300476,0.001007,-0.397583,-0.003084,-0.001324,0.002376,-21.18,23.370001000000002,-25.370001000000002,2c
2019-07-15_143123:560,-0.297913,0.001495,-0.399109,-0.003786,-0.001202,0.0025280000000000003,-21.18,23.370001000000002,-25.370001000000002,2c
2019-07-15_143123:580,-0.29943800000000004,0.001007,-0.398071,-0.003786,-0.001263,0.002467,-12.25,23.370001000000002,-25.0,2c
2019-07-15_143123:600,-0.300964,-0.001007,-0.399597,-0.0039380000000000005,-0.001385,0.002376,-12.25,23.370001000000002,-25.0,2c
2019-07-15_143123:620,-0.301483,-0.000488,-0.40011599999999997,-0.00406,-0.001446,0.002467,-20.370001000000002,23.370001000000002,-25.0,2c
2019-07-15_143123:640,-0.300476,-0.002014,-0.399597,-0.0038770000000000002,-0.00172,0.002467,-20.370001000000002,23.370001000000002,-25.0,2c
2019-07-15_143123:660,-0.301483,-0.001495,-0.40063499999999996,-0.003389,-0.001385,0.0025280000000000003,-20.370001000000002,23.370001000000002,-25.0,2c
2019-07-15_143123:680,-0.302002,0.0,-0.399597,-0.003145,-0.001141,0.002711,-20.75,23.059998999999998,-25.0,2c
2019-07-15_143123:700,-0.300476,0.0,-0.399597,-0.003084,-0.00108,0.002711,-20.75,23.059998999999998,-25.0,2c
2019-07-15_143123:720,-0.300964,0.001495,-0.40063499999999996,-0.003145,-0.001141,0.0027719999999999997,-20.370001000000002,23.68,-25.75,2c
2019-07-15_143123:740,-0.29943800000000004,0.001495,-0.39859,-0.0036030000000000003,-0.0011099999999999999,0.002742,-20.370001000000002,23.68,-25.75,2c
2019-07-15_143123:760,-0.29943800000000004,-0.000488,-0.39859,-0.003542,-0.00108,0.0027719999999999997,-20.370001000000002,23.68,-25.75,2c
2019-07-15_143123:780,-0.29895,-0.002014,-0.39859,-0.003664,-0.001263,0.0027719999999999997,-20.370001000000002,23.370001000000002,-26.18,2c
2019-07-15_143123:800,-0.300476,-0.001495,-0.397583,-0.003664,-0.001141,0.002833,-20.370001000000002,23.370001000000002,-26.18,2c
2019-07-15_143123:820,-0.301483,-0.002014,-0.40063499999999996,-0.0033280000000000002,-0.001324,0.003078,-21.5,23.68,-26.18,2c
2019-07-15_143123:840,-0.30249000000000004,-0.001007,-0.399109,-0.003114,-0.001263,0.003078,-21.5,23.68,-26.18,2c
2019-07-15_143123:860,-0.300476,-0.000488,-0.399597,-0.003114,-0.001202,0.0027719999999999997,-21.5,23.68,-26.18,2c
2019-07-15_143123:880,-0.29995700000000003,0.001007,-0.399597,-0.003084,-0.00108,0.00265,-20.370001000000002,22.68,-24.559998999999998,2c
2019-07-15_143123:900,-0.300476,0.001007,-0.39859,-0.0034799999999999996,-0.001324,0.002711,-20.370001000000002,22.68,-24.559998999999998,2c
2019-07-15_143123:920,-0.300476,0.001007,-0.399109,-0.003389,-0.000958,0.002589,-20.370001000000002,23.68,-24.559998999999998,2c
2019-07-15_143123:940,-0.29895,0.001495,-0.39859,-0.003389,-0.001019,0.002955,-20.370001000000002,23.68,-24.559998999999998,2c
2019-07-15_143123:960,-0.29943800000000004,0.0,-0.399109,-0.0032670000000000004,-0.001263,0.003169,-20.370001000000002,23.68,-24.559998999999998,2c
2019-07-15_143123:980,-0.300964,-0.000488,-0.399597,-0.003542,-0.0014759999999999999,0.0027719999999999997,-20.370001000000002,23.370001000000002,-25.75,2c
2019-07-15_143124:000,-0.301483,0.0,-0.40011599999999997,-0.0036030000000000003,-0.001141,0.002833,-20.370001000000002,23.370001000000002,-25.75,2c
2019-07-15_143124:020,-0.301483,0.0,-0.399597,-0.0033280000000000002,-0.001141,0.003016,-20.370001000000002,23.68,-26.18,2c
2019-07-15_143124:040,-0.300964,-0.001495,-0.398071,-0.003145,-0.00108,0.002742,-20.370001000000002,23.68,-26.18,2c
2019-07-15_143124:060,-0.29895,0.0,-0.397583,-0.003084,-0.001324,0.002955,-20.370001000000002,23.68,-26.18,2c
2019-07-15_143124:080,-0.296906,0.000488,-0.398071,-0.003206,-0.001782,0.003016,-20.370001000000002,23.370001000000002,-25.0,2c
2019-07-15_143124:100,-0.295898,0.001007,-0.40063499999999996,-0.0032670000000000004,-0.001873,0.002376,-20.370001000000002,23.370001000000002,-25.0,2c
2019-07-15_143124:120,-0.300476,0.001495,-0.402161,-0.003542,-0.0020559999999999997,0.0025280000000000003,-20.75,23.370001000000002,-26.18,2c
2019-07-15_143124:140,-0.29995700000000003,0.000488,-0.402161,-0.003389,-0.0020559999999999997,0.003078,-20.75,23.370001000000002,-26.18,2c
2019-07-15_143124:160,-0.300476,0.000488,-0.402649,-0.003389,-0.001446,0.003078,-20.75,23.370001000000002,-26.18,2c
2019-07-15_143124:180,-0.303528,-0.001495,-0.402649,-0.003145,-0.0007740000000000001,0.0027719999999999997,-20.370001000000002,24.059998999999998,-25.75,2c
2019-07-15_143124:200,-0.29995700000000003,0.002014,-0.40011599999999997,-0.002779,-0.000286,0.003169,-20.370001000000002,24.059998999999998,-25.75,2c
2019-07-15_143124:220,-0.298431,0.001007,-0.399109,-0.0029010000000000004,-0.000225,0.0036270000000000004,-20.0,23.370001000000002,-25.370001000000002,2c
2019-07-15_143124:240,-0.29943800000000004,0.000488,-0.399597,-0.003145,-0.00037799999999999997,0.003474,-20.0,23.370001000000002,-25.370001000000002,2c
2019-07-15_143124:260,-0.29742399999999997,0.001007,-0.399597,-0.0036030000000000003,-0.0005,0.00323,-20.0,23.370001000000002,-25.370001000000002,2c
2019-07-15_143124:280,-0.301483,-0.001495,-0.39859,-0.0039380000000000005,-0.00108,0.00323,-20.0,23.370001000000002,-25.0,2c
2019-07-15_143124:300,-0.302002,-0.0025329999999999997,-0.39859,-0.003664,-0.000897,0.0033520000000000004,-20.0,23.370001000000002,-25.0,2c
2019-07-15_143124:320,-0.301483,-0.0035399999999999997,-0.399109,-0.003389,-0.000683,0.003474,-20.370001000000002,23.370001000000002,-25.75,2c
2019-07-15_143124:340,-0.29895,-0.004547,-0.397583,-0.003114,-0.000683,0.002376,-20.370001000000002,23.370001000000002,-25.75,2c
2019-07-15_143124:360,-0.29742399999999997,-0.0030210000000000002,-0.399109,-0.0029010000000000004,-0.001019,0.0016129999999999999,-20.370001000000002,23.370001000000002,-25.75,2c
2019-07-15_143124:380,-0.297913,-0.001495,-0.39859,-0.0026260000000000003,-0.001263,0.002376,-20.370001000000002,22.68,-25.75,2c
2019-07-15_143124:400,-0.297913,-0.000488,-0.39859,-0.0026260000000000003,-0.001385,0.002467,-20.370001000000002,22.68,-25.75,2c
2019-07-15_143124:420,-0.300476,0.001007,-0.40063499999999996,-0.002687,-0.001324,0.002254,-20.0,23.370001000000002,-25.75,2c
2019-07-15_143124:440,-0.29995700000000003,0.0,-0.40063499999999996,-0.002779,-0.001019,0.002254,-20.0,23.370001000000002,-25.75,2c
2019-07-15_143124:460,-0.29995700000000003,-0.000488,-0.399597,-0.003023,-0.0008349999999999999,0.002131,-20.0,23.370001000000002,-25.75,2c
2019-07-15_143124:480,-0.29995700000000003,-0.001007,-0.40063499999999996,-0.003114,-0.00108,0.002009,-19.68,23.059998999999998,-24.18,2c
2019-07-15_143124:500,-0.29995700000000003,0.0,-0.401123,-0.002687,-0.001019,0.002315,-19.68,23.059998999999998,-24.18,2c
2019-07-15_143124:520,-0.29995700000000003,0.0,-0.401123,-0.0026260000000000003,-0.0008349999999999999,0.002376,-21.18,23.370001000000002,-25.370001000000002,2c
2019-07-15_143124:540,-0.301483,0.001007,-0.40011599999999997,-0.002687,-0.0011099999999999999,0.0025280000000000003,-21.18,23.370001000000002,-25.370001000000002,2c
2019-07-15_143124:560,-0.29995700000000003,0.001495,-0.40063499999999996,-0.0023510000000000002,-0.000439,0.0024059999999999997,-21.18,23.370001000000002,-25.370001000000002,2c
2019-07-15_143124:580,-0.29895,0.0025329999999999997,-0.40011599999999997,-0.0025039999999999997,-0.0005610000000000001,0.0025280000000000003,-20.0,23.370001000000002,-25.75,2c
2019-07-15_143124:600,-0.298431,0.0025329999999999997,-0.40011599999999997,-0.0028399999999999996,-0.000439,0.002833,-20.0,23.370001000000002,-25.75,2c
2019-07-15_143124:620,-0.29943800000000004,0.001007,-0.40011599999999997,-0.003084,-0.0007440000000000001,0.0028940000000000003,-20.75,23.059998999999998,-25.370001000000002,2c
2019-07-15_143124:640,-0.300476,0.000488,-0.399109,-0.0032670000000000004,-0.000439,0.003078,-20.75,23.059998999999998,-25.370001000000002,2c
2019-07-15_143124:660,-0.29995700000000003,0.001007,-0.40011599999999997,-0.0034799999999999996,-0.0007440000000000001,0.003016,-20.75,23.059998999999998,-25.370001000000002,2c
2019-07-15_143124:680,-0.298431,-0.000488,-0.40063499999999996,-0.003542,-0.0007740000000000001,0.003169,-20.370001000000002,23.370001000000002,-25.0,2c
2019-07-15_143124:700,-0.29995700000000003,0.0,-0.399597,-0.0032670000000000004,-0.0008349999999999999,0.003169,-20.370001000000002,23.370001000000002,-25.0,2c
2019-07-15_143124:720,-0.300476,-0.001007,-0.39859,-0.0032670000000000004,-0.0007740000000000001,0.0032909999999999997,-20.370001000000002,23.370001000000002,-25.0,2c
2019-07-15_143124:740,-0.300476,-0.001007,-0.397583,-0.0033280000000000002,-0.00108,0.0028940000000000003,-20.370001000000002,23.370001000000002,-25.0,2c
2019-07-15_143124:760,-0.300476,-0.000488,-0.40011599999999997,-0.0029010000000000004,-0.0007440000000000001,0.003078,-20.370001000000002,23.370001000000002,-25.0,2c
2019-07-15_143124:780,-0.29943800000000004,0.0,-0.399109,-0.002779,-0.000683,0.0028940000000000003,-21.18,23.370001000000002,-25.370001000000002,2c
2019-07-15_143124:800,-0.29895,0.0,-0.39859,-0.0028399999999999996,-0.000958,0.002742,-21.18,23.370001000000002,-25.370001000000002,2c
2019-07-15_143124:820,-0.29895,0.002014,-0.399597,-0.0029010000000000004,-0.00108,0.0027719999999999997,-20.75,23.059998999999998,-25.370001000000002,2c
2019-07-15_143124:840,-0.298431,0.001007,-0.399597,-0.0029620000000000002,-0.001141,0.003016,-20.75,23.059998999999998,-25.370001000000002,2c
2019-07-15_143124:860,-0.303528,-0.000488,-0.399597,-0.0029620000000000002,-0.001141,0.003078,-20.75,23.059998999999998,-25.370001000000002,2c
2019-07-15_143124:880,-0.304016,-0.000488,-0.399597,-0.0029620000000000002,-0.001019,0.0034130000000000002,-20.75,23.059998999999998,-27.0,2c
2019-07-15_143124:900,-0.300476,0.0,-0.398071,-0.003023,-0.001019,0.00323,-20.75,23.059998999999998,-27.0,2c
2019-07-15_143124:920,-0.296906,0.0,-0.39859,-0.0029620000000000002,-0.001141,0.002589,-20.0,23.370001000000002,-25.0,2c
2019-07-15_143124:940,-0.295898,0.0,-0.40011599999999997,-0.003206,-0.0014759999999999999,0.00265,-20.0,23.370001000000002,-25.0,2c
2019-07-15_143124:960,-0.298431,0.0,-0.401642,-0.0032670000000000004,-0.001843,0.003078,-20.0,23.370001000000002,-25.0,2c
2019-07-15_143124:980,-0.29943800000000004,-0.000488,-0.402161,-0.003114,-0.001995,0.002955,-20.0,23.370001000000002,-24.559998999999998,2c
2019-07-15_143125:000,-0.30249000000000004,-0.001007,-0.402161,-0.002779,-0.0014759999999999999,0.002955,-20.0,23.370001000000002,-24.559998999999998,2c
2019-07-15_143125:020,-0.302002,-0.000488,-0.401642,-0.0026260000000000003,-0.001019,0.0033520000000000004,-20.370001000000002,23.370001000000002,-25.75,2c
2019-07-15_143125:040,-0.300476,0.0,-0.401642,-0.002748,-0.0005,0.0036880000000000003,-20.370001000000002,23.370001000000002,-25.75,2c
2019-07-15_143125:060,-0.29995700000000003,0.0,-0.40011599999999997,-0.003023,-0.000286,0.003749,-20.370001000000002,23.370001000000002,-25.75,2c
2019-07-15_143125:080,-0.298431,0.0,-0.40063499999999996,-0.00345,-0.000286,0.003474,-19.25,23.370001000000002,-24.559998999999998,2c
2019-07-15_143125:100,-0.297913,-0.001007,-0.397064,-0.0038469999999999997,-0.0005610000000000001,0.0033520000000000004,-19.25,23.370001000000002,-24.559998999999998,2c
2019-07-15_143125:120,-0.300964,-0.0025329999999999997,-0.399597,-0.003786,-0.0008349999999999999,0.0032909999999999997,-20.75,23.68,-25.370001000000002,2c
2019-07-15_143125:140,-0.30249000000000004,-0.0025329999999999997,-0.399109,-0.0036030000000000003,-0.0007740000000000001,0.0034130000000000002,-20.75,23.68,-25.370001000000002,2c
2019-07-15_143125:160,-0.298431,-0.0055850000000000006,-0.397583,-0.003084,-0.000683,0.0027719999999999997,-20.75,23.68,-25.370001000000002,2c
