timestamp,AccX,AccY,AccZ,GyroX,GyroY,GyroZ,MagX,MagY,MagZ,Activity
2019-07-15_122050:540,-0.47180200000000005,0.045226999999999996,-0.14743,-0.001703,0.000436,0.0024530000000000003,-34.369999,18.870001000000002,-11.37,2c
2019-07-15_122050:560,-0.47180200000000005,0.041687,-0.151489,-0.002435,-0.000479,0.004589,-34.369999,18.870001000000002,-11.37,2c
2019-07-15_122050:580,-0.47332799999999997,0.036072,-0.142853,-0.002832,-8.2e-05,0.004803,-34.369999,18.870001000000002,-11.37,2c
2019-07-15_122050:600,-0.47842399999999996,0.027954000000000003,-0.145386,-0.001825,0.000131,0.005016,-34.369999,18.5,-12.18,2c
2019-07-15_122050:620,-0.476379,0.029968,-0.146423,0.00031099999999999997,0.000986,0.005078,-34.369999,18.5,-12.18,2c
2019-07-15_122050:640,-0.45907600000000004,0.034546,-0.144897,0.001227,-2.1e-05,0.004070000000000001,-34.75,18.5,-11.68,2c
2019-07-15_122050:660,-0.462646,0.035583,-0.14843800000000001,0.001227,-0.002493,0.004803,-34.75,18.5,-11.68,2c
2019-07-15_122050:680,-0.474854,0.035065,-0.148956,0.0009519999999999999,-0.004233,0.0053219999999999995,-34.75,18.5,-11.68,2c
2019-07-15_122050:700,-0.47995,0.033539,-0.153015,9.8e-05,-0.004079999999999999,0.004070000000000001,-34.369999,18.870001000000002,-10.18,2c
2019-07-15_122050:720,-0.47995,0.030487,-0.154022,0.00022,-0.003165,0.0033380000000000003,-34.369999,18.870001000000002,-10.18,2c
2019-07-15_122050:740,-0.473846,0.028442000000000002,-0.157074,0.00025,-0.0023710000000000003,0.0031550000000000003,-34.75,18.5,-12.18,2c
2019-07-15_122050:760,-0.484497,0.025421,-0.149475,0.000769,-0.001059,0.0028190000000000003,-34.75,18.5,-12.18,2c
2019-07-15_122050:780,-0.475372,0.026427999999999997,-0.14743,0.0018679999999999999,0.0013210000000000001,0.001995,-34.75,18.5,-12.18,2c
2019-07-15_122050:800,-0.47689799999999993,0.028442000000000002,-0.149475,0.002875,0.001169,0.001385,-34.0,18.870001000000002,-11.0,2c
2019-07-15_122050:820,-0.46875,0.031494,-0.146912,0.003729,0.0008029999999999999,0.0011710000000000002,-34.0,18.870001000000002,-11.0,2c
2019-07-15_122050:840,-0.475372,0.03302,-0.149963,0.004248,0.00025299999999999997,0.000439,-35.060001,18.5,-12.56,2c
2019-07-15_122050:860,-0.472321,0.035583,-0.14386,0.004706,-8.2e-05,-0.000538,-35.060001,18.5,-12.56,2c
2019-07-15_122050:880,-0.475861,0.035583,-0.147949,0.005377000000000001,0.000314,-0.0008119999999999999,-35.060001,18.5,-12.56,2c
2019-07-15_122050:900,-0.47842399999999996,0.036591000000000005,-0.151489,0.0060490000000000006,0.000528,-0.00041600000000000003,-33.560001,19.25,-11.68,2c
2019-07-15_122050:920,-0.476379,0.038635,-0.151001,0.006842,0.000589,0.000714,-33.560001,19.25,-11.68,2c
2019-07-15_122050:940,-0.47842399999999996,0.035065,-0.151001,0.0073,0.00065,0.0020559999999999997,-34.75,18.870001000000002,-10.18,2c
2019-07-15_122050:960,-0.47995,0.033539,-0.145905,0.007634999999999999,0.0008029999999999999,0.0030629999999999998,-34.75,18.870001000000002,-10.18,2c
2019-07-15_122050:980,-0.47180200000000005,0.030487,-0.145905,0.008978,0.001779,0.0019649999999999997,-34.75,18.870001000000002,-10.18,2c
2019-07-15_122051:000,-0.467743,0.030487,-0.146912,0.01084,0.001505,4.2e-05,-34.369999,18.870001000000002,-11.68,2c
2019-07-15_122051:020,-0.46823100000000006,0.036072,-0.146423,0.012671,0.000772,-0.00014099999999999998,-34.369999,18.870001000000002,-11.68,2c
2019-07-15_122051:040,-0.47433500000000006,0.040161,-0.149475,0.013463999999999999,7e-05,0.000775,-34.75,18.5,-12.18,2c
2019-07-15_122051:060,-0.478912,0.042175,-0.14743,0.013831,-2.1e-05,0.001721,-34.75,18.5,-12.18,2c
2019-07-15_122051:080,-0.477386,0.044739,-0.14743,0.013403,-8.2e-05,0.0011710000000000002,-34.75,18.5,-12.18,2c
2019-07-15_122051:100,-0.47079499999999996,0.046265,-0.146912,0.012701,-0.000266,0.001782,-34.369999,18.870001000000002,-11.68,2c
2019-07-15_122051:120,-0.470276,0.048279,-0.14843800000000001,0.011542,-0.000479,0.001843,-34.369999,18.870001000000002,-11.68,2c
2019-07-15_122051:140,-0.477386,0.044219999999999995,-0.149963,0.00968,-0.000967,0.002392,-34.369999,18.5,-11.0,2c
2019-07-15_122051:160,-0.47995,0.039124,-0.14743,0.007909999999999999,-0.000479,0.003399,-34.369999,18.5,-11.0,2c
2019-07-15_122051:180,-0.48553500000000005,0.035583,-0.148956,0.00611,0.000192,0.004131,-34.369999,18.5,-11.0,2c
2019-07-15_122051:200,-0.477386,0.034546,-0.148956,0.005103,0.001962,0.004681,-34.0,19.25,-11.37,2c
2019-07-15_122051:220,-0.474854,0.033539,-0.151001,0.004309,0.002573,0.003674,-34.0,19.25,-11.37,2c
2019-07-15_122051:240,-0.47995,0.035583,-0.15506,0.0035159999999999996,0.002512,0.00288,-34.75,18.870001000000002,-9.75,2c
2019-07-15_122051:260,-0.48196400000000006,0.036591000000000005,-0.151489,0.002997,0.002786,0.00288,-34.75,18.870001000000002,-9.75,2c
2019-07-15_122051:280,-0.488068,0.035583,-0.152008,0.001929,0.00358,0.004193,-34.75,18.870001000000002,-9.75,2c
2019-07-15_122051:300,-0.486023,0.034546,-0.148956,0.00144,0.0048920000000000005,0.004681,-34.369999,19.25,-11.37,2c
2019-07-15_122051:320,-0.474854,0.031006,-0.145386,0.002203,0.005838,0.002575,-34.369999,19.25,-11.37,2c
2019-07-15_122051:340,-0.46926899999999994,0.032013,-0.149475,0.003271,0.005685,0.000195,-35.060001,18.870001000000002,-9.37,2c
2019-07-15_122051:360,-0.46670500000000004,0.036072,-0.14743,0.003851,0.0039759999999999995,0.000469,-35.060001,18.870001000000002,-9.37,2c
2019-07-15_122051:380,-0.47280900000000003,0.037108999999999996,-0.14743,0.004370000000000001,0.002908,0.002575,-35.060001,18.870001000000002,-9.37,2c
2019-07-15_122051:400,-0.47433500000000006,0.038116000000000004,-0.145905,0.004309,0.002725,0.004222999999999999,-34.369999,18.870001000000002,-9.37,2c
2019-07-15_122051:420,-0.48095699999999997,0.035583,-0.142334,0.004462,0.0031219999999999998,0.005932,-34.369999,18.870001000000002,-9.37,2c
2019-07-15_122051:440,-0.482483,0.03302,-0.138275,0.004706,0.003244,0.006146,-35.75,18.5,-9.37,2c
2019-07-15_122051:460,-0.478912,0.034546,-0.139282,0.005103,0.0031219999999999998,0.0047420000000000006,-35.75,18.5,-9.37,2c
2019-07-15_122051:480,-0.47943100000000005,0.038635,-0.137268,0.004370000000000001,0.0023899999999999998,0.006603,-35.75,18.5,-9.37,2c
2019-07-15_122051:500,-0.48654200000000003,0.037108999999999996,-0.13623,0.002936,0.002451,0.007916,-34.75,18.870001000000002,-9.0,2c
2019-07-15_122051:520,-0.48858599999999996,0.035583,-0.133698,0.0015630000000000002,0.0037630000000000003,0.006603,-34.75,18.870001000000002,-9.0,2c
2019-07-15_122051:540,-0.48349,0.035065,-0.13269,0.00025,0.0041600000000000005,0.005383,-34.75,19.559998999999998,-10.18,2c
2019-07-15_122051:560,-0.47995,0.032013,-0.132172,-0.001367,0.0037630000000000003,0.004681,-34.75,19.559998999999998,-10.18,2c
2019-07-15_122051:580,-0.477386,0.029968,-0.127106,-0.002954,0.003854,0.004864,-34.75,19.559998999999998,-10.18,2c
2019-07-15_122051:600,-0.482483,0.024902,-0.119476,-0.003595,0.004556,0.004681,-34.0,19.25,-9.37,2c
2019-07-15_122051:620,-0.48196400000000006,0.020325,-0.114899,-0.002618,0.005441,0.003948,-34.0,19.25,-9.37,2c
2019-07-15_122051:640,-0.482483,0.020844,-0.111328,-0.001947,0.00535,0.0034909999999999997,-34.75,19.25,-9.37,2c
2019-07-15_122051:660,-0.48095699999999997,0.022369,-0.109802,0.000708,0.005441,0.004222999999999999,-34.75,19.25,-9.37,2c
2019-07-15_122051:680,-0.482483,0.027435,-0.11080899999999999,0.001288,0.004953,0.004803,-34.75,19.25,-9.37,2c
2019-07-15_122051:700,-0.477386,0.024384,-0.11438,0.0021420000000000002,0.0035189999999999996,0.003674,-35.060001,19.25,-9.75,2c
2019-07-15_122051:720,-0.48043800000000003,0.026917,-0.121002,0.003394,0.002695,0.002575,-35.060001,19.25,-9.75,2c
2019-07-15_122051:740,-0.477905,0.03302,-0.12301600000000001,0.004004,0.001443,0.003857,-34.369999,18.870001000000002,-8.56,2c
2019-07-15_122051:760,-0.48349,0.035583,-0.124054,0.002722,0.0008640000000000001,0.00581,-34.369999,18.870001000000002,-8.56,2c
2019-07-15_122051:780,-0.484497,0.034546,-0.12301600000000001,0.00025,0.0008029999999999999,0.008190000000000001,-34.369999,18.870001000000002,-8.56,2c
2019-07-15_122051:800,-0.48196400000000006,0.029968,-0.12149000000000001,-0.0005740000000000001,0.00065,0.009319,-34.369999,19.559998999999998,-8.56,2c
2019-07-15_122051:820,-0.482483,0.021332,-0.11843900000000002,-0.00274,0.001047,0.008923,-34.369999,19.559998999999998,-8.56,2c
2019-07-15_122051:840,-0.47995,0.016753999999999998,-0.11843900000000002,-0.002832,0.001199,0.008251,-34.369999,20.370001000000002,-9.75,2c
2019-07-15_122051:860,-0.48196400000000006,0.012177,-0.119965,-0.001428,0.0013210000000000001,0.005749,-34.369999,20.370001000000002,-9.75,2c
2019-07-15_122051:880,-0.476379,0.011687999999999999,-0.121002,0.00015900000000000002,0.001199,0.004009,-34.369999,20.370001000000002,-9.75,2c
2019-07-15_122051:900,-0.475372,0.015228,-0.121002,0.001044,0.001169,0.003002,-33.560001,19.559998999999998,-9.0,2c
2019-07-15_122051:920,-0.47689799999999993,0.019318000000000002,-0.12200899999999999,0.002875,-0.001242,0.001568,-33.560001,19.559998999999998,-9.0,2c
2019-07-15_122051:940,-0.477386,0.021851,-0.12301600000000001,0.003394,-0.001974,0.001782,-33.560001,19.559998999999998,-9.0,2c
2019-07-15_122051:960,-0.48196400000000006,0.026427999999999997,-0.12301600000000001,0.0035770000000000003,-0.003958,0.002514,-34.369999,20.0,-9.37,2c
2019-07-15_122051:980,-0.486023,0.027435,-0.12301600000000001,0.00321,-0.003897,0.002392,-34.369999,20.0,-9.37,2c
2019-07-15_122052:000,-0.492126,0.025421,-0.127106,0.002875,-0.003043,0.002758,-34.75,20.0,-10.18,2c
2019-07-15_122052:020,-0.48706099999999997,0.025421,-0.128113,0.0026,-0.0018219999999999998,0.002941,-34.75,20.0,-10.18,2c
2019-07-15_122052:040,-0.484497,0.022369,-0.130646,0.002325,-0.001242,0.002575,-35.060001,19.559998999999998,-8.56,2c
2019-07-15_122052:060,-0.48553500000000005,0.022369,-0.127594,0.002448,-0.000967,0.002941,-35.060001,19.559998999999998,-8.56,2c
2019-07-15_122052:080,-0.49111899999999997,0.021332,-0.128113,0.002844,0.001169,0.0032159999999999997,-35.060001,19.559998999999998,-8.56,2c
2019-07-15_122052:100,-0.48858599999999996,0.021851,-0.127106,0.002722,0.0018399999999999998,0.00288,-35.060001,20.370001000000002,-8.18,2c
2019-07-15_122052:120,-0.48553500000000005,0.022858,-0.127594,0.00318,0.003854,0.0026969999999999997,-35.060001,20.370001000000002,-8.18,2c
2019-07-15_122052:140,-0.481476,0.020844,-0.12558,0.0031190000000000002,0.003915,0.002728,-35.060001,20.370001000000002,-8.18,2c
2019-07-15_122052:160,-0.47943100000000005,0.020844,-0.122528,0.003271,0.0034270000000000004,0.001995,-34.75,19.559998999999998,-9.37,2c
2019-07-15_122052:180,-0.477386,0.019806,-0.12200899999999999,0.003668,0.0029690000000000003,0.0019039999999999999,-34.75,19.559998999999998,-9.37,2c
2019-07-15_122052:200,-0.477386,0.019318000000000002,-0.12200899999999999,0.004797,0.0018399999999999998,0.001599,-34.369999,18.870001000000002,-9.0,2c
2019-07-15_122052:220,-0.478912,0.023895,-0.12200899999999999,0.0053159999999999995,0.001108,0.001843,-34.369999,18.870001000000002,-9.0,2c
2019-07-15_122052:240,-0.482483,0.027435,-0.12301600000000001,0.0048579999999999995,-2.1e-05,0.0035520000000000005,-34.369999,18.870001000000002,-9.0,2c
2019-07-15_122052:260,-0.485016,0.025421,-0.12149000000000001,0.004309,-0.000204,0.004803,-34.0,19.559998999999998,-8.56,2c
2019-07-15_122052:280,-0.47995,0.024902,-0.124054,0.003851,-0.00054,0.003399,-34.0,19.559998999999998,-8.56,2c
2019-07-15_122052:300,-0.48196400000000006,0.026427999999999997,-0.122528,0.003271,-0.000601,0.002239,-34.0,19.559998999999998,-8.18,2c
2019-07-15_122052:320,-0.47332799999999997,0.024384,-0.12149000000000001,0.002783,-0.0010279999999999998,0.002117,-34.0,19.559998999999998,-8.18,2c
2019-07-15_122052:340,-0.486023,0.022858,-0.128113,0.002875,-0.002036,0.0021780000000000002,-34.0,19.559998999999998,-8.18,2c
2019-07-15_122052:360,-0.491638,0.022858,-0.12353499999999999,0.004004,-0.0021579999999999998,0.001568,-36.560001,19.559998999999998,-9.37,2c
2019-07-15_122052:380,-0.49365200000000004,0.020844,-0.127594,0.004004,-0.0018219999999999998,0.001507,-36.560001,19.559998999999998,-9.37,2c
2019-07-15_122052:400,-0.48553500000000005,0.022858,-0.12912,0.0041259999999999995,0.00025299999999999997,0.001507,-34.75,19.559998999999998,-7.87,2c
2019-07-15_122052:420,-0.47689799999999993,0.020844,-0.126068,0.0034549999999999997,0.0008640000000000001,0.00288,-34.75,19.559998999999998,-7.87,2c
2019-07-15_122052:440,-0.48300200000000004,0.019318000000000002,-0.124054,0.0026,0.000436,0.005596,-34.75,19.559998999999998,-7.87,2c
2019-07-15_122052:460,-0.48553500000000005,0.019318000000000002,-0.11843900000000002,0.002203,-8.2e-05,0.007458,-33.25,19.559998999999998,-7.37,2c
2019-07-15_122052:480,-0.49111899999999997,0.013702,-0.11691300000000002,0.001685,0.000314,0.006725,-33.25,19.559998999999998,-7.37,2c
2019-07-15_122052:500,-0.48858599999999996,0.012177,-0.115906,0.001929,0.000986,0.0033380000000000003,-34.0,20.370001000000002,-8.56,2c
2019-07-15_122052:520,-0.48754899999999995,0.013213999999999998,-0.11538699999999999,0.002386,0.00126,0.002239,-34.0,20.370001000000002,-8.56,2c
2019-07-15_122052:540,-0.488068,0.014221000000000001,-0.115906,0.00321,0.001505,0.0019039999999999999,-34.0,20.370001000000002,-8.56,2c
2019-07-15_122052:560,-0.48706099999999997,0.017792,-0.11691300000000002,0.003394,0.001962,0.000927,-34.0,19.559998999999998,-9.0,2c
2019-07-15_122052:580,-0.48706099999999997,0.018799,-0.11843900000000002,0.003394,0.002328,0.000256,-34.0,19.559998999999998,-9.0,2c
2019-07-15_122052:600,-0.485016,0.018799,-0.118958,0.0034549999999999997,0.002176,-0.00047699999999999994,-34.369999,20.0,-9.37,2c
2019-07-15_122052:620,-0.48043800000000003,0.019318000000000002,-0.117432,0.004248,0.0021149999999999997,-0.002003,-34.369999,20.0,-9.37,2c
2019-07-15_122052:640,-0.477386,0.022369,-0.11843900000000002,0.005591,0.001047,-0.0033450000000000003,-34.369999,20.0,-9.37,2c
2019-07-15_122052:660,-0.477386,0.025421,-0.11795,0.006842,7e-05,-0.003467,-34.369999,20.370001000000002,-9.0,2c
2019-07-15_122052:680,-0.482483,0.026917,-0.121002,0.007909999999999999,-0.000479,-0.003071,-34.369999,20.370001000000002,-9.0,2c
2019-07-15_122052:700,-0.484009,0.031006,-0.12301600000000001,0.008490000000000001,-0.000327,-0.0018800000000000002,-34.369999,20.370001000000002,-7.87,2c
2019-07-15_122052:720,-0.48858599999999996,0.032013,-0.12149000000000001,0.008520999999999999,7e-05,-0.000263,-34.369999,20.370001000000002,-7.87,2c
2019-07-15_122052:740,-0.48706099999999997,0.03302,-0.11795,0.007758,0.000375,0.001446,-34.369999,20.370001000000002,-7.87,2c
2019-07-15_122052:760,-0.488068,0.031494,-0.111847,0.0065060000000000005,0.00065,0.003399,-35.5,19.25,-8.56,2c
2019-07-15_122052:780,-0.489594,0.027954000000000003,-0.109802,0.005499,0.001047,0.004803,-35.5,19.25,-8.56,2c
2019-07-15_122052:800,-0.48300200000000004,0.022858,-0.11080899999999999,0.0044009999999999995,0.0018399999999999998,0.006268,-35.5,20.370001000000002,-7.87,2c
2019-07-15_122052:820,-0.477905,0.019806,-0.109802,0.00379,0.000375,0.007183,-35.5,20.370001000000002,-7.87,2c
2019-07-15_122052:840,-0.472321,0.017792,-0.109802,0.0034549999999999997,-0.001303,0.007183,-35.5,20.370001000000002,-7.87,2c
2019-07-15_122052:860,-0.472321,0.016266,-0.111328,0.002997,-0.0035,0.006146,-35.060001,19.25,-7.37,2c
2019-07-15_122052:880,-0.475861,0.01828,-0.11438,0.0026,-0.004965,0.004864,-35.060001,19.25,-7.37,2c
2019-07-15_122052:900,-0.48300200000000004,0.01828,-0.119965,0.002478,-0.005362,0.002636,-35.060001,20.0,-7.37,2c
2019-07-15_122052:920,-0.48553500000000005,0.020844,-0.12200899999999999,0.002448,-0.0050869999999999995,0.000866,-35.060001,20.0,-7.37,2c
2019-07-15_122052:940,-0.48754899999999995,0.021851,-0.12558,0.0018679999999999999,-0.004752,0.000256,-35.060001,20.0,-7.37,2c
2019-07-15_122052:960,-0.48654200000000003,0.023895,-0.12658699999999998,0.001685,-0.00463,0.000317,-40.25,19.25,-8.18,2c
2019-07-15_122052:980,-0.48706099999999997,0.025421,-0.12506099999999998,0.001807,-0.004079999999999999,0.000439,-40.25,19.25,-8.18,2c
2019-07-15_122053:000,-0.484497,0.026427999999999997,-0.12658699999999998,0.001929,-0.003378,-0.000538,-35.060001,20.0,-7.87,2c
2019-07-15_122053:020,-0.485016,0.029968,-0.127594,0.002081,-0.0035,-0.00041600000000000003,-35.060001,20.0,-7.87,2c
2019-07-15_122053:040,-0.48349,0.034546,-0.12558,0.0018679999999999999,-0.002982,0.000134,-35.060001,20.0,-7.87,2c
2019-07-15_122053:060,-0.48095699999999997,0.035583,-0.12658699999999998,0.001044,-0.002768,0.001263,-35.060001,18.870001000000002,-8.56,2c
2019-07-15_122053:080,-0.48095699999999997,0.035583,-0.127106,-8.499999999999999e-05,-0.002829,0.0026969999999999997,-35.060001,18.870001000000002,-8.56,2c
2019-07-15_122053:100,-0.484009,0.03302,-0.126068,-0.0008179999999999999,-0.003104,0.0034909999999999997,-35.060001,19.25,-7.0,2c
2019-07-15_122053:120,-0.482483,0.029968,-0.12353499999999999,-0.001215,-0.002646,0.003399,-35.060001,19.25,-7.0,2c
2019-07-15_122053:140,-0.48349,0.027954000000000003,-0.126068,-0.0017640000000000002,-0.002097,0.003399,-35.060001,19.25,-7.0,2c
2019-07-15_122053:160,-0.48349,0.024902,-0.12454200000000001,-0.001428,-0.002097,0.003857,-34.75,19.559998999999998,-8.18,2c
2019-07-15_122053:180,-0.477386,0.024902,-0.12658699999999998,-0.001093,-0.002646,0.003887,-34.75,19.559998999999998,-8.18,2c
2019-07-15_122053:200,-0.481476,0.024384,-0.12454200000000001,-0.0007570000000000001,-0.0032259999999999997,0.004193,-34.75,18.870001000000002,-7.87,2c
2019-07-15_122053:220,-0.474854,0.023895,-0.12454200000000001,-2.4e-05,-0.003714,0.003948,-34.75,18.870001000000002,-7.87,2c
2019-07-15_122053:240,-0.48043800000000003,0.023895,-0.128113,0.0004940000000000001,-0.004233,0.004009,-34.75,18.870001000000002,-7.87,2c
2019-07-15_122053:260,-0.488068,0.020844,-0.127106,0.000647,-0.003897,0.003857,-35.060001,19.25,-8.18,2c
2019-07-15_122053:280,-0.48706099999999997,0.020844,-0.127594,0.0017460000000000002,-0.003043,0.003674,-35.060001,19.25,-8.18,2c
2019-07-15_122053:300,-0.48654200000000003,0.022369,-0.127106,0.002997,-0.001913,0.0035520000000000005,-34.369999,20.370001000000002,-7.87,2c
2019-07-15_122053:320,-0.484497,0.026427999999999997,-0.128113,0.003851,-0.001425,0.003735,-34.369999,20.370001000000002,-7.87,2c
2019-07-15_122053:340,-0.48349,0.027954000000000003,-0.128113,0.003973,-0.001456,0.004345,-34.369999,20.370001000000002,-7.87,2c
2019-07-15_122053:360,-0.481476,0.028442000000000002,-0.128113,0.003607,-0.001303,0.004864,-34.0,19.559998999999998,-9.0,2c
2019-07-15_122053:380,-0.48095699999999997,0.027954000000000003,-0.128601,0.002844,-0.001517,0.00462,-34.0,19.559998999999998,-9.0,2c
2019-07-15_122053:400,-0.48300200000000004,0.026427999999999997,-0.127594,0.002264,-0.001364,0.0042840000000000005,-34.369999,19.25,-8.56,2c
2019-07-15_122053:420,-0.48095699999999997,0.026917,-0.126068,0.0016239999999999998,-0.001242,0.004345,-34.369999,19.25,-8.56,2c
2019-07-15_122053:440,-0.478912,0.026427999999999997,-0.128113,0.001105,-0.001517,0.004070000000000001,-34.369999,19.25,-8.56,2c
2019-07-15_122053:460,-0.47842399999999996,0.025908999999999998,-0.127594,-2.4e-05,-0.0021579999999999998,0.0036130000000000003,-25.25,19.25,-9.37,2c
2019-07-15_122053:480,-0.47689799999999993,0.024902,-0.128113,-0.00036,-0.0022489999999999997,0.003094,-25.25,19.25,-9.37,2c
2019-07-15_122053:500,-0.47995,0.023375999999999997,-0.130646,-0.000421,-0.002768,0.0026969999999999997,-34.75,20.0,-9.06,2c
2019-07-15_122053:520,-0.48043800000000003,0.023375999999999997,-0.129639,-0.00023799999999999998,-0.002951,0.0024530000000000003,-34.75,20.0,-9.06,2c
2019-07-15_122053:540,-0.48858599999999996,0.020844,-0.133698,0.00025,-0.002707,0.0028190000000000003,-34.75,20.0,-9.06,2c
2019-07-15_122053:560,-0.48858599999999996,0.020844,-0.134705,0.000983,-0.001364,0.003399,-34.75,20.0,-8.25,2c
2019-07-15_122053:580,-0.485016,0.020325,-0.133698,0.001501,-0.000662,0.003674,-34.75,20.0,-8.25,2c
2019-07-15_122053:600,-0.482483,0.021332,-0.132172,0.002203,-8.2e-05,0.0036130000000000003,-34.75,20.370001000000002,-9.06,2c
2019-07-15_122053:620,-0.48043800000000003,0.023895,-0.131653,0.002722,4e-05,0.003674,-34.75,20.370001000000002,-9.06,2c
2019-07-15_122053:640,-0.48300200000000004,0.024902,-0.131165,0.0026609999999999997,-0.000479,0.003399,-34.75,20.370001000000002,-9.06,2c
2019-07-15_122053:660,-0.484009,0.025421,-0.129639,0.002478,-0.000723,0.003796,-34.75,18.870001000000002,-9.87,2c
2019-07-15_122053:680,-0.47943100000000005,0.026427999999999997,-0.12912,0.001685,-0.00041799999999999997,0.004070000000000001,-34.75,18.870001000000002,-9.87,2c
2019-07-15_122053:700,-0.476379,0.023895,-0.128601,0.0009519999999999999,-0.0006929999999999999,0.003887,-34.75,19.25,-10.68,2c
2019-07-15_122053:720,-0.47689799999999993,0.023895,-0.128113,0.00015900000000000002,-0.000967,0.0034909999999999997,-34.75,19.25,-10.68,2c
2019-07-15_122053:740,-0.48043800000000003,0.022369,-0.129639,-8.499999999999999e-05,-0.001517,0.0032770000000000004,-34.75,19.25,-10.68,2c
2019-07-15_122053:760,-0.48095699999999997,0.021332,-0.130646,-0.000299,-0.0018219999999999998,0.0033380000000000003,-34.369999,20.370001000000002,-7.37,2c
2019-07-15_122053:780,-0.48300200000000004,0.020844,-0.13269,-0.000177,-0.0021579999999999998,0.0035520000000000005,-34.369999,20.370001000000002,-7.37,2c
2019-07-15_122053:800,-0.48349,0.019318000000000002,-0.133698,0.0005549999999999999,-0.0021579999999999998,0.003857,-34.0,19.559998999999998,-8.56,2c
2019-07-15_122053:820,-0.48043800000000003,0.018799,-0.132172,0.000891,-0.001913,0.004222999999999999,-34.0,19.559998999999998,-8.56,2c
2019-07-15_122053:840,-0.47995,0.01828,-0.13269,0.001379,-0.001242,0.003887,-34.0,19.559998999999998,-8.56,2c
2019-07-15_122053:860,-0.477386,0.018799,-0.133698,0.0021420000000000002,-0.001242,0.0032770000000000004,-34.75,19.559998999999998,-7.87,2c
2019-07-15_122053:880,-0.48095699999999997,0.020844,-0.133698,0.002539,-0.00112,0.00288,-34.75,19.559998999999998,-7.87,2c
2019-07-15_122053:900,-0.48196400000000006,0.020325,-0.133179,0.002478,-0.0017,0.002728,-33.560001,19.559998999999998,-9.0,2c
2019-07-15_122053:920,-0.48300200000000004,0.022858,-0.13269,0.002448,-0.0017,0.002392,-33.560001,19.559998999999998,-9.0,2c
2019-07-15_122053:940,-0.48349,0.023895,-0.134216,0.002478,-0.0017,0.0021780000000000002,-33.560001,19.559998999999998,-9.0,2c
2019-07-15_122053:960,-0.48300200000000004,0.023375999999999997,-0.132172,0.002478,-0.001425,0.002117,-34.369999,20.0,-9.0,2c
2019-07-15_122053:980,-0.48095699999999997,0.023895,-0.131165,0.002325,-0.0010279999999999998,0.002117,-34.369999,20.0,-9.0,2c
2019-07-15_122054:000,-0.47842399999999996,0.023895,-0.13269,0.002325,-0.001181,0.0026969999999999997,-35.060001,18.870001000000002,-9.0,2c
2019-07-15_122054:020,-0.47842399999999996,0.022858,-0.13269,0.0020510000000000003,-0.00112,0.0032770000000000004,-35.060001,18.870001000000002,-9.0,2c
2019-07-15_122054:040,-0.477905,0.021851,-0.131653,0.001685,-0.001059,0.00346,-35.060001,18.870001000000002,-9.0,2c
2019-07-15_122054:060,-0.477905,0.020844,-0.133179,0.00144,-0.00112,0.002941,-34.75,19.559998999999998,-9.0,2c
2019-07-15_122054:080,-0.477386,0.021332,-0.13269,0.001379,-0.0017,0.0024530000000000003,-34.75,19.559998999999998,-9.0,2c
2019-07-15_122054:100,-0.48043800000000003,0.020844,-0.134216,0.001379,-0.002493,0.0021780000000000002,-34.369999,19.25,-9.0,2c
2019-07-15_122054:120,-0.482483,0.019318000000000002,-0.133179,0.001501,-0.002554,0.001599,-34.369999,19.25,-9.0,2c
2019-07-15_122054:140,-0.48300200000000004,0.019806,-0.135223,0.002081,-0.002432,0.000866,-34.369999,19.25,-9.0,2c
2019-07-15_122054:160,-0.484009,0.021332,-0.13623,0.002844,-0.0023710000000000003,0.000714,-34.75,19.559998999999998,-8.56,2c
2019-07-15_122054:180,-0.48043800000000003,0.025421,-0.135223,0.003271,-0.0018219999999999998,0.0011099999999999999,-34.75,19.559998999999998,-8.56,2c
2019-07-15_122054:200,-0.47842399999999996,0.027435,-0.137268,0.003394,-0.001425,0.001843,-34.0,19.559998999999998,-9.37,2c
2019-07-15_122054:220,-0.476379,0.027954000000000003,-0.133698,0.002722,-0.001639,0.002941,-34.0,19.559998999999998,-9.37,2c
2019-07-15_122054:240,-0.477386,0.026917,-0.136749,0.0017460000000000002,-0.001852,0.00346,-34.0,19.559998999999998,-9.37,2c
2019-07-15_122054:260,-0.47943100000000005,0.025421,-0.137268,0.0008300000000000001,-0.002036,0.0032770000000000004,-34.369999,19.559998999999998,-9.0,2c
2019-07-15_122054:280,-0.478912,0.022858,-0.13623,0.00022,-0.002188,0.003002,-34.369999,19.559998999999998,-9.0,2c
2019-07-15_122054:300,-0.48300200000000004,0.021851,-0.137268,0.00015900000000000002,-0.001974,0.003002,-34.75,19.25,-7.87,2c
2019-07-15_122054:320,-0.47995,0.019318000000000002,-0.134705,0.00015900000000000002,-0.0018219999999999998,0.003002,-34.75,19.25,-7.87,2c
2019-07-15_122054:340,-0.47689799999999993,0.018799,-0.13623,0.0008300000000000001,-0.001364,0.002941,-34.75,19.25,-7.87,2c
2019-07-15_122054:360,-0.477386,0.019318000000000002,-0.13623,0.001227,-0.001456,0.002514,-34.75,20.0,-10.18,2c
2019-07-15_122054:380,-0.47995,0.020844,-0.136749,0.001807,-0.002036,0.0023,-34.75,20.0,-10.18,2c
2019-07-15_122054:400,-0.478912,0.021851,-0.137756,0.002264,-0.0022489999999999997,0.0021780000000000002,-34.369999,20.370001000000002,-9.37,2c
2019-07-15_122054:420,-0.482483,0.023375999999999997,-0.138794,0.0026,-0.002036,0.0021780000000000002,-34.369999,20.370001000000002,-9.37,2c
2019-07-15_122054:440,-0.48349,0.024384,-0.139282,0.002936,-0.001181,0.0024530000000000003,-34.369999,20.370001000000002,-9.37,2c
2019-07-15_122054:460,-0.48043800000000003,0.026427999999999997,-0.138794,0.002783,-0.000967,0.002636,-34.0,20.370001000000002,-9.0,2c
2019-07-15_122054:480,-0.47842399999999996,0.025421,-0.138794,0.0026,-0.00054,0.0026969999999999997,-34.0,20.370001000000002,-9.0,2c
2019-07-15_122054:500,-0.477386,0.027435,-0.137268,0.002081,-0.000601,0.002392,-34.369999,19.559998999999998,-9.75,2c
2019-07-15_122054:520,-0.477386,0.025908999999999998,-0.13623,0.001929,-0.00054,0.0023,-34.369999,19.559998999999998,-9.75,2c
2019-07-15_122054:540,-0.477905,0.026917,-0.137756,0.00144,-0.0008449999999999999,0.0019649999999999997,-34.369999,19.559998999999998,-9.75,2c
2019-07-15_122054:560,-0.47842399999999996,0.026917,-0.135742,0.0015630000000000002,-0.001303,0.0019649999999999997,-34.369999,19.559998999999998,-8.56,2c
2019-07-15_122054:580,-0.47995,0.027435,-0.13623,0.0016239999999999998,-0.001364,0.0019649999999999997,-34.369999,19.559998999999998,-8.56,2c
2019-07-15_122054:600,-0.47943100000000005,0.026917,-0.139282,0.00199,-0.001181,0.0019039999999999999,-34.369999,19.559998999999998,-9.75,2c
2019-07-15_122054:620,-0.478912,0.028442000000000002,-0.137268,0.00199,-0.0010279999999999998,0.002361,-34.369999,19.559998999999998,-9.75,2c
2019-07-15_122054:640,-0.478912,0.029480000000000003,-0.139282,0.001685,-0.000967,0.0026969999999999997,-34.369999,19.559998999999998,-9.75,2c
2019-07-15_122054:660,-0.47995,0.029480000000000003,-0.138275,0.00144,-0.0010279999999999998,0.003094,-34.369999,19.559998999999998,-9.37,2c
2019-07-15_122054:680,-0.47842399999999996,0.026917,-0.137756,0.0008300000000000001,-0.00112,0.0031550000000000003,-34.369999,19.559998999999998,-9.37,2c
2019-07-15_122054:700,-0.47943100000000005,0.027435,-0.139801,0.0008300000000000001,-0.001181,0.0032159999999999997,-35.5,19.25,-8.18,2c
2019-07-15_122054:720,-0.47943100000000005,0.024902,-0.138275,0.000586,-0.000906,0.002941,-35.5,19.25,-8.18,2c
2019-07-15_122054:740,-0.477905,0.024384,-0.139282,0.0008300000000000001,-0.000906,0.0028190000000000003,-35.5,19.25,-8.18,2c
2019-07-15_122054:760,-0.47689799999999993,0.023895,-0.138794,0.000983,-0.001181,0.0031550000000000003,-35.060001,19.559998999999998,-9.0,2c
2019-07-15_122054:780,-0.475372,0.024384,-0.138275,0.001288,-0.001578,0.0031550000000000003,-35.060001,19.559998999999998,-9.0,2c
2019-07-15_122054:800,-0.474854,0.024384,-0.140808,0.0016239999999999998,-0.001974,0.00346,-34.369999,19.25,-9.75,2c
2019-07-15_122054:820,-0.475372,0.024384,-0.137268,0.0016239999999999998,-0.0023710000000000003,0.002758,-34.369999,19.25,-9.75,2c
2019-07-15_122054:840,-0.47943100000000005,0.025421,-0.139801,0.001288,-0.002493,0.001721,-34.369999,19.25,-9.75,2c
2019-07-15_122054:860,-0.48095699999999997,0.023895,-0.14032,0.0009519999999999999,-0.002585,0.001721,-34.0,20.0,-10.18,2c
2019-07-15_122054:880,-0.481476,0.021332,-0.144379,0.000586,-0.002188,0.001049,-34.0,20.0,-10.18,2c
2019-07-15_122054:900,-0.48095699999999997,0.023375999999999997,-0.145386,0.001044,-0.001761,0.0006519999999999999,-34.369999,19.559998999999998,-9.37,2c
2019-07-15_122054:920,-0.48300200000000004,0.022369,-0.146423,0.0020510000000000003,-0.001364,7.3e-05,-34.369999,19.559998999999998,-9.37,2c
2019-07-15_122054:940,-0.484497,0.024902,-0.144897,0.00321,0.000131,-1.9e-05,-34.369999,19.559998999999998,-9.37,2c
2019-07-15_122054:960,-0.48196400000000006,0.029968,-0.142853,0.003394,0.000986,0.0008359999999999999,-34.0,19.25,-7.87,2c
2019-07-15_122054:980,-0.477386,0.033539,-0.139282,0.002997,0.001657,0.0023,-34.0,19.25,-7.87,2c
2019-07-15_122055:000,-0.476379,0.03302,-0.140808,0.002325,0.001199,0.0032159999999999997,-34.369999,19.559998999999998,-9.37,2c
2019-07-15_122055:020,-0.475861,0.030487,-0.139801,0.00144,0.000772,0.004070000000000001,-34.369999,19.559998999999998,-9.37,2c
2019-07-15_122055:040,-0.475861,0.030487,-0.139282,0.001044,0.000131,0.004222999999999999,-34.369999,19.559998999999998,-9.37,2c
2019-07-15_122055:060,-0.47842399999999996,0.027435,-0.14032,0.0008300000000000001,-0.000327,0.004222999999999999,-34.0,19.559998999999998,-8.56,2c
2019-07-15_122055:080,-0.48300200000000004,0.026917,-0.138275,0.000586,0.00025299999999999997,0.004193,-34.0,19.559998999999998,-8.56,2c
2019-07-15_122055:100,-0.48095699999999997,0.025908999999999998,-0.138275,0.0004940000000000001,0.000192,0.0042840000000000005,-35.060001,19.25,-8.56,2c
2019-07-15_122055:120,-0.47842399999999996,0.022858,-0.13623,0.0009519999999999999,0.000589,0.0033380000000000003,-35.060001,19.25,-8.56,2c
2019-07-15_122055:140,-0.477905,0.023375999999999997,-0.137268,0.001349,0.000375,0.002728,-35.060001,19.25,-8.56,2c
2019-07-15_122055:160,-0.477905,0.022858,-0.13623,0.001807,-2.1e-05,0.002361,-34.369999,19.25,-9.37,2c
2019-07-15_122055:180,-0.47842399999999996,0.025908999999999998,-0.135223,0.002264,-8.2e-05,0.0020559999999999997,-34.369999,19.25,-9.37,2c
2019-07-15_122055:200,-0.477386,0.027954000000000003,-0.13623,0.002325,-0.000143,0.0024530000000000003,-34.75,19.559998999999998,-8.56,2c
2019-07-15_122055:220,-0.47842399999999996,0.029480000000000003,-0.135742,0.001929,-0.000479,0.002758,-34.75,19.559998999999998,-8.56,2c
2019-07-15_122055:240,-0.477386,0.029968,-0.137268,0.001715,-0.000784,0.002758,-34.75,19.559998999999998,-8.56,2c
2019-07-15_122055:260,-0.47689799999999993,0.029480000000000003,-0.13623,0.0015630000000000002,-0.000723,0.0028190000000000003,-34.0,18.870001000000002,-9.0,2c
2019-07-15_122055:280,-0.475861,0.028442000000000002,-0.13623,0.001349,-0.001242,0.00288,-34.0,18.870001000000002,-9.0,2c
2019-07-15_122055:300,-0.477386,0.028961,-0.136749,0.001227,-0.001364,0.003002,-34.75,19.25,-9.0,2c
2019-07-15_122055:320,-0.477905,0.026917,-0.137268,0.001166,-0.001761,0.002941,-34.75,19.25,-9.0,2c
2019-07-15_122055:340,-0.47842399999999996,0.026427999999999997,-0.138275,0.001227,-0.001761,0.0028190000000000003,-34.75,19.25,-9.0,2c
2019-07-15_122055:360,-0.477905,0.025421,-0.138794,0.0016239999999999998,-0.001578,0.002758,-34.369999,19.25,-9.0,2c
2019-07-15_122055:380,-0.47842399999999996,0.025421,-0.138794,0.001929,-0.0018219999999999998,0.0028190000000000003,-34.369999,19.25,-9.0,2c
2019-07-15_122055:400,-0.477386,0.027435,-0.140808,0.0020510000000000003,-0.001761,0.0028190000000000003,-35.060001,19.25,-9.75,2c
2019-07-15_122055:420,-0.477905,0.027435,-0.14032,0.002081,-0.001852,0.0028190000000000003,-35.060001,19.25,-9.75,2c
2019-07-15_122055:440,-0.47943100000000005,0.027954000000000003,-0.14032,0.0021420000000000002,-0.001852,0.0028190000000000003,-35.060001,19.25,-9.75,2c
2019-07-15_122055:460,-0.478912,0.029480000000000003,-0.139801,0.002081,-0.001913,0.0028190000000000003,-34.369999,18.870001000000002,-9.37,2c
2019-07-15_122055:480,-0.478912,0.028961,-0.139282,0.001685,-0.001456,0.0028190000000000003,-34.369999,18.870001000000002,-9.37,2c
2019-07-15_122055:500,-0.478912,0.029968,-0.139282,0.0015630000000000002,-0.00112,0.002575,-34.75,19.559998999999998,-9.37,2c
2019-07-15_122055:520,-0.477386,0.027954000000000003,-0.141327,0.001288,-0.001364,0.002636,-34.75,19.559998999999998,-9.37,2c
2019-07-15_122055:540,-0.477905,0.027954000000000003,-0.141327,0.001105,-0.001425,0.002728,-34.75,19.559998999999998,-9.37,2c
2019-07-15_122055:560,-0.47689799999999993,0.027435,-0.142853,0.001105,-0.001578,0.0026969999999999997,-35.060001,18.870001000000002,-9.75,2c
2019-07-15_122055:580,-0.47689799999999993,0.026917,-0.140808,0.0015630000000000002,-0.001303,0.0026969999999999997,-35.060001,18.870001000000002,-9.75,2c
2019-07-15_122055:600,-0.478912,0.027954000000000003,-0.141846,0.001929,-0.001364,0.002728,-35.060001,19.559998999999998,-9.75,2c
2019-07-15_122055:620,-0.47842399999999996,0.028442000000000002,-0.141846,0.001715,-0.001242,0.0026969999999999997,-35.060001,19.559998999999998,-9.75,2c
2019-07-15_122055:640,-0.47995,0.028442000000000002,-0.138794,0.0017460000000000002,-0.000723,0.002758,-35.060001,19.559998999999998,-9.75,2c
2019-07-15_122055:660,-0.47995,0.026427999999999997,-0.139801,0.001807,-0.0008449999999999999,0.0028190000000000003,-34.75,19.559998999999998,-9.37,2c
2019-07-15_122055:680,-0.478912,0.027954000000000003,-0.139801,0.0015630000000000002,-0.0006929999999999999,0.002728,-34.75,19.559998999999998,-9.37,2c
2019-07-15_122055:700,-0.475861,0.026917,-0.141327,0.001715,-0.0010279999999999998,0.0024530000000000003,-34.369999,19.559998999999998,-11.0,2c
2019-07-15_122055:720,-0.475372,0.026917,-0.142334,0.0020510000000000003,-0.001181,0.002361,-34.369999,19.559998999999998,-11.0,2c
2019-07-15_122055:740,-0.475372,0.026427999999999997,-0.14386,0.00199,-0.001517,0.0021780000000000002,-34.369999,19.559998999999998,-11.0,2c
2019-07-15_122055:760,-0.477905,0.027954000000000003,-0.142334,0.002448,-0.001456,0.002117,-34.369999,19.559998999999998,-10.18,2c
2019-07-15_122055:780,-0.477905,0.027435,-0.141846,0.002448,-0.0018219999999999998,0.0023,-34.369999,19.559998999999998,-10.18,2c
2019-07-15_122055:800,-0.47995,0.031006,-0.144379,0.002539,-0.001517,0.0024530000000000003,-34.369999,19.25,-8.18,2c
2019-07-15_122055:820,-0.478912,0.029968,-0.144379,0.002386,-0.001364,0.002728,-34.369999,19.25,-8.18,2c
2019-07-15_122055:840,-0.477386,0.029968,-0.143372,0.0020510000000000003,-0.001181,0.002636,-34.369999,19.25,-8.18,2c
2019-07-15_122055:860,-0.475861,0.030487,-0.143372,0.001807,-0.001425,0.002514,-34.75,19.25,-10.56,2c
2019-07-15_122055:880,-0.47689799999999993,0.029968,-0.142334,0.0015630000000000002,-0.001456,0.002636,-34.75,19.25,-10.56,2c
2019-07-15_122055:900,-0.477905,0.029480000000000003,-0.14386,0.0015630000000000002,-0.001517,0.002636,-34.75,19.25,-10.56,2c
2019-07-15_122055:920,-0.478912,0.029968,-0.142334,0.0015630000000000002,-0.00112,0.0031550000000000003,-35.5,18.870001000000002,-9.0,2c
2019-07-15_122055:940,-0.478912,0.027435,-0.143372,0.001227,-0.00112,0.0032770000000000004,-35.5,18.870001000000002,-9.0,2c
2019-07-15_122055:960,-0.477386,0.026427999999999997,-0.142853,0.00144,-0.000784,0.002361,-33.560001,18.5,-9.37,2c
2019-07-15_122055:980,-0.477386,0.027954000000000003,-0.142853,0.001715,-0.001059,0.001995,-33.560001,18.5,-9.37,2c
2019-07-15_122056:000,-0.477386,0.028961,-0.143372,0.00199,-0.001425,0.002239,-33.560001,18.5,-9.37,2c
2019-07-15_122056:020,-0.477386,0.029480000000000003,-0.14386,0.0021420000000000002,-0.001364,0.002361,-35.060001,19.25,-9.75,2c
2019-07-15_122056:040,-0.477386,0.028961,-0.144379,0.002264,-0.00112,0.002728,-35.060001,19.25,-9.75,2c
2019-07-15_122056:060,-0.47842399999999996,0.031006,-0.144897,0.002264,-0.000784,0.0026969999999999997,-34.0,19.25,-10.18,2c
2019-07-15_122056:080,-0.47842399999999996,0.031006,-0.143372,0.00199,-0.001059,0.002728,-34.0,19.25,-10.18,2c
2019-07-15_122056:100,-0.47689799999999993,0.029968,-0.14386,0.001807,-0.001181,0.002636,-34.0,19.25,-10.18,2c
2019-07-15_122056:120,-0.477386,0.031494,-0.143372,0.001685,-0.000906,0.002636,-34.75,19.25,-9.0,2c
2019-07-15_122056:140,-0.475861,0.031006,-0.143372,0.001685,-0.000906,0.002636,-34.75,19.25,-9.0,2c
2019-07-15_122056:160,-0.475861,0.028961,-0.144379,0.0016239999999999998,-0.000906,0.002636,-34.369999,18.870001000000002,-9.75,2c
2019-07-15_122056:180,-0.47689799999999993,0.029968,-0.143372,0.001715,-0.0010279999999999998,0.0026969999999999997,-34.369999,18.870001000000002,-9.75,2c
2019-07-15_122056:200,-0.477386,0.029480000000000003,-0.143372,0.001715,-0.001425,0.0026969999999999997,-34.369999,18.870001000000002,-9.75,2c
2019-07-15_122056:220,-0.476379,0.028961,-0.143372,0.0017460000000000002,-0.001181,0.00288,-35.060001,18.870001000000002,-8.56,2c
2019-07-15_122056:240,-0.47689799999999993,0.031006,-0.143372,0.001807,-0.000906,0.003002,-35.060001,18.870001000000002,-8.56,2c
2019-07-15_122056:260,-0.47689799999999993,0.031006,-0.145386,0.001929,-0.001059,0.0028190000000000003,-35.060001,19.25,-9.75,2c
2019-07-15_122056:280,-0.477386,0.029968,-0.143372,0.0016239999999999998,-0.000967,0.0028190000000000003,-35.060001,19.25,-9.75,2c
2019-07-15_122056:300,-0.476379,0.029968,-0.144379,0.00144,-0.000906,0.002758,-35.060001,19.25,-9.75,2c
2019-07-15_122056:320,-0.476379,0.028961,-0.143372,0.001166,-0.0008449999999999999,0.002728,-34.0,19.25,-10.56,2c
2019-07-15_122056:340,-0.476379,0.028961,-0.144897,0.001379,-0.00112,0.0026969999999999997,-34.0,19.25,-10.56,2c
2019-07-15_122056:360,-0.476379,0.029480000000000003,-0.145386,0.001685,-0.00112,0.0028190000000000003,-34.369999,18.870001000000002,-9.37,2c
2019-07-15_122056:380,-0.477386,0.028442000000000002,-0.144897,0.001227,-0.001578,0.00288,-34.369999,18.870001000000002,-9.37,2c
2019-07-15_122056:400,-0.477905,0.028961,-0.145386,0.001685,-0.0008449999999999999,0.002728,-34.369999,18.870001000000002,-9.37,2c
2019-07-15_122056:420,-0.477905,0.029480000000000003,-0.144379,0.001501,-0.0010279999999999998,0.002941,-34.75,18.870001000000002,-9.75,2c
2019-07-15_122056:440,-0.47842399999999996,0.029480000000000003,-0.144379,0.00144,-0.000784,0.00288,-34.75,18.870001000000002,-9.75,2c
2019-07-15_122056:460,-0.47689799999999993,0.028442000000000002,-0.143372,0.001715,-0.000662,0.002514,-35.060001,19.25,-9.75,2c
2019-07-15_122056:480,-0.475372,0.028961,-0.142853,0.00199,-0.000784,0.00288,-35.060001,19.25,-9.75,2c
2019-07-15_122056:500,-0.47180200000000005,0.028961,-0.14386,0.00199,-0.000784,0.00346,-35.060001,19.25,-9.75,2c
2019-07-15_122056:520,-0.47433500000000006,0.028442000000000002,-0.143372,0.0018679999999999999,-0.001303,0.004070000000000001,-34.369999,19.25,-9.0,2c
2019-07-15_122056:540,-0.475372,0.027954000000000003,-0.142853,0.00199,-0.0017,0.003857,-34.369999,19.25,-9.0,2c
2019-07-15_122056:560,-0.477386,0.026917,-0.145386,0.0017460000000000002,-0.0023710000000000003,0.0034909999999999997,-35.060001,19.25,-9.75,2c
2019-07-15_122056:580,-0.475861,0.025421,-0.145386,0.001685,-0.0021579999999999998,0.002636,-35.060001,19.25,-9.75,2c
2019-07-15_122056:600,-0.475861,0.028442000000000002,-0.14843800000000001,0.001807,-0.0021579999999999998,0.0019039999999999999,-35.060001,19.25,-9.75,2c
2019-07-15_122056:620,-0.476379,0.029480000000000003,-0.14843800000000001,0.002081,-0.002097,0.0021780000000000002,-34.369999,19.25,-9.75,2c
2019-07-15_122056:640,-0.47689799999999993,0.029968,-0.14843800000000001,0.002081,-0.0023710000000000003,0.0023,-34.369999,19.25,-9.75,2c
2019-07-15_122056:660,-0.474854,0.029968,-0.14843800000000001,0.0021420000000000002,-0.001913,0.002117,-34.369999,19.25,-9.0,2c
2019-07-15_122056:680,-0.47689799999999993,0.032013,-0.149475,0.0020510000000000003,-0.001761,0.0023,-34.369999,19.25,-9.0,2c
2019-07-15_122056:700,-0.477386,0.03302,-0.149475,0.001807,-0.001578,0.0021780000000000002,-34.369999,19.25,-9.0,2c
2019-07-15_122056:720,-0.478912,0.032532,-0.149475,0.00144,-0.001364,0.002117,-34.0,18.5,-8.18,2c
2019-07-15_122056:740,-0.47689799999999993,0.031494,-0.150482,0.001105,-0.0008449999999999999,0.002117,-34.0,18.5,-8.18,2c
2019-07-15_122056:760,-0.475861,0.032013,-0.150482,0.000983,-0.000784,0.001843,-34.0,19.559998999999998,-11.37,2c
2019-07-15_122056:780,-0.477386,0.031006,-0.14743,0.001105,-0.000601,0.001782,-34.0,19.559998999999998,-11.37,2c
2019-07-15_122056:800,-0.477386,0.030487,-0.147949,0.00144,-0.000327,0.0019039999999999999,-34.0,19.559998999999998,-11.37,2c
2019-07-15_122056:820,-0.47842399999999996,0.032532,-0.145905,0.001715,-0.000266,0.0020559999999999997,-34.369999,18.5,-9.75,2c
2019-07-15_122056:840,-0.477905,0.032013,-0.145905,0.00199,0.000131,0.002117,-34.369999,18.5,-9.75,2c
2019-07-15_122056:860,-0.477905,0.032532,-0.146423,0.002264,0.000436,0.002636,-34.369999,18.870001000000002,-10.18,2c
2019-07-15_122056:880,-0.47433500000000006,0.032532,-0.144897,0.002203,0.00046699999999999997,0.0026969999999999997,-34.369999,18.870001000000002,-10.18,2c
2019-07-15_122056:900,-0.47332799999999997,0.032013,-0.145905,0.002203,0.00025299999999999997,0.002758,-34.369999,18.870001000000002,-10.18,2c
2019-07-15_122056:920,-0.47332799999999997,0.031494,-0.145905,0.001715,0.000131,0.002758,-34.369999,18.870001000000002,-9.0,2c
2019-07-15_122056:940,-0.473846,0.032532,-0.144379,0.0018679999999999999,-0.000204,0.0030629999999999998,-34.369999,18.870001000000002,-9.0,2c
2019-07-15_122056:960,-0.474854,0.032013,-0.144897,0.001685,-0.000204,0.0030629999999999998,-35.5,18.5,-10.18,2c
2019-07-15_122056:980,-0.475372,0.031494,-0.145386,0.001807,-0.000143,0.0030629999999999998,-35.5,18.5,-10.18,2c
2019-07-15_122057:000,-0.475861,0.032013,-0.145386,0.0015630000000000002,-0.000479,0.003094,-35.5,18.5,-10.18,2c
2019-07-15_122057:020,-0.476379,0.03302,-0.144897,0.001379,-0.000723,0.0030629999999999998,-34.75,18.870001000000002,-9.75,2c
2019-07-15_122057:040,-0.47689799999999993,0.03302,-0.145386,0.001227,-0.000784,0.003002,-34.75,18.870001000000002,-9.75,2c
2019-07-15_122057:060,-0.477905,0.033539,-0.145905,0.000983,-0.000784,0.002941,-34.0,19.25,-10.56,2c
2019-07-15_122057:080,-0.47842399999999996,0.032013,-0.143372,0.0008300000000000001,-0.000662,0.003002,-34.0,19.25,-10.56,2c
2019-07-15_122057:100,-0.47689799999999993,0.034058,-0.146423,0.000708,-0.000266,0.0031550000000000003,-34.0,19.25,-10.56,2c
2019-07-15_122057:120,-0.47689799999999993,0.03302,-0.145386,0.00022,-0.00041799999999999997,0.0030629999999999998,-34.0,19.25,-10.56,2c
2019-07-15_122057:140,-0.475861,0.032013,-0.144897,0.00015900000000000002,-0.000662,0.0031550000000000003,-34.0,19.25,-10.56,2c
2019-07-15_122057:160,-0.475861,0.033539,-0.144897,3.7e-05,-0.00041799999999999997,0.003399,-34.75,19.25,-9.75,2c
2019-07-15_122057:180,-0.475372,0.031006,-0.144379,0.00022,-0.000784,0.0034909999999999997,-34.75,19.25,-9.75,2c
2019-07-15_122057:200,-0.47433500000000006,0.031494,-0.144897,-0.000146,-0.001303,0.0030629999999999998,-34.75,19.25,-9.75,2c
2019-07-15_122057:220,-0.474854,0.032013,-0.145386,0.00031099999999999997,-0.001364,0.003002,-34.75,19.25,-9.0,2c
2019-07-15_122057:240,-0.475861,0.030487,-0.144379,0.000433,-0.001517,0.0033380000000000003,-34.75,19.25,-9.0,2c
2019-07-15_122057:260,-0.475372,0.031494,-0.144379,0.000769,-0.001639,0.003857,-33.560001,19.25,-9.0,2c
2019-07-15_122057:280,-0.476379,0.031006,-0.145386,0.000983,-0.001639,0.004222999999999999,-33.560001,19.25,-9.0,2c
2019-07-15_122057:300,-0.474854,0.029480000000000003,-0.146423,0.000891,-0.001913,0.0044670000000000005,-33.560001,19.25,-9.0,2c
2019-07-15_122057:320,-0.475372,0.027954000000000003,-0.146423,0.0008300000000000001,-0.0017,0.004009,-34.75,19.25,-9.75,2c
2019-07-15_122057:340,-0.47433500000000006,0.027954000000000003,-0.147949,0.0009519999999999999,-0.002097,0.0036130000000000003,-34.75,19.25,-9.75,2c
2019-07-15_122057:360,-0.475861,0.026427999999999997,-0.14743,0.001227,-0.002036,0.0033380000000000003,-34.75,19.559998999999998,-10.56,2c
2019-07-15_122057:380,-0.477386,0.026917,-0.146912,0.0016239999999999998,-0.002036,0.0028190000000000003,-34.75,19.559998999999998,-10.56,2c
2019-07-15_122057:400,-0.477386,0.027954000000000003,-0.147949,0.0017460000000000002,-0.001852,0.002758,-34.75,19.559998999999998,-10.56,2c
2019-07-15_122057:420,-0.477386,0.028961,-0.14843800000000001,0.002325,-0.001852,0.003094,-34.75,18.5,-11.0,2c
2019-07-15_122057:440,-0.475372,0.029968,-0.147949,0.0021420000000000002,-0.001578,0.0031550000000000003,-34.75,18.5,-11.0,2c
2019-07-15_122057:460,-0.47689799999999993,0.030487,-0.147949,0.002081,-0.001456,0.0031550000000000003,-34.369999,18.870001000000002,-9.75,2c
2019-07-15_122057:480,-0.474854,0.031006,-0.146912,0.0017460000000000002,-0.001425,0.003399,-34.369999,18.870001000000002,-9.75,2c
2019-07-15_122057:500,-0.473846,0.031006,-0.14843800000000001,0.001501,-0.002036,0.003002,-34.369999,18.870001000000002,-9.75,2c
2019-07-15_122057:520,-0.475372,0.031006,-0.151001,0.001501,-0.00231,0.002361,-34.75,19.25,-9.75,2c
2019-07-15_122057:540,-0.476379,0.032013,-0.151489,0.0015630000000000002,-0.002554,0.0021780000000000002,-34.75,19.25,-9.75,2c
2019-07-15_122057:560,-0.47689799999999993,0.03302,-0.152527,0.0017460000000000002,-0.0022489999999999997,0.0023,-34.75,19.25,-9.37,2c
2019-07-15_122057:580,-0.47842399999999996,0.032532,-0.150482,0.0017460000000000002,-0.001517,0.0026969999999999997,-34.75,19.25,-9.37,2c
2019-07-15_122057:600,-0.475861,0.034546,-0.150482,0.001685,-0.000967,0.002941,-34.75,19.25,-9.37,2c
2019-07-15_122057:620,-0.47433500000000006,0.034546,-0.151001,0.0016239999999999998,-0.000723,0.0032159999999999997,-34.0,19.559998999999998,-9.37,2c
2019-07-15_122057:640,-0.475861,0.034058,-0.149475,0.001227,-0.000906,0.0032159999999999997,-34.0,19.559998999999998,-9.37,2c
2019-07-15_122057:660,-0.474854,0.03302,-0.150482,0.001105,-0.000601,0.0032159999999999997,-34.0,19.25,-10.56,2c
2019-07-15_122057:680,-0.474854,0.03302,-0.149475,0.000647,-0.000784,0.0032770000000000004,-34.0,19.25,-10.56,2c
2019-07-15_122057:700,-0.474854,0.029968,-0.151489,0.0008300000000000001,-0.001059,0.003399,-34.0,19.25,-10.56,2c
2019-07-15_122057:720,-0.477386,0.028442000000000002,-0.149963,0.000891,-0.001242,0.0034909999999999997,-33.560001,18.5,-10.56,2c
2019-07-15_122057:740,-0.475861,0.029968,-0.149963,0.000983,-0.000723,0.004009,-33.560001,18.5,-10.56,2c
2019-07-15_122057:760,-0.476379,0.027954000000000003,-0.149963,0.001044,-0.00041799999999999997,0.004009,-34.0,19.25,-10.56,2c
2019-07-15_122057:780,-0.47433500000000006,0.027435,-0.149963,0.001227,-0.000601,0.0033380000000000003,-34.0,19.25,-10.56,2c
2019-07-15_122057:800,-0.473846,0.026917,-0.151001,0.001501,-0.0006929999999999999,0.003399,-34.0,19.25,-10.56,2c
2019-07-15_122057:820,-0.473846,0.027954000000000003,-0.149475,0.001715,-0.0006929999999999999,0.0032159999999999997,-34.0,18.870001000000002,-9.75,2c
2019-07-15_122057:840,-0.475372,0.027954000000000003,-0.149475,0.00199,-0.000967,0.0032159999999999997,-34.0,18.870001000000002,-9.75,2c
2019-07-15_122057:860,-0.47433500000000006,0.027435,-0.149963,0.0018679999999999999,-0.000906,0.0032770000000000004,-34.369999,18.5,-10.18,2c
2019-07-15_122057:880,-0.475861,0.028442000000000002,-0.147949,0.00199,-0.000601,0.003002,-34.369999,18.5,-10.18,2c
2019-07-15_122057:900,-0.47433500000000006,0.028442000000000002,-0.149963,0.0020510000000000003,-0.000601,0.0028190000000000003,-34.369999,18.5,-10.18,2c
2019-07-15_122057:920,-0.473846,0.027435,-0.151001,0.002264,-0.000723,0.002636,-34.369999,18.870001000000002,-9.37,2c
2019-07-15_122057:940,-0.473846,0.027435,-0.151489,0.002081,-0.000906,0.0023,-34.369999,18.870001000000002,-9.37,2c
2019-07-15_122057:960,-0.473846,0.029480000000000003,-0.151001,0.002203,-0.0010279999999999998,0.0020559999999999997,-34.75,18.5,-10.56,2c
2019-07-15_122057:980,-0.475861,0.030487,-0.150482,0.002448,-0.001242,0.001995,-34.75,18.5,-10.56,2c
2019-07-15_122058:000,-0.477386,0.029968,-0.151489,0.0026609999999999997,-0.000784,0.001995,-34.75,18.5,-10.56,2c
2019-07-15_122058:020,-0.476379,0.034058,-0.152527,0.002448,-0.0006929999999999999,0.002117,-34.75,19.25,-9.75,2c
2019-07-15_122058:040,-0.47689799999999993,0.033539,-0.152008,0.0020510000000000003,-0.000327,0.0020559999999999997,-34.75,19.25,-9.75,2c
2019-07-15_122058:060,-0.474854,0.033539,-0.151489,0.0018679999999999999,-0.000266,0.002117,-35.060001,19.25,-10.56,2c
2019-07-15_122058:080,-0.47433500000000006,0.032532,-0.149475,0.00144,-0.000266,0.002392,-35.060001,19.25,-10.56,2c
2019-07-15_122058:100,-0.47280900000000003,0.031494,-0.150482,0.001501,-0.000266,0.0023,-35.060001,19.25,-10.56,2c
2019-07-15_122058:120,-0.473846,0.031006,-0.151001,0.001715,-0.000266,0.0024530000000000003,-34.75,19.559998999999998,-10.56,2c
2019-07-15_122058:140,-0.47433500000000006,0.032013,-0.149475,0.0018679999999999999,-0.000143,0.002392,-34.75,19.559998999999998,-10.56,2c
2019-07-15_122058:160,-0.473846,0.031006,-0.150482,0.00199,-0.000357,0.002636,-34.0,18.870001000000002,-10.56,2c
2019-07-15_122058:180,-0.47332799999999997,0.032532,-0.148956,0.002264,-0.000662,0.002636,-34.0,18.870001000000002,-10.56,2c
2019-07-15_122058:200,-0.47332799999999997,0.032013,-0.150482,0.002386,-0.000906,0.002636,-34.0,18.870001000000002,-10.56,2c
2019-07-15_122058:220,-0.474854,0.033539,-0.149475,0.002264,-0.0010279999999999998,0.002758,-34.0,19.25,-10.56,2c
2019-07-15_122058:240,-0.47433500000000006,0.032013,-0.149963,0.0018679999999999999,-0.0008449999999999999,0.002758,-34.0,19.25,-10.56,2c
2019-07-15_122058:260,-0.47433500000000006,0.034058,-0.151001,0.001807,-0.000967,0.0028190000000000003,-34.369999,18.870001000000002,-10.56,2c
2019-07-15_122058:280,-0.476379,0.03302,-0.151001,0.001807,-0.0010279999999999998,0.002941,-34.369999,18.870001000000002,-10.56,2c
2019-07-15_122058:300,-0.474854,0.032532,-0.151001,0.0018679999999999999,-0.000662,0.003094,-34.369999,18.870001000000002,-10.56,2c
2019-07-15_122058:320,-0.475372,0.032532,-0.151001,0.00144,-0.000784,0.0032770000000000004,-34.75,18.870001000000002,-10.56,2c
2019-07-15_122058:340,-0.476379,0.03302,-0.148956,0.00144,-0.000662,0.0034909999999999997,-34.75,18.870001000000002,-10.56,2c
2019-07-15_122058:360,-0.475372,0.032532,-0.149963,0.001105,-0.000784,0.003399,-34.75,19.25,-10.18,2c
2019-07-15_122058:380,-0.473846,0.030487,-0.150482,0.0008300000000000001,-0.0008449999999999999,0.00288,-34.75,19.25,-10.18,2c
2019-07-15_122058:400,-0.473846,0.031006,-0.152008,0.000983,-0.0010279999999999998,0.0024530000000000003,-34.75,19.25,-10.18,2c
2019-07-15_122058:420,-0.474854,0.031006,-0.152527,0.001379,-0.000967,0.002636,-34.0,19.25,-10.18,2c
2019-07-15_122058:440,-0.473846,0.031494,-0.151489,0.0016239999999999998,-0.00112,0.00288,-34.0,19.25,-10.18,2c
2019-07-15_122058:460,-0.475372,0.031494,-0.153534,0.0018679999999999999,-0.000784,0.0032159999999999997,-34.0,19.25,-10.56,2c
2019-07-15_122058:480,-0.47332799999999997,0.031006,-0.152527,0.001929,-0.00054,0.003399,-34.0,19.25,-10.56,2c
2019-07-15_122058:500,-0.47280900000000003,0.032532,-0.151489,0.002081,-0.000723,0.0034909999999999997,-34.0,19.25,-10.56,2c
2019-07-15_122058:520,-0.47280900000000003,0.032013,-0.151489,0.001715,-0.0010279999999999998,0.0034909999999999997,-34.75,19.25,-9.37,2c
2019-07-15_122058:540,-0.474854,0.031006,-0.151489,0.001501,-0.001059,0.0033380000000000003,-34.75,19.25,-9.37,2c
2019-07-15_122058:560,-0.47689799999999993,0.029968,-0.152008,0.001166,-0.000906,0.0031550000000000003,-34.369999,18.870001000000002,-10.18,2c
2019-07-15_122058:580,-0.477386,0.029968,-0.151489,0.001166,-0.00054,0.002758,-34.369999,18.870001000000002,-10.18,2c
2019-07-15_122058:600,-0.477386,0.029968,-0.151001,0.001166,-0.00041799999999999997,0.002941,-34.369999,18.870001000000002,-10.18,2c
2019-07-15_122058:620,-0.475861,0.031006,-0.151001,0.001501,-0.000266,0.0033380000000000003,-34.369999,19.559998999999998,-11.37,2c
2019-07-15_122058:640,-0.47332799999999997,0.028961,-0.148956,0.001501,-0.000266,0.002941,-34.369999,19.559998999999998,-11.37,2c
2019-07-15_122058:660,-0.473846,0.029968,-0.149963,0.001685,-0.000662,0.002636,-34.0,19.25,-9.0,2c
2019-07-15_122058:680,-0.475372,0.030487,-0.14843800000000001,0.001715,-0.000662,0.0024530000000000003,-34.0,19.25,-9.0,2c
2019-07-15_122058:700,-0.47280900000000003,0.029968,-0.149963,0.001929,-0.000662,0.002392,-34.0,19.25,-9.0,2c
2019-07-15_122058:720,-0.472321,0.030487,-0.150482,0.002081,-0.0010279999999999998,0.002728,-34.0,19.25,-10.18,2c
2019-07-15_122058:740,-0.47332799999999997,0.030487,-0.149475,0.0021420000000000002,-0.001181,0.002758,-34.0,19.25,-10.18,2c
2019-07-15_122058:760,-0.47433500000000006,0.030487,-0.150482,0.002264,-0.001181,0.002941,-34.369999,18.870001000000002,-10.56,2c
2019-07-15_122058:780,-0.476379,0.031494,-0.151489,0.0021420000000000002,-0.001242,0.002728,-34.369999,18.870001000000002,-10.56,2c
2019-07-15_122058:800,-0.474854,0.031494,-0.151489,0.002081,-0.001303,0.0026969999999999997,-34.369999,18.870001000000002,-10.56,2c
2019-07-15_122058:820,-0.474854,0.031006,-0.152527,0.00199,-0.00112,0.0023,-34.0,19.559998999999998,-11.0,2c
2019-07-15_122058:840,-0.47433500000000006,0.031494,-0.151489,0.0018679999999999999,-0.000906,0.0021780000000000002,-34.0,19.559998999999998,-11.0,2c
2019-07-15_122058:860,-0.47332799999999997,0.031494,-0.152008,0.0020510000000000003,-0.001242,0.0019649999999999997,-35.060001,18.870001000000002,-11.37,2c
2019-07-15_122058:880,-0.473846,0.03302,-0.153015,0.002264,-0.0010279999999999998,0.001995,-35.060001,18.870001000000002,-11.37,2c
2019-07-15_122058:900,-0.47433500000000006,0.034546,-0.153015,0.0021420000000000002,-0.001181,0.002239,-35.060001,18.870001000000002,-11.37,2c
2019-07-15_122058:920,-0.474854,0.034058,-0.152527,0.00199,-0.000784,0.002514,-34.75,18.870001000000002,-10.56,2c
2019-07-15_122058:940,-0.475861,0.034546,-0.152527,0.001715,-0.000601,0.002514,-34.75,18.870001000000002,-10.56,2c
2019-07-15_122058:960,-0.47332799999999997,0.035065,-0.152008,0.001379,-0.000784,0.002758,-35.060001,18.5,-11.0,2c
2019-07-15_122058:980,-0.47332799999999997,0.03302,-0.153015,0.001166,-0.000723,0.002575,-35.060001,18.5,-11.0,2c
2019-07-15_122059:000,-0.47332799999999997,0.032532,-0.152527,0.000769,-0.0008449999999999999,0.002514,-35.060001,18.5,-11.0,2c
2019-07-15_122059:020,-0.47433500000000006,0.032532,-0.153015,0.000983,-0.000784,0.0026969999999999997,-34.369999,19.25,-9.37,2c
2019-07-15_122059:040,-0.474854,0.032013,-0.151001,0.001349,-0.000723,0.0028190000000000003,-34.369999,19.25,-9.37,2c
2019-07-15_122059:060,-0.475861,0.032532,-0.152527,0.001501,-0.00054,0.003094,-34.369999,18.5,-10.18,2c
2019-07-15_122059:080,-0.474854,0.03302,-0.152527,0.001685,-0.000266,0.0031550000000000003,-34.369999,18.5,-10.18,2c
2019-07-15_122059:100,-0.47332799999999997,0.03302,-0.149963,0.001715,-0.00041799999999999997,0.0031550000000000003,-34.369999,18.5,-10.18,2c
2019-07-15_122059:120,-0.47280900000000003,0.032532,-0.151489,0.0015630000000000002,-0.00054,0.00288,-34.369999,18.870001000000002,-11.68,2c
2019-07-15_122059:140,-0.47433500000000006,0.032013,-0.151489,0.001685,-0.000479,0.0028190000000000003,-34.369999,18.870001000000002,-11.68,2c
2019-07-15_122059:160,-0.475372,0.03302,-0.151489,0.001227,-0.000723,0.0030629999999999998,-34.369999,18.5,-9.75,2c
2019-07-15_122059:180,-0.473846,0.03302,-0.152008,0.001379,-0.0008449999999999999,0.0030629999999999998,-34.369999,18.5,-9.75,2c
2019-07-15_122059:200,-0.474854,0.03302,-0.151489,0.0009519999999999999,-0.000662,0.003002,-34.369999,18.5,-9.75,2c
2019-07-15_122059:220,-0.475861,0.03302,-0.151001,0.001166,-0.0006929999999999999,0.0028190000000000003,-34.369999,19.25,-10.18,2c
2019-07-15_122059:240,-0.474854,0.032013,-0.150482,0.000983,-0.000662,0.0028190000000000003,-34.369999,19.25,-10.18,2c
2019-07-15_122059:260,-0.47332799999999997,0.032013,-0.151001,0.001044,-0.000967,0.002758,-33.560001,19.25,-10.18,2c
2019-07-15_122059:280,-0.47433500000000006,0.032013,-0.154022,0.001379,-0.000784,0.002117,-33.560001,19.25,-10.18,2c
2019-07-15_122059:300,-0.473846,0.031006,-0.153534,0.001685,-0.0010279999999999998,0.002361,-33.560001,19.25,-10.18,2c
2019-07-15_122059:320,-0.472321,0.032532,-0.153015,0.0018679999999999999,-0.00112,0.002514,-34.369999,18.870001000000002,-10.18,2c
2019-07-15_122059:340,-0.47332799999999997,0.03302,-0.151489,0.002203,-0.0010279999999999998,0.002758,-34.369999,18.870001000000002,-10.18,2c
2019-07-15_122059:360,-0.47180200000000005,0.033539,-0.152527,0.002264,-0.000906,0.003002,-34.369999,18.870001000000002,-10.18,2c
2019-07-15_122059:380,-0.47332799999999997,0.033539,-0.152008,0.002325,-0.000967,0.0031550000000000003,-35.5,18.5,-10.18,2c
2019-07-15_122059:400,-0.47433500000000006,0.035065,-0.152008,0.001807,-0.001059,0.0032770000000000004,-35.5,18.5,-10.18,2c
2019-07-15_122059:420,-0.475372,0.033539,-0.153015,0.001288,-0.00112,0.003002,-34.75,18.18,-10.18,2c
2019-07-15_122059:440,-0.475372,0.032532,-0.153534,0.001227,-0.001242,0.002941,-34.75,18.18,-10.18,2c
2019-07-15_122059:460,-0.475372,0.034546,-0.154022,0.001044,-0.001364,0.0026969999999999997,-34.369999,19.559998999999998,-10.56,2c
2019-07-15_122059:480,-0.47689799999999993,0.033539,-0.154541,0.001166,-0.0008449999999999999,0.002941,-34.369999,19.559998999999998,-10.56,2c
2019-07-15_122059:500,-0.47433500000000006,0.034058,-0.152527,0.001379,-0.000662,0.0034909999999999997,-34.369999,19.559998999999998,-10.56,2c
2019-07-15_122059:520,-0.475372,0.032532,-0.152527,0.001105,-0.000266,0.003735,-35.060001,19.25,-10.56,2c
2019-07-15_122059:540,-0.47332799999999997,0.03302,-0.151489,0.001105,-0.000479,0.003399,-35.060001,19.25,-10.56,2c
2019-07-15_122059:560,-0.47332799999999997,0.032013,-0.152527,0.001105,-0.000601,0.003094,-35.060001,19.25,-10.56,2c
2019-07-15_122059:580,-0.473846,0.031494,-0.152527,0.001288,-0.0006929999999999999,0.002941,-35.5,19.25,-9.37,2c
2019-07-15_122059:600,-0.472321,0.030487,-0.153015,0.000983,-0.000723,0.0030629999999999998,-35.5,19.25,-9.37,2c
2019-07-15_122059:620,-0.47332799999999997,0.031006,-0.153015,0.0015630000000000002,-0.0008449999999999999,0.003094,-33.560001,20.0,-9.75,2c
2019-07-15_122059:640,-0.47332799999999997,0.032532,-0.150482,0.001685,-0.000967,0.0028190000000000003,-33.560001,20.0,-9.75,2c
2019-07-15_122059:660,-0.47280900000000003,0.03302,-0.152527,0.002203,-0.000906,0.002758,-33.560001,20.0,-9.75,2c
2019-07-15_122059:680,-0.47332799999999997,0.033539,-0.153015,0.0020510000000000003,-0.00112,0.0026969999999999997,-35.5,19.25,-10.56,2c
2019-07-15_122059:700,-0.474854,0.034058,-0.152008,0.0017460000000000002,-0.001242,0.0026969999999999997,-35.5,19.25,-10.56,2c
2019-07-15_122059:720,-0.475372,0.033539,-0.15506,0.001349,-0.0010279999999999998,0.00288,-35.060001,18.870001000000002,-11.0,2c
2019-07-15_122059:740,-0.473846,0.033539,-0.154022,0.001501,-0.00112,0.0030629999999999998,-35.060001,18.870001000000002,-11.0,2c
2019-07-15_122059:760,-0.47332799999999997,0.03302,-0.154541,0.001379,-0.001242,0.0031550000000000003,-35.060001,18.870001000000002,-11.0,2c
2019-07-15_122059:780,-0.47280900000000003,0.031494,-0.153534,0.00144,-0.001181,0.003399,-34.369999,18.870001000000002,-11.37,2c
2019-07-15_122059:800,-0.47332799999999997,0.031494,-0.152008,0.001715,-0.001303,0.002941,-34.369999,18.870001000000002,-11.37,2c
2019-07-15_122059:820,-0.47689799999999993,0.03302,-0.152527,0.0020510000000000003,-0.001456,0.002514,-34.369999,19.25,-11.0,2c
2019-07-15_122059:840,-0.47689799999999993,0.035583,-0.152008,0.002203,-0.00112,0.002514,-34.369999,19.25,-11.0,2c
2019-07-15_122059:860,-0.475372,0.036591000000000005,-0.152527,0.001929,-0.00041799999999999997,0.0026969999999999997,-34.369999,19.25,-11.0,2c
2019-07-15_122059:880,-0.47332799999999997,0.035583,-0.153534,0.00144,-0.000327,0.0032159999999999997,-34.0,19.559998999999998,-11.37,2c
2019-07-15_122059:900,-0.472321,0.035065,-0.153015,0.001044,-0.0006929999999999999,0.0034909999999999997,-34.0,19.559998999999998,-11.37,2c
2019-07-15_122059:920,-0.472321,0.033539,-0.153015,0.000708,-0.000967,0.0035520000000000005,-34.75,18.870001000000002,-9.75,2c
2019-07-15_122059:940,-0.473846,0.032532,-0.152008,0.000586,-0.00112,0.0033380000000000003,-34.75,18.870001000000002,-9.75,2c
2019-07-15_122059:960,-0.474854,0.032013,-0.154022,0.000891,-0.00112,0.0033380000000000003,-34.75,18.870001000000002,-9.75,2c
2019-07-15_122059:980,-0.47332799999999997,0.032013,-0.153015,0.001105,-0.001303,0.0035520000000000005,-34.369999,19.25,-10.18,2c
2019-07-15_122100:000,-0.47332799999999997,0.032013,-0.153534,0.001349,-0.001364,0.0036130000000000003,-34.369999,19.25,-10.18,2c
2019-07-15_122100:020,-0.47332799999999997,0.031494,-0.154541,0.0016239999999999998,-0.001364,0.003399,-34.75,18.870001000000002,-10.56,2c
2019-07-15_122100:040,-0.473846,0.032532,-0.152527,0.0016239999999999998,-0.001364,0.0032770000000000004,-34.75,18.870001000000002,-10.56,2c
2019-07-15_122100:060,-0.47332799999999997,0.03302,-0.153015,0.001501,-0.001303,0.003399,-34.75,18.870001000000002,-10.56,2c
2019-07-15_122100:080,-0.47332799999999997,0.031494,-0.154022,0.001349,-0.001364,0.0032159999999999997,-34.75,19.559998999999998,-9.37,2c
2019-07-15_122100:100,-0.475372,0.032013,-0.153015,0.001288,-0.001181,0.003094,-34.75,19.559998999999998,-9.37,2c
2019-07-15_122100:120,-0.473846,0.029480000000000003,-0.15506,0.001288,-0.0006929999999999999,0.0032159999999999997,-34.0,19.559998999999998,-11.68,2c
2019-07-15_122100:140,-0.47332799999999997,0.030487,-0.154541,0.0015630000000000002,-0.0010279999999999998,0.002728,-34.0,19.559998999999998,-11.68,2c
2019-07-15_122100:160,-0.47332799999999997,0.029968,-0.156067,0.0017460000000000002,-0.001364,0.002361,-34.0,19.559998999999998,-11.68,2c
2019-07-15_122100:180,-0.47332799999999997,0.031006,-0.156067,0.00199,-0.001456,0.002239,-34.369999,19.25,-11.37,2c
2019-07-15_122100:200,-0.472321,0.03302,-0.156586,0.002203,-0.001242,0.002514,-34.369999,19.25,-11.37,2c
2019-07-15_122100:220,-0.47280900000000003,0.033539,-0.157074,0.0021420000000000002,-0.00112,0.0026969999999999997,-34.75,18.5,-11.37,2c
2019-07-15_122100:240,-0.47332799999999997,0.03302,-0.155548,0.0018679999999999999,-0.0008449999999999999,0.002758,-34.75,18.5,-11.37,2c
2019-07-15_122100:260,-0.472321,0.034546,-0.15506,0.002081,-0.00041799999999999997,0.00288,-34.75,18.5,-11.37,2c
2019-07-15_122100:280,-0.47280900000000003,0.034058,-0.155548,0.00144,-0.000479,0.0028190000000000003,-34.369999,18.870001000000002,-9.37,2c
2019-07-15_122100:300,-0.475861,0.032532,-0.15506,0.001379,-0.000784,0.002758,-34.369999,18.870001000000002,-9.37,2c
2019-07-15_122100:320,-0.475372,0.03302,-0.154541,0.001288,-0.0008449999999999999,0.002728,-34.75,18.870001000000002,-11.37,2c
2019-07-15_122100:340,-0.47280900000000003,0.032532,-0.154022,0.001227,-0.0006929999999999999,0.002575,-34.75,18.870001000000002,-11.37,2c
2019-07-15_122100:360,-0.473846,0.032013,-0.154541,0.001379,-0.000662,0.0026969999999999997,-34.75,18.870001000000002,-11.37,2c
2019-07-15_122100:380,-0.47433500000000006,0.033539,-0.155548,0.001501,-0.000662,0.0033380000000000003,-34.369999,19.25,-11.0,2c
2019-07-15_122100:400,-0.473846,0.030487,-0.153534,0.0015630000000000002,-0.000601,0.0032159999999999997,-34.369999,19.25,-11.0,2c
2019-07-15_122100:420,-0.47180200000000005,0.030487,-0.155548,0.001807,-0.000357,0.002117,-34.75,18.870001000000002,-10.56,2c
2019-07-15_122100:440,-0.47280900000000003,0.032532,-0.155548,0.0018679999999999999,-0.00054,0.0023,-34.75,18.870001000000002,-10.56,2c
2019-07-15_122100:460,-0.47280900000000003,0.033539,-0.15506,0.002203,-0.00054,0.0028190000000000003,-34.75,18.870001000000002,-10.56,2c
2019-07-15_122100:480,-0.474854,0.033539,-0.154541,0.002203,-0.000357,0.003002,-34.0,18.5,-10.56,2c
2019-07-15_122100:500,-0.47433500000000006,0.034058,-0.153534,0.0020510000000000003,-8.2e-05,0.002758,-34.0,18.5,-10.56,2c
2019-07-15_122100:520,-0.473846,0.03302,-0.154541,0.001715,-8.2e-05,0.002636,-34.0,18.5,-9.0,2c
2019-07-15_122100:540,-0.47280900000000003,0.033539,-0.153534,0.001807,-0.000266,0.0024530000000000003,-34.0,18.5,-9.0,2c
2019-07-15_122100:560,-0.47180200000000005,0.033539,-0.154022,0.00144,-0.00054,0.0023,-34.0,18.5,-9.0,2c
2019-07-15_122100:580,-0.47180200000000005,0.032013,-0.154022,0.0015630000000000002,-0.000601,0.002361,-34.369999,18.870001000000002,-11.0,2c
2019-07-15_122100:600,-0.472321,0.033539,-0.154022,0.0015630000000000002,-0.0010279999999999998,0.002514,-34.369999,18.870001000000002,-11.0,2c
2019-07-15_122100:620,-0.473846,0.034058,-0.154541,0.001807,-0.000906,0.002514,-34.369999,18.870001000000002,-10.18,2c
2019-07-15_122100:640,-0.473846,0.035065,-0.153015,0.001685,-0.000967,0.002514,-34.369999,18.870001000000002,-10.18,2c
2019-07-15_122100:660,-0.473846,0.033539,-0.155548,0.001685,-0.0010279999999999998,0.0026969999999999997,-34.369999,18.870001000000002,-10.18,2c
2019-07-15_122100:680,-0.47280900000000003,0.035065,-0.155548,0.001807,-0.00112,0.00288,-34.369999,18.5,-10.18,2c
2019-07-15_122100:700,-0.47332799999999997,0.034546,-0.154022,0.0016239999999999998,-0.0010279999999999998,0.002941,-34.369999,18.5,-10.18,2c
2019-07-15_122100:720,-0.47332799999999997,0.034546,-0.155548,0.00144,-0.001181,0.003002,-34.369999,18.5,-10.18,2c
2019-07-15_122100:740,-0.47433500000000006,0.035065,-0.154541,0.0015630000000000002,-0.000967,0.0030629999999999998,-34.369999,18.5,-10.18,2c
2019-07-15_122100:760,-0.47433500000000006,0.035065,-0.156586,0.001349,-0.0006929999999999999,0.003094,-34.369999,18.5,-10.18,2c
2019-07-15_122100:780,-0.47332799999999997,0.033539,-0.157074,0.00144,-0.000784,0.0032159999999999997,-34.0,19.25,-11.0,2c
2019-07-15_122100:800,-0.47280900000000003,0.034058,-0.156586,0.001166,-0.000601,0.003399,-34.0,19.25,-11.0,2c
2019-07-15_122100:820,-0.47280900000000003,0.032532,-0.155548,0.001349,-0.000662,0.0033380000000000003,-34.369999,18.870001000000002,-11.68,2c
2019-07-15_122100:840,-0.472321,0.032532,-0.15506,0.001501,-0.000479,0.0032159999999999997,-34.369999,18.870001000000002,-11.68,2c
2019-07-15_122100:860,-0.473846,0.032532,-0.155548,0.0017460000000000002,-0.000784,0.003094,-34.369999,18.870001000000002,-11.68,2c
2019-07-15_122100:880,-0.473846,0.033539,-0.154541,0.001807,-0.000906,0.003094,-34.75,18.5,-9.37,2c
2019-07-15_122100:900,-0.473846,0.03302,-0.153534,0.002081,-0.00041799999999999997,0.0031550000000000003,-34.75,18.5,-9.37,2c
2019-07-15_122100:920,-0.47280900000000003,0.033539,-0.153015,0.0018679999999999999,-0.000327,0.0032770000000000004,-34.75,18.5,-11.37,2c
2019-07-15_122100:940,-0.47079499999999996,0.034058,-0.154022,0.001807,-0.000479,0.002941,-34.75,18.5,-11.37,2c
2019-07-15_122100:960,-0.47180200000000005,0.033539,-0.15506,0.001685,-0.0010279999999999998,0.002361,-34.75,18.5,-11.37,2c
2019-07-15_122100:980,-0.47433500000000006,0.034058,-0.156586,0.001501,-0.001242,0.0019649999999999997,-34.75,19.25,-11.0,2c
2019-07-15_122101:000,-0.474854,0.035583,-0.156067,0.0015630000000000002,-0.0010279999999999998,0.001995,-34.75,19.25,-11.0,2c
2019-07-15_122101:020,-0.475372,0.035065,-0.157074,0.0016239999999999998,-0.001242,0.002361,-35.060001,18.870001000000002,-10.56,2c
2019-07-15_122101:040,-0.475861,0.034546,-0.155548,0.001685,-0.0006929999999999999,0.002575,-35.060001,18.870001000000002,-10.56,2c
2019-07-15_122101:060,-0.473846,0.034058,-0.157593,0.0018679999999999999,-2.1e-05,0.0028190000000000003,-35.060001,18.870001000000002,-10.56,2c
2019-07-15_122101:080,-0.472321,0.035583,-0.156067,0.001685,-0.000143,0.0032770000000000004,-43.5,18.870001000000002,-11.37,2c
2019-07-15_122101:100,-0.47280900000000003,0.035065,-0.15506,0.0017460000000000002,0.00025299999999999997,0.0033380000000000003,-43.5,18.870001000000002,-11.37,2c
2019-07-15_122101:120,-0.472321,0.034058,-0.154541,0.0015630000000000002,0.000314,0.003399,-34.0,19.25,-10.18,2c
2019-07-15_122101:140,-0.47180200000000005,0.034058,-0.153534,0.00144,-0.000143,0.0031550000000000003,-34.0,19.25,-10.18,2c
2019-07-15_122101:160,-0.475372,0.032532,-0.154022,0.0015630000000000002,7e-05,0.002941,-34.0,19.25,-10.18,2c
2019-07-15_122101:180,-0.474854,0.032532,-0.153015,0.00144,4e-05,0.0032770000000000004,-34.75,18.5,-11.0,2c
2019-07-15_122101:200,-0.475372,0.031494,-0.153015,0.001715,7e-05,0.003674,-34.75,18.5,-11.0,2c
2019-07-15_122101:220,-0.47433500000000006,0.03302,-0.154022,0.001501,-8.2e-05,0.0030629999999999998,-34.75,18.870001000000002,-11.37,2c
2019-07-15_122101:240,-0.473846,0.03302,-0.153015,0.001715,-2.1e-05,0.0028190000000000003,-34.75,18.870001000000002,-11.37,2c
2019-07-15_122101:260,-0.47180200000000005,0.032532,-0.153015,0.001715,0.00025299999999999997,0.002728,-34.75,18.870001000000002,-11.37,2c
2019-07-15_122101:280,-0.469757,0.031494,-0.153015,0.001379,-2.1e-05,0.0030629999999999998,-34.75,18.870001000000002,-10.18,2c
2019-07-15_122101:300,-0.46875,0.029968,-0.153015,0.0015630000000000002,-0.000723,0.0031550000000000003,-34.75,18.870001000000002,-10.18,2c
2019-07-15_122101:320,-0.47079499999999996,0.029968,-0.154541,0.0018679999999999999,-0.001364,0.002941,-34.369999,18.5,-10.56,2c
2019-07-15_122101:340,-0.47332799999999997,0.031006,-0.153015,0.002264,-0.001578,0.0024530000000000003,-34.369999,18.5,-10.56,2c
2019-07-15_122101:360,-0.473846,0.031494,-0.156067,0.002722,-0.001425,0.002392,-34.369999,18.5,-10.56,2c
2019-07-15_122101:380,-0.475372,0.03302,-0.156067,0.002783,-0.0010279999999999998,0.0021780000000000002,-34.75,19.25,-9.37,2c
2019-07-15_122101:400,-0.474854,0.035065,-0.156586,0.002539,-0.0010279999999999998,0.0019649999999999997,-34.75,19.25,-9.37,2c
2019-07-15_122101:420,-0.476379,0.037108999999999996,-0.156067,0.0026,-0.00054,0.001721,-35.060001,19.25,-10.56,2c
2019-07-15_122101:440,-0.475372,0.039642000000000004,-0.154541,0.0021420000000000002,-0.000357,0.0019649999999999997,-35.060001,19.25,-10.56,2c
2019-07-15_122101:460,-0.474854,0.039124,-0.153534,0.0015630000000000002,-2.1e-05,0.002239,-35.060001,19.25,-10.56,2c
2019-07-15_122101:480,-0.47433500000000006,0.039642000000000004,-0.154022,0.000983,0.000528,0.0024530000000000003,-42.75,19.25,-11.0,2c
2019-07-15_122101:500,-0.47280900000000003,0.036072,-0.153534,0.0005549999999999999,0.000436,0.002575,-42.75,19.25,-11.0,2c
2019-07-15_122101:520,-0.47079499999999996,0.034546,-0.153015,0.001044,0.00025299999999999997,0.002636,-34.369999,18.5,-11.0,2c
2019-07-15_122101:540,-0.469757,0.033539,-0.152008,0.001105,-0.00054,0.0030629999999999998,-34.369999,18.5,-11.0,2c
2019-07-15_122101:560,-0.469757,0.032532,-0.154541,0.001685,-0.000784,0.00346,-34.369999,18.5,-11.0,2c
2019-07-15_122101:580,-0.47180200000000005,0.033539,-0.153534,0.0020510000000000003,-0.001456,0.003674,-34.369999,19.25,-9.0,2c
2019-07-15_122101:600,-0.473846,0.03302,-0.15506,0.0021420000000000002,-0.001456,0.003674,-34.369999,19.25,-9.0,2c
2019-07-15_122101:620,-0.476379,0.033539,-0.155548,0.002386,-0.001303,0.0034909999999999997,-34.75,18.870001000000002,-10.56,2c
2019-07-15_122101:640,-0.475372,0.034546,-0.154022,0.002081,-0.0006929999999999999,0.0031550000000000003,-34.75,18.870001000000002,-10.56,2c
2019-07-15_122101:660,-0.475372,0.034058,-0.156067,0.0018679999999999999,-0.000662,0.002941,-34.75,18.870001000000002,-10.56,2c
2019-07-15_122101:680,-0.475372,0.035583,-0.154541,0.001929,-0.00041799999999999997,0.003094,-34.75,18.870001000000002,-9.0,2c
2019-07-15_122101:700,-0.47280900000000003,0.036072,-0.153534,0.00144,-0.00041799999999999997,0.00346,-34.75,18.870001000000002,-9.0,2c
2019-07-15_122101:720,-0.474854,0.034058,-0.15506,0.000708,-0.000479,0.003399,-34.0,18.5,-11.0,2c
2019-07-15_122101:740,-0.473846,0.03302,-0.151001,0.00025,-0.000143,0.0033380000000000003,-34.0,18.5,-11.0,2c
2019-07-15_122101:760,-0.471283,0.032532,-0.152527,0.00015900000000000002,-2.1e-05,0.003094,-34.0,18.5,-11.0,2c
2019-07-15_122101:780,-0.470276,0.03302,-0.153015,0.000433,-0.000906,0.002514,-34.75,19.25,-10.18,2c
2019-07-15_122101:800,-0.47079499999999996,0.031006,-0.153015,0.000891,-0.000906,0.0021780000000000002,-34.75,19.25,-10.18,2c
2019-07-15_122101:820,-0.471283,0.032532,-0.154022,0.001288,-0.001517,0.002239,-34.75,19.559998999999998,-9.0,2c
2019-07-15_122101:840,-0.472321,0.033539,-0.154022,0.00199,-0.001578,0.002514,-34.75,19.559998999999998,-9.0,2c
2019-07-15_122101:860,-0.47433500000000006,0.034058,-0.156586,0.002203,-0.001242,0.0028190000000000003,-34.75,19.559998999999998,-9.0,2c
2019-07-15_122101:880,-0.47332799999999997,0.035065,-0.157074,0.002448,-0.001425,0.0032159999999999997,-34.0,18.5,-11.0,2c
2019-07-15_122101:900,-0.472321,0.036072,-0.157074,0.002203,-0.000906,0.0034909999999999997,-34.0,18.5,-11.0,2c
2019-07-15_122101:920,-0.472321,0.034546,-0.160126,0.001929,-0.001181,0.003094,-34.369999,18.18,-11.37,2c
2019-07-15_122101:940,-0.47280900000000003,0.032532,-0.1586,0.001807,-0.001181,0.001995,-34.369999,18.18,-11.37,2c
2019-07-15_122101:960,-0.477386,0.034546,-0.160126,0.002325,-0.00112,0.00037799999999999997,-34.369999,18.18,-11.37,2c
2019-07-15_122101:980,-0.477386,0.034546,-0.160126,0.0031190000000000002,-0.00041799999999999997,-0.00047699999999999994,-35.060001,19.25,-11.68,2c
2019-07-15_122102:000,-0.47943100000000005,0.041168,-0.157074,0.0034549999999999997,0.0008640000000000001,-0.001057,-35.060001,19.25,-11.68,2c
2019-07-15_122102:020,-0.47689799999999993,0.042694,-0.158112,0.003271,0.001718,-0.00041600000000000003,-34.75,18.870001000000002,-9.75,2c
2019-07-15_122102:040,-0.46875,0.043701,-0.159637,0.0018679999999999999,0.001382,0.002575,-34.75,18.870001000000002,-9.75,2c
2019-07-15_122102:060,-0.475861,0.040161,-0.159119,0.0018679999999999999,0.001108,0.002392,-34.75,18.870001000000002,-9.75,2c
2019-07-15_122102:080,-0.47842399999999996,0.037598,-0.156067,0.002325,0.002054,0.001843,-35.060001,18.5,-10.18,2c
2019-07-15_122102:100,-0.47689799999999993,0.037108999999999996,-0.14743,0.002997,0.003824,0.0032770000000000004,-35.060001,18.5,-10.18,2c
2019-07-15_122102:120,-0.47433500000000006,0.034546,-0.14386,0.002997,0.004984000000000001,0.004681,-34.0,18.870001000000002,-8.56,2c
2019-07-15_122102:140,-0.466217,0.033539,-0.14032,0.00318,0.0037630000000000003,0.0052,-34.0,18.870001000000002,-8.56,2c
2019-07-15_122102:160,-0.466217,0.032532,-0.142853,0.0035770000000000003,0.002176,0.005383,-34.0,18.870001000000002,-8.56,2c
2019-07-15_122102:180,-0.467743,0.032013,-0.143372,0.002997,0.00065,0.005535,-34.0,19.25,-9.37,2c
2019-07-15_122102:200,-0.471283,0.032013,-0.14386,0.0026,-0.000204,0.005871,-34.0,19.25,-9.37,2c
2019-07-15_122102:220,-0.47280900000000003,0.031494,-0.145386,0.002448,-0.000601,0.0060539999999999995,-34.369999,18.870001000000002,-10.56,2c
2019-07-15_122102:240,-0.47689799999999993,0.031494,-0.149475,0.001807,-0.00112,0.005474000000000001,-34.369999,18.870001000000002,-10.56,2c
2019-07-15_122102:260,-0.477386,0.031006,-0.152527,0.00199,-0.001456,0.004589,-34.369999,18.870001000000002,-10.56,2c
2019-07-15_122102:280,-0.48043800000000003,0.034546,-0.150482,0.001929,-0.000662,0.0033380000000000003,-34.75,18.5,-10.18,2c
2019-07-15_122102:300,-0.47842399999999996,0.035065,-0.149475,0.0016239999999999998,0.000589,0.00288,-34.75,18.5,-10.18,2c
2019-07-15_122102:320,-0.47180200000000005,0.034546,-0.146912,0.001227,0.00065,0.0032770000000000004,-28.059998999999998,19.25,-9.0,2c
2019-07-15_122102:340,-0.469757,0.036072,-0.148956,0.0004940000000000001,-0.000143,0.003887,-28.059998999999998,19.25,-9.0,2c
2019-07-15_122102:360,-0.47280900000000003,0.036072,-0.150482,-2.4e-05,-0.000266,0.004131,-28.059998999999998,19.25,-9.0,2c
2019-07-15_122102:380,-0.475372,0.036072,-0.14743,-0.000482,-0.000143,0.004406,-35.060001,19.25,-8.18,2c
2019-07-15_122102:400,-0.474854,0.033539,-0.14843800000000001,-0.001825,-0.000266,0.005932,-35.060001,19.25,-8.18,2c
2019-07-15_122102:420,-0.472321,0.029968,-0.149963,-0.002344,-0.000662,0.0060539999999999995,-35.5,18.5,-10.18,2c
2019-07-15_122102:440,-0.475372,0.026917,-0.151489,-0.002283,-0.001517,0.006664,-35.5,18.5,-10.18,2c
2019-07-15_122102:460,-0.482483,0.022858,-0.150482,-0.001489,-0.00041799999999999997,0.006115,-35.5,18.5,-10.18,2c
2019-07-15_122102:480,-0.48043800000000003,0.022858,-0.150482,-0.0009400000000000001,0.00025299999999999997,0.005657,-34.369999,19.25,-10.56,2c
2019-07-15_122102:500,-0.481476,0.022369,-0.149475,0.001105,0.0008640000000000001,0.003796,-34.369999,19.25,-10.56,2c
2019-07-15_122102:520,-0.478912,0.023895,-0.14386,0.001807,0.001443,0.0033380000000000003,-34.369999,19.25,-10.56,2c
2019-07-15_122102:540,-0.47689799999999993,0.023895,-0.141846,0.002997,0.0022370000000000003,0.003094,-34.369999,18.5,-9.37,2c
2019-07-15_122102:560,-0.470276,0.027954000000000003,-0.14386,0.00379,0.001047,0.00288,-34.369999,18.5,-9.37,2c
2019-07-15_122102:580,-0.47079499999999996,0.027435,-0.147949,0.0041259999999999995,0.000314,0.002575,-34.0,20.0,-10.56,2c
2019-07-15_122102:600,-0.47079499999999996,0.029968,-0.145386,0.005194,7e-05,0.002514,-34.0,20.0,-10.56,2c
2019-07-15_122102:620,-0.47079499999999996,0.031006,-0.146912,0.005591,-0.000967,0.0032159999999999997,-34.369999,18.870001000000002,-9.0,2c
2019-07-15_122102:640,-0.46823100000000006,0.031494,-0.147949,0.005591,-0.001761,0.0036130000000000003,-34.369999,18.870001000000002,-9.0,2c
2019-07-15_122102:660,-0.470276,0.031494,-0.14843800000000001,0.005103,-0.002188,0.004070000000000001,-34.369999,18.870001000000002,-9.0,2c
2019-07-15_122102:680,-0.46926899999999994,0.034546,-0.149475,0.00498,-0.002585,0.004131,-34.369999,19.25,-9.37,2c
2019-07-15_122102:700,-0.47995,0.031494,-0.155548,0.004065,-0.0028899999999999998,0.004009,-34.369999,19.25,-9.37,2c
2019-07-15_122102:720,-0.48095699999999997,0.032013,-0.152527,0.003851,-0.002707,0.004070000000000001,-34.369999,19.25,-9.37,2c
2019-07-15_122102:740,-0.48043800000000003,0.030487,-0.151489,0.002844,-0.00041799999999999997,0.004803,-34.75,18.5,-9.37,2c
2019-07-15_122102:760,-0.47995,0.027435,-0.150482,0.0026609999999999997,-0.00041799999999999997,0.005261,-34.75,18.5,-9.37,2c
2019-07-15_122102:780,-0.475861,0.029480000000000003,-0.152527,0.002448,-0.00041799999999999997,0.00462,-34.369999,19.25,-10.18,2c
2019-07-15_122102:800,-0.476379,0.027954000000000003,-0.151001,0.001715,-0.0006929999999999999,0.0032159999999999997,-34.369999,19.25,-10.18,2c
2019-07-15_122102:820,-0.476379,0.025908999999999998,-0.14843800000000001,0.001501,-0.000723,0.0032159999999999997,-34.0,19.25,-9.0,2c
2019-07-15_122102:840,-0.47995,0.020844,-0.14386,0.0015630000000000002,-0.000143,0.0032159999999999997,-34.0,19.25,-9.0,2c
2019-07-15_122102:860,-0.47842399999999996,0.019806,-0.145905,0.001807,0.000375,0.0042840000000000005,-34.0,19.25,-9.0,2c
2019-07-15_122102:880,-0.46823100000000006,0.018799,-0.147949,0.002325,0.000589,0.00581,-34.369999,18.870001000000002,-9.0,2c
2019-07-15_122102:900,-0.467743,0.018799,-0.14843800000000001,0.003058,-0.00041799999999999997,0.005657,-34.369999,18.870001000000002,-9.0,2c
2019-07-15_122102:920,-0.47180200000000005,0.020844,-0.152008,0.0035159999999999996,-0.001303,0.005078,-34.369999,18.870001000000002,-9.0,2c
2019-07-15_122102:940,-0.477386,0.023895,-0.152527,0.003607,-0.0017,0.0044670000000000005,-35.5,20.370001000000002,-9.37,2c
2019-07-15_122102:960,-0.47943100000000005,0.025421,-0.153015,0.003607,-0.001242,0.004131,-35.5,20.370001000000002,-9.37,2c
2019-07-15_122102:980,-0.477905,0.026917,-0.153015,0.0026609999999999997,-0.000662,0.004193,-33.560001,20.0,-10.18,2c
2019-07-15_122103:000,-0.476379,0.027954000000000003,-0.153015,0.002081,-8.2e-05,0.003857,-33.560001,20.0,-10.18,2c
2019-07-15_122103:020,-0.47842399999999996,0.027435,-0.153534,0.0016239999999999998,0.000131,0.0032770000000000004,-33.560001,20.0,-10.18,2c
2019-07-15_122103:040,-0.47689799999999993,0.026917,-0.149963,0.000647,0.000589,0.002728,-34.369999,20.0,-10.56,2c
2019-07-15_122103:060,-0.47689799999999993,0.023375999999999997,-0.148956,3.7e-05,0.001169,0.0032159999999999997,-34.369999,20.0,-10.56,2c
2019-07-15_122103:080,-0.476379,0.019318000000000002,-0.148956,0.00031099999999999997,0.001443,0.004009,-34.369999,19.559998999999998,-9.0,2c
2019-07-15_122103:100,-0.471283,0.023375999999999997,-0.149475,0.001227,0.001108,0.004222999999999999,-34.369999,19.559998999999998,-9.0,2c
2019-07-15_122103:120,-0.47180200000000005,0.024902,-0.150482,0.001288,0.000436,0.003399,-34.369999,19.559998999999998,-9.0,2c
2019-07-15_122103:140,-0.47995,0.022858,-0.150482,0.000769,-0.000143,0.00346,-34.369999,20.0,-10.56,2c
2019-07-15_122103:160,-0.48095699999999997,0.022858,-0.14743,0.001227,0.000711,0.003399,-34.369999,20.0,-10.56,2c
2019-07-15_122103:180,-0.48043800000000003,0.023895,-0.14843800000000001,0.001227,0.001779,0.00288,-34.369999,19.559998999999998,-9.75,2c
2019-07-15_122103:200,-0.47842399999999996,0.025908999999999998,-0.146912,0.000983,0.001657,0.002941,-34.369999,19.559998999999998,-9.75,2c
2019-07-15_122103:220,-0.47280900000000003,0.023375999999999997,-0.145386,0.000647,0.001382,0.002758,-34.369999,19.559998999999998,-9.75,2c
2019-07-15_122103:240,-0.475861,0.026427999999999997,-0.145386,0.000769,0.0013210000000000001,0.0026969999999999997,-34.0,19.559998999999998,-9.0,2c
2019-07-15_122103:260,-0.472321,0.026427999999999997,-0.143372,0.000647,0.0013210000000000001,0.002941,-34.0,19.559998999999998,-9.0,2c
2019-07-15_122103:280,-0.476379,0.031006,-0.142334,-0.000299,0.001169,0.002758,-34.75,20.0,-9.37,2c
2019-07-15_122103:300,-0.473846,0.027954000000000003,-0.140808,-0.0007570000000000001,0.000711,0.002941,-34.75,20.0,-9.37,2c
2019-07-15_122103:320,-0.489075,0.026427999999999997,-0.142853,-0.001428,0.000192,0.0028190000000000003,-34.75,20.0,-9.37,2c
2019-07-15_122103:340,-0.46875,0.023375999999999997,-0.143372,-0.0011539999999999999,0.001047,0.003796,-34.369999,19.559998999999998,-10.18,2c
2019-07-15_122103:360,-0.489594,0.019806,-0.14386,-0.000696,0.000589,0.004193,-34.369999,19.559998999999998,-10.18,2c
2019-07-15_122103:380,-0.475861,0.021332,-0.14386,0.00015900000000000002,0.000711,0.005016,-34.0,19.559998999999998,-8.56,2c
2019-07-15_122103:400,-0.473846,0.023895,-0.141327,0.00025,-0.000204,0.005413,-34.0,19.559998999999998,-8.56,2c
2019-07-15_122103:420,-0.481476,0.021332,-0.141327,0.00031099999999999997,-0.000967,0.005718,-34.0,19.559998999999998,-8.56,2c
2019-07-15_122103:440,-0.47332799999999997,0.019318000000000002,-0.144379,3.7e-05,-0.000357,0.005261,-34.369999,20.0,-10.18,2c
2019-07-15_122103:460,-0.477386,0.01828,-0.144897,-0.000177,-0.000357,0.005261,-34.369999,20.0,-10.18,2c
2019-07-15_122103:480,-0.47995,0.021851,-0.140808,0.000433,-0.000784,0.003948,-34.369999,20.0,-9.75,2c
2019-07-15_122103:500,-0.47995,0.023895,-0.142853,9.8e-05,-0.000967,0.00346,-34.369999,20.0,-9.75,2c
2019-07-15_122103:520,-0.47995,0.017792,-0.145386,-0.0009699999999999999,-0.000479,0.00288,-34.369999,20.0,-9.75,2c
2019-07-15_122103:540,-0.477386,0.01828,-0.144379,-0.000146,-0.000266,0.0034909999999999997,-34.369999,20.370001000000002,-11.37,2c
2019-07-15_122103:560,-0.475372,0.018799,-0.144897,0.0004940000000000001,-0.00054,0.0032159999999999997,-34.369999,20.370001000000002,-11.37,2c
2019-07-15_122103:580,-0.484009,0.022858,-0.14386,0.00031099999999999997,-0.000784,0.0031550000000000003,-34.369999,19.559998999999998,-9.37,2c
2019-07-15_122103:600,-0.47433500000000006,0.024384,-0.144379,3.7e-05,-0.000357,0.0031550000000000003,-34.369999,19.559998999999998,-9.37,2c
2019-07-15_122103:620,-0.48196400000000006,0.014740000000000001,-0.143372,-0.001031,0.000192,0.002575,-34.369999,19.559998999999998,-9.37,2c
2019-07-15_122103:640,-0.48095699999999997,0.008636,-0.141327,0.001288,0.000375,0.00288,-34.0,20.0,-9.0,2c
2019-07-15_122103:660,-0.48349,0.018799,-0.139282,0.003668,0.001505,0.0032159999999999997,-34.0,20.0,-9.0,2c
2019-07-15_122103:680,-0.47995,0.025421,-0.146912,0.003607,0.002725,0.003674,-34.75,19.559998999999998,-9.0,2c
2019-07-15_122103:700,-0.481476,0.032532,-0.14386,0.002081,0.002908,0.003948,-34.75,19.559998999999998,-9.0,2c
2019-07-15_122103:720,-0.485016,0.023895,-0.14032,-0.000146,0.002908,0.003674,-34.75,19.559998999999998,-9.0,2c
2019-07-15_122103:740,-0.48349,0.013702,-0.136749,-0.000299,0.003915,0.0036130000000000003,-34.369999,19.25,-9.0,2c
2019-07-15_122103:760,-0.46926899999999994,0.015228,-0.139801,0.001807,0.004495,0.004864,-34.369999,19.25,-9.0,2c
2019-07-15_122103:780,-0.446899,0.019318000000000002,-0.139282,0.00321,0.001962,0.004589,-34.0,20.0,-10.18,2c
2019-07-15_122103:800,-0.47433500000000006,0.020844,-0.140808,0.002478,-0.000479,0.004070000000000001,-34.0,20.0,-10.18,2c
2019-07-15_122103:820,-0.475372,0.020325,-0.133179,0.002264,-0.0010279999999999998,0.004406,-34.0,20.0,-10.18,2c
2019-07-15_122103:840,-0.47180200000000005,0.019318000000000002,-0.137756,0.002081,-0.001761,0.003948,-35.5,19.25,-9.0,2c
2019-07-15_122103:860,-0.48043800000000003,0.016266,-0.135742,0.0021420000000000002,-0.002585,0.0030629999999999998,-35.5,19.25,-9.0,2c
2019-07-15_122103:880,-0.477386,0.013213999999999998,-0.138275,0.002783,-0.002707,0.0023,-34.75,20.370001000000002,-10.18,2c
2019-07-15_122103:900,-0.47433500000000006,0.017792,-0.140808,0.0041259999999999995,-0.003043,0.001843,-34.75,20.370001000000002,-10.18,2c
2019-07-15_122103:920,-0.475861,0.023895,-0.140808,0.004736,-0.003714,0.0019649999999999997,-34.75,20.370001000000002,-10.18,2c
2019-07-15_122103:940,-0.48553500000000005,0.032532,-0.14032,0.002844,-0.003836,0.0016600000000000002,-34.369999,20.370001000000002,-8.56,2c
2019-07-15_122103:960,-0.48553500000000005,0.018799,-0.145386,0.0005549999999999999,-0.001974,0.0019039999999999999,-34.369999,20.370001000000002,-8.56,2c
2019-07-15_122103:980,-0.485016,0.025908999999999998,-0.143372,0.001501,-0.000784,0.002117,-34.75,20.0,-9.0,2c
2019-07-15_122104:000,-0.48095699999999997,0.01828,-0.138794,0.001288,0.000192,0.001782,-34.75,20.0,-9.0,2c
2019-07-15_122104:020,-0.48553500000000005,0.015747,-0.141327,0.002844,0.000528,0.0023,-34.75,20.0,-9.0,2c
2019-07-15_122104:040,-0.47995,0.026917,-0.141327,0.003851,0.00126,0.0028190000000000003,-34.0,19.25,-9.37,2c
2019-07-15_122104:060,-0.484009,0.028961,-0.143372,0.002386,0.001505,0.002117,-34.0,19.25,-9.37,2c
2019-07-15_122104:080,-0.490601,0.01828,-0.137268,0.0004940000000000001,0.002176,0.002117,-35.060001,20.370001000000002,-9.0,2c
2019-07-15_122104:100,-0.45043900000000003,0.017792,-0.12912,0.001166,0.002725,0.0030629999999999998,-35.060001,20.370001000000002,-9.0,2c
2019-07-15_122104:120,-0.460114,0.019318000000000002,-0.145905,0.002783,-8.2e-05,0.002636,-35.060001,20.370001000000002,-9.0,2c
2019-07-15_122104:140,-0.47995,0.027954000000000003,-0.134705,0.002264,-0.0018219999999999998,0.0019039999999999999,-34.369999,19.559998999999998,-8.56,2c
2019-07-15_122104:160,-0.48654200000000003,0.021851,-0.133698,0.0009519999999999999,-0.001456,0.002239,-34.369999,19.559998999999998,-8.56,2c
2019-07-15_122104:180,-0.48095699999999997,0.021851,-0.143372,0.000891,-0.000479,0.002728,-34.369999,20.370001000000002,-8.56,2c
2019-07-15_122104:200,-0.47280900000000003,0.018799,-0.143372,0.0017460000000000002,-0.000723,0.001721,-34.369999,20.370001000000002,-8.56,2c
2019-07-15_122104:220,-0.477386,0.028961,-0.14386,0.001807,-0.001913,0.001599,-34.369999,20.370001000000002,-8.56,2c
2019-07-15_122104:240,-0.488068,0.024384,-0.136749,0.000983,-0.002188,0.0019649999999999997,-34.369999,19.559998999999998,-7.87,2c
2019-07-15_122104:260,-0.47689799999999993,0.023895,-0.136749,0.0008300000000000001,-0.001761,0.001507,-34.369999,19.559998999999998,-7.87,2c
2019-07-15_122104:280,-0.488068,0.016753999999999998,-0.138275,0.001044,-0.002493,0.001446,-34.75,19.559998999999998,-9.75,2c
2019-07-15_122104:300,-0.48196400000000006,0.012695,-0.137756,0.003058,-0.001913,0.002361,-34.75,19.559998999999998,-9.75,2c
2019-07-15_122104:320,-0.476379,0.022369,-0.141846,0.00498,-0.001242,0.002941,-34.75,19.559998999999998,-9.75,2c
2019-07-15_122104:340,-0.47689799999999993,0.027954000000000003,-0.141846,0.004797,-0.001364,0.0024530000000000003,-34.0,20.370001000000002,-9.0,2c
2019-07-15_122104:360,-0.48095699999999997,0.029480000000000003,-0.137756,0.003607,-0.001578,0.002758,-34.0,20.370001000000002,-9.0,2c
2019-07-15_122104:380,-0.47842399999999996,0.027954000000000003,-0.139801,0.001929,-0.000723,0.002728,-34.75,20.0,-9.37,2c
2019-07-15_122104:400,-0.48654200000000003,0.026917,-0.139801,0.000647,-0.001578,0.002636,-34.75,20.0,-9.37,2c
2019-07-15_122104:420,-0.475861,0.024384,-0.141327,-0.000177,-0.001578,0.0024530000000000003,-34.75,20.0,-9.37,2c
2019-07-15_122104:440,-0.48043800000000003,0.024902,-0.14386,-0.000696,-0.001578,0.0026969999999999997,-34.75,20.370001000000002,-9.37,2c
2019-07-15_122104:460,-0.48043800000000003,0.017792,-0.141327,-0.0005740000000000001,-0.001181,0.0032770000000000004,-34.75,20.370001000000002,-9.37,2c
2019-07-15_122104:480,-0.474854,0.015228,-0.142853,0.000769,-0.001181,0.003735,-34.369999,19.559998999999998,-9.37,2c
2019-07-15_122104:500,-0.47943100000000005,0.014221000000000001,-0.142334,0.002203,-0.001852,0.003735,-34.369999,19.559998999999998,-9.37,2c
2019-07-15_122104:520,-0.47332799999999997,0.016753999999999998,-0.143372,0.003668,-0.001913,0.0036130000000000003,-34.369999,19.559998999999998,-9.37,2c
2019-07-15_122104:540,-0.475861,0.020325,-0.145905,0.004309,-0.002554,0.003399,-34.369999,20.370001000000002,-9.37,2c
2019-07-15_122104:560,-0.47433500000000006,0.028961,-0.142334,0.004309,-0.002585,0.002392,-34.369999,20.370001000000002,-9.37,2c
2019-07-15_122104:580,-0.48043800000000003,0.031494,-0.143372,0.002448,-0.002707,0.000591,-34.75,20.0,-7.87,2c
2019-07-15_122104:600,-0.47842399999999996,0.027435,-0.145386,0.00031099999999999997,-0.002554,-1.9e-05,-34.75,20.0,-7.87,2c
2019-07-15_122104:620,-0.47995,0.027435,-0.145905,-0.000146,-0.002768,0.000195,-34.75,20.0,-7.87,2c
2019-07-15_122104:640,-0.48095699999999997,0.019318000000000002,-0.143372,-0.000146,-0.002188,0.00037799999999999997,-34.369999,19.25,-9.0,2c
2019-07-15_122104:660,-0.486023,0.018799,-0.145386,0.0008300000000000001,-0.001364,0.0011710000000000002,-34.369999,19.25,-9.0,2c
2019-07-15_122104:680,-0.477386,0.026427999999999997,-0.14743,0.002844,-0.000357,0.0032770000000000004,-35.060001,20.0,-9.0,2c
2019-07-15_122104:700,-0.47995,0.032532,-0.144379,0.0026,4e-05,0.0033380000000000003,-35.060001,20.0,-9.0,2c
2019-07-15_122104:720,-0.47079499999999996,0.029968,-0.145386,0.0018679999999999999,0.00025299999999999997,0.0033380000000000003,-35.060001,20.0,-9.0,2c
2019-07-15_122104:740,-0.472321,0.029968,-0.142853,0.001105,-0.000906,0.0028190000000000003,-35.060001,20.0,-9.75,2c
2019-07-15_122104:760,-0.474854,0.023375999999999997,-0.139801,0.00031099999999999997,-0.001303,0.0032159999999999997,-35.060001,20.0,-9.75,2c
2019-07-15_122104:780,-0.477386,0.025908999999999998,-0.145386,0.0009519999999999999,-0.001517,0.004070000000000001,-34.369999,19.559998999999998,-9.75,2c
2019-07-15_122104:800,-0.477386,0.026917,-0.14386,0.000769,-0.001181,0.0032770000000000004,-34.369999,19.559998999999998,-9.75,2c
2019-07-15_122104:820,-0.47689799999999993,0.022858,-0.146912,0.00031099999999999997,-0.001578,0.0034909999999999997,-34.369999,19.559998999999998,-9.75,2c
2019-07-15_122104:840,-0.47943100000000005,0.024384,-0.145386,0.000891,-0.001639,0.003887,-34.369999,20.0,-9.75,2c
2019-07-15_122104:860,-0.48349,0.025421,-0.145905,0.0008300000000000001,-0.000906,0.002941,-34.369999,20.0,-9.75,2c
2019-07-15_122104:880,-0.48349,0.021332,-0.146912,0.000891,0.000192,0.002514,-34.369999,19.25,-9.0,2c
2019-07-15_122104:900,-0.47842399999999996,0.023895,-0.144897,0.0015630000000000002,0.001047,0.00288,-34.369999,19.25,-9.0,2c
2019-07-15_122104:920,-0.473846,0.023895,-0.145905,0.001685,0.0013210000000000001,0.0030629999999999998,-34.369999,19.25,-9.0,2c
2019-07-15_122104:940,-0.474854,0.026427999999999997,-0.144897,0.0016239999999999998,0.00065,0.003857,-33.560001,19.559998999999998,-9.37,2c
2019-07-15_122104:960,-0.48349,0.025421,-0.141327,0.001379,0.00025299999999999997,0.0035520000000000005,-33.560001,19.559998999999998,-9.37,2c
2019-07-15_122104:980,-0.466217,0.031006,-0.137268,0.001501,0.000192,0.003796,-34.75,19.559998999999998,-9.0,2c
2019-07-15_122105:000,-0.47180200000000005,0.028442000000000002,-0.139282,-0.0009699999999999999,-0.002097,0.0024530000000000003,-34.75,19.559998999999998,-9.0,2c
2019-07-15_122105:020,-0.475861,0.015228,-0.139801,-0.001276,-0.001761,0.003857,-34.75,19.559998999999998,-9.0,2c
2019-07-15_122105:040,-0.47842399999999996,0.015747,-0.144379,0.000708,-0.001852,0.0052,-34.0,20.0,-8.56,2c
2019-07-15_122105:060,-0.475372,0.023375999999999997,-0.145905,0.002081,-0.002432,0.003857,-34.0,20.0,-8.56,2c
2019-07-15_122105:080,-0.47689799999999993,0.024902,-0.150482,0.002203,-0.0032869999999999996,0.002636,-34.369999,19.559998999999998,-10.18,2c
2019-07-15_122105:100,-0.486023,0.028961,-0.14743,0.002264,-0.0032259999999999997,0.002392,-34.369999,19.559998999999998,-10.18,2c
2019-07-15_122105:120,-0.485016,0.025908999999999998,-0.14843800000000001,0.001685,-0.002036,0.002575,-34.369999,19.559998999999998,-10.18,2c
2019-07-15_122105:140,-0.48095699999999997,0.021851,-0.14843800000000001,0.00144,-0.000479,0.0033380000000000003,-34.0,20.0,-9.0,2c
2019-07-15_122105:160,-0.47180200000000005,0.022369,-0.146912,0.00199,0.000436,0.0044670000000000005,-34.0,20.0,-9.0,2c
2019-07-15_122105:180,-0.47180200000000005,0.023895,-0.145386,0.002325,0.000131,0.004222999999999999,-34.369999,19.559998999999998,-9.37,2c
2019-07-15_122105:200,-0.478912,0.023895,-0.144379,0.0020510000000000003,-0.000327,0.003796,-34.369999,19.559998999999998,-9.37,2c
2019-07-15_122105:220,-0.482483,0.023895,-0.146423,0.001227,0.000192,0.0035520000000000005,-34.369999,19.559998999999998,-9.37,2c
2019-07-15_122105:240,-0.47995,0.025421,-0.145386,0.000647,0.000589,0.00346,-34.369999,20.370001000000002,-9.75,2c
2019-07-15_122105:260,-0.475372,0.01828,-0.143372,-0.00036,0.000986,0.0032159999999999997,-34.369999,20.370001000000002,-9.75,2c
2019-07-15_122105:280,-0.47079499999999996,0.018799,-0.140808,-0.00023799999999999998,0.000772,0.0035520000000000005,-35.060001,19.559998999999998,-9.37,2c
2019-07-15_122105:300,-0.473846,0.021851,-0.138794,0.000433,-0.000204,0.003094,-35.060001,19.559998999999998,-9.37,2c
2019-07-15_122105:320,-0.47433500000000006,0.022369,-0.141327,0.00037200000000000004,-0.000906,0.0030629999999999998,-35.060001,19.559998999999998,-9.37,2c
2019-07-15_122105:340,-0.477905,0.019806,-0.144379,0.0004940000000000001,-0.00054,0.002941,-34.369999,20.0,-9.0,2c
2019-07-15_122105:360,-0.47689799999999993,0.019806,-0.145386,0.000983,-0.000784,0.002392,-34.369999,20.0,-9.0,2c
2019-07-15_122105:380,-0.477905,0.019318000000000002,-0.142853,0.0020510000000000003,-0.000906,0.0023,-34.75,19.25,-7.87,2c
2019-07-15_122105:400,-0.476379,0.019806,-0.141327,0.002844,-0.000784,0.0023,-34.75,19.25,-7.87,2c
2019-07-15_122105:420,-0.477386,0.023895,-0.142334,0.002844,-0.001456,0.002728,-34.75,19.25,-7.87,2c
2019-07-15_122105:440,-0.475861,0.023375999999999997,-0.141846,0.002722,-0.0017,0.002575,-34.75,19.25,-9.0,2c
2019-07-15_122105:460,-0.475372,0.020844,-0.139282,0.002539,-0.001456,0.002636,-34.75,19.25,-9.0,2c
2019-07-15_122105:480,-0.474854,0.022858,-0.142853,0.002386,-0.001852,0.0028190000000000003,-34.369999,20.0,-9.75,2c
2019-07-15_122105:500,-0.47689799999999993,0.026917,-0.14386,0.0021420000000000002,-0.002097,0.002575,-34.369999,20.0,-9.75,2c
2019-07-15_122105:520,-0.48349,0.031006,-0.147949,0.001349,-0.001913,0.002728,-34.369999,20.0,-9.75,2c
2019-07-15_122105:540,-0.481476,0.026917,-0.147949,-0.00023799999999999998,-0.001059,0.002392,-34.75,20.0,-10.18,2c
2019-07-15_122105:560,-0.477386,0.016753999999999998,-0.14743,0.00022,-0.0010279999999999998,0.002636,-34.75,20.0,-10.18,2c
2019-07-15_122105:580,-0.473846,0.015747,-0.146912,0.0020510000000000003,-0.001059,0.002575,-34.369999,20.0,-9.75,2c
2019-07-15_122105:600,-0.47433500000000006,0.01828,-0.148956,0.003851,-0.001456,0.002514,-34.369999,20.0,-9.75,2c
2019-07-15_122105:620,-0.472321,0.023895,-0.149475,0.00498,-0.001761,0.0023,-34.369999,20.0,-9.75,2c
2019-07-15_122105:640,-0.473846,0.030487,-0.14843800000000001,0.0048579999999999995,-0.002097,0.001721,-34.75,19.559998999999998,-10.18,2c
2019-07-15_122105:660,-0.475372,0.037108999999999996,-0.148956,0.002875,-0.002554,0.001599,-34.75,19.559998999999998,-10.18,2c
2019-07-15_122105:680,-0.47842399999999996,0.036591000000000005,-0.151001,0.002081,-0.0021579999999999998,0.001263,-34.0,19.25,-8.56,2c
2019-07-15_122105:700,-0.476379,0.035583,-0.146423,0.000433,-0.001578,0.0020559999999999997,-34.0,19.25,-8.56,2c
2019-07-15_122105:720,-0.48043800000000003,0.032013,-0.147949,9.8e-05,-0.001059,0.00346,-34.0,19.25,-8.56,2c
2019-07-15_122105:740,-0.48654200000000003,0.029480000000000003,-0.149963,0.000433,-0.00041799999999999997,0.004131,-34.75,19.25,-9.0,2c
2019-07-15_122105:760,-0.471283,0.028961,-0.14743,-8.499999999999999e-05,-0.00054,0.0036130000000000003,-34.75,19.25,-9.0,2c
2019-07-15_122105:780,-0.48196400000000006,0.025421,-0.14743,9.8e-05,0.000925,0.004589,-34.0,19.25,-9.0,2c
2019-07-15_122105:800,-0.478912,0.023895,-0.14386,0.00015900000000000002,0.00126,0.005016,-34.0,19.25,-9.0,2c
2019-07-15_122105:820,-0.474854,0.022858,-0.144379,0.0005549999999999999,0.000772,0.004222999999999999,-34.0,19.25,-9.0,2c
2019-07-15_122105:840,-0.47943100000000005,0.023375999999999997,-0.145905,0.000647,0.00065,0.00346,-34.75,20.0,-8.56,2c
2019-07-15_122105:860,-0.475861,0.022369,-0.141327,0.00037200000000000004,0.0015660000000000001,0.004345,-34.75,20.0,-8.56,2c
2019-07-15_122105:880,-0.47689799999999993,0.023895,-0.14386,0.00037200000000000004,0.001993,0.0053219999999999995,-34.369999,20.370001000000002,-9.0,2c
2019-07-15_122105:900,-0.469757,0.020844,-0.14386,-0.000299,0.000131,0.005016,-34.369999,20.370001000000002,-9.0,2c
2019-07-15_122105:920,-0.46823100000000006,0.01828,-0.146423,0.00022,-0.001639,0.004131,-34.369999,20.370001000000002,-9.0,2c
2019-07-15_122105:940,-0.46926899999999994,0.019318000000000002,-0.146423,0.00025,-0.001974,0.004009,-34.75,19.559998999999998,-9.0,2c
2019-07-15_122105:960,-0.477386,0.018799,-0.146423,0.0008300000000000001,-0.002036,0.004222999999999999,-34.75,19.559998999999998,-9.0,2c
2019-07-15_122105:980,-0.477386,0.021332,-0.149963,0.0009519999999999999,-0.0018219999999999998,0.004131,-34.75,19.559998999999998,-9.0,2c
2019-07-15_122106:000,-0.477386,0.01828,-0.151001,0.001349,-0.001974,0.004193,-34.369999,19.25,-9.37,2c
2019-07-15_122106:020,-0.47943100000000005,0.020844,-0.149475,0.001807,-0.001639,0.004193,-34.369999,19.25,-9.37,2c
2019-07-15_122106:040,-0.47943100000000005,0.018799,-0.14843800000000001,0.002264,-0.0008449999999999999,0.0032770000000000004,-33.560001,19.559998999999998,-10.18,2c
2019-07-15_122106:060,-0.478912,0.021332,-0.14743,0.002264,-0.000327,0.0032770000000000004,-33.560001,19.559998999999998,-10.18,2c
2019-07-15_122106:080,-0.476379,0.021851,-0.150482,0.002386,-2.1e-05,0.0032770000000000004,-33.560001,19.559998999999998,-9.37,2c
2019-07-15_122106:100,-0.47842399999999996,0.023895,-0.151489,0.002448,4e-05,0.002758,-33.560001,19.559998999999998,-9.37,2c
2019-07-15_122106:120,-0.486023,0.025908999999999998,-0.146912,0.001715,0.001718,0.0026969999999999997,-33.560001,19.559998999999998,-9.37,2c
2019-07-15_122106:140,-0.49111899999999997,0.022369,-0.142853,0.001501,0.002634,0.002941,-33.560001,20.0,-9.37,2c
2019-07-15_122106:160,-0.470276,0.023895,-0.141846,0.001349,0.004251,0.0042840000000000005,-33.560001,20.0,-9.37,2c
2019-07-15_122106:180,-0.47079499999999996,0.021851,-0.145905,0.001288,0.003244,0.003887,-33.560001,20.0,-9.37,2c
2019-07-15_122106:200,-0.471283,0.021851,-0.143372,0.001379,0.000925,0.002361,-34.0,20.0,-9.0,2c
2019-07-15_122106:220,-0.477905,0.022858,-0.141846,0.001227,0.00046699999999999997,0.0021780000000000002,-34.0,20.0,-9.0,2c
2019-07-15_122106:240,-0.475372,0.024902,-0.142853,0.001379,0.001108,0.0024530000000000003,-34.369999,20.0,-9.75,2c
2019-07-15_122106:260,-0.47433500000000006,0.023895,-0.141327,0.00025,0.001169,0.0030629999999999998,-34.369999,20.0,-9.75,2c
2019-07-15_122106:280,-0.473846,0.022858,-0.145386,-0.000421,0.000436,0.003094,-34.369999,20.0,-9.75,2c
2019-07-15_122106:300,-0.474854,0.023895,-0.142334,-0.0008179999999999999,-0.00054,0.0028190000000000003,-35.060001,19.25,-10.18,2c
2019-07-15_122106:320,-0.475372,0.01828,-0.139801,-0.0007570000000000001,-0.000723,0.002514,-35.060001,19.25,-10.18,2c
2019-07-15_122106:340,-0.48349,0.021332,-0.141846,-8.499999999999999e-05,-0.0006929999999999999,0.003002,-33.25,18.870001000000002,-8.18,2c
2019-07-15_122106:360,-0.48095699999999997,0.020844,-0.14032,0.00022,7e-05,0.002117,-33.25,18.870001000000002,-8.18,2c
2019-07-15_122106:380,-0.47995,0.022369,-0.14386,0.0008300000000000001,0.00046699999999999997,0.002239,-33.25,18.870001000000002,-8.18,2c
2019-07-15_122106:400,-0.475861,0.021332,-0.141846,0.001227,0.00046699999999999997,0.0021780000000000002,-33.560001,20.0,-9.75,2c
2019-07-15_122106:420,-0.475861,0.023895,-0.139801,0.001227,0.00025299999999999997,0.0021780000000000002,-33.560001,20.0,-9.75,2c
2019-07-15_122106:440,-0.478912,0.023895,-0.138275,0.000983,0.000711,0.002514,-33.560001,20.0,-9.75,2c
2019-07-15_122106:460,-0.47943100000000005,0.023895,-0.137756,0.000647,0.001169,0.002514,-33.560001,20.0,-9.75,2c
2019-07-15_122106:480,-0.47689799999999993,0.023895,-0.139282,0.00031099999999999997,0.000711,0.002239,-33.560001,20.0,-9.75,2c
2019-07-15_122106:500,-0.475372,0.020844,-0.137756,3.7e-05,0.000314,0.0019649999999999997,-34.369999,20.0,-9.37,2c
2019-07-15_122106:520,-0.472321,0.020844,-0.138794,0.00025,-0.000357,0.002514,-34.369999,20.0,-9.37,2c
2019-07-15_122106:540,-0.473846,0.021332,-0.14032,0.0004940000000000001,-0.001059,0.0024530000000000003,-35.060001,19.25,-8.18,2c
2019-07-15_122106:560,-0.489075,0.021332,-0.139282,0.000586,-0.001425,0.0023,-35.060001,19.25,-8.18,2c
2019-07-15_122106:580,-0.47180200000000005,0.023895,-0.142334,0.001349,-0.00054,0.0024530000000000003,-35.060001,19.25,-8.18,2c
2019-07-15_122106:600,-0.476379,0.020844,-0.144897,0.001349,-0.000784,0.0019039999999999999,-34.75,20.0,-9.37,2c
2019-07-15_122106:620,-0.47180200000000005,0.020844,-0.142853,0.002081,-0.001425,0.001782,-34.75,20.0,-9.37,2c
2019-07-15_122106:640,-0.473846,0.021851,-0.145905,0.003271,-0.0021579999999999998,0.001324,-34.75,19.25,-9.0,2c
2019-07-15_122106:660,-0.47433500000000006,0.024384,-0.143372,0.004248,-0.0023710000000000003,0.001568,-34.75,19.25,-9.0,2c
2019-07-15_122106:680,-0.48196400000000006,0.026917,-0.146423,0.0048579999999999995,-0.002097,0.002239,-34.75,19.25,-9.0,2c
2019-07-15_122106:700,-0.484497,0.031006,-0.14386,0.004736,-0.001242,0.0019039999999999999,-35.5,19.559998999999998,-9.0,2c
2019-07-15_122106:720,-0.48349,0.032013,-0.14032,0.004309,-0.000327,0.001599,-35.5,19.559998999999998,-9.0,2c
2019-07-15_122106:740,-0.48095699999999997,0.031006,-0.142853,0.003394,0.000589,0.001507,-34.75,20.0,-10.25,2c
2019-07-15_122106:760,-0.475372,0.028961,-0.139801,0.002875,0.001169,0.001232,-34.75,20.0,-10.25,2c
2019-07-15_122106:780,-0.47842399999999996,0.028961,-0.137756,0.002539,0.00126,0.001843,-34.75,20.0,-10.25,2c
2019-07-15_122106:800,-0.47842399999999996,0.029968,-0.138794,0.002203,0.001199,0.0019649999999999997,-34.369999,19.25,-9.0,2c
2019-07-15_122106:820,-0.477386,0.028442000000000002,-0.135742,0.0018679999999999999,0.000925,0.002361,-34.369999,19.25,-9.0,2c
2019-07-15_122106:840,-0.477386,0.025908999999999998,-0.13623,0.0016239999999999998,0.00065,0.002392,-34.0,19.559998999999998,-9.75,2c
2019-07-15_122106:860,-0.475861,0.027954000000000003,-0.137756,0.0016239999999999998,0.00046699999999999997,0.0019649999999999997,-34.0,19.559998999999998,-9.75,2c
2019-07-15_122106:880,-0.476379,0.027954000000000003,-0.139801,0.001288,-0.000266,0.0019039999999999999,-34.0,19.559998999999998,-9.75,2c
2019-07-15_122106:900,-0.475861,0.027954000000000003,-0.140808,0.001349,-0.0008449999999999999,0.002575,-34.369999,18.870001000000002,-10.18,2c
2019-07-15_122106:920,-0.475372,0.027954000000000003,-0.139282,0.001288,-0.0010279999999999998,0.002728,-34.369999,18.870001000000002,-10.18,2c
2019-07-15_122106:940,-0.47842399999999996,0.024902,-0.137268,0.001379,-0.000967,0.002941,-35.060001,18.870001000000002,-9.37,2c
2019-07-15_122106:960,-0.461121,0.028442000000000002,-0.137756,0.001379,-0.00054,0.003094,-35.060001,18.870001000000002,-9.37,2c
2019-07-15_122106:980,-0.47332799999999997,0.026917,-0.141327,0.0017460000000000002,-0.0018219999999999998,0.0028190000000000003,-35.060001,18.870001000000002,-9.37,2c
2019-07-15_122107:000,-0.47689799999999993,0.025908999999999998,-0.140808,0.001715,-0.002707,0.003674,-35.5,20.370001000000002,-9.75,2c
2019-07-15_122107:020,-0.481476,0.025908999999999998,-0.141327,0.0018679999999999999,-0.0028899999999999998,0.005016,-35.5,20.370001000000002,-9.75,2c
2019-07-15_122107:040,-0.476379,0.025421,-0.141846,0.0015630000000000002,-0.001639,0.00462,-34.75,18.870001000000002,-9.75,2c
2019-07-15_122107:060,-0.484497,0.024902,-0.139801,0.001166,-0.000906,0.004131,-34.75,18.870001000000002,-9.75,2c
2019-07-15_122107:080,-0.475861,0.023375999999999997,-0.136749,0.000708,-0.000723,0.004009,-34.75,18.870001000000002,-9.75,2c
2019-07-15_122107:100,-0.477905,0.019318000000000002,-0.139801,0.00037200000000000004,-0.001059,0.004009,-35.5,19.559998999999998,-9.75,2c
2019-07-15_122107:120,-0.477905,0.019318000000000002,-0.140808,0.000647,-0.001364,0.0032770000000000004,-35.5,19.559998999999998,-9.75,2c
2019-07-15_122107:140,-0.477905,0.01828,-0.142853,0.001227,-0.001456,0.002758,-34.369999,19.559998999999998,-10.18,2c
2019-07-15_122107:160,-0.477386,0.016266,-0.14386,0.0021420000000000002,-0.001456,0.002392,-34.369999,19.559998999999998,-10.18,2c
2019-07-15_122107:180,-0.475372,0.019318000000000002,-0.14386,0.002875,-0.001181,0.0019039999999999999,-34.369999,19.559998999999998,-10.18,2c
2019-07-15_122107:200,-0.477386,0.020844,-0.14386,0.004004,-0.001059,0.001446,-34.0,19.25,-9.37,2c
2019-07-15_122107:220,-0.476379,0.024902,-0.144379,0.004462,-0.000723,0.001324,-34.0,19.25,-9.37,2c
2019-07-15_122107:240,-0.48095699999999997,0.028442000000000002,-0.142853,0.004462,-0.000601,0.001446,-34.75,19.559998999999998,-10.18,2c
2019-07-15_122107:260,-0.48043800000000003,0.029480000000000003,-0.140808,0.003973,-0.000327,0.000927,-34.75,19.559998999999998,-10.18,2c
2019-07-15_122107:280,-0.47995,0.029968,-0.140808,0.002997,-8.2e-05,0.000317,-34.75,19.559998999999998,-10.18,2c
2019-07-15_122107:300,-0.47995,0.029968,-0.140808,0.002386,-0.000143,0.000317,-35.060001,19.559998999999998,-8.56,2c
2019-07-15_122107:320,-0.47842399999999996,0.028442000000000002,-0.139801,0.001715,4e-05,0.000714,-35.060001,19.559998999999998,-8.56,2c
2019-07-15_122107:340,-0.475372,0.029480000000000003,-0.14032,0.0016239999999999998,-0.000266,0.001263,-34.75,18.870001000000002,-8.56,2c
2019-07-15_122107:360,-0.475861,0.029968,-0.140808,0.001501,-0.000357,0.0019649999999999997,-34.75,18.870001000000002,-8.56,2c
2019-07-15_122107:380,-0.47433500000000006,0.030487,-0.141846,0.001715,-0.000967,0.0024530000000000003,-34.75,18.870001000000002,-8.56,2c
2019-07-15_122107:400,-0.475372,0.030487,-0.142853,0.0015630000000000002,-0.000967,0.002636,-35.060001,18.870001000000002,-9.0,2c
2019-07-15_122107:420,-0.488068,0.029968,-0.142334,0.001501,-0.000967,0.002636,-35.060001,18.870001000000002,-9.0,2c
2019-07-15_122107:440,-0.466217,0.031494,-0.142334,0.001105,-0.000327,0.002636,-34.75,19.25,-9.75,2c
2019-07-15_122107:460,-0.473846,0.032013,-0.141846,0.000647,-0.001578,0.0024530000000000003,-34.75,19.25,-9.75,2c
2019-07-15_122107:480,-0.477386,0.031494,-0.14032,9.8e-05,-0.002097,0.002575,-34.75,19.25,-9.75,2c
2019-07-15_122107:500,-0.47842399999999996,0.029480000000000003,-0.141327,9.8e-05,-0.002097,0.002941,-34.75,19.559998999999998,-9.37,2c
2019-07-15_122107:520,-0.49365200000000004,0.029968,-0.142334,-8.499999999999999e-05,-0.002432,0.0028190000000000003,-34.75,19.559998999999998,-9.37,2c
2019-07-15_122107:540,-0.471283,0.027954000000000003,-0.140808,0.00031099999999999997,-0.0010279999999999998,0.0028190000000000003,-35.060001,18.5,-10.18,2c
2019-07-15_122107:560,-0.476379,0.026427999999999997,-0.142334,0.000586,-0.001242,0.0020559999999999997,-35.060001,18.5,-10.18,2c
2019-07-15_122107:580,-0.476379,0.027435,-0.141846,0.001227,-0.001181,0.002239,-35.060001,18.5,-10.18,2c
2019-07-15_122107:600,-0.47943100000000005,0.028442000000000002,-0.146912,0.0021420000000000002,-0.001364,0.002239,-34.75,18.870001000000002,-9.0,2c
2019-07-15_122107:620,-0.477386,0.029968,-0.144379,0.0020510000000000003,-0.001242,0.0020559999999999997,-34.75,18.870001000000002,-9.0,2c
2019-07-15_122107:640,-0.48043800000000003,0.031494,-0.144897,0.002264,-0.000723,0.002392,-33.0,19.559998999999998,-10.56,2c
2019-07-15_122107:660,-0.47842399999999996,0.029968,-0.142334,0.002203,-0.0006929999999999999,0.002392,-33.0,19.559998999999998,-10.56,2c
2019-07-15_122107:680,-0.478912,0.032013,-0.14386,0.002386,-0.000204,0.002514,-33.0,19.559998999999998,-10.56,2c
2019-07-15_122107:700,-0.478912,0.031006,-0.140808,0.00199,0.000528,0.002636,-34.75,19.25,-11.0,2c
2019-07-15_122107:720,-0.477905,0.030487,-0.141846,0.0018679999999999999,0.000772,0.0030629999999999998,-34.75,19.25,-11.0,2c
2019-07-15_122107:740,-0.473846,0.029480000000000003,-0.142853,0.001685,0.00046699999999999997,0.0030629999999999998,-34.75,19.25,-10.18,2c
2019-07-15_122107:760,-0.47280900000000003,0.029968,-0.140808,0.001349,-0.000204,0.002758,-34.75,19.25,-10.18,2c
2019-07-15_122107:780,-0.47689799999999993,0.029968,-0.144379,0.001288,-0.000723,0.002514,-34.75,19.25,-10.18,2c
2019-07-15_122107:800,-0.477905,0.028961,-0.143372,0.001715,-0.000967,0.0028190000000000003,-35.060001,18.870001000000002,-9.0,2c
2019-07-15_122107:820,-0.47995,0.029968,-0.144379,0.001227,-0.001242,0.00288,-35.060001,18.870001000000002,-9.0,2c
2019-07-15_122107:840,-0.477386,0.029968,-0.143372,0.001288,-0.0008449999999999999,0.0026969999999999997,-34.75,18.870001000000002,-9.37,2c
2019-07-15_122107:860,-0.47943100000000005,0.029968,-0.141846,0.0015630000000000002,-0.000662,0.002941,-34.75,18.870001000000002,-9.37,2c
2019-07-15_122107:880,-0.47842399999999996,0.029480000000000003,-0.144897,0.001349,-0.00041799999999999997,0.0026969999999999997,-34.75,18.870001000000002,-9.37,2c
2019-07-15_122107:900,-0.477386,0.029968,-0.14386,0.001379,-8.2e-05,0.002514,-34.369999,19.559998999999998,-9.75,2c
2019-07-15_122107:920,-0.47689799999999993,0.029968,-0.142853,0.001715,-0.000266,0.002514,-34.369999,19.559998999999998,-9.75,2c
2019-07-15_122107:940,-0.48300200000000004,0.029968,-0.144897,0.001379,-0.000204,0.0026969999999999997,-36.18,19.25,-9.75,2c
2019-07-15_122107:960,-0.47332799999999997,0.029968,-0.139801,0.00144,0.00025299999999999997,0.002728,-36.18,19.25,-9.75,2c
2019-07-15_122107:980,-0.47433500000000006,0.032013,-0.144379,0.0015630000000000002,-0.000266,0.002941,-36.18,19.25,-9.75,2c
2019-07-15_122108:000,-0.47943100000000005,0.030487,-0.143372,0.001501,-0.00054,0.0032159999999999997,-34.75,19.25,-9.75,2c
2019-07-15_122108:020,-0.475372,0.029480000000000003,-0.141846,0.0015630000000000002,-0.000204,0.003002,-34.75,19.25,-9.75,2c
2019-07-15_122108:040,-0.491638,0.027435,-0.151001,0.001715,0.0008029999999999999,0.0030629999999999998,-34.369999,19.25,-10.18,2c
2019-07-15_122108:060,-0.478912,0.028442000000000002,-0.141846,0.002081,-0.000357,0.0026969999999999997,-34.369999,19.25,-10.18,2c
2019-07-15_122108:080,-0.477905,0.029480000000000003,-0.139801,0.002539,-0.000601,0.002636,-34.369999,19.25,-10.18,2c
2019-07-15_122108:100,-0.482483,0.031494,-0.144379,0.0026,-0.000662,0.0024530000000000003,-34.75,18.870001000000002,-9.37,2c
2019-07-15_122108:120,-0.478912,0.03302,-0.14032,0.002478,7e-05,0.001782,-34.75,18.870001000000002,-9.37,2c
2019-07-15_122108:140,-0.47943100000000005,0.033539,-0.141327,0.002386,-2.1e-05,0.0026969999999999997,-34.369999,18.870001000000002,-9.75,2c
2019-07-15_122108:160,-0.473846,0.031494,-0.138275,0.00199,4e-05,0.0035520000000000005,-34.369999,18.870001000000002,-9.75,2c
2019-07-15_122108:180,-0.47332799999999997,0.029968,-0.14032,0.00199,-0.000327,0.004131,-34.369999,18.870001000000002,-9.75,2c
2019-07-15_122108:200,-0.475372,0.029968,-0.137268,0.001685,-0.000967,0.0047420000000000006,-35.5,19.25,-9.75,2c
2019-07-15_122108:220,-0.48043800000000003,0.026917,-0.139282,0.001288,-0.00112,0.004681,-35.5,19.25,-9.75,2c
2019-07-15_122108:240,-0.47842399999999996,0.027435,-0.139282,0.001105,-0.000906,0.004193,-34.369999,19.25,-8.56,2c
2019-07-15_122108:260,-0.477386,0.025421,-0.139801,0.001044,-0.00112,0.0033380000000000003,-34.369999,19.25,-8.56,2c
2019-07-15_122108:280,-0.476379,0.025908999999999998,-0.14032,0.001379,-0.001303,0.0021780000000000002,-34.369999,19.25,-8.56,2c
2019-07-15_122108:300,-0.47689799999999993,0.023375999999999997,-0.141846,0.0015630000000000002,-0.001517,0.001721,-34.75,18.5,-9.75,2c
2019-07-15_122108:320,-0.507904,0.027954000000000003,-0.14386,0.002539,0.000192,0.002361,-34.75,18.5,-9.75,2c
2019-07-15_122108:340,-0.471283,0.031006,-0.142853,0.00318,0.000986,0.001843,-34.75,19.25,-11.0,2c
2019-07-15_122108:360,-0.47689799999999993,0.03302,-0.141846,0.002783,-0.000143,0.001385,-34.75,19.25,-11.0,2c
2019-07-15_122108:380,-0.47689799999999993,0.034546,-0.141327,0.002325,-0.00041799999999999997,0.001568,-34.75,19.25,-11.0,2c
2019-07-15_122108:400,-0.481476,0.029968,-0.142334,0.001715,-0.000143,0.001843,-34.369999,19.25,-9.37,2c
2019-07-15_122108:420,-0.477905,0.028442000000000002,-0.141327,0.002081,0.000436,0.002392,-34.369999,19.25,-9.37,2c
2019-07-15_122108:440,-0.481476,0.031006,-0.144897,0.002325,0.000925,0.0023,-35.75,19.25,-9.0,2c
2019-07-15_122108:460,-0.47689799999999993,0.031006,-0.141327,0.0026609999999999997,0.000986,0.002514,-35.75,19.25,-9.0,2c
2019-07-15_122108:480,-0.47689799999999993,0.033539,-0.141327,0.002783,0.000436,0.002392,-35.75,19.25,-9.0,2c
2019-07-15_122108:500,-0.476379,0.033539,-0.141327,0.002325,-2.1e-05,0.0023,-34.75,19.25,-8.56,2c
2019-07-15_122108:520,-0.47842399999999996,0.03302,-0.138794,0.0021420000000000002,0.00065,0.0021780000000000002,-34.75,19.25,-8.56,2c
2019-07-15_122108:540,-0.476379,0.03302,-0.142334,0.00144,-0.000143,0.002239,-35.060001,19.559998999999998,-9.0,2c
2019-07-15_122108:560,-0.473846,0.03302,-0.141327,0.001227,-0.000601,0.002575,-35.060001,19.559998999999998,-9.0,2c
2019-07-15_122108:580,-0.47433500000000006,0.032013,-0.140808,0.001379,-0.001059,0.003002,-35.060001,19.559998999999998,-9.0,2c
2019-07-15_122108:600,-0.47842399999999996,0.032013,-0.141327,0.001105,-0.001059,0.0032159999999999997,-34.75,20.0,-9.0,2c
2019-07-15_122108:620,-0.48095699999999997,0.035583,-0.136749,0.001227,-0.001517,0.003399,-34.75,20.0,-9.0,2c
2019-07-15_122108:640,-0.47995,0.034058,-0.138794,0.00015900000000000002,-0.001517,0.0033380000000000003,-34.75,18.870001000000002,-9.37,2c
2019-07-15_122108:660,-0.48095699999999997,0.032532,-0.139801,3.7e-05,-0.000906,0.003002,-34.75,18.870001000000002,-9.37,2c
2019-07-15_122108:680,-0.47943100000000005,0.031006,-0.140808,-0.000177,-0.0010279999999999998,0.0023,-34.75,18.870001000000002,-9.37,2c
2019-07-15_122108:700,-0.47689799999999993,0.031006,-0.14032,9.8e-05,-0.0006929999999999999,0.0023,-35.060001,18.870001000000002,-8.56,2c
2019-07-15_122108:720,-0.477905,0.030487,-0.141846,0.0004940000000000001,-0.000723,0.002239,-35.060001,18.870001000000002,-8.56,2c
2019-07-15_122108:740,-0.47943100000000005,0.032532,-0.14032,0.000647,-0.00041799999999999997,0.002514,-35.060001,18.870001000000002,-8.56,2c
2019-07-15_122108:760,-0.47689799999999993,0.032532,-0.141846,0.000433,-0.000479,0.0028190000000000003,-35.060001,18.870001000000002,-8.56,2c
2019-07-15_122108:780,-0.473846,0.031006,-0.141846,0.000769,-0.000662,0.003857,-35.060001,18.870001000000002,-8.56,2c
2019-07-15_122108:800,-0.47433500000000006,0.029968,-0.141327,0.001105,-0.00112,0.004070000000000001,-35.5,18.5,-9.0,2c
2019-07-15_122108:820,-0.474854,0.031006,-0.140808,0.0015630000000000002,-0.0018219999999999998,0.003735,-35.5,18.5,-9.0,2c
2019-07-15_122108:840,-0.48553500000000005,0.026427999999999997,-0.142334,0.001501,-0.001761,0.003735,-35.5,19.25,-9.75,2c
2019-07-15_122108:860,-0.489594,0.026917,-0.141846,0.001929,-0.000906,0.004803,-35.5,19.25,-9.75,2c
2019-07-15_122108:880,-0.476379,0.029480000000000003,-0.140808,0.002478,0.00046699999999999997,0.005016,-35.5,19.25,-9.75,2c
2019-07-15_122108:900,-0.477905,0.030487,-0.144379,0.002386,0.000131,0.004345,-35.060001,19.25,-9.37,2c
2019-07-15_122108:920,-0.47842399999999996,0.029968,-0.137756,0.002203,-0.000327,0.003948,-35.060001,19.25,-9.37,2c
2019-07-15_122108:940,-0.485016,0.031494,-0.136749,0.002264,0.00065,0.0036130000000000003,-35.060001,18.5,-8.56,2c
2019-07-15_122108:960,-0.47689799999999993,0.030487,-0.140808,0.0021420000000000002,0.00025299999999999997,0.00346,-35.060001,18.5,-8.56,2c
2019-07-15_122108:980,-0.475861,0.031006,-0.14032,0.00199,-0.000327,0.0032159999999999997,-35.060001,18.5,-8.56,2c
2019-07-15_122109:000,-0.476379,0.031006,-0.139801,0.001349,-0.00041799999999999997,0.002514,-35.060001,18.870001000000002,-9.75,2c
2019-07-15_122109:020,-0.477386,0.031006,-0.138794,0.000983,-0.000479,0.002758,-35.060001,18.870001000000002,-9.75,2c
2019-07-15_122109:040,-0.481476,0.028961,-0.14032,0.001288,-0.000357,0.00288,-34.0,19.25,-9.75,2c
2019-07-15_122109:060,-0.471283,0.030487,-0.135223,0.001501,-0.000479,0.003094,-34.0,19.25,-9.75,2c
2019-07-15_122109:080,-0.477386,0.029480000000000003,-0.141846,0.001715,-0.000662,0.003002,-34.0,19.25,-9.75,2c
2019-07-15_122109:100,-0.477905,0.030487,-0.139282,0.00199,-0.0008449999999999999,0.0032159999999999997,-34.0,19.559998999999998,-9.37,2c
2019-07-15_122109:120,-0.484009,0.031006,-0.138794,0.0018679999999999999,-0.000479,0.0032159999999999997,-34.0,19.559998999999998,-9.37,2c
2019-07-15_122109:140,-0.481476,0.030487,-0.141327,0.001929,7e-05,0.0031550000000000003,-34.0,18.870001000000002,-7.87,2c
2019-07-15_122109:160,-0.47943100000000005,0.029968,-0.140808,0.001715,0.000314,0.0032159999999999997,-34.0,18.870001000000002,-7.87,2c
2019-07-15_122109:180,-0.476379,0.030487,-0.139282,0.001379,0.000314,0.0032159999999999997,-34.0,18.870001000000002,-7.87,2c
2019-07-15_122109:200,-0.477386,0.030487,-0.138794,0.001379,0.000131,0.0032770000000000004,-35.5,18.870001000000002,-9.06,2c
2019-07-15_122109:220,-0.47842399999999996,0.030487,-0.137268,0.001227,-0.000204,0.0033380000000000003,-35.5,18.870001000000002,-9.06,2c
2019-07-15_122109:240,-0.477905,0.029968,-0.138794,0.001105,-0.000327,0.003094,-34.75,18.870001000000002,-9.06,2c
2019-07-15_122109:260,-0.475861,0.030487,-0.139282,0.000891,-0.000662,0.002941,-34.75,18.870001000000002,-9.06,2c
2019-07-15_122109:280,-0.476379,0.029480000000000003,-0.138275,0.000708,-0.000906,0.003002,-34.75,18.870001000000002,-9.06,2c
2019-07-15_122109:300,-0.477905,0.029480000000000003,-0.139801,0.000647,-0.00112,0.0032159999999999997,-34.75,19.559998999999998,-9.06,2c
2019-07-15_122109:320,-0.47842399999999996,0.028961,-0.139282,0.000983,-0.0010279999999999998,0.0032159999999999997,-34.75,19.559998999999998,-9.06,2c
2019-07-15_122109:340,-0.477386,0.028442000000000002,-0.140808,0.001105,-0.0008449999999999999,0.0032159999999999997,-35.060001,18.5,-8.68,2c
2019-07-15_122109:360,-0.47995,0.029968,-0.139282,0.00144,-0.0010279999999999998,0.0031550000000000003,-35.060001,18.5,-8.68,2c
2019-07-15_122109:380,-0.47943100000000005,0.028961,-0.137756,0.001501,-0.000662,0.0032770000000000004,-35.060001,18.5,-8.68,2c
2019-07-15_122109:400,-0.48196400000000006,0.028961,-0.138794,0.0017460000000000002,-0.0006929999999999999,0.003002,-34.0,18.870001000000002,-9.5,2c
2019-07-15_122109:420,-0.460114,0.028442000000000002,-0.139282,0.00199,-0.001425,0.002941,-34.0,18.870001000000002,-9.5,2c
2019-07-15_122109:440,-0.47995,0.026917,-0.148956,0.0020510000000000003,-0.00231,0.002758,-34.369999,19.25,-9.06,2c
2019-07-15_122109:460,-0.477386,0.029968,-0.134216,0.002722,-0.001578,0.00346,-34.369999,19.25,-9.06,2c
2019-07-15_122109:480,-0.48349,0.029480000000000003,-0.141846,0.002844,-0.001425,0.0028190000000000003,-34.369999,19.25,-9.06,2c
