timestamp,AccX,AccY,AccZ,GyroX,GyroY,GyroZ,MagX,MagY,MagZ,Activity
2019-07-15_141740:100,-0.45654300000000003,0.041168,-0.170319,-0.0032670000000000004,0.001301,0.001399,-38.869999,-2.87,0.75,2a
2019-07-15_141740:120,-0.45605500000000004,0.045226999999999996,-0.168274,-0.0026260000000000003,-0.001324,0.002254,-38.869999,-2.87,0.75,2a
2019-07-15_141740:140,-0.462646,0.041168,-0.171326,-0.0025039999999999997,-0.003918,0.004695,-41.060001,-2.18,1.56,2a
2019-07-15_141740:160,-0.485016,0.039124,-0.171326,-0.001253,-0.003704,0.007258,-41.060001,-2.18,1.56,2a
2019-07-15_141740:180,-0.46417200000000003,0.040649,-0.159119,-0.001375,-0.003796,0.007594,-41.5,-2.18,2.37,2a
2019-07-15_141740:200,-0.457581,0.038116000000000004,-0.170319,-0.001436,-0.004589,0.006404000000000001,-41.5,-2.18,2.37,2a
2019-07-15_141740:220,-0.458588,0.040649,-0.17385899999999999,-0.002046,-0.006115,0.006465,-41.5,-2.18,2.37,2a
2019-07-15_141740:240,-0.46569799999999995,0.041687,-0.175903,-0.0026260000000000003,-0.006451,0.006618000000000001,-41.869999,-1.37,1.56,2a
2019-07-15_141740:260,-0.48300200000000004,0.039124,-0.177948,-0.004396,-0.005383,0.006129,-41.869999,-1.37,1.56,2a
2019-07-15_141740:280,-0.48300200000000004,0.036591000000000005,-0.177948,-0.004915,-0.004528,0.005824,-40.369999,-1.75,1.87,2a
2019-07-15_141740:300,-0.49468999999999996,0.03302,-0.185547,-0.005647,-0.0007740000000000001,0.006465,-40.369999,-1.75,1.87,2a
2019-07-15_141740:320,-0.484009,0.03302,-0.17843599999999998,-0.0058,0.001911,0.0068920000000000006,-40.369999,-1.75,1.87,2a
2019-07-15_141740:340,-0.47842399999999996,0.029968,-0.18249500000000002,-0.005983,0.002552,0.006801000000000001,-40.75,-1.75,1.06,2a
2019-07-15_141740:360,-0.477386,0.029968,-0.176422,-0.005983,0.004963,0.006953,-40.75,-1.75,1.06,2a
2019-07-15_141740:380,-0.477386,0.030487,-0.17690999999999998,-0.005769,0.0060609999999999995,0.0068920000000000006,-41.5,-2.18,1.56,2a
2019-07-15_141740:400,-0.474854,0.031006,-0.17843599999999998,-0.005983,0.007923000000000001,0.006068,-41.5,-2.18,1.56,2a
2019-07-15_141740:420,-0.472321,0.031494,-0.17690999999999998,-0.006135,0.008747,0.005733,-41.5,-2.18,1.56,2a
2019-07-15_141740:440,-0.472321,0.031494,-0.17538499999999999,-0.006654,0.008655,0.00561,-41.060001,-2.18,0.37,2a
2019-07-15_141740:460,-0.47943100000000005,0.033539,-0.172333,-0.007112,0.009448999999999999,0.005336,-41.060001,-2.18,0.37,2a
2019-07-15_141740:480,-0.48300200000000004,0.032532,-0.172333,-0.007326000000000001,0.01012,0.004939,-40.75,-1.75,2.37,2a
2019-07-15_141740:500,-0.48300200000000004,0.033539,-0.1698,-0.007967,0.012318,0.004634,-40.75,-1.75,2.37,2a
2019-07-15_141740:520,-0.486023,0.034546,-0.166229,-0.008241,0.013905,0.005763,-40.75,-1.75,2.37,2a
2019-07-15_141740:540,-0.48654200000000003,0.033539,-0.16217,-0.008302,0.014454,0.006129,-40.369999,-1.0,2.75,2a
2019-07-15_141740:560,-0.481476,0.033539,-0.158112,-0.008516,0.016834000000000002,0.005824,-40.369999,-1.0,2.75,2a
2019-07-15_141740:580,-0.474854,0.032013,-0.153015,-0.008516,0.017292,0.005824,-40.75,-1.75,3.06,2a
2019-07-15_141740:600,-0.474854,0.032013,-0.151001,-0.009035,0.016712,0.0065260000000000006,-40.75,-1.75,3.06,2a
2019-07-15_141740:620,-0.47433500000000006,0.029480000000000003,-0.145905,-0.009767,0.016437,0.006282,-40.75,-1.75,3.06,2a
2019-07-15_141740:640,-0.478912,0.025421,-0.138794,-0.010164,0.015827,0.006007,-41.060001,-1.0,2.37,2a
2019-07-15_141740:660,-0.489075,0.022369,-0.13269,-0.009889,0.016224000000000002,0.005092,-41.060001,-1.0,2.37,2a
2019-07-15_141740:680,-0.495697,0.018799,-0.12658699999999998,-0.009553,0.016956,0.004634,-40.75,-1.0,5.06,2a
2019-07-15_141740:700,-0.497742,0.019806,-0.12200899999999999,-0.008028,0.019764,0.004542,-40.75,-1.0,5.06,2a
2019-07-15_141740:720,-0.498749,0.023375999999999997,-0.11438,-0.007234,0.021351,0.005214,-40.75,-1.0,5.06,2a
2019-07-15_141740:740,-0.49468999999999996,0.023375999999999997,-0.11233499999999999,-0.006929,0.022144,0.004939,-41.060001,-1.0,3.87,2a
2019-07-15_141740:760,-0.473846,0.026427999999999997,-0.10928299999999999,-0.005769,0.022724,0.0035659999999999997,-41.060001,-1.0,3.87,2a
2019-07-15_141740:780,-0.46316499999999994,0.031006,-0.108795,-0.005403,0.020344,0.0031079999999999997,-41.060001,-1.0,3.87,2a
2019-07-15_141740:800,-0.463654,0.034546,-0.107269,-0.005189,0.016712,0.0024059999999999997,-40.75,-1.0,6.37,2a
2019-07-15_141740:820,-0.467743,0.036072,-0.107269,-0.005647,0.012501,0.0010019999999999999,-40.75,-1.0,6.37,2a
2019-07-15_141740:840,-0.473846,0.041168,-0.107269,-0.006135,0.009387999999999999,-0.000127,-40.369999,-1.0,6.75,2a
2019-07-15_141740:860,-0.48300200000000004,0.044739,-0.10675,-0.006837,0.0070079999999999995,-0.000279,-40.369999,-1.0,6.75,2a
2019-07-15_141740:880,-0.488068,0.047272,-0.105743,-0.007265000000000001,0.006,0.000453,-40.369999,-1.0,6.75,2a
2019-07-15_141740:900,-0.49517799999999995,0.05285599999999999,-0.10318,-0.008424,0.006,0.0021920000000000004,-40.369999,-0.25,5.87,2a
2019-07-15_141740:920,-0.500793,0.055389,-0.102173,-0.009156999999999998,0.006611,0.003871,-40.369999,-0.25,5.87,2a
2019-07-15_141740:940,-0.501801,0.056915,-0.094055,-0.010042,0.008655,0.00854,-41.060001,-1.0,6.75,2a
2019-07-15_141740:960,-0.504333,0.05285599999999999,-0.09353600000000001,-0.010438,0.008869,0.010646,-41.060001,-1.0,6.75,2a
2019-07-15_141740:980,-0.49926800000000005,0.050323,-0.087952,-0.00992,0.010242,0.012965,-41.060001,-1.0,6.75,2a
2019-07-15_141741:000,-0.492126,0.042175,-0.086914,-0.009035,0.010639000000000001,0.01385,-40.060001,-1.37,8.75,2a
2019-07-15_141741:020,-0.49111899999999997,0.040161,-0.083374,-0.0068980000000000005,0.010334000000000001,0.013789,-40.060001,-1.37,8.75,2a
2019-07-15_141741:040,-0.48754899999999995,0.035583,-0.082855,-0.006104999999999999,0.009845999999999999,0.015498,-40.75,0.06,7.87,2a
2019-07-15_141741:060,-0.48754899999999995,0.029480000000000003,-0.08081100000000001,-0.006044,0.009448999999999999,0.017909,-40.75,0.06,7.87,2a
2019-07-15_141741:080,-0.48754899999999995,0.016266,-0.078796,-0.006532,0.008717,0.01974,-40.75,0.06,7.87,2a
2019-07-15_141741:100,-0.490601,0.0035399999999999997,-0.07775900000000001,-0.007844,0.008472,0.020472999999999998,-45.560001,0.37,7.56,2a
2019-07-15_141741:120,-0.48858599999999996,-0.006072999999999999,-0.075226,-0.009035,0.008259,0.019679,-45.560001,0.37,7.56,2a
2019-07-15_141741:140,-0.486023,-0.015228,-0.075226,-0.009828,0.00713,0.016566,-40.060001,0.75,9.06,2a
2019-07-15_141741:160,-0.489594,-0.019806,-0.074738,-0.009889,0.005756,0.012598999999999999,-40.060001,0.75,9.06,2a
2019-07-15_141741:180,-0.492126,-0.020844,-0.075226,-0.008974,0.004353,0.009729999999999999,-40.060001,0.75,9.06,2a
2019-07-15_141741:200,-0.496216,-0.021332,-0.075745,-0.007783,0.002949,0.007869,-40.369999,1.87,9.06,2a
2019-07-15_141741:220,-0.502808,-0.022369,-0.0737,-0.006502,0.002491,0.0061600000000000005,-40.369999,1.87,9.06,2a
2019-07-15_141741:240,-0.509918,-0.022369,-0.071167,-0.00461,0.0032229999999999997,0.005031,-40.060001,1.87,9.06,2a
2019-07-15_141741:260,-0.511444,-0.022369,-0.067596,-0.002687,0.005024,0.0035659999999999997,-40.060001,1.87,9.06,2a
2019-07-15_141741:280,-0.496216,-0.015747,-0.071167,-0.0007030000000000001,0.006732999999999999,0.001918,-40.060001,1.87,9.06,2a
2019-07-15_141741:300,-0.48349,-0.010651,-0.073212,0.000487,0.006214,-0.00033999999999999997,-40.060001,2.25,9.06,2a
2019-07-15_141741:320,-0.48349,-0.0025329999999999997,-0.076263,0.001402,0.004017,-0.001866,-40.060001,2.25,9.06,2a
2019-07-15_141741:340,-0.49517799999999995,-0.004059,-0.07928500000000001,0.001616,0.002552,-0.002263,-39.68,3.0,10.75,2a
2019-07-15_141741:360,-0.508911,0.000488,-0.076263,0.00128,0.0030399999999999997,-0.003392,-39.68,3.0,10.75,2a
2019-07-15_141741:380,-0.51297,0.001007,-0.075226,0.0008230000000000001,0.004749000000000001,-0.004064,-39.68,3.0,10.75,2a
2019-07-15_141741:400,-0.507904,0.0030210000000000002,-0.073212,0.0005480000000000001,0.006336,-0.005559000000000001,-40.060001,1.87,10.25,2a
2019-07-15_141741:420,-0.5109560000000001,0.007111,-0.0737,0.000212,0.006611,-0.0065049999999999995,-40.060001,1.87,10.25,2a
2019-07-15_141741:440,-0.511444,0.009644,-0.07016,0.000487,0.008076,-0.007176,-40.060001,2.25,10.25,2a
2019-07-15_141741:460,-0.5109560000000001,0.016266,-0.05996699999999999,9e-05,0.010273000000000001,-0.007634,-40.060001,2.25,10.25,2a
2019-07-15_141741:480,-0.508423,0.017273,-0.059479,0.000304,0.012104,-0.007481999999999999,-40.060001,2.25,10.25,2a
2019-07-15_141741:500,-0.506897,0.022858,-0.055908000000000006,0.000212,0.013508000000000001,-0.007115000000000001,-40.369999,0.75,11.56,2a
2019-07-15_141741:520,-0.500793,0.028442000000000002,-0.047791,-0.000368,0.015156000000000001,-0.006169,-40.369999,0.75,11.56,2a
2019-07-15_141741:540,-0.502808,0.027435,-0.043213,-0.001161,0.015888,-0.0057729999999999995,-40.060001,0.75,11.87,2a
2019-07-15_141741:560,-0.506897,0.028961,-0.03302,-0.001894,0.017109,-0.006626999999999999,-40.060001,0.75,11.87,2a
2019-07-15_141741:580,-0.5058590000000001,0.031006,-0.030487,-0.0026260000000000003,0.017628,-0.007024,-40.060001,0.75,11.87,2a
2019-07-15_141741:600,-0.502319,0.032532,-0.024384,-0.003542,0.018146000000000002,-0.0057729999999999995,-39.369999,0.75,11.87,2a
2019-07-15_141741:620,-0.495697,0.035065,-0.016753999999999998,-0.005464,0.017078,-0.003331,-39.369999,0.75,11.87,2a
2019-07-15_141741:640,-0.48754899999999995,0.028442000000000002,-0.01828,-0.007051000000000001,0.015766,-0.000737,-38.869999,0.06,11.56,2a
2019-07-15_141741:660,-0.475861,0.025421,-0.012695,-0.008119,0.01305,5.6000000000000006e-05,-38.869999,0.06,11.56,2a
2019-07-15_141741:680,-0.47689799999999993,0.024902,-0.014740000000000001,-0.008577,0.009144,0.00020899999999999998,-38.869999,0.06,11.56,2a
2019-07-15_141741:700,-0.484009,0.022858,-0.014740000000000001,-0.008974,0.005543,-6.6e-05,-38.18,0.37,13.06,2a
2019-07-15_141741:720,-0.492645,0.018799,-0.016266,-0.009156999999999998,0.00301,5.6000000000000006e-05,-38.18,0.37,13.06,2a
2019-07-15_141741:740,-0.501801,0.016753999999999998,-0.015747,-0.008516,0.001301,0.000453,-38.25,-0.25,13.56,2a
2019-07-15_141741:760,-0.502319,0.015747,-0.014221000000000001,-0.007387,0.0007509999999999999,0.000941,-38.25,-0.25,13.56,2a
2019-07-15_141741:780,-0.5048520000000001,0.016753999999999998,-0.018799,-0.006593000000000001,0.00038500000000000003,0.001582,-38.25,-0.25,13.56,2a
2019-07-15_141741:800,-0.503845,0.017792,-0.017273,-0.005372999999999999,0.000843,0.002009,-39.68,-0.68,13.56,2a
2019-07-15_141741:820,-0.502319,0.01828,-0.019318000000000002,-0.004518,0.001026,0.001796,-39.68,-0.68,13.56,2a
2019-07-15_141741:840,-0.49316400000000005,0.023895,-0.022858,-0.004671,0.000446,0.0017350000000000002,-38.560001,-1.0,13.06,2a
2019-07-15_141741:860,-0.495697,0.026917,-0.020844,-0.005525,-0.0005,0.0017350000000000002,-38.560001,-1.0,13.06,2a
2019-07-15_141741:880,-0.496216,0.031006,-0.023895,-0.006441,-0.001537,0.0012460000000000001,-38.560001,-1.0,13.06,2a
2019-07-15_141741:900,-0.49468999999999996,0.034546,-0.024384,-0.007783,-0.00285,0.00088,-38.560001,-1.0,12.75,2a
2019-07-15_141741:920,-0.49316400000000005,0.036591000000000005,-0.024384,-0.009248000000000001,-0.00465,0.001582,-38.560001,-1.0,12.75,2a
2019-07-15_141741:940,-0.5058590000000001,0.03302,-0.023375999999999997,-0.011018,-0.0060539999999999995,0.002315,-28.68,0.06,12.75,2a
2019-07-15_141741:960,-0.5119630000000001,0.028442000000000002,-0.019806,-0.0123,-0.005261,0.002131,-28.68,0.06,12.75,2a
2019-07-15_141741:980,-0.511444,0.025421,-0.020844,-0.012636,-0.003002,0.001857,-28.68,0.06,12.75,2a
2019-07-15_141742:000,-0.505371,0.024384,-0.022369,-0.012086,-0.001782,0.00207,-39.25,-0.25,13.18,2a
2019-07-15_141742:020,-0.503326,0.026917,-0.025908999999999998,-0.010957,-0.0016589999999999999,0.002711,-39.25,-0.25,13.18,2a
2019-07-15_141742:040,-0.49823,0.032532,-0.025908999999999998,-0.010622,-0.0020559999999999997,0.004207,-38.869999,-0.25,13.68,2a
2019-07-15_141742:060,-0.503326,0.035583,-0.023375999999999997,-0.010683,-0.001873,0.0068920000000000006,-38.869999,-0.25,13.68,2a
2019-07-15_141742:080,-0.506897,0.031006,-0.027435,-0.011231999999999999,-0.001324,0.008876,-38.869999,-0.25,13.68,2a
2019-07-15_141742:100,-0.49975600000000003,0.032013,-0.027954000000000003,-0.011568,-0.0011099999999999999,0.008479,-40.060001,-1.0,13.68,2a
2019-07-15_141742:120,-0.496704,0.030487,-0.026427999999999997,-0.011903,-0.0014759999999999999,0.007869,-40.060001,-1.0,13.68,2a
2019-07-15_141742:140,-0.49926800000000005,0.030487,-0.027435,-0.012697,-0.002514,0.00793,-38.869999,0.37,13.68,2a
2019-07-15_141742:160,-0.503845,0.028442000000000002,-0.023895,-0.013094,-0.0024530000000000003,0.008388,-38.869999,0.37,13.68,2a
2019-07-15_141742:180,-0.504333,0.027435,-0.027954000000000003,-0.012697,-0.00172,0.007869,-38.869999,0.37,13.68,2a
2019-07-15_141742:200,-0.503845,0.032013,-0.029480000000000003,-0.011079,-0.001537,0.004878,-39.68,-0.25,14.0,2a
2019-07-15_141742:220,-0.502319,0.037598,-0.027954000000000003,-0.008638,-0.0011099999999999999,0.0021920000000000004,-39.68,-0.25,14.0,2a
2019-07-15_141742:240,-0.503326,0.045226999999999996,-0.030487,-0.006379999999999999,-0.0011099999999999999,0.000484,-39.25,0.37,12.87,2a
2019-07-15_141742:260,-0.498749,0.048279,-0.029480000000000003,-0.004793,-0.001873,-0.000585,-39.25,0.37,12.87,2a
2019-07-15_141742:280,-0.502319,0.050842,-0.030487,-0.003023,-0.003002,-0.000676,-39.25,0.37,12.87,2a
2019-07-15_141742:300,-0.504333,0.051849,-0.028442000000000002,-0.002229,-0.002972,-0.000279,-38.869999,0.06,13.18,2a
2019-07-15_141742:320,-0.507904,0.049805,-0.027435,-0.001558,-0.003002,-0.000524,-38.869999,0.06,13.18,2a
2019-07-15_141742:340,-0.505371,0.05285599999999999,-0.028961,-0.000978,-0.002392,-0.0011949999999999999,-38.869999,0.06,12.87,2a
2019-07-15_141742:360,-0.503845,0.05285599999999999,-0.027435,-0.000825,-0.0020559999999999997,-0.0014089999999999999,-38.869999,0.06,12.87,2a
2019-07-15_141742:380,-0.502808,0.050842,-0.026427999999999997,-0.000429,-0.0014759999999999999,-0.001927,-38.869999,0.06,12.87,2a
2019-07-15_141742:400,-0.5048520000000001,0.050323,-0.025421,-0.000124,-0.001598,-0.002782,-39.25,0.37,13.68,2a
2019-07-15_141742:420,-0.49926800000000005,0.049316000000000006,-0.022858,0.000273,-0.0016589999999999999,-0.002934,-39.25,0.37,13.68,2a
2019-07-15_141742:440,-0.496704,0.047791,-0.024384,0.0009449999999999999,-0.001995,-0.003728,-39.25,-0.68,13.18,2a
2019-07-15_141742:460,-0.49517799999999995,0.044739,-0.023375999999999997,0.0014939999999999999,-0.002575,-0.0046429999999999996,-39.25,-0.68,13.18,2a
2019-07-15_141742:480,-0.496216,0.044219999999999995,-0.022858,0.002287,-0.003796,-0.005162,-39.25,-0.68,13.18,2a
2019-07-15_141742:500,-0.49722299999999997,0.042694,-0.023895,0.0036,-0.005383,-0.005497999999999999,-39.25,0.06,13.68,2a
2019-07-15_141742:520,-0.49111899999999997,0.043701,-0.024902,0.004607,-0.006634,-0.006352,-39.25,0.06,13.68,2a
2019-07-15_141742:540,-0.49111899999999997,0.052338,-0.034058,0.0054,-0.008159999999999999,-0.00678,-38.869999,-0.68,11.68,2a
2019-07-15_141742:560,-0.49722299999999997,0.059479,-0.034546,0.004942,-0.00996,-0.0057729999999999995,-38.869999,-0.68,11.68,2a
2019-07-15_141742:580,-0.5058590000000001,0.06253099999999999,-0.037598,0.003935,-0.010143000000000001,-0.002904,-38.869999,-0.68,11.68,2a
2019-07-15_141742:600,-0.50943,0.06149299999999999,-0.037598,0.002287,-0.010081999999999999,-0.001134,-38.869999,-1.37,12.37,2a
2019-07-15_141742:620,-0.51297,0.060486,-0.036072,0.001097,-0.008038,0.000331,-38.869999,-1.37,12.37,2a
2019-07-15_141742:640,-0.5109560000000001,0.057953,-0.036072,0.000212,-0.00642,0.0024059999999999997,-38.869999,-1.75,12.87,2a
2019-07-15_141742:660,-0.5109560000000001,0.053375,-0.037598,-0.000368,-0.004986,0.0036270000000000004,-38.869999,-1.75,12.87,2a
2019-07-15_141742:680,-0.506378,0.047791,-0.036072,-0.0005200000000000001,-0.003643,0.00442,-38.869999,-1.75,12.87,2a
2019-07-15_141742:700,-0.504333,0.046752999999999996,-0.038635,-0.000459,-0.0035210000000000003,0.0051530000000000005,-39.68,-1.75,12.87,2a
2019-07-15_141742:720,-0.495697,0.043701,-0.038116000000000004,9e-05,-0.003246,0.0058850000000000005,-39.68,-1.75,12.87,2a
2019-07-15_141742:740,-0.489594,0.044219999999999995,-0.038116000000000004,-0.000124,-0.00346,0.00674,-39.68,-1.37,11.18,2a
2019-07-15_141742:760,-0.49823,0.042175,-0.040649,-0.0007639999999999999,-0.004253,0.008052,-39.68,-1.37,11.18,2a
2019-07-15_141742:780,-0.492126,0.041687,-0.038635,-0.001161,-0.004589,0.008662000000000001,-39.68,-1.37,11.18,2a
2019-07-15_141742:800,-0.49975600000000003,0.039642000000000004,-0.040161,-0.001894,-0.005261,0.008052,-42.560001,-1.0,12.0,2a
2019-07-15_141742:820,-0.49975600000000003,0.041168,-0.044739,-0.00229,-0.005047,0.007014,-42.560001,-1.0,12.0,2a
2019-07-15_141742:840,-0.496704,0.042175,-0.047791,-0.002565,-0.0055049999999999995,0.006953,-39.25,-0.68,11.68,2a
2019-07-15_141742:860,-0.496704,0.039124,-0.049805,-0.003023,-0.006359,0.008204000000000001,-39.25,-0.68,11.68,2a
2019-07-15_141742:880,-0.501801,0.039124,-0.053375,-0.0038469999999999997,-0.007488,0.009547,-39.25,-0.68,11.68,2a
2019-07-15_141742:900,-0.506378,0.037598,-0.05438200000000001,-0.004335,-0.007763,0.010737,-39.68,-1.0,11.68,2a
2019-07-15_141742:920,-0.515533,0.035583,-0.053375,-0.005067,-0.007092,0.010646,-39.68,-1.0,11.68,2a
2019-07-15_141742:940,-0.5109560000000001,0.036072,-0.055908000000000006,-0.004793,-0.005444,0.010126999999999999,-39.68,-0.68,12.0,2a
2019-07-15_141742:960,-0.503845,0.035583,-0.057434000000000006,-0.004121,-0.003704,0.009395,-39.68,-0.68,12.0,2a
2019-07-15_141742:980,-0.48654200000000003,0.035583,-0.057953,-0.003206,-0.00285,0.009944,-39.68,-0.68,12.0,2a
2019-07-15_141743:000,-0.511444,0.036591000000000005,-0.056427,-0.001894,-0.003368,0.010646,-40.060001,-0.25,10.5,2a
2019-07-15_141743:020,-0.516022,0.038116000000000004,-0.053375,-0.000978,-0.002667,0.010126999999999999,-40.060001,-0.25,10.5,2a
2019-07-15_141743:040,-0.509918,0.031006,-0.051330999999999995,-0.0005809999999999999,-0.0005610000000000001,0.008937,-40.060001,-0.25,10.87,2a
2019-07-15_141743:060,-0.511444,0.025908999999999998,-0.050323,9e-05,0.00182,0.007808,-40.060001,-0.25,10.87,2a
2019-07-15_141743:080,-0.49517799999999995,0.025421,-0.050842,0.001158,0.002888,0.00854,-40.060001,-0.25,10.87,2a
2019-07-15_141743:100,-0.489594,0.020325,-0.051849,0.002348,0.002613,0.009729999999999999,-39.25,0.37,10.37,2a
2019-07-15_141743:120,-0.488068,0.014740000000000001,-0.047272,0.003325,0.0021550000000000002,0.009944,-39.25,0.37,10.37,2a
2019-07-15_141743:140,-0.484497,0.014740000000000001,-0.048279,0.00421,0.001362,0.011439,-40.060001,0.75,12.37,2a
2019-07-15_141743:160,-0.48553500000000005,0.013213999999999998,-0.048279,0.004393,1.9e-05,0.01324,-40.060001,0.75,12.37,2a
2019-07-15_141743:180,-0.48300200000000004,0.011687999999999999,-0.055908000000000006,0.003691,-0.0027890000000000002,0.012172,-40.060001,0.75,12.37,2a
2019-07-15_141743:200,-0.49468999999999996,0.017273,-0.06149299999999999,0.002196,-0.006023,0.010463,-40.060001,0.37,10.87,2a
2019-07-15_141743:220,-0.5058590000000001,0.015747,-0.06405599999999999,0.0005480000000000001,-0.0069700000000000005,0.008784,-40.060001,0.37,10.87,2a
2019-07-15_141743:240,-0.514496,0.015228,-0.065063,-0.001314,-0.0069700000000000005,0.006068,-39.68,1.06,12.0,2a
2019-07-15_141743:260,-0.522125,0.010651,-0.062012,-0.0025039999999999997,-0.004833,0.003474,-39.68,1.06,12.0,2a
2019-07-15_141743:280,-0.522125,0.008118,-0.060486,-0.0028399999999999996,-0.001782,0.000728,-39.68,1.06,12.0,2a
2019-07-15_141743:300,-0.508423,0.007111,-0.05996699999999999,-0.003145,0.001545,-0.000524,-40.369999,0.75,12.0,2a
2019-07-15_141743:320,-0.49975600000000003,0.010651,-0.058960000000000005,-0.0036030000000000003,0.003498,0.001521,-40.369999,0.75,12.0,2a
2019-07-15_141743:340,-0.49926800000000005,0.008118,-0.057953,-0.004457,0.004139,0.004939,-39.68,0.75,10.0,2a
2019-07-15_141743:360,-0.498749,0.004547,-0.05285599999999999,-0.005525,0.003834,0.0065569999999999995,-39.68,0.75,10.0,2a
2019-07-15_141743:380,-0.49722299999999997,0.0030210000000000002,-0.053375,-0.006379999999999999,0.002888,0.005488,-39.68,0.75,10.0,2a
2019-07-15_141743:400,-0.49823,0.005065999999999999,-0.05285599999999999,-0.007112,0.001911,0.003901,-39.68,1.06,11.68,2a
2019-07-15_141743:420,-0.49823,0.008118,-0.050842,-0.00757,0.0005070000000000001,0.0021920000000000004,-39.68,1.06,11.68,2a
2019-07-15_141743:440,-0.501801,0.011687999999999999,-0.051330999999999995,-0.008454999999999999,0.00035499999999999996,0.001124,-39.25,0.37,11.18,2a
2019-07-15_141743:460,-0.49365200000000004,0.009644,-0.050842,-0.009645,0.00038500000000000003,0.001857,-39.25,0.37,11.18,2a
2019-07-15_141743:480,-0.489594,0.007599,-0.053375,-0.009767,-0.000439,0.0025280000000000003,-39.25,0.37,11.18,2a
2019-07-15_141743:500,-0.48858599999999996,0.005065999999999999,-0.053375,-0.008851999999999999,-0.001995,0.001796,-38.560001,1.06,11.18,2a
2019-07-15_141743:520,-0.49365200000000004,0.0055850000000000006,-0.05285599999999999,-0.007448000000000001,-0.003368,0.000545,-38.560001,1.06,11.18,2a
2019-07-15_141743:540,-0.49823,0.008118,-0.055389,-0.005403,-0.003246,-0.001805,-29.75,1.06,10.5,2a
2019-07-15_141743:560,-0.511444,0.013702,-0.054901,-0.003999,-0.002667,-0.0046429999999999996,-29.75,1.06,10.5,2a
2019-07-15_141743:580,-0.516541,0.018799,-0.051849,-0.0028399999999999996,-0.0007440000000000001,-0.005712,-29.75,1.06,10.5,2a
2019-07-15_141743:600,-0.519073,0.022858,-0.048279,-0.002046,0.0020329999999999997,-0.006047,-40.060001,1.06,11.18,2a
2019-07-15_141743:620,-0.514008,0.024902,-0.047272,-0.0017100000000000001,0.004566,-0.006719,-40.060001,1.06,11.18,2a
2019-07-15_141743:640,-0.501801,0.029480000000000003,-0.047272,-0.001558,0.00536,-0.005895,-39.68,0.37,11.68,2a
2019-07-15_141743:660,-0.49468999999999996,0.029968,-0.044219999999999995,-0.001955,0.004932,-0.0048270000000000006,-39.68,0.37,11.68,2a
2019-07-15_141743:680,-0.490112,0.031494,-0.042175,-0.002687,0.0032840000000000005,-0.003392,-39.68,0.37,11.68,2a
2019-07-15_141743:700,-0.486023,0.034546,-0.040649,-0.0032670000000000004,0.00124,-0.001531,-39.68,0.37,12.0,2a
2019-07-15_141743:720,-0.49316400000000005,0.032532,-0.041168,-0.004335,-0.00037799999999999997,-0.000859,-39.68,0.37,12.0,2a
2019-07-15_141743:740,-0.49468999999999996,0.032532,-0.043213,-0.0049759999999999995,-0.001263,-0.00147,-39.25,-0.25,12.37,2a
2019-07-15_141743:760,-0.49722299999999997,0.03302,-0.042175,-0.005128,-0.002514,-0.002385,-39.25,-0.25,12.37,2a
2019-07-15_141743:780,-0.496704,0.033539,-0.044739,-0.004579,-0.003399,-0.003118,-39.25,-0.25,12.37,2a
2019-07-15_141743:800,-0.49722299999999997,0.032532,-0.043701,-0.00406,-0.00404,-0.003331,-39.25,0.37,12.87,2a
2019-07-15_141743:820,-0.500793,0.035065,-0.046265,-0.003542,-0.004314,-0.002263,-39.25,0.37,12.87,2a
2019-07-15_141743:840,-0.500275,0.036072,-0.045745999999999995,-0.0028399999999999996,-0.003979,-0.000127,-39.68,-0.25,12.5,2a
2019-07-15_141743:860,-0.503845,0.038635,-0.044739,-0.002687,-0.003399,0.001399,-39.68,-0.25,12.5,2a
2019-07-15_141743:880,-0.504333,0.038116000000000004,-0.046752999999999996,-0.002168,-0.003246,0.003078,-39.68,-0.25,12.5,2a
2019-07-15_141743:900,-0.503326,0.039642000000000004,-0.047272,-0.002382,-0.0027890000000000002,0.003871,-39.68,-0.25,9.68,2a
2019-07-15_141743:920,-0.503845,0.038635,-0.046752999999999996,-0.00229,-0.002514,0.00442,-39.68,-0.25,9.68,2a
2019-07-15_141743:940,-0.500275,0.039642000000000004,-0.047272,-0.0029010000000000004,-0.002514,0.005031,-40.060001,-1.0,12.0,2a
2019-07-15_141743:960,-0.497742,0.038116000000000004,-0.048798,-0.00345,-0.002911,0.005092,-40.060001,-1.0,12.0,2a
2019-07-15_141743:980,-0.495697,0.035583,-0.049805,-0.0034799999999999996,-0.003399,0.004695,-40.060001,-1.0,12.0,2a
2019-07-15_141744:000,-0.49517799999999995,0.035065,-0.051849,-0.0038770000000000002,-0.004589,0.003749,-40.369999,-0.68,12.0,2a
2019-07-15_141744:020,-0.49517799999999995,0.032532,-0.051849,-0.003725,-0.004986,0.00265,-40.369999,-0.68,12.0,2a
2019-07-15_141744:040,-0.495697,0.032532,-0.05285599999999999,-0.0033280000000000002,-0.005779,0.001857,-38.869999,0.06,11.18,2a
2019-07-15_141744:060,-0.49926800000000005,0.03302,-0.053375,-0.0028399999999999996,-0.005901,0.001521,-38.869999,0.06,11.18,2a
2019-07-15_141744:080,-0.498749,0.033539,-0.053863999999999995,-0.002229,-0.005718,0.001521,-38.869999,0.06,11.18,2a
2019-07-15_141744:100,-0.502319,0.034546,-0.056915,-0.001771,-0.0053219999999999995,0.001582,-38.869999,-0.25,10.87,2a
2019-07-15_141744:120,-0.501801,0.037108999999999996,-0.055908000000000006,-0.001558,-0.005108,0.001918,-38.869999,-0.25,10.87,2a
2019-07-15_141744:140,-0.506378,0.037598,-0.057953,-0.0016190000000000002,-0.004314,0.001918,-40.060001,-1.0,10.87,2a
2019-07-15_141744:160,-0.505371,0.038116000000000004,-0.058441,-0.001558,-0.003307,0.00207,-40.060001,-1.0,10.87,2a
2019-07-15_141744:180,-0.502319,0.039642000000000004,-0.057953,-0.001771,-0.003002,0.0025280000000000003,-40.060001,-1.0,10.87,2a
2019-07-15_141744:200,-0.49926800000000005,0.038635,-0.058960000000000005,-0.001771,-0.003124,0.0027719999999999997,-39.25,-0.68,11.68,2a
2019-07-15_141744:220,-0.49468999999999996,0.038116000000000004,-0.057953,-0.001955,-0.003643,0.0035659999999999997,-39.25,-0.68,11.68,2a
2019-07-15_141744:240,-0.496216,0.038116000000000004,-0.05996699999999999,-0.002229,-0.004253,0.004603,-40.060001,-1.0,11.18,2a
2019-07-15_141744:260,-0.495697,0.037598,-0.061005,-0.0028399999999999996,-0.004314,0.004817,-40.060001,-1.0,11.18,2a
2019-07-15_141744:280,-0.49823,0.036072,-0.060486,-0.003084,-0.004833,0.005031,-40.060001,-1.0,11.18,2a
2019-07-15_141744:300,-0.501282,0.035065,-0.060486,-0.0029620000000000002,-0.00465,0.005092,-40.060001,-1.0,10.37,2a
2019-07-15_141744:320,-0.501282,0.034546,-0.05996699999999999,-0.0036030000000000003,-0.003979,0.0051530000000000005,-40.060001,-1.0,10.37,2a
2019-07-15_141744:340,-0.49722299999999997,0.032532,-0.064545,-0.0038469999999999997,-0.003979,0.005,-39.68,-0.25,10.0,2a
2019-07-15_141744:360,-0.496704,0.031494,-0.064545,-0.0038469999999999997,-0.004253,0.003871,-39.68,-0.25,10.0,2a
2019-07-15_141744:380,-0.49926800000000005,0.029968,-0.067108,-0.003542,-0.004437,0.0035659999999999997,-39.68,-0.25,10.0,2a
2019-07-15_141744:400,-0.500275,0.029480000000000003,-0.067596,-0.003542,-0.004589,0.00323,-40.369999,-0.25,10.37,2a
2019-07-15_141744:420,-0.502319,0.028442000000000002,-0.066071,-0.002687,-0.003979,0.002833,-40.369999,-0.25,10.37,2a
2019-07-15_141744:440,-0.502319,0.028961,-0.067596,-0.002229,-0.003704,0.003169,-40.369999,-0.25,9.18,2a
2019-07-15_141744:460,-0.49975600000000003,0.031006,-0.068634,-0.001771,-0.002728,0.004085,-40.369999,-0.25,9.18,2a
2019-07-15_141744:480,-0.49926800000000005,0.031494,-0.067108,-0.002107,-0.0023309999999999997,0.004359,-40.369999,-0.25,9.18,2a
2019-07-15_141744:500,-0.496704,0.032013,-0.069122,-0.002229,-0.0024530000000000003,0.004481000000000001,-38.869999,-0.68,8.87,2a
2019-07-15_141744:520,-0.49926800000000005,0.029968,-0.065582,-0.002565,-0.002392,0.004024,-38.869999,-0.68,8.87,2a
2019-07-15_141744:540,-0.498749,0.029480000000000003,-0.067108,-0.002443,-0.002514,0.00381,-38.869999,-0.68,8.87,2a
2019-07-15_141744:560,-0.49722299999999997,0.030487,-0.065582,-0.0023510000000000002,-0.00285,0.004207,-40.060001,-1.0,8.87,2a
2019-07-15_141744:580,-0.49722299999999997,0.029480000000000003,-0.067596,-0.0023510000000000002,-0.002972,0.004024,-40.060001,-1.0,8.87,2a
2019-07-15_141744:600,-0.496704,0.029968,-0.068115,-0.002443,-0.0030629999999999998,0.004024,-40.060001,0.06,9.68,2a
2019-07-15_141744:620,-0.49722299999999997,0.028961,-0.069122,-0.002168,-0.0030629999999999998,0.0035659999999999997,-40.060001,0.06,9.68,2a
2019-07-15_141744:640,-0.496704,0.030487,-0.071167,-0.002443,-0.003368,0.0033520000000000004,-40.060001,-0.68,10.0,2a
2019-07-15_141744:660,-0.497742,0.028442000000000002,-0.071167,-0.0026260000000000003,-0.003643,0.003078,-40.060001,-0.68,10.0,2a
2019-07-15_141744:680,-0.49823,0.029968,-0.071686,-0.002779,-0.003399,0.002955,-40.060001,-0.68,10.0,2a
2019-07-15_141744:700,-0.49926800000000005,0.028442000000000002,-0.073212,-0.0026260000000000003,-0.00346,0.003078,-40.060001,-0.68,8.87,2a
2019-07-15_141744:720,-0.498749,0.028442000000000002,-0.072174,-0.0023510000000000002,-0.0030629999999999998,0.002711,-40.060001,-0.68,8.87,2a
2019-07-15_141744:740,-0.49926800000000005,0.029968,-0.07421900000000001,-0.002168,-0.00285,0.0027719999999999997,-40.060001,-0.68,8.87,2a
2019-07-15_141744:760,-0.49926800000000005,0.029968,-0.0737,-0.0019850000000000002,-0.002575,0.003078,-41.060001,-0.68,10.0,2a
2019-07-15_141744:780,-0.497742,0.030487,-0.074738,-0.002168,-0.002575,0.0031079999999999997,-41.060001,-0.68,10.0,2a
2019-07-15_141744:800,-0.497742,0.030487,-0.07421900000000001,-0.002382,-0.002392,0.0032909999999999997,-39.25,-0.68,9.18,2a
2019-07-15_141744:820,-0.49722299999999997,0.031006,-0.072174,-0.00229,-0.0021780000000000002,0.0035659999999999997,-39.25,-0.68,9.18,2a
2019-07-15_141744:840,-0.497742,0.030487,-0.074738,-0.002748,-0.002514,0.00381,-39.25,-0.68,9.18,2a
2019-07-15_141744:860,-0.498749,0.029480000000000003,-0.0737,-0.0029620000000000002,-0.002117,0.004024,-45.560001,-0.25,10.0,2a
2019-07-15_141744:880,-0.49823,0.028961,-0.075226,-0.003145,-0.002239,0.003871,-45.560001,-0.25,10.0,2a
2019-07-15_141744:900,-0.496704,0.027954000000000003,-0.07421900000000001,-0.0032670000000000004,-0.002117,0.00381,-40.75,-1.0,9.68,2a
2019-07-15_141744:920,-0.496704,0.027435,-0.0737,-0.00345,-0.0021780000000000002,0.0034130000000000002,-40.75,-1.0,9.68,2a
2019-07-15_141744:940,-0.49722299999999997,0.027954000000000003,-0.075745,-0.0032670000000000004,-0.0023309999999999997,0.0035659999999999997,-40.75,-1.0,9.68,2a
2019-07-15_141744:960,-0.500793,0.027435,-0.074738,-0.003145,-0.0023309999999999997,0.0036270000000000004,-40.369999,-1.0,8.0,2a
2019-07-15_141744:980,-0.49926800000000005,0.027954000000000003,-0.072693,-0.003389,-0.002239,0.003871,-40.369999,-1.0,8.0,2a
2019-07-15_141745:000,-0.496704,0.026917,-0.074738,-0.0034799999999999996,-0.002117,0.0036880000000000003,-40.369999,-1.0,10.5,2a
2019-07-15_141745:020,-0.49517799999999995,0.027435,-0.074738,-0.00345,-0.001446,0.00265,-40.369999,-1.0,10.5,2a
2019-07-15_141745:040,-0.49468999999999996,0.027435,-0.076263,-0.003206,-0.0016589999999999999,0.002254,-40.060001,0.06,8.37,2a
2019-07-15_141745:060,-0.496704,0.026917,-0.076752,-0.0028399999999999996,-0.001782,0.001979,-40.060001,0.06,8.37,2a
2019-07-15_141745:080,-0.496704,0.027954000000000003,-0.077271,-0.0028399999999999996,-0.002239,0.0021920000000000004,-40.060001,0.06,8.37,2a
2019-07-15_141745:100,-0.496704,0.027954000000000003,-0.077271,-0.002565,-0.002117,0.002742,-40.75,0.06,9.68,2a
2019-07-15_141745:120,-0.49975600000000003,0.029480000000000003,-0.076263,-0.002229,-0.001934,0.0033520000000000004,-40.75,0.06,9.68,2a
2019-07-15_141745:140,-0.497742,0.030487,-0.076752,-0.002565,-0.001385,0.00381,-40.060001,-0.25,8.87,2a
2019-07-15_141745:160,-0.496216,0.031006,-0.077271,-0.002748,-0.001202,0.003871,-40.060001,-0.25,8.87,2a
2019-07-15_141745:180,-0.49722299999999997,0.029480000000000003,-0.076752,-0.0032670000000000004,-0.00108,0.0035659999999999997,-40.060001,-0.25,8.87,2a
2019-07-15_141745:200,-0.498749,0.028961,-0.076263,-0.003664,-0.001324,0.0033520000000000004,-40.060001,0.06,8.5,2a
2019-07-15_141745:220,-0.496704,0.028961,-0.076263,-0.0038469999999999997,-0.0008349999999999999,0.00381,-40.060001,0.06,8.5,2a
2019-07-15_141745:240,-0.495697,0.025908999999999998,-0.076263,-0.00406,-0.000958,0.004298,-40.060001,0.06,8.5,2a
2019-07-15_141745:260,-0.49468999999999996,0.025908999999999998,-0.076752,-0.00406,-0.000958,0.003901,-40.369999,-0.68,9.68,2a
2019-07-15_141745:280,-0.494171,0.024902,-0.076752,-0.004182,-0.001446,0.0035659999999999997,-40.369999,-0.68,9.68,2a
2019-07-15_141745:300,-0.49365200000000004,0.024902,-0.076752,-0.003786,-0.0016589999999999999,0.0032909999999999997,-40.369999,0.06,8.5,2a
2019-07-15_141745:320,-0.49517799999999995,0.025421,-0.076752,-0.003664,-0.002392,0.00323,-40.369999,0.06,8.5,2a
2019-07-15_141745:340,-0.496704,0.025908999999999998,-0.07775900000000001,-0.0032670000000000004,-0.002239,0.003016,-40.369999,0.06,8.5,2a
2019-07-15_141745:360,-0.496704,0.026917,-0.07928500000000001,-0.003114,-0.002392,0.003078,-40.060001,0.06,9.18,2a
2019-07-15_141745:380,-0.49823,0.027435,-0.07775900000000001,-0.002779,-0.002239,0.003016,-40.060001,0.06,9.18,2a
2019-07-15_141745:400,-0.49722299999999997,0.028442000000000002,-0.07928500000000001,-0.002748,-0.001873,0.003078,-39.68,0.06,8.5,2a
2019-07-15_141745:420,-0.49722299999999997,0.027435,-0.07775900000000001,-0.003023,-0.001873,0.00323,-39.68,0.06,8.5,2a
2019-07-15_141745:440,-0.497742,0.028442000000000002,-0.078796,-0.003145,-0.00172,0.00323,-39.68,0.06,8.5,2a
2019-07-15_141745:460,-0.496216,0.028442000000000002,-0.07928500000000001,-0.003389,-0.001385,0.0035659999999999997,-41.060001,-0.25,9.18,2a
2019-07-15_141745:480,-0.49365200000000004,0.026917,-0.078796,-0.003542,-0.001263,0.003871,-41.060001,-0.25,9.18,2a
2019-07-15_141745:500,-0.49365200000000004,0.026917,-0.07928500000000001,-0.003664,-0.00172,0.004024,-39.68,-0.25,8.5,2a
2019-07-15_141745:520,-0.49365200000000004,0.025908999999999998,-0.07775900000000001,-0.003786,-0.001995,0.004085,-39.68,-0.25,8.5,2a
2019-07-15_141745:540,-0.49722299999999997,0.024384,-0.081329,-0.0038469999999999997,-0.0024530000000000003,0.004207,-39.68,-0.25,8.5,2a
2019-07-15_141745:560,-0.498749,0.025421,-0.080322,-0.003725,-0.0021780000000000002,0.004085,-40.369999,0.37,9.18,2a
2019-07-15_141745:580,-0.497742,0.024902,-0.07928500000000001,-0.003725,-0.002117,0.004207,-40.369999,0.37,9.18,2a
2019-07-15_141745:600,-0.49722299999999997,0.023375999999999997,-0.08081100000000001,-0.003725,-0.001873,0.003963,-40.369999,-0.25,9.18,2a
2019-07-15_141745:620,-0.49823,0.024384,-0.078796,-0.0038770000000000002,-0.001598,0.004024,-40.369999,-0.25,9.18,2a
2019-07-15_141745:640,-0.496704,0.023895,-0.080322,-0.0038770000000000002,-0.001537,0.003901,-40.369999,-0.25,9.18,2a
2019-07-15_141745:660,-0.49722299999999997,0.023895,-0.08081100000000001,-0.0038469999999999997,-0.001385,0.0036880000000000003,-40.060001,0.06,9.68,2a
2019-07-15_141745:680,-0.496704,0.022858,-0.079803,-0.0036030000000000003,-0.001263,0.0036270000000000004,-40.060001,0.06,9.68,2a
2019-07-15_141745:700,-0.496216,0.023375999999999997,-0.08081100000000001,-0.0034799999999999996,-0.000958,0.0036270000000000004,-40.369999,-0.25,8.5,2a
2019-07-15_141745:720,-0.496216,0.023895,-0.079803,-0.0034799999999999996,-0.00108,0.0036880000000000003,-40.369999,-0.25,8.5,2a
2019-07-15_141745:740,-0.496704,0.022369,-0.079803,-0.0036030000000000003,-0.001324,0.003505,-40.369999,-0.25,8.5,2a
2019-07-15_141745:760,-0.49517799999999995,0.023375999999999997,-0.080322,-0.0036030000000000003,-0.001202,0.0032909999999999997,-40.060001,1.06,8.87,2a
2019-07-15_141745:780,-0.496216,0.022858,-0.08081100000000001,-0.0038469999999999997,-0.001324,0.0033520000000000004,-40.060001,1.06,8.87,2a
2019-07-15_141745:800,-0.496216,0.022369,-0.080322,-0.003664,-0.001598,0.0031079999999999997,-39.68,0.06,8.5,2a
2019-07-15_141745:820,-0.497742,0.021332,-0.079803,-0.0038770000000000002,-0.001324,0.0028940000000000003,-39.68,0.06,8.5,2a
2019-07-15_141745:840,-0.49517799999999995,0.022369,-0.08081100000000001,-0.003389,-0.001598,0.003016,-39.68,0.06,8.5,2a
2019-07-15_141745:860,-0.497742,0.021332,-0.08081100000000001,-0.0033280000000000002,-0.001385,0.003016,-40.369999,0.06,8.37,2a
2019-07-15_141745:880,-0.49926800000000005,0.022858,-0.079803,-0.003114,-0.001141,0.0033520000000000004,-40.369999,0.06,8.37,2a
2019-07-15_141745:900,-0.496704,0.023895,-0.08081100000000001,-0.003206,-0.00108,0.003749,-40.369999,0.75,8.5,2a
2019-07-15_141745:920,-0.496704,0.022858,-0.08081100000000001,-0.003725,-0.0011099999999999999,0.002742,-40.369999,0.75,8.5,2a
2019-07-15_141745:940,-0.492645,0.022858,-0.083374,-0.0039380000000000005,-0.000683,0.0017350000000000002,-40.369999,0.75,8.5,2a
2019-07-15_141745:960,-0.49468999999999996,0.022369,-0.082336,-0.003786,-0.001324,0.001796,-40.060001,-0.25,7.68,2a
2019-07-15_141745:980,-0.496216,0.021332,-0.081848,-0.0034799999999999996,-0.001598,0.0016129999999999999,-40.060001,-0.25,7.68,2a
2019-07-15_141746:000,-0.497742,0.022369,-0.081848,-0.002687,-0.001446,0.001796,-39.68,0.06,8.37,2a
2019-07-15_141746:020,-0.49926800000000005,0.023895,-0.081329,-0.002229,-0.0011099999999999999,0.002254,-39.68,0.06,8.37,2a
2019-07-15_141746:040,-0.498749,0.025421,-0.081329,-0.001955,-0.0006219999999999999,0.002833,-39.68,0.06,8.37,2a
2019-07-15_141746:060,-0.49823,0.027954000000000003,-0.08081100000000001,-0.001894,-0.000103,0.0031079999999999997,-40.060001,-0.25,9.18,2a
2019-07-15_141746:080,-0.49517799999999995,0.027954000000000003,-0.078278,-0.002443,1.9e-05,0.003169,-40.060001,-0.25,9.18,2a
2019-07-15_141746:100,-0.495697,0.027435,-0.078278,-0.0032670000000000004,-0.000439,0.002742,-40.75,0.37,9.18,2a
2019-07-15_141746:120,-0.49517799999999995,0.025908999999999998,-0.078278,-0.003542,-0.0005,0.0028940000000000003,-40.75,0.37,9.18,2a
2019-07-15_141746:140,-0.49365200000000004,0.025421,-0.07775900000000001,-0.0038469999999999997,-0.0007740000000000001,0.0036270000000000004,-40.75,0.37,9.18,2a
2019-07-15_141746:160,-0.49316400000000005,0.024902,-0.078278,-0.004121,-0.000897,0.0036270000000000004,-40.060001,-0.25,8.0,2a
2019-07-15_141746:180,-0.49468999999999996,0.022369,-0.07928500000000001,-0.003999,-0.0016589999999999999,0.0032909999999999997,-40.060001,-0.25,8.0,2a
2019-07-15_141746:200,-0.492645,0.022858,-0.080322,-0.003664,-0.001843,0.0032909999999999997,-40.060001,0.37,8.37,2a
2019-07-15_141746:220,-0.49365200000000004,0.023375999999999997,-0.079803,-0.003542,-0.002239,0.0032909999999999997,-40.060001,0.37,8.37,2a
2019-07-15_141746:240,-0.49517799999999995,0.023375999999999997,-0.08081100000000001,-0.003145,-0.002514,0.003505,-40.060001,0.37,8.37,2a
2019-07-15_141746:260,-0.497742,0.023895,-0.081848,-0.003114,-0.002514,0.0034130000000000002,-40.369999,-0.25,9.18,2a
2019-07-15_141746:280,-0.497742,0.024902,-0.082336,-0.003114,-0.0023309999999999997,0.0032909999999999997,-40.369999,-0.25,9.18,2a
2019-07-15_141746:300,-0.49722299999999997,0.023895,-0.082855,-0.0032670000000000004,-0.002239,0.0033520000000000004,-40.060001,0.06,9.68,2a
2019-07-15_141746:320,-0.49722299999999997,0.024384,-0.081848,-0.003389,-0.001995,0.003474,-40.060001,0.06,9.68,2a
2019-07-15_141746:340,-0.49722299999999997,0.024902,-0.082855,-0.0036030000000000003,-0.001934,0.003474,-40.060001,0.06,9.68,2a
2019-07-15_141746:360,-0.49722299999999997,0.022369,-0.084381,-0.003542,-0.001385,0.003474,-40.060001,0.06,8.87,2a
2019-07-15_141746:380,-0.496216,0.023895,-0.082855,-0.0034799999999999996,-0.00172,0.003505,-40.060001,0.06,8.87,2a
2019-07-15_141746:400,-0.495697,0.021851,-0.083862,-0.003542,-0.001843,0.0035659999999999997,-40.060001,0.75,8.87,2a
2019-07-15_141746:420,-0.49468999999999996,0.022369,-0.083374,-0.003664,-0.001873,0.0036270000000000004,-40.060001,0.75,8.87,2a
2019-07-15_141746:440,-0.49517799999999995,0.022369,-0.084381,-0.003389,-0.001843,0.003505,-40.060001,0.75,8.87,2a
2019-07-15_141746:460,-0.49468999999999996,0.021332,-0.084381,-0.0034799999999999996,-0.001843,0.003474,-40.369999,0.37,9.18,2a
2019-07-15_141746:480,-0.496216,0.021332,-0.083862,-0.003114,-0.001598,0.0034130000000000002,-40.369999,0.37,9.18,2a
2019-07-15_141746:500,-0.496216,0.021851,-0.083374,-0.0034799999999999996,-0.001598,0.0032909999999999997,-41.5,0.37,8.0,2a
2019-07-15_141746:520,-0.496704,0.021851,-0.084381,-0.003389,-0.001598,0.00323,-41.5,0.37,8.0,2a
2019-07-15_141746:540,-0.496704,0.021332,-0.083862,-0.0034799999999999996,-0.001446,0.0031079999999999997,-41.5,0.37,8.0,2a
2019-07-15_141746:560,-0.496704,0.020844,-0.083862,-0.003389,-0.001446,0.003016,-40.369999,0.06,7.68,2a
2019-07-15_141746:580,-0.496704,0.021332,-0.083862,-0.003114,-0.00108,0.002833,-40.369999,0.06,7.68,2a
2019-07-15_141746:600,-0.49722299999999997,0.020844,-0.0849,-0.003023,-0.001019,0.002833,-40.060001,0.06,7.18,2a
2019-07-15_141746:620,-0.496704,0.021332,-0.082336,-0.003023,-0.001202,0.002833,-40.060001,0.06,7.18,2a
2019-07-15_141746:640,-0.496704,0.020844,-0.083862,-0.0029620000000000002,-0.0007440000000000001,0.0027719999999999997,-40.060001,0.06,7.18,2a
2019-07-15_141746:660,-0.49517799999999995,0.020844,-0.084381,-0.003084,-0.000897,0.0025280000000000003,-40.369999,1.06,8.87,2a
2019-07-15_141746:680,-0.494171,0.021332,-0.083862,-0.003084,-0.000897,0.002315,-40.369999,1.06,8.87,2a
2019-07-15_141746:700,-0.49468999999999996,0.021332,-0.083374,-0.0029620000000000002,-0.0007740000000000001,0.002315,-40.75,0.37,8.37,2a
2019-07-15_141746:720,-0.49517799999999995,0.020844,-0.082855,-0.0029010000000000004,-0.00108,0.0021920000000000004,-40.75,0.37,8.37,2a
2019-07-15_141746:740,-0.495697,0.020325,-0.083374,-0.002748,-0.001202,0.001979,-40.75,0.37,8.37,2a
2019-07-15_141746:760,-0.496704,0.021851,-0.08590700000000001,-0.0025039999999999997,-0.001141,0.0021920000000000004,-40.060001,0.37,8.37,2a
2019-07-15_141746:780,-0.496704,0.021332,-0.082336,-0.0025039999999999997,-0.001019,0.002376,-40.060001,0.37,8.37,2a
2019-07-15_141746:800,-0.498749,0.022369,-0.082336,-0.0025039999999999997,-0.0005,0.0021920000000000004,-40.369999,0.06,8.87,2a
2019-07-15_141746:820,-0.496704,0.022858,-0.082855,-0.0025039999999999997,-0.0005610000000000001,0.002589,-40.369999,0.06,8.87,2a
2019-07-15_141746:840,-0.492645,0.021851,-0.083374,-0.0029010000000000004,-0.001324,0.002254,-40.369999,0.06,8.87,2a
2019-07-15_141746:860,-0.49316400000000005,0.019806,-0.08590700000000001,-0.003114,-0.001263,0.0010630000000000001,-39.68,0.37,9.18,2a
2019-07-15_141746:880,-0.49316400000000005,0.020844,-0.086426,-0.0029010000000000004,-0.00172,0.000545,-39.68,0.37,9.18,2a
2019-07-15_141746:900,-0.494171,0.020844,-0.08590700000000001,-0.002565,-0.002239,0.000545,-42.560001,0.37,9.68,2a
2019-07-15_141746:920,-0.49722299999999997,0.022858,-0.085388,-0.00229,-0.001843,0.000606,-42.560001,0.37,9.68,2a
2019-07-15_141746:940,-0.498749,0.023375999999999997,-0.086914,-0.0016489999999999999,-0.001263,0.0012460000000000001,-42.560001,0.37,9.68,2a
2019-07-15_141746:960,-0.49823,0.024902,-0.08590700000000001,-0.001375,-0.0007740000000000001,0.0017350000000000002,-40.369999,0.06,9.68,2a
2019-07-15_141746:980,-0.498749,0.026427999999999997,-0.085388,-0.0017100000000000001,-0.0005,0.001979,-40.369999,0.06,9.68,2a
2019-07-15_141747:000,-0.497742,0.027954000000000003,-0.085388,-0.0018329999999999998,1.9e-05,0.001918,-41.060001,0.37,7.68,2a
2019-07-15_141747:020,-0.495697,0.025421,-0.083862,-0.002046,-0.000103,0.001796,-41.060001,0.37,7.68,2a
2019-07-15_141747:040,-0.496704,0.025421,-0.083862,-0.002565,0.000172,0.0012460000000000001,-41.060001,0.37,7.68,2a
2019-07-15_141747:060,-0.497742,0.026427999999999997,-0.082855,-0.002443,1.9e-05,0.0016129999999999999,-40.75,0.06,8.5,2a
2019-07-15_141747:080,-0.496704,0.024902,-0.081848,-0.0026260000000000003,0.000294,0.001918,-40.75,0.06,8.5,2a
2019-07-15_141747:100,-0.494171,0.025421,-0.081848,-0.002229,0.0005679999999999999,0.00146,-41.5,0.37,9.18,2a
2019-07-15_141747:120,-0.492126,0.025908999999999998,-0.082336,-0.002107,0.000233,0.001521,-41.5,0.37,9.18,2a
2019-07-15_141747:140,-0.491638,0.025421,-0.082855,-0.002107,-0.000286,0.001338,-41.5,0.37,9.18,2a
2019-07-15_141747:160,-0.49517799999999995,0.026917,-0.083374,-0.0016489999999999999,-0.0006219999999999999,0.00146,-39.68,0.37,8.0,2a
2019-07-15_141747:180,-0.49722299999999997,0.026917,-0.082336,-0.001771,-0.0007440000000000001,0.001582,-39.68,0.37,8.0,2a
2019-07-15_141747:200,-0.496704,0.027435,-0.083374,-0.001314,-0.0005,0.0016129999999999999,-40.369999,0.06,7.18,2a
2019-07-15_141747:220,-0.49722299999999997,0.025908999999999998,-0.081848,-0.001558,-0.000439,0.001399,-40.369999,0.06,7.18,2a
2019-07-15_141747:240,-0.49722299999999997,0.027435,-0.082855,-0.001497,-0.000286,0.0012460000000000001,-40.369999,0.06,7.18,2a
2019-07-15_141747:260,-0.496704,0.027954000000000003,-0.083374,-0.001558,-0.000164,0.0010630000000000001,-40.060001,0.06,8.37,2a
2019-07-15_141747:280,-0.496704,0.029968,-0.081848,-0.001497,1.9e-05,0.00088,-40.060001,0.06,8.37,2a
2019-07-15_141747:300,-0.49517799999999995,0.028442000000000002,-0.081848,-0.001253,0.00035499999999999996,0.000941,-40.060001,-0.68,8.0,2a
2019-07-15_141747:320,-0.494171,0.031006,-0.081848,-0.001161,0.000172,0.001399,-40.060001,-0.68,8.0,2a
2019-07-15_141747:340,-0.49316400000000005,0.031006,-0.082336,-0.001222,-0.000225,0.001796,-40.060001,-0.68,8.0,2a
2019-07-15_141747:360,-0.49468999999999996,0.031006,-0.081848,-0.001161,-4.2e-05,0.002131,-40.75,0.06,9.68,2a
2019-07-15_141747:380,-0.49468999999999996,0.030487,-0.081848,-0.001222,-0.00037799999999999997,0.0021920000000000004,-40.75,0.06,9.68,2a
2019-07-15_141747:400,-0.49517799999999995,0.031494,-0.081848,-0.001771,-0.0007440000000000001,0.0021920000000000004,-40.060001,-1.0,9.18,2a
2019-07-15_141747:420,-0.496216,0.031006,-0.081848,-0.001955,-0.0005,0.002254,-40.060001,-1.0,9.18,2a
2019-07-15_141747:440,-0.496216,0.031006,-0.082855,-0.002046,-0.0006219999999999999,0.002131,-40.060001,-1.0,9.18,2a
2019-07-15_141747:460,-0.496216,0.031006,-0.081848,-0.002107,-0.00037799999999999997,0.002009,-40.060001,-0.25,9.18,2a
2019-07-15_141747:480,-0.496704,0.031494,-0.08081100000000001,-0.002046,-0.0005,0.002009,-40.060001,-0.25,9.18,2a
2019-07-15_141747:500,-0.496216,0.031494,-0.079803,-0.002382,-0.000439,0.002254,-39.68,-0.68,9.68,2a
2019-07-15_141747:520,-0.496704,0.031006,-0.079803,-0.002229,-0.00037799999999999997,0.0021920000000000004,-39.68,-0.68,9.68,2a
2019-07-15_141747:540,-0.49517799999999995,0.031006,-0.080322,-0.00229,-0.000164,0.0024059999999999997,-39.68,-0.68,9.68,2a
2019-07-15_141747:560,-0.49468999999999996,0.031006,-0.08081100000000001,-0.002443,-0.000439,0.00265,-39.68,0.06,8.0,2a
2019-07-15_141747:580,-0.49468999999999996,0.029480000000000003,-0.08081100000000001,-0.0025039999999999997,-0.00034700000000000003,0.0025280000000000003,-39.68,0.06,8.0,2a
2019-07-15_141747:600,-0.494171,0.032013,-0.081329,-0.002565,-0.0007740000000000001,0.002589,-40.75,-0.25,8.5,2a
2019-07-15_141747:620,-0.49517799999999995,0.030487,-0.078796,-0.002748,-0.001446,0.002955,-40.75,-0.25,8.5,2a
2019-07-15_141747:640,-0.49823,0.030487,-0.08081100000000001,-0.002748,-0.000897,0.003016,-40.75,-0.25,8.5,2a
2019-07-15_141747:660,-0.49722299999999997,0.031006,-0.080322,-0.002748,-0.001019,0.00381,-39.68,-0.68,7.68,2a
2019-07-15_141747:680,-0.49517799999999995,0.031494,-0.079803,-0.0029620000000000002,-0.000958,0.003963,-39.68,-0.68,7.68,2a
2019-07-15_141747:700,-0.492126,0.029968,-0.081329,-0.0036030000000000003,-0.001263,0.00323,-39.68,-0.68,8.0,2a
2019-07-15_141747:720,-0.492126,0.028961,-0.081329,-0.0038469999999999997,-0.001385,0.0021920000000000004,-39.68,-0.68,8.0,2a
2019-07-15_141747:740,-0.49316400000000005,0.026917,-0.082336,-0.003786,-0.001995,0.00207,-39.68,-0.68,8.0,2a
2019-07-15_141747:760,-0.49517799999999995,0.025908999999999998,-0.082855,-0.0032670000000000004,-0.0027890000000000002,0.002009,-40.369999,-0.25,8.5,2a
2019-07-15_141747:780,-0.49722299999999997,0.025908999999999998,-0.082855,-0.0026260000000000003,-0.0024530000000000003,0.0021920000000000004,-40.369999,-0.25,8.5,2a
2019-07-15_141747:800,-0.49823,0.028442000000000002,-0.082336,-0.001771,-0.0023309999999999997,0.002467,-39.68,0.06,8.37,2a
2019-07-15_141747:820,-0.498749,0.030487,-0.081848,-0.001436,-0.001843,0.0028940000000000003,-39.68,0.06,8.37,2a
2019-07-15_141747:840,-0.496216,0.031006,-0.08081100000000001,-0.001375,-0.001324,0.003016,-39.68,0.06,8.37,2a
2019-07-15_141747:860,-0.49517799999999995,0.032532,-0.08081100000000001,-0.001955,-0.001537,0.002955,-41.060001,-1.37,9.18,2a
2019-07-15_141747:880,-0.49517799999999995,0.031006,-0.081848,-0.002443,-0.001263,0.002467,-41.060001,-1.37,9.18,2a
2019-07-15_141747:900,-0.495697,0.030487,-0.082336,-0.0029620000000000002,-0.0014759999999999999,0.001918,-40.060001,-0.68,8.5,2a
2019-07-15_141747:920,-0.495697,0.030487,-0.081848,-0.003206,-0.0016589999999999999,0.002009,-40.060001,-0.68,8.5,2a
2019-07-15_141747:940,-0.49365200000000004,0.029968,-0.081848,-0.00345,-0.001873,0.001918,-40.060001,-0.68,8.5,2a
2019-07-15_141747:960,-0.49365200000000004,0.028961,-0.083862,-0.00345,-0.001782,0.002009,-40.060001,-0.25,8.37,2a
2019-07-15_141747:980,-0.492126,0.030487,-0.083374,-0.003542,-0.001995,0.00207,-40.060001,-0.25,8.37,2a
2019-07-15_141748:000,-0.492126,0.029968,-0.083374,-0.00345,-0.002514,0.002131,-39.68,-1.0,8.0,2a
2019-07-15_141748:020,-0.49365200000000004,0.030487,-0.0849,-0.003389,-0.00285,0.0021920000000000004,-39.68,-1.0,8.0,2a
2019-07-15_141748:040,-0.49517799999999995,0.028961,-0.08590700000000001,-0.0028399999999999996,-0.00285,0.001857,-39.68,-1.0,8.0,2a
2019-07-15_141748:060,-0.496704,0.031006,-0.087952,-0.0028399999999999996,-0.002972,0.001857,-40.75,-0.68,8.87,2a
2019-07-15_141748:080,-0.49722299999999997,0.030487,-0.08590700000000001,-0.0025039999999999997,-0.002514,0.001918,-40.75,-0.68,8.87,2a
2019-07-15_141748:100,-0.497742,0.031494,-0.086426,-0.002443,-0.0023309999999999997,0.00207,-40.369999,-0.68,8.37,2a
2019-07-15_141748:120,-0.49722299999999997,0.032532,-0.086426,-0.002168,-0.00172,0.002009,-40.369999,-0.68,8.37,2a
2019-07-15_141748:140,-0.49517799999999995,0.033539,-0.08743300000000001,-0.002229,-0.001843,0.002376,-40.369999,-0.68,8.37,2a
2019-07-15_141748:160,-0.494171,0.032532,-0.087952,-0.002107,-0.0016589999999999999,0.002376,-40.060001,-0.68,9.18,2a
2019-07-15_141748:180,-0.494171,0.034058,-0.086426,-0.002046,-0.001598,0.0025280000000000003,-40.060001,-0.68,9.18,2a
2019-07-15_141748:200,-0.49365200000000004,0.034058,-0.08743300000000001,-0.00229,-0.001385,0.002833,-40.75,-1.37,8.37,2a
2019-07-15_141748:220,-0.49365200000000004,0.033539,-0.085388,-0.0026260000000000003,-0.0016589999999999999,0.0027719999999999997,-40.75,-1.37,8.37,2a
2019-07-15_141748:240,-0.494171,0.032013,-0.086426,-0.002687,-0.001873,0.002711,-40.75,-1.37,8.37,2a
2019-07-15_141748:260,-0.495697,0.032013,-0.08743300000000001,-0.0026260000000000003,-0.0016589999999999999,0.002376,-40.369999,-0.68,8.87,2a
2019-07-15_141748:280,-0.495697,0.032532,-0.085388,-0.0026260000000000003,-0.001324,0.002315,-40.369999,-0.68,8.87,2a
2019-07-15_141748:300,-0.496704,0.032532,-0.087952,-0.002443,-0.001141,0.002376,-40.369999,-1.0,8.37,2a
2019-07-15_141748:320,-0.496216,0.031006,-0.086914,-0.002229,-0.0008349999999999999,0.0024059999999999997,-40.369999,-1.0,8.37,2a
2019-07-15_141748:340,-0.495697,0.032013,-0.086914,-0.002046,-0.001019,0.0025280000000000003,-40.369999,-1.0,8.37,2a
2019-07-15_141748:360,-0.49517799999999995,0.032532,-0.087952,-0.002168,-0.0007440000000000001,0.0025280000000000003,-40.369999,-1.0,8.0,2a
2019-07-15_141748:380,-0.495697,0.032532,-0.08590700000000001,-0.001955,-0.0006219999999999999,0.00265,-40.369999,-1.0,8.0,2a
2019-07-15_141748:400,-0.49365200000000004,0.03302,-0.08743300000000001,-0.0016489999999999999,-0.0005610000000000001,0.002742,-40.75,-0.68,8.0,2a
2019-07-15_141748:420,-0.494171,0.032532,-0.086426,-0.001253,-0.000683,0.002467,-40.75,-0.68,8.0,2a
2019-07-15_141748:440,-0.49517799999999995,0.03302,-0.085388,-0.001222,-0.0007440000000000001,0.0025280000000000003,-40.75,-0.68,8.0,2a
2019-07-15_141748:460,-0.496216,0.034058,-0.08590700000000001,-0.001375,-0.0007740000000000001,0.002711,-40.060001,-0.68,8.37,2a
2019-07-15_141748:480,-0.49517799999999995,0.034546,-0.085388,-0.001558,-0.0006219999999999999,0.003474,-40.060001,-0.68,8.37,2a
2019-07-15_141748:500,-0.49517799999999995,0.034058,-0.085388,-0.001558,-0.0006219999999999999,0.0035659999999999997,-40.369999,-1.75,10.0,2a
2019-07-15_141748:520,-0.49722299999999997,0.035065,-0.084381,-0.001894,-0.000225,0.004542,-40.369999,-1.75,10.0,2a
2019-07-15_141748:540,-0.49517799999999995,0.03302,-0.083374,-0.0025039999999999997,-0.000439,0.004085,-40.369999,-1.75,10.0,2a
2019-07-15_141748:560,-0.492126,0.032013,-0.0849,-0.0029010000000000004,-0.0005,0.0027719999999999997,-39.25,-0.25,8.87,2a
2019-07-15_141748:580,-0.489594,0.032532,-0.084381,-0.003084,-0.0008349999999999999,0.002467,-39.25,-0.25,8.87,2a
2019-07-15_141748:600,-0.489075,0.031006,-0.085388,-0.003145,-0.0016589999999999999,0.00265,-40.369999,-1.0,8.5,2a
2019-07-15_141748:620,-0.490112,0.029968,-0.087952,-0.002779,-0.002392,0.0027719999999999997,-40.369999,-1.0,8.5,2a
2019-07-15_141748:640,-0.494171,0.030487,-0.08743300000000001,-0.002748,-0.002514,0.002467,-40.369999,-1.0,8.5,2a
2019-07-15_141748:660,-0.498749,0.031006,-0.087952,-0.002382,-0.001782,0.00265,-40.75,-1.0,8.0,2a
2019-07-15_141748:680,-0.49975600000000003,0.03302,-0.08743300000000001,-0.001771,-0.0007440000000000001,0.003078,-40.75,-1.0,8.0,2a
2019-07-15_141748:700,-0.49823,0.034058,-0.086914,-0.002229,-0.00037799999999999997,0.003474,-39.68,-0.68,7.18,2a
2019-07-15_141748:720,-0.49517799999999995,0.035065,-0.086426,-0.002748,-0.000225,0.003749,-39.68,-0.68,7.18,2a
2019-07-15_141748:740,-0.49365200000000004,0.034058,-0.08590700000000001,-0.003389,-0.00034700000000000003,0.0033520000000000004,-39.68,-0.68,7.18,2a
2019-07-15_141748:760,-0.494171,0.032532,-0.08590700000000001,-0.003542,-0.0007440000000000001,0.0034130000000000002,-41.060001,-1.0,8.0,2a
2019-07-15_141748:780,-0.49365200000000004,0.031494,-0.084381,-0.003999,-0.0011099999999999999,0.003474,-41.060001,-1.0,8.0,2a
2019-07-15_141748:800,-0.49111899999999997,0.028442000000000002,-0.085388,-0.003725,-0.001446,0.0032909999999999997,-40.060001,-0.68,8.0,2a
2019-07-15_141748:820,-0.49316400000000005,0.027954000000000003,-0.08743300000000001,-0.003206,-0.001934,0.002833,-40.060001,-0.68,8.0,2a
2019-07-15_141748:840,-0.49468999999999996,0.029480000000000003,-0.087952,-0.003114,-0.0021780000000000002,0.002742,-40.060001,-0.68,8.0,2a
2019-07-15_141748:860,-0.49468999999999996,0.031006,-0.08843999999999999,-0.003145,-0.002239,0.002833,-40.060001,-0.68,8.0,2a
2019-07-15_141748:880,-0.49517799999999995,0.031494,-0.087952,-0.003084,-0.001782,0.0028940000000000003,-40.060001,-0.68,8.0,2a
2019-07-15_141748:900,-0.496704,0.029968,-0.08843999999999999,-0.003145,-0.001446,0.002955,-40.060001,-0.68,7.68,2a
2019-07-15_141748:920,-0.496216,0.028961,-0.088959,-0.003084,-0.001202,0.002742,-40.060001,-0.68,7.68,2a
2019-07-15_141748:940,-0.496216,0.028961,-0.087952,-0.0032670000000000004,-0.00108,0.002467,-40.060001,-0.68,7.68,2a
2019-07-15_141748:960,-0.496704,0.030487,-0.08843999999999999,-0.003114,-0.001019,0.002315,-40.75,-1.0,8.0,2a
2019-07-15_141748:980,-0.497742,0.031006,-0.086914,-0.0029620000000000002,-0.0007740000000000001,0.002467,-40.75,-1.0,8.0,2a
2019-07-15_141749:000,-0.495697,0.032013,-0.086914,-0.0029620000000000002,-0.0006219999999999999,0.0028940000000000003,-40.369999,-1.37,8.0,2a
2019-07-15_141749:020,-0.49517799999999995,0.031494,-0.08743300000000001,-0.003114,-0.000164,0.0031079999999999997,-40.369999,-1.37,8.0,2a
2019-07-15_141749:040,-0.49316400000000005,0.032013,-0.08590700000000001,-0.003542,-0.000439,0.0031079999999999997,-40.369999,-1.37,8.0,2a
2019-07-15_141749:060,-0.491638,0.031006,-0.08743300000000001,-0.003664,-0.00037799999999999997,0.003016,-40.75,-1.0,7.18,2a
2019-07-15_141749:080,-0.49316400000000005,0.030487,-0.086914,-0.0038770000000000002,-0.0007440000000000001,0.002711,-40.75,-1.0,7.18,2a
2019-07-15_141749:100,-0.49316400000000005,0.028961,-0.086426,-0.0038770000000000002,-0.00108,0.00265,-40.369999,-0.25,6.87,2a
2019-07-15_141749:120,-0.49468999999999996,0.029480000000000003,-0.087952,-0.003542,-0.001537,0.0024059999999999997,-40.369999,-0.25,6.87,2a
2019-07-15_141749:140,-0.496216,0.029968,-0.087952,-0.003542,-0.001537,0.0021920000000000004,-40.369999,-0.25,6.87,2a
2019-07-15_141749:160,-0.496704,0.030487,-0.087952,-0.003084,-0.00108,0.002315,-40.369999,-1.0,8.87,2a
2019-07-15_141749:180,-0.496216,0.032532,-0.086426,-0.003023,-0.000897,0.002315,-40.369999,-1.0,8.87,2a
2019-07-15_141749:200,-0.495697,0.032532,-0.087952,-0.0029620000000000002,-0.0007440000000000001,0.0024059999999999997,-40.75,-1.0,8.87,2a
2019-07-15_141749:220,-0.49468999999999996,0.034058,-0.08743300000000001,-0.0029010000000000004,-0.000683,0.002376,-40.75,-1.0,8.87,2a
2019-07-15_141749:240,-0.494171,0.033539,-0.08743300000000001,-0.003023,-0.0006219999999999999,0.00265,-40.75,-1.0,8.87,2a
2019-07-15_141749:260,-0.492645,0.033539,-0.08743300000000001,-0.003145,-0.000958,0.002742,-40.060001,-1.0,8.87,2a
2019-07-15_141749:280,-0.49365200000000004,0.033539,-0.086914,-0.003206,-0.001019,0.0028940000000000003,-40.060001,-1.0,8.87,2a
2019-07-15_141749:300,-0.49517799999999995,0.033539,-0.08743300000000001,-0.003206,-0.001263,0.00323,-40.060001,-1.0,8.87,2a
2019-07-15_141749:320,-0.49468999999999996,0.033539,-0.086426,-0.0034799999999999996,-0.000958,0.003505,-40.369999,-0.68,8.0,2a
2019-07-15_141749:340,-0.49722299999999997,0.033539,-0.0849,-0.003389,-0.00034700000000000003,0.0035659999999999997,-40.369999,-0.68,8.0,2a
2019-07-15_141749:360,-0.49468999999999996,0.03302,-0.086914,-0.003725,-0.000683,0.0042369999999999994,-41.060001,-1.0,8.37,2a
2019-07-15_141749:380,-0.492126,0.032013,-0.0849,-0.004182,-0.001019,0.003901,-41.060001,-1.0,8.37,2a
2019-07-15_141749:400,-0.49316400000000005,0.031494,-0.087952,-0.004396,-0.001385,0.002833,-41.060001,-1.0,8.37,2a
2019-07-15_141749:420,-0.492126,0.029968,-0.086914,-0.004274,-0.001598,0.002711,-41.5,-1.75,8.37,2a
2019-07-15_141749:440,-0.49365200000000004,0.030487,-0.08843999999999999,-0.0036030000000000003,-0.002117,0.002711,-41.5,-1.75,8.37,2a
2019-07-15_141749:460,-0.495697,0.028961,-0.089478,-0.003114,-0.0021780000000000002,0.003016,-40.060001,-0.68,8.37,2a
2019-07-15_141749:480,-0.496704,0.029968,-0.087952,-0.002565,-0.00172,0.00323,-40.060001,-0.68,8.37,2a
2019-07-15_141749:500,-0.49722299999999997,0.032532,-0.08843999999999999,-0.00229,-0.001141,0.003901,-40.060001,-0.68,8.37,2a
2019-07-15_141749:520,-0.498749,0.033539,-0.087952,-0.002565,-0.0007740000000000001,0.00442,-39.68,-1.37,8.87,2a
2019-07-15_141749:540,-0.497742,0.032532,-0.086914,-0.002779,-4.2e-05,0.004146,-39.68,-1.37,8.87,2a
2019-07-15_141749:560,-0.496216,0.032013,-0.086426,-0.003084,0.000294,0.00381,-40.060001,-1.37,8.37,2a
2019-07-15_141749:580,-0.496704,0.031494,-0.083862,-0.003664,0.000294,0.003505,-40.060001,-1.37,8.37,2a
2019-07-15_141749:600,-0.49316400000000005,0.031494,-0.0849,-0.003999,-0.000225,0.004146,-40.060001,-1.37,8.37,2a
2019-07-15_141749:620,-0.494171,0.027435,-0.085388,-0.004274,-4.2e-05,0.0042369999999999994,-39.68,-1.75,8.0,2a
2019-07-15_141749:640,-0.490112,0.027954000000000003,-0.085388,-0.00406,-0.00037799999999999997,0.003505,-39.68,-1.75,8.0,2a
2019-07-15_141749:660,-0.49111899999999997,0.027435,-0.086914,-0.003664,-0.000897,0.003749,-39.68,0.06,8.37,2a
2019-07-15_141749:680,-0.492645,0.027435,-0.0849,-0.0036030000000000003,-0.0011099999999999999,0.003749,-39.68,0.06,8.37,2a
2019-07-15_141749:700,-0.496704,0.027954000000000003,-0.086914,-0.0033280000000000002,-0.001446,0.003901,-39.68,0.06,8.37,2a
2019-07-15_141749:720,-0.498749,0.028961,-0.08743300000000001,-0.003389,-0.001141,0.00381,-41.060001,-0.68,7.18,2a
2019-07-15_141749:740,-0.49823,0.028961,-0.086426,-0.0033280000000000002,-0.0007440000000000001,0.0036270000000000004,-41.060001,-0.68,7.18,2a
2019-07-15_141749:760,-0.495697,0.028961,-0.08743300000000001,-0.00345,-0.00034700000000000003,0.003505,-40.369999,-0.25,8.37,2a
2019-07-15_141749:780,-0.49468999999999996,0.027954000000000003,-0.08590700000000001,-0.0039380000000000005,-0.000286,0.0033520000000000004,-40.369999,-0.25,8.37,2a
2019-07-15_141749:800,-0.494171,0.027954000000000003,-0.086914,-0.003664,-0.000286,0.0031079999999999997,-40.369999,-0.25,8.37,2a
2019-07-15_141749:820,-0.492645,0.027954000000000003,-0.085388,-0.003786,-0.0005610000000000001,0.002955,-43.68,0.06,7.68,2a
2019-07-15_141749:840,-0.494171,0.027954000000000003,-0.086426,-0.0033280000000000002,-0.0007740000000000001,0.0028940000000000003,-43.68,0.06,7.68,2a
2019-07-15_141749:860,-0.49468999999999996,0.027435,-0.086426,-0.0032670000000000004,-0.000958,0.002955,-40.369999,-0.68,7.68,2a
2019-07-15_141749:880,-0.494171,0.028442000000000002,-0.08590700000000001,-0.0033280000000000002,-0.0007440000000000001,0.0031079999999999997,-40.369999,-0.68,7.68,2a
2019-07-15_141749:900,-0.49517799999999995,0.029480000000000003,-0.086914,-0.003542,-0.001141,0.00323,-40.369999,-0.68,7.68,2a
2019-07-15_141749:920,-0.494171,0.029480000000000003,-0.08590700000000001,-0.003664,-0.001263,0.003169,-40.060001,0.06,8.37,2a
2019-07-15_141749:940,-0.49517799999999995,0.028442000000000002,-0.086426,-0.003664,-0.001324,0.00323,-40.060001,0.06,8.37,2a
2019-07-15_141749:960,-0.49365200000000004,0.028442000000000002,-0.086426,-0.0038469999999999997,-0.001141,0.003016,-40.369999,-0.68,9.18,2a
2019-07-15_141749:980,-0.494171,0.028442000000000002,-0.086426,-0.0038770000000000002,-0.001324,0.0028940000000000003,-40.369999,-0.68,9.18,2a
2019-07-15_141750:000,-0.49468999999999996,0.027435,-0.086426,-0.0036030000000000003,-0.001141,0.002833,-40.369999,-0.68,9.18,2a
2019-07-15_141750:020,-0.49517799999999995,0.028442000000000002,-0.086426,-0.003542,-0.001019,0.0028940000000000003,-40.060001,-0.68,8.37,2a
2019-07-15_141750:040,-0.49468999999999996,0.027954000000000003,-0.08743300000000001,-0.003145,-0.000958,0.002833,-40.060001,-0.68,8.37,2a
2019-07-15_141750:060,-0.49517799999999995,0.028442000000000002,-0.086914,-0.0032670000000000004,-0.00108,0.0031079999999999997,-40.060001,-1.37,8.0,2a
2019-07-15_141750:080,-0.49722299999999997,0.028442000000000002,-0.086426,-0.0029620000000000002,-0.0008349999999999999,0.003078,-40.060001,-1.37,8.0,2a
2019-07-15_141750:100,-0.496704,0.030487,-0.086426,-0.003084,-0.000897,0.0033520000000000004,-40.060001,-1.37,8.0,2a
2019-07-15_141750:120,-0.49365200000000004,0.029480000000000003,-0.08590700000000001,-0.003725,-0.0008349999999999999,0.0035659999999999997,-40.060001,-0.68,7.18,2a
2019-07-15_141750:140,-0.492645,0.028961,-0.08590700000000001,-0.00406,-0.00108,0.002833,-40.060001,-0.68,7.18,2a
2019-07-15_141750:160,-0.490601,0.027435,-0.087952,-0.0038770000000000002,-0.001141,0.002254,-41.5,-0.25,8.37,2a
2019-07-15_141750:180,-0.491638,0.027435,-0.08743300000000001,-0.003786,-0.001537,0.002467,-41.5,-0.25,8.37,2a
2019-07-15_141750:200,-0.49468999999999996,0.026917,-0.089478,-0.003542,-0.0021780000000000002,0.002589,-41.5,-0.25,8.37,2a
2019-07-15_141750:220,-0.49722299999999997,0.025421,-0.08996599999999999,-0.0029620000000000002,-0.0024530000000000003,0.002742,-40.369999,-0.68,8.87,2a
2019-07-15_141750:240,-0.49823,0.029480000000000003,-0.08843999999999999,-0.00229,-0.001995,0.0028940000000000003,-40.369999,-0.68,8.87,2a
2019-07-15_141750:260,-0.49823,0.032013,-0.08843999999999999,-0.002229,-0.0011099999999999999,0.0036270000000000004,-40.060001,-0.68,10.0,2a
2019-07-15_141750:280,-0.496704,0.031494,-0.086914,-0.0026260000000000003,-0.000958,0.004085,-40.060001,-0.68,10.0,2a
2019-07-15_141750:300,-0.495697,0.031006,-0.087952,-0.0034799999999999996,-0.000286,0.003901,-40.060001,-0.68,10.0,2a
2019-07-15_141750:320,-0.494171,0.031006,-0.08743300000000001,-0.004121,-0.0006219999999999999,0.0035659999999999997,-40.060001,-0.25,6.87,2a
2019-07-15_141750:340,-0.49468999999999996,0.026917,-0.087952,-0.004518,-0.0005,0.0034130000000000002,-40.060001,-0.25,6.87,2a
2019-07-15_141750:360,-0.49517799999999995,0.025421,-0.086914,-0.004671,-0.001019,0.003749,-40.369999,0.06,8.5,2a
2019-07-15_141750:380,-0.492645,0.026427999999999997,-0.085388,-0.004518,-0.0008349999999999999,0.0036880000000000003,-40.369999,0.06,8.5,2a
2019-07-15_141750:400,-0.492645,0.024902,-0.086426,-0.004274,-0.001019,0.003078,-40.369999,0.06,8.5,2a
2019-07-15_141750:420,-0.492126,0.024902,-0.087952,-0.003786,-0.0016589999999999999,0.003016,-39.68,-1.0,9.18,2a
2019-07-15_141750:440,-0.49468999999999996,0.026427999999999997,-0.088959,-0.00345,-0.00172,0.002955,-39.68,-1.0,9.18,2a
2019-07-15_141750:460,-0.49517799999999995,0.026427999999999997,-0.087952,-0.003206,-0.001873,0.002955,-39.68,-0.68,7.68,2a
2019-07-15_141750:480,-0.496704,0.027954000000000003,-0.08743300000000001,-0.002748,-0.001873,0.003016,-39.68,-0.68,7.68,2a
2019-07-15_141750:500,-0.496216,0.028961,-0.087952,-0.0029010000000000004,-0.0014759999999999999,0.0028940000000000003,-39.68,-0.68,7.68,2a
2019-07-15_141750:520,-0.49517799999999995,0.028442000000000002,-0.08743300000000001,-0.003084,-0.001324,0.0027719999999999997,-41.060001,-0.25,8.87,2a
2019-07-15_141750:540,-0.49468999999999996,0.028961,-0.08843999999999999,-0.003084,-0.001385,0.002833,-41.060001,-0.25,8.87,2a
2019-07-15_141750:560,-0.49468999999999996,0.028442000000000002,-0.08843999999999999,-0.0033280000000000002,-0.001598,0.003016,-40.369999,-0.68,8.0,2a
2019-07-15_141750:580,-0.494171,0.027435,-0.08843999999999999,-0.003389,-0.0014759999999999999,0.003016,-40.369999,-0.68,8.0,2a
2019-07-15_141750:600,-0.49365200000000004,0.027435,-0.088959,-0.00345,-0.0016589999999999999,0.0032909999999999997,-40.369999,-0.68,8.0,2a
2019-07-15_141750:620,-0.49468999999999996,0.027954000000000003,-0.089478,-0.0036030000000000003,-0.001782,0.00323,-40.369999,-0.68,6.5,2a
2019-07-15_141750:640,-0.49468999999999996,0.027954000000000003,-0.08843999999999999,-0.003725,-0.001385,0.00323,-40.369999,-0.68,6.5,2a
2019-07-15_141750:660,-0.495697,0.026427999999999997,-0.089478,-0.0036030000000000003,-0.001446,0.0033520000000000004,-40.369999,-0.25,8.0,2a
2019-07-15_141750:680,-0.496216,0.026427999999999997,-0.08843999999999999,-0.003725,-0.001385,0.0031079999999999997,-40.369999,-0.25,8.0,2a
2019-07-15_141750:700,-0.49517799999999995,0.026917,-0.090485,-0.003725,-0.0011099999999999999,0.0028940000000000003,-40.369999,-0.25,8.0,2a
2019-07-15_141750:720,-0.494171,0.025908999999999998,-0.089478,-0.003542,-0.001141,0.002742,-41.060001,0.06,8.0,2a
2019-07-15_141750:740,-0.49316400000000005,0.025421,-0.088959,-0.0033280000000000002,-0.0011099999999999999,0.002742,-41.060001,0.06,8.0,2a
2019-07-15_141750:760,-0.49468999999999996,0.027435,-0.089478,-0.003084,-0.000958,0.002833,-40.060001,-0.68,7.68,2a
2019-07-15_141750:780,-0.495697,0.026917,-0.087952,-0.0028399999999999996,-0.00108,0.00265,-40.060001,-0.68,7.68,2a
2019-07-15_141750:800,-0.49365200000000004,0.029480000000000003,-0.089478,-0.002565,-0.001019,0.003016,-40.060001,-0.68,7.68,2a
2019-07-15_141750:820,-0.494171,0.028442000000000002,-0.088959,-0.002748,-0.001263,0.0033520000000000004,-40.75,-0.68,9.18,2a
2019-07-15_141750:840,-0.497742,0.028961,-0.08843999999999999,-0.003145,-0.001141,0.0032909999999999997,-40.75,-0.68,9.18,2a
2019-07-15_141750:860,-0.496216,0.030487,-0.088959,-0.003206,-0.000958,0.004024,-41.060001,-0.68,7.18,2a
2019-07-15_141750:880,-0.49365200000000004,0.028961,-0.08743300000000001,-0.0038469999999999997,-0.0006219999999999999,0.0036270000000000004,-41.060001,-0.68,7.18,2a
2019-07-15_141750:900,-0.49111899999999997,0.025421,-0.087952,-0.004335,-0.0008349999999999999,0.002315,-41.060001,-0.68,7.18,2a
2019-07-15_141750:920,-0.489594,0.025421,-0.089478,-0.004335,-0.001324,0.00207,-40.060001,-1.0,8.37,2a
2019-07-15_141750:940,-0.48858599999999996,0.024384,-0.08996599999999999,-0.0038469999999999997,-0.001995,0.0024059999999999997,-40.060001,-1.0,8.37,2a
2019-07-15_141750:960,-0.492645,0.023895,-0.090485,-0.0029010000000000004,-0.002575,0.002467,-40.369999,0.06,8.87,2a
2019-07-15_141750:980,-0.49722299999999997,0.025421,-0.090485,-0.002046,-0.0024530000000000003,0.002589,-40.369999,0.06,8.87,2a
2019-07-15_141751:000,-0.497742,0.030487,-0.09149199999999999,-0.0017100000000000001,-0.001995,0.0032909999999999997,-40.369999,0.06,8.87,2a
2019-07-15_141751:020,-0.49823,0.031006,-0.09149199999999999,-0.002046,-0.0011099999999999999,0.004146,-40.369999,-1.0,7.68,2a
2019-07-15_141751:040,-0.49517799999999995,0.031006,-0.090485,-0.003084,-0.0006219999999999999,0.004298,-40.369999,-1.0,7.68,2a
2019-07-15_141751:060,-0.492645,0.029480000000000003,-0.089478,-0.003725,-0.000439,0.00381,-41.060001,-0.68,8.0,2a
2019-07-15_141751:080,-0.49316400000000005,0.026917,-0.087952,-0.004396,-0.000958,0.003169,-41.060001,-0.68,8.0,2a
2019-07-15_141751:100,-0.49517799999999995,0.025421,-0.088959,-0.004518,-0.0011099999999999999,0.0034130000000000002,-41.060001,-0.68,8.0,2a
2019-07-15_141751:120,-0.49468999999999996,0.024384,-0.087952,-0.004182,-0.001202,0.00381,-40.369999,-0.25,8.37,2a
2019-07-15_141751:140,-0.492126,0.022369,-0.088959,-0.004121,-0.001019,0.003474,-40.369999,-0.25,8.37,2a
2019-07-15_141751:160,-0.492126,0.024902,-0.08996599999999999,-0.0036030000000000003,-0.00172,0.003078,-41.060001,-0.25,8.0,2a
2019-07-15_141751:180,-0.49111899999999997,0.024384,-0.08996599999999999,-0.0029620000000000002,-0.001934,0.002955,-41.060001,-0.25,8.0,2a
2019-07-15_141751:200,-0.492126,0.024902,-0.091003,-0.002779,-0.0024530000000000003,0.00265,-41.060001,-0.25,8.0,2a
2019-07-15_141751:220,-0.496216,0.026427999999999997,-0.092529,-0.002748,-0.002514,0.002833,-39.68,-0.68,9.18,2a
2019-07-15_141751:240,-0.496216,0.026917,-0.09201000000000001,-0.002687,-0.002392,0.00265,-39.68,-0.68,9.18,2a
2019-07-15_141751:260,-0.496704,0.027435,-0.09301799999999999,-0.002748,-0.001934,0.002711,-39.68,-0.25,8.37,2a
2019-07-15_141751:280,-0.495697,0.027435,-0.09201000000000001,-0.003114,-0.001385,0.002742,-39.68,-0.25,8.37,2a
2019-07-15_141751:300,-0.49468999999999996,0.027954000000000003,-0.09454299999999999,-0.003145,-0.001141,0.0031079999999999997,-39.68,-0.25,8.37,2a
2019-07-15_141751:320,-0.494171,0.026917,-0.09301799999999999,-0.0033280000000000002,-0.001263,0.00323,-39.25,-0.25,8.0,2a
2019-07-15_141751:340,-0.494171,0.026427999999999997,-0.092529,-0.003389,-0.001019,0.003169,-39.25,-0.25,8.0,2a
2019-07-15_141751:360,-0.49365200000000004,0.025908999999999998,-0.09301799999999999,-0.0036030000000000003,-0.001141,0.0032909999999999997,-41.5,0.06,8.87,2a
2019-07-15_141751:380,-0.49316400000000005,0.025908999999999998,-0.09201000000000001,-0.003389,-0.001019,0.003169,-41.5,0.06,8.87,2a
2019-07-15_141751:400,-0.49316400000000005,0.024902,-0.09201000000000001,-0.003542,-0.001141,0.0032909999999999997,-41.5,0.06,8.87,2a
2019-07-15_141751:420,-0.49365200000000004,0.025908999999999998,-0.09353600000000001,-0.00345,-0.001263,0.0032909999999999997,-40.369999,0.06,7.18,2a
2019-07-15_141751:440,-0.49468999999999996,0.025421,-0.09301799999999999,-0.003542,-0.0011099999999999999,0.003169,-40.369999,0.06,7.18,2a
2019-07-15_141751:460,-0.49468999999999996,0.024902,-0.09353600000000001,-0.0033280000000000002,-0.000897,0.0028940000000000003,-40.75,-0.68,8.37,2a
2019-07-15_141751:480,-0.49365200000000004,0.024902,-0.091003,-0.00345,-0.001019,0.0027719999999999997,-40.75,-0.68,8.37,2a
2019-07-15_141751:500,-0.494171,0.025421,-0.09301799999999999,-0.003114,-0.000958,0.002833,-40.75,-0.68,8.37,2a
2019-07-15_141751:520,-0.494171,0.025421,-0.09301799999999999,-0.003145,-0.0008349999999999999,0.002711,-40.060001,-0.68,7.68,2a
2019-07-15_141751:540,-0.49365200000000004,0.025421,-0.09201000000000001,-0.0029010000000000004,-0.00108,0.002467,-40.060001,-0.68,7.68,2a
2019-07-15_141751:560,-0.49722299999999997,0.024902,-0.09353600000000001,-0.002779,-0.0008349999999999999,0.0027719999999999997,-39.68,0.06,7.68,2a
2019-07-15_141751:580,-0.494171,0.026917,-0.08996599999999999,-0.002687,-0.000439,0.0028940000000000003,-39.68,0.06,7.68,2a
2019-07-15_141751:600,-0.49365200000000004,0.028442000000000002,-0.090485,-0.002779,-0.000225,0.003016,-39.68,0.06,7.68,2a
2019-07-15_141751:620,-0.49316400000000005,0.027954000000000003,-0.09149199999999999,-0.0032670000000000004,-0.000225,0.003505,-41.5,0.06,8.0,2a
2019-07-15_141751:640,-0.490112,0.026427999999999997,-0.091003,-0.0036030000000000003,-0.000897,0.002955,-41.5,0.06,8.0,2a
2019-07-15_141751:660,-0.491638,0.025908999999999998,-0.09201000000000001,-0.003725,-0.001324,0.002131,-40.369999,0.06,7.18,2a
2019-07-15_141751:680,-0.492126,0.025421,-0.092529,-0.003542,-0.001934,0.002315,-40.369999,0.06,7.18,2a
2019-07-15_141751:700,-0.49468999999999996,0.025908999999999998,-0.09353600000000001,-0.003145,-0.001598,0.002467,-40.369999,0.06,7.18,2a
2019-07-15_141751:720,-0.495697,0.024902,-0.09301799999999999,-0.0028399999999999996,-0.0016589999999999999,0.002711,-40.060001,0.06,8.0,2a
2019-07-15_141751:740,-0.495697,0.026917,-0.09454299999999999,-0.0023510000000000002,-0.001202,0.003016,-40.060001,0.06,8.0,2a
2019-07-15_141751:760,-0.496216,0.027435,-0.092529,-0.002107,-0.0007440000000000001,0.0035659999999999997,-40.75,0.06,8.5,2a
2019-07-15_141751:780,-0.495697,0.029480000000000003,-0.091003,-0.0026260000000000003,-0.000286,0.00381,-40.75,0.06,8.5,2a
2019-07-15_141751:800,-0.496704,0.029480000000000003,-0.091003,-0.003145,-0.000225,0.0036880000000000003,-40.75,0.06,8.5,2a
2019-07-15_141751:820,-0.495697,0.027435,-0.08996599999999999,-0.00345,0.000172,0.0032909999999999997,-40.369999,0.06,8.0,2a
2019-07-15_141751:840,-0.49468999999999996,0.025421,-0.090485,-0.0038469999999999997,0.00011100000000000001,0.00323,-40.369999,0.06,8.0,2a
2019-07-15_141751:860,-0.49468999999999996,0.025421,-0.089478,-0.004121,0.000172,0.004024,-40.369999,-0.25,8.87,2a
2019-07-15_141751:880,-0.49111899999999997,0.023375999999999997,-0.087952,-0.004121,0.000172,0.003474,-40.369999,-0.25,8.87,2a
2019-07-15_141751:900,-0.49111899999999997,0.022858,-0.091003,-0.0036030000000000003,-4.2e-05,0.002955,-40.369999,-0.25,8.87,2a
2019-07-15_141751:920,-0.49111899999999997,0.022369,-0.08996599999999999,-0.003664,-0.00034700000000000003,0.003169,-41.060001,-0.25,8.37,2a
2019-07-15_141751:940,-0.49365200000000004,0.023895,-0.089478,-0.003114,-0.000897,0.003169,-41.060001,-0.25,8.37,2a
2019-07-15_141751:960,-0.496216,0.024902,-0.090485,-0.003023,-0.0007740000000000001,0.003078,-40.060001,-0.68,8.37,2a
2019-07-15_141751:980,-0.496704,0.025421,-0.087952,-0.0029010000000000004,-0.0006219999999999999,0.002955,-40.060001,-0.68,8.37,2a
2019-07-15_141752:000,-0.49722299999999997,0.025421,-0.090485,-0.002748,-0.0005,0.002742,-40.060001,-0.68,8.37,2a
2019-07-15_141752:020,-0.49517799999999995,0.026427999999999997,-0.088959,-0.003084,-0.000103,0.002742,-40.369999,-0.25,8.0,2a
2019-07-15_141752:040,-0.49517799999999995,0.026427999999999997,-0.088959,-0.003084,-4.2e-05,0.002955,-40.369999,-0.25,8.0,2a
2019-07-15_141752:060,-0.49316400000000005,0.025421,-0.089478,-0.003206,-0.000103,0.003016,-40.060001,0.06,8.37,2a
2019-07-15_141752:080,-0.49468999999999996,0.026427999999999997,-0.089478,-0.003389,-0.000103,0.003169,-40.060001,0.06,8.37,2a
2019-07-15_141752:100,-0.492126,0.024902,-0.088959,-0.0033280000000000002,-0.00034700000000000003,0.0033520000000000004,-40.060001,0.06,8.37,2a
2019-07-15_141752:120,-0.49316400000000005,0.025421,-0.088959,-0.00345,-0.000683,0.0032909999999999997,-40.75,0.06,8.87,2a
2019-07-15_141752:140,-0.494171,0.024384,-0.08996599999999999,-0.0033280000000000002,-0.0005610000000000001,0.003474,-40.75,0.06,8.87,2a
2019-07-15_141752:160,-0.49365200000000004,0.024902,-0.08843999999999999,-0.0034799999999999996,-0.000683,0.0033520000000000004,-41.060001,-0.25,7.68,2a
2019-07-15_141752:180,-0.494171,0.024902,-0.088959,-0.00345,-0.0011099999999999999,0.0031079999999999997,-41.060001,-0.25,7.68,2a
2019-07-15_141752:200,-0.49365200000000004,0.025421,-0.088959,-0.003664,-0.0008349999999999999,0.003078,-41.060001,-0.25,7.68,2a
2019-07-15_141752:220,-0.49468999999999996,0.024384,-0.088959,-0.00345,-0.000958,0.0028940000000000003,-40.060001,-0.25,8.37,2a
2019-07-15_141752:240,-0.49316400000000005,0.024902,-0.089478,-0.003206,-0.00108,0.0028940000000000003,-40.060001,-0.25,8.37,2a
2019-07-15_141752:260,-0.49517799999999995,0.025421,-0.08996599999999999,-0.0033280000000000002,-0.001202,0.003016,-40.060001,0.06,7.68,2a
2019-07-15_141752:280,-0.49517799999999995,0.024902,-0.088959,-0.0033280000000000002,-0.000958,0.003169,-40.060001,0.06,7.68,2a
2019-07-15_141752:300,-0.496704,0.024902,-0.088959,-0.0033280000000000002,-0.0007440000000000001,0.0032909999999999997,-40.060001,0.06,7.68,2a
2019-07-15_141752:320,-0.496704,0.025908999999999998,-0.089478,-0.003389,-0.0005610000000000001,0.0036270000000000004,-40.369999,0.37,6.87,2a
2019-07-15_141752:340,-0.49316400000000005,0.025421,-0.087952,-0.0038469999999999997,-0.000897,0.0032909999999999997,-40.369999,0.37,6.87,2a
2019-07-15_141752:360,-0.49111899999999997,0.023375999999999997,-0.088959,-0.004518,-0.001385,0.0021920000000000004,-41.060001,-0.25,8.37,2a
2019-07-15_141752:380,-0.49111899999999997,0.024384,-0.088959,-0.004121,-0.0014759999999999999,0.0017350000000000002,-41.060001,-0.25,8.37,2a
2019-07-15_141752:400,-0.491638,0.023895,-0.091003,-0.0038770000000000002,-0.00227,0.0017350000000000002,-41.060001,-0.25,8.37,2a
2019-07-15_141752:420,-0.492126,0.023375999999999997,-0.09149199999999999,-0.0038770000000000002,-0.0023309999999999997,0.001857,-40.060001,-0.68,8.0,2a
2019-07-15_141752:440,-0.492645,0.023375999999999997,-0.091003,-0.003084,-0.0023309999999999997,0.00265,-40.060001,-0.68,8.0,2a
2019-07-15_141752:460,-0.49468999999999996,0.025421,-0.09201000000000001,-0.002748,-0.002514,0.002742,-41.5,-1.0,9.68,2a
2019-07-15_141752:480,-0.496704,0.025421,-0.09301799999999999,-0.002107,-0.0021780000000000002,0.0031079999999999997,-41.5,-1.0,9.68,2a
2019-07-15_141752:500,-0.496704,0.027435,-0.092529,-0.002229,-0.00172,0.0028940000000000003,-41.5,-1.0,9.68,2a
2019-07-15_141752:520,-0.496704,0.027954000000000003,-0.092529,-0.002748,-0.001263,0.002955,-40.369999,0.06,7.68,2a
2019-07-15_141752:540,-0.49365200000000004,0.028442000000000002,-0.092529,-0.003084,-0.001263,0.0028940000000000003,-40.369999,0.06,7.68,2a
2019-07-15_141752:560,-0.496216,0.027954000000000003,-0.09301799999999999,-0.003542,-0.001202,0.003474,-40.75,-0.25,8.0,2a
2019-07-15_141752:580,-0.496216,0.025908999999999998,-0.090485,-0.00406,-0.00108,0.00381,-40.75,-0.25,8.0,2a
2019-07-15_141752:600,-0.49316400000000005,0.024384,-0.091003,-0.004396,-0.000958,0.0031079999999999997,-40.75,-0.25,8.0,2a
2019-07-15_141752:620,-0.492645,0.023375999999999997,-0.092529,-0.004243,-0.001141,0.002742,-40.75,0.06,8.0,2a
2019-07-15_141752:640,-0.490601,0.023375999999999997,-0.091003,-0.0038469999999999997,-0.001324,0.00265,-40.75,0.06,8.0,2a
2019-07-15_141752:660,-0.49111899999999997,0.021851,-0.09201000000000001,-0.003542,-0.001385,0.0027719999999999997,-39.68,-0.25,8.37,2a
2019-07-15_141752:680,-0.494171,0.023375999999999997,-0.09201000000000001,-0.0032670000000000004,-0.00172,0.002833,-39.68,-0.25,8.37,2a
2019-07-15_141752:700,-0.49517799999999995,0.024384,-0.092529,-0.003145,-0.001537,0.0027719999999999997,-39.68,-0.25,8.37,2a
2019-07-15_141752:720,-0.49517799999999995,0.024902,-0.09353600000000001,-0.003114,-0.001141,0.0025280000000000003,-40.060001,0.37,6.87,2a
2019-07-15_141752:740,-0.495697,0.025421,-0.092529,-0.003389,-0.000958,0.002589,-40.060001,0.37,6.87,2a
2019-07-15_141752:760,-0.49517799999999995,0.024902,-0.09353600000000001,-0.003206,-0.000958,0.00265,-39.68,-0.25,6.0,2a
2019-07-15_141752:780,-0.496216,0.025421,-0.09149199999999999,-0.00345,-0.000683,0.002467,-39.68,-0.25,6.0,2a
2019-07-15_141752:800,-0.49468999999999996,0.024902,-0.09149199999999999,-0.003389,-0.000683,0.002467,-39.68,-0.25,6.0,2a
2019-07-15_141752:820,-0.49316400000000005,0.025421,-0.09201000000000001,-0.0032670000000000004,-0.0008349999999999999,0.002833,-40.060001,-0.25,7.18,2a
2019-07-15_141752:840,-0.491638,0.024902,-0.09201000000000001,-0.003145,-0.000897,0.0028940000000000003,-40.060001,-0.25,7.18,2a
2019-07-15_141752:860,-0.49365200000000004,0.024902,-0.09201000000000001,-0.003084,-0.0011099999999999999,0.002711,-39.68,0.06,7.68,2a
2019-07-15_141752:880,-0.49468999999999996,0.024384,-0.09149199999999999,-0.0032670000000000004,-0.001446,0.0027719999999999997,-39.68,0.06,7.68,2a
2019-07-15_141752:900,-0.49517799999999995,0.024384,-0.090485,-0.003206,-0.0011099999999999999,0.002467,-39.68,0.06,7.68,2a
2019-07-15_141752:920,-0.494171,0.024902,-0.09301799999999999,-0.003145,-0.001019,0.0024059999999999997,-40.369999,-0.25,7.68,2a
2019-07-15_141752:940,-0.49365200000000004,0.025421,-0.091003,-0.003206,-0.00108,0.002376,-40.369999,-0.25,7.68,2a
2019-07-15_141752:960,-0.49316400000000005,0.024384,-0.09149199999999999,-0.003206,-0.001141,0.002254,-40.75,0.06,8.37,2a
2019-07-15_141752:980,-0.494171,0.024902,-0.092529,-0.0029010000000000004,-0.001263,0.00207,-40.75,0.06,8.37,2a
2019-07-15_141753:000,-0.491638,0.024384,-0.092529,-0.0029620000000000002,-0.001141,0.002254,-40.75,0.06,8.37,2a
2019-07-15_141753:020,-0.496216,0.026917,-0.09201000000000001,-0.002382,-0.00108,0.0025280000000000003,-33.75,-0.68,7.18,2a
2019-07-15_141753:040,-0.496704,0.028442000000000002,-0.08996599999999999,-0.002229,-0.001202,0.0027719999999999997,-33.75,-0.68,7.18,2a
2019-07-15_141753:060,-0.49365200000000004,0.028442000000000002,-0.09149199999999999,-0.00345,-0.001019,0.002589,-40.369999,-0.25,8.0,2a
2019-07-15_141753:080,-0.49316400000000005,0.026917,-0.09201000000000001,-0.00345,-0.001019,0.002589,-40.369999,-0.25,8.0,2a
2019-07-15_141753:100,-0.49111899999999997,0.025908999999999998,-0.09149199999999999,-0.004182,-0.001202,0.001399,-40.369999,-0.25,8.0,2a
2019-07-15_141753:120,-0.491638,0.024902,-0.09353600000000001,-0.004121,-0.001598,0.00146,-40.060001,-1.0,8.0,2a
2019-07-15_141753:140,-0.492126,0.023375999999999997,-0.09301799999999999,-0.0032670000000000004,-0.0021780000000000002,0.001857,-40.060001,-1.0,8.0,2a
2019-07-15_141753:160,-0.496216,0.025421,-0.09454299999999999,-0.00229,-0.001934,0.001918,-40.060001,-1.0,8.0,2a
2019-07-15_141753:180,-0.497742,0.027435,-0.094055,-0.001497,-0.001385,0.0024059999999999997,-40.369999,-0.25,8.87,2a
2019-07-15_141753:200,-0.496704,0.031006,-0.09353600000000001,-0.001558,-0.0008349999999999999,0.00323,-40.369999,-0.25,8.87,2a
2019-07-15_141753:220,-0.495697,0.030487,-0.09201000000000001,-0.002107,-0.0005610000000000001,0.003505,-40.75,-0.68,8.0,2a
2019-07-15_141753:240,-0.49316400000000005,0.031006,-0.09149199999999999,-0.0029010000000000004,-0.00037799999999999997,0.0031079999999999997,-40.75,-0.68,8.0,2a
2019-07-15_141753:260,-0.49365200000000004,0.028961,-0.09201000000000001,-0.003725,-0.00037799999999999997,0.002742,-40.369999,-0.25,6.87,2a
2019-07-15_141753:280,-0.494171,0.026917,-0.090485,-0.004182,-0.000958,0.002711,-40.369999,-0.25,6.87,2a
2019-07-15_141753:300,-0.492126,0.027954000000000003,-0.090485,-0.00406,-0.0006219999999999999,0.003169,-40.369999,-0.25,6.87,2a
2019-07-15_141753:320,-0.492645,0.025421,-0.091003,-0.00406,-0.00108,0.00323,-39.68,-0.25,7.68,2a
2019-07-15_141753:340,-0.491638,0.024902,-0.08996599999999999,-0.003542,-0.001324,0.0028940000000000003,-39.68,-0.25,7.68,2a
2019-07-15_141753:360,-0.491638,0.024902,-0.09149199999999999,-0.003206,-0.0014759999999999999,0.002589,-40.060001,0.06,7.18,2a
2019-07-15_141753:380,-0.492126,0.026427999999999997,-0.09201000000000001,-0.0029010000000000004,-0.0016589999999999999,0.0024059999999999997,-40.060001,0.06,7.18,2a
2019-07-15_141753:400,-0.49316400000000005,0.027954000000000003,-0.09353600000000001,-0.0028399999999999996,-0.001995,0.0025280000000000003,-40.060001,0.06,7.18,2a
2019-07-15_141753:420,-0.49468999999999996,0.028961,-0.09353600000000001,-0.002748,-0.001782,0.002467,-40.060001,-0.25,7.68,2a
2019-07-15_141753:440,-0.49468999999999996,0.029480000000000003,-0.094055,-0.0029010000000000004,-0.0014759999999999999,0.002589,-40.060001,-0.25,7.68,2a
2019-07-15_141753:460,-0.494171,0.028442000000000002,-0.09454299999999999,-0.003023,-0.001324,0.002589,-40.060001,-0.25,7.68,2a
2019-07-15_141753:480,-0.49365200000000004,0.029480000000000003,-0.094055,-0.003023,-0.00108,0.003016,-43.68,-0.25,7.18,2a
2019-07-15_141753:500,-0.494171,0.028442000000000002,-0.094055,-0.003389,-0.000958,0.00323,-43.68,-0.25,7.18,2a
2019-07-15_141753:520,-0.49365200000000004,0.028961,-0.09353600000000001,-0.003389,-0.001324,0.0032909999999999997,-40.75,-0.25,8.37,2a
2019-07-15_141753:540,-0.49365200000000004,0.028442000000000002,-0.092529,-0.003542,-0.000958,0.003505,-40.75,-0.25,8.37,2a
2019-07-15_141753:560,-0.494171,0.027435,-0.09454299999999999,-0.003542,-0.001385,0.0036880000000000003,-40.75,-0.25,8.37,2a
2019-07-15_141753:580,-0.492645,0.025421,-0.09353600000000001,-0.0036030000000000003,-0.001202,0.0035659999999999997,-41.060001,-0.68,7.18,2a
2019-07-15_141753:600,-0.49365200000000004,0.026917,-0.092529,-0.00345,-0.001263,0.0036880000000000003,-41.060001,-0.68,7.18,2a
2019-07-15_141753:620,-0.494171,0.026917,-0.09201000000000001,-0.0034799999999999996,-0.001202,0.003505,-40.060001,0.37,8.37,2a
2019-07-15_141753:640,-0.492645,0.025421,-0.092529,-0.0038469999999999997,-0.001263,0.0032909999999999997,-40.060001,0.37,8.37,2a
2019-07-15_141753:660,-0.494171,0.025421,-0.09353600000000001,-0.003542,-0.0011099999999999999,0.003078,-40.060001,0.37,8.37,2a
2019-07-15_141753:680,-0.494171,0.025421,-0.09301799999999999,-0.0034799999999999996,-0.0011099999999999999,0.003078,-40.75,-0.25,7.68,2a
2019-07-15_141753:700,-0.49468999999999996,0.025908999999999998,-0.09353600000000001,-0.003206,-0.000958,0.002833,-40.75,-0.25,7.68,2a
2019-07-15_141753:720,-0.49365200000000004,0.027435,-0.094055,-0.003114,-0.0011099999999999999,0.002711,-40.060001,0.06,7.18,2a
2019-07-15_141753:740,-0.49468999999999996,0.026427999999999997,-0.09301799999999999,-0.0029010000000000004,-0.000897,0.0027719999999999997,-40.060001,0.06,7.18,2a
2019-07-15_141753:760,-0.496216,0.026917,-0.09353600000000001,-0.0029010000000000004,-0.00108,0.003016,-40.060001,0.06,7.18,2a
2019-07-15_141753:780,-0.496704,0.028442000000000002,-0.09201000000000001,-0.003145,-0.000683,0.0036880000000000003,-40.060001,-0.25,7.18,2a
2019-07-15_141753:800,-0.492645,0.026427999999999997,-0.09301799999999999,-0.003786,-0.0006219999999999999,0.003901,-40.060001,-0.25,7.18,2a
2019-07-15_141753:820,-0.491638,0.024384,-0.09301799999999999,-0.003999,-0.0007440000000000001,0.002711,-39.68,0.06,8.37,2a
2019-07-15_141753:840,-0.489594,0.025421,-0.09353600000000001,-0.004243,-0.001324,0.001185,-39.68,0.06,8.37,2a
2019-07-15_141753:860,-0.492126,0.024384,-0.095581,-0.0034799999999999996,-0.0016589999999999999,0.001796,-39.68,0.06,8.37,2a
2019-07-15_141753:880,-0.494171,0.023375999999999997,-0.095062,-0.003023,-0.001782,0.002376,-40.369999,-0.68,8.37,2a
2019-07-15_141753:900,-0.49517799999999995,0.024384,-0.096069,-0.002107,-0.001446,0.002589,-40.369999,-0.68,8.37,2a
2019-07-15_141753:920,-0.496704,0.025908999999999998,-0.096588,-0.001375,-0.0008349999999999999,0.00323,-40.060001,-0.68,7.18,2a
2019-07-15_141753:940,-0.49722299999999997,0.029968,-0.095062,-0.001222,-0.000103,0.0035659999999999997,-40.060001,-0.68,7.18,2a
2019-07-15_141753:960,-0.496704,0.029968,-0.09454299999999999,-0.0017100000000000001,5e-05,0.0036880000000000003,-40.060001,-0.68,7.18,2a
2019-07-15_141753:980,-0.49517799999999995,0.030487,-0.094055,-0.002687,0.00038500000000000003,0.0036270000000000004,-40.369999,-0.68,8.37,2a
2019-07-15_141754:000,-0.49468999999999996,0.029480000000000003,-0.09301799999999999,-0.0033280000000000002,0.0007509999999999999,0.003169,-40.369999,-0.68,8.37,2a
2019-07-15_141754:020,-0.49468999999999996,0.028442000000000002,-0.09149199999999999,-0.0039380000000000005,0.0007509999999999999,0.0033520000000000004,-40.369999,-0.25,7.68,2a
2019-07-15_141754:040,-0.49365200000000004,0.025908999999999998,-0.090485,-0.00461,0.000782,0.004207,-40.369999,-0.25,7.68,2a
2019-07-15_141754:060,-0.491638,0.024384,-0.09149199999999999,-0.00461,0.000843,0.004146,-40.369999,-0.25,7.68,2a
2019-07-15_141754:080,-0.489594,0.022858,-0.090485,-0.00461,0.000446,0.0036880000000000003,-41.5,-0.68,9.18,2a
2019-07-15_141754:100,-0.489075,0.022369,-0.090485,-0.004182,-0.000439,0.003474,-41.5,-0.68,9.18,2a
2019-07-15_141754:120,-0.490601,0.022858,-0.09201000000000001,-0.0034799999999999996,-0.0007740000000000001,0.0032909999999999997,-40.060001,0.06,8.37,2a
2019-07-15_141754:140,-0.492126,0.022858,-0.08996599999999999,-0.003084,-0.001202,0.002833,-40.060001,0.06,8.37,2a
2019-07-15_141754:160,-0.496704,0.024384,-0.09201000000000001,-0.0023510000000000002,-0.001263,0.0027719999999999997,-40.060001,0.06,8.37,2a
2019-07-15_141754:180,-0.497742,0.026917,-0.090485,-0.002443,-0.0008349999999999999,0.002589,-40.369999,-0.68,8.0,2a
2019-07-15_141754:200,-0.496704,0.026917,-0.09149199999999999,-0.002107,-0.00037799999999999997,0.002742,-40.369999,-0.68,8.0,2a
2019-07-15_141754:220,-0.49517799999999995,0.028442000000000002,-0.092529,-0.0026260000000000003,-0.000286,0.002742,-40.369999,-0.25,8.0,2a
2019-07-15_141754:240,-0.494171,0.027954000000000003,-0.091003,-0.002779,-0.000103,0.003078,-40.369999,-0.25,8.0,2a
2019-07-15_141754:260,-0.49316400000000005,0.026917,-0.091003,-0.003206,-0.00034700000000000003,0.0031079999999999997,-40.369999,-0.25,8.0,2a
2019-07-15_141754:280,-0.491638,0.025908999999999998,-0.09201000000000001,-0.003542,-0.0005610000000000001,0.0031079999999999997,-41.060001,0.06,7.68,2a
2019-07-15_141754:300,-0.492126,0.025421,-0.091003,-0.003206,-0.0005,0.0034130000000000002,-41.060001,0.06,7.68,2a
2019-07-15_141754:320,-0.49468999999999996,0.024384,-0.09201000000000001,-0.003725,-0.000897,0.0035659999999999997,-39.68,0.06,8.0,2a
2019-07-15_141754:340,-0.496216,0.025421,-0.08996599999999999,-0.0036030000000000003,-0.0006219999999999999,0.0036880000000000003,-39.68,0.06,8.0,2a
2019-07-15_141754:360,-0.496704,0.022858,-0.08996599999999999,-0.003725,-0.000439,0.0035659999999999997,-39.68,0.06,8.0,2a
2019-07-15_141754:380,-0.495697,0.024384,-0.090485,-0.003725,-0.000286,0.003505,-40.75,0.37,8.87,2a
2019-07-15_141754:400,-0.49517799999999995,0.022858,-0.08996599999999999,-0.003786,-0.000103,0.003169,-40.75,0.37,8.87,2a
2019-07-15_141754:420,-0.494171,0.021332,-0.090485,-0.003664,-0.000103,0.003078,-41.060001,0.06,8.0,2a
2019-07-15_141754:440,-0.492645,0.021332,-0.087952,-0.003389,-0.000439,0.002711,-41.060001,0.06,8.0,2a
2019-07-15_141754:460,-0.49365200000000004,0.022858,-0.08996599999999999,-0.0028399999999999996,-0.0006219999999999999,0.0021920000000000004,-41.060001,0.06,8.0,2a
2019-07-15_141754:480,-0.495697,0.023895,-0.089478,-0.002382,-0.0005610000000000001,0.002376,-40.060001,0.06,7.18,2a
2019-07-15_141754:500,-0.496704,0.023895,-0.087952,-0.002107,-0.0005610000000000001,0.002315,-40.060001,0.06,7.18,2a
2019-07-15_141754:520,-0.497742,0.026917,-0.088959,-0.002107,-0.000164,0.0024059999999999997,-40.75,-0.25,8.0,2a
2019-07-15_141754:540,-0.496216,0.028442000000000002,-0.086426,-0.002565,-4.2e-05,0.0027719999999999997,-40.75,-0.25,8.0,2a
2019-07-15_141754:560,-0.49365200000000004,0.026427999999999997,-0.087952,-0.003145,5e-05,0.002376,-40.75,-0.25,8.0,2a
2019-07-15_141754:580,-0.491638,0.025421,-0.087952,-0.0038770000000000002,-0.000164,0.001399,-40.369999,0.06,8.0,2a
2019-07-15_141754:600,-0.491638,0.025421,-0.088959,-0.0038770000000000002,-0.0008349999999999999,0.0016129999999999999,-40.369999,0.06,8.0,2a
2019-07-15_141754:620,-0.49111899999999997,0.023895,-0.08996599999999999,-0.003725,-0.001263,0.001674,-32.75,0.06,7.68,2a
2019-07-15_141754:640,-0.492645,0.024384,-0.088959,-0.003084,-0.0016589999999999999,0.001674,-32.75,0.06,7.68,2a
2019-07-15_141754:660,-0.49468999999999996,0.024902,-0.089478,-0.0023510000000000002,-0.001782,0.002254,-32.75,0.06,7.68,2a
2019-07-15_141754:680,-0.496216,0.027954000000000003,-0.090485,-0.0019850000000000002,-0.0014759999999999999,0.002711,-40.060001,0.37,6.87,2a
2019-07-15_141754:700,-0.496704,0.028442000000000002,-0.088959,-0.001894,-0.0011099999999999999,0.003078,-40.060001,0.37,6.87,2a
2019-07-15_141754:720,-0.496216,0.029480000000000003,-0.08996599999999999,-0.0023510000000000002,-0.001019,0.0028940000000000003,-40.060001,0.06,8.37,2a
2019-07-15_141754:740,-0.495697,0.028442000000000002,-0.08843999999999999,-0.0028399999999999996,-0.000958,0.002589,-40.060001,0.06,8.37,2a
2019-07-15_141754:760,-0.49468999999999996,0.028961,-0.091003,-0.0033280000000000002,-0.000958,0.002467,-40.060001,0.06,8.37,2a
2019-07-15_141754:780,-0.494171,0.027954000000000003,-0.089478,-0.0034799999999999996,-0.0007740000000000001,0.002833,-40.369999,-0.25,8.0,2a
2019-07-15_141754:800,-0.49468999999999996,0.025421,-0.08843999999999999,-0.003389,-0.0007440000000000001,0.003016,-40.369999,-0.25,8.0,2a
2019-07-15_141754:820,-0.491638,0.025908999999999998,-0.08996599999999999,-0.0032670000000000004,-0.0008349999999999999,0.002376,-40.75,0.06,7.18,2a
2019-07-15_141754:840,-0.492645,0.026427999999999997,-0.08996599999999999,-0.0028399999999999996,-0.0014759999999999999,0.002467,-40.75,0.06,7.18,2a
2019-07-15_141754:860,-0.49316400000000005,0.025908999999999998,-0.08996599999999999,-0.002687,-0.001873,0.002589,-40.75,0.06,7.18,2a
2019-07-15_141754:880,-0.496704,0.025421,-0.08843999999999999,-0.002168,-0.001843,0.002711,-40.369999,0.06,6.37,2a
2019-07-15_141754:900,-0.49722299999999997,0.024902,-0.089478,-0.001894,-0.0014759999999999999,0.00265,-40.369999,0.06,6.37,2a
2019-07-15_141754:920,-0.496216,0.026917,-0.090485,-0.0018329999999999998,-0.0011099999999999999,0.0025280000000000003,-40.75,0.06,8.0,2a
2019-07-15_141754:940,-0.494171,0.026427999999999997,-0.090485,-0.002229,-0.000683,0.0027719999999999997,-40.75,0.06,8.0,2a
2019-07-15_141754:960,-0.491638,0.025421,-0.092529,-0.003145,-0.001141,0.0031079999999999997,-40.75,0.06,8.0,2a
2019-07-15_141754:980,-0.49316400000000005,0.025421,-0.092529,-0.003542,-0.001202,0.003016,-40.75,-0.25,9.18,2a
2019-07-15_141755:000,-0.49365200000000004,0.025908999999999998,-0.090485,-0.004182,-0.001019,0.0031079999999999997,-40.75,-0.25,9.18,2a
2019-07-15_141755:020,-0.494171,0.025421,-0.091003,-0.004518,-0.00108,0.003871,-38.869999,-0.25,6.0,2a
2019-07-15_141755:040,-0.491638,0.023375999999999997,-0.090485,-0.005128,-0.0007740000000000001,0.004481000000000001,-38.869999,-0.25,6.0,2a
2019-07-15_141755:060,-0.49316400000000005,0.021851,-0.09149199999999999,-0.005403,-0.001141,0.004481000000000001,-38.869999,-0.25,6.0,2a
2019-07-15_141755:080,-0.49468999999999996,0.019318000000000002,-0.091003,-0.005464,-0.001446,0.003871,-40.369999,-0.25,8.87,2a
2019-07-15_141755:100,-0.49517799999999995,0.021332,-0.091003,-0.005067,-0.001446,0.003078,-40.369999,-0.25,8.87,2a
2019-07-15_141755:120,-0.49517799999999995,0.020325,-0.08996599999999999,-0.005067,-0.0014759999999999999,0.002315,-40.369999,0.75,8.0,2a
2019-07-15_141755:140,-0.494171,0.022858,-0.08996599999999999,-0.004396,-0.001202,0.001521,-40.369999,0.75,8.0,2a
2019-07-15_141755:160,-0.494171,0.024902,-0.089478,-0.004335,-0.001263,0.0016129999999999999,-40.369999,0.75,8.0,2a
2019-07-15_141755:180,-0.49316400000000005,0.026917,-0.089478,-0.004182,-0.001202,0.001399,-40.060001,0.37,6.87,2a
2019-07-15_141755:200,-0.492126,0.028442000000000002,-0.090485,-0.004335,-0.0014759999999999999,0.001185,-40.060001,0.37,6.87,2a
2019-07-15_141755:220,-0.492645,0.027435,-0.09201000000000001,-0.004396,-0.001385,0.001338,-40.060001,-0.25,8.0,2a
2019-07-15_141755:240,-0.490601,0.027435,-0.089478,-0.00461,-0.001995,0.001674,-40.060001,-0.25,8.0,2a
2019-07-15_141755:260,-0.49111899999999997,0.025421,-0.09149199999999999,-0.004579,-0.0020559999999999997,0.001521,-40.060001,-0.25,8.0,2a
2019-07-15_141755:280,-0.492126,0.025421,-0.092529,-0.004182,-0.002911,0.001521,-41.060001,-0.25,8.37,2a
2019-07-15_141755:300,-0.491638,0.024902,-0.092529,-0.003664,-0.003368,0.001124,-41.060001,-0.25,8.37,2a
2019-07-15_141755:320,-0.49111899999999997,0.023895,-0.096588,-0.003389,-0.003796,-0.000188,-40.75,-0.25,8.87,2a
2019-07-15_141755:340,-0.490601,0.025421,-0.098633,-0.002382,-0.004131,-0.0011949999999999999,-40.75,-0.25,8.87,2a
2019-07-15_141755:360,-0.49365200000000004,0.026917,-0.100159,-0.000917,-0.004101,-0.001256,-40.75,-0.25,8.87,2a
2019-07-15_141755:380,-0.500275,0.029480000000000003,-0.100647,0.000273,-0.003796,-0.001775,-40.369999,0.06,8.37,2a
2019-07-15_141755:400,-0.503845,0.033539,-0.100647,0.0015550000000000002,-0.0027890000000000002,-0.002843,-40.369999,0.06,8.37,2a
2019-07-15_141755:420,-0.504333,0.039642000000000004,-0.100159,0.002562,-0.0007740000000000001,-0.002934,-40.369999,-1.0,8.0,2a
2019-07-15_141755:440,-0.501282,0.043701,-0.096069,0.003203,0.000904,-0.0024460000000000003,-40.369999,-1.0,8.0,2a
2019-07-15_141755:460,-0.49468999999999996,0.046752999999999996,-0.094055,0.003081,0.002552,-0.0016530000000000002,-40.369999,-1.0,8.0,2a
2019-07-15_141755:480,-0.492126,0.046752999999999996,-0.09301799999999999,0.002135,0.0027660000000000002,-0.000859,-40.369999,-0.25,7.68,2a
2019-07-15_141755:500,-0.491638,0.048279,-0.090485,0.000884,0.002705,8.7e-05,-40.369999,-0.25,7.68,2a
2019-07-15_141755:520,-0.49111899999999997,0.047791,-0.08843999999999999,-0.000246,0.002705,0.001277,-41.060001,-1.37,8.0,2a
2019-07-15_141755:540,-0.489594,0.047272,-0.086914,-0.001558,0.0018809999999999999,0.002589,-41.060001,-1.37,8.0,2a
2019-07-15_141755:560,-0.489594,0.044219999999999995,-0.085388,-0.0025039999999999997,0.0011480000000000001,0.0035659999999999997,-41.060001,-1.37,8.0,2a
2019-07-15_141755:580,-0.48858599999999996,0.041168,-0.087952,-0.003145,-0.000225,0.0042369999999999994,-41.869999,-1.37,8.0,2a
2019-07-15_141755:600,-0.489594,0.037598,-0.086914,-0.003542,-0.0006219999999999999,0.004481000000000001,-41.869999,-1.37,8.0,2a
2019-07-15_141755:620,-0.491638,0.034546,-0.08743300000000001,-0.003664,-0.001446,0.004695,-40.060001,-1.75,8.87,2a
2019-07-15_141755:640,-0.492645,0.032532,-0.087952,-0.0036030000000000003,-0.00172,0.005031,-40.060001,-1.75,8.87,2a
2019-07-15_141755:660,-0.495697,0.03302,-0.08996599999999999,-0.00345,-0.001843,0.005336,-40.060001,-1.75,8.87,2a
2019-07-15_141755:680,-0.496216,0.032013,-0.088959,-0.0032670000000000004,-0.0014759999999999999,0.005488,-40.75,-1.37,7.18,2a
2019-07-15_141755:700,-0.494171,0.030487,-0.08996599999999999,-0.0032670000000000004,-0.001598,0.005397,-40.75,-1.37,7.18,2a
2019-07-15_141755:720,-0.49316400000000005,0.031006,-0.091003,-0.0032670000000000004,-0.001324,0.0051530000000000005,-40.75,-1.37,7.68,2a
2019-07-15_141755:740,-0.49365200000000004,0.031006,-0.090485,-0.0032670000000000004,-0.001782,0.004939,-40.75,-1.37,7.68,2a
2019-07-15_141755:760,-0.49316400000000005,0.030487,-0.09149199999999999,-0.003114,-0.001995,0.004756,-40.75,-1.37,7.68,2a
2019-07-15_141755:780,-0.49316400000000005,0.029480000000000003,-0.09149199999999999,-0.003084,-0.00172,0.004756,-39.68,-1.0,8.37,2a
2019-07-15_141755:800,-0.492645,0.030487,-0.09301799999999999,-0.003023,-0.001873,0.004817,-39.68,-1.0,8.37,2a
2019-07-15_141755:820,-0.492126,0.032013,-0.094055,-0.003145,-0.001843,0.005031,-40.369999,-1.0,9.18,2a
2019-07-15_141755:840,-0.492645,0.032013,-0.092529,-0.0036030000000000003,-0.002239,0.005275,-40.369999,-1.0,9.18,2a
2019-07-15_141755:860,-0.492645,0.032013,-0.09149199999999999,-0.0038469999999999997,-0.002117,0.005031,-40.369999,-1.0,9.18,2a
2019-07-15_141755:880,-0.494171,0.030487,-0.09201000000000001,-0.004335,-0.002239,0.004878,-40.369999,-0.68,8.87,2a
2019-07-15_141755:900,-0.49517799999999995,0.029480000000000003,-0.09353600000000001,-0.00461,-0.0020559999999999997,0.004298,-40.369999,-0.68,8.87,2a
2019-07-15_141755:920,-0.49517799999999995,0.027954000000000003,-0.09353600000000001,-0.004671,-0.0020559999999999997,0.004085,-40.369999,-0.68,8.37,2a
2019-07-15_141755:940,-0.49468999999999996,0.025908999999999998,-0.09353600000000001,-0.004396,-0.001995,0.0035659999999999997,-40.369999,-0.68,8.37,2a
2019-07-15_141755:960,-0.49517799999999995,0.026427999999999997,-0.094055,-0.0038469999999999997,-0.001934,0.003749,-40.369999,-0.68,8.37,2a
2019-07-15_141755:980,-0.49316400000000005,0.025421,-0.094055,-0.003145,-0.001782,0.003871,-40.369999,-0.68,7.68,2a
2019-07-15_141756:000,-0.49365200000000004,0.027435,-0.094055,-0.0028399999999999996,-0.0014759999999999999,0.003963,-40.369999,-0.68,7.68,2a
2019-07-15_141756:020,-0.49468999999999996,0.029480000000000003,-0.09353600000000001,-0.002687,-0.001446,0.004298,-40.369999,-1.37,7.68,2a
2019-07-15_141756:040,-0.494171,0.031006,-0.09353600000000001,-0.003114,-0.0014759999999999999,0.00442,-40.369999,-1.37,7.68,2a
2019-07-15_141756:060,-0.49111899999999997,0.029480000000000003,-0.095062,-0.003664,-0.001385,0.00381,-40.369999,-1.37,7.68,2a
2019-07-15_141756:080,-0.49111899999999997,0.028442000000000002,-0.096069,-0.004121,-0.00172,0.002742,-40.369999,-1.0,7.68,2a
2019-07-15_141756:100,-0.49111899999999997,0.028961,-0.096588,-0.00406,-0.001995,0.0027719999999999997,-40.369999,-1.0,7.68,2a
2019-07-15_141756:120,-0.49468999999999996,0.025908999999999998,-0.097595,-0.004121,-0.002117,0.003078,-40.75,-0.68,6.87,2a
2019-07-15_141756:140,-0.495697,0.025421,-0.096588,-0.003542,-0.002239,0.003078,-40.75,-0.68,6.87,2a
2019-07-15_141756:160,-0.496216,0.026427999999999997,-0.097595,-0.0028399999999999996,-0.001537,0.0033520000000000004,-40.75,-0.68,6.87,2a
2019-07-15_141756:180,-0.496704,0.027435,-0.097107,-0.0025039999999999997,-0.0007740000000000001,0.004024,-40.060001,-0.68,8.37,2a
2019-07-15_141756:200,-0.496216,0.027435,-0.095581,-0.0028399999999999996,-0.000225,0.0042369999999999994,-40.060001,-0.68,8.37,2a
2019-07-15_141756:220,-0.49316400000000005,0.028961,-0.095581,-0.003206,-0.00034700000000000003,0.004085,-40.75,-0.25,6.87,2a
2019-07-15_141756:240,-0.49316400000000005,0.026917,-0.095581,-0.003084,-0.000164,0.003749,-40.75,-0.25,6.87,2a
2019-07-15_141756:260,-0.492126,0.027954000000000003,-0.09454299999999999,-0.00345,-0.000439,0.0032909999999999997,-40.75,-0.25,6.87,2a
2019-07-15_141756:280,-0.49517799999999995,0.027435,-0.094055,-0.003542,5e-05,0.003749,-40.369999,-0.68,7.18,2a
2019-07-15_141756:300,-0.49316400000000005,0.026427999999999997,-0.09353600000000001,-0.0034799999999999996,0.00011100000000000001,0.003963,-40.369999,-0.68,7.18,2a
2019-07-15_141756:320,-0.492126,0.026427999999999997,-0.09353600000000001,-0.003786,1.9e-05,0.0036270000000000004,-40.75,-0.25,7.18,2a
2019-07-15_141756:340,-0.491638,0.026427999999999997,-0.094055,-0.0039380000000000005,-0.0005,0.0036880000000000003,-40.75,-0.25,7.18,2a
2019-07-15_141756:360,-0.490601,0.026427999999999997,-0.09353600000000001,-0.00406,-0.0008349999999999999,0.003505,-40.75,-0.25,7.18,2a
2019-07-15_141756:380,-0.49111899999999997,0.025421,-0.095062,-0.004243,-0.000958,0.003474,-40.369999,-0.68,8.87,2a
2019-07-15_141756:400,-0.49365200000000004,0.025421,-0.094055,-0.004243,-0.001202,0.0032909999999999997,-40.369999,-0.68,8.87,2a
2019-07-15_141756:420,-0.49517799999999995,0.023375999999999997,-0.095062,-0.0038770000000000002,-0.0007740000000000001,0.0032909999999999997,-40.75,-0.25,7.18,2a
2019-07-15_141756:440,-0.49517799999999995,0.024384,-0.095062,-0.003786,-0.0007440000000000001,0.0031079999999999997,-40.75,-0.25,7.18,2a
2019-07-15_141756:460,-0.494171,0.024902,-0.09353600000000001,-0.00345,-0.00034700000000000003,0.002955,-40.75,-0.25,7.18,2a
2019-07-15_141756:480,-0.494171,0.025908999999999998,-0.094055,-0.003114,-0.0007440000000000001,0.002955,-39.68,0.06,8.87,2a
2019-07-15_141756:500,-0.494171,0.025421,-0.09353600000000001,-0.003145,-0.000439,0.0031079999999999997,-39.68,0.06,8.87,2a
2019-07-15_141756:520,-0.49365200000000004,0.025908999999999998,-0.09353600000000001,-0.003114,-0.000286,0.00323,-40.75,-0.25,8.0,2a
2019-07-15_141756:540,-0.49316400000000005,0.025908999999999998,-0.09454299999999999,-0.003145,-0.0005610000000000001,0.0034130000000000002,-40.75,-0.25,8.0,2a
2019-07-15_141756:560,-0.491638,0.026427999999999997,-0.09454299999999999,-0.00345,-0.0005,0.003505,-40.75,-0.25,8.0,2a
2019-07-15_141756:580,-0.492126,0.025421,-0.09353600000000001,-0.003725,-0.000683,0.003505,-40.060001,0.37,7.68,2a
2019-07-15_141756:600,-0.49468999999999996,0.024902,-0.09149199999999999,-0.0038469999999999997,-0.0005610000000000001,0.003169,-40.060001,0.37,7.68,2a
2019-07-15_141756:620,-0.49468999999999996,0.023895,-0.09301799999999999,-0.003999,-0.0005610000000000001,0.0027719999999999997,-41.060001,-0.25,6.37,2a
2019-07-15_141756:640,-0.49517799999999995,0.024384,-0.09353600000000001,-0.003725,-0.000439,0.0027719999999999997,-41.060001,-0.25,6.37,2a
2019-07-15_141756:660,-0.496216,0.023895,-0.09301799999999999,-0.00345,-0.00034700000000000003,0.002742,-41.060001,-0.25,6.37,2a
2019-07-15_141756:680,-0.49517799999999995,0.024384,-0.09353600000000001,-0.003206,-0.000225,0.0027719999999999997,-40.369999,-0.25,8.87,2a
2019-07-15_141756:700,-0.494171,0.023375999999999997,-0.09201000000000001,-0.002779,-4.2e-05,0.003078,-40.369999,-0.25,8.87,2a
2019-07-15_141756:720,-0.49468999999999996,0.025908999999999998,-0.09201000000000001,-0.002779,-0.000103,0.003016,-40.369999,-0.25,8.0,2a
2019-07-15_141756:740,-0.496216,0.026917,-0.089478,-0.002779,0.00011100000000000001,0.0031079999999999997,-40.369999,-0.25,8.0,2a
2019-07-15_141756:760,-0.49468999999999996,0.026427999999999997,-0.091003,-0.0028399999999999996,1.9e-05,0.0035659999999999997,-40.369999,-0.25,8.0,2a
2019-07-15_141756:780,-0.492126,0.025908999999999998,-0.091003,-0.0033280000000000002,-0.00037799999999999997,0.003078,-40.060001,-0.25,8.0,2a
2019-07-15_141756:800,-0.491638,0.024902,-0.08996599999999999,-0.003542,-0.0008349999999999999,0.0021920000000000004,-40.060001,-0.25,8.0,2a
2019-07-15_141756:820,-0.492126,0.023895,-0.092529,-0.0032670000000000004,-0.001019,0.00207,-40.369999,-0.25,8.0,2a
2019-07-15_141756:840,-0.492126,0.024902,-0.092529,-0.003084,-0.001202,0.0021920000000000004,-40.369999,-0.25,8.0,2a
2019-07-15_141756:860,-0.49365200000000004,0.025421,-0.09301799999999999,-0.003023,-0.001385,0.002376,-40.369999,-0.25,8.0,2a
2019-07-15_141756:880,-0.49517799999999995,0.025421,-0.092529,-0.002687,-0.001202,0.0025280000000000003,-40.369999,0.06,6.5,2a
2019-07-15_141756:900,-0.495697,0.027435,-0.08996599999999999,-0.002382,-0.000897,0.003016,-40.369999,0.06,6.5,2a
2019-07-15_141756:920,-0.49517799999999995,0.026917,-0.091003,-0.00229,-0.000439,0.0033520000000000004,-40.369999,-0.25,7.18,2a
2019-07-15_141756:940,-0.495697,0.027954000000000003,-0.090485,-0.0029010000000000004,1.9e-05,0.0032909999999999997,-40.369999,-0.25,7.18,2a
2019-07-15_141756:960,-0.49468999999999996,0.027435,-0.092529,-0.003145,-0.000103,0.003169,-40.369999,-0.25,7.18,2a
2019-07-15_141756:980,-0.49365200000000004,0.025908999999999998,-0.091003,-0.0033280000000000002,-0.00034700000000000003,0.003016,-40.75,0.06,8.0,2a
2019-07-15_141757:000,-0.494171,0.026427999999999997,-0.08996599999999999,-0.0034799999999999996,-0.00037799999999999997,0.003016,-40.75,0.06,8.0,2a
2019-07-15_141757:020,-0.49468999999999996,0.025421,-0.08996599999999999,-0.003389,-0.000225,0.003749,-40.060001,-0.25,8.0,2a
2019-07-15_141757:040,-0.49111899999999997,0.023895,-0.08996599999999999,-0.0034799999999999996,-0.00034700000000000003,0.00323,-40.060001,-0.25,8.0,2a
2019-07-15_141757:060,-0.490112,0.024902,-0.091003,-0.0033280000000000002,-0.001263,0.002589,-40.060001,-0.25,8.0,2a
2019-07-15_141757:080,-0.492126,0.025421,-0.091003,-0.003206,-0.001202,0.002742,-40.060001,-0.25,7.68,2a
2019-07-15_141757:100,-0.491638,0.024902,-0.091003,-0.002748,-0.001537,0.003078,-40.060001,-0.25,7.68,2a
2019-07-15_141757:120,-0.49365200000000004,0.024384,-0.09201000000000001,-0.002565,-0.001263,0.00323,-39.68,0.06,7.68,2a
2019-07-15_141757:140,-0.492645,0.024902,-0.09301799999999999,-0.002229,-0.001598,0.0036880000000000003,-39.68,0.06,7.68,2a
2019-07-15_141757:160,-0.49365200000000004,0.025908999999999998,-0.09201000000000001,-0.002443,-0.001598,0.0035659999999999997,-39.68,0.06,7.68,2a
2019-07-15_141757:180,-0.495697,0.025908999999999998,-0.092529,-0.002382,-0.0014759999999999999,0.003474,-39.68,-0.25,9.18,2a
2019-07-15_141757:200,-0.495697,0.024384,-0.090485,-0.0028399999999999996,-0.001782,0.003169,-39.68,-0.25,9.18,2a
2019-07-15_141757:220,-0.496216,0.026427999999999997,-0.092529,-0.0029010000000000004,-0.001324,0.003016,-41.5,-0.25,7.68,2a
2019-07-15_141757:240,-0.495697,0.025421,-0.09201000000000001,-0.003145,-0.001141,0.003016,-41.5,-0.25,7.68,2a
2019-07-15_141757:260,-0.494171,0.024902,-0.08996599999999999,-0.003542,-0.0007440000000000001,0.0031079999999999997,-41.5,-0.25,7.68,2a
2019-07-15_141757:280,-0.492126,0.025908999999999998,-0.091003,-0.003664,-0.0008349999999999999,0.0033520000000000004,-40.060001,-0.68,6.87,2a
2019-07-15_141757:300,-0.491638,0.024384,-0.09149199999999999,-0.00406,-0.000897,0.003505,-40.060001,-0.68,6.87,2a
2019-07-15_141757:320,-0.490112,0.022369,-0.09201000000000001,-0.00406,-0.001141,0.003474,-40.75,0.06,7.68,2a
2019-07-15_141757:340,-0.49111899999999997,0.020844,-0.09201000000000001,-0.003725,-0.001202,0.0031079999999999997,-40.75,0.06,7.68,2a
2019-07-15_141757:360,-0.492126,0.021851,-0.09201000000000001,-0.00345,-0.001934,0.0028940000000000003,-40.75,0.06,7.68,2a
2019-07-15_141757:380,-0.494171,0.020844,-0.092529,-0.0029620000000000002,-0.00227,0.00265,-40.75,-0.25,6.87,2a
2019-07-15_141757:400,-0.49468999999999996,0.023375999999999997,-0.092529,-0.002687,-0.0023309999999999997,0.002467,-40.75,-0.25,6.87,2a
2019-07-15_141757:420,-0.494171,0.023375999999999997,-0.094055,-0.002046,-0.0020559999999999997,0.002376,-40.75,-0.25,6.87,2a
2019-07-15_141757:440,-0.496216,0.025908999999999998,-0.09353600000000001,-0.002046,-0.0020559999999999997,0.0027719999999999997,-40.060001,-0.25,8.37,2a
2019-07-15_141757:460,-0.49722299999999997,0.026917,-0.09353600000000001,-0.002382,-0.00172,0.002955,-40.060001,-0.25,8.37,2a
2019-07-15_141757:480,-0.49517799999999995,0.028442000000000002,-0.094055,-0.0029010000000000004,-0.001263,0.0036270000000000004,-40.369999,0.37,8.37,2a
2019-07-15_141757:500,-0.49111899999999997,0.024384,-0.094055,-0.0038469999999999997,-0.001385,0.0033520000000000004,-40.369999,0.37,8.37,2a
2019-07-15_141757:520,-0.490601,0.024384,-0.094055,-0.004182,-0.0014759999999999999,0.002131,-40.369999,0.37,8.37,2a
2019-07-15_141757:540,-0.492126,0.021332,-0.095062,-0.004518,-0.001782,0.001277,-40.060001,0.37,8.37,2a
2019-07-15_141757:560,-0.49316400000000005,0.021851,-0.095062,-0.003999,-0.0024530000000000003,0.001399,-40.060001,0.37,8.37,2a
2019-07-15_141757:580,-0.49517799999999995,0.020844,-0.097107,-0.003114,-0.002514,0.001582,-39.68,-0.25,7.68,2a
2019-07-15_141757:600,-0.496216,0.020844,-0.095062,-0.002107,-0.0020559999999999997,0.001796,-39.68,-0.25,7.68,2a
2019-07-15_141757:620,-0.495697,0.024902,-0.096069,-0.001253,-0.00172,0.0024059999999999997,-39.68,-0.25,7.68,2a
2019-07-15_141757:640,-0.495697,0.026427999999999997,-0.095062,-0.001161,-0.001324,0.0028940000000000003,-41.5,0.06,8.37,2a
2019-07-15_141757:660,-0.49468999999999996,0.028442000000000002,-0.095062,-0.0018329999999999998,-0.001324,0.0027719999999999997,-41.5,0.06,8.37,2a
2019-07-15_141757:680,-0.49365200000000004,0.028961,-0.096069,-0.002382,-0.0008349999999999999,0.002467,-40.369999,0.06,6.87,2a
2019-07-15_141757:700,-0.49468999999999996,0.028442000000000002,-0.09353600000000001,-0.0029010000000000004,-0.000958,0.0021920000000000004,-40.369999,0.06,6.87,2a
2019-07-15_141757:720,-0.495697,0.026427999999999997,-0.094055,-0.00345,-0.001263,0.002254,-40.369999,0.06,6.87,2a
2019-07-15_141757:740,-0.49365200000000004,0.025421,-0.09353600000000001,-0.00345,-0.000958,0.002589,-40.060001,-0.25,7.18,2a
2019-07-15_141757:760,-0.491638,0.024902,-0.094055,-0.0034799999999999996,-0.000897,0.0025280000000000003,-40.060001,-0.25,7.18,2a
2019-07-15_141757:780,-0.49111899999999997,0.024384,-0.095062,-0.003206,-0.001202,0.00207,-40.060001,0.06,7.18,2a
2019-07-15_141757:800,-0.491638,0.024902,-0.09454299999999999,-0.003084,-0.001598,0.001918,-40.060001,0.06,7.18,2a
2019-07-15_141757:820,-0.49365200000000004,0.027435,-0.096069,-0.0028399999999999996,-0.00172,0.00207,-40.060001,0.06,7.18,2a
2019-07-15_141757:840,-0.49316400000000005,0.026917,-0.097107,-0.002687,-0.0016589999999999999,0.0021920000000000004,-41.060001,-0.25,7.18,2a
2019-07-15_141757:860,-0.49365200000000004,0.027435,-0.097107,-0.002687,-0.001598,0.0024059999999999997,-41.060001,-0.25,7.18,2a
2019-07-15_141757:880,-0.49517799999999995,0.027435,-0.097107,-0.002748,-0.0011099999999999999,0.0024059999999999997,-40.369999,0.06,6.37,2a
2019-07-15_141757:900,-0.49468999999999996,0.028961,-0.096069,-0.0028399999999999996,-0.000958,0.002467,-40.369999,0.06,6.37,2a
2019-07-15_141757:920,-0.494171,0.027435,-0.097595,-0.003023,-0.001019,0.0025280000000000003,-40.369999,0.06,6.37,2a
2019-07-15_141757:940,-0.494171,0.028442000000000002,-0.096588,-0.003114,-0.0008349999999999999,0.002589,-40.369999,-0.25,7.18,2a
2019-07-15_141757:960,-0.49316400000000005,0.027435,-0.096588,-0.003206,-0.0007440000000000001,0.0027719999999999997,-40.369999,-0.25,7.18,2a
2019-07-15_141757:980,-0.492645,0.026917,-0.096588,-0.003084,-0.0005610000000000001,0.003078,-40.060001,-0.25,7.18,2a
2019-07-15_141758:000,-0.492645,0.027954000000000003,-0.096069,-0.003145,-0.0005,0.00323,-40.060001,-0.25,7.18,2a
2019-07-15_141758:020,-0.492645,0.027435,-0.096588,-0.0032670000000000004,-0.0006219999999999999,0.0031079999999999997,-40.060001,-0.25,7.18,2a
2019-07-15_141758:040,-0.49316400000000005,0.025908999999999998,-0.095581,-0.0034799999999999996,-0.0006219999999999999,0.002955,-40.75,-0.68,6.87,2a
2019-07-15_141758:060,-0.49316400000000005,0.025421,-0.096069,-0.003389,-0.0007740000000000001,0.0027719999999999997,-40.75,-0.68,6.87,2a
2019-07-15_141758:080,-0.491638,0.025421,-0.095581,-0.00345,-0.0007440000000000001,0.0028940000000000003,-40.75,-0.25,8.0,2a
2019-07-15_141758:100,-0.49468999999999996,0.025421,-0.095581,-0.0033280000000000002,-0.0006219999999999999,0.002711,-40.75,-0.25,8.0,2a
2019-07-15_141758:120,-0.49468999999999996,0.025421,-0.094055,-0.003084,-0.0007440000000000001,0.002742,-40.75,-0.25,8.0,2a
2019-07-15_141758:140,-0.49316400000000005,0.026917,-0.095062,-0.002779,-0.000958,0.002711,-39.68,0.06,6.37,2a
2019-07-15_141758:160,-0.49316400000000005,0.026917,-0.09454299999999999,-0.002382,-0.000439,0.0028940000000000003,-39.68,0.06,6.37,2a
2019-07-15_141758:180,-0.496216,0.026917,-0.09454299999999999,-0.0029620000000000002,-0.0006219999999999999,0.0032909999999999997,-40.75,-0.68,6.37,2a
2019-07-15_141758:200,-0.49365200000000004,0.029968,-0.09301799999999999,-0.003084,-0.000439,0.003749,-40.75,-0.68,6.37,2a
2019-07-15_141758:220,-0.490112,0.027435,-0.09353600000000001,-0.0039380000000000005,-0.000958,0.0032909999999999997,-40.75,-0.68,6.37,2a
2019-07-15_141758:240,-0.489075,0.024902,-0.094055,-0.004182,-0.00108,0.00207,-40.75,0.06,7.18,2a
2019-07-15_141758:260,-0.489594,0.023375999999999997,-0.094055,-0.0039380000000000005,-0.0014759999999999999,0.001399,-40.75,0.06,7.18,2a
2019-07-15_141758:280,-0.490601,0.021851,-0.095062,-0.003206,-0.001873,0.001521,-40.369999,-0.25,7.18,2a
2019-07-15_141758:300,-0.49316400000000005,0.023375999999999997,-0.096069,-0.0026260000000000003,-0.002239,0.00146,-40.369999,-0.25,7.18,2a
2019-07-15_141758:320,-0.49517799999999995,0.025421,-0.096588,-0.0016489999999999999,-0.001843,0.001857,-40.369999,-0.25,7.18,2a
2019-07-15_141758:340,-0.496704,0.028961,-0.095581,-0.001253,-0.001446,0.00265,-39.68,-0.25,8.37,2a
2019-07-15_141758:360,-0.496704,0.031006,-0.096069,-0.0016190000000000002,-0.000958,0.0033520000000000004,-39.68,-0.25,8.37,2a
2019-07-15_141758:380,-0.49468999999999996,0.031006,-0.095062,-0.002565,-0.0005610000000000001,0.003474,-40.75,0.06,7.68,2a
2019-07-15_141758:400,-0.492126,0.028961,-0.09454299999999999,-0.00345,-0.0007740000000000001,0.002955,-40.75,0.06,7.68,2a
2019-07-15_141758:420,-0.492645,0.028442000000000002,-0.09454299999999999,-0.0039380000000000005,-0.0006219999999999999,0.002589,-40.75,0.06,7.68,2a
2019-07-15_141758:440,-0.49365200000000004,0.026917,-0.09454299999999999,-0.003999,-0.000897,0.002711,-40.75,-1.0,8.37,2a
2019-07-15_141758:460,-0.49111899999999997,0.025908999999999998,-0.09454299999999999,-0.0039380000000000005,-0.001202,0.003078,-40.75,-1.0,8.37,2a
2019-07-15_141758:480,-0.490601,0.025421,-0.094055,-0.00345,-0.001263,0.002955,-40.369999,-1.0,7.68,2a
2019-07-15_141758:500,-0.492126,0.025421,-0.09353600000000001,-0.0029620000000000002,-0.0014759999999999999,0.002833,-40.369999,-1.0,7.68,2a
2019-07-15_141758:520,-0.49111899999999997,0.025908999999999998,-0.096588,-0.0026260000000000003,-0.001873,0.0028940000000000003,-40.369999,-1.0,7.68,2a
2019-07-15_141758:540,-0.491638,0.026427999999999997,-0.096588,-0.0029620000000000002,-0.0021780000000000002,0.002589,-40.369999,-0.68,6.87,2a
2019-07-15_141758:560,-0.494171,0.027954000000000003,-0.096588,-0.002779,-0.002239,0.001979,-40.369999,-0.68,6.87,2a
2019-07-15_141758:580,-0.49517799999999995,0.027435,-0.097107,-0.002748,-0.002117,0.001918,-41.5,-0.68,7.18,2a
2019-07-15_141758:600,-0.49468999999999996,0.028442000000000002,-0.096588,-0.002748,-0.0016589999999999999,0.001674,-41.5,-0.68,7.18,2a
2019-07-15_141758:620,-0.49365200000000004,0.027954000000000003,-0.097595,-0.002687,-0.001782,0.001796,-41.5,-0.68,7.18,2a
2019-07-15_141758:640,-0.49365200000000004,0.027954000000000003,-0.098633,-0.0025039999999999997,-0.001537,0.001979,-40.369999,-1.37,6.87,2a
2019-07-15_141758:660,-0.49365200000000004,0.029480000000000003,-0.097595,-0.002443,-0.001598,0.002589,-40.369999,-1.37,6.87,2a
2019-07-15_141758:680,-0.492126,0.029968,-0.098633,-0.0026260000000000003,-0.00172,0.0031079999999999997,-41.060001,-0.68,5.68,2a
2019-07-15_141758:700,-0.492645,0.029480000000000003,-0.09811399999999999,-0.003145,-0.001598,0.0034130000000000002,-41.060001,-0.68,5.68,2a
2019-07-15_141758:720,-0.49365200000000004,0.028961,-0.098633,-0.003389,-0.001537,0.003505,-41.060001,-0.68,5.68,2a
2019-07-15_141758:740,-0.491638,0.027954000000000003,-0.09811399999999999,-0.003542,-0.0014759999999999999,0.00323,-40.75,0.37,7.68,2a
2019-07-15_141758:760,-0.492645,0.028442000000000002,-0.098633,-0.0038469999999999997,-0.001537,0.0034130000000000002,-40.75,0.37,7.68,2a
2019-07-15_141758:780,-0.492645,0.027435,-0.09811399999999999,-0.0039380000000000005,-0.001598,0.0032909999999999997,-41.060001,0.37,6.87,2a
2019-07-15_141758:800,-0.492126,0.026427999999999997,-0.09811399999999999,-0.003999,-0.001141,0.00323,-41.060001,0.37,6.87,2a
2019-07-15_141758:820,-0.491638,0.025421,-0.099121,-0.003999,-0.001446,0.002955,-41.060001,0.37,6.87,2a
2019-07-15_141758:840,-0.492126,0.025421,-0.098633,-0.003664,-0.001385,0.0028940000000000003,-40.369999,0.06,6.37,2a
2019-07-15_141758:860,-0.492126,0.025421,-0.099121,-0.0032670000000000004,-0.001537,0.0027719999999999997,-40.369999,0.06,6.37,2a
2019-07-15_141758:880,-0.49316400000000005,0.025908999999999998,-0.099121,-0.002779,-0.001537,0.0021920000000000004,-40.369999,-1.0,7.18,2a
2019-07-15_141758:900,-0.494171,0.025908999999999998,-0.098633,-0.0023510000000000002,-0.001446,0.0025280000000000003,-40.369999,-1.0,7.18,2a
2019-07-15_141758:920,-0.495697,0.027954000000000003,-0.09811399999999999,-0.002107,-0.00108,0.002833,-40.369999,-1.0,7.18,2a
2019-07-15_141758:940,-0.49517799999999995,0.029968,-0.097107,-0.002229,-0.0006219999999999999,0.0031079999999999997,-40.75,0.06,6.5,2a
2019-07-15_141758:960,-0.49365200000000004,0.031494,-0.098633,-0.0029620000000000002,-0.000439,0.0034130000000000002,-40.75,0.06,6.5,2a
2019-07-15_141758:980,-0.489594,0.029480000000000003,-0.09811399999999999,-0.0034799999999999996,-0.000683,0.003016,-40.060001,0.06,7.68,2a
2019-07-15_141759:000,-0.490112,0.027954000000000003,-0.098633,-0.0038469999999999997,-0.0006219999999999999,0.001796,-40.060001,0.06,7.68,2a
2019-07-15_141759:020,-0.490601,0.027435,-0.100159,-0.0039380000000000005,-0.0014759999999999999,0.0017350000000000002,-40.060001,0.06,7.68,2a
2019-07-15_141759:040,-0.491638,0.026917,-0.100647,-0.003786,-0.001782,0.00207,-40.369999,-0.25,8.0,2a
2019-07-15_141759:060,-0.49468999999999996,0.025908999999999998,-0.10116599999999999,-0.003145,-0.001598,0.002254,-40.369999,-0.25,8.0,2a
2019-07-15_141759:080,-0.49517799999999995,0.026917,-0.100647,-0.002382,-0.001019,0.00265,-41.060001,-0.68,7.18,2a
2019-07-15_141759:100,-0.496704,0.030487,-0.099121,-0.002046,-0.000439,0.0033520000000000004,-41.060001,-0.68,7.18,2a
2019-07-15_141759:120,-0.49468999999999996,0.031494,-0.09963999999999999,-0.002168,-0.000225,0.0035659999999999997,-41.060001,-0.68,7.18,2a
2019-07-15_141759:140,-0.494171,0.031006,-0.099121,-0.002565,1.9e-05,0.0032909999999999997,-40.75,-1.37,8.0,2a
