timestamp,AccX,AccY,AccZ,GyroX,GyroY,GyroZ,MagX,MagY,MagZ,Activity
2019-07-15_172004:880,-0.39859,-0.076752,-0.491638,-0.006379999999999999,-0.0007440000000000001,0.015956,-36.25,-6.06,-34.060001,3a
2019-07-15_172004:900,-0.41586300000000004,-0.12658699999999998,-0.522125,-0.009096,-0.004894,0.024592,-29.75,-5.25,-33.0,3a
2019-07-15_172004:920,-0.48196400000000006,-0.142334,-0.535858,-0.006441,-0.00346,0.016687999999999998,-29.75,-5.25,-33.0,3a
2019-07-15_172004:940,-0.50943,-0.114899,-0.541443,-0.007448000000000001,0.006458,0.005672,-30.059998999999998,-6.06,-34.5,3a
2019-07-15_172004:960,-0.503326,-0.124054,-0.536377,-0.010713,0.019215,0.009456,-30.059998999999998,-6.06,-34.5,3a
2019-07-15_172004:980,-0.462128,-0.137756,-0.517548,-0.011231999999999999,0.032368,0.014033000000000002,-30.059998999999998,-6.06,-34.5,3a
2019-07-15_172005:000,-0.385376,-0.143372,-0.48043800000000003,-0.01169,0.037952,0.01031,-30.5,-5.25,-32.560001,3a
2019-07-15_172005:020,-0.34875500000000004,-0.149475,-0.45095799999999997,-0.012575,0.036610000000000004,0.004695,-30.5,-5.25,-32.560001,3a
2019-07-15_172005:040,-0.35180700000000004,-0.151001,-0.431122,-0.012086,0.033770999999999995,0.000667,-32.0,-5.0,-32.060001,3a
2019-07-15_172005:060,-0.355896,-0.148956,-0.406219,-0.009553,0.032032,-0.000401,-32.0,-5.0,-32.060001,3a
2019-07-15_172005:080,-0.309601,-0.133698,-0.380798,-0.009584,0.030506000000000002,0.00020899999999999998,-32.0,-5.0,-32.060001,3a
2019-07-15_172005:100,-0.311646,-0.122528,-0.359955,-0.012025,0.023334,0.0012460000000000001,-33.369999,-5.68,-31.0,3a
2019-07-15_172005:120,-0.335541,-0.12658699999999998,-0.377747,-0.017061,0.021595,0.002315,-33.369999,-5.68,-31.0,3a
2019-07-15_172005:140,-0.352844,-0.128113,-0.386902,-0.022522999999999998,0.026386,0.000484,-34.060001,-6.75,-29.75,3a
2019-07-15_172005:160,-0.325378,-0.102173,-0.36044299999999996,-0.029085000000000003,0.031238,-0.0023239999999999997,-34.060001,-6.75,-29.75,3a
2019-07-15_172005:180,-0.315704,-0.074738,-0.326904,-0.036836,0.032551,-0.000737,-34.060001,-6.75,-29.75,3a
2019-07-15_172005:200,-0.30654899999999996,-0.031006,-0.283173,-0.047609,0.032702999999999996,0.004695,-35.18,-6.75,-30.559998999999998,3a
2019-07-15_172005:220,-0.300964,-0.016753999999999998,-0.279114,-0.060396000000000005,0.031116,0.013576,-35.18,-6.75,-30.559998999999998,3a
2019-07-15_172005:240,-0.35739099999999996,-0.005065999999999999,-0.29995700000000003,-0.074098,0.034016000000000005,0.02505,-37.060001,-8.68,-27.75,3a
2019-07-15_172005:260,-0.364532,-0.009125,-0.312164,-0.08569500000000001,0.040729,0.033229,-37.060001,-8.68,-27.75,3a
2019-07-15_172005:280,-0.31012,0.017273,-0.28775,-0.10016,0.046162,0.034205,-37.060001,-8.68,-27.75,3a
2019-07-15_172005:300,-0.335022,0.066589,-0.286224,-0.115053,0.045429000000000004,0.04098,-36.68,-9.25,-26.18,3a
2019-07-15_172005:320,-0.365021,0.0737,-0.28064,-0.13907,0.048634,0.053676,-36.68,-9.25,-26.18,3a
2019-07-15_172005:340,-0.353851,0.040649,-0.293335,-0.164278,0.057116999999999994,0.058314,-38.869999,-10.75,-25.0,3a
2019-07-15_172005:360,-0.34875500000000004,0.011169,-0.304535,-0.186586,0.062946,0.05413300000000001,-38.869999,-10.75,-25.0,3a
2019-07-15_172005:380,-0.322845,-0.013213999999999998,-0.285217,-0.195955,0.06609,0.053523,-38.869999,-10.75,-25.0,3a
2019-07-15_172005:400,-0.326904,-0.015228,-0.274017,-0.199647,0.063282,0.05474400000000001,-41.060001,-11.87,-18.25,3a
2019-07-15_172005:420,-0.349792,-0.020325,-0.263336,-0.200716,0.056507,0.051477999999999996,-41.060001,-11.87,-18.25,3a
2019-07-15_172005:440,-0.358429,-0.051849,-0.22879000000000002,-0.202852,0.045489999999999996,0.046443,-42.18,-13.0,-15.18,3a
2019-07-15_172005:460,-0.361481,-0.056427,-0.22216799999999998,-0.199525,0.033436,0.049158999999999994,-42.18,-13.0,-15.18,3a
2019-07-15_172005:480,-0.329437,-0.047272,-0.201324,-0.188722,0.025256999999999998,0.061366,-42.18,-13.0,-15.18,3a
2019-07-15_172005:500,-0.32995599999999997,-0.05996699999999999,-0.19927999999999998,-0.178896,0.016163,0.071315,-43.68,-13.37,-10.5,3a
2019-07-15_172005:520,-0.412811,-0.073212,-0.224701,-0.173463,0.008533,0.070674,-43.68,-13.37,-10.5,3a
2019-07-15_172005:540,-0.444855,-0.094055,-0.233337,-0.166414,0.00713,0.06875099999999999,-45.18,-12.37,-6.18,3a
2019-07-15_172005:560,-0.421967,-0.110321,-0.219635,-0.155397,0.0060609999999999995,0.064876,-45.18,-12.37,-6.18,3a
2019-07-15_172005:580,-0.45553599999999994,-0.13623,-0.21859699999999999,-0.14495999999999998,0.006,0.05984,-45.18,-12.37,-6.18,3a
2019-07-15_172005:600,-0.45907600000000004,-0.131165,-0.204376,-0.13022,0.00835,0.056514,-46.369999,-9.37,-5.06,3a
2019-07-15_172005:620,-0.466217,-0.137756,-0.21810900000000003,-0.11856199999999999,0.009387999999999999,0.055841999999999996,-46.369999,-9.37,-5.06,3a
2019-07-15_172005:640,-0.444855,-0.13269,-0.20486500000000002,-0.107606,0.010242,0.051936,-46.75,-8.06,-4.18,3a
2019-07-15_172005:660,-0.44995100000000005,-0.132172,-0.192169,-0.099702,0.006947,0.0451,-46.75,-8.06,-4.18,3a
2019-07-15_172005:680,-0.430634,-0.127594,-0.190643,-0.092409,0.005268,0.039912,-46.75,-8.06,-4.18,3a
2019-07-15_172005:700,-0.423492,-0.12149000000000001,-0.19165,-0.082582,0.002827,0.039668,-46.0,-6.18,-2.56,3a
2019-07-15_172005:720,-0.42605600000000005,-0.113373,-0.197266,-0.072542,0.001362,0.03921,-46.0,-6.18,-2.56,3a
2019-07-15_172005:740,-0.420441,-0.10775799999999999,-0.198792,-0.063814,0.000843,0.035608999999999995,-46.369999,-3.56,-1.87,3a
2019-07-15_172005:760,-0.40976,-0.08743300000000001,-0.185547,-0.055086,0.001545,0.031947,-46.369999,-3.56,-1.87,3a
2019-07-15_172005:780,-0.41995200000000005,-0.072174,-0.176422,-0.048463,0.001423,0.030452,-46.369999,-3.56,-1.87,3a
2019-07-15_172005:800,-0.411285,-0.056915,-0.171844,-0.045473,-0.0007740000000000001,0.031154,-46.369999,-2.87,-1.25,3a
2019-07-15_172005:820,-0.40368699999999996,-0.050842,-0.17690999999999998,-0.046205,-0.006451,0.035274,-46.369999,-2.87,-1.25,3a
2019-07-15_172005:840,-0.437225,-0.057953,-0.20080599999999998,-0.04825,-0.01646,0.039606999999999996,-47.060001,-1.75,-1.25,3a
2019-07-15_172005:860,-0.431641,-0.058960000000000005,-0.200317,-0.049867,-0.024365,0.03921,-47.060001,-1.75,-1.25,3a
2019-07-15_172005:880,-0.447388,-0.06149299999999999,-0.206909,-0.051454,-0.029522000000000003,0.033748,-47.060001,-1.75,-1.25,3a
2019-07-15_172005:900,-0.5404359999999999,-0.068634,-0.196747,-0.051179,-0.029919,0.028255000000000002,-47.060001,-0.25,-1.75,3a
2019-07-15_172005:920,-0.528748,-0.069122,-0.20843499999999998,-0.049318,-0.018383,0.024013,-47.060001,-0.25,-1.75,3a
2019-07-15_172005:940,-0.528229,-0.069122,-0.245056,-0.045351,-0.004589,0.020747,-46.75,1.06,-2.87,3a
2019-07-15_172005:960,-0.517548,-0.065582,-0.24096700000000001,-0.040498,0.00713,0.019343,-46.75,1.06,-2.87,3a
2019-07-15_172005:980,-0.489075,-0.06149299999999999,-0.220123,-0.035066,0.017506,0.017238,-46.75,1.06,-2.87,3a
2019-07-15_172006:000,-0.47332799999999997,-0.055389,-0.20080599999999998,-0.029695,0.023944999999999998,0.015253999999999998,-46.060001,1.5,-2.87,3a
2019-07-15_172006:020,-0.47079499999999996,-0.047791,-0.189117,-0.024628999999999998,0.027576,0.013576,-46.060001,1.5,-2.87,3a
2019-07-15_172006:040,-0.503845,-0.042694,-0.200317,-0.02112,0.03075,0.013179,-46.869999,2.56,-2.5,3a
2019-07-15_172006:060,-0.49468999999999996,-0.037598,-0.204376,-0.017549000000000002,0.037006,0.012782,-46.869999,2.56,-2.5,3a
2019-07-15_172006:080,-0.45654300000000003,-0.032532,-0.190643,-0.01523,0.039936,0.011836,-46.869999,2.56,-2.5,3a
2019-07-15_172006:100,-0.447906,-0.030487,-0.17843599999999998,-0.013155000000000002,0.038593,0.011043,-46.869999,3.0,-1.25,3a
2019-07-15_172006:120,-0.43670699999999996,-0.026917,-0.154541,-0.01169,0.034412,0.009913,-46.869999,3.0,-1.25,3a
2019-07-15_172006:140,-0.432648,-0.024902,-0.139282,-0.010376999999999999,0.029162999999999998,0.009395,-47.25,3.25,0.68,3a
2019-07-15_172006:160,-0.42453,-0.024902,-0.13269,-0.009767,0.022602,0.009395,-47.25,3.25,0.68,3a
2019-07-15_172006:180,-0.412811,-0.026917,-0.12200899999999999,-0.009309,0.014575999999999999,0.008815,-47.25,3.25,0.68,3a
2019-07-15_172006:200,-0.414337,-0.024384,-0.12200899999999999,-0.008974,0.005665,0.0074719999999999995,-46.060001,4.75,2.18,3a
2019-07-15_172006:220,-0.40011599999999997,-0.022369,-0.127106,-0.009096,-0.0053219999999999995,0.006282,-46.060001,4.75,2.18,3a
2019-07-15_172006:240,-0.382812,-0.023375999999999997,-0.130127,-0.009553,-0.017468,0.006129,-47.560001,4.25,1.37,3a
2019-07-15_172006:260,-0.374176,-0.023375999999999997,-0.138794,-0.010561,-0.030987,0.005214,-47.560001,4.25,1.37,3a
2019-07-15_172006:280,-0.367584,-0.023375999999999997,-0.157074,-0.011293000000000001,-0.045544,0.00442,-47.560001,4.25,1.37,3a
2019-07-15_172006:300,-0.37265,-0.024902,-0.160645,-0.012483,-0.05991799999999999,0.004207,-46.5,4.25,1.87,3a
2019-07-15_172006:320,-0.41485600000000006,-0.025421,-0.17843599999999998,-0.013094,-0.070965,0.0035659999999999997,-46.5,4.25,1.87,3a
2019-07-15_172006:340,-0.426544,-0.026917,-0.188599,-0.012422,-0.076519,0.001399,-47.869999,4.68,-1.25,3a
2019-07-15_172006:360,-0.475372,-0.024384,-0.239441,-0.011293000000000001,-0.07548099999999999,0.001338,-47.869999,4.68,-1.25,3a
2019-07-15_172006:380,-0.485016,-0.022369,-0.248108,-0.00818,-0.06644800000000001,0.005,-47.869999,4.68,-1.25,3a
2019-07-15_172006:400,-0.488068,-0.021851,-0.263336,-0.006197,-0.057537,0.0051530000000000005,-47.25,4.06,-4.87,3a
2019-07-15_172006:420,-0.477905,-0.022369,-0.263336,-0.005464,-0.049847,0.001979,-47.25,4.06,-4.87,3a
2019-07-15_172006:440,-0.470276,-0.022369,-0.271484,-0.004274,-0.041210000000000004,-0.001042,-46.869999,3.68,-7.56,3a
2019-07-15_172006:460,-0.462128,-0.022369,-0.275543,-0.00345,-0.036358,-0.000798,-46.869999,3.68,-7.56,3a
2019-07-15_172006:480,-0.449432,-0.015228,-0.29232800000000003,-0.003114,-0.033123,0.001582,-46.869999,3.68,-7.56,3a
2019-07-15_172006:500,-0.467224,-0.016266,-0.302002,-0.003084,-0.02766,0.002131,-46.060001,4.06,-9.25,3a
2019-07-15_172006:520,-0.46417200000000003,-0.016753999999999998,-0.302002,-0.0029620000000000002,-0.021313,8.7e-05,-46.060001,4.06,-9.25,3a
2019-07-15_172006:540,-0.445374,-0.015228,-0.296906,-0.003114,-0.018658,-0.000798,-36.25,3.68,-9.56,3a
2019-07-15_172006:560,-0.429108,-0.015228,-0.293335,-0.002382,-0.012859,-0.002843,-36.25,3.68,-9.56,3a
2019-07-15_172006:580,-0.430634,-0.015228,-0.298431,-0.0017100000000000001,-0.010296,-0.00446,-36.25,3.68,-9.56,3a
2019-07-15_172006:600,-0.451477,-0.015747,-0.307068,-0.000459,-0.005383,-0.004369,-46.0,3.68,-10.06,3a
2019-07-15_172006:620,-0.443329,-0.011169,-0.29995700000000003,0.000304,0.00038500000000000003,-0.001714,-46.0,3.68,-10.06,3a
2019-07-15_172006:640,-0.421967,-0.012695,-0.293854,0.000426,0.0027660000000000002,0.000148,-46.560001,3.68,-10.06,3a
2019-07-15_172006:660,-0.411285,-0.014221000000000001,-0.28979499999999997,0.000273,0.0032840000000000005,0.00020899999999999998,-46.560001,3.68,-10.06,3a
2019-07-15_172006:680,-0.40570100000000003,-0.013213999999999998,-0.279633,0.000884,0.002216,-0.000676,-46.560001,3.68,-10.06,3a
2019-07-15_172006:700,-0.404175,-0.015747,-0.279114,0.001006,0.0005679999999999999,-0.002507,-45.5,2.56,-9.37,3a
2019-07-15_172006:720,-0.417389,-0.012695,-0.277588,0.001738,5e-05,-0.0039109999999999995,-45.5,2.56,-9.37,3a
2019-07-15_172006:740,-0.418915,-0.011169,-0.282166,0.002348,0.0006900000000000001,-0.004308,-46.5,3.25,-9.25,3a
2019-07-15_172006:760,-0.416382,-0.007599,-0.28369099999999997,0.002409,0.0016359999999999999,-0.005712,-46.5,3.25,-9.25,3a
2019-07-15_172006:780,-0.411285,-0.0055850000000000006,-0.283173,0.002287,0.001575,-0.00678,-46.5,3.25,-9.25,3a
2019-07-15_172006:800,-0.40823400000000004,-0.004059,-0.282166,0.002226,0.001759,-0.007359999999999999,-45.369999,3.0,-9.25,3a
2019-07-15_172006:820,-0.409271,-0.002014,-0.278107,0.00183,0.001484,-0.008611,-45.369999,3.0,-9.25,3a
2019-07-15_172006:840,-0.40976,-0.001007,-0.279633,0.001891,0.001697,-0.009007,-45.75,3.25,-9.25,3a
2019-07-15_172006:860,-0.40570100000000003,0.0025329999999999997,-0.278107,0.002074,0.001362,-0.008702,-45.75,3.25,-9.25,3a
2019-07-15_172006:880,-0.402161,0.0030210000000000002,-0.279633,0.002684,0.00011100000000000001,-0.009007,-45.75,3.25,-9.25,3a
2019-07-15_172006:900,-0.397064,0.005065999999999999,-0.278595,0.002867,-0.000897,-0.009373999999999999,-47.560001,1.5,-12.0,3a
2019-07-15_172006:920,-0.39859,0.009644,-0.277069,0.003264,-0.003643,-0.009281999999999999,-47.560001,1.5,-12.0,3a
2019-07-15_172006:940,-0.40063499999999996,0.012695,-0.278595,0.003355,-0.004437,-0.008641,-46.060001,1.5,-9.25,3a
2019-07-15_172006:960,-0.406738,0.015228,-0.278595,0.002745,-0.006451,-0.006229999999999999,-46.060001,1.5,-9.25,3a
2019-07-15_172006:980,-0.408752,0.014740000000000001,-0.280121,0.00247,-0.007427,-0.0046429999999999996,-46.060001,1.5,-9.25,3a
2019-07-15_172007:000,-0.420441,0.014221000000000001,-0.284698,0.002226,-0.007305,-0.003972,-46.060001,1.06,-10.0,3a
2019-07-15_172007:020,-0.425537,0.015228,-0.28418000000000004,0.001952,-0.005627,-0.002172,-46.060001,1.06,-10.0,3a
2019-07-15_172007:040,-0.42807,0.012695,-0.285217,0.00183,-0.005047,-0.0016530000000000002,-46.060001,1.06,-10.0,3a
2019-07-15_172007:060,-0.41943400000000003,0.010162000000000001,-0.280121,0.0015550000000000002,-0.002972,-0.000188,-46.5,1.06,-10.75,3a
2019-07-15_172007:080,-0.41586300000000004,0.006592,-0.280121,0.0017989999999999998,-0.002514,-0.000127,-46.5,1.06,-10.75,3a
2019-07-15_172007:100,-0.411804,0.007111,-0.278595,0.002074,-0.0024530000000000003,-0.001042,-46.5,0.68,-11.56,3a
2019-07-15_172007:120,-0.40823400000000004,0.006072999999999999,-0.281647,0.002348,-0.0027890000000000002,-0.000859,-46.5,0.68,-11.56,3a
2019-07-15_172007:140,-0.41485600000000006,0.008636,-0.28369099999999997,0.002531,-0.003002,-0.000646,-46.5,0.68,-11.56,3a
2019-07-15_172007:160,-0.417908,0.008636,-0.28875700000000004,0.002409,-0.0024530000000000003,-0.000401,-45.75,0.68,-9.56,3a
2019-07-15_172007:180,-0.410797,0.011169,-0.28775,0.001891,-0.000897,-6.6e-05,-45.75,0.68,-9.56,3a
2019-07-15_172007:200,-0.406219,0.014740000000000001,-0.28927600000000003,0.0016769999999999999,-0.0007440000000000001,0.000331,-45.75,0.37,-9.56,3a
2019-07-15_172007:220,-0.40316799999999997,0.015228,-0.28927600000000003,-9.300000000000001e-05,-0.00108,0.001582,-45.75,0.37,-9.56,3a
2019-07-15_172007:240,-0.40774499999999997,0.012695,-0.291321,-0.000642,-0.0014759999999999999,0.0016129999999999999,-45.75,0.37,-9.56,3a
2019-07-15_172007:260,-0.412811,0.012695,-0.293335,-0.001558,-0.001598,0.00207,-45.75,0.68,-10.37,3a
2019-07-15_172007:280,-0.41943400000000003,0.008118,-0.29284699999999997,-0.002443,-0.00108,0.002315,-45.75,0.68,-10.37,3a
2019-07-15_172007:300,-0.41943400000000003,0.006072999999999999,-0.28927600000000003,-0.002687,0.000172,0.0024059999999999997,-45.75,0.37,-10.75,3a
2019-07-15_172007:320,-0.414337,0.004059,-0.285706,-0.003145,0.001545,0.0025280000000000003,-45.75,0.37,-10.75,3a
2019-07-15_172007:340,-0.41232299999999994,-0.002014,-0.282166,-0.0026260000000000003,0.0023079999999999997,0.00207,-45.75,0.37,-10.75,3a
2019-07-15_172007:360,-0.41586300000000004,-0.0030210000000000002,-0.281647,-0.001894,0.002369,0.0010630000000000001,-46.060001,0.68,-10.37,3a
2019-07-15_172007:380,-0.41842700000000005,-0.004059,-0.28418000000000004,-0.0008560000000000001,0.002827,0.000453,-46.060001,0.68,-10.37,3a
2019-07-15_172007:400,-0.41232299999999994,-0.004059,-0.281647,0.000609,0.003956,-0.000524,-45.75,1.06,-10.75,3a
2019-07-15_172007:420,-0.410278,-0.001495,-0.281647,0.002226,0.004139,-0.0011949999999999999,-45.75,1.06,-10.75,3a
2019-07-15_172007:440,-0.41842700000000005,0.0,-0.282166,0.003691,0.003956,-0.001073,-45.75,1.06,-10.75,3a
2019-07-15_172007:460,-0.42605600000000005,0.005065999999999999,-0.288269,0.004607,0.005604,-0.000737,-46.060001,0.06,-10.37,3a
2019-07-15_172007:480,-0.430634,0.009125,-0.293854,0.005339,0.007618000000000001,-0.000463,-46.060001,0.06,-10.37,3a
2019-07-15_172007:500,-0.43011499999999997,0.012177,-0.291321,0.005797,0.009998,-0.001531,-46.060001,0.06,-10.37,3a
2019-07-15_172007:520,-0.43670699999999996,0.017273,-0.286224,0.005461,0.011585,-0.0036969999999999998,-46.060001,0.06,-10.37,3a
2019-07-15_172007:540,-0.432648,0.017792,-0.278107,0.0054,0.014362,-0.005162,-46.060001,0.06,-10.37,3a
2019-07-15_172007:560,-0.432159,0.015228,-0.267426,0.004881,0.016163,-0.005956,-45.75,0.06,-9.56,3a
2019-07-15_172007:580,-0.42758199999999996,0.014221000000000001,-0.258759,0.005339,0.017841,-0.005222999999999999,-45.75,0.06,-9.56,3a
2019-07-15_172007:600,-0.417908,0.016266,-0.25216700000000003,0.005736,0.018024000000000002,-0.002934,-45.75,0.06,-9.56,3a
2019-07-15_172007:620,-0.416382,0.019806,-0.24453699999999998,0.005125,0.016682,0.000789,-45.75,0.06,-9.56,3a
2019-07-15_172007:640,-0.423492,0.018799,-0.245056,0.003935,0.014759,0.00442,-45.75,0.06,-9.56,3a
2019-07-15_172007:660,-0.427063,0.016753999999999998,-0.24453699999999998,0.002745,0.013508000000000001,0.005397,-46.5,-0.25,-8.37,3a
2019-07-15_172007:680,-0.433655,0.018799,-0.24706999999999998,0.001891,0.012379000000000001,0.005092,-46.5,-0.25,-8.37,3a
2019-07-15_172007:700,-0.45043900000000003,0.017792,-0.241486,0.001036,0.011982,0.005,-46.060001,0.06,-7.68,3a
2019-07-15_172007:720,-0.453491,0.014221000000000001,-0.23690799999999998,-0.000185,0.012928,0.005031,-46.060001,0.06,-7.68,3a
2019-07-15_172007:740,-0.440796,0.005065999999999999,-0.23028600000000002,-0.001253,0.014240000000000001,0.004939,-46.060001,0.06,-7.68,3a
2019-07-15_172007:760,-0.434692,-0.006592,-0.22979699999999997,-0.001253,0.013172,0.004085,-46.060001,0.37,-7.25,3a
2019-07-15_172007:780,-0.43774399999999997,-0.011687999999999999,-0.227264,-0.000825,0.012531,0.0027719999999999997,-46.060001,0.37,-7.25,3a
2019-07-15_172007:800,-0.433655,-0.011169,-0.224701,-0.000124,0.011585,0.002955,-47.560001,0.37,-6.37,3a
2019-07-15_172007:820,-0.437225,-0.010162000000000001,-0.225739,-3.2e-05,0.010242,0.004207,-47.560001,0.37,-6.37,3a
2019-07-15_172007:840,-0.44232200000000005,-0.009644,-0.227753,0.0005480000000000001,0.009663,0.004756,-47.560001,0.37,-6.37,3a
2019-07-15_172007:860,-0.44281000000000004,-0.007111,-0.227753,0.000151,0.008869,0.004146,-46.869999,-0.25,-6.37,3a
2019-07-15_172007:880,-0.45043900000000003,-0.0025329999999999997,-0.22521999999999998,-0.000978,0.009205,0.005,-46.869999,-0.25,-6.37,3a
2019-07-15_172007:900,-0.449432,-0.001007,-0.226227,-0.0023510000000000002,0.009876000000000001,0.005397,-46.5,0.37,-6.87,3a
2019-07-15_172007:920,-0.44638100000000003,-0.001007,-0.22216799999999998,-0.004579,0.009845999999999999,0.006343,-46.5,0.37,-6.87,3a
2019-07-15_172007:940,-0.44891400000000004,-0.004059,-0.21148699999999998,-0.006319,0.009998,0.006801000000000001,-46.5,0.37,-6.87,3a
2019-07-15_172007:960,-0.455017,-0.008636,-0.208954,-0.008241,0.009602,0.006953,-47.5,0.37,-4.06,3a
2019-07-15_172007:980,-0.441284,-0.008636,-0.21810900000000003,-0.009492,0.010975,0.007808,-47.5,0.37,-4.06,3a
2019-07-15_172008:000,-0.432648,-0.012695,-0.21453899999999998,-0.010225,0.01067,0.010341,-47.25,1.06,-5.25,3a
2019-07-15_172008:020,-0.42858900000000005,-0.017792,-0.213531,-0.010622,0.008137,0.010859,-47.25,1.06,-5.25,3a
2019-07-15_172008:040,-0.429596,-0.01828,-0.21505700000000003,-0.010713,0.004871,0.010707,-47.25,1.06,-5.25,3a
2019-07-15_172008:060,-0.43774399999999997,-0.01828,-0.22116100000000002,-0.010164,0.0018809999999999999,0.011989,-47.25,0.37,-4.06,3a
2019-07-15_172008:080,-0.44281000000000004,-0.014740000000000001,-0.222687,-0.009889,-0.000439,0.013453,-47.25,0.37,-4.06,3a
2019-07-15_172008:100,-0.44891400000000004,-0.013702,-0.226746,-0.009492,-0.001324,0.013362,-46.5,1.06,-4.06,3a
2019-07-15_172008:120,-0.44638100000000003,-0.010162000000000001,-0.226746,-0.008791,-0.001782,0.012903999999999999,-46.5,1.06,-4.06,3a
2019-07-15_172008:140,-0.451477,-0.011169,-0.22421300000000002,-0.007906,-0.001598,0.011714,-46.5,1.06,-4.06,3a
2019-07-15_172008:160,-0.44638100000000003,-0.010651,-0.217072,-0.006776000000000001,-0.001782,0.008479,-47.18,2.18,-3.25,3a
2019-07-15_172008:180,-0.454529,-0.0055850000000000006,-0.216583,-0.005769,-0.001782,0.005275,-47.18,2.18,-3.25,3a
2019-07-15_172008:200,-0.45907600000000004,-0.007111,-0.225739,-0.0034799999999999996,-0.001019,0.0025280000000000003,-47.18,1.87,-3.68,3a
2019-07-15_172008:220,-0.434174,-0.006592,-0.233337,-0.001253,-0.00037799999999999997,-0.0009199999999999999,-47.18,1.87,-3.68,3a
2019-07-15_172008:240,-0.44027700000000003,-0.006072999999999999,-0.235382,0.001097,-0.0008349999999999999,-0.002049,-47.18,1.87,-3.68,3a
2019-07-15_172008:260,-0.45553599999999994,-0.008118,-0.227264,0.003539,-0.000439,-0.000188,-46.869999,1.87,-2.87,3a
2019-07-15_172008:280,-0.465179,-0.008118,-0.21810900000000003,0.005125,0.0005679999999999999,0.001399,-46.869999,1.87,-2.87,3a
2019-07-15_172008:300,-0.458588,-0.008118,-0.213531,0.006468000000000001,0.002552,0.0025280000000000003,-47.25,1.5,-4.06,3a
2019-07-15_172008:320,-0.440796,-0.008636,-0.21249400000000002,0.006926000000000001,0.0030399999999999997,0.004085,-47.25,1.5,-4.06,3a
2019-07-15_172008:340,-0.445862,-0.011169,-0.21505700000000003,0.005675,0.000782,0.007289,-47.25,1.5,-4.06,3a
2019-07-15_172008:360,-0.44995100000000005,-0.015228,-0.20233199999999998,0.004607,-0.00034700000000000003,0.009273,-46.869999,1.06,-2.87,3a
2019-07-15_172008:380,-0.453003,-0.01828,-0.20080599999999998,0.002684,-0.0011099999999999999,0.009273,-46.869999,1.06,-2.87,3a
2019-07-15_172008:400,-0.44232200000000005,-0.019318000000000002,-0.201843,0.002226,-0.001202,0.008081999999999999,-47.25,2.18,-4.5,3a
2019-07-15_172008:420,-0.429108,-0.020844,-0.207916,0.00183,-0.002667,0.006801000000000001,-47.25,2.18,-4.5,3a
2019-07-15_172008:440,-0.449432,-0.022858,-0.21402,0.0015550000000000002,-0.004925,0.007014,-47.25,2.18,-4.5,3a
2019-07-15_172008:460,-0.46823100000000006,-0.023375999999999997,-0.20742800000000003,0.001036,-0.00584,0.008204000000000001,-46.060001,2.56,-4.06,3a
2019-07-15_172008:480,-0.46823100000000006,-0.023375999999999997,-0.209961,0.000884,-0.003643,0.007136,-46.060001,2.56,-4.06,3a
2019-07-15_172008:500,-0.45654300000000003,-0.021851,-0.21453899999999998,0.000304,-0.001019,0.0065569999999999995,-46.5,1.87,-3.68,3a
2019-07-15_172008:520,-0.45095799999999997,-0.022858,-0.212006,-0.0008560000000000001,-0.000897,0.007289,-46.5,1.87,-3.68,3a
2019-07-15_172008:540,-0.445862,-0.023895,-0.208954,-0.0008560000000000001,-0.001141,0.0051530000000000005,-46.5,1.87,-3.68,3a
2019-07-15_172008:560,-0.44433599999999995,-0.022858,-0.212006,-0.000429,-0.00172,0.002009,-46.060001,2.56,-4.06,3a
2019-07-15_172008:580,-0.44027700000000003,-0.021332,-0.217072,-0.0005200000000000001,-0.001843,0.00265,-46.060001,2.56,-4.06,3a
2019-07-15_172008:600,-0.459595,-0.023375999999999997,-0.219635,-0.0018329999999999998,-0.0037649999999999997,0.008784,-46.5,3.25,-4.06,3a
2019-07-15_172008:620,-0.476379,-0.025908999999999998,-0.217072,-0.0025039999999999997,-0.0023309999999999997,0.009334,-46.5,3.25,-4.06,3a
2019-07-15_172008:640,-0.47280900000000003,-0.026427999999999997,-0.21249400000000002,-0.003084,0.000965,0.007014,-46.5,3.25,-4.06,3a
2019-07-15_172008:660,-0.45907600000000004,-0.026917,-0.21048000000000003,-0.0034799999999999996,0.002888,0.004817,-46.869999,3.0,-2.5,3a
2019-07-15_172008:680,-0.43927,-0.028961,-0.208954,-0.003664,0.0027660000000000002,0.004542,-46.869999,3.0,-2.5,3a
2019-07-15_172008:700,-0.43621800000000005,-0.032013,-0.21048000000000003,-0.0034799999999999996,0.000965,0.005824,-46.5,3.0,-4.06,3a
2019-07-15_172008:720,-0.444855,-0.035065,-0.21759,-0.003023,-0.000225,0.006953,-46.5,3.0,-4.06,3a
2019-07-15_172008:740,-0.48095699999999997,-0.034058,-0.228271,-0.003389,0.001301,0.007808,-46.5,3.0,-4.06,3a
2019-07-15_172008:760,-0.477905,-0.033539,-0.22927899999999998,-0.0038469999999999997,0.004871,0.00735,-47.560001,3.0,-3.25,3a
2019-07-15_172008:780,-0.491638,-0.03302,-0.226227,-0.004732,0.008655,0.005672,-47.560001,3.0,-3.25,3a
2019-07-15_172008:800,-0.467224,-0.029480000000000003,-0.213531,-0.0039380000000000005,0.012988999999999999,0.002955,-46.869999,3.25,-2.87,3a
2019-07-15_172008:820,-0.445374,-0.023375999999999997,-0.20285,-0.004457,0.013508000000000001,0.00020899999999999998,-46.869999,3.25,-2.87,3a
2019-07-15_172008:840,-0.431641,-0.021332,-0.19775399999999999,-0.004518,0.011768,-0.000279,-46.869999,3.25,-2.87,3a
2019-07-15_172008:860,-0.42605600000000005,-0.023895,-0.19165,-0.005647,0.008076,0.0010630000000000001,-47.25,4.37,-3.25,3a
2019-07-15_172008:880,-0.455017,-0.027954000000000003,-0.19927999999999998,-0.006502,0.005665,0.004024,-47.25,4.37,-3.25,3a
2019-07-15_172008:900,-0.458588,-0.031494,-0.198273,-0.006837,0.004627,0.007014,-46.5,3.0,-2.87,3a
2019-07-15_172008:920,-0.455017,-0.034546,-0.20233199999999998,-0.008362999999999999,0.004017,0.009944,-46.5,3.0,-2.87,3a
2019-07-15_172008:940,-0.45605500000000004,-0.038635,-0.203369,-0.009706000000000001,0.003437,0.012445999999999999,-46.5,3.0,-2.87,3a
2019-07-15_172008:960,-0.455017,-0.040161,-0.20080599999999998,-0.011415,0.0030399999999999997,0.012843,-46.869999,3.0,-2.5,3a
2019-07-15_172008:980,-0.45095799999999997,-0.041168,-0.20285,-0.012636,0.0026739999999999997,0.010646,-46.869999,3.0,-2.5,3a
2019-07-15_172009:000,-0.45196499999999995,-0.038116000000000004,-0.20538299999999998,-0.013368000000000001,0.00243,0.007075,-47.25,3.25,-2.06,3a
2019-07-15_172009:020,-0.44891400000000004,-0.034546,-0.196747,-0.01349,0.001911,0.0024059999999999997,-47.25,3.25,-2.06,3a
2019-07-15_172009:040,-0.45401,-0.031006,-0.19574,-0.013155000000000002,0.001362,-0.002202,-47.25,3.25,-2.06,3a
2019-07-15_172009:060,-0.45095799999999997,-0.028442000000000002,-0.19165,-0.0123,0.0016359999999999999,-0.004857,-46.369999,4.06,-2.06,3a
2019-07-15_172009:080,-0.45095799999999997,-0.024384,-0.190125,-0.011293000000000001,0.000904,-0.005376,-46.369999,4.06,-2.06,3a
2019-07-15_172009:100,-0.453003,-0.023375999999999997,-0.190643,-0.010561,-0.000103,-0.005101,-47.18,4.37,-2.5,3a
2019-07-15_172009:120,-0.45706199999999997,-0.022858,-0.18811,-0.010316,-0.0005610000000000001,-0.004765999999999999,-47.18,4.37,-2.5,3a
2019-07-15_172009:140,-0.462646,-0.019806,-0.190643,-0.010561,-0.000286,-0.003057,-47.18,4.37,-2.5,3a
2019-07-15_172009:160,-0.457581,-0.021332,-0.198273,-0.010376999999999999,0.000233,8.7e-05,-46.75,3.25,-2.06,3a
2019-07-15_172009:180,-0.45605500000000004,-0.022369,-0.20233199999999998,-0.011446,0.000233,0.002589,-46.75,3.25,-2.06,3a
2019-07-15_172009:200,-0.45605500000000004,-0.023375999999999997,-0.20385699999999998,-0.011842,-0.000286,0.003749,-45.68,3.25,-1.68,3a
2019-07-15_172009:220,-0.45401,-0.025421,-0.201324,-0.011812000000000001,-0.00108,0.002589,-45.68,3.25,-1.68,3a
2019-07-15_172009:240,-0.458588,-0.026917,-0.198792,-0.0105,-0.001537,0.000728,-45.68,3.25,-1.68,3a
2019-07-15_172009:260,-0.45605500000000004,-0.024384,-0.19622799999999999,-0.008851999999999999,-0.001995,-0.000859,-46.369999,4.06,-1.68,3a
2019-07-15_172009:280,-0.447388,-0.024902,-0.195221,-0.006654,-0.002972,-0.002385,-46.369999,4.06,-1.68,3a
2019-07-15_172009:300,-0.43774399999999997,-0.024384,-0.205902,-0.003542,-0.00404,-0.004064,-51.869999,3.68,-2.06,3a
2019-07-15_172009:320,-0.445374,-0.024384,-0.21249400000000002,-0.000459,-0.0060539999999999995,-0.003636,-51.869999,3.68,-2.06,3a
2019-07-15_172009:340,-0.466217,-0.022858,-0.21554600000000002,0.002013,-0.006634,-0.000981,-51.869999,3.68,-2.06,3a
2019-07-15_172009:360,-0.472321,-0.021332,-0.21048000000000003,0.004393,-0.004437,0.000667,-46.0,3.0,-2.5,3a
2019-07-15_172009:380,-0.47689799999999993,-0.013702,-0.20285,0.005675,-0.001873,0.000667,-46.0,3.0,-2.5,3a
2019-07-15_172009:400,-0.458588,-0.011169,-0.199799,0.005736,-0.000164,0.000331,-46.75,3.25,-2.5,3a
2019-07-15_172009:420,-0.455017,-0.008636,-0.19165,0.004454,-0.000683,5.6000000000000006e-05,-46.75,3.25,-2.5,3a
2019-07-15_172009:440,-0.45654300000000003,-0.013213999999999998,-0.19927999999999998,0.00302,-0.001843,0.000484,-46.75,3.25,-2.5,3a
2019-07-15_172009:460,-0.45706199999999997,-0.015228,-0.20486500000000002,0.002623,-0.0024530000000000003,-0.000646,-47.5,2.56,-2.06,3a
2019-07-15_172009:480,-0.47433500000000006,-0.015228,-0.20742800000000003,0.002684,-0.00227,-0.0016530000000000002,-47.5,2.56,-2.06,3a
2019-07-15_172009:500,-0.476379,-0.012177,-0.203369,0.002623,0.00011100000000000001,-0.001317,-46.75,3.0,-3.25,3a
2019-07-15_172009:520,-0.46875,-0.009644,-0.195221,0.0017989999999999998,0.0030399999999999997,-0.000859,-46.75,3.0,-3.25,3a
2019-07-15_172009:540,-0.45806899999999995,-0.009644,-0.194702,0.000304,0.004566,0.00020899999999999998,-46.75,3.0,-3.25,3a
2019-07-15_172009:560,-0.44995100000000005,-0.013702,-0.194702,-0.001497,0.003803,0.001979,-47.18,2.56,-2.06,3a
2019-07-15_172009:580,-0.45196499999999995,-0.017792,-0.19622799999999999,-0.003389,0.00243,0.0036880000000000003,-47.18,2.56,-2.06,3a
2019-07-15_172009:600,-0.45095799999999997,-0.021332,-0.19927999999999998,-0.004579,0.001545,0.0051530000000000005,-47.5,1.87,-0.06,3a
2019-07-15_172009:620,-0.454529,-0.023375999999999997,-0.19927999999999998,-0.005586,0.0007509999999999999,0.005488,-47.5,1.87,-0.06,3a
2019-07-15_172009:640,-0.457581,-0.023375999999999997,-0.199799,-0.005922,0.0007509999999999999,0.004298,-47.5,1.87,-0.06,3a
2019-07-15_172009:660,-0.45706199999999997,-0.022858,-0.20080599999999998,-0.005647,0.000904,0.001918,-46.369999,2.56,-1.68,3a
2019-07-15_172009:680,-0.463654,-0.021332,-0.20385699999999998,-0.004793,0.0010869999999999999,-0.000127,-46.369999,2.56,-1.68,3a
2019-07-15_172009:700,-0.46926899999999994,-0.019806,-0.208954,-0.004121,0.002216,-0.00024900000000000004,-46.75,1.87,-2.87,3a
2019-07-15_172009:720,-0.46316499999999994,-0.015747,-0.20843499999999998,-0.003023,0.0042,0.000484,-46.75,1.87,-2.87,3a
2019-07-15_172009:740,-0.45806899999999995,-0.012177,-0.209961,-0.002168,0.005207,0.000484,-46.75,1.87,-2.87,3a
2019-07-15_172009:760,-0.45706199999999997,-0.012695,-0.209961,-0.001039,0.005665,-0.000279,-47.5,1.87,-1.68,3a
2019-07-15_172009:780,-0.459595,-0.011169,-0.20285,-9.300000000000001e-05,0.005604,-0.000981,-47.5,1.87,-1.68,3a
2019-07-15_172009:800,-0.45605500000000004,-0.004547,-0.198273,0.001006,0.005665,-6.6e-05,-47.18,1.87,-1.68,3a
2019-07-15_172009:820,-0.47280900000000003,-0.004059,-0.19165,-0.000185,0.005878,0.00088,-47.18,1.87,-1.68,3a
2019-07-15_172009:840,-0.478912,-0.007111,-0.190125,-0.001375,0.007220999999999999,0.001277,-47.18,1.87,-1.68,3a
2019-07-15_172009:860,-0.47842399999999996,-0.010651,-0.186066,-0.002565,0.008808,0.001185,-46.75,1.87,-1.25,3a
2019-07-15_172009:880,-0.47280900000000003,-0.010651,-0.176422,-0.0036030000000000003,0.009998,5.6000000000000006e-05,-46.75,1.87,-1.25,3a
2019-07-15_172009:900,-0.47842399999999996,-0.008636,-0.172333,-0.00461,0.010975,-0.000524,-46.369999,2.18,0.18,3a
2019-07-15_172009:920,-0.475861,-0.007111,-0.159637,-0.005769,0.011524,-0.000279,-46.369999,2.18,0.18,3a
2019-07-15_172009:940,-0.46926899999999994,-0.006072999999999999,-0.158112,-0.006593000000000001,0.011127,0.000728,-46.369999,2.18,0.18,3a
2019-07-15_172009:960,-0.47079499999999996,-0.006072999999999999,-0.160645,-0.0069900000000000006,0.009663,0.002009,-46.75,1.87,-0.06,3a
2019-07-15_172009:980,-0.473846,-0.008118,-0.157074,-0.007234,0.008717,0.003901,-46.75,1.87,-0.06,3a
2019-07-15_172010:000,-0.47433500000000006,-0.007599,-0.15506,-0.006776000000000001,0.008869,0.0042369999999999994,-46.0,2.18,0.68,3a
2019-07-15_172010:020,-0.47332799999999997,-0.007111,-0.153015,-0.006654,0.008533,0.0033520000000000004,-46.0,2.18,0.68,3a
2019-07-15_172010:040,-0.473846,-0.007111,-0.154022,-0.0067150000000000005,0.008137,0.003749,-46.0,2.18,0.68,3a
2019-07-15_172010:060,-0.472321,-0.006592,-0.155548,-0.0067150000000000005,0.00835,0.004359,-46.369999,2.18,1.37,3a
2019-07-15_172010:080,-0.478912,-0.010162000000000001,-0.157074,-0.007326000000000001,0.008655,0.0042369999999999994,-46.369999,2.18,1.37,3a
2019-07-15_172010:100,-0.484009,-0.009644,-0.1586,-0.007509,0.00951,0.003871,-47.560001,1.5,2.18,3a
2019-07-15_172010:120,-0.48706099999999997,-0.011169,-0.154541,-0.007326000000000001,0.009602,0.002742,-47.560001,1.5,2.18,3a
2019-07-15_172010:140,-0.485016,-0.006072999999999999,-0.154541,-0.007387,0.010914,0.002009,-47.560001,1.5,2.18,3a
2019-07-15_172010:160,-0.47332799999999997,-0.007111,-0.151489,-0.007448000000000001,0.011127,0.002376,-47.560001,1.5,1.37,3a
2019-07-15_172010:180,-0.465179,-0.008636,-0.148956,-0.007906,0.010639000000000001,0.004146,-47.560001,1.5,1.37,3a
2019-07-15_172010:200,-0.481476,-0.014740000000000001,-0.153015,-0.00757,0.010059,0.0036880000000000003,-46.869999,2.18,2.56,3a
2019-07-15_172010:220,-0.475372,-0.013702,-0.14743,-0.008424,0.01012,0.002711,-46.869999,2.18,2.56,3a
2019-07-15_172010:240,-0.467224,-0.016753999999999998,-0.143372,-0.008028,0.009724,0.002711,-46.869999,2.18,2.56,3a
2019-07-15_172010:260,-0.462646,-0.016266,-0.142334,-0.007783,0.008808,0.0025280000000000003,-46.869999,2.18,2.56,3a
2019-07-15_172010:280,-0.46417200000000003,-0.016266,-0.138275,-0.007661,0.006458,0.001582,-46.869999,2.18,2.56,3a
2019-07-15_172010:300,-0.478912,-0.017792,-0.145386,-0.007265000000000001,0.005817,0.001338,-46.869999,2.18,3.06,3a
2019-07-15_172010:320,-0.489594,-0.015747,-0.145386,-0.005586,0.004871,0.000148,-46.869999,2.18,3.06,3a
2019-07-15_172010:340,-0.49365200000000004,-0.011687999999999999,-0.138794,-0.004243,0.006214,-0.001592,-46.869999,2.18,3.06,3a
2019-07-15_172010:360,-0.48754899999999995,-0.004059,-0.136749,-0.00345,0.006672,-0.0025989999999999997,-46.5,2.18,3.37,3a
2019-07-15_172010:380,-0.48043800000000003,0.000488,-0.134216,-0.0025039999999999997,0.007587000000000001,-0.003728,-46.5,2.18,3.37,3a
2019-07-15_172010:400,-0.47433500000000006,0.005065999999999999,-0.139801,-0.0023510000000000002,0.00713,-0.002995,-46.369999,1.5,3.75,3a
2019-07-15_172010:420,-0.47180200000000005,0.007599,-0.139801,-0.0034799999999999996,0.0042,-0.00033999999999999997,-46.369999,1.5,3.75,3a
2019-07-15_172010:440,-0.477905,0.007111,-0.138794,-0.0038469999999999997,0.00301,0.001124,-46.369999,1.5,3.75,3a
2019-07-15_172010:460,-0.47842399999999996,0.007111,-0.13623,-0.00406,0.002277,0.001521,-46.75,1.5,3.06,3a
2019-07-15_172010:480,-0.481476,0.0055850000000000006,-0.130127,-0.0049759999999999995,0.00243,0.0027719999999999997,-46.75,1.5,3.06,3a
2019-07-15_172010:500,-0.48553500000000005,0.004059,-0.12658699999999998,-0.005067,0.0026739999999999997,0.0031079999999999997,-45.68,1.06,3.75,3a
2019-07-15_172010:520,-0.484497,0.0,-0.124054,-0.00525,0.003101,0.003474,-45.68,1.06,3.75,3a
2019-07-15_172010:540,-0.484497,-0.002014,-0.124054,-0.005006,0.003101,0.0028940000000000003,-45.68,1.06,3.75,3a
2019-07-15_172010:560,-0.47842399999999996,-0.0025329999999999997,-0.121002,-0.004793,0.00301,0.0027719999999999997,-46.75,1.87,3.75,3a
2019-07-15_172010:580,-0.477905,-0.004059,-0.122528,-0.004518,0.000965,0.001857,-46.75,1.87,3.75,3a
2019-07-15_172010:600,-0.477386,-0.000488,-0.12454200000000001,-0.004457,0.000233,0.001582,-47.18,1.87,6.18,3a
2019-07-15_172010:620,-0.475861,-0.001007,-0.128113,-0.003786,-0.000958,0.001399,-47.18,1.87,6.18,3a
2019-07-15_172010:640,-0.47280900000000003,0.001495,-0.129639,-0.0029010000000000004,-0.0024530000000000003,0.001399,-47.18,1.87,6.18,3a
2019-07-15_172010:660,-0.471283,0.002014,-0.130646,-0.0028399999999999996,-0.003399,0.001582,-46.369999,1.06,4.18,3a
2019-07-15_172010:680,-0.48349,0.0035399999999999997,-0.131653,-0.002443,-0.005169,0.001674,-46.369999,1.06,4.18,3a
2019-07-15_172010:700,-0.48706099999999997,0.004547,-0.133179,-0.00229,-0.005169,0.0017350000000000002,-46.369999,1.06,4.18,3a
2019-07-15_172010:720,-0.489075,0.006072999999999999,-0.135742,-0.002046,-0.003979,0.0027719999999999997,-46.369999,1.5,4.18,3a
2019-07-15_172010:740,-0.485016,0.006592,-0.136749,-0.002229,-0.003796,0.0034130000000000002,-46.369999,1.5,4.18,3a
2019-07-15_172010:760,-0.48654200000000003,0.005065999999999999,-0.139282,-0.002748,-0.002514,0.0036880000000000003,-46.75,0.68,3.06,3a
2019-07-15_172010:780,-0.481476,0.004059,-0.138275,-0.003114,-0.002117,0.003749,-46.75,0.68,3.06,3a
2019-07-15_172010:800,-0.47943100000000005,0.000488,-0.137268,-0.003542,-0.00285,0.004085,-46.75,0.68,3.06,3a
2019-07-15_172010:820,-0.48654200000000003,-0.001007,-0.135742,-0.0034799999999999996,-0.00346,0.003871,-46.0,1.06,4.18,3a
2019-07-15_172010:840,-0.48196400000000006,-0.0030210000000000002,-0.135742,-0.0029620000000000002,-0.003857,0.004207,-46.0,1.06,4.18,3a
2019-07-15_172010:860,-0.484497,-0.0025329999999999997,-0.135742,-0.002748,-0.003979,0.004542,-47.18,1.5,3.37,3a
2019-07-15_172010:880,-0.48349,-0.001007,-0.13623,-0.00229,-0.003399,0.003871,-47.18,1.5,3.37,3a
2019-07-15_172010:900,-0.48196400000000006,0.0,-0.14032,-0.002443,-0.0031850000000000003,0.0035659999999999997,-47.18,1.5,3.37,3a
2019-07-15_172010:920,-0.48349,0.001007,-0.141846,-0.002687,-0.002514,0.003871,-46.369999,1.06,4.18,3a
2019-07-15_172010:940,-0.48043800000000003,0.0,-0.138794,-0.0028399999999999996,-0.002392,0.003871,-46.369999,1.06,4.18,3a
2019-07-15_172010:960,-0.47842399999999996,-0.001007,-0.139282,-0.003084,-0.0027890000000000002,0.003963,-47.18,1.06,3.75,3a
2019-07-15_172010:980,-0.478912,-0.0025329999999999997,-0.13623,-0.00345,-0.0030629999999999998,0.004481000000000001,-47.18,1.06,3.75,3a
2019-07-15_172011:000,-0.482483,-0.0025329999999999997,-0.14032,-0.003389,-0.003368,0.004695,-47.18,1.06,3.75,3a
2019-07-15_172011:020,-0.48196400000000006,-0.0030210000000000002,-0.138794,-0.00345,-0.003307,0.004542,-47.18,0.68,1.37,3a
2019-07-15_172011:040,-0.490112,-0.0035399999999999997,-0.14032,-0.0034799999999999996,-0.003124,0.0042369999999999994,-47.18,0.68,1.37,3a
2019-07-15_172011:060,-0.489075,-0.0035399999999999997,-0.14032,-0.003542,-0.0021780000000000002,0.00381,-47.18,1.5,2.56,3a
2019-07-15_172011:080,-0.48706099999999997,-0.0035399999999999997,-0.140808,-0.0039380000000000005,-0.0007740000000000001,0.003505,-47.18,1.5,2.56,3a
2019-07-15_172011:100,-0.482483,-0.004059,-0.142853,-0.004396,-0.0006219999999999999,0.002833,-47.18,1.5,2.56,3a
2019-07-15_172011:120,-0.48300200000000004,-0.0035399999999999997,-0.142334,-0.004335,-0.000286,0.001979,-46.369999,2.18,3.75,3a
2019-07-15_172011:140,-0.48300200000000004,-0.005065999999999999,-0.139801,-0.004579,-0.000164,0.001521,-46.369999,2.18,3.75,3a
2019-07-15_172011:160,-0.484497,-0.004547,-0.141846,-0.004182,0.000294,0.001277,-47.5,1.87,3.37,3a
2019-07-15_172011:180,-0.48553500000000005,-0.004059,-0.139801,-0.003786,0.0006900000000000001,0.00146,-47.5,1.87,3.37,3a
2019-07-15_172011:200,-0.484009,-0.0035399999999999997,-0.139282,-0.003145,0.001423,0.001918,-47.5,1.87,3.37,3a
2019-07-15_172011:220,-0.484009,-0.002014,-0.137268,-0.002748,0.001545,0.002131,-46.369999,1.5,3.75,3a
2019-07-15_172011:240,-0.481476,-0.001495,-0.13623,-0.0023510000000000002,0.001575,0.002589,-46.369999,1.5,3.75,3a
2019-07-15_172011:260,-0.481476,-0.000488,-0.134216,-0.00229,0.001575,0.0028940000000000003,-46.75,1.5,3.75,3a
2019-07-15_172011:280,-0.481476,0.000488,-0.130646,-0.001894,0.001545,0.00323,-46.75,1.5,3.75,3a
2019-07-15_172011:300,-0.48349,0.0,-0.132172,-0.002168,0.000782,0.003749,-46.75,1.5,3.75,3a
2019-07-15_172011:320,-0.484009,-0.001007,-0.130646,-0.0025039999999999997,0.001179,0.0036270000000000004,-46.0,1.06,4.56,3a
2019-07-15_172011:340,-0.48095699999999997,0.0,-0.131653,-0.002748,0.0007509999999999999,0.003749,-46.0,1.06,4.56,3a
2019-07-15_172011:360,-0.477905,-0.000488,-0.12912,-0.003206,0.00011100000000000001,0.004085,-46.369999,1.5,3.06,3a
2019-07-15_172011:380,-0.48196400000000006,-0.0025329999999999997,-0.129639,-0.003786,-0.00034700000000000003,0.0031079999999999997,-46.369999,1.5,3.06,3a
2019-07-15_172011:400,-0.481476,-0.002014,-0.13269,-0.003786,-0.0007740000000000001,0.002467,-46.369999,1.5,3.06,3a
2019-07-15_172011:420,-0.48043800000000003,-0.0030210000000000002,-0.134216,-0.0039380000000000005,-0.001019,0.0027719999999999997,-47.18,1.87,4.18,3a
2019-07-15_172011:440,-0.481476,-0.0030210000000000002,-0.133698,-0.004243,-0.001598,0.002833,-47.18,1.87,4.18,3a
2019-07-15_172011:460,-0.485016,-0.004059,-0.134216,-0.004243,-0.001934,0.002467,-46.369999,1.5,3.06,3a
2019-07-15_172011:480,-0.484497,-0.002014,-0.13269,-0.0038469999999999997,-0.001141,0.0025280000000000003,-46.369999,1.5,3.06,3a
2019-07-15_172011:500,-0.484497,-0.001495,-0.134216,-0.0034799999999999996,-0.000958,0.0025280000000000003,-47.18,1.5,2.56,3a
2019-07-15_172011:520,-0.48196400000000006,-0.001495,-0.134216,-0.003542,-0.000958,0.0025280000000000003,-47.18,1.5,2.56,3a
2019-07-15_172011:540,-0.482483,-0.002014,-0.133179,-0.003542,-0.001324,0.002467,-47.18,1.5,2.56,3a
2019-07-15_172011:560,-0.48349,-0.000488,-0.13269,-0.003542,-0.001385,0.0021920000000000004,-47.18,1.87,3.06,3a
2019-07-15_172011:580,-0.485016,-0.001007,-0.133698,-0.003542,-0.001537,0.0021920000000000004,-47.18,1.87,3.06,3a
2019-07-15_172011:600,-0.484009,-0.001495,-0.134216,-0.003206,-0.001446,0.00265,-47.18,1.87,3.06,3a
2019-07-15_172011:620,-0.484497,-0.0030210000000000002,-0.133698,-0.003023,-0.0011099999999999999,0.002833,-47.18,1.87,3.06,3a
2019-07-15_172011:640,-0.48349,-0.0030210000000000002,-0.132172,-0.002687,-0.0011099999999999999,0.0031079999999999997,-47.18,1.87,3.06,3a
2019-07-15_172011:660,-0.482483,-0.0035399999999999997,-0.132172,-0.0023510000000000002,-0.0008349999999999999,0.00323,-47.18,1.87,4.18,3a
2019-07-15_172011:680,-0.482483,-0.0025329999999999997,-0.130127,-0.002107,-0.000958,0.0034130000000000002,-47.18,1.87,4.18,3a
2019-07-15_172011:700,-0.478912,-0.001007,-0.132172,-0.002107,-0.001141,0.003474,-47.18,1.87,4.18,3a
2019-07-15_172011:720,-0.478912,-0.0035399999999999997,-0.131653,-0.001955,-0.001873,0.003505,-47.18,1.5,2.56,3a
2019-07-15_172011:740,-0.481476,-0.0035399999999999997,-0.131653,-0.002168,-0.002392,0.0033520000000000004,-47.18,1.5,2.56,3a
2019-07-15_172011:760,-0.48095699999999997,-0.004059,-0.133698,-0.001894,-0.0024530000000000003,0.003016,-46.369999,1.5,3.37,3a
2019-07-15_172011:780,-0.478912,-0.0035399999999999997,-0.133698,-0.001894,-0.002667,0.002711,-46.369999,1.5,3.37,3a
2019-07-15_172011:800,-0.482483,-0.004059,-0.134705,-0.001558,-0.003002,0.0027719999999999997,-46.369999,1.5,3.37,3a
2019-07-15_172011:820,-0.48095699999999997,-0.004059,-0.134216,-0.001314,-0.003307,0.002589,-47.5,1.06,3.75,3a
2019-07-15_172011:840,-0.48300200000000004,-0.0035399999999999997,-0.13623,-0.001222,-0.003643,0.00265,-47.5,1.06,3.75,3a
2019-07-15_172011:860,-0.481476,-0.0030210000000000002,-0.135742,-0.001375,-0.003796,0.0032909999999999997,-46.75,1.87,3.75,3a
2019-07-15_172011:880,-0.48043800000000003,-0.004059,-0.135742,-0.001375,-0.003704,0.002711,-46.75,1.87,3.75,3a
2019-07-15_172011:900,-0.48095699999999997,-0.004547,-0.139282,-0.001375,-0.003857,0.002009,-46.75,1.87,3.75,3a
2019-07-15_172011:920,-0.477905,-0.002014,-0.138794,-0.001436,-0.003857,0.00207,-46.75,2.18,3.37,3a
2019-07-15_172011:940,-0.48196400000000006,-0.0030210000000000002,-0.140808,-0.001314,-0.004253,0.0024059999999999997,-46.75,2.18,3.37,3a
2019-07-15_172011:960,-0.484497,-0.0030210000000000002,-0.141846,-0.001436,-0.004131,0.0027719999999999997,-46.75,1.5,3.06,3a
2019-07-15_172011:980,-0.48196400000000006,-0.0030210000000000002,-0.141327,-0.001314,-0.003704,0.003169,-46.75,1.5,3.06,3a
2019-07-15_172012:000,-0.482483,-0.002014,-0.141846,-0.001497,-0.003124,0.003169,-46.75,1.5,3.06,3a
2019-07-15_172012:020,-0.47943100000000005,-0.0030210000000000002,-0.140808,-0.001894,-0.002972,0.003474,-47.18,1.87,3.06,3a
2019-07-15_172012:040,-0.478912,-0.0035399999999999997,-0.14032,-0.002107,-0.003399,0.003169,-47.18,1.87,3.06,3a
2019-07-15_172012:060,-0.48300200000000004,-0.005065999999999999,-0.142334,-0.0026260000000000003,-0.0030629999999999998,0.002833,-46.0,1.87,4.56,3a
2019-07-15_172012:080,-0.48095699999999997,-0.007111,-0.142853,-0.002687,-0.002728,0.002315,-46.0,1.87,4.56,3a
2019-07-15_172012:100,-0.48095699999999997,-0.006592,-0.143372,-0.0023510000000000002,-0.002667,0.001918,-46.0,1.87,4.56,3a
2019-07-15_172012:120,-0.47943100000000005,-0.006592,-0.142853,-0.001894,-0.002667,0.001857,-46.369999,1.5,3.06,3a
2019-07-15_172012:140,-0.478912,-0.004547,-0.142334,-0.001436,-0.0027890000000000002,0.002131,-46.369999,1.5,3.06,3a
2019-07-15_172012:160,-0.47842399999999996,-0.004059,-0.143372,-0.001314,-0.003307,0.002467,-45.68,0.68,2.18,3a
2019-07-15_172012:180,-0.47943100000000005,-0.004059,-0.141327,-0.001375,-0.003307,0.002376,-45.68,0.68,2.18,3a
2019-07-15_172012:200,-0.48196400000000006,-0.0025329999999999997,-0.144897,-0.001771,-0.003399,0.001857,-45.68,0.68,2.18,3a
2019-07-15_172012:220,-0.481476,-0.002014,-0.144379,-0.0018329999999999998,-0.0037649999999999997,0.001796,-46.0,0.68,3.75,3a
2019-07-15_172012:240,-0.48043800000000003,-0.002014,-0.144897,-0.001894,-0.003796,0.0021920000000000004,-46.0,0.68,3.75,3a
2019-07-15_172012:260,-0.478912,-0.0025329999999999997,-0.14386,-0.002107,-0.003643,0.002711,-46.0,1.06,3.37,3a
2019-07-15_172012:280,-0.478912,-0.002014,-0.142334,-0.00229,-0.003399,0.002833,-46.0,1.06,3.37,3a
2019-07-15_172012:300,-0.47943100000000005,-0.0030210000000000002,-0.14386,-0.002168,-0.003643,0.0032909999999999997,-46.0,1.06,3.37,3a
2019-07-15_172012:320,-0.484497,-0.0035399999999999997,-0.142334,-0.002443,-0.003796,0.003505,-46.75,1.5,3.06,3a
2019-07-15_172012:340,-0.48300200000000004,-0.004059,-0.144379,-0.002382,-0.003307,0.0036880000000000003,-46.75,1.5,3.06,3a
2019-07-15_172012:360,-0.477905,-0.004547,-0.145905,-0.002687,-0.003002,0.0042369999999999994,-40.18,1.5,2.56,3a
2019-07-15_172012:380,-0.47943100000000005,-0.006072999999999999,-0.145386,-0.003023,-0.003124,0.0033520000000000004,-40.18,1.5,2.56,3a
2019-07-15_172012:400,-0.476379,-0.006072999999999999,-0.146912,-0.0026260000000000003,-0.0031850000000000003,0.002315,-40.18,1.5,2.56,3a
2019-07-15_172012:420,-0.477386,-0.006072999999999999,-0.147949,-0.002748,-0.003582,0.002742,-46.369999,0.68,2.56,3a
2019-07-15_172012:440,-0.48043800000000003,-0.0055850000000000006,-0.147949,-0.002382,-0.003643,0.002955,-46.369999,0.68,2.56,3a
2019-07-15_172012:460,-0.478912,-0.004547,-0.146423,-0.002229,-0.003307,0.003078,-47.18,1.5,3.06,3a
2019-07-15_172012:480,-0.47433500000000006,-0.0030210000000000002,-0.146912,-0.0019850000000000002,-0.003246,0.003474,-47.18,1.5,3.06,3a
2019-07-15_172012:500,-0.476379,-0.0030210000000000002,-0.149475,-0.002382,-0.003246,0.003016,-47.18,1.5,3.06,3a
2019-07-15_172012:520,-0.475861,-0.0025329999999999997,-0.151001,-0.002687,-0.003643,0.003078,-46.75,0.37,3.06,3a
2019-07-15_172012:540,-0.47995,-0.001007,-0.150482,-0.0034799999999999996,-0.004253,0.003078,-46.75,0.37,3.06,3a
2019-07-15_172012:560,-0.478912,-0.0035399999999999997,-0.151001,-0.003999,-0.004528,0.002589,-46.75,1.06,1.87,3a
2019-07-15_172012:580,-0.478912,-0.0035399999999999997,-0.151489,-0.004274,-0.00404,0.00207,-46.75,1.06,1.87,3a
2019-07-15_172012:600,-0.47689799999999993,-0.005065999999999999,-0.154022,-0.004243,-0.003582,0.001979,-46.75,1.06,1.87,3a
2019-07-15_172012:620,-0.476379,-0.004059,-0.15506,-0.003786,-0.0030629999999999998,0.001674,-46.369999,1.5,2.56,3a
2019-07-15_172012:640,-0.477905,-0.005065999999999999,-0.155548,-0.003389,-0.003002,0.001521,-46.369999,1.5,2.56,3a
2019-07-15_172012:660,-0.478912,-0.0030210000000000002,-0.155548,-0.003206,-0.002972,0.001857,-47.18,0.68,3.75,3a
2019-07-15_172012:680,-0.47842399999999996,-0.000488,-0.156586,-0.0028399999999999996,-0.002728,0.001979,-47.18,0.68,3.75,3a
2019-07-15_172012:700,-0.478912,-0.000488,-0.158112,-0.003084,-0.002605,0.002009,-47.18,0.68,3.75,3a
2019-07-15_172012:720,-0.47995,-0.000488,-0.1586,-0.003206,-0.0021780000000000002,0.0021920000000000004,-46.369999,1.87,2.56,3a
2019-07-15_172012:740,-0.47995,0.0,-0.158112,-0.0036030000000000003,-0.001873,0.002467,-46.369999,1.87,2.56,3a
2019-07-15_172012:760,-0.48043800000000003,0.0,-0.157074,-0.003725,-0.0011099999999999999,0.0025280000000000003,-46.75,1.5,1.87,3a
2019-07-15_172012:780,-0.478912,0.001007,-0.155548,-0.004243,-0.0005,0.002467,-46.75,1.5,1.87,3a
2019-07-15_172012:800,-0.477905,0.0,-0.156067,-0.004335,1.9e-05,0.002833,-46.75,1.5,1.87,3a
2019-07-15_172012:820,-0.478912,-0.000488,-0.152527,-0.004274,-0.000103,0.002833,-46.369999,0.68,1.37,3a
2019-07-15_172012:840,-0.47995,-0.001007,-0.151489,-0.004335,5e-05,0.002833,-46.369999,0.68,1.37,3a
2019-07-15_172012:860,-0.47689799999999993,-0.000488,-0.150482,-0.004732,0.000233,0.0035659999999999997,-47.18,0.68,1.37,3a
2019-07-15_172012:880,-0.47433500000000006,-0.001495,-0.150482,-0.005006,1.9e-05,0.003078,-47.18,0.68,1.37,3a
2019-07-15_172012:900,-0.476379,-0.001495,-0.153015,-0.005312,-0.000439,0.001674,-47.18,0.68,1.37,3a
2019-07-15_172012:920,-0.47689799999999993,-0.0025329999999999997,-0.152527,-0.004793,-0.0006219999999999999,0.0016129999999999999,-46.75,1.5,3.06,3a
2019-07-15_172012:940,-0.47943100000000005,-0.0025329999999999997,-0.151489,-0.004732,-0.0006219999999999999,0.0021920000000000004,-46.75,1.5,3.06,3a
2019-07-15_172012:960,-0.47842399999999996,-0.0030210000000000002,-0.150482,-0.004182,-0.000439,0.002315,-47.18,1.5,1.37,3a
2019-07-15_172012:980,-0.474854,-0.0025329999999999997,-0.150482,-0.003542,5e-05,0.0027719999999999997,-47.18,1.5,1.37,3a
2019-07-15_172013:000,-0.475861,-0.001495,-0.151001,-0.003145,-0.000103,0.002711,-47.18,1.5,1.37,3a
2019-07-15_172013:020,-0.476379,-0.001007,-0.152527,-0.0028399999999999996,-0.00037799999999999997,0.002315,-46.369999,1.87,1.37,3a
2019-07-15_172013:040,-0.476379,0.001007,-0.150482,-0.003084,-0.0007440000000000001,0.003016,-46.369999,1.87,1.37,3a
2019-07-15_172013:060,-0.476379,0.0,-0.151489,-0.003206,-0.000683,0.0025280000000000003,-46.75,0.68,1.06,3a
2019-07-15_172013:080,-0.474854,0.001495,-0.149475,-0.0036030000000000003,-0.000897,0.002254,-46.75,0.68,1.06,3a
2019-07-15_172013:100,-0.47332799999999997,0.000488,-0.151489,-0.003725,-0.001141,0.002376,-46.75,0.68,1.06,3a
2019-07-15_172013:120,-0.47332799999999997,-0.000488,-0.151001,-0.0038770000000000002,-0.001446,0.0024059999999999997,-46.75,1.5,3.06,3a
2019-07-15_172013:140,-0.477905,-0.001007,-0.152527,-0.0038469999999999997,-0.001782,0.0021920000000000004,-46.75,1.5,3.06,3a
2019-07-15_172013:160,-0.47842399999999996,-0.001007,-0.153534,-0.0036030000000000003,-0.001537,0.002376,-46.369999,0.68,2.18,3a
2019-07-15_172013:180,-0.47842399999999996,-0.001007,-0.151001,-0.0034799999999999996,-0.001263,0.002131,-46.369999,0.68,2.18,3a
2019-07-15_172013:200,-0.473846,-0.001495,-0.151489,-0.0033280000000000002,-0.001202,0.0017350000000000002,-46.369999,0.68,2.18,3a
2019-07-15_172013:220,-0.475372,0.0,-0.150482,-0.003145,-0.001446,0.001582,-46.75,1.06,2.56,3a
2019-07-15_172013:240,-0.477386,0.000488,-0.151489,-0.0029620000000000002,-0.00172,0.0016129999999999999,-46.75,1.06,2.56,3a
2019-07-15_172013:260,-0.476379,0.0,-0.151001,-0.002748,-0.001843,0.00146,-46.75,1.5,1.87,3a
2019-07-15_172013:280,-0.474854,-0.000488,-0.149963,-0.00229,-0.001995,0.0012460000000000001,-46.75,1.5,1.87,3a
2019-07-15_172013:300,-0.474854,0.001495,-0.149963,-0.002046,-0.002514,0.001124,-46.75,1.5,1.87,3a
2019-07-15_172013:320,-0.476379,0.002014,-0.150482,-0.0017100000000000001,-0.002392,0.001277,-46.369999,0.68,2.18,3a
2019-07-15_172013:340,-0.484009,0.002014,-0.153015,-0.001894,-0.0023309999999999997,0.001277,-46.369999,0.68,2.18,3a
2019-07-15_172013:360,-0.47943100000000005,0.005065999999999999,-0.153534,-0.001497,-0.001873,0.001918,-46.369999,0.68,1.87,3a
2019-07-15_172013:380,-0.473846,0.005065999999999999,-0.151489,-0.0016190000000000002,-0.001843,0.002254,-46.369999,0.68,1.87,3a
2019-07-15_172013:400,-0.47280900000000003,0.006072999999999999,-0.154022,-0.0016489999999999999,-0.0021780000000000002,0.001277,-46.369999,0.68,1.87,3a
2019-07-15_172013:420,-0.471283,0.006592,-0.154541,-0.001894,-0.0024530000000000003,0.001521,-46.369999,0.37,1.87,3a
2019-07-15_172013:440,-0.475861,0.006592,-0.155548,-0.002229,-0.002605,0.0021920000000000004,-46.369999,0.37,1.87,3a
2019-07-15_172013:460,-0.47689799999999993,0.004547,-0.15506,-0.002229,-0.00227,0.0028940000000000003,-46.75,1.06,2.56,3a
2019-07-15_172013:480,-0.473846,0.0035399999999999997,-0.15506,-0.001894,-0.0020559999999999997,0.0034130000000000002,-46.75,1.06,2.56,3a
2019-07-15_172013:500,-0.47180200000000005,0.004059,-0.157074,-0.0017100000000000001,-0.0021780000000000002,0.004085,-46.75,1.06,2.56,3a
2019-07-15_172013:520,-0.476379,0.005065999999999999,-0.157074,-0.002229,-0.001934,0.003871,-46.369999,0.37,2.18,3a
2019-07-15_172013:540,-0.477386,0.006072999999999999,-0.157074,-0.0026260000000000003,-0.0020559999999999997,0.004024,-46.369999,0.37,2.18,3a
2019-07-15_172013:560,-0.475372,0.0055850000000000006,-0.159637,-0.003206,-0.001782,0.004481000000000001,-46.75,1.5,2.56,3a
2019-07-15_172013:580,-0.474854,0.005065999999999999,-0.159637,-0.003999,-0.001873,0.004024,-46.75,1.5,2.56,3a
2019-07-15_172013:600,-0.475861,0.0025329999999999997,-0.160126,-0.004518,-0.001995,0.0036270000000000004,-46.75,1.5,2.56,3a
2019-07-15_172013:620,-0.475861,0.002014,-0.160645,-0.005006,-0.001843,0.0034130000000000002,-39.5,1.5,2.18,3a
2019-07-15_172013:640,-0.47995,-0.000488,-0.160645,-0.004915,-0.001141,0.0036270000000000004,-39.5,1.5,2.18,3a
2019-07-15_172013:660,-0.478912,-0.001007,-0.160126,-0.004121,-0.000225,0.0035659999999999997,-47.060001,0.68,2.18,3a
2019-07-15_172013:680,-0.477905,-0.001495,-0.158112,-0.003999,-0.000164,0.0036270000000000004,-47.060001,0.68,2.18,3a
2019-07-15_172013:700,-0.476379,0.0,-0.156586,-0.003664,-0.000164,0.003505,-47.060001,0.68,2.18,3a
2019-07-15_172013:720,-0.476379,0.001007,-0.153534,-0.003725,0.00011100000000000001,0.0035659999999999997,-46.369999,1.06,0.68,3a
2019-07-15_172013:740,-0.477905,0.001495,-0.153534,-0.0038469999999999997,5e-05,0.00381,-46.369999,1.06,0.68,3a
2019-07-15_172013:760,-0.477386,0.001007,-0.154022,-0.004182,0.00035499999999999996,0.003871,-46.75,0.68,1.06,3a
2019-07-15_172013:780,-0.477905,0.001495,-0.151489,-0.004854,0.000233,0.00381,-46.75,0.68,1.06,3a
2019-07-15_172013:800,-0.47332799999999997,0.000488,-0.151489,-0.005128,0.00011100000000000001,0.003871,-46.75,0.68,1.06,3a
2019-07-15_172013:820,-0.47280900000000003,-0.001495,-0.151489,-0.005128,1.9e-05,0.00381,-46.369999,1.87,1.37,3a
2019-07-15_172013:840,-0.47079499999999996,-0.002014,-0.151001,-0.004793,-0.0006219999999999999,0.0036270000000000004,-46.369999,1.87,1.37,3a
2019-07-15_172013:860,-0.472321,-0.0030210000000000002,-0.154541,-0.004671,-0.00108,0.003505,-47.18,1.06,1.37,3a
2019-07-15_172013:880,-0.477905,-0.0030210000000000002,-0.154022,-0.0039380000000000005,-0.001598,0.003474,-47.18,1.06,1.37,3a
2019-07-15_172013:900,-0.476379,-0.001007,-0.154541,-0.0036030000000000003,-0.001934,0.003871,-47.18,1.06,1.37,3a
2019-07-15_172013:920,-0.474854,0.0,-0.15506,-0.00345,-0.00172,0.004024,-46.75,1.06,2.18,3a
2019-07-15_172013:940,-0.477905,-0.001495,-0.15506,-0.003206,-0.001385,0.002254,-46.75,1.06,2.18,3a
2019-07-15_172013:960,-0.477386,0.0,-0.157074,-0.003145,-0.001324,0.002376,-47.18,1.06,3.06,3a
2019-07-15_172013:980,-0.47433500000000006,0.0,-0.156586,-0.003023,-0.001019,0.0031079999999999997,-47.18,1.06,3.06,3a
2019-07-15_172014:000,-0.47433500000000006,0.0,-0.157593,-0.002687,-0.001019,0.0034130000000000002,-47.18,1.06,3.06,3a
2019-07-15_172014:020,-0.477905,0.0,-0.158112,-0.00229,-0.0007740000000000001,0.003963,-46.75,1.06,2.18,3a
2019-07-15_172014:040,-0.47689799999999993,0.0,-0.156586,-0.002443,-0.0005610000000000001,0.004146,-46.75,1.06,2.18,3a
2019-07-15_172014:060,-0.476379,0.0,-0.157074,-0.002687,-0.00037799999999999997,0.00381,-46.75,0.68,1.87,3a
2019-07-15_172014:080,-0.476379,0.0,-0.157593,-0.003114,-0.000286,0.0036270000000000004,-46.75,0.68,1.87,3a
2019-07-15_172014:100,-0.475861,0.0,-0.156586,-0.0034799999999999996,-0.000225,0.003871,-46.75,0.68,1.87,3a
2019-07-15_172014:120,-0.474854,-0.002014,-0.156067,-0.004121,1.9e-05,0.003505,-46.75,1.06,1.87,3a
2019-07-15_172014:140,-0.475372,-0.0025329999999999997,-0.154541,-0.003999,-0.000103,0.003169,-46.75,1.06,1.87,3a
2019-07-15_172014:160,-0.47332799999999997,-0.004059,-0.154022,-0.003542,-0.000225,0.002833,-47.5,1.06,1.37,3a
2019-07-15_172014:180,-0.473846,-0.004547,-0.154541,-0.0029620000000000002,-4.2e-05,0.0028940000000000003,-47.5,1.06,1.37,3a
2019-07-15_172014:200,-0.476379,-0.0030210000000000002,-0.154022,-0.002565,-0.0005,0.0031079999999999997,-47.5,1.06,1.37,3a
2019-07-15_172014:220,-0.475861,-0.0030210000000000002,-0.154022,-0.002443,-0.00037799999999999997,0.0028940000000000003,-46.75,1.06,2.18,3a
2019-07-15_172014:240,-0.47689799999999993,-0.000488,-0.153015,-0.0023510000000000002,-0.000286,0.003078,-46.75,1.06,2.18,3a
2019-07-15_172014:260,-0.477905,0.000488,-0.152527,-0.0025039999999999997,-0.00034700000000000003,0.003078,-47.18,0.68,1.87,3a
2019-07-15_172014:280,-0.477386,0.001495,-0.152008,-0.0033280000000000002,-0.000103,0.003078,-47.18,0.68,1.87,3a
2019-07-15_172014:300,-0.476379,0.0,-0.152527,-0.00345,0.00035499999999999996,0.003078,-47.18,0.68,1.87,3a
2019-07-15_172014:320,-0.474854,0.0,-0.153015,-0.0038770000000000002,-4.2e-05,0.002833,-46.75,1.87,2.18,3a
2019-07-15_172014:340,-0.473846,-0.001007,-0.151489,-0.004182,-0.00037799999999999997,0.0027719999999999997,-46.75,1.87,2.18,3a
2019-07-15_172014:360,-0.474854,-0.001007,-0.151489,-0.003999,-0.001019,0.0027719999999999997,-46.75,1.5,1.87,3a
2019-07-15_172014:380,-0.47842399999999996,-0.0030210000000000002,-0.152527,-0.0039380000000000005,-0.0007440000000000001,0.0027719999999999997,-46.75,1.5,1.87,3a
2019-07-15_172014:400,-0.47842399999999996,-0.0030210000000000002,-0.152527,-0.00345,-0.0005,0.0031079999999999997,-46.75,1.5,1.87,3a
2019-07-15_172014:420,-0.477386,-0.0035399999999999997,-0.153015,-0.003114,-0.00034700000000000003,0.0031079999999999997,-47.18,1.5,2.18,3a
2019-07-15_172014:440,-0.475861,0.0,-0.152008,-0.002748,1.9e-05,0.003016,-47.18,1.5,2.18,3a
2019-07-15_172014:460,-0.476379,-0.002014,-0.152527,-0.0026260000000000003,-0.000286,0.002955,-47.060001,1.87,3.0,3a
2019-07-15_172014:480,-0.47943100000000005,-0.001007,-0.151001,-0.002748,-0.000103,0.002711,-47.060001,1.87,3.0,3a
2019-07-15_172014:500,-0.476379,0.0,-0.150482,-0.0029010000000000004,-0.000225,0.0028940000000000003,-47.060001,1.87,3.0,3a
2019-07-15_172014:520,-0.475861,-0.001495,-0.152008,-0.003084,-0.000103,0.003016,-46.369999,1.87,1.87,3a
2019-07-15_172014:540,-0.475372,-0.0030210000000000002,-0.149475,-0.003023,-0.000225,0.00207,-46.369999,1.87,1.87,3a
2019-07-15_172014:560,-0.47280900000000003,-0.002014,-0.151489,-0.003084,-0.000286,0.00146,-47.18,2.18,2.18,3a
2019-07-15_172014:580,-0.473846,-0.001495,-0.149475,-0.002382,-0.0007740000000000001,0.00207,-47.18,2.18,2.18,3a
2019-07-15_172014:600,-0.474854,-0.0030210000000000002,-0.14843800000000001,-0.001894,-0.0011099999999999999,0.002589,-47.18,2.18,2.18,3a
2019-07-15_172014:620,-0.47433500000000006,0.0,-0.148956,-0.001558,-0.001019,0.003016,-46.369999,1.87,2.18,3a
2019-07-15_172014:640,-0.47332799999999997,0.001495,-0.14743,-0.001314,-0.001385,0.0036270000000000004,-46.369999,1.87,2.18,3a
2019-07-15_172014:660,-0.477386,0.000488,-0.14843800000000001,-0.0016489999999999999,-0.002117,0.0036270000000000004,-46.75,1.87,2.56,3a
2019-07-15_172014:680,-0.477905,0.000488,-0.151489,-0.002229,-0.0021780000000000002,0.00323,-46.75,1.87,2.56,3a
2019-07-15_172014:700,-0.47689799999999993,0.000488,-0.151001,-0.003084,-0.002392,0.0032909999999999997,-46.75,1.87,2.56,3a
2019-07-15_172014:720,-0.47689799999999993,-0.0035399999999999997,-0.151489,-0.003542,-0.002392,0.00323,-46.369999,1.06,2.56,3a
2019-07-15_172014:740,-0.475861,-0.004059,-0.150482,-0.003542,-0.001995,0.0028940000000000003,-46.369999,1.06,2.56,3a
2019-07-15_172014:760,-0.47433500000000006,-0.0055850000000000006,-0.152527,-0.0034799999999999996,-0.0021780000000000002,0.002711,-46.369999,1.06,2.56,3a
2019-07-15_172014:780,-0.475861,-0.004547,-0.153534,-0.0032670000000000004,-0.0021780000000000002,0.0024059999999999997,-46.75,1.5,2.18,3a
2019-07-15_172014:800,-0.477386,-0.004547,-0.153534,-0.0026260000000000003,-0.002239,0.002467,-46.75,1.5,2.18,3a
2019-07-15_172014:820,-0.47995,-0.0025329999999999997,-0.154541,-0.002107,-0.0021780000000000002,0.002376,-47.18,1.87,2.56,3a
2019-07-15_172014:840,-0.47842399999999996,-0.001007,-0.152008,-0.001497,-0.001843,0.002742,-47.18,1.87,2.56,3a
2019-07-15_172014:860,-0.475372,0.0,-0.153015,-0.001771,-0.001446,0.002955,-47.18,1.87,2.56,3a
2019-07-15_172014:880,-0.474854,0.001007,-0.152008,-0.002107,-0.0016589999999999999,0.0031079999999999997,-47.18,0.37,1.87,3a
2019-07-15_172014:900,-0.47433500000000006,-0.001007,-0.153534,-0.002687,-0.001843,0.002833,-47.18,0.37,1.87,3a
2019-07-15_172014:920,-0.475861,-0.000488,-0.155548,-0.003114,-0.001873,0.0027719999999999997,-47.18,1.5,2.56,3a
2019-07-15_172014:940,-0.477905,-0.001007,-0.153015,-0.003206,-0.001873,0.002955,-47.18,1.5,2.56,3a
2019-07-15_172014:960,-0.478912,-0.001007,-0.15506,-0.003786,-0.001782,0.00323,-47.18,1.5,2.56,3a
2019-07-15_172014:980,-0.477905,-0.002014,-0.154541,-0.003542,-0.001141,0.0032909999999999997,-46.369999,0.37,2.56,3a
2019-07-15_172015:000,-0.476379,-0.0025329999999999997,-0.154022,-0.003389,-0.001019,0.0033520000000000004,-46.369999,0.37,2.56,3a
2019-07-15_172015:020,-0.477386,-0.002014,-0.154541,-0.00345,-0.0008349999999999999,0.003505,-46.75,1.87,1.06,3a
2019-07-15_172015:040,-0.476379,-0.001495,-0.152527,-0.0036030000000000003,-0.0006219999999999999,0.0036880000000000003,-46.75,1.87,1.06,3a
2019-07-15_172015:060,-0.476379,-0.0030210000000000002,-0.154022,-0.003664,-0.0006219999999999999,0.0036270000000000004,-46.75,1.87,1.06,3a
2019-07-15_172015:080,-0.476379,-0.0035399999999999997,-0.153534,-0.0038469999999999997,-0.0006219999999999999,0.0033520000000000004,-47.5,0.68,1.87,3a
2019-07-15_172015:100,-0.474854,-0.0025329999999999997,-0.152527,-0.003725,-0.000439,0.0033520000000000004,-47.5,0.68,1.87,3a
2019-07-15_172015:120,-0.474854,-0.0030210000000000002,-0.152008,-0.003999,-0.0008349999999999999,0.003505,-46.75,0.68,-0.06,3a
2019-07-15_172015:140,-0.48043800000000003,-0.004547,-0.149963,-0.003786,-0.0011099999999999999,0.00323,-46.75,0.68,-0.06,3a
2019-07-15_172015:160,-0.478912,-0.0035399999999999997,-0.151489,-0.0034799999999999996,-0.000683,0.003078,-46.75,0.68,-0.06,3a
2019-07-15_172015:180,-0.47280900000000003,-0.0035399999999999997,-0.150482,-0.003725,-0.000439,0.003474,-47.18,1.06,1.06,3a
2019-07-15_172015:200,-0.47433500000000006,-0.004547,-0.153015,-0.0038770000000000002,-0.0008349999999999999,0.002833,-47.18,1.06,1.06,3a
2019-07-15_172015:220,-0.47180200000000005,-0.0025329999999999997,-0.153015,-0.00345,-0.001263,0.0017350000000000002,-46.75,1.87,0.68,3a
2019-07-15_172015:240,-0.477386,-0.004059,-0.154022,-0.003145,-0.0020559999999999997,0.002315,-46.75,1.87,0.68,3a
2019-07-15_172015:260,-0.47943100000000005,-0.0035399999999999997,-0.153015,-0.002748,-0.0016589999999999999,0.002955,-46.75,1.87,0.68,3a
2019-07-15_172015:280,-0.47842399999999996,-0.0025329999999999997,-0.154022,-0.002046,-0.0007440000000000001,0.003901,-46.369999,1.06,1.87,3a
2019-07-15_172015:300,-0.475372,0.0,-0.153534,-0.0025039999999999997,-0.0005,0.003901,-46.369999,1.06,1.87,3a
2019-07-15_172015:320,-0.475372,0.0,-0.154022,-0.002748,-0.000958,0.0035659999999999997,-47.5,0.68,1.87,3a
2019-07-15_172015:340,-0.476379,0.0,-0.152527,-0.0034799999999999996,-0.001019,0.0036270000000000004,-47.5,0.68,1.87,3a
2019-07-15_172015:360,-0.477386,0.0,-0.152008,-0.004274,-0.000958,0.004146,-47.5,0.68,1.87,3a
2019-07-15_172015:380,-0.47995,-0.0055850000000000006,-0.151001,-0.004671,-0.0008349999999999999,0.003749,-46.75,1.5,2.56,3a
2019-07-15_172015:400,-0.476379,-0.007111,-0.152008,-0.004793,-0.000683,0.002955,-46.75,1.5,2.56,3a
2019-07-15_172015:420,-0.475372,-0.008118,-0.151489,-0.004518,-0.0007740000000000001,0.00323,-46.369999,1.5,3.06,3a
2019-07-15_172015:440,-0.475861,-0.007599,-0.151489,-0.004182,-0.0008349999999999999,0.0033520000000000004,-46.369999,1.5,3.06,3a
2019-07-15_172015:460,-0.475861,-0.006592,-0.152527,-0.0036030000000000003,-0.001324,0.00323,-46.369999,1.5,3.06,3a
2019-07-15_172015:480,-0.47842399999999996,-0.006592,-0.151489,-0.003084,-0.000897,0.003505,-47.18,1.87,3.75,3a
2019-07-15_172015:500,-0.477386,-0.0035399999999999997,-0.150482,-0.002779,-0.0008349999999999999,0.003169,-47.18,1.87,3.75,3a
2019-07-15_172015:520,-0.476379,-0.0035399999999999997,-0.151489,-0.003023,-0.0005,0.0028940000000000003,-47.18,2.18,3.37,3a
2019-07-15_172015:540,-0.47433500000000006,-0.0035399999999999997,-0.149963,-0.003389,-0.000683,0.0027719999999999997,-47.18,2.18,3.37,3a
2019-07-15_172015:560,-0.47433500000000006,-0.0035399999999999997,-0.151489,-0.00345,-0.00108,0.003016,-47.18,2.18,3.37,3a
2019-07-15_172015:580,-0.47433500000000006,-0.0035399999999999997,-0.152008,-0.00345,-0.001385,0.0031079999999999997,-47.18,1.87,1.37,3a
2019-07-15_172015:600,-0.475372,-0.004547,-0.152008,-0.0036030000000000003,-0.001537,0.0031079999999999997,-47.18,1.87,1.37,3a
2019-07-15_172015:620,-0.475861,-0.004547,-0.152008,-0.003114,-0.0011099999999999999,0.003078,-47.5,1.87,1.06,3a
2019-07-15_172015:640,-0.476379,-0.0055850000000000006,-0.151001,-0.003145,-0.001324,0.003169,-47.5,1.87,1.06,3a
2019-07-15_172015:660,-0.477905,-0.0035399999999999997,-0.153015,-0.003145,-0.001446,0.0031079999999999997,-47.5,1.87,1.06,3a
2019-07-15_172015:680,-0.475372,-0.004547,-0.153015,-0.0032670000000000004,-0.001446,0.0032909999999999997,-47.18,2.18,3.75,3a
2019-07-15_172015:700,-0.474854,-0.005065999999999999,-0.153015,-0.0033280000000000002,-0.0014759999999999999,0.0032909999999999997,-47.18,2.18,3.75,3a
2019-07-15_172015:720,-0.475861,-0.007111,-0.15506,-0.00345,-0.001446,0.003016,-46.75,1.87,2.56,3a
2019-07-15_172015:740,-0.476379,-0.0055850000000000006,-0.154022,-0.003145,-0.0014759999999999999,0.0028940000000000003,-46.75,1.87,2.56,3a
2019-07-15_172015:760,-0.475861,-0.006072999999999999,-0.15506,-0.003084,-0.0014759999999999999,0.0027719999999999997,-46.75,1.87,2.56,3a
2019-07-15_172015:780,-0.48196400000000006,-0.006592,-0.153534,-0.003023,-0.001385,0.002467,-47.5,1.87,2.18,3a
2019-07-15_172015:800,-0.47689799999999993,-0.004547,-0.152527,-0.0029010000000000004,-0.001202,0.0027719999999999997,-47.5,1.87,2.18,3a
2019-07-15_172015:820,-0.47689799999999993,-0.005065999999999999,-0.152527,-0.002687,-0.000958,0.0031079999999999997,-46.369999,2.18,1.37,3a
2019-07-15_172015:840,-0.473846,-0.005065999999999999,-0.151489,-0.002565,-0.0006219999999999999,0.00146,-46.369999,2.18,1.37,3a
2019-07-15_172015:860,-0.47332799999999997,-0.001495,-0.153015,-0.002565,-0.00108,0.001338,-46.369999,2.18,1.37,3a
2019-07-15_172015:880,-0.47943100000000005,-0.0035399999999999997,-0.153534,-0.0028399999999999996,-0.001324,0.0021920000000000004,-46.75,2.56,1.87,3a
2019-07-15_172015:900,-0.481476,-0.0030210000000000002,-0.152008,-0.002687,-0.0007440000000000001,0.0024059999999999997,-46.75,2.56,1.87,3a
2019-07-15_172015:920,-0.47842399999999996,-0.0035399999999999997,-0.150482,-0.0023510000000000002,-0.00034700000000000003,0.0027719999999999997,-47.18,1.5,2.18,3a
2019-07-15_172015:940,-0.47280900000000003,-0.0025329999999999997,-0.151001,-0.002107,-0.000103,0.003078,-47.18,1.5,2.18,3a
2019-07-15_172015:960,-0.473846,-0.0025329999999999997,-0.151001,-0.002565,-0.0008349999999999999,0.002955,-47.18,1.5,2.18,3a
2019-07-15_172015:980,-0.474854,-0.001495,-0.150482,-0.002687,-0.000897,0.002955,-46.369999,1.5,2.18,3a
2019-07-15_172016:000,-0.477905,0.0,-0.151001,-0.003084,-0.000958,0.0035659999999999997,-46.369999,1.5,2.18,3a
2019-07-15_172016:020,-0.477905,-0.0030210000000000002,-0.151001,-0.003542,-0.00108,0.0036880000000000003,-47.5,1.87,2.18,3a
2019-07-15_172016:040,-0.475861,-0.0035399999999999997,-0.148956,-0.0039380000000000005,-0.000897,0.003078,-47.5,1.87,2.18,3a
2019-07-15_172016:060,-0.475372,-0.0035399999999999997,-0.151489,-0.00406,-0.001019,0.003078,-47.5,1.87,2.18,3a
2019-07-15_172016:080,-0.475861,-0.0055850000000000006,-0.150482,-0.00406,-0.001202,0.0033520000000000004,-46.0,1.87,1.87,3a
2019-07-15_172016:100,-0.477905,-0.006072999999999999,-0.151489,-0.003786,-0.00108,0.0031079999999999997,-46.0,1.87,1.87,3a
2019-07-15_172016:120,-0.48043800000000003,-0.006592,-0.153015,-0.0032670000000000004,-0.0011099999999999999,0.00323,-47.18,2.18,2.18,3a
2019-07-15_172016:140,-0.47995,-0.0055850000000000006,-0.152008,-0.003206,-0.00037799999999999997,0.0033520000000000004,-47.18,2.18,2.18,3a
2019-07-15_172016:160,-0.477905,-0.004547,-0.154022,-0.0029620000000000002,1.9e-05,0.0028940000000000003,-47.18,2.18,2.18,3a
2019-07-15_172016:180,-0.47689799999999993,-0.004059,-0.152008,-0.003145,0.000233,0.00265,-46.369999,2.18,1.87,3a
2019-07-15_172016:200,-0.478912,-0.005065999999999999,-0.153015,-0.003145,0.00038500000000000003,0.002467,-46.369999,2.18,1.87,3a
2019-07-15_172016:220,-0.478912,-0.004059,-0.152008,-0.003114,0.000294,0.002376,-45.68,2.18,1.87,3a
2019-07-15_172016:240,-0.47943100000000005,-0.0030210000000000002,-0.150482,-0.003114,0.000782,0.002376,-45.68,2.18,1.87,3a
2019-07-15_172016:260,-0.484009,-0.0030210000000000002,-0.149963,-0.003114,0.001575,0.002467,-45.68,2.18,1.87,3a
2019-07-15_172016:280,-0.48196400000000006,-0.002014,-0.149963,-0.003389,0.002827,0.002711,-46.369999,1.5,3.37,3a
2019-07-15_172016:300,-0.48706099999999997,-0.001007,-0.149475,-0.0034799999999999996,0.0035590000000000005,0.0028940000000000003,-46.369999,1.5,3.37,3a
2019-07-15_172016:320,-0.48654200000000003,-0.001007,-0.149963,-0.003786,0.004932,0.0032909999999999997,-46.75,1.06,2.18,3a
2019-07-15_172016:340,-0.491638,-0.0035399999999999997,-0.146912,-0.004335,0.006397,0.0034130000000000002,-46.75,1.06,2.18,3a
2019-07-15_172016:360,-0.494171,-0.0035399999999999997,-0.150482,-0.004335,0.00893,0.00381,-46.75,1.06,2.18,3a
2019-07-15_172016:380,-0.49365200000000004,-0.001007,-0.149475,-0.004396,0.011188,0.003901,-45.25,1.87,3.37,3a
2019-07-15_172016:400,-0.497742,-0.0025329999999999997,-0.145905,-0.005372999999999999,0.013569,0.003749,-45.25,1.87,3.37,3a
2019-07-15_172016:420,-0.497742,-0.0025329999999999997,-0.144897,-0.006135,0.016224000000000002,0.003963,-46.369999,1.87,3.06,3a
2019-07-15_172016:440,-0.495697,-0.004059,-0.142334,-0.006929,0.019215,0.003749,-46.369999,1.87,3.06,3a
2019-07-15_172016:460,-0.501282,-0.004547,-0.139282,-0.00757,0.021686,0.002376,-46.369999,1.87,3.06,3a
2019-07-15_172016:480,-0.502808,-0.004059,-0.134705,-0.007783,0.025379,0.0017350000000000002,-46.75,1.87,4.56,3a
2019-07-15_172016:500,-0.503326,-0.004059,-0.127594,-0.007783,0.02779,0.001796,-46.75,1.87,4.56,3a
2019-07-15_172016:520,-0.51297,-0.004059,-0.12658699999999998,-0.007844,0.030506000000000002,0.001979,-46.0,1.87,4.56,3a
2019-07-15_172016:540,-0.48754899999999995,-0.0035399999999999997,-0.12149000000000001,-0.007722,0.034351,0.001918,-46.0,1.87,4.56,3a
2019-07-15_172016:560,-0.47995,-0.005065999999999999,-0.11386099999999999,-0.007906,0.033894,0.001918,-46.0,1.87,4.56,3a
2019-07-15_172016:580,-0.47280900000000003,-0.0035399999999999997,-0.102692,-0.007631000000000001,0.032032,0.002742,-46.0,1.5,5.37,3a
2019-07-15_172016:600,-0.474854,-0.007111,-0.091003,-0.0071730000000000006,0.029560000000000003,0.003016,-46.0,1.5,5.37,3a
2019-07-15_172016:620,-0.47689799999999993,-0.005065999999999999,-0.08590700000000001,-0.006441,0.027514999999999998,0.003078,-46.0,1.87,5.75,3a
2019-07-15_172016:640,-0.49111899999999997,-0.004547,-0.078796,-0.006044,0.025988999999999998,0.0034130000000000002,-46.0,1.87,5.75,3a
2019-07-15_172016:660,-0.489075,-0.0035399999999999997,-0.07775900000000001,-0.005525,0.025379,0.0032909999999999997,-46.0,1.87,5.75,3a
2019-07-15_172016:680,-0.48858599999999996,-0.0055850000000000006,-0.068115,-0.005586,0.024403,0.002833,-45.68,1.06,9.0,3a
2019-07-15_172016:700,-0.49365200000000004,-0.004547,-0.06405599999999999,-0.004854,0.023548,0.0027719999999999997,-45.68,1.06,9.0,3a
2019-07-15_172016:720,-0.491638,-0.004547,-0.06149299999999999,-0.004518,0.023150999999999998,0.003474,-45.25,1.5,10.18,3a
2019-07-15_172016:740,-0.49316400000000005,-0.005065999999999999,-0.057953,-0.004121,0.02248,0.00381,-45.25,1.5,10.18,3a
2019-07-15_172016:760,-0.494171,-0.004547,-0.058960000000000005,-0.0033280000000000002,0.022205000000000003,0.003749,-45.25,1.5,10.18,3a
2019-07-15_172016:780,-0.494171,-0.006592,-0.050323,-0.0032670000000000004,0.021259,0.003505,-44.560001,2.56,10.56,3a
2019-07-15_172016:800,-0.486023,-0.006592,-0.041687,-0.0028399999999999996,0.019733,0.003078,-44.560001,2.56,10.56,3a
2019-07-15_172016:820,-0.492126,-0.006072999999999999,-0.039642000000000004,-0.002382,0.017841,0.0027719999999999997,-44.869999,1.06,11.37,3a
2019-07-15_172016:840,-0.494171,-0.0055850000000000006,-0.038116000000000004,-0.0016190000000000002,0.017109,0.0028940000000000003,-44.869999,1.06,11.37,3a
2019-07-15_172016:860,-0.495697,-0.005065999999999999,-0.032532,-0.001253,0.016315,0.002711,-44.869999,1.06,11.37,3a
2019-07-15_172016:880,-0.495697,-0.004547,-0.030487,-0.001222,0.015583000000000001,0.0021920000000000004,-44.869999,2.18,12.56,3a
2019-07-15_172016:900,-0.494171,-0.0055850000000000006,-0.020325,-0.0005809999999999999,0.014851,0.0021920000000000004,-44.869999,2.18,12.56,3a
2019-07-15_172016:920,-0.49316400000000005,-0.0055850000000000006,-0.017792,-0.000185,0.014118,0.0025280000000000003,-44.869999,1.87,13.68,3a
2019-07-15_172016:940,-0.49316400000000005,-0.002014,-0.010162000000000001,0.000151,0.013233000000000002,0.002955,-44.869999,1.87,13.68,3a
2019-07-15_172016:960,-0.494171,-0.000488,-0.011169,-0.000185,0.011585,0.0024059999999999997,-44.869999,1.87,13.68,3a
2019-07-15_172016:980,-0.505371,-0.001495,-0.009125,-0.000246,0.011066,0.0024059999999999997,-43.5,1.5,13.68,3a
2019-07-15_172017:000,-0.496216,-0.001495,-0.007599,-0.000307,0.010792,0.0031079999999999997,-43.5,1.5,13.68,3a
2019-07-15_172017:020,-0.496704,-0.002014,-0.008118,-0.000642,0.009845999999999999,0.003169,-38.25,1.87,13.25,3a
2019-07-15_172017:040,-0.49975600000000003,-0.004059,-0.004547,-0.000825,0.008076,0.002254,-38.25,1.87,13.25,3a
2019-07-15_172017:060,-0.48858599999999996,-0.002014,-0.006072999999999999,-0.001222,0.006672,0.0016129999999999999,-38.25,1.87,13.25,3a
2019-07-15_172017:080,-0.490601,-0.005065999999999999,-0.006072999999999999,-0.001039,0.004291,0.0017350000000000002,-43.369999,2.18,14.56,3a
2019-07-15_172017:100,-0.495697,-0.004059,-0.007599,-0.000825,0.0032840000000000005,0.0012460000000000001,-43.369999,2.18,14.56,3a
2019-07-15_172017:120,-0.501282,-0.001495,-0.007599,-0.000368,0.002888,0.00088,-43.68,1.06,16.18,3a
2019-07-15_172017:140,-0.49975600000000003,-0.001007,-0.0030210000000000002,9e-05,0.002369,0.000728,-43.68,1.06,16.18,3a
2019-07-15_172017:160,-0.501282,0.0,-0.004547,9e-05,0.0021550000000000002,0.0012460000000000001,-43.68,1.06,16.18,3a
2019-07-15_172017:180,-0.502319,-0.002014,-0.007599,-0.000307,0.002613,0.00265,-43.0,1.5,14.56,3a
2019-07-15_172017:200,-0.49975600000000003,-0.001495,-0.007111,0.000212,0.002613,0.0033520000000000004,-43.0,1.5,14.56,3a
2019-07-15_172017:220,-0.495697,-0.001495,-0.006072999999999999,-0.000429,0.001575,0.002955,-43.68,1.5,15.0,3a
2019-07-15_172017:240,-0.49316400000000005,0.0,-0.004547,-0.000642,0.000172,0.002711,-43.68,1.5,15.0,3a
2019-07-15_172017:260,-0.495697,0.0,-0.002014,-0.001161,-0.001263,0.003016,-43.68,1.5,15.0,3a
2019-07-15_172017:280,-0.497742,-0.0030210000000000002,-0.0030210000000000002,-0.001894,-0.0014759999999999999,0.003016,-43.369999,1.06,15.75,3a
2019-07-15_172017:300,-0.501282,-0.0035399999999999997,-0.0025329999999999997,-0.001771,-0.002117,0.002711,-43.369999,1.06,15.75,3a
2019-07-15_172017:320,-0.49926800000000005,-0.004547,-0.0025329999999999997,-0.001894,-0.00227,0.001857,-42.18,1.5,16.18,3a
2019-07-15_172017:340,-0.5048520000000001,-0.008636,-0.0055850000000000006,-0.001955,-0.001782,0.00146,-42.18,1.5,16.18,3a
2019-07-15_172017:360,-0.49926800000000005,-0.0035399999999999997,-0.002014,-0.001894,-0.0020559999999999997,0.001521,-42.18,1.5,16.18,3a
2019-07-15_172017:380,-0.49926800000000005,-0.005065999999999999,-0.006592,-0.001558,-0.00285,0.0012460000000000001,-42.560001,1.5,15.75,3a
2019-07-15_172017:400,-0.501282,-0.0055850000000000006,-0.0035399999999999997,-0.000246,-0.004131,-0.0009199999999999999,-42.560001,1.5,15.75,3a
2019-07-15_172017:420,-0.49975600000000003,-0.001007,-0.007599,9e-05,-0.004376,-0.001775,-43.369999,1.5,15.75,3a
2019-07-15_172017:440,-0.49926800000000005,0.002014,-0.008636,0.001616,-0.004589,-0.002202,-43.369999,1.5,15.75,3a
2019-07-15_172017:460,-0.502808,0.0025329999999999997,-0.009125,0.001952,-0.004894,-0.00147,-43.369999,1.5,15.75,3a
2019-07-15_172017:480,-0.505371,0.004059,-0.010162000000000001,0.002409,-0.004528,-0.000798,-53.18,1.5,16.18,3a
2019-07-15_172017:500,-0.506897,0.006592,-0.008636,0.002745,-0.003643,5.6000000000000006e-05,-53.18,1.5,16.18,3a
2019-07-15_172017:520,-0.511444,0.007111,-0.010162000000000001,0.003203,-0.003368,0.00027,-43.68,0.68,14.56,3a
2019-07-15_172017:540,-0.504333,0.008636,-0.009644,0.002928,-0.002728,0.001277,-43.68,0.68,14.56,3a
2019-07-15_172017:560,-0.501801,0.009125,-0.009644,0.002531,-0.0027890000000000002,0.002467,-43.68,0.68,14.56,3a
2019-07-15_172017:580,-0.497742,0.009125,-0.010162000000000001,0.002287,-0.002972,0.0028940000000000003,-44.5,0.68,15.75,3a
2019-07-15_172017:600,-0.494171,0.009125,-0.008118,0.001616,-0.003582,0.004085,-44.5,0.68,15.75,3a
2019-07-15_172017:620,-0.49722299999999997,0.008118,-0.007599,0.0014939999999999999,-0.003857,0.003901,-43.369999,0.06,14.56,3a
2019-07-15_172017:640,-0.49111899999999997,0.008636,-0.010162000000000001,0.001219,-0.004833,0.002742,-43.369999,0.06,14.56,3a
2019-07-15_172017:660,-0.501282,0.010162000000000001,-0.011687999999999999,0.00067,-0.005901,0.0036270000000000004,-43.369999,0.06,14.56,3a
2019-07-15_172017:680,-0.503845,0.009644,-0.018799,2.8999999999999997e-05,-0.0060539999999999995,0.004207,-43.68,1.06,14.56,3a
2019-07-15_172017:700,-0.50943,0.006072999999999999,-0.019318000000000002,-0.000917,-0.005383,0.00442,-43.68,1.06,14.56,3a
2019-07-15_172017:720,-0.512482,0.0055850000000000006,-0.021332,-0.0011,-0.004376,0.0042369999999999994,-43.369999,1.06,16.559998999999998,3a
2019-07-15_172017:740,-0.506897,0.004059,-0.01828,-0.0016190000000000002,-0.002392,0.004146,-43.369999,1.06,16.559998999999998,3a
2019-07-15_172017:760,-0.5048520000000001,0.004059,-0.016266,-0.0017100000000000001,-0.0020559999999999997,0.0036270000000000004,-43.369999,1.06,16.559998999999998,3a
2019-07-15_172017:780,-0.503326,0.004059,-0.017273,-0.0016190000000000002,-0.001598,0.003169,-43.0,0.68,14.56,3a
2019-07-15_172017:800,-0.496704,0.004059,-0.016753999999999998,-0.001558,-0.0020559999999999997,0.0027719999999999997,-43.0,0.68,14.56,3a
2019-07-15_172017:820,-0.495697,0.005065999999999999,-0.01828,-0.001558,-0.0020559999999999997,0.0027719999999999997,-43.0,0.68,14.56,3a
2019-07-15_172017:840,-0.49111899999999997,0.004547,-0.016753999999999998,-0.001222,-0.003643,0.0016129999999999999,-43.369999,0.06,15.37,3a
2019-07-15_172017:860,-0.49517799999999995,0.008636,-0.019318000000000002,-0.001558,-0.004772,0.002254,-43.369999,0.06,15.37,3a
2019-07-15_172017:880,-0.503845,0.0055850000000000006,-0.019318000000000002,-0.001771,-0.005229999999999999,0.0035659999999999997,-43.68,0.37,14.56,3a
2019-07-15_172017:900,-0.507904,0.0055850000000000006,-0.019318000000000002,-0.0019850000000000002,-0.004925,0.0028940000000000003,-43.68,0.37,14.56,3a
2019-07-15_172017:920,-0.511444,0.007111,-0.018799,-0.0019850000000000002,-0.004101,0.002742,-43.68,0.37,14.56,3a
2019-07-15_172017:940,-0.509918,0.006592,-0.017273,-0.0017100000000000001,-0.00227,0.002315,-44.060001,0.37,13.75,3a
2019-07-15_172017:960,-0.498749,0.008118,-0.020325,-0.001436,-0.001843,0.001582,-44.060001,0.37,13.75,3a
2019-07-15_172017:980,-0.49823,0.011169,-0.022858,-0.0018329999999999998,-0.003002,0.002467,-44.5,0.06,15.37,3a
2019-07-15_172018:000,-0.504333,0.009644,-0.01828,-0.002687,-0.002972,0.0042369999999999994,-44.5,0.06,15.37,3a
2019-07-15_172018:020,-0.511444,0.008118,-0.016753999999999998,-0.0032670000000000004,-0.001446,0.005214,-44.5,0.06,15.37,3a
2019-07-15_172018:040,-0.509918,0.006072999999999999,-0.014221000000000001,-0.0036030000000000003,0.0005679999999999999,0.005214,-43.0,0.06,14.56,3a
2019-07-15_172018:060,-0.501801,0.0055850000000000006,-0.012695,-0.004396,0.001301,0.0042369999999999994,-43.0,0.06,14.56,3a
2019-07-15_172018:080,-0.49111899999999997,0.006592,-0.013702,-0.005464,0.000233,0.003963,-43.68,0.37,14.18,3a
2019-07-15_172018:100,-0.48300200000000004,0.0035399999999999997,-0.013702,-0.006441,-0.00172,0.0031079999999999997,-43.68,0.37,14.18,3a
2019-07-15_172018:120,-0.49365200000000004,0.001007,-0.015228,-0.006929,-0.003368,0.00265,-43.68,0.37,14.18,3a
2019-07-15_172018:140,-0.500793,-0.0035399999999999997,-0.015228,-0.006837,-0.0035210000000000003,0.00323,-44.75,0.68,13.0,3a
2019-07-15_172018:160,-0.501282,-0.007111,-0.01828,-0.005464,-0.003246,0.003169,-44.75,0.68,13.0,3a
2019-07-15_172018:180,-0.501282,-0.008118,-0.020325,-0.0036030000000000003,-0.004131,0.003078,-43.369999,0.37,15.37,3a
2019-07-15_172018:200,-0.49722299999999997,-0.008636,-0.020844,-0.001375,-0.004925,0.003016,-43.369999,0.37,15.37,3a
2019-07-15_172018:220,-0.498749,-0.0055850000000000006,-0.023375999999999997,0.001158,-0.005718,0.002467,-43.369999,0.37,15.37,3a
2019-07-15_172018:240,-0.502319,-0.001007,-0.029968,0.002409,-0.006115,0.003505,-44.5,0.37,13.75,3a
2019-07-15_172018:260,-0.501282,0.0,-0.029968,0.003264,-0.006298,0.005763,-44.5,0.37,13.75,3a
2019-07-15_172018:280,-0.506897,-0.001495,-0.030487,0.003539,-0.005779,0.0061600000000000005,-44.5,0.68,13.37,3a
2019-07-15_172018:300,-0.5073850000000001,-0.0025329999999999997,-0.030487,0.003996,-0.00465,0.006801000000000001,-44.5,0.68,13.37,3a
2019-07-15_172018:320,-0.510437,-0.0030210000000000002,-0.029480000000000003,0.0040880000000000005,-0.003399,0.007258,-44.5,0.68,13.37,3a
2019-07-15_172018:340,-0.5119630000000001,-0.0030210000000000002,-0.024902,0.0040880000000000005,-0.001934,0.00674,-44.060001,1.06,13.0,3a
2019-07-15_172018:360,-0.511444,-0.002014,-0.022858,0.0036,5e-05,0.006129,-44.060001,1.06,13.0,3a
2019-07-15_172018:380,-0.509918,0.001495,-0.021851,0.002562,0.0018809999999999999,0.005214,-44.060001,0.37,13.37,3a
2019-07-15_172018:400,-0.500275,0.001007,-0.017792,0.001006,0.0030399999999999997,0.003901,-44.060001,0.37,13.37,3a
2019-07-15_172018:420,-0.495697,0.002014,-0.019318000000000002,-0.000246,0.002888,0.002376,-44.060001,0.37,13.37,3a
2019-07-15_172018:440,-0.48754899999999995,0.0030210000000000002,-0.021332,-0.0018329999999999998,0.001484,0.000941,-43.68,0.68,13.37,3a
2019-07-15_172018:460,-0.489075,0.002014,-0.020844,-0.003664,-0.000225,0.001185,-43.68,0.68,13.37,3a
2019-07-15_172018:480,-0.496216,0.0,-0.022369,-0.004518,-0.0016589999999999999,0.0024059999999999997,-44.060001,1.06,14.56,3a
2019-07-15_172018:500,-0.49823,-0.004059,-0.022369,-0.005006,-0.001995,0.002833,-44.060001,1.06,14.56,3a
2019-07-15_172018:520,-0.502808,-0.006592,-0.024902,-0.004396,-0.002239,0.0032909999999999997,-44.060001,1.06,14.56,3a
2019-07-15_172018:540,-0.508423,-0.0025329999999999997,-0.024902,-0.0032670000000000004,-0.001995,0.0027719999999999997,-44.060001,0.68,14.18,3a
2019-07-15_172018:560,-0.503845,-0.0030210000000000002,-0.026427999999999997,-0.0025039999999999997,-0.002239,0.003016,-44.060001,0.68,14.18,3a
2019-07-15_172018:580,-0.501282,0.0,-0.026917,-0.002046,-0.001934,0.0042369999999999994,-43.68,0.68,14.18,3a
2019-07-15_172018:600,-0.500275,-0.0025329999999999997,-0.025908999999999998,-0.0025039999999999997,-0.001019,0.006862,-43.68,0.68,14.18,3a
2019-07-15_172018:620,-0.500793,-0.009125,-0.027435,-0.0029010000000000004,-0.000958,0.006679000000000001,-43.68,0.68,14.18,3a
2019-07-15_172018:640,-0.503326,-0.009125,-0.025421,-0.003114,-0.001019,0.00442,-43.68,0.68,14.18,3a
2019-07-15_172018:660,-0.506378,-0.011687999999999999,-0.025421,-0.0029620000000000002,-0.0007740000000000001,0.002955,-43.68,0.68,14.18,3a
2019-07-15_172018:680,-0.508911,-0.011169,-0.022858,-0.0029010000000000004,-0.000286,0.002254,-43.68,1.87,13.75,3a
2019-07-15_172018:700,-0.508911,-0.011687999999999999,-0.020844,-0.0029010000000000004,0.000629,0.001979,-43.68,1.87,13.75,3a
2019-07-15_172018:720,-0.505371,-0.011169,-0.020844,-0.002687,0.001484,0.001796,-43.68,1.87,13.75,3a
2019-07-15_172018:740,-0.497742,-0.009644,-0.022858,-0.0026260000000000003,0.002613,0.0010019999999999999,-44.060001,1.5,12.68,3a
2019-07-15_172018:760,-0.492645,-0.007599,-0.020325,-0.002046,0.00182,0.000148,-44.060001,1.5,12.68,3a
2019-07-15_172018:780,-0.49823,-0.006072999999999999,-0.020844,-0.0025039999999999997,0.0007509999999999999,-0.001042,-43.68,1.06,13.37,3a
2019-07-15_172018:800,-0.502319,-0.0035399999999999997,-0.01828,-0.002779,0.000294,-0.000646,-43.68,1.06,13.37,3a
2019-07-15_172018:820,-0.507904,-0.006072999999999999,-0.015747,-0.003389,0.0006900000000000001,0.0010019999999999999,-43.68,1.06,13.37,3a
2019-07-15_172018:840,-0.508423,-0.007111,-0.015747,-0.0029010000000000004,0.002491,0.000606,-44.560001,0.37,14.18,3a
2019-07-15_172018:860,-0.504333,-0.005065999999999999,-0.014221000000000001,-0.002107,0.0036200000000000004,-0.000737,-44.560001,0.37,14.18,3a
2019-07-15_172018:880,-0.497742,-0.0035399999999999997,-0.014740000000000001,-0.0011,0.003498,-0.001927,-43.68,0.37,14.56,3a
2019-07-15_172018:900,-0.49316400000000005,0.001495,-0.014221000000000001,-0.000429,0.002827,-0.002172,-43.68,0.37,14.56,3a
2019-07-15_172018:920,-0.494171,0.0030210000000000002,-0.015747,-9.300000000000001e-05,0.00124,-0.001592,-43.68,0.37,14.56,3a
2019-07-15_172018:940,-0.492645,0.004547,-0.014740000000000001,-0.000459,-0.000439,-0.000401,-44.18,0.37,13.0,3a
2019-07-15_172018:960,-0.497742,0.0035399999999999997,-0.014740000000000001,-0.001039,-0.001598,0.0010019999999999999,-44.18,0.37,13.0,3a
2019-07-15_172018:980,-0.492126,0.001495,-0.014740000000000001,-0.0011,-0.002392,0.00265,-44.060001,-0.25,13.37,3a
2019-07-15_172019:000,-0.495697,0.001495,-0.012177,-0.001161,-0.0031850000000000003,0.004085,-44.060001,-0.25,13.37,3a
2019-07-15_172019:020,-0.511444,0.0,-0.010651,-0.000978,-0.004101,0.004695,-44.060001,-0.25,13.37,3a
2019-07-15_172019:040,-0.5134890000000001,0.002014,-0.011169,-0.000307,-0.0035210000000000003,0.00381,-44.060001,-0.25,15.0,3a
2019-07-15_172019:060,-0.506378,0.0035399999999999997,-0.012695,-0.0005809999999999999,-0.001782,0.00207,-44.060001,-0.25,15.0,3a
2019-07-15_172019:080,-0.501801,0.004547,-0.018799,-0.001039,-0.001019,0.000789,-43.68,-0.68,14.18,3a
2019-07-15_172019:100,-0.495697,0.004059,-0.017273,-0.002229,-0.001202,5.6000000000000006e-05,-43.68,-0.68,14.18,3a
2019-07-15_172019:120,-0.494171,0.004059,-0.01828,-0.003206,-0.001873,-0.000188,-43.68,-0.68,14.18,3a
2019-07-15_172019:140,-0.502808,0.001495,-0.020325,-0.004243,-0.002117,0.000392,-43.68,0.06,13.37,3a
2019-07-15_172019:160,-0.506378,0.0,-0.019806,-0.004335,-0.0016589999999999999,0.00088,-43.68,0.06,13.37,3a
2019-07-15_172019:180,-0.505371,-0.001007,-0.019318000000000002,-0.00345,-0.0006219999999999999,-0.000127,-44.060001,0.37,14.56,3a
2019-07-15_172019:200,-0.504333,-0.000488,-0.01828,-0.002748,-0.00034700000000000003,-0.000859,-44.060001,0.37,14.56,3a
2019-07-15_172019:220,-0.49926800000000005,0.0035399999999999997,-0.019318000000000002,-0.001314,-0.00034700000000000003,-0.0023239999999999997,-44.060001,0.37,14.56,3a
2019-07-15_172019:240,-0.496704,0.009125,-0.019318000000000002,-0.000459,-0.0011099999999999999,-0.003118,-43.68,0.37,12.68,3a
2019-07-15_172019:260,-0.496704,0.012177,-0.019806,-0.0007030000000000001,-0.001782,-0.003392,-43.68,0.37,12.68,3a
2019-07-15_172019:280,-0.49823,0.016266,-0.020844,-0.001253,-0.00227,-0.003392,-43.68,-0.25,14.18,3a
2019-07-15_172019:300,-0.495697,0.017792,-0.020325,-0.001771,-0.002575,-0.00324,-43.68,-0.25,14.18,3a
2019-07-15_172019:320,-0.5048520000000001,0.019806,-0.019318000000000002,-0.002687,-0.002605,-0.0039109999999999995,-43.68,-0.25,14.18,3a
2019-07-15_172019:340,-0.503326,0.023375999999999997,-0.020844,-0.0036030000000000003,-0.002667,-0.004582,-43.68,-0.68,14.56,3a
2019-07-15_172019:360,-0.498749,0.024384,-0.022369,-0.00461,-0.00285,-0.00446,-43.68,-0.68,14.56,3a
2019-07-15_172019:380,-0.501801,0.024384,-0.022369,-0.006044,-0.0035210000000000003,-0.00443,-44.5,-1.06,13.75,3a
2019-07-15_172019:400,-0.502319,0.024384,-0.022369,-0.006837,-0.0035210000000000003,-0.0039109999999999995,-44.5,-1.06,13.75,3a
2019-07-15_172019:420,-0.5058590000000001,0.022858,-0.024902,-0.007661,-0.0031850000000000003,-0.002385,-44.5,-1.06,13.75,3a
2019-07-15_172019:440,-0.506897,0.021851,-0.022858,-0.008241,-0.002514,-0.001042,-43.68,-1.37,15.0,3a
2019-07-15_172019:460,-0.506897,0.019806,-0.020325,-0.008302,-0.0014759999999999999,8.7e-05,-43.68,-1.37,15.0,3a
2019-07-15_172019:480,-0.501282,0.020844,-0.020325,-0.007448000000000001,-0.0008349999999999999,0.001582,-44.75,-1.06,15.0,3a
2019-07-15_172019:500,-0.49823,0.018799,-0.01828,-0.007387,-0.0007740000000000001,0.002833,-44.75,-1.06,15.0,3a
2019-07-15_172019:520,-0.498749,0.018799,-0.019318000000000002,-0.006654,-0.001202,0.003871,-44.75,-1.06,15.0,3a
2019-07-15_172019:540,-0.49823,0.016753999999999998,-0.019806,-0.006532,-0.001934,0.0042369999999999994,-47.68,-1.06,14.18,3a
2019-07-15_172019:560,-0.500275,0.015228,-0.018799,-0.006135,-0.0024530000000000003,0.004146,-47.68,-1.06,14.18,3a
2019-07-15_172019:580,-0.500275,0.015228,-0.020844,-0.006044,-0.002605,0.0031079999999999997,-44.5,-1.37,13.37,3a
2019-07-15_172019:600,-0.49926800000000005,0.014221000000000001,-0.019318000000000002,-0.005647,-0.00285,0.001979,-44.5,-1.37,13.37,3a
2019-07-15_172019:620,-0.500275,0.015228,-0.021332,-0.004793,-0.003002,0.0017350000000000002,-44.5,-1.37,13.37,3a
2019-07-15_172019:640,-0.502808,0.015747,-0.022369,-0.0038770000000000002,-0.0031850000000000003,0.0016129999999999999,-43.68,-1.75,13.37,3a
2019-07-15_172019:660,-0.501282,0.016753999999999998,-0.023375999999999997,-0.003145,-0.003368,0.001582,-43.68,-1.75,13.37,3a
2019-07-15_172019:680,-0.501282,0.019318000000000002,-0.024384,-0.0016489999999999999,-0.003002,0.001674,-43.68,-1.37,14.18,3a
2019-07-15_172019:700,-0.501801,0.020844,-0.023895,-0.001436,-0.002728,0.001674,-43.68,-1.37,14.18,3a
2019-07-15_172019:720,-0.503326,0.022858,-0.025421,-0.0008560000000000001,-0.0020559999999999997,0.001796,-43.68,-1.37,14.18,3a
2019-07-15_172019:740,-0.501282,0.024384,-0.024902,-0.001161,-0.002117,0.0016129999999999999,-44.060001,-1.37,13.75,3a
2019-07-15_172019:760,-0.500275,0.024902,-0.024902,-0.001314,-0.001873,0.001674,-44.060001,-1.37,13.75,3a
2019-07-15_172019:780,-0.498749,0.024902,-0.024902,-0.002046,-0.0023309999999999997,0.001979,-44.060001,-2.06,13.37,3a
2019-07-15_172019:800,-0.49722299999999997,0.023895,-0.025421,-0.002382,-0.002605,0.002467,-44.060001,-2.06,13.37,3a
2019-07-15_172019:820,-0.49926800000000005,0.021851,-0.027954000000000003,-0.002565,-0.00285,0.002742,-44.060001,-2.06,13.37,3a
2019-07-15_172019:840,-0.49926800000000005,0.021332,-0.027435,-0.002229,-0.0030629999999999998,0.003078,-43.369999,-1.75,13.75,3a
2019-07-15_172019:860,-0.504333,0.020844,-0.027435,-0.00229,-0.003307,0.0032909999999999997,-43.369999,-1.75,13.75,3a
2019-07-15_172019:880,-0.502808,0.021851,-0.029480000000000003,-0.0023510000000000002,-0.0031850000000000003,0.0036880000000000003,-43.5,-1.75,13.37,3a
2019-07-15_172019:900,-0.501282,0.022369,-0.027954000000000003,-0.002443,-0.002605,0.0032909999999999997,-43.5,-1.75,13.37,3a
2019-07-15_172019:920,-0.502808,0.022858,-0.030487,-0.0026260000000000003,-0.001843,0.0021920000000000004,-43.5,-1.75,13.37,3a
2019-07-15_172019:940,-0.503326,0.023375999999999997,-0.027954000000000003,-0.003145,-0.001782,0.001979,-44.560001,-2.06,14.18,3a
2019-07-15_172019:960,-0.502319,0.023375999999999997,-0.028442000000000002,-0.003786,-0.0014759999999999999,0.002315,-44.560001,-2.06,14.18,3a
2019-07-15_172019:980,-0.500793,0.020844,-0.028442000000000002,-0.004335,-0.0011099999999999999,0.002315,-44.18,-1.06,13.0,3a
2019-07-15_172020:000,-0.500793,0.019318000000000002,-0.025908999999999998,-0.003725,-0.000683,0.0021920000000000004,-44.18,-1.06,13.0,3a
2019-07-15_172020:020,-0.49926800000000005,0.020325,-0.027435,-0.003145,-0.0008349999999999999,0.002711,-44.18,-1.06,13.0,3a
2019-07-15_172020:040,-0.498749,0.020325,-0.025908999999999998,-0.003145,-0.001141,0.0036270000000000004,-43.5,-1.75,13.37,3a
2019-07-15_172020:060,-0.49722299999999997,0.022369,-0.028442000000000002,-0.0033280000000000002,-0.001995,0.0042369999999999994,-43.5,-1.75,13.37,3a
2019-07-15_172020:080,-0.49926800000000005,0.021332,-0.029480000000000003,-0.0039380000000000005,-0.002667,0.004542,-43.75,-1.75,14.18,3a
2019-07-15_172020:100,-0.49975600000000003,0.020325,-0.028961,-0.004335,-0.00285,0.003963,-43.75,-1.75,14.18,3a
2019-07-15_172020:120,-0.498749,0.020844,-0.029968,-0.004457,-0.003002,0.0027719999999999997,-43.75,-1.75,14.18,3a
2019-07-15_172020:140,-0.500275,0.021332,-0.031006,-0.004854,-0.00346,0.0024059999999999997,-44.18,-1.37,13.37,3a
2019-07-15_172020:160,-0.501282,0.021851,-0.032013,-0.004854,-0.003368,0.0024059999999999997,-44.18,-1.37,13.37,3a
2019-07-15_172020:180,-0.502319,0.020844,-0.033539,-0.00525,-0.003796,0.002376,-44.869999,-1.37,13.37,3a
2019-07-15_172020:200,-0.5058590000000001,0.020325,-0.032532,-0.005128,-0.00346,0.0024059999999999997,-44.869999,-1.37,13.37,3a
2019-07-15_172020:220,-0.5058590000000001,0.01828,-0.033539,-0.004854,-0.00227,0.002742,-44.869999,-1.37,13.37,3a
2019-07-15_172020:240,-0.504333,0.017792,-0.03302,-0.00461,-0.001843,0.0027719999999999997,-43.5,-1.75,13.0,3a
2019-07-15_172020:260,-0.501801,0.016266,-0.032013,-0.003786,-0.001202,0.003078,-43.5,-1.75,13.0,3a
2019-07-15_172020:280,-0.501282,0.016266,-0.033539,-0.003206,-0.001385,0.0032909999999999997,-44.560001,-1.75,13.0,3a
2019-07-15_172020:300,-0.500793,0.015747,-0.031494,-0.002687,-0.001385,0.00323,-44.560001,-1.75,13.0,3a
2019-07-15_172020:320,-0.500793,0.016266,-0.03302,-0.002046,-0.001263,0.003016,-44.560001,-1.75,13.0,3a
2019-07-15_172020:340,-0.49823,0.017792,-0.031494,-0.001314,-0.0011099999999999999,0.001521,-44.18,-1.06,13.37,3a
2019-07-15_172020:360,-0.500275,0.020844,-0.032532,-0.000917,-0.0008349999999999999,0.001124,-44.18,-1.06,13.37,3a
2019-07-15_172020:380,-0.501801,0.023375999999999997,-0.031006,-0.0007030000000000001,-0.000897,0.0012460000000000001,-44.869999,-1.06,13.75,3a
2019-07-15_172020:400,-0.504333,0.024902,-0.028961,-0.001222,-0.0011099999999999999,0.001338,-44.869999,-1.06,13.75,3a
2019-07-15_172020:420,-0.501282,0.026427999999999997,-0.028961,-0.001955,-0.00108,0.0024059999999999997,-44.869999,-1.06,13.75,3a
2019-07-15_172020:440,-0.496216,0.023895,-0.028442000000000002,-0.003145,-0.001324,0.002955,-43.68,-1.75,13.37,3a
2019-07-15_172020:460,-0.49823,0.022369,-0.029480000000000003,-0.003786,-0.001537,0.001338,-43.68,-1.75,13.37,3a
2019-07-15_172020:480,-0.49926800000000005,0.022369,-0.028961,-0.003664,-0.0014759999999999999,0.000392,-44.5,-2.06,13.0,3a
2019-07-15_172020:500,-0.501801,0.020844,-0.031006,-0.00345,-0.001995,0.000667,-44.5,-2.06,13.0,3a
2019-07-15_172020:520,-0.503326,0.022858,-0.031006,-0.003023,-0.001995,0.00146,-44.5,-2.06,13.0,3a
2019-07-15_172020:540,-0.500793,0.022858,-0.032532,-0.0029010000000000004,-0.00172,0.002711,-44.18,-1.75,12.18,3a
2019-07-15_172020:560,-0.49722299999999997,0.023895,-0.03302,-0.0026260000000000003,-0.001934,0.003505,-44.18,-1.75,12.18,3a
2019-07-15_172020:580,-0.49975600000000003,0.022369,-0.034546,-0.0026260000000000003,-0.0020559999999999997,0.0034130000000000002,-44.560001,-1.37,12.68,3a
2019-07-15_172020:600,-0.501282,0.021851,-0.036072,-0.002779,-0.00227,0.0025280000000000003,-44.560001,-1.37,12.68,3a
2019-07-15_172020:620,-0.500793,0.024384,-0.034546,-0.002748,-0.002514,0.002376,-44.560001,-1.37,12.68,3a
2019-07-15_172020:640,-0.501801,0.022858,-0.034546,-0.0032670000000000004,-0.002514,0.002009,-44.18,-1.75,12.68,3a
2019-07-15_172020:660,-0.501282,0.025421,-0.035583,-0.0034799999999999996,-0.002514,0.002009,-44.18,-1.75,12.68,3a
2019-07-15_172020:680,-0.501282,0.024902,-0.036591000000000005,-0.0038469999999999997,-0.0020559999999999997,0.002711,-43.75,-1.75,13.0,3a
2019-07-15_172020:700,-0.502808,0.023375999999999997,-0.036591000000000005,-0.003786,-0.001782,0.0027719999999999997,-43.75,-1.75,13.0,3a
2019-07-15_172020:720,-0.502808,0.022858,-0.036072,-0.003542,-0.001263,0.002589,-43.75,-1.75,13.0,3a
2019-07-15_172020:740,-0.502319,0.023895,-0.035065,-0.003084,-0.001019,0.00265,-44.18,-1.75,13.0,3a
2019-07-15_172020:760,-0.502808,0.024384,-0.033539,-0.002748,-0.0005,0.0031079999999999997,-44.18,-1.75,13.0,3a
2019-07-15_172020:780,-0.498749,0.025421,-0.032532,-0.0032670000000000004,-0.0008349999999999999,0.0036880000000000003,-44.869999,-1.75,12.68,3a
2019-07-15_172020:800,-0.49926800000000005,0.026917,-0.034058,-0.003786,-0.00108,0.004359,-44.869999,-1.75,12.68,3a
2019-07-15_172020:820,-0.500793,0.026427999999999997,-0.034058,-0.004671,-0.001202,0.004603,-44.869999,-1.75,12.68,3a
2019-07-15_172020:840,-0.501282,0.024384,-0.034546,-0.005647,-0.001141,0.004634,-45.25,-1.37,12.68,3a
2019-07-15_172020:860,-0.503845,0.019318000000000002,-0.031006,-0.0057079999999999995,-0.0005610000000000001,0.004146,-45.25,-1.37,12.68,3a
2019-07-15_172020:880,-0.503326,0.016753999999999998,-0.031494,-0.005647,-0.000103,0.00381,-44.5,-1.75,13.0,3a
2019-07-15_172020:900,-0.500275,0.017273,-0.031494,-0.00461,-4.2e-05,0.003078,-44.5,-1.75,13.0,3a
2019-07-15_172020:920,-0.49823,0.017792,-0.031494,-0.003999,-0.0005,0.00323,-44.5,-1.75,13.0,3a
2019-07-15_172020:940,-0.5048520000000001,0.017792,-0.030487,-0.003542,-0.0007440000000000001,0.0035659999999999997,-43.68,-1.75,13.0,3a
2019-07-15_172020:960,-0.501282,0.01828,-0.031006,-0.003389,-0.000897,0.003963,-43.68,-1.75,13.0,3a
2019-07-15_172020:980,-0.496704,0.01828,-0.031006,-0.003023,-0.0008349999999999999,0.002589,-44.5,-2.06,13.37,3a
2019-07-15_172021:000,-0.498749,0.01828,-0.03302,-0.002687,-0.001019,0.000484,-44.5,-2.06,13.37,3a
2019-07-15_172021:020,-0.49517799999999995,0.022369,-0.034546,-0.002168,-0.001782,0.00027,-44.5,-2.06,13.37,3a
2019-07-15_172021:040,-0.496216,0.025421,-0.035583,-0.001894,-0.002239,0.000484,-43.68,-0.68,11.75,3a
2019-07-15_172021:060,-0.49975600000000003,0.026427999999999997,-0.034546,-0.002046,-0.002911,0.001918,-43.68,-0.68,11.75,3a
2019-07-15_172021:080,-0.501282,0.027954000000000003,-0.036591000000000005,-0.002046,-0.002117,0.003169,-44.869999,-2.06,12.68,3a
2019-07-15_172021:100,-0.502808,0.028442000000000002,-0.037108999999999996,-0.00229,-0.001598,0.004298,-44.869999,-2.06,12.68,3a
2019-07-15_172021:120,-0.5048520000000001,0.029480000000000003,-0.035065,-0.003145,-0.0014759999999999999,0.004817,-44.869999,-2.06,12.68,3a
2019-07-15_172021:140,-0.503326,0.028442000000000002,-0.034546,-0.003542,-0.001263,0.005214,-44.560001,-2.06,11.5,3a
2019-07-15_172021:160,-0.503845,0.025908999999999998,-0.034058,-0.005312,-0.001019,0.006343,-44.560001,-2.06,11.5,3a
2019-07-15_172021:180,-0.501801,0.021851,-0.033539,-0.0058,-0.000683,0.0061600000000000005,-44.18,-1.75,12.68,3a
2019-07-15_172021:200,-0.500275,0.017792,-0.032532,-0.006441,-0.00034700000000000003,0.004756,-44.18,-1.75,12.68,3a
2019-07-15_172021:220,-0.495697,0.012177,-0.031006,-0.005861,1.9e-05,0.0033520000000000004,-44.18,-1.75,12.68,3a
2019-07-15_172021:240,-0.49722299999999997,0.011169,-0.031494,-0.005189,-4.2e-05,0.0027719999999999997,-44.560001,-1.37,15.37,3a
2019-07-15_172021:260,-0.500275,0.013213999999999998,-0.032532,-0.003206,-0.00034700000000000003,0.002009,-44.560001,-1.37,15.37,3a
2019-07-15_172021:280,-0.495697,0.017792,-0.032013,-0.001436,-0.001141,0.001918,-45.25,-1.75,13.0,3a
2019-07-15_172021:300,-0.496704,0.021851,-0.03302,-0.000368,-0.001995,0.002131,-45.25,-1.75,13.0,3a
2019-07-15_172021:320,-0.49722299999999997,0.027954000000000003,-0.033539,-0.0005200000000000001,-0.003399,0.0031079999999999997,-45.25,-1.75,13.0,3a
2019-07-15_172021:340,-0.49975600000000003,0.029480000000000003,-0.035583,-0.001222,-0.00346,0.0036270000000000004,-44.060001,-1.75,12.68,3a
2019-07-15_172021:360,-0.498749,0.027954000000000003,-0.035065,-0.003542,-0.003704,0.005336,-44.060001,-1.75,12.68,3a
2019-07-15_172021:380,-0.49823,0.025421,-0.035583,-0.004457,-0.003582,0.005549,-44.060001,-1.75,12.68,3a
2019-07-15_172021:400,-0.503326,0.017792,-0.036591000000000005,-0.005769,-0.0030629999999999998,0.005488,-44.869999,-1.06,14.18,3a
2019-07-15_172021:420,-0.5058590000000001,0.012695,-0.036591000000000005,-0.005586,-0.00285,0.004939,-44.869999,-1.06,14.18,3a
2019-07-15_172021:440,-0.503326,0.010651,-0.037108999999999996,-0.00461,-0.002728,0.004298,-44.5,-1.37,12.68,3a
2019-07-15_172021:460,-0.503845,0.012177,-0.035065,-0.0038469999999999997,-0.002911,0.004298,-44.5,-1.37,12.68,3a
2019-07-15_172021:480,-0.502319,0.011687999999999999,-0.036072,-0.003023,-0.0027890000000000002,0.004603,-44.5,-1.37,12.68,3a
2019-07-15_172021:500,-0.49517799999999995,0.014221000000000001,-0.036591000000000005,-0.002779,-0.00227,0.004756,-44.75,-1.37,13.75,3a
2019-07-15_172021:520,-0.49823,0.013702,-0.037108999999999996,-0.0025039999999999997,-0.002392,0.003474,-44.75,-1.37,13.75,3a
2019-07-15_172021:540,-0.49722299999999997,0.016753999999999998,-0.038116000000000004,-0.002046,-0.002117,0.0010019999999999999,-45.560001,-1.75,12.18,3a
2019-07-15_172021:560,-0.498749,0.019806,-0.041168,-0.0019850000000000002,-0.002575,8.7e-05,-45.560001,-1.75,12.18,3a
2019-07-15_172021:580,-0.501282,0.020325,-0.042175,-0.002443,-0.002911,0.001277,-45.560001,-1.75,12.18,3a
2019-07-15_172021:600,-0.503326,0.019806,-0.043213,-0.002443,-0.003368,0.002131,-50.68,-1.37,11.75,3a
2019-07-15_172021:620,-0.503326,0.021332,-0.041687,-0.002748,-0.003307,0.0035659999999999997,-50.68,-1.37,11.75,3a
2019-07-15_172021:640,-0.503845,0.020325,-0.042175,-0.0029620000000000002,-0.002575,0.004298,-44.060001,-0.68,12.18,3a
2019-07-15_172021:660,-0.5048520000000001,0.020325,-0.041168,-0.0033280000000000002,-0.002117,0.003963,-44.060001,-0.68,12.18,3a
2019-07-15_172021:680,-0.502808,0.020844,-0.041687,-0.0038469999999999997,-0.001324,0.003963,-44.060001,-0.68,12.18,3a
2019-07-15_172021:700,-0.502319,0.017792,-0.042175,-0.004518,-0.0008349999999999999,0.004359,-43.68,-1.37,12.68,3a
2019-07-15_172021:720,-0.501282,0.015747,-0.040649,-0.005067,-0.000286,0.0036270000000000004,-43.68,-1.37,12.68,3a
2019-07-15_172021:740,-0.501282,0.013702,-0.041168,-0.005067,-0.000103,0.003078,-43.68,-1.37,12.18,3a
2019-07-15_172021:760,-0.498749,0.013213999999999998,-0.039124,-0.004793,0.000172,0.0027719999999999997,-43.68,-1.37,12.18,3a
2019-07-15_172021:780,-0.497742,0.013702,-0.039642000000000004,-0.004335,1.9e-05,0.002376,-43.68,-1.37,12.18,3a
2019-07-15_172021:800,-0.497742,0.014740000000000001,-0.040649,-0.003145,-0.00034700000000000003,0.002254,-45.560001,-0.25,13.37,3a
2019-07-15_172021:820,-0.498749,0.017273,-0.038116000000000004,-0.002748,-0.000683,0.003078,-45.560001,-0.25,13.37,3a
2019-07-15_172021:840,-0.49975600000000003,0.01828,-0.038116000000000004,-0.002443,-0.000958,0.0036270000000000004,-44.5,-1.06,12.18,3a
2019-07-15_172021:860,-0.501282,0.018799,-0.036591000000000005,-0.002687,-0.000897,0.0034130000000000002,-44.5,-1.06,12.18,3a
2019-07-15_172021:880,-0.501801,0.017792,-0.037108999999999996,-0.0029010000000000004,-0.000683,0.0034130000000000002,-44.5,-1.06,12.18,3a
2019-07-15_172021:900,-0.49926800000000005,0.017792,-0.036591000000000005,-0.002779,-0.0005,0.0032909999999999997,-44.75,-1.37,13.0,3a
2019-07-15_172021:920,-0.497742,0.018799,-0.037108999999999996,-0.0032670000000000004,-0.000958,0.003474,-44.75,-1.37,13.0,3a
2019-07-15_172021:940,-0.497742,0.017273,-0.036591000000000005,-0.0036030000000000003,-0.001324,0.0032909999999999997,-45.18,-1.06,12.68,3a
2019-07-15_172021:960,-0.497742,0.017273,-0.037598,-0.0036030000000000003,-0.001995,0.0031079999999999997,-45.18,-1.06,12.68,3a
2019-07-15_172021:980,-0.501801,0.016266,-0.036591000000000005,-0.0036030000000000003,-0.001995,0.0027719999999999997,-45.18,-1.06,12.68,3a
2019-07-15_172022:000,-0.5058590000000001,0.014740000000000001,-0.036591000000000005,-0.0038770000000000002,-0.001873,0.002955,-44.75,-1.06,12.18,3a
2019-07-15_172022:020,-0.49975600000000003,0.016266,-0.037598,-0.0038469999999999997,-0.001446,0.0032909999999999997,-44.75,-1.06,12.18,3a
2019-07-15_172022:040,-0.49823,0.012695,-0.038635,-0.003664,-0.001385,0.002467,-45.18,-1.06,13.0,3a
2019-07-15_172022:060,-0.497742,0.013702,-0.037108999999999996,-0.003023,-0.0011099999999999999,0.00020899999999999998,-45.18,-1.06,13.0,3a
2019-07-15_172022:080,-0.49722299999999997,0.015747,-0.039642000000000004,-0.002229,-0.0016589999999999999,0.000331,-45.18,-1.06,13.0,3a
2019-07-15_172022:100,-0.500275,0.019318000000000002,-0.041168,-0.002107,-0.0024530000000000003,0.001399,-44.060001,-0.68,13.0,3a
2019-07-15_172022:120,-0.501282,0.020325,-0.041168,-0.0023510000000000002,-0.002605,0.002467,-44.060001,-0.68,13.0,3a
2019-07-15_172022:140,-0.502808,0.019806,-0.040161,-0.0023510000000000002,-0.001843,0.0025280000000000003,-45.18,-1.06,12.68,3a
2019-07-15_172022:160,-0.501282,0.020844,-0.038635,-0.0026260000000000003,-0.0014759999999999999,0.002009,-45.18,-1.06,12.68,3a
2019-07-15_172022:180,-0.500793,0.021332,-0.040161,-0.0026260000000000003,-0.000958,0.0016129999999999999,-45.18,-1.06,12.68,3a
2019-07-15_172022:200,-0.497742,0.024902,-0.041168,-0.003114,-0.0016589999999999999,0.002376,-44.75,-1.06,12.68,3a
2019-07-15_172022:220,-0.500275,0.023895,-0.039642000000000004,-0.004121,-0.0016589999999999999,0.0033520000000000004,-44.75,-1.06,12.68,3a
2019-07-15_172022:240,-0.49975600000000003,0.021332,-0.041168,-0.004915,-0.001141,0.0033520000000000004,-44.5,-0.25,11.75,3a
2019-07-15_172022:260,-0.501282,0.01828,-0.040161,-0.005067,-0.001263,0.003078,-44.5,-0.25,11.75,3a
2019-07-15_172022:280,-0.500275,0.017273,-0.040161,-0.005189,-0.000958,0.0028940000000000003,-44.5,-0.25,11.75,3a
2019-07-15_172022:300,-0.49975600000000003,0.014221000000000001,-0.040161,-0.00461,-0.0011099999999999999,0.003016,-44.75,-1.37,13.75,3a
2019-07-15_172022:320,-0.500275,0.014221000000000001,-0.041687,-0.004182,-0.001263,0.0031079999999999997,-44.75,-1.37,13.75,3a
2019-07-15_172022:340,-0.49975600000000003,0.013213999999999998,-0.041687,-0.0032670000000000004,-0.001263,0.003078,-44.75,-1.06,11.75,3a
2019-07-15_172022:360,-0.501801,0.014740000000000001,-0.041168,-0.002687,-0.001263,0.002742,-44.75,-1.06,11.75,3a
2019-07-15_172022:380,-0.501282,0.018799,-0.041687,-0.0023510000000000002,-0.001202,0.002254,-44.75,-1.06,11.75,3a
2019-07-15_172022:400,-0.501282,0.019806,-0.042175,-0.002443,-0.0007740000000000001,0.0017350000000000002,-45.560001,-1.75,12.18,3a
2019-07-15_172022:420,-0.501282,0.021851,-0.040161,-0.002687,-0.00037799999999999997,0.0016129999999999999,-45.560001,-1.75,12.18,3a
2019-07-15_172022:440,-0.500793,0.022858,-0.039642000000000004,-0.003084,5e-05,0.002315,-44.5,-1.06,12.68,3a
2019-07-15_172022:460,-0.498749,0.021332,-0.038635,-0.003389,0.000233,0.002833,-44.5,-1.06,12.68,3a
2019-07-15_172022:480,-0.497742,0.018799,-0.038635,-0.0034799999999999996,1.9e-05,0.00323,-44.5,-1.06,12.68,3a
2019-07-15_172022:500,-0.497742,0.017792,-0.039124,-0.0034799999999999996,-0.000286,0.0033520000000000004,-44.75,-0.68,12.68,3a
2019-07-15_172022:520,-0.501282,0.017273,-0.036591000000000005,-0.003084,-0.000683,0.003169,-44.75,-0.68,12.68,3a
2019-07-15_172022:540,-0.502319,0.016753999999999998,-0.037598,-0.0028399999999999996,-0.0005,0.0034130000000000002,-44.75,-1.75,10.68,3a
2019-07-15_172022:560,-0.496704,0.017273,-0.036072,-0.0025039999999999997,-0.0006219999999999999,0.0033520000000000004,-44.75,-1.75,10.68,3a
2019-07-15_172022:580,-0.49926800000000005,0.015228,-0.039642000000000004,-0.002107,-0.0008349999999999999,0.002254,-44.75,-1.75,10.68,3a
2019-07-15_172022:600,-0.497742,0.016753999999999998,-0.040161,-0.001955,-0.000897,0.0010019999999999999,-45.18,-1.06,12.18,3a
2019-07-15_172022:620,-0.49975600000000003,0.019318000000000002,-0.039642000000000004,-0.001497,-0.001019,0.0012460000000000001,-45.18,-1.06,12.18,3a
2019-07-15_172022:640,-0.502808,0.020844,-0.039642000000000004,-0.001436,-0.001202,0.001918,-44.75,-0.68,12.68,3a
2019-07-15_172022:660,-0.505371,0.022369,-0.037108999999999996,-0.001161,-0.0007440000000000001,0.00265,-44.75,-0.68,12.68,3a
2019-07-15_172022:680,-0.5109560000000001,0.019806,-0.036072,-0.001161,5e-05,0.0042369999999999994,-44.75,-0.68,12.68,3a
2019-07-15_172022:700,-0.5048520000000001,0.015747,-0.036591000000000005,-0.0011,0.001545,0.005427,-44.060001,-1.06,12.68,3a
2019-07-15_172022:720,-0.497742,0.014221000000000001,-0.036591000000000005,-0.000124,0.0020329999999999997,0.005427,-44.060001,-1.06,12.68,3a
2019-07-15_172022:740,-0.49517799999999995,0.015747,-0.036591000000000005,-3.2e-05,0.001484,0.00442,-44.75,-0.68,13.37,3a
2019-07-15_172022:760,-0.489594,0.017273,-0.035583,2.8999999999999997e-05,0.0005679999999999999,0.0034130000000000002,-44.75,-0.68,13.37,3a
2019-07-15_172022:780,-0.496216,0.020325,-0.039124,-0.0005200000000000001,-0.000683,0.00265,-44.75,-0.68,13.37,3a
2019-07-15_172022:800,-0.49975600000000003,0.020844,-0.040161,-0.001558,-0.001141,0.002315,-44.060001,-1.37,12.68,3a
2019-07-15_172022:820,-0.501282,0.021332,-0.041168,-0.002565,-0.001446,0.0017350000000000002,-44.060001,-1.37,12.68,3a
2019-07-15_172022:840,-0.500793,0.021332,-0.039124,-0.0029620000000000002,-0.00108,0.001674,-44.5,-1.06,14.18,3a
2019-07-15_172022:860,-0.500793,0.021851,-0.039124,-0.003389,-0.001019,0.0021920000000000004,-44.5,-1.06,14.18,3a
2019-07-15_172022:880,-0.49823,0.020844,-0.038635,-0.0038770000000000002,-0.000897,0.002711,-44.5,-1.06,14.18,3a
2019-07-15_172022:900,-0.49823,0.018799,-0.038116000000000004,-0.0039380000000000005,-0.000897,0.0036270000000000004,-44.75,-1.37,13.37,3a
2019-07-15_172022:920,-0.500793,0.017792,-0.036591000000000005,-0.004243,-0.001019,0.004359,-44.75,-1.37,13.37,3a
2019-07-15_172022:940,-0.501282,0.015747,-0.036591000000000005,-0.00406,-0.001202,0.00442,-44.75,-1.06,11.75,3a
2019-07-15_172022:960,-0.502808,0.014221000000000001,-0.034546,-0.004121,-0.000958,0.0042369999999999994,-44.75,-1.06,11.75,3a
2019-07-15_172022:980,-0.501282,0.014740000000000001,-0.036072,-0.003725,-0.0005,0.0042369999999999994,-44.75,-1.06,11.75,3a
2019-07-15_172023:000,-0.49926800000000005,0.014740000000000001,-0.034058,-0.003389,-0.000439,0.003871,-44.75,-0.68,13.0,3a
2019-07-15_172023:020,-0.49926800000000005,0.014221000000000001,-0.035583,-0.003114,-0.0005,0.00323,-44.75,-0.68,13.0,3a
2019-07-15_172023:040,-0.498749,0.017792,-0.034546,-0.002687,-0.0007740000000000001,0.003016,-44.060001,-1.06,12.68,3a
2019-07-15_172023:060,-0.49823,0.017792,-0.034058,-0.002443,-0.001263,0.0034130000000000002,-44.060001,-1.06,12.68,3a
2019-07-15_172023:080,-0.501801,0.017792,-0.036072,-0.0029620000000000002,-0.001598,0.0036880000000000003,-44.060001,-1.06,12.68,3a
2019-07-15_172023:100,-0.500275,0.016266,-0.035065,-0.0032670000000000004,-0.001843,0.004298,-44.5,-1.37,12.68,3a
2019-07-15_172023:120,-0.497742,0.015228,-0.035065,-0.003786,-0.002239,0.004481000000000001,-44.5,-1.37,12.68,3a
2019-07-15_172023:140,-0.49926800000000005,0.012177,-0.039124,-0.0038469999999999997,-0.001995,0.003505,-44.060001,-1.37,13.75,3a
2019-07-15_172023:160,-0.497742,0.013702,-0.037108999999999996,-0.00345,-0.001995,0.00207,-44.060001,-1.37,13.75,3a
2019-07-15_172023:180,-0.503326,0.014221000000000001,-0.040649,-0.003206,-0.0023309999999999997,0.002376,-44.060001,-1.37,13.75,3a
2019-07-15_172023:200,-0.5048520000000001,0.014221000000000001,-0.039124,-0.003023,-0.001782,0.002711,-44.060001,-0.68,13.0,3a
2019-07-15_172023:220,-0.5048520000000001,0.016266,-0.037598,-0.002748,-0.001141,0.0034130000000000002,-44.060001,-0.68,13.0,3a
2019-07-15_172023:240,-0.500793,0.016266,-0.039642000000000004,-0.002565,-0.000225,0.004024,-44.060001,-1.06,12.18,3a
2019-07-15_172023:260,-0.498749,0.016266,-0.036591000000000005,-0.003084,-0.0006219999999999999,0.003901,-44.060001,-1.06,12.18,3a
2019-07-15_172023:280,-0.500793,0.016266,-0.037598,-0.003725,-0.0007740000000000001,0.0035659999999999997,-44.060001,-1.06,12.18,3a
2019-07-15_172023:300,-0.500275,0.014221000000000001,-0.037108999999999996,-0.004457,-0.0007440000000000001,0.0035659999999999997,-44.060001,-0.68,12.68,3a
2019-07-15_172023:320,-0.502808,0.011169,-0.036072,-0.005067,-0.00037799999999999997,0.003169,-44.060001,-0.68,12.68,3a
2019-07-15_172023:340,-0.503326,0.009644,-0.034546,-0.0049759999999999995,0.000294,0.002711,-43.68,-1.06,12.68,3a
2019-07-15_172023:360,-0.500793,0.008636,-0.032013,-0.004396,0.000294,0.001979,-43.68,-1.06,12.68,3a
2019-07-15_172023:380,-0.498749,0.010162000000000001,-0.03302,-0.0033280000000000002,0.00038500000000000003,0.001277,-43.68,-1.06,12.68,3a
2019-07-15_172023:400,-0.49823,0.013213999999999998,-0.033539,-0.002748,-4.2e-05,0.00088,-44.060001,-0.25,12.18,3a
2019-07-15_172023:420,-0.49722299999999997,0.017273,-0.032532,-0.001894,-0.00037799999999999997,0.000789,-44.060001,-0.25,12.18,3a
2019-07-15_172023:440,-0.498749,0.019318000000000002,-0.03302,-0.001894,-0.000958,0.0010019999999999999,-44.060001,-0.25,13.0,3a
2019-07-15_172023:460,-0.49975600000000003,0.020844,-0.03302,-0.00229,-0.001141,0.0012460000000000001,-44.060001,-0.25,13.0,3a
2019-07-15_172023:480,-0.49975600000000003,0.021851,-0.033539,-0.003206,-0.001324,0.001399,-44.060001,-0.25,13.0,3a
2019-07-15_172023:500,-0.500275,0.019806,-0.034058,-0.003999,-0.001537,0.001277,-44.060001,0.06,13.0,3a
2019-07-15_172023:520,-0.501801,0.019806,-0.035065,-0.004579,-0.00172,0.001521,-44.060001,0.06,13.0,3a
2019-07-15_172023:540,-0.501801,0.01828,-0.036072,-0.0049759999999999995,-0.001598,0.002009,-45.25,-0.25,13.37,3a
2019-07-15_172023:560,-0.501282,0.017273,-0.034058,-0.0049759999999999995,-0.001537,0.002315,-45.25,-0.25,13.37,3a
2019-07-15_172023:580,-0.500275,0.016753999999999998,-0.035583,-0.004579,-0.001446,0.002742,-45.25,-0.25,13.37,3a
2019-07-15_172023:600,-0.49926800000000005,0.015228,-0.034058,-0.004243,-0.001202,0.002589,-44.5,-0.25,13.75,3a
2019-07-15_172023:620,-0.49975600000000003,0.016753999999999998,-0.035065,-0.0038770000000000002,-0.001385,0.002254,-44.5,-0.25,13.75,3a
2019-07-15_172023:640,-0.502808,0.015747,-0.034546,-0.0033280000000000002,-0.001385,0.002589,-44.75,-1.06,11.5,3a
2019-07-15_172023:660,-0.504333,0.017792,-0.03302,-0.003114,-0.001263,0.0024059999999999997,-44.75,-1.06,11.5,3a
2019-07-15_172023:680,-0.49975600000000003,0.017792,-0.03302,-0.0028399999999999996,-0.0008349999999999999,0.0027719999999999997,-44.75,-1.06,11.5,3a
2019-07-15_172023:700,-0.498749,0.015228,-0.032532,-0.002779,-0.000897,0.003169,-44.5,-1.06,11.75,3a
2019-07-15_172023:720,-0.495697,0.015228,-0.03302,-0.0025039999999999997,-0.001202,0.001674,-44.5,-1.06,11.75,3a
2019-07-15_172023:740,-0.495697,0.016266,-0.034546,-0.002382,-0.001598,0.00088,-44.75,-0.68,13.0,3a
2019-07-15_172023:760,-0.49823,0.015228,-0.03302,-0.0026260000000000003,-0.0023309999999999997,0.000392,-44.75,-0.68,13.0,3a
2019-07-15_172023:780,-0.501282,0.014740000000000001,-0.031494,-0.002443,-0.002514,-0.000127,-44.75,-0.68,13.0,3a
2019-07-15_172023:800,-0.500275,0.015228,-0.031494,-0.0016190000000000002,-0.001934,-0.000188,-43.68,-1.06,13.0,3a
2019-07-15_172023:820,-0.49823,0.018799,-0.03302,-0.0008560000000000001,-0.001537,-0.000401,-43.68,-1.06,13.0,3a
2019-07-15_172023:840,-0.500275,0.023375999999999997,-0.036591000000000005,-0.000246,-0.001995,-0.000188,-44.869999,-1.37,12.68,3a
2019-07-15_172023:860,-0.49823,0.027435,-0.037598,-0.0005200000000000001,-0.002911,0.001185,-44.869999,-1.37,12.68,3a
2019-07-15_172023:880,-0.49975600000000003,0.027435,-0.039124,-0.001222,-0.00346,0.0031079999999999997,-44.869999,-1.37,12.68,3a
2019-07-15_172023:900,-0.49975600000000003,0.025908999999999998,-0.039642000000000004,-0.002107,-0.003979,0.0032909999999999997,-44.869999,-1.37,11.5,3a
2019-07-15_172023:920,-0.500793,0.025421,-0.040649,-0.0029010000000000004,-0.003704,0.002711,-44.869999,-1.37,11.5,3a
2019-07-15_172023:940,-0.49926800000000005,0.024902,-0.042175,-0.0032670000000000004,-0.003307,0.002315,-44.869999,-1.37,12.68,3a
2019-07-15_172023:960,-0.501801,0.024902,-0.042175,-0.003999,-0.003002,0.002376,-44.869999,-1.37,12.68,3a
2019-07-15_172023:980,-0.503326,0.023895,-0.044219999999999995,-0.0038770000000000002,-0.002728,0.002833,-44.869999,-1.37,12.68,3a
2019-07-15_172024:000,-0.504333,0.021851,-0.043701,-0.004457,-0.00285,0.003474,-44.869999,-1.06,13.37,3a
2019-07-15_172024:020,-0.502808,0.020325,-0.042694,-0.004182,-0.00227,0.003901,-44.869999,-1.06,13.37,3a
2019-07-15_172024:040,-0.501282,0.020325,-0.043213,-0.0039380000000000005,-0.001446,0.004085,-44.75,-1.37,11.75,3a
2019-07-15_172024:060,-0.501282,0.020325,-0.042175,-0.0038770000000000002,-0.001019,0.0042369999999999994,-44.75,-1.37,11.75,3a
2019-07-15_172024:080,-0.49975600000000003,0.017792,-0.042175,-0.0036030000000000003,-0.000958,0.004634,-44.75,-1.37,11.75,3a
2019-07-15_172024:100,-0.49823,0.017792,-0.042175,-0.00345,-0.0006219999999999999,0.004359,-44.5,-1.37,13.37,3a
2019-07-15_172024:120,-0.500793,0.01828,-0.041168,-0.0029620000000000002,-0.0008349999999999999,0.0035659999999999997,-44.5,-1.37,13.37,3a
2019-07-15_172024:140,-0.501282,0.019318000000000002,-0.041168,-0.0029010000000000004,-0.000897,0.0033520000000000004,-44.5,-1.75,14.18,3a
2019-07-15_172024:160,-0.49926800000000005,0.021332,-0.040649,-0.003084,-0.0005,0.003078,-44.5,-1.75,14.18,3a
2019-07-15_172024:180,-0.49823,0.021332,-0.041168,-0.0034799999999999996,-0.0006219999999999999,0.00323,-44.5,-1.75,14.18,3a
2019-07-15_172024:200,-0.497742,0.020844,-0.042175,-0.0033280000000000002,-0.0007740000000000001,0.0035659999999999997,-45.18,-1.37,12.18,3a
2019-07-15_172024:220,-0.49975600000000003,0.019318000000000002,-0.040649,-0.003542,-0.000897,0.0036880000000000003,-45.18,-1.37,12.18,3a
2019-07-15_172024:240,-0.503326,0.020325,-0.041168,-0.0032670000000000004,-0.000958,0.004085,-44.75,-1.75,12.18,3a
2019-07-15_172024:260,-0.49975600000000003,0.020844,-0.040649,-0.003725,-0.0011099999999999999,0.004817,-44.75,-1.75,12.18,3a
2019-07-15_172024:280,-0.49722299999999997,0.017792,-0.038635,-0.003786,-0.0011099999999999999,0.0036880000000000003,-44.75,-1.75,12.18,3a
2019-07-15_172024:300,-0.498749,0.017792,-0.040161,-0.00345,-0.001385,0.0031079999999999997,-44.060001,-1.37,14.18,3a
2019-07-15_172024:320,-0.497742,0.019318000000000002,-0.039642000000000004,-0.00345,-0.001598,0.0033520000000000004,-44.060001,-1.37,14.18,3a
2019-07-15_172024:340,-0.49926800000000005,0.017792,-0.041687,-0.003206,-0.001934,0.003474,-44.060001,-1.06,12.18,3a
2019-07-15_172024:360,-0.501282,0.016753999999999998,-0.041687,-0.0029620000000000002,-0.001782,0.004146,-44.060001,-1.06,12.18,3a
2019-07-15_172024:380,-0.502319,0.016753999999999998,-0.040161,-0.002443,-0.001385,0.004756,-44.060001,-1.06,12.18,3a
2019-07-15_172024:400,-0.502319,0.017273,-0.042175,-0.00229,-0.001141,0.004603,-45.18,-1.75,12.18,3a
2019-07-15_172024:420,-0.500793,0.01828,-0.040161,-0.0026260000000000003,-0.000958,0.0042369999999999994,-45.18,-1.75,12.18,3a
2019-07-15_172024:440,-0.501801,0.019318000000000002,-0.040649,-0.003084,-0.000897,0.004542,-44.5,-0.68,13.37,3a
2019-07-15_172024:460,-0.502808,0.018799,-0.039642000000000004,-0.0039380000000000005,-0.0005,0.004603,-44.5,-0.68,13.37,3a
2019-07-15_172024:480,-0.500275,0.014740000000000001,-0.039642000000000004,-0.004457,-0.000103,0.003871,-44.5,-0.68,13.37,3a
2019-07-15_172024:500,-0.498749,0.013213999999999998,-0.040161,-0.004243,-0.00037799999999999997,0.003749,-44.060001,-0.68,12.18,3a
2019-07-15_172024:520,-0.496704,0.011687999999999999,-0.037598,-0.0038770000000000002,-0.0008349999999999999,0.0032909999999999997,-44.060001,-0.68,12.18,3a
2019-07-15_172024:540,-0.49722299999999997,0.011687999999999999,-0.038116000000000004,-0.003389,-0.001537,0.003474,-44.5,-0.68,12.68,3a
2019-07-15_172024:560,-0.496704,0.013213999999999998,-0.038635,-0.002779,-0.001782,0.0036880000000000003,-44.5,-0.68,12.68,3a
2019-07-15_172024:580,-0.49926800000000005,0.012177,-0.038635,-0.002443,-0.0021780000000000002,0.0036270000000000004,-44.5,-0.68,12.68,3a
