timestamp,AccX,AccY,AccZ,GyroX,GyroY,GyroZ,MagX,MagY,MagZ,Activity
2019-07-15_154001:180,-0.391479,0.053375,-0.349274,0.035857,-0.021771000000000002,0.008143000000000001,-20.68,10.68,-40.560001,1a
2019-07-15_154001:200,-0.374695,0.072174,-0.375702,0.037077,-0.022381,0.010981999999999999,-20.68,10.68,-40.560001,1a
2019-07-15_154001:220,-0.438751,0.048798,-0.418915,0.033263,-0.023357,0.020472999999999998,-14.37,11.37,-41.0,1a
2019-07-15_154001:240,-0.433655,0.010162000000000001,-0.434174,0.030027999999999996,-0.017712000000000002,0.021022,-14.37,11.37,-41.0,1a
2019-07-15_154001:260,-0.39859,-0.021851,-0.453003,0.029356,-0.010479,0.007197,-14.37,11.37,-41.0,1a
2019-07-15_154001:280,-0.404694,-0.013213999999999998,-0.44384799999999996,0.032286,-0.004376,0.000728,-17.870001000000002,13.68,-40.25,1a
2019-07-15_154001:300,-0.447388,-0.076752,-0.477386,0.035460000000000005,-0.005108,-0.00033999999999999997,-17.870001000000002,13.68,-40.25,1a
2019-07-15_154001:320,-0.379791,-0.063538,-0.433655,0.037718,-0.001598,-0.00504,-16.68,15.56,-41.060001,1a
2019-07-15_154001:340,-0.401642,-0.086426,-0.48754899999999995,0.037993,-0.008312,-0.001714,-16.68,15.56,-41.060001,1a
2019-07-15_154001:360,-0.344177,-0.102173,-0.43774399999999997,0.03369,-0.008495,0.002711,-16.68,15.56,-41.060001,1a
2019-07-15_154001:380,-0.34674099999999997,-0.126068,-0.429108,0.027037000000000002,-0.003399,0.005733,-17.059998999999998,17.370001000000002,-40.68,1a
2019-07-15_154001:400,-0.340118,-0.137268,-0.384857,0.018553,0.007465,0.004542,-17.059998999999998,17.370001000000002,-40.68,1a
2019-07-15_154001:420,-0.360962,-0.133179,-0.386383,0.009917,0.012043,0.005549,-17.059998999999998,18.75,-38.560001,1a
2019-07-15_154001:440,-0.341125,-0.12506099999999998,-0.39502,-0.0008560000000000001,0.011706999999999999,0.011775,-17.059998999999998,18.75,-38.560001,1a
2019-07-15_154001:460,-0.33758499999999997,-0.12048299999999999,-0.397064,-0.013277,0.011401999999999999,0.017482,-17.059998999999998,18.75,-38.560001,1a
2019-07-15_154001:480,-0.322327,-0.10928299999999999,-0.390961,-0.025026,0.012988999999999999,0.016505000000000002,-17.5,18.5,-37.869999,1a
2019-07-15_154001:500,-0.327423,-0.084381,-0.383331,-0.038301,0.016773,0.013057,-17.5,18.5,-37.869999,1a
2019-07-15_154001:520,-0.336548,-0.067108,-0.385864,-0.050263999999999996,0.022022,0.013515000000000001,-17.5,18.5,-37.369999,1a
2019-07-15_154001:540,-0.333496,-0.06253099999999999,-0.377747,-0.063264,0.028582999999999997,0.014491,-17.5,18.5,-37.369999,1a
2019-07-15_154001:560,-0.322327,-0.061005,-0.36044299999999996,-0.072908,0.035144999999999996,0.013911000000000001,-17.5,18.5,-37.369999,1a
2019-07-15_154001:580,-0.316223,-0.059479,-0.341125,-0.079652,0.039478,0.014186,-18.870001000000002,17.370001000000002,-39.369999,1a
2019-07-15_154001:600,-0.31369,-0.059479,-0.320282,-0.08352799999999999,0.041798,0.014186,-18.870001000000002,17.370001000000002,-39.369999,1a
2019-07-15_154001:620,-0.325378,-0.059479,-0.305054,-0.084901,0.043629,0.013300999999999999,-20.75,14.75,-39.369999,1a
2019-07-15_154001:640,-0.33758499999999997,-0.06253099999999999,-0.28775,-0.083498,0.045551,0.01205,-20.75,14.75,-39.369999,1a
2019-07-15_154001:660,-0.321808,-0.051849,-0.277588,-0.07800399999999999,0.04604,0.011531,-20.75,14.75,-39.369999,1a
2019-07-15_154001:680,-0.317749,-0.032532,-0.261322,-0.074159,0.045887,0.013453,-21.870001000000002,11.87,-39.369999,1a
2019-07-15_154001:700,-0.327911,-0.027435,-0.250641,-0.071504,0.043507,0.018611000000000003,-21.870001000000002,11.87,-39.369999,1a
2019-07-15_154001:720,-0.348267,-0.029968,-0.244019,-0.07083300000000001,0.038654,0.023402000000000003,-23.68,9.0,-39.5,1a
2019-07-15_154001:740,-0.364014,-0.033539,-0.238434,-0.06991699999999999,0.035419,0.028193,-23.68,9.0,-39.5,1a
2019-07-15_154001:760,-0.367584,-0.042175,-0.231812,-0.066652,0.033344,0.033473,-23.68,9.0,-39.5,1a
2019-07-15_154001:780,-0.36248800000000003,-0.050842,-0.224701,-0.06347799999999999,0.031695999999999995,0.036494,-25.18,6.75,-40.369999,1a
2019-07-15_154001:800,-0.368591,-0.055389,-0.223694,-0.060335,0.030567,0.038325,-25.18,6.75,-40.369999,1a
2019-07-15_154001:820,-0.375214,-0.06253099999999999,-0.219635,-0.057222,0.029438,0.038783,-25.5,5.25,-39.18,1a
2019-07-15_154001:840,-0.397064,-0.06253099999999999,-0.21048000000000003,-0.054780999999999996,0.027119,0.037807,-25.5,5.25,-39.18,1a
2019-07-15_154001:860,-0.444855,-0.068634,-0.213531,-0.052187,0.027576,0.036738,-25.5,5.25,-39.18,1a
2019-07-15_154001:880,-0.488068,-0.070648,-0.216583,-0.049013,0.028827999999999996,0.0339,-26.5,4.18,-38.0,1a
2019-07-15_154001:900,-0.44891400000000004,-0.06149299999999999,-0.22116100000000002,-0.045412,0.026050999999999998,0.030177,-26.5,4.18,-38.0,1a
2019-07-15_154001:920,-0.473846,-0.051849,-0.23028600000000002,-0.043703,0.023548,0.027644,-27.68,3.06,-38.0,1a
2019-07-15_154001:940,-0.48553500000000005,-0.039642000000000004,-0.233856,-0.042085000000000004,0.023212,0.026393,-27.68,3.06,-38.0,1a
2019-07-15_154001:960,-0.556702,-0.027435,-0.253693,-0.042573,0.022816,0.02447,-27.68,3.06,-38.0,1a
2019-07-15_154001:980,-0.494171,-0.016266,-0.266907,-0.043213999999999995,0.018543,0.024013,-28.5,2.37,-37.25,1a
2019-07-15_154002:000,-0.5267029999999999,0.000488,-0.28979499999999997,-0.044954,0.013843000000000001,0.023982,-28.5,2.37,-37.25,1a
2019-07-15_154002:020,-0.5633239999999999,0.006072999999999999,-0.311127,-0.044801,0.006794,0.022334,-29.5,1.25,-36.75,1a
2019-07-15_154002:040,-0.444855,0.036072,-0.278595,-0.046937,0.0026739999999999997,0.022456,-29.5,1.25,-36.75,1a
2019-07-15_154002:060,-0.36706500000000003,0.058960000000000005,-0.270966,-0.049928,0.002613,0.028651,-29.5,1.25,-36.75,1a
2019-07-15_154002:080,-0.383331,0.059479,-0.269958,-0.05124,-0.001263,0.033473,-29.370001000000002,0.06,-35.560001,1a
2019-07-15_154002:100,-0.344696,0.064545,-0.283173,-0.05356,-0.015118000000000001,0.028651,-29.370001000000002,0.06,-35.560001,1a
2019-07-15_154002:120,-0.385376,0.063538,-0.28369099999999997,-0.05575700000000001,-0.032848,0.01974,-29.870001000000002,-0.18,-36.0,1a
2019-07-15_154002:140,-0.439758,0.044739,-0.298431,-0.053315999999999995,-0.041210000000000004,0.011592,-29.870001000000002,-0.18,-36.0,1a
2019-07-15_154002:160,-0.41943400000000003,0.039642000000000004,-0.300964,-0.046724,-0.037913999999999996,0.0032909999999999997,-29.870001000000002,-0.18,-36.0,1a
2019-07-15_154002:180,-0.406738,0.040649,-0.308594,-0.040163,-0.033306,0.001979,-28.059998999999998,-3.06,-37.68,1a
2019-07-15_154002:200,-0.389435,0.038635,-0.293854,-0.032472,-0.028027,0.011378000000000001,-28.059998999999998,-3.06,-37.68,1a
2019-07-15_154002:220,-0.38385,0.031494,-0.28064,-0.027558999999999997,-0.021374,0.020869,-28.0,-3.0,-38.18,1a
2019-07-15_154002:240,-0.377747,0.024384,-0.264862,-0.022462,-0.014140999999999999,0.024592,-28.0,-3.0,-38.18,1a
2019-07-15_154002:260,-0.381805,0.019806,-0.25116,-0.017854,-0.008556,0.025203,-28.0,-3.0,-38.18,1a
2019-07-15_154002:280,-0.382324,0.015228,-0.22979699999999997,-0.013612,-0.004376,0.024196000000000002,-26.5,-4.5,-38.869999,1a
2019-07-15_154002:300,-0.379272,0.016266,-0.213013,-0.010376999999999999,-0.0011099999999999999,0.022609,-26.5,-4.5,-38.869999,1a
2019-07-15_154002:320,-0.368073,0.022369,-0.196747,-0.007661,0.0005070000000000001,0.021602,-26.18,-3.75,-39.369999,1a
2019-07-15_154002:340,-0.36554000000000003,0.024384,-0.189117,-0.005983,0.0007509999999999999,0.021022,-26.18,-3.75,-39.369999,1a
2019-07-15_154002:360,-0.364532,0.024902,-0.18811,-0.005525,-0.0007740000000000001,0.02093,-26.18,-3.75,-39.369999,1a
2019-07-15_154002:380,-0.370636,0.017273,-0.190643,-0.0058,-0.003857,0.020808,-25.5,-3.75,-38.560001,1a
2019-07-15_154002:400,-0.38739,0.013702,-0.190643,-0.005403,-0.006847,0.020228,-25.5,-3.75,-38.560001,1a
2019-07-15_154002:420,-0.409271,0.0035399999999999997,-0.207916,-0.004121,-0.006908,0.01797,-25.870001000000002,-3.37,-38.18,1a
2019-07-15_154002:440,-0.408752,0.001007,-0.21554600000000002,-0.001955,-0.0053219999999999995,0.013697999999999998,-25.870001000000002,-3.37,-38.18,1a
2019-07-15_154002:460,-0.42758199999999996,0.006072999999999999,-0.222687,0.0007610000000000001,-0.001995,0.009212,-25.870001000000002,-3.37,-38.18,1a
2019-07-15_154002:480,-0.48654200000000003,0.009125,-0.24706999999999998,0.003539,0.005024,0.0061600000000000005,-26.25,-2.25,-38.18,1a
2019-07-15_154002:500,-0.484009,0.011687999999999999,-0.263855,0.005582999999999999,0.016956,0.00323,-26.25,-2.25,-38.18,1a
2019-07-15_154002:520,-0.48553500000000005,0.014740000000000001,-0.279633,0.008329999999999999,0.025379,-0.000859,-26.25,-2.68,-38.869999,1a
2019-07-15_154002:540,-0.546021,0.012177,-0.29742399999999997,0.0101,0.028125999999999998,-0.006352,-26.25,-2.68,-38.869999,1a
2019-07-15_154002:560,-0.517548,0.008118,-0.313171,0.012633,0.035541,-0.011295999999999999,-26.25,-2.68,-38.869999,1a
2019-07-15_154002:580,-0.48300200000000004,0.010651,-0.308594,0.014281,0.039661,-0.015874,-27.370001000000002,-2.68,-36.560001,1a
2019-07-15_154002:600,-0.567902,0.006592,-0.308075,0.014830000000000001,0.039661,-0.01621,-27.370001000000002,-2.68,-36.560001,1a
2019-07-15_154002:620,-0.515533,-0.012695,-0.29284699999999997,0.016295,0.033497000000000006,-0.014134,-27.370001000000002,-2.68,-36.560001,1a
2019-07-15_154002:640,-0.515533,-0.019806,-0.29284699999999997,0.019804,0.028033999999999996,-0.018498,-27.370001000000002,-2.68,-36.560001,1a
2019-07-15_154002:660,-0.43774399999999997,-0.023895,-0.318268,0.022337,0.015247,-0.02683,-27.370001000000002,-2.68,-36.560001,1a
2019-07-15_154002:680,-0.412811,-0.020844,-0.305054,0.024992,0.007923000000000001,-0.030461000000000002,-29.18,-1.56,-35.68,1a
2019-07-15_154002:700,-0.455017,-0.010162000000000001,-0.311646,0.023253,0.002216,-0.02628,-29.18,-1.56,-35.68,1a
2019-07-15_154002:720,-0.47995,-0.018799,-0.288269,0.020475999999999998,0.00038500000000000003,-0.016728,-30.25,-2.25,-33.25,1a
2019-07-15_154002:740,-0.448425,-0.019806,-0.266907,0.017149,-0.001537,-0.010289,-30.25,-2.25,-33.25,1a
2019-07-15_154002:760,-0.42858900000000005,-0.023375999999999997,-0.269958,0.013182,-0.004833,-0.005712,-30.25,-2.25,-33.25,1a
2019-07-15_154002:780,-0.41333000000000003,-0.022369,-0.268433,0.009795,-0.008556,0.001399,-29.870001000000002,-2.68,-34.68,1a
2019-07-15_154002:800,-0.384857,-0.026427999999999997,-0.266388,0.00659,-0.012158,0.0061600000000000005,-29.870001000000002,-2.68,-34.68,1a
2019-07-15_154002:820,-0.367584,-0.025908999999999998,-0.256226,0.003355,-0.014202000000000001,0.0065569999999999995,-29.870001000000002,-2.25,-35.0,1a
2019-07-15_154002:840,-0.365021,-0.038635,-0.249115,0.001891,-0.014385,0.004756,-29.870001000000002,-2.25,-35.0,1a
2019-07-15_154002:860,-0.364014,-0.039642000000000004,-0.236389,0.001891,-0.012158,-0.000279,-29.870001000000002,-2.25,-35.0,1a
2019-07-15_154002:880,-0.363007,-0.030487,-0.22164899999999998,0.00479,-0.009502,-0.005101,-28.870001000000002,-2.68,-35.0,1a
2019-07-15_154002:900,-0.385376,-0.023375999999999997,-0.19775399999999999,0.006743000000000001,-0.0062369999999999995,-0.006108,-28.870001000000002,-2.68,-35.0,1a
2019-07-15_154002:920,-0.389435,-0.019806,-0.187073,0.007842,5e-05,-0.005101,-28.18,-1.87,-34.68,1a
2019-07-15_154002:940,-0.379791,-0.013213999999999998,-0.164215,0.0073230000000000005,0.00243,-0.004765999999999999,-28.18,-1.87,-34.68,1a
2019-07-15_154002:960,-0.369598,-0.006072999999999999,-0.156067,0.005187,0.005146,-0.004308,-28.18,-1.87,-34.68,1a
2019-07-15_154002:980,-0.345215,-0.014221000000000001,-0.147949,0.003478,0.002613,-0.004918,-27.75,-1.87,-35.0,1a
2019-07-15_154003:000,-0.334015,-0.016753999999999998,-0.144379,0.002928,-0.001598,-0.0065049999999999995,-27.75,-1.87,-35.0,1a
2019-07-15_154003:020,-0.326904,-0.014221000000000001,-0.14743,0.002623,-0.007763,-0.007481999999999999,-28.18,-1.87,-34.68,1a
2019-07-15_154003:040,-0.361481,-0.016266,-0.156586,0.002287,-0.013226,-0.007359999999999999,-28.18,-1.87,-34.68,1a
2019-07-15_154003:060,-0.415375,-0.017273,-0.180481,0.002013,-0.014750999999999998,-0.007084999999999999,-28.18,-1.87,-34.68,1a
2019-07-15_154003:080,-0.43774399999999997,-0.016753999999999998,-0.193176,0.001219,-0.011729999999999999,-0.005101,-28.18,-2.68,-34.18,1a
2019-07-15_154003:100,-0.44027700000000003,-0.017792,-0.205902,-0.000185,-0.007305,-0.0024460000000000003,-28.18,-2.68,-34.18,1a
2019-07-15_154003:120,-0.48196400000000006,-0.017792,-0.23233,-0.001894,-0.004497999999999999,-0.001317,-27.059998999999998,-2.68,-35.0,1a
2019-07-15_154003:140,-0.495697,-0.01828,-0.248596,-0.003084,-0.0031850000000000003,-0.00147,-27.059998999999998,-2.68,-35.0,1a
2019-07-15_154003:160,-0.51297,-0.011169,-0.25012199999999996,-0.005464,0.000782,-0.000127,-27.059998999999998,-2.68,-35.0,1a
2019-07-15_154003:180,-0.501282,-0.010651,-0.261322,-0.0069900000000000006,0.0027660000000000002,0.002833,-27.059998999999998,-3.0,-35.369999,1a
2019-07-15_154003:200,-0.47689799999999993,-0.0025329999999999997,-0.270477,-0.010376999999999999,0.002552,0.004481000000000001,-27.059998999999998,-3.0,-35.369999,1a
2019-07-15_154003:220,-0.61264,0.008636,-0.28979499999999997,-0.013368000000000001,0.000446,0.0065260000000000006,-27.059998999999998,-3.75,-35.0,1a
2019-07-15_154003:240,-0.558746,0.007111,-0.334015,-0.015137999999999999,-0.006786,0.004298,-27.059998999999998,-3.75,-35.0,1a
2019-07-15_154003:260,-0.599426,0.041168,-0.315216,-0.021242,-0.0014759999999999999,0.007014,-27.059998999999998,-3.75,-35.0,1a
2019-07-15_154003:280,-0.590271,0.023895,-0.375214,-0.019777,-0.004253,0.011256,-27.059998999999998,-3.75,-33.75,1a
2019-07-15_154003:300,-0.43927,0.032532,-0.30654899999999996,-0.024385,0.002552,0.012721,-27.059998999999998,-3.75,-33.75,1a
2019-07-15_154003:320,-0.396545,0.025908999999999998,-0.298431,-0.019075,0.007618000000000001,0.014918,-27.5,-4.37,-34.18,1a
2019-07-15_154003:340,-0.411285,0.021332,-0.305542,-0.013734,0.003834,0.004634,-27.5,-4.37,-34.18,1a
2019-07-15_154003:360,-0.407227,0.039124,-0.322327,-0.010042,-0.007640999999999999,-0.009496,-27.5,-4.37,-34.18,1a
2019-07-15_154003:380,-0.410797,0.045226999999999996,-0.322845,-0.0068980000000000005,-0.015881,-0.009221,-28.18,-5.18,-34.18,1a
2019-07-15_154003:400,-0.435699,0.046265,-0.323853,-0.003999,-0.018169,-0.004186,-28.18,-5.18,-34.18,1a
2019-07-15_154003:420,-0.439758,0.042694,-0.312164,-0.002779,-0.013866,-0.001927,-26.68,-6.18,-34.18,1a
2019-07-15_154003:440,-0.381317,0.040649,-0.298431,-0.001161,-0.010937,0.00088,-26.68,-6.18,-34.18,1a
2019-07-15_154003:460,-0.35638400000000003,0.036591000000000005,-0.279114,-0.0007030000000000001,-0.008038,0.006221,-26.68,-6.18,-34.18,1a
2019-07-15_154003:480,-0.333496,0.027954000000000003,-0.257233,-3.2e-05,-0.006756,0.01205,-26.0,-6.18,-35.0,1a
2019-07-15_154003:500,-0.327911,0.019806,-0.227264,-3.2e-05,-0.006023,0.013911000000000001,-26.0,-6.18,-35.0,1a
2019-07-15_154003:520,-0.341125,0.015747,-0.20944200000000002,0.00067,-0.005961999999999999,0.012263,-26.059998999999998,-5.5,-33.75,1a
2019-07-15_154003:540,-0.345215,0.013213999999999998,-0.187073,0.001616,-0.006359,0.008204000000000001,-26.059998999999998,-5.5,-33.75,1a
2019-07-15_154003:560,-0.3508,0.013213999999999998,-0.177429,0.002287,-0.007427,0.004359,-26.059998999999998,-5.5,-33.75,1a
2019-07-15_154003:580,-0.35131799999999996,0.014740000000000001,-0.170807,0.003539,-0.008617,0.0017350000000000002,-25.25,-6.18,-34.68,1a
2019-07-15_154003:600,-0.346222,0.019318000000000002,-0.172333,0.004485,-0.010357,-6.6e-05,-25.25,-6.18,-34.68,1a
2019-07-15_154003:620,-0.36044299999999996,0.020325,-0.185547,0.0058579999999999995,-0.011822,-0.00024900000000000004,-25.25,-6.18,-33.75,1a
2019-07-15_154003:640,-0.361969,0.020844,-0.20843499999999998,0.0070480000000000004,-0.012066,0.001185,-25.25,-6.18,-33.75,1a
2019-07-15_154003:660,-0.360962,0.020844,-0.21453899999999998,0.008787999999999999,-0.012066,0.002833,-25.25,-6.18,-33.75,1a
2019-07-15_154003:680,-0.39502,0.023375999999999997,-0.227264,0.011106999999999999,-0.010418,0.0032909999999999997,-25.25,-5.75,-35.0,1a
2019-07-15_154003:700,-0.415375,0.021332,-0.23486300000000002,0.013548,-0.006451,0.002376,-25.25,-5.75,-35.0,1a
2019-07-15_154003:720,-0.44384799999999996,0.025908999999999998,-0.254211,0.015624,-0.0006219999999999999,-0.001073,-23.75,-6.18,-35.0,1a
2019-07-15_154003:740,-0.440796,0.027435,-0.263855,0.017271,-0.000439,-0.004064,-23.75,-6.18,-35.0,1a
2019-07-15_154003:760,-0.45654300000000003,0.025908999999999998,-0.293854,0.017728999999999998,-0.004772,-0.0048270000000000006,-23.75,-6.18,-35.0,1a
2019-07-15_154003:780,-0.49468999999999996,0.023895,-0.315704,0.01895,-0.007031,-0.005162,-24.059998999999998,-5.75,-34.68,1a
2019-07-15_154003:800,-0.495697,0.020844,-0.323334,0.018675,-0.004589,-0.008092,-24.059998999999998,-5.75,-34.68,1a
2019-07-15_154003:820,-0.489075,0.018799,-0.339111,0.018218,0.000294,-0.008245,-24.5,-6.18,-36.18,1a
2019-07-15_154003:840,-0.618744,0.008636,-0.358917,0.017728999999999998,0.0007509999999999999,-0.007298000000000001,-24.5,-6.18,-36.18,1a
2019-07-15_154003:860,-0.49823,-0.01828,-0.36654699999999996,0.017728999999999998,0.002949,-0.012151,-24.5,-6.18,-36.18,1a
2019-07-15_154003:880,-0.530792,-0.031006,-0.365021,0.019347,-0.001934,-0.014318,-23.5,-5.75,-35.75,1a
2019-07-15_154003:900,-0.416382,-0.042694,-0.361481,0.02014,-0.0005,-0.015447,-23.5,-5.75,-35.75,1a
2019-07-15_154003:920,-0.393494,-0.040649,-0.316742,0.019469,0.002216,-0.014195,-23.5,-5.5,-35.0,1a
2019-07-15_154003:940,-0.458588,-0.044739,-0.34265100000000004,0.018462,0.0035590000000000005,-0.006169,-23.5,-5.5,-35.0,1a
2019-07-15_154003:960,-0.45706199999999997,-0.065063,-0.334534,0.015501,-0.001782,-0.004125,-23.5,-5.5,-35.0,1a
2019-07-15_154003:980,-0.416382,-0.063538,-0.316223,0.015013,-0.008221,0.0012460000000000001,-23.5,-4.0,-34.869999,1a
2019-07-15_154004:000,-0.399109,-0.06405599999999999,-0.326385,0.013548,-0.013866,0.005275,-23.5,-4.0,-34.869999,1a
2019-07-15_154004:020,-0.390961,-0.063538,-0.323334,0.010985,-0.019053999999999998,0.0028940000000000003,-23.059998999999998,-4.37,-36.869999,1a
2019-07-15_154004:040,-0.359955,-0.056427,-0.321808,0.009245,-0.020306,-0.0013779999999999999,-23.059998999999998,-4.37,-36.869999,1a
2019-07-15_154004:060,-0.34875500000000004,-0.049316000000000006,-0.314697,0.008727,-0.018719,-0.006383,-23.059998999999998,-4.37,-36.869999,1a
2019-07-15_154004:080,-0.33197,-0.037598,-0.303528,0.008727,-0.017407,-0.009281999999999999,-23.059998999999998,-3.25,-36.560001,1a
2019-07-15_154004:100,-0.327423,-0.026427999999999997,-0.287231,0.008237999999999999,-0.011822,-0.012731000000000001,-23.059998999999998,-3.25,-36.560001,1a
2019-07-15_154004:120,-0.323853,-0.014221000000000001,-0.2659,0.008055,-0.010296,-0.011937,-22.68,-3.68,-37.369999,1a
2019-07-15_154004:140,-0.328949,-0.0055850000000000006,-0.245056,0.006255,-0.006756,-0.009007,-22.68,-3.68,-37.369999,1a
2019-07-15_154004:160,-0.324371,-0.0030210000000000002,-0.231812,0.004485,-0.005718,-0.006626999999999999,-22.68,-3.68,-37.369999,1a
2019-07-15_154004:180,-0.335541,-0.0025329999999999997,-0.219635,0.0036,-0.005961999999999999,-0.005101,-21.559998999999998,-3.68,-37.369999,1a
2019-07-15_154004:200,-0.344696,-0.006072999999999999,-0.213013,0.001341,-0.002728,-0.003179,-21.559998999999998,-3.68,-37.369999,1a
2019-07-15_154004:220,-0.34063699999999997,-0.015228,-0.21554600000000002,0.000212,-0.0021780000000000002,-0.00385,-21.559998999999998,-3.75,-36.869999,1a
2019-07-15_154004:240,-0.323853,-0.015747,-0.21859699999999999,-0.001436,-0.00034700000000000003,-0.00324,-21.559998999999998,-3.75,-36.869999,1a
2019-07-15_154004:260,-0.337067,-0.01828,-0.22879000000000002,-0.001436,0.0007509999999999999,-0.00266,-21.559998999999998,-3.75,-36.869999,1a
2019-07-15_154004:280,-0.368591,-0.019318000000000002,-0.25116,-0.001894,0.000965,-0.002934,-18.559998999999998,-4.06,-37.369999,1a
2019-07-15_154004:300,-0.402649,-0.016753999999999998,-0.260284,-0.0049759999999999995,0.000904,-0.000401,-18.559998999999998,-4.06,-37.369999,1a
2019-07-15_154004:320,-0.430634,-0.013213999999999998,-0.275055,-0.006319,0.0016359999999999999,0.001796,-21.25,-3.75,-37.369999,1a
2019-07-15_154004:340,-0.467224,-0.012177,-0.277069,-0.01169,0.008655,0.005427,-21.25,-3.75,-37.369999,1a
2019-07-15_154004:360,-0.48553500000000005,-0.017273,-0.279633,-0.013887,0.012318,0.003078,-21.25,-3.75,-37.369999,1a
2019-07-15_154004:380,-0.47842399999999996,-0.015747,-0.275543,-0.014558000000000001,0.013508000000000001,0.001796,-20.559998999999998,-4.5,-36.869999,1a
2019-07-15_154004:400,-0.467224,-0.011687999999999999,-0.28927600000000003,-0.016328,0.011798999999999999,0.000789,-20.559998999999998,-4.5,-36.869999,1a
2019-07-15_154004:420,-0.466217,0.006072999999999999,-0.29742399999999997,-0.016817,0.011372,0.00207,-20.559998999999998,-4.5,-36.869999,1a
2019-07-15_154004:440,-0.5429689999999999,0.008636,-0.318756,-0.018587,0.004932,0.005946,-21.25,-5.25,-36.060001,1a
2019-07-15_154004:460,-0.496704,0.015747,-0.325378,-0.020998,0.004688,0.007533,-21.25,-5.25,-36.060001,1a
2019-07-15_154004:480,-0.515015,0.026427999999999997,-0.32486,-0.022584,0.006947,0.009669,-23.18,-5.56,-37.369999,1a
2019-07-15_154004:500,-0.49926800000000005,0.025908999999999998,-0.388916,-0.021181000000000002,0.003406,0.011653,-23.18,-5.56,-37.369999,1a
2019-07-15_154004:520,-0.435699,0.038116000000000004,-0.366058,-0.022646,0.0016359999999999999,0.008601000000000001,-21.25,-6.25,-35.68,1a
2019-07-15_154004:540,-0.377228,0.050323,-0.35943600000000003,-0.020784,0.002949,0.011439,-21.25,-6.25,-35.68,1a
2019-07-15_154004:560,-0.416901,0.043213,-0.358429,-0.014955000000000001,0.002491,0.00561,-21.25,-6.25,-35.68,1a
2019-07-15_154004:580,-0.396545,0.056915,-0.364014,-0.013673,-0.0011099999999999999,0.000728,-21.68,-6.25,-35.68,1a
2019-07-15_154004:600,-0.40368699999999996,0.060486,-0.36248800000000003,-0.010957,-0.008617,0.0036880000000000003,-21.68,-6.25,-35.68,1a
2019-07-15_154004:620,-0.401642,0.055908000000000006,-0.35638400000000003,-0.009248000000000001,-0.009289,0.006221,-21.68,-6.25,-35.68,1a
2019-07-15_154004:640,-0.40316799999999997,0.05438200000000001,-0.33197,-0.00818,-0.004894,0.007686,-21.0,-6.68,-36.060001,1a
2019-07-15_154004:660,-0.384338,0.050842,-0.323334,-0.007631000000000001,-0.00346,0.009944,-21.0,-6.68,-36.060001,1a
2019-07-15_154004:680,-0.34265100000000004,0.040649,-0.29232800000000003,-0.007448000000000001,-0.001019,0.016047,-21.0,-6.68,-36.060001,1a
2019-07-15_154004:700,-0.325897,0.030487,-0.274536,-0.008454999999999999,0.000904,0.021144,-21.0,-6.68,-36.060001,1a
2019-07-15_154004:720,-0.313171,0.015228,-0.256744,-0.008974,0.0011480000000000001,0.023463,-21.0,-6.68,-36.060001,1a
2019-07-15_154004:740,-0.31369,0.008636,-0.23791500000000002,-0.009248000000000001,0.0007509999999999999,0.022456,-21.25,-7.37,-34.869999,1a
2019-07-15_154004:760,-0.320282,0.007599,-0.23233,-0.008759999999999999,-0.001324,0.019801,-21.25,-7.37,-34.869999,1a
2019-07-15_154004:780,-0.339111,0.012695,-0.21759,-0.007661,-0.001934,0.016687999999999998,-22.059998999999998,-7.06,-35.68,1a
2019-07-15_154004:800,-0.35943600000000003,0.01828,-0.216583,-0.0069900000000000006,-0.000439,0.013972,-22.059998999999998,-7.06,-35.68,1a
2019-07-15_154004:820,-0.361481,0.021851,-0.22116100000000002,-0.006593000000000001,0.001697,0.013515000000000001,-22.059998999999998,-7.06,-35.68,1a
2019-07-15_154004:840,-0.356903,0.023375999999999997,-0.223694,-0.006104999999999999,0.0033450000000000003,0.013972,-20.559998999999998,-7.06,-35.25,1a
2019-07-15_154004:860,-0.37265,0.021851,-0.22979699999999997,-0.006044,0.003742,0.013789,-20.559998999999998,-7.06,-35.25,1a
2019-07-15_154004:880,-0.382812,0.013213999999999998,-0.231323,-0.0057079999999999995,0.004229999999999999,0.011989,-20.559998999999998,-7.37,-35.25,1a
2019-07-15_154004:900,-0.390442,0.012177,-0.233337,-0.004457,0.006732999999999999,0.008784,-20.559998999999998,-7.37,-35.25,1a
2019-07-15_154004:920,-0.406738,0.013213999999999998,-0.23590100000000003,-0.0023510000000000002,0.012104,0.006862,-20.559998999999998,-7.37,-35.25,1a
2019-07-15_154004:940,-0.41586300000000004,0.013213999999999998,-0.244019,-0.000246,0.01775,0.004481000000000001,-21.0,-6.68,-34.5,1a
2019-07-15_154004:960,-0.404175,0.008118,-0.27301,0.002135,0.018969999999999997,0.000606,-21.0,-6.68,-34.5,1a
2019-07-15_154004:980,-0.43670699999999996,0.010162000000000001,-0.294373,0.0040880000000000005,0.012104,-0.003118,-22.370001000000002,-5.87,-34.5,1a
2019-07-15_154005:000,-0.45907600000000004,0.009125,-0.303528,0.006712,0.006275,-0.004582,-22.370001000000002,-5.87,-34.5,1a
2019-07-15_154005:020,-0.461639,0.010651,-0.317749,0.007597,0.0020329999999999997,-0.006963,-22.370001000000002,-5.87,-34.5,1a
2019-07-15_154005:040,-0.488068,0.017273,-0.315216,0.008116,0.002888,-0.006719,-21.68,-7.06,-33.68,1a
2019-07-15_154005:060,-0.608063,-0.0055850000000000006,-0.350281,0.008116,0.004017,-0.006626999999999999,-21.68,-7.06,-33.68,1a
2019-07-15_154005:080,-0.533844,-0.008636,-0.315704,0.010039,0.006458,-0.01505,-21.25,-5.75,-34.060001,1a
2019-07-15_154005:100,-0.560272,-0.019318000000000002,-0.353851,0.009917,0.010639000000000001,-0.022618,-21.25,-5.75,-34.060001,1a
2019-07-15_154005:120,-0.497742,-0.019318000000000002,-0.332489,0.012114,0.011127,-0.023686000000000002,-21.25,-5.75,-34.060001,1a
2019-07-15_154005:140,-0.47995,-0.024902,-0.320282,0.010039,0.014972999999999998,-0.019566999999999998,-21.0,-5.5,-33.25,1a
2019-07-15_154005:160,-0.5048520000000001,-0.034058,-0.301483,0.008391,0.021625,-0.013555000000000001,-21.0,-5.5,-33.25,1a
2019-07-15_154005:180,-0.492645,-0.049316000000000006,-0.293335,0.00659,0.023791999999999997,-0.009221,-20.559998999999998,-6.18,-33.25,1a
2019-07-15_154005:200,-0.467743,-0.047791,-0.263336,0.006255,0.023518,-0.008763,-20.559998999999998,-6.18,-33.25,1a
2019-07-15_154005:220,-0.459595,-0.045226999999999996,-0.26944,0.00479,0.019154,-0.004979,-20.559998999999998,-6.18,-33.25,1a
2019-07-15_154005:240,-0.427063,-0.045226999999999996,-0.266907,0.002959,0.015368999999999999,0.000941,-22.059998999999998,-5.56,-32.060001,1a
2019-07-15_154005:260,-0.399597,-0.042694,-0.264862,2.8999999999999997e-05,0.011401999999999999,0.00323,-22.059998999999998,-5.56,-32.060001,1a
2019-07-15_154005:280,-0.356903,-0.036591000000000005,-0.25216700000000003,-0.002382,0.007923000000000001,0.002009,-22.059998999999998,-5.56,-32.869999,1a
2019-07-15_154005:300,-0.34317,-0.034546,-0.234375,-0.00345,0.007862000000000001,-0.001805,-22.059998999999998,-5.56,-32.869999,1a
2019-07-15_154005:320,-0.34063699999999997,-0.033539,-0.22116100000000002,-0.003114,0.010181,-0.007756,-22.059998999999998,-5.56,-32.869999,1a
2019-07-15_154005:340,-0.334534,-0.027435,-0.193176,-0.0016489999999999999,0.012256999999999999,-0.012609,-21.68,-5.25,-32.869999,1a
2019-07-15_154005:360,-0.340118,-0.025421,-0.17996199999999998,0.000884,0.013508000000000001,-0.013921000000000001,-21.68,-5.25,-32.869999,1a
2019-07-15_154005:380,-0.346222,-0.024384,-0.161652,0.003935,0.012104,-0.012486,-22.75,-5.25,-31.18,1a
2019-07-15_154005:400,-0.36044299999999996,-0.023375999999999997,-0.148956,0.005614,0.010395,-0.010137,-22.75,-5.25,-31.18,1a
2019-07-15_154005:420,-0.37316900000000003,-0.022369,-0.136749,0.006926000000000001,0.00951,-0.006841,-22.75,-5.25,-31.18,1a
2019-07-15_154005:440,-0.384338,-0.019318000000000002,-0.142853,0.0073230000000000005,0.008747,-0.005712,-22.370001000000002,-5.25,-30.75,1a
2019-07-15_154005:460,-0.370636,-0.015228,-0.146912,0.006468000000000001,0.006092,-0.0037890000000000003,-22.370001000000002,-5.25,-30.75,1a
2019-07-15_154005:480,-0.37316900000000003,-0.014740000000000001,-0.153534,0.005614,0.0038950000000000005,-0.0013779999999999999,-21.68,-5.87,-31.18,1a
2019-07-15_154005:500,-0.399597,-0.012177,-0.159637,0.005217,0.00301,-0.000737,-21.68,-5.87,-31.18,1a
2019-07-15_154005:520,-0.447906,-0.017273,-0.166229,0.003752,0.001484,-0.00024900000000000004,-21.68,-5.87,-31.18,1a
2019-07-15_154005:540,-0.473846,-0.022369,-0.164215,0.002745,0.002277,-0.000401,-22.059998999999998,-5.87,-30.0,1a
2019-07-15_154005:560,-0.462646,-0.028442000000000002,-0.155548,0.002135,0.0038950000000000005,-0.000188,-22.059998999999998,-5.87,-30.0,1a
2019-07-15_154005:580,-0.509918,-0.037108999999999996,-0.155548,0.003081,0.005756,0.000148,-21.68,-5.25,-30.75,1a
2019-07-15_154005:600,-0.517548,-0.034546,-0.157593,0.005064,0.007587000000000001,-0.002721,-21.68,-5.25,-30.75,1a
2019-07-15_154005:620,-0.5348510000000001,-0.025421,-0.167755,0.005919,0.009998,-0.004125,-21.68,-5.25,-30.75,1a
2019-07-15_154005:640,-0.5134890000000001,-0.022369,-0.18454,0.007597,0.00835,-0.0036969999999999998,-21.68,-5.87,-29.559998999999998,1a
2019-07-15_154005:660,-0.511444,-0.014221000000000001,-0.20639000000000002,0.007201000000000001,0.005146,-0.002385,-21.68,-5.87,-29.559998999999998,1a
2019-07-15_154005:680,-0.557739,-0.0030210000000000002,-0.22421300000000002,0.00601,0.002552,0.000453,-21.68,-5.25,-28.75,1a
2019-07-15_154005:700,-0.609589,-0.009644,-0.276581,0.004057,-0.002575,0.00265,-21.68,-5.25,-28.75,1a
2019-07-15_154005:720,-0.566864,0.018799,-0.26181,-0.000642,-0.0008349999999999999,0.001277,-21.68,-5.25,-28.75,1a
2019-07-15_154005:740,-0.644165,0.007599,-0.307068,-0.002168,-0.0020559999999999997,0.0025280000000000003,-21.370001000000002,-5.56,-30.0,1a
2019-07-15_154005:760,-0.484009,0.0035399999999999997,-0.305054,-0.003664,-0.00108,-0.0023239999999999997,-21.370001000000002,-5.56,-30.0,1a
2019-07-15_154005:780,-0.39859,0.011169,-0.29742399999999997,-0.0034799999999999996,0.003956,-0.001134,-17.370001000000002,-4.87,-28.75,1a
2019-07-15_154005:800,-0.38385,0.017273,-0.30654899999999996,0.000487,0.007618000000000001,0.00207,-17.370001000000002,-4.87,-28.75,1a
2019-07-15_154005:820,-0.402649,0.017273,-0.29943800000000004,0.003203,0.0033450000000000003,-0.0037890000000000003,-17.370001000000002,-4.87,-28.75,1a
2019-07-15_154005:840,-0.42758199999999996,0.027954000000000003,-0.31012,0.004057,-0.007427,-0.011754,-21.059998999999998,-5.25,-28.25,1a
2019-07-15_154005:860,-0.43823199999999995,0.036591000000000005,-0.309113,0.006346,-0.014721000000000001,-0.009679,-21.059998999999998,-5.25,-28.25,1a
2019-07-15_154005:880,-0.44232200000000005,0.034546,-0.308075,0.008269,-0.015788999999999997,-0.005497999999999999,-21.370001000000002,-4.87,-30.25,1a
2019-07-15_154005:900,-0.432159,0.032013,-0.28064,0.009642,-0.014385,-0.003118,-21.370001000000002,-4.87,-30.25,1a
2019-07-15_154005:920,-0.416382,0.028961,-0.260284,0.011504,-0.013226,0.000545,-21.370001000000002,-4.87,-30.25,1a
2019-07-15_154005:940,-0.39502,0.019806,-0.22521999999999998,0.012816,-0.011761,0.006129,-21.059998999999998,-4.5,-29.870001000000002,1a
2019-07-15_154005:960,-0.377228,0.016753999999999998,-0.200317,0.012907,-0.009106,0.010859,-21.059998999999998,-4.5,-29.870001000000002,1a
2019-07-15_154005:980,-0.37011700000000003,0.009644,-0.174377,0.013304,-0.007702,0.014247,-20.0,-4.06,-31.5,1a
2019-07-15_154006:000,-0.36911,0.004547,-0.1586,0.013884,-0.006847,0.014125,-20.0,-4.06,-31.5,1a
2019-07-15_154006:020,-0.358917,0.000488,-0.143372,0.014769,-0.006847,0.011043,-20.0,-4.06,-31.5,1a
2019-07-15_154006:040,-0.361969,0.002014,-0.13269,0.015288,-0.006847,0.007258,-18.75,-3.37,-29.870001000000002,1a
2019-07-15_154006:060,-0.36248800000000003,0.0035399999999999997,-0.131165,0.015746,-0.007885,0.004085,-18.75,-3.37,-29.870001000000002,1a
2019-07-15_154006:080,-0.379791,0.008118,-0.136749,0.015165999999999999,-0.010235,0.002254,-17.75,-2.25,-30.68,1a
2019-07-15_154006:100,-0.402649,0.010162000000000001,-0.145905,0.015227000000000001,-0.01054,0.0028940000000000003,-17.75,-2.25,-30.68,1a
2019-07-15_154006:120,-0.41842700000000005,0.011169,-0.156067,0.014494,-0.007885,0.003871,-17.75,-2.25,-30.68,1a
2019-07-15_154006:140,-0.425537,0.012177,-0.158112,0.013182,-0.0053219999999999995,0.003871,-18.5,-1.56,-31.870001000000002,1a
2019-07-15_154006:160,-0.42605600000000005,0.008118,-0.163177,0.0119,-0.0031850000000000003,0.003474,-18.5,-1.56,-31.870001000000002,1a
2019-07-15_154006:180,-0.445862,0.006592,-0.169281,0.010832,-0.000103,0.001277,-17.0,-1.25,-31.559998999999998,1a
2019-07-15_154006:200,-0.45553599999999994,0.004059,-0.174896,0.010313,0.004688,-0.000981,-17.0,-1.25,-31.559998999999998,1a
2019-07-15_154006:220,-0.467224,0.001495,-0.20843499999999998,0.010985,0.004688,-0.00385,-17.0,-1.25,-31.559998999999998,1a
2019-07-15_154006:240,-0.47180200000000005,0.001495,-0.228271,0.012053,0.00124,-0.00504,-17.0,-1.25,-30.75,1a
2019-07-15_154006:260,-0.51297,-0.010651,-0.255707,0.013182,-0.002605,-0.004186,-17.0,-1.25,-30.75,1a
2019-07-15_154006:280,-0.498749,-0.015228,-0.265381,0.015074,-0.003704,-0.006719,-16.25,-0.5,-30.75,1a
2019-07-15_154006:300,-0.48300200000000004,-0.020844,-0.280121,0.015105,-0.0027890000000000002,-0.010686,-16.25,-0.5,-30.75,1a
2019-07-15_154006:320,-0.6238100000000001,-0.027954000000000003,-0.28418000000000004,0.015105,0.000446,-0.010472,-16.25,-0.5,-30.75,1a
2019-07-15_154006:340,-0.584167,-0.05996699999999999,-0.327423,0.018004,-0.00227,-0.012883000000000002,-17.370001000000002,-0.5,-30.75,1a
2019-07-15_154006:360,-0.525177,-0.059479,-0.29995700000000003,0.017546,5e-05,-0.021825,-17.370001000000002,-0.5,-30.75,1a
2019-07-15_154006:380,-0.518066,-0.082336,-0.36044299999999996,0.022459,-0.004253,-0.022831999999999998,-16.25,-0.5,-30.370001000000002,1a
2019-07-15_154006:400,-0.41995200000000005,-0.09353600000000001,-0.30654899999999996,0.025053,-0.002392,-0.025334,-16.25,-0.5,-30.370001000000002,1a
2019-07-15_154006:420,-0.48300200000000004,-0.10116599999999999,-0.31369,0.027647,-0.002911,-0.023563999999999998,-16.25,-0.5,-30.370001000000002,1a
2019-07-15_154006:440,-0.492126,-0.107269,-0.30654899999999996,0.030760000000000003,-0.006359,-0.018834,-16.25,0.18,-30.370001000000002,1a
2019-07-15_154006:460,-0.49722299999999997,-0.105225,-0.307068,0.03134,-0.011669,-0.014591999999999999,-16.25,0.18,-30.370001000000002,1a
2019-07-15_154006:480,-0.490601,-0.100159,-0.305542,0.030486000000000003,-0.014996,-0.011356999999999999,-15.18,1.0,-32.0,1a
2019-07-15_154006:500,-0.46469099999999997,-0.089478,-0.293854,0.027892,-0.014721000000000001,-0.011876000000000001,-15.18,1.0,-32.0,1a
2019-07-15_154006:520,-0.425537,-0.084381,-0.285706,0.025786,-0.012554000000000001,-0.018926,-15.18,1.0,-32.0,1a
2019-07-15_154006:540,-0.391479,-0.071686,-0.2547,0.023985,-0.008373,-0.030126,-15.56,2.37,-30.370001000000002,1a
2019-07-15_154006:560,-0.37316900000000003,-0.061005,-0.237427,0.02426,-0.004437,-0.040349,-15.56,2.37,-30.370001000000002,1a
2019-07-15_154006:580,-0.32995599999999997,-0.042694,-0.206909,0.025328,-0.000439,-0.045812,-14.5,2.68,-32.0,1a
2019-07-15_154006:600,-0.322327,-0.026917,-0.182007,0.027219999999999998,0.002094,-0.046452999999999994,-14.5,2.68,-32.0,1a
2019-07-15_154006:620,-0.32132,-0.020844,-0.17385899999999999,0.029752999999999998,0.0016359999999999999,-0.043797,-14.5,2.68,-32.0,1a
2019-07-15_154006:640,-0.31012,-0.006072999999999999,-0.156586,0.030882,-0.000164,-0.040349,-14.06,3.06,-33.560001,1a
2019-07-15_154006:660,-0.311127,0.001495,-0.152527,0.031554,-0.003643,-0.035771,-14.06,3.06,-33.560001,1a
2019-07-15_154006:680,-0.318756,0.008636,-0.155548,0.03134,-0.007763,-0.031316000000000004,-15.18,3.37,-30.870001000000002,1a
2019-07-15_154006:700,-0.332489,0.007111,-0.163177,0.031096,-0.012066,-0.027927999999999998,-15.18,3.37,-30.870001000000002,1a
2019-07-15_154006:720,-0.34368899999999997,0.006592,-0.17690999999999998,0.02957,-0.012218999999999999,-0.024144,-15.18,3.37,-30.870001000000002,1a
2019-07-15_154006:740,-0.374176,0.0035399999999999997,-0.20385699999999998,0.029020999999999998,-0.010204000000000001,-0.020787,-14.5,4.06,-31.25,1a
2019-07-15_154006:760,-0.40774499999999997,-0.001007,-0.219635,0.026579000000000002,-0.009106,-0.018315,-14.5,4.06,-31.25,1a
2019-07-15_154006:780,-0.45706199999999997,-0.009125,-0.22421300000000002,0.023711000000000003,-0.0060539999999999995,-0.016057,-13.68,5.5,-33.68,1a
2019-07-15_154006:800,-0.48349,-0.019318000000000002,-0.23690799999999998,0.020262,-0.001202,-0.013219,-13.68,5.5,-33.68,1a
2019-07-15_154006:820,-0.517059,-0.022369,-0.25317399999999995,0.018156,0.005482,-0.011815,-13.68,5.5,-33.68,1a
2019-07-15_154006:840,-0.522644,-0.025908999999999998,-0.262329,0.016295,0.00954,-0.012395,-13.18,5.75,-31.68,1a
2019-07-15_154006:860,-0.5119630000000001,-0.019318000000000002,-0.262848,0.015074,0.011859999999999999,-0.01505,-13.18,5.75,-31.68,1a
2019-07-15_154006:880,-0.495697,-0.004547,-0.28418000000000004,0.014311,0.010578,-0.015263999999999998,-14.68,5.68,-30.870001000000002,1a
2019-07-15_154006:900,-0.531799,0.014740000000000001,-0.287231,0.012175,0.008747,-0.011266,-14.68,5.68,-30.870001000000002,1a
2019-07-15_154006:920,-0.552643,0.005065999999999999,-0.334534,0.009367,0.005604,-0.005559000000000001,-14.68,5.68,-30.870001000000002,1a
2019-07-15_154006:940,-0.482483,0.030487,-0.320801,0.00601,0.006611,-0.004247,-14.0,6.06,-30.870001000000002,1a
2019-07-15_154006:960,-0.554688,0.016266,-0.394012,0.0036,0.003742,-0.001531,-14.0,6.06,-30.870001000000002,1a
2019-07-15_154006:980,-0.48095699999999997,0.023375999999999997,-0.378265,0.002531,0.0032840000000000005,-0.004765999999999999,-15.06,6.5,-31.68,1a
2019-07-15_154007:000,-0.425018,0.038116000000000004,-0.35638400000000003,0.0016769999999999999,0.009113,-0.002263,-15.06,6.5,-31.68,1a
2019-07-15_154007:020,-0.460114,0.027435,-0.340118,0.0063159999999999996,0.014362,-0.002202,-15.06,6.5,-31.68,1a
2019-07-15_154007:040,-0.46060200000000007,0.028442000000000002,-0.333496,0.011961,0.010975,-0.019261,-14.68,6.75,-30.059998999999998,1a
2019-07-15_154007:060,-0.433167,0.053863999999999995,-0.338593,0.016478,0.001026,-0.034581,-14.68,6.75,-30.059998999999998,1a
2019-07-15_154007:080,-0.421967,0.062012,-0.337067,0.022581999999999998,-0.005261,-0.029881,-15.06,7.18,-32.18,1a
2019-07-15_154007:100,-0.42147799999999996,0.062012,-0.322845,0.025511000000000002,-0.005383,-0.021153,-15.06,7.18,-32.18,1a
2019-07-15_154007:120,-0.396545,0.06149299999999999,-0.311127,0.025633,-0.0030629999999999998,-0.015538,-15.06,7.18,-32.18,1a
2019-07-15_154007:140,-0.36706500000000003,0.057953,-0.272491,0.024962,0.001179,-0.0057729999999999995,-15.37,7.87,-31.68,1a
2019-07-15_154007:160,-0.350281,0.042175,-0.227753,0.022856,0.00713,0.00561,-15.37,7.87,-31.68,1a
2019-07-15_154007:180,-0.334534,0.028442000000000002,-0.20944200000000002,0.020812,0.011706999999999999,0.01031,-15.37,7.75,-32.18,1a
2019-07-15_154007:200,-0.341125,0.021851,-0.200317,0.018675,0.011798999999999999,0.008937,-15.37,7.75,-32.18,1a
2019-07-15_154007:220,-0.35791,0.019318000000000002,-0.194214,0.017821,0.008990999999999999,0.008388,-15.37,7.75,-32.18,1a
2019-07-15_154007:240,-0.385376,0.014221000000000001,-0.172333,0.017821,0.007404000000000001,0.006801000000000001,-16.059998999999998,8.87,-30.059998999999998,1a
2019-07-15_154007:260,-0.397583,0.015747,-0.164703,0.018553,0.008198,0.002131,-16.059998999999998,8.87,-30.059998999999998,1a
2019-07-15_154007:280,-0.397064,0.021851,-0.163696,0.019469,0.010914,-0.002172,-16.059998999999998,9.68,-31.0,1a
2019-07-15_154007:300,-0.405212,0.023895,-0.163177,0.019927,0.012165,-0.00324,-16.059998999999998,9.68,-31.0,1a
2019-07-15_154007:320,-0.402649,0.023895,-0.161163,0.020262,0.011311,-0.003331,-16.059998999999998,9.68,-31.0,1a
2019-07-15_154007:340,-0.387909,0.026427999999999997,-0.158112,0.019681999999999998,0.009387999999999999,-0.00443,-14.56,10.06,-29.75,1a
2019-07-15_154007:360,-0.38739,0.028961,-0.157074,0.019530000000000002,0.00713,-0.005162,-14.56,10.06,-29.75,1a
2019-07-15_154007:380,-0.41384899999999997,0.028442000000000002,-0.161163,0.019591,0.00774,-0.005376,-18.0,11.87,-30.18,1a
2019-07-15_154007:400,-0.431641,0.032532,-0.164215,0.02014,0.010731000000000001,-0.007084999999999999,-18.0,11.87,-30.18,1a
2019-07-15_154007:420,-0.432159,0.029480000000000003,-0.201324,0.021147,0.013781999999999999,-0.009557,-18.0,11.87,-30.18,1a
2019-07-15_154007:440,-0.411285,0.028442000000000002,-0.219635,0.021727,0.011982,-0.01209,-18.0,12.18,-29.75,1a
2019-07-15_154007:460,-0.44281000000000004,0.022369,-0.254211,0.022734,0.005604,-0.011662,-18.0,12.18,-29.75,1a
2019-07-15_154007:480,-0.44638100000000003,0.014221000000000001,-0.263855,0.024503999999999998,0.00011100000000000001,-0.009679,-17.559998999999998,13.25,-29.0,1a
2019-07-15_154007:500,-0.453003,0.009125,-0.274017,0.027037000000000002,-0.003704,-0.011266,-17.559998999999998,13.25,-29.0,1a
2019-07-15_154007:520,-0.47995,0.007111,-0.28775,0.029479,-0.004925,-0.013677000000000002,-17.559998999999998,13.25,-29.0,1a
2019-07-15_154007:540,-0.608582,0.002014,-0.28418000000000004,0.032286,-0.0020559999999999997,-0.015934999999999998,-18.559998999999998,12.18,-28.68,1a
2019-07-15_154007:560,-0.546021,-0.026427999999999997,-0.323334,0.038237,0.0006900000000000001,-0.024877,-18.559998999999998,12.18,-28.68,1a
2019-07-15_154007:580,-0.538391,-0.004059,-0.264862,0.04077,0.008411,-0.039098,-18.25,14.06,-28.25,1a
2019-07-15_154007:600,-0.5495909999999999,-0.022858,-0.319794,0.045287,0.007069,-0.037633,-18.25,14.06,-28.25,1a
2019-07-15_154007:620,-0.45043900000000003,-0.025421,-0.252686,0.04727,0.005146,-0.037297000000000004,-18.25,14.06,-28.25,1a
2019-07-15_154007:640,-0.452484,-0.027435,-0.241486,0.045622,0.005085,-0.033513,-16.059998999999998,14.37,-26.25,1a
2019-07-15_154007:660,-0.521637,-0.045226999999999996,-0.235382,0.044432,0.008869,-0.021366999999999997,-16.059998999999998,14.37,-26.25,1a
2019-07-15_154007:680,-0.501282,-0.055908000000000006,-0.230804,0.043547,0.007923000000000001,-0.015203,-20.059998999999998,14.75,-26.68,1a
2019-07-15_154007:700,-0.47842399999999996,-0.048798,-0.231812,0.041167,0.002705,-0.015386000000000002,-20.059998999999998,14.75,-26.68,1a
2019-07-15_154007:720,-0.45401,-0.045745999999999995,-0.236389,0.039580000000000004,-0.003979,-0.011356999999999999,-20.059998999999998,14.75,-26.68,1a
2019-07-15_154007:740,-0.420441,-0.044219999999999995,-0.23590100000000003,0.036925,-0.009564,-0.009892,-20.5,16.18,-25.870001000000002,1a
2019-07-15_154007:760,-0.386383,-0.036072,-0.23486300000000002,0.033476,-0.015147999999999998,-0.013005000000000001,-20.5,16.18,-25.870001000000002,1a
2019-07-15_154007:780,-0.378754,-0.03302,-0.233337,0.030547,-0.017863999999999998,-0.015447,-21.5,17.0,-25.059998999999998,1a
2019-07-15_154007:800,-0.38739,-0.028442000000000002,-0.217072,0.028105,-0.015881,-0.018529,-21.5,17.0,-25.059998999999998,1a
2019-07-15_154007:820,-0.390961,-0.024384,-0.207916,0.026427,-0.009625,-0.022313,-21.5,17.0,-25.059998999999998,1a
2019-07-15_154007:840,-0.385376,-0.01828,-0.192169,0.025389,-0.00346,-0.024297,-21.059998999999998,17.68,-25.18,1a
2019-07-15_154007:860,-0.374695,-0.014740000000000001,-0.177429,0.024718,0.000629,-0.023046,-21.059998999999998,17.68,-25.18,1a
2019-07-15_154007:880,-0.36654699999999996,-0.011687999999999999,-0.170319,0.024503999999999998,0.001362,-0.020513,-21.870001000000002,17.370001000000002,-25.18,1a
2019-07-15_154007:900,-0.364014,-0.0055850000000000006,-0.148956,0.023589,0.000172,-0.018132,-21.870001000000002,17.370001000000002,-25.18,1a
2019-07-15_154007:920,-0.377747,-0.006072999999999999,-0.147949,0.023191999999999997,-0.0016589999999999999,-0.015599000000000002,-21.870001000000002,17.370001000000002,-25.18,1a
2019-07-15_154007:940,-0.39502,-0.009644,-0.15506,0.022856,-0.0035210000000000003,-0.014072999999999999,-22.18,17.68,-24.0,1a
2019-07-15_154007:960,-0.388916,-0.008636,-0.1586,0.021941,-0.005261,-0.013555000000000001,-22.18,17.68,-24.0,1a
2019-07-15_154007:980,-0.401642,-0.013213999999999998,-0.165222,0.020018,-0.004528,-0.012609,-21.870001000000002,18.18,-23.5,1a
2019-07-15_154008:000,-0.407227,-0.015228,-0.169281,0.019408,-0.003796,-0.012609,-21.870001000000002,18.18,-23.5,1a
2019-07-15_154008:020,-0.43621800000000005,-0.022369,-0.186066,0.018218,-0.002575,-0.012334,-21.870001000000002,18.18,-23.5,1a
2019-07-15_154008:040,-0.453003,-0.024384,-0.189636,0.017759999999999998,0.0005070000000000001,-0.012212,-22.18,17.75,-24.0,1a
2019-07-15_154008:060,-0.47079499999999996,-0.024384,-0.194702,0.017333,0.00655,-0.012029,-22.18,17.75,-24.0,1a
2019-07-15_154008:080,-0.484497,-0.023895,-0.199799,0.017363,0.011311,-0.013127000000000002,-22.559998999999998,16.68,-22.370001000000002,1a
2019-07-15_154008:100,-0.521637,-0.025421,-0.224701,0.016936,0.015308,-0.015996,-22.559998999999998,16.68,-22.370001000000002,1a
2019-07-15_154008:120,-0.532806,-0.022369,-0.227264,0.017821,0.018482,-0.015934999999999998,-22.559998999999998,16.68,-22.370001000000002,1a
2019-07-15_154008:140,-0.519073,-0.022369,-0.234375,0.019255,0.017475,-0.01505,-23.68,17.059998999999998,-22.68,1a
2019-07-15_154008:160,-0.5048520000000001,-0.008636,-0.241486,0.019286,0.014118,-0.013921000000000001,-23.68,17.059998999999998,-22.68,1a
2019-07-15_154008:180,-0.618225,0.001007,-0.25116,0.020262,0.009937,-0.012029,-24.5,17.5,-22.68,1a
2019-07-15_154008:200,-0.522644,0.006072999999999999,-0.272491,0.017606999999999998,0.012501,-0.011022,-24.5,17.5,-22.68,1a
2019-07-15_154008:220,-0.578583,0.009125,-0.3396,0.017546,0.005268,-0.005101,-24.5,17.5,-22.68,1a
2019-07-15_154008:240,-0.537384,0.009125,-0.352844,0.015165999999999999,0.000782,-0.007176,-24.5,16.68,-22.370001000000002,1a
2019-07-15_154008:260,-0.44027700000000003,0.019318000000000002,-0.324371,0.013944999999999999,0.0010869999999999999,-0.004979,-24.5,16.68,-22.370001000000002,1a
2019-07-15_154008:280,-0.438751,0.019318000000000002,-0.338074,0.016081,0.007679000000000001,-0.005712,-26.0,16.25,-20.559998999999998,1a
2019-07-15_154008:300,-0.446899,0.009125,-0.322845,0.018553,0.009052,-0.017705000000000002,-26.0,16.25,-20.559998999999998,1a
2019-07-15_154008:320,-0.441803,0.007599,-0.317749,0.020995,0.005543,-0.024816,-26.0,16.25,-20.559998999999998,1a
2019-07-15_154008:340,-0.429596,0.012695,-0.312164,0.023528,0.003437,-0.023046,-26.370001000000002,16.68,-19.370001000000002,1a
2019-07-15_154008:360,-0.425018,0.007111,-0.31012,0.029814,-0.000225,-0.017003,-26.370001000000002,16.68,-19.370001000000002,1a
2019-07-15_154008:380,-0.414337,0.010162000000000001,-0.29742399999999997,0.031218,1.9e-05,-0.016515000000000002,-26.370001000000002,16.370001000000002,-19.75,1a
2019-07-15_154008:400,-0.394012,0.010651,-0.283173,0.035460000000000005,-0.00108,-0.011754,-26.370001000000002,16.370001000000002,-19.75,1a
2019-07-15_154008:420,-0.385376,0.009644,-0.263336,0.037047000000000004,-0.000958,-0.006719,-26.370001000000002,16.370001000000002,-19.75,1a
2019-07-15_154008:440,-0.368073,0.006072999999999999,-0.234375,0.037383,0.00035499999999999996,-0.003392,-27.059998999999998,16.059998999999998,-19.0,1a
2019-07-15_154008:460,-0.364014,0.001007,-0.21148699999999998,0.037656999999999996,0.001759,-0.002782,-27.059998999999998,16.059998999999998,-19.0,1a
2019-07-15_154008:480,-0.36554000000000003,0.002014,-0.186066,0.037322,0.002613,-0.004765999999999999,-27.870001000000002,16.370001000000002,-19.0,1a
2019-07-15_154008:500,-0.372162,0.004547,-0.174896,0.037199,0.0027660000000000002,-0.007634,-27.870001000000002,16.370001000000002,-19.0,1a
2019-07-15_154008:520,-0.386902,0.010651,-0.161652,0.036467,0.003406,-0.010137,-27.870001000000002,16.370001000000002,-19.0,1a
2019-07-15_154008:540,-0.405212,0.01828,-0.159637,0.036009,0.004414,-0.010961,-27.870001000000002,16.75,-19.0,1a
2019-07-15_154008:560,-0.40774499999999997,0.020325,-0.159637,0.034148000000000005,0.005482,-0.013066,-27.870001000000002,16.75,-19.0,1a
2019-07-15_154008:580,-0.40774499999999997,0.028442000000000002,-0.157593,0.033263,0.005543,-0.013066,-29.059998999999998,16.370001000000002,-17.68,1a
2019-07-15_154008:600,-0.421967,0.029968,-0.157074,0.030882,0.0060609999999999995,-0.011693,-29.059998999999998,16.370001000000002,-17.68,1a
2019-07-15_154008:620,-0.425018,0.031006,-0.1586,0.028838,0.005665,-0.012546999999999999,-29.059998999999998,16.370001000000002,-17.68,1a
2019-07-15_154008:640,-0.43011499999999997,0.029968,-0.160126,0.027831,0.00536,-0.012546999999999999,-29.059998999999998,16.370001000000002,-17.25,1a
2019-07-15_154008:660,-0.44281000000000004,0.027954000000000003,-0.156067,0.026305000000000002,0.00951,-0.011022,-29.059998999999998,16.370001000000002,-17.25,1a
2019-07-15_154008:680,-0.43774399999999997,0.024902,-0.157074,0.02603,0.011798999999999999,-0.011266,-30.059998999999998,16.75,-16.870001000000002,1a
2019-07-15_154008:700,-0.44281000000000004,0.022369,-0.167267,0.025907999999999997,0.017231,-0.011815,-30.059998999999998,16.75,-16.870001000000002,1a
2019-07-15_154008:720,-0.441284,0.015228,-0.184021,0.026762,0.018238,-0.011998,-30.059998999999998,16.75,-16.870001000000002,1a
2019-07-15_154008:740,-0.44638100000000003,0.013702,-0.197266,0.027433999999999997,0.016621,-0.012822,-30.059998999999998,16.059998999999998,-15.56,1a
2019-07-15_154008:760,-0.494171,0.006592,-0.213531,0.029020999999999998,0.012440000000000001,-0.01505,-30.059998999999998,16.059998999999998,-15.56,1a
2019-07-15_154008:780,-0.490112,0.005065999999999999,-0.22879000000000002,0.03253,0.007618000000000001,-0.018712,-31.559998999999998,16.059998999999998,-14.37,1a
2019-07-15_154008:800,-0.484009,0.009644,-0.23995999999999998,0.034605000000000004,0.004078,-0.021886000000000003,-31.559998999999998,16.059998999999998,-14.37,1a
2019-07-15_154008:820,-0.52774,0.013213999999999998,-0.23690799999999998,0.036253,0.004963,-0.020391,-31.559998999999998,16.059998999999998,-14.37,1a
2019-07-15_154008:840,-0.662445,0.000488,-0.24963400000000002,0.037077,0.006092,-0.021825,-31.559998999999998,15.0,-14.75,1a
2019-07-15_154008:860,-0.5211180000000001,-0.010651,-0.252686,0.042845,0.008808,-0.041417,-31.559998999999998,15.0,-14.75,1a
2019-07-15_154008:880,-0.552124,-0.011687999999999999,-0.254211,0.043761,0.009144,-0.045201,-31.559998999999998,15.0,-14.75,1a
2019-07-15_154008:900,-0.473846,-0.019806,-0.284698,0.049803,0.0035590000000000005,-0.046727,-33.060001,15.37,-13.5,1a
2019-07-15_154008:920,-0.42401099999999997,-0.019318000000000002,-0.257751,0.049529000000000004,0.00301,-0.045049,-33.060001,15.37,-13.5,1a
2019-07-15_154008:940,-0.48300200000000004,-0.020325,-0.258759,0.048216,0.004291,-0.036289999999999996,-33.369999,13.5,-12.25,1a
2019-07-15_154008:960,-0.517059,-0.026427999999999997,-0.253693,0.048155,0.004414,-0.025029,-33.369999,13.5,-12.25,1a
2019-07-15_154008:980,-0.5058590000000001,-0.030487,-0.24963400000000002,0.048155,0.00182,-0.019322,-35.18,12.06,-11.87,1a
2019-07-15_154009:000,-0.477386,-0.029480000000000003,-0.24963400000000002,0.048003,1.9e-05,-0.014531,-35.18,12.06,-11.87,1a
2019-07-15_154009:020,-0.453003,-0.03302,-0.24353000000000002,0.047026,-0.0037649999999999997,-0.012822,-35.18,12.06,-11.87,1a
2019-07-15_154009:040,-0.417389,-0.036591000000000005,-0.24658200000000002,0.046232999999999996,-0.006298,-0.015325,-35.68,11.75,-11.0,1a
2019-07-15_154009:060,-0.40063499999999996,-0.030487,-0.24658200000000002,0.043547,-0.012493,-0.020177,-35.68,11.75,-11.0,1a
2019-07-15_154009:080,-0.38385,-0.025908999999999998,-0.246063,0.043028,-0.013134,-0.020452,-35.68,11.75,-11.0,1a
2019-07-15_154009:100,-0.37265,-0.022858,-0.23486300000000002,0.042113,-0.01228,-0.022678999999999998,-35.25,12.5,-12.18,1a
2019-07-15_154009:120,-0.366058,-0.014740000000000001,-0.212006,0.041319,-0.009167,-0.025212000000000002,-35.25,12.5,-12.18,1a
2019-07-15_154009:140,-0.36911,-0.009125,-0.193176,0.041563,-0.005657,-0.025151,-36.75,11.25,-12.87,1a
2019-07-15_154009:160,-0.370636,-0.005065999999999999,-0.17944300000000002,0.041777,-0.0030629999999999998,-0.023686000000000002,-36.75,11.25,-12.87,1a
2019-07-15_154009:180,-0.370636,-0.004059,-0.163177,0.041319,-0.0014759999999999999,-0.021825,-36.75,11.25,-12.87,1a
2019-07-15_154009:200,-0.374695,-0.0025329999999999997,-0.156067,0.040708999999999995,-0.0007440000000000001,-0.02036,-37.18,9.87,-12.06,1a
2019-07-15_154009:220,-0.399109,-0.0025329999999999997,-0.152008,0.039580000000000004,-0.0011099999999999999,-0.018865,-37.18,9.87,-12.06,1a
2019-07-15_154009:240,-0.402161,-0.008636,-0.1586,0.038664,-0.000225,-0.018712,-37.18,9.06,-11.56,1a
2019-07-15_154009:260,-0.381805,-0.005065999999999999,-0.154541,0.037077,0.000843,-0.019444,-37.18,9.06,-11.56,1a
2019-07-15_154009:280,-0.37316900000000003,-0.007111,-0.163696,0.036009,0.001423,-0.018437000000000002,-37.18,9.06,-11.56,1a
2019-07-15_154009:300,-0.39502,-0.011169,-0.169281,0.035460000000000005,0.0007509999999999999,-0.01798,-38.0,9.06,-10.68,1a
2019-07-15_154009:320,-0.448425,-0.012695,-0.177948,0.034941,-0.000164,-0.01798,-38.0,9.06,-10.68,1a
2019-07-15_154009:340,-0.466217,-0.010651,-0.185059,0.034819,0.001026,-0.017247,-37.68,9.06,-11.5,1a
2019-07-15_154009:360,-0.523163,-0.002014,-0.18249500000000002,0.032927,0.005543,-0.014134,-37.68,9.06,-11.5,1a
2019-07-15_154009:380,-0.5404359999999999,-0.0035399999999999997,-0.191162,0.031554,0.010853,-0.01154,-37.68,9.06,-11.5,1a
2019-07-15_154009:400,-0.541443,0.007111,-0.191162,0.029631,0.015186000000000002,-0.012151,-39.5,8.25,-11.37,1a
2019-07-15_154009:420,-0.531799,0.014740000000000001,-0.21759,0.027373,0.015552000000000002,-0.010869,-39.5,8.25,-11.37,1a
2019-07-15_154009:440,-0.519592,0.023375999999999997,-0.226746,0.02484,0.013905,-0.008489,-39.869999,8.25,-10.56,1a
2019-07-15_154009:460,-0.6512760000000001,0.026917,-0.2547,0.021513,0.010578,-0.005222999999999999,-39.869999,8.25,-10.56,1a
2019-07-15_154009:480,-0.535858,0.024902,-0.271484,0.019133,0.004414,-0.0046429999999999996,-39.869999,8.25,-10.56,1a
2019-07-15_154009:500,-0.575531,0.048279,-0.258759,0.013425999999999999,0.008320000000000001,-0.00324,-41.25,7.87,-9.37,1a
2019-07-15_154009:520,-0.571442,0.032013,-0.337067,0.014830000000000001,0.000446,-0.001256,-41.25,7.87,-9.37,1a
2019-07-15_154009:540,-0.43927,0.046265,-0.315704,0.011106999999999999,-0.0024530000000000003,-0.008153,-40.25,7.56,-10.18,1a
2019-07-15_154009:560,-0.435699,0.06149299999999999,-0.334534,0.012022,-0.001598,-0.006291,-40.25,7.56,-10.18,1a
2019-07-15_154009:580,-0.462646,0.056915,-0.324371,0.014677,0.004353,-0.005437,-40.25,7.56,-10.18,1a
2019-07-15_154009:600,-0.43621800000000005,0.065582,-0.309601,0.015501,0.005146,-0.014531,-40.560001,7.56,-10.87,1a
2019-07-15_154009:620,-0.42758199999999996,0.072174,-0.300476,0.015074,0.003101,-0.017064,-40.560001,7.56,-10.87,1a
2019-07-15_154009:640,-0.407227,0.06253099999999999,-0.302002,0.015624,0.000233,-0.007481999999999999,-41.560001,7.18,-10.5,1a
2019-07-15_154009:660,-0.41384899999999997,0.053863999999999995,-0.286224,0.014769,-0.001385,-0.00033999999999999997,-41.560001,7.18,-10.5,1a
2019-07-15_154009:680,-0.40011599999999997,0.044219999999999995,-0.275543,0.014219999999999998,-0.0035210000000000003,0.001185,-41.560001,7.18,-10.5,1a
2019-07-15_154009:700,-0.39502,0.036072,-0.24706999999999998,0.013822999999999998,-0.003582,0.002955,-42.0,7.06,-9.68,1a
2019-07-15_154009:720,-0.38385,0.028961,-0.23028600000000002,0.013243000000000001,-0.00108,0.006953,-42.0,7.06,-9.68,1a
2019-07-15_154009:740,-0.373688,0.021851,-0.20080599999999998,0.012754999999999999,0.001575,0.008784,-42.0,6.37,-8.87,1a
2019-07-15_154009:760,-0.371643,0.017273,-0.185547,0.012633,0.0038950000000000005,0.00912,-42.0,6.37,-8.87,1a
2019-07-15_154009:780,-0.37011700000000003,0.011169,-0.162689,0.012816,0.005665,0.008265,-42.0,6.37,-8.87,1a
2019-07-15_154009:800,-0.365021,0.011169,-0.150482,0.013640000000000001,0.005543,0.006404000000000001,-42.68,7.56,-8.06,1a
2019-07-15_154009:820,-0.37674,0.011687999999999999,-0.138275,0.013975999999999999,0.005268,0.004359,-42.68,7.56,-8.06,1a
2019-07-15_154009:840,-0.388916,0.017792,-0.13623,0.015165999999999999,0.0032229999999999997,0.002009,-42.25,7.87,-8.87,1a
2019-07-15_154009:860,-0.392487,0.022369,-0.135223,0.015746,0.00124,-0.000463,-42.25,7.87,-8.87,1a
2019-07-15_154009:880,-0.40823400000000004,0.027435,-0.144379,0.016478,-0.0005,-0.001714,-42.25,7.87,-8.87,1a
2019-07-15_154009:900,-0.417389,0.031494,-0.153015,0.016936,-0.0006219999999999999,-0.002782,-42.68,7.87,-9.68,1a
2019-07-15_154009:920,-0.420959,0.038116000000000004,-0.1586,0.017027,0.000782,-0.002782,-42.68,7.87,-9.68,1a
2019-07-15_154009:940,-0.42807,0.039642000000000004,-0.156067,0.016814,0.003406,-0.001927,-42.25,7.87,-9.25,1a
2019-07-15_154009:960,-0.437225,0.038116000000000004,-0.152008,0.016875,0.008808,-0.001775,-42.25,7.87,-9.25,1a
2019-07-15_154009:980,-0.46670500000000004,0.035065,-0.16217,0.017485,0.015643999999999998,-0.003392,-42.25,7.87,-9.25,1a
2019-07-15_154010:000,-0.46926899999999994,0.03302,-0.18096900000000002,0.018553,0.018482,-0.005986,-43.0,7.5,-9.68,1a
2019-07-15_154010:020,-0.504333,0.03302,-0.20742800000000003,0.019072,0.016712,-0.009038,-43.0,7.5,-9.68,1a
2019-07-15_154010:040,-0.495697,0.028961,-0.21505700000000003,0.020384,0.012501,-0.010228000000000001,-43.369999,7.5,-8.5,1a
2019-07-15_154010:060,-0.475372,0.023895,-0.222687,0.021544,0.009113,-0.012273000000000001,-43.369999,7.5,-8.5,1a
2019-07-15_154010:080,-0.48095699999999997,0.021851,-0.23028600000000002,0.023313999999999998,0.0071909999999999995,-0.013280000000000002,-43.369999,7.5,-8.5,1a
2019-07-15_154010:100,-0.6721189999999999,0.006592,-0.242493,0.025237,0.007801000000000001,-0.014531,-44.869999,6.68,-7.68,1a
2019-07-15_154010:120,-0.5424800000000001,0.0055850000000000006,-0.24963400000000002,0.030820999999999998,0.001911,-0.023168,-44.869999,6.68,-7.68,1a
2019-07-15_154010:140,-0.60907,0.007111,-0.262848,0.030211000000000002,0.004627,-0.032902999999999995,-44.5,6.37,-7.68,1a
2019-07-15_154010:160,-0.539917,-0.004059,-0.276581,0.034087,-0.0008349999999999999,-0.026677,-44.5,6.37,-7.68,1a
2019-07-15_154010:180,-0.5058590000000001,-0.009644,-0.260284,0.032469,-0.0007440000000000001,-0.023503,-44.5,6.37,-7.68,1a
2019-07-15_154010:200,-0.529755,-0.015747,-0.248108,0.029479,0.0016359999999999999,-0.01685,-46.0,5.18,-6.87,1a
2019-07-15_154010:220,-0.5109560000000001,-0.028442000000000002,-0.23895300000000003,0.027312,0.003834,-0.0075120000000000004,-46.0,5.18,-6.87,1a
2019-07-15_154010:240,-0.48858599999999996,-0.035583,-0.22521999999999998,0.025237,0.002705,-0.005651,-46.0,4.56,-6.87,1a
2019-07-15_154010:260,-0.459595,-0.041687,-0.22116100000000002,0.024107,0.0006900000000000001,-0.001042,-46.0,4.56,-6.87,1a
2019-07-15_154010:280,-0.443329,-0.046265,-0.21505700000000003,0.022673,-0.001537,0.003963,-46.0,4.56,-6.87,1a
2019-07-15_154010:300,-0.40011599999999997,-0.051330999999999995,-0.21402,0.021727,-0.003796,0.003871,-45.560001,4.18,-5.68,1a
2019-07-15_154010:320,-0.377228,-0.049805,-0.21148699999999998,0.020659,-0.007916,5.6000000000000006e-05,-45.560001,4.18,-5.68,1a
2019-07-15_154010:340,-0.359955,-0.039642000000000004,-0.212006,0.02072,-0.011089,-0.003575,-45.68,4.18,-6.87,1a
2019-07-15_154010:360,-0.36044299999999996,-0.033539,-0.20233199999999998,0.020475999999999998,-0.012005,-0.007481999999999999,-45.68,4.18,-6.87,1a
2019-07-15_154010:380,-0.36554000000000003,-0.022858,-0.194214,0.020018,-0.011334,-0.011356999999999999,-45.68,4.18,-6.87,1a
2019-07-15_154010:400,-0.378265,-0.017792,-0.187073,0.018462,-0.009502,-0.013616,-44.869999,4.56,-5.25,1a
2019-07-15_154010:420,-0.389954,-0.013702,-0.171844,0.016631,-0.006512,-0.013066,-44.869999,4.56,-5.25,1a
2019-07-15_154010:440,-0.387909,-0.014221000000000001,-0.160645,0.014708,-0.003002,-0.012029,-46.0,4.87,-6.5,1a
2019-07-15_154010:460,-0.388428,-0.016753999999999998,-0.154022,0.013304,0.00038500000000000003,-0.010076,-46.0,4.87,-6.5,1a
2019-07-15_154010:480,-0.394012,-0.018799,-0.149475,0.012816,0.001972,-0.009007,-46.0,4.87,-6.5,1a
2019-07-15_154010:500,-0.390961,-0.020844,-0.15506,0.012633,0.001575,-0.009496,-47.060001,2.68,-6.87,1a
2019-07-15_154010:520,-0.378265,-0.021851,-0.153534,0.013243000000000001,0.00011100000000000001,-0.008824,-47.060001,2.68,-6.87,1a
2019-07-15_154010:540,-0.371643,-0.023895,-0.154541,0.014037,0.000172,-0.007878,-47.060001,2.37,-6.5,1a
2019-07-15_154010:560,-0.40316799999999997,-0.024902,-0.164215,0.014555000000000002,-0.000439,-0.007817000000000001,-47.060001,2.37,-6.5,1a
2019-07-15_154010:580,-0.432159,-0.025908999999999998,-0.174896,0.014219999999999998,-0.000897,-0.006841,-47.060001,2.37,-6.5,1a
2019-07-15_154010:600,-0.45605500000000004,-0.026917,-0.189117,0.014159,0.000965,-0.004918,-48.18,2.37,-6.87,1a
2019-07-15_154010:620,-0.523651,-0.026917,-0.201324,0.013304,0.004963,-0.002904,-48.18,2.37,-6.87,1a
2019-07-15_154010:640,-0.531799,-0.028442000000000002,-0.20843499999999998,0.012114,0.008137,-0.002202,-47.5,1.68,-6.87,1a
2019-07-15_154010:660,-0.553162,-0.022369,-0.210968,0.010832,0.010975,-0.0019879999999999997,-47.5,1.68,-6.87,1a
2019-07-15_154010:680,-0.544495,-0.014221000000000001,-0.228271,0.009398,0.012440000000000001,-0.000737,-47.5,1.68,-6.87,1a
2019-07-15_154010:700,-0.6289060000000001,0.007111,-0.233856,0.006194,0.012318,0.002009,-48.18,1.25,-6.06,1a
2019-07-15_154010:720,-0.5872189999999999,0.006592,-0.262329,0.004332,0.009937,0.003016,-48.18,1.25,-6.06,1a
2019-07-15_154010:740,-0.6177060000000001,0.019318000000000002,-0.242004,-9.300000000000001e-05,0.011798999999999999,0.004085,-53.68,1.25,-6.06,1a
2019-07-15_154010:760,-0.575012,0.008118,-0.305542,0.000304,0.0054210000000000005,0.003749,-53.68,1.25,-6.06,1a
2019-07-15_154010:780,-0.472321,0.01828,-0.287231,-0.001771,0.003101,-0.001256,-53.68,1.25,-6.06,1a
2019-07-15_154010:800,-0.42807,0.032532,-0.305054,-3.2e-05,0.002369,-0.002263,-49.68,1.68,-4.87,1a
2019-07-15_154010:820,-0.467743,0.038635,-0.290283,0.002623,0.005939,-0.006383,-49.68,1.68,-4.87,1a
2019-07-15_154010:840,-0.461121,0.044739,-0.277069,0.004332,0.004749000000000001,-0.014256,-49.68,1.06,-5.25,1a
2019-07-15_154010:860,-0.43774399999999997,0.055389,-0.25521900000000003,0.004607,0.003956,-0.013188,-49.68,1.06,-5.25,1a
2019-07-15_154010:880,-0.420959,0.047791,-0.26181,0.005675,0.000843,-0.007115000000000001,-49.68,1.06,-5.25,1a
2019-07-15_154010:900,-0.394531,0.044219999999999995,-0.237427,0.0061329999999999996,-0.0008349999999999999,-0.006444,-50.75,1.06,-2.87,1a
2019-07-15_154010:920,-0.388916,0.040161,-0.235382,0.007536,-0.004192,-0.005895,-50.75,1.06,-2.87,1a
2019-07-15_154010:940,-0.379272,0.038116000000000004,-0.220642,0.009062,-0.0071530000000000005,-0.004125,-50.369999,1.06,-2.87,1a
2019-07-15_154010:960,-0.38385,0.034058,-0.20944200000000002,0.009642,-0.007885,-0.000188,-50.369999,1.06,-2.87,1a
2019-07-15_154010:980,-0.377747,0.028442000000000002,-0.19574,0.010313,-0.006847,0.003871,-50.369999,1.06,-2.87,1a
2019-07-15_154011:000,-0.377228,0.025908999999999998,-0.17690999999999998,0.010924,-0.005261,0.006618000000000001,-50.369999,-0.68,-3.75,1a
2019-07-15_154011:020,-0.383331,0.024384,-0.170807,0.011290000000000001,-0.005229999999999999,0.007075,-50.369999,-0.68,-3.75,1a
2019-07-15_154011:040,-0.39502,0.027435,-0.160126,0.011626000000000001,-0.004497999999999999,0.006953,-50.75,-0.37,-5.0,1a
2019-07-15_154011:060,-0.399109,0.028961,-0.152008,0.011961,-0.00346,0.007594,-50.75,-0.37,-5.0,1a
2019-07-15_154011:080,-0.404694,0.027954000000000003,-0.14386,0.011382,-0.002239,0.0068920000000000006,-50.75,-0.37,-5.0,1a
2019-07-15_154011:100,-0.41232299999999994,0.027954000000000003,-0.138794,0.010924,-0.000958,0.0051530000000000005,-51.75,-0.68,-4.5,1a
2019-07-15_154011:120,-0.416382,0.028442000000000002,-0.138275,0.010191,-0.000164,0.0042369999999999994,-51.75,-0.68,-4.5,1a
2019-07-15_154011:140,-0.423004,0.027435,-0.144897,0.009642,-0.000164,0.00442,-50.75,-0.06,-4.87,1a
2019-07-15_154011:160,-0.425537,0.030487,-0.142853,0.008971,0.000172,0.005,-50.75,-0.06,-4.87,1a
2019-07-15_154011:180,-0.430634,0.032532,-0.143372,0.008116,0.002552,0.004817,-50.75,-0.06,-4.87,1a
2019-07-15_154011:200,-0.46316499999999994,0.031494,-0.146912,0.007719,0.007984,0.0035659999999999997,-51.5,0.68,-4.06,1a
2019-07-15_154011:220,-0.45706199999999997,0.029480000000000003,-0.157593,0.008055,0.012256999999999999,0.000941,-51.5,0.68,-4.06,1a
2019-07-15_154011:240,-0.466217,0.029968,-0.159119,0.008634999999999999,0.016285,0.00027,-52.18,1.06,-4.06,1a
2019-07-15_154011:260,-0.48300200000000004,0.022858,-0.177948,0.009795,0.015247,5.6000000000000006e-05,-52.18,1.06,-4.06,1a
2019-07-15_154011:280,-0.506897,0.019318000000000002,-0.194702,0.011504,0.010273000000000001,-0.002782,-52.18,1.06,-4.06,1a
2019-07-15_154011:300,-0.5048520000000001,0.018799,-0.201324,0.013762,0.00655,-0.006047,-51.060001,-0.06,-3.25,1a
2019-07-15_154011:320,-0.49517799999999995,0.016266,-0.21554600000000002,0.01602,0.0036200000000000004,-0.008489,-51.060001,-0.06,-3.25,1a
2019-07-15_154011:340,-0.581116,0.019806,-0.21148699999999998,0.018065,0.0032840000000000005,-0.009770000000000001,-51.75,0.68,-3.25,1a
2019-07-15_154011:360,-0.619232,-0.000488,-0.24706999999999998,0.021330000000000002,0.000965,-0.012395,-51.75,0.68,-3.25,1a
2019-07-15_154011:380,-0.60907,0.011687999999999999,-0.21859699999999999,0.022397999999999998,0.004627,-0.018712,-51.75,0.68,-3.25,1a
2019-07-15_154011:400,-0.558746,-0.008636,-0.28418000000000004,0.025847000000000002,0.001026,-0.019780000000000002,-52.560001,0.25,-3.25,1a
2019-07-15_154011:420,-0.48654200000000003,-0.007599,-0.257751,0.025297999999999998,0.001301,-0.020238,-52.560001,0.25,-3.25,1a
2019-07-15_154011:440,-0.466217,-0.013213999999999998,-0.256744,0.022734,0.0032229999999999997,-0.011754,-53.0,-0.68,-1.75,1a
2019-07-15_154011:460,-0.521637,-0.033539,-0.236389,0.019621,0.0060609999999999995,-0.002172,-53.0,-0.68,-1.75,1a
2019-07-15_154011:480,-0.49823,-0.043701,-0.226227,0.019072,0.004475,-0.0016530000000000002,-53.0,-0.68,-1.75,1a
2019-07-15_154011:500,-0.475372,-0.045226999999999996,-0.227753,0.018218,0.00243,-0.002263,-53.0,-2.5,-1.37,1a
2019-07-15_154011:520,-0.45401,-0.050323,-0.228271,0.019469,-0.0007440000000000001,0.001582,-53.0,-2.5,-1.37,1a
2019-07-15_154011:540,-0.453003,-0.050842,-0.226227,0.019286,-0.005047,0.001674,-53.060001,-2.06,-1.75,1a
2019-07-15_154011:560,-0.423492,-0.045745999999999995,-0.226746,0.019286,-0.009411,-0.00033999999999999997,-53.060001,-2.06,-1.75,1a
2019-07-15_154011:580,-0.412811,-0.043701,-0.22164899999999998,0.018491999999999998,-0.011271999999999999,-0.002904,-53.060001,-2.06,-1.75,1a
2019-07-15_154011:600,-0.393494,-0.038635,-0.21606399999999998,0.018462,-0.010418,-0.006841,-52.68,-2.87,-1.75,1a
2019-07-15_154011:620,-0.382324,-0.03302,-0.204376,0.017668,-0.006786,-0.011876000000000001,-52.68,-2.87,-1.75,1a
2019-07-15_154011:640,-0.36911,-0.024384,-0.187592,0.017333,-0.0024530000000000003,-0.014928,-53.060001,-2.87,-1.37,1a
2019-07-15_154011:660,-0.373688,-0.022858,-0.17385899999999999,0.01721,0.00124,-0.016332,-53.060001,-2.87,-1.37,1a
2019-07-15_154011:680,-0.374176,-0.019806,-0.153015,0.017363,0.0036810000000000002,-0.016728,-53.060001,-2.87,-1.37,1a
2019-07-15_154011:700,-0.372162,-0.018799,-0.138794,0.017546,0.005543,-0.016515000000000002,-52.68,-4.0,-1.75,1a
2019-07-15_154011:720,-0.361481,-0.01828,-0.12558,0.018004,0.005268,-0.015477000000000001,-52.68,-4.0,-1.75,1a
2019-07-15_154011:740,-0.364532,-0.016753999999999998,-0.11795,0.019011,0.0030399999999999997,-0.014012,-52.68,-5.06,-2.56,1a
2019-07-15_154011:760,-0.36248800000000003,-0.015747,-0.121002,0.019347,-0.000897,-0.012609,-52.68,-5.06,-2.56,1a
2019-07-15_154011:780,-0.38028,-0.013702,-0.127594,0.019408,-0.0031850000000000003,-0.0109,-52.68,-5.06,-2.56,1a
2019-07-15_154011:800,-0.39859,-0.012177,-0.134705,0.019133,-0.002911,-0.009007,-52.68,-5.5,-2.06,1a
2019-07-15_154011:820,-0.423004,-0.016266,-0.144379,0.018462,-0.002728,-0.006963,-52.68,-5.5,-2.06,1a
2019-07-15_154011:840,-0.457581,-0.021332,-0.151001,0.016753,-0.001843,-0.004918,-52.68,-6.06,-1.68,1a
2019-07-15_154011:860,-0.489075,-0.024902,-0.152527,0.016234000000000002,0.001301,-0.003331,-52.68,-6.06,-1.68,1a
2019-07-15_154011:880,-0.526215,-0.022369,-0.157074,0.01541,0.007862000000000001,-0.00324,-52.68,-6.06,-1.68,1a
2019-07-15_154011:900,-0.52417,-0.019318000000000002,-0.170319,0.014311,0.011585,-0.004857,-51.560001,-6.0,-2.5,1a
2019-07-15_154011:920,-0.543488,-0.010162000000000001,-0.17690999999999998,0.012572,0.013721,-0.006963,-51.560001,-6.0,-2.5,1a
2019-07-15_154011:940,-0.523651,-0.002014,-0.205902,0.011045999999999999,0.013447,-0.005956,-53.060001,-6.87,-1.68,1a
2019-07-15_154011:960,-0.584167,0.022369,-0.213013,0.007842,0.011706999999999999,-0.002782,-53.060001,-6.87,-1.68,1a
2019-07-15_154011:980,-0.67569,0.011687999999999999,-0.24658200000000002,0.004668,0.00835,0.00265,-53.060001,-6.87,-1.68,1a
2019-07-15_154012:000,-0.576019,0.028961,-0.23028600000000002,0.00128,0.0070079999999999995,0.003474,-52.25,-7.5,0.0,1a
2019-07-15_154012:020,-0.625336,0.013213999999999998,-0.30654899999999996,-0.001039,0.0036200000000000004,0.005672,-52.25,-7.5,0.0,1a
2019-07-15_154012:040,-0.52774,0.018799,-0.29943800000000004,-0.0008560000000000001,-0.00172,0.001124,-51.869999,-7.18,-0.18,1a
2019-07-15_154012:060,-0.445862,0.036591000000000005,-0.29486100000000004,-0.0005200000000000001,-0.000225,-0.0023239999999999997,-51.869999,-7.18,-0.18,1a
2019-07-15_154012:080,-0.475372,0.039124,-0.28979499999999997,0.0036609999999999998,0.005085,-0.004125,-51.869999,-7.18,-0.18,1a
2019-07-15_154012:100,-0.48858599999999996,0.040649,-0.278595,0.006987,0.004536,-0.013280000000000002,-52.25,-7.5,0.56,1a
2019-07-15_154012:120,-0.46060200000000007,0.05438200000000001,-0.267426,0.008634999999999999,0.0006900000000000001,-0.019628,-52.25,-7.5,0.56,1a
2019-07-15_154012:140,-0.448425,0.051849,-0.263336,0.011229000000000001,-0.002392,-0.014072999999999999,-51.869999,-8.18,-0.18,1a
2019-07-15_154012:160,-0.41995200000000005,0.051330999999999995,-0.231323,0.013548,-0.003124,-0.010686,-51.869999,-8.18,-0.18,1a
2019-07-15_154012:180,-0.408752,0.047272,-0.226746,0.014098,-0.004528,-0.009281999999999999,-51.869999,-8.18,-0.18,1a
2019-07-15_154012:200,-0.395538,0.048279,-0.223694,0.015349000000000002,-0.006634,-0.005376,-51.18,-8.18,0.25,1a
2019-07-15_154012:220,-0.383331,0.042694,-0.191162,0.016203,-0.008221,0.000484,-51.18,-8.18,0.25,1a
2019-07-15_154012:240,-0.383331,0.035583,-0.17944300000000002,0.015165999999999999,-0.007092,0.005214,-51.18,-9.37,-0.06,1a
2019-07-15_154012:260,-0.381317,0.035065,-0.17690999999999998,0.014677,-0.0053219999999999995,0.007869,-51.18,-9.37,-0.06,1a
2019-07-15_154012:280,-0.38739,0.023895,-0.158112,0.013944999999999999,-0.003643,0.007197,-51.18,-9.37,-0.06,1a
2019-07-15_154012:300,-0.385376,0.023895,-0.153534,0.013975999999999999,-0.002575,0.005672,-51.560001,-9.37,-0.5,1a
2019-07-15_154012:320,-0.386902,0.021851,-0.138275,0.013884,-0.0021780000000000002,0.004359,-51.560001,-9.37,-0.5,1a
2019-07-15_154012:340,-0.389954,0.021851,-0.136749,0.013487,-0.002972,0.0033520000000000004,-56.369999,-7.5,-2.06,1a
2019-07-15_154012:360,-0.408752,0.021851,-0.129639,0.013182,-0.004376,0.00323,-56.369999,-7.5,-2.06,1a
2019-07-15_154012:380,-0.41995200000000005,0.024902,-0.135223,0.013030000000000002,-0.004925,0.003016,-56.369999,-7.5,-2.06,1a
2019-07-15_154012:400,-0.42147799999999996,0.024384,-0.144897,0.012633,-0.005444,0.00207,-51.560001,-9.37,-1.37,1a
2019-07-15_154012:420,-0.417908,0.029480000000000003,-0.146912,0.012633,-0.005047,0.0010019999999999999,-51.560001,-9.37,-1.37,1a
2019-07-15_154012:440,-0.41995200000000005,0.035065,-0.154541,0.012175,-0.003002,0.000789,-51.560001,-7.87,-1.75,1a
2019-07-15_154012:460,-0.434692,0.035583,-0.149963,0.011778,0.0023079999999999997,0.00088,-51.560001,-7.87,-1.75,1a
2019-07-15_154012:480,-0.45605500000000004,0.026917,-0.13623,0.012114,0.010517,0.000728,-51.560001,-7.87,-1.75,1a
2019-07-15_154012:500,-0.449432,0.024902,-0.136749,0.013365,0.015491,-0.000859,-50.869999,-9.0,-1.75,1a
2019-07-15_154012:520,-0.481476,0.019318000000000002,-0.163696,0.014616,0.012928,-0.003057,-50.869999,-9.0,-1.75,1a
2019-07-15_154012:540,-0.49823,0.016753999999999998,-0.1698,0.016478,0.00713,-0.005437,-51.18,-9.0,-1.37,1a
2019-07-15_154012:560,-0.500275,0.017273,-0.172333,0.019408,0.0036200000000000004,-0.010411,-51.18,-9.0,-1.37,1a
2019-07-15_154012:580,-0.495697,0.019318000000000002,-0.178955,0.021391,0.002369,-0.015325,-51.18,-9.0,-1.37,1a
2019-07-15_154012:600,-0.517059,0.027435,-0.183533,0.023924,0.002216,-0.0174,-50.5,-9.0,-0.87,1a
2019-07-15_154012:620,-0.627899,0.020844,-0.205902,0.027098,-0.0024530000000000003,-0.021519999999999997,-50.5,-9.0,-0.87,1a
2019-07-15_154012:640,-0.563812,0.004547,-0.242004,0.030820999999999998,-0.006786,-0.03159,-50.869999,-9.37,-2.18,1a
2019-07-15_154012:660,-0.6314390000000001,0.0030210000000000002,-0.2547,0.03369,-0.004894,-0.031072000000000002,-50.869999,-9.37,-2.18,1a
2019-07-15_154012:680,-0.585693,-0.009125,-0.266907,0.037138,-0.004192,-0.029881,-50.869999,-9.37,-2.18,1a
2019-07-15_154012:700,-0.5272220000000001,-0.016266,-0.240479,0.036864,-0.004131,-0.028995999999999997,-50.060001,-11.18,-1.75,1a
2019-07-15_154012:720,-0.49365200000000004,-0.022369,-0.23028600000000002,0.038573,-0.003124,-0.021886000000000003,-50.060001,-11.18,-1.75,1a
2019-07-15_154012:740,-0.497742,-0.025908999999999998,-0.23028600000000002,0.036192,-0.005169,-0.014806,-50.060001,-13.0,-1.37,1a
2019-07-15_154012:760,-0.502808,-0.031494,-0.235382,0.034819,-0.007092,-0.008489,-50.060001,-13.0,-1.37,1a
2019-07-15_154012:780,-0.48095699999999997,-0.035583,-0.225739,0.033201999999999995,-0.006756,-0.003728,-50.060001,-13.0,-1.37,1a
2019-07-15_154012:800,-0.444855,-0.041168,-0.220642,0.032164,-0.0062369999999999995,-0.001256,-57.75,-13.0,-3.37,1a
2019-07-15_154012:820,-0.429108,-0.044219999999999995,-0.220642,0.029814,-0.008038,0.001857,-57.75,-13.0,-3.37,1a
2019-07-15_154012:840,-0.38385,-0.045226999999999996,-0.222687,0.028838,-0.009747,0.000606,-49.0,-12.87,-5.0,1a
2019-07-15_154012:860,-0.379272,-0.042694,-0.21859699999999999,0.025786,-0.013409,-0.005497999999999999,-49.0,-12.87,-5.0,1a
2019-07-15_154012:880,-0.37316900000000003,-0.036072,-0.21759,0.024443,-0.012402,-0.010076,-49.0,-12.87,-5.0,1a
2019-07-15_154012:900,-0.371643,-0.028961,-0.20944200000000002,0.02307,-0.008953000000000001,-0.013524000000000001,-48.560001,-13.0,-3.75,1a
2019-07-15_154012:920,-0.375214,-0.023895,-0.195221,0.021544,-0.005779,-0.014988999999999999,-48.560001,-13.0,-3.75,1a
2019-07-15_154012:940,-0.384857,-0.019806,-0.18096900000000002,0.02014,-0.003368,-0.015477000000000001,-49.369999,-13.37,-4.56,1a
2019-07-15_154012:960,-0.384857,-0.01828,-0.168274,0.019530000000000002,-0.001843,-0.015934999999999998,-49.369999,-13.37,-4.56,1a
2019-07-15_154012:980,-0.389435,-0.012695,-0.155548,0.019072,-0.00108,-0.015447,-49.369999,-13.37,-4.56,1a
2019-07-15_154013:000,-0.390442,-0.012177,-0.148956,0.018889,-0.000897,-0.014988999999999999,-49.369999,-13.68,-5.37,1a
2019-07-15_154013:020,-0.405212,-0.009125,-0.145905,0.019072,-0.0011099999999999999,-0.014866999999999998,-49.369999,-13.68,-5.37,1a
2019-07-15_154013:040,-0.392487,-0.006592,-0.14743,0.01895,-0.00108,-0.014409,-49.369999,-13.68,-5.37,1a
2019-07-15_154013:060,-0.402649,-0.004547,-0.150482,0.017943,-0.0007740000000000001,-0.010137,-48.560001,-15.56,-5.5,1a
2019-07-15_154013:080,-0.40774499999999997,-0.004059,-0.154022,0.0166,0.000233,-0.00855,-48.560001,-15.56,-5.5,1a
2019-07-15_154013:100,-0.45043900000000003,-0.006072999999999999,-0.157074,0.015013,0.0026739999999999997,-0.007634,-48.560001,-14.87,-6.56,1a
2019-07-15_154013:120,-0.46316499999999994,-0.012177,-0.153015,0.013701,0.007220999999999999,-0.007237,-48.560001,-14.87,-6.56,1a
2019-07-15_154013:140,-0.47332799999999997,-0.012177,-0.15506,0.013487,0.009724,-0.007084999999999999,-48.25,-15.18,-7.06,1a
2019-07-15_154013:160,-0.5205989999999999,-0.013213999999999998,-0.162689,0.013030000000000002,0.015949,-0.006719,-48.25,-15.18,-7.06,1a
2019-07-15_154013:180,-0.516022,-0.010651,-0.169281,0.012511,0.018421,-0.00678,-48.25,-15.18,-7.06,1a
2019-07-15_154013:200,-0.532806,-0.0035399999999999997,-0.186584,0.012572,0.018238,-0.0057729999999999995,-47.869999,-16.0,-6.25,1a
2019-07-15_154013:220,-0.512482,0.000488,-0.20538299999999998,0.010985,0.016499,-0.001134,-47.869999,-16.0,-6.25,1a
2019-07-15_154013:240,-0.5343319999999999,0.014221000000000001,-0.21606399999999998,0.009856,0.015491,0.000667,-48.560001,-15.56,-6.25,1a
2019-07-15_154013:260,-0.629425,0.002014,-0.263336,0.008452,0.009876000000000001,0.0042369999999999994,-48.560001,-15.56,-6.25,1a
2019-07-15_154013:280,-0.52774,0.017792,-0.239441,0.001616,0.010456,0.005214,-48.560001,-15.56,-6.25,1a
2019-07-15_154013:300,-0.640594,0.008118,-0.28775,0.002409,0.006732999999999999,0.007869,-49.0,-14.87,-5.06,1a
2019-07-15_154013:320,-0.53891,0.000488,-0.302002,0.0007610000000000001,0.004688,-0.000737,-49.0,-14.87,-5.06,1a
2019-07-15_154013:340,-0.44891400000000004,0.012177,-0.274017,0.00128,0.005817,-0.0023239999999999997,-49.0,-14.87,-5.06,1a
2019-07-15_154013:360,-0.475861,0.015747,-0.272491,0.008666,0.010395,-0.012486,-48.25,-15.56,-5.06,1a
2019-07-15_154013:380,-0.473846,0.017792,-0.25012199999999996,0.009978,0.007984,-0.020177,-48.25,-15.56,-5.06,1a
2019-07-15_154013:400,-0.448425,0.034058,-0.25521900000000003,0.012694,0.000782,-0.027226,-48.25,-15.18,-5.06,1a
2019-07-15_154013:420,-0.44281000000000004,0.036072,-0.261322,0.016631,-0.005566,-0.019322,-48.25,-15.18,-5.06,1a
2019-07-15_154013:440,-0.434174,0.033539,-0.261322,0.018004,-0.008373,-0.012273000000000001,-48.25,-15.18,-5.06,1a
2019-07-15_154013:460,-0.43927,0.030487,-0.25521900000000003,0.019469,-0.009014,-0.008214,-47.18,-16.25,-4.68,1a
2019-07-15_154013:480,-0.41333000000000003,0.028961,-0.23791500000000002,0.020781,-0.007702,-0.003575,-47.18,-16.25,-4.68,1a
2019-07-15_154013:500,-0.405212,0.028961,-0.219635,0.020659,-0.004528,0.0024059999999999997,-47.560001,-16.0,-3.87,1a
2019-07-15_154013:520,-0.394531,0.023375999999999997,-0.188599,0.020415,-0.0005,0.007136,-47.560001,-16.0,-3.87,1a
2019-07-15_154013:540,-0.386383,0.016266,-0.162689,0.019681999999999998,0.002369,0.0076549999999999995,-47.560001,-16.0,-3.87,1a
2019-07-15_154013:560,-0.395538,0.015747,-0.144379,0.019072,0.004627,0.005488,-47.18,-16.68,-4.75,1a
2019-07-15_154013:580,-0.418915,0.017792,-0.12558,0.019011,0.006794,0.0031079999999999997,-47.18,-16.68,-4.75,1a
2019-07-15_154013:600,-0.421967,0.020844,-0.12149000000000001,0.018279,0.010792,0.001277,-46.75,-16.0,-5.56,1a
2019-07-15_154013:620,-0.41384899999999997,0.023375999999999997,-0.119965,0.017424000000000002,0.014912,0.001124,-46.75,-16.0,-5.56,1a
2019-07-15_154013:640,-0.395538,0.023375999999999997,-0.119965,0.0166,0.014698,0.001277,-46.75,-16.0,-5.56,1a
2019-07-15_154013:660,-0.382812,0.022858,-0.12200899999999999,0.015837,0.009998,-0.000279,-47.18,-16.0,-5.56,1a
2019-07-15_154013:680,-0.388916,0.019318000000000002,-0.128113,0.01602,0.00301,-0.002782,-47.18,-16.0,-5.56,1a
2019-07-15_154013:700,-0.398071,0.021332,-0.13269,0.017088,-0.002667,-0.005222999999999999,-47.18,-15.56,-5.18,1a
2019-07-15_154013:720,-0.417389,0.021332,-0.134216,0.019072,-0.004833,-0.0076950000000000005,-47.18,-15.56,-5.18,1a
2019-07-15_154013:740,-0.44891400000000004,0.026917,-0.12912,0.021513,-0.00172,-0.010228000000000001,-47.18,-15.56,-5.18,1a
2019-07-15_154013:760,-0.48300200000000004,0.029480000000000003,-0.13269,0.024321000000000002,0.004749000000000001,-0.013127000000000002,-47.869999,-15.56,-4.75,1a
2019-07-15_154013:780,-0.497742,0.029480000000000003,-0.13623,0.026914999999999998,0.012653,-0.015599000000000002,-47.869999,-15.56,-4.75,1a
2019-07-15_154013:800,-0.470276,0.029480000000000003,-0.152527,0.029631,0.014515,-0.016912,-46.369999,-16.0,-6.0,1a
2019-07-15_154013:820,-0.46469099999999997,0.025908999999999998,-0.175903,0.031401,0.010853,-0.017003,-46.369999,-16.0,-6.0,1a
2019-07-15_154013:840,-0.445862,0.028961,-0.186066,0.033415,0.00481,-0.018254,-46.369999,-16.0,-6.0,1a
2019-07-15_154013:860,-0.453491,0.036072,-0.200317,0.033934,-0.0008349999999999999,-0.018102,-45.369999,-17.370001000000002,-4.75,1a
2019-07-15_154013:880,-0.566376,0.036591000000000005,-0.217072,0.034544,-0.008099,-0.017308,-45.369999,-17.370001000000002,-4.75,1a
2019-07-15_154013:900,-0.677216,0.000488,-0.259277,0.035735,-0.015544999999999998,-0.020055,-45.369999,-17.0,-5.56,1a
2019-07-15_154013:920,-0.625854,-0.000488,-0.22879000000000002,0.04077,-0.012066,-0.027135000000000003,-45.369999,-17.0,-5.56,1a
2019-07-15_154013:940,-0.59433,-0.014221000000000001,-0.256744,0.045622,-0.008831,-0.029485,-45.369999,-17.0,-5.56,1a
2019-07-15_154013:960,-0.519592,-0.022858,-0.257233,0.047545,-0.0062369999999999995,-0.02683,-45.68,-18.18,-6.37,1a
2019-07-15_154013:980,-0.5419619999999999,-0.025421,-0.25317399999999995,0.046629000000000004,-0.004894,-0.018712,-45.68,-18.18,-6.37,1a
2019-07-15_154014:000,-0.546021,-0.048279,-0.242004,0.048003,-0.0030629999999999998,-0.012943999999999999,-43.5,-18.5,-7.68,1a
2019-07-15_154014:020,-0.529755,-0.050323,-0.226746,0.048735,-0.001843,-0.016666999999999998,-43.5,-18.5,-7.68,1a
2019-07-15_154014:040,-0.49468999999999996,-0.048279,-0.22216799999999998,0.049986,-0.001141,-0.015080000000000001,-43.5,-18.5,-7.68,1a
2019-07-15_154014:060,-0.46316499999999994,-0.049316000000000006,-0.21505700000000003,0.049864,-0.0006219999999999999,-0.010869,-43.5,-20.0,-8.5,1a
2019-07-15_154014:080,-0.42605600000000005,-0.050323,-0.21048000000000003,0.048003,-0.0005,-0.009953,-43.5,-20.0,-8.5,1a
2019-07-15_154014:100,-0.37316900000000003,-0.049316000000000006,-0.20639000000000002,0.046813,-0.0030629999999999998,-0.011295999999999999,-42.75,-20.0,-10.5,1a
2019-07-15_154014:120,-0.353851,-0.046265,-0.19927999999999998,0.04608,-0.00346,-0.01505,-42.75,-20.0,-10.5,1a
2019-07-15_154014:140,-0.354858,-0.037108999999999996,-0.187592,0.045226,-0.002117,-0.019383,-42.75,-20.0,-10.5,1a
2019-07-15_154014:160,-0.356903,-0.028961,-0.180481,0.044035000000000005,5e-05,-0.022374,-42.060001,-19.25,-10.06,1a
2019-07-15_154014:180,-0.366058,-0.024902,-0.171844,0.041838,0.0010869999999999999,-0.02329,-42.060001,-19.25,-10.06,1a
2019-07-15_154014:200,-0.37674,-0.025421,-0.171326,0.039854,0.000843,-0.022313,-40.869999,-19.68,-10.87,1a
2019-07-15_154014:220,-0.38385,-0.025908999999999998,-0.163696,0.037656999999999996,-0.000103,-0.021306,-40.869999,-19.68,-10.87,1a
2019-07-15_154014:240,-0.38739,-0.024384,-0.161652,0.036588999999999997,-0.00108,-0.020391,-40.869999,-19.68,-10.87,1a
2019-07-15_154014:260,-0.405212,-0.023375999999999997,-0.158112,0.035948,-0.0023309999999999997,-0.019628,-40.869999,-19.68,-13.68,1a
2019-07-15_154014:280,-0.421967,-0.020844,-0.156067,0.035857,-0.003704,-0.019261,-40.869999,-19.68,-13.68,1a
2019-07-15_154014:300,-0.405212,-0.016266,-0.15506,0.035735,-0.003979,-0.018040999999999998,-40.560001,-20.5,-13.68,1a
2019-07-15_154014:320,-0.40368699999999996,-0.010651,-0.151001,0.03427,-0.002575,-0.015141,-40.560001,-20.5,-13.68,1a
2019-07-15_154014:340,-0.421967,-0.007599,-0.151489,0.032744,-0.000683,-0.011144,-40.560001,-20.5,-13.68,1a
2019-07-15_154014:360,-0.449432,-0.015747,-0.149963,0.030608,0.001179,-0.009221,-39.5,-20.75,-14.06,1a
2019-07-15_154014:380,-0.46569799999999995,-0.016266,-0.144379,0.027892,0.004078,-0.008641,-39.5,-20.75,-14.06,1a
2019-07-15_154014:400,-0.48858599999999996,-0.017792,-0.138794,0.025176,0.009387999999999999,-0.007084999999999999,-38.75,-21.18,-15.75,1a
2019-07-15_154014:420,-0.515015,-0.021332,-0.14032,0.023313999999999998,0.015034,-0.006719,-38.75,-21.18,-15.75,1a
2019-07-15_154014:440,-0.5185850000000001,-0.020844,-0.156586,0.021452000000000002,0.016621,-0.009557,-38.75,-21.18,-15.75,1a
2019-07-15_154014:460,-0.529266,-0.009125,-0.182007,0.019743,0.016773,-0.010869,-38.369999,-20.870001000000002,-16.059998999999998,1a
2019-07-15_154014:480,-0.514008,0.000488,-0.20233199999999998,0.018279,0.014178999999999999,-0.009038,-38.369999,-20.870001000000002,-16.059998999999998,1a
2019-07-15_154014:500,-0.624847,0.014221000000000001,-0.209961,0.014952000000000002,0.011706999999999999,-0.005315,-38.75,-21.68,-15.25,1a
2019-07-15_154014:520,-0.623322,0.0,-0.25116,0.013548,0.00774,-0.002263,-38.75,-21.68,-15.25,1a
2019-07-15_154014:540,-0.5867,0.027954000000000003,-0.20538299999999998,0.009062,0.010792,-0.004765999999999999,-38.75,-21.68,-15.25,1a
2019-07-15_154014:560,-0.590759,0.004547,-0.303528,0.009062,0.006,-0.002934,-38.0,-20.870001000000002,-16.059998999999998,1a
2019-07-15_154014:580,-0.467224,0.016266,-0.267914,0.008391,0.0032840000000000005,-0.010228000000000001,-38.0,-20.870001000000002,-16.059998999999998,1a
2019-07-15_154014:600,-0.46823100000000006,0.029968,-0.272003,0.008513,0.004749000000000001,-0.009281999999999999,-38.369999,-21.370001000000002,-14.87,1a
2019-07-15_154014:620,-0.50943,0.01828,-0.261322,0.014555000000000002,0.011127,-0.00916,-38.369999,-21.370001000000002,-14.87,1a
2019-07-15_154014:640,-0.46569799999999995,0.029480000000000003,-0.246063,0.01721,0.008411,-0.021366999999999997,-38.369999,-21.370001000000002,-14.87,1a
2019-07-15_154014:660,-0.462128,0.036072,-0.245056,0.02072,0.004139,-0.023107,-38.0,-21.370001000000002,-14.06,1a
2019-07-15_154014:680,-0.43621800000000005,0.029968,-0.24096700000000001,0.025633,-0.0005610000000000001,-0.014988999999999999,-38.0,-21.370001000000002,-14.06,1a
2019-07-15_154014:700,-0.42807,0.027954000000000003,-0.240479,0.027647,-0.004376,-0.011266,-37.25,-21.68,-16.059998999999998,1a
2019-07-15_154014:720,-0.411804,0.025908999999999998,-0.23486300000000002,0.029906,-0.008678,-0.0075120000000000004,-37.25,-21.68,-16.059998999999998,1a
2019-07-15_154014:740,-0.404175,0.020844,-0.21911599999999998,0.031096,-0.011425,-0.0016530000000000002,-37.25,-21.68,-16.059998999999998,1a
2019-07-15_154014:760,-0.399597,0.014221000000000001,-0.201843,0.030547,-0.011729999999999999,0.0035659999999999997,-37.18,-21.0,-16.870001000000002,1a
2019-07-15_154014:780,-0.390961,0.0035399999999999997,-0.18096900000000002,0.031035000000000004,-0.009747,0.007014,-37.18,-21.0,-16.870001000000002,1a
2019-07-15_154014:800,-0.384338,-0.001007,-0.172333,0.031432,-0.006695,0.0065260000000000006,-36.75,-20.25,-18.059998999999998,1a
2019-07-15_154014:820,-0.388428,-0.0025329999999999997,-0.1586,0.032744,-0.004833,0.0036270000000000004,-36.75,-20.25,-18.059998999999998,1a
2019-07-15_154014:840,-0.397583,0.001007,-0.152008,0.034148000000000005,-0.003918,0.00020899999999999998,-36.75,-20.25,-18.059998999999998,1a
2019-07-15_154014:860,-0.40570100000000003,0.0030210000000000002,-0.149475,0.035124,-0.003124,-0.002934,-42.25,-20.68,-18.059998999999998,1a
2019-07-15_154014:880,-0.410278,0.009644,-0.14386,0.035857,-0.0023309999999999997,-0.005376,-42.25,-20.68,-18.059998999999998,1a
2019-07-15_154014:900,-0.417389,0.011687999999999999,-0.14386,0.036192,-0.002605,-0.007115000000000001,-36.75,-20.25,-18.870001000000002,1a
2019-07-15_154014:920,-0.429596,0.016753999999999998,-0.145386,0.036314,-0.00285,-0.008031,-36.75,-20.25,-18.870001000000002,1a
2019-07-15_154014:940,-0.426544,0.019318000000000002,-0.151489,0.036131,-0.002728,-0.007573000000000001,-36.75,-20.25,-18.870001000000002,1a
2019-07-15_154014:960,-0.41995200000000005,0.023895,-0.163177,0.035460000000000005,-0.002605,-0.0065049999999999995,-36.75,-19.18,-19.25,1a
2019-07-15_154014:980,-0.430634,0.023375999999999997,-0.168793,0.034605000000000004,-0.0008349999999999999,-0.005712,-36.75,-19.18,-19.25,1a
2019-07-15_154015:000,-0.46060200000000007,0.019318000000000002,-0.171326,0.03308,0.003742,-0.006901999999999999,-36.060001,-18.059998999999998,-21.0,1a
2019-07-15_154015:020,-0.45196499999999995,0.016753999999999998,-0.172852,0.033293,0.009052,-0.010533,-36.060001,-18.059998999999998,-21.0,1a
2019-07-15_154015:040,-0.45401,0.017792,-0.177948,0.033354,0.012531,-0.014195,-36.060001,-18.059998999999998,-21.0,1a
2019-07-15_154015:060,-0.47995,0.012177,-0.185059,0.033750999999999996,0.012714,-0.016118,-35.68,-19.18,-19.870001000000002,1a
2019-07-15_154015:080,-0.492645,0.008118,-0.193176,0.033995,0.011188,-0.017797,-35.68,-19.18,-19.870001000000002,1a
2019-07-15_154015:100,-0.47842399999999996,0.005065999999999999,-0.190125,0.035399,0.011311,-0.020238,-35.68,-18.75,-20.559998999999998,1a
2019-07-15_154015:120,-0.496216,0.007599,-0.191162,0.036864,0.011706999999999999,-0.024236,-35.68,-18.75,-20.559998999999998,1a
2019-07-15_154015:140,-0.57196,0.007599,-0.205902,0.038573,0.011066,-0.028081000000000002,-35.68,-18.75,-20.559998999999998,1a
2019-07-15_154015:160,-0.617218,-0.0025329999999999997,-0.234375,0.040648000000000004,0.007618000000000001,-0.033727,-36.5,-18.5,-22.18,1a
2019-07-15_154015:180,-0.5933229999999999,0.010651,-0.21249400000000002,0.041167,0.007587000000000001,-0.042821,-36.5,-18.5,-22.18,1a
2019-07-15_154015:200,-0.575531,-0.006072999999999999,-0.24453699999999998,0.038847,0.010334000000000001,-0.043523,-35.0,-18.059998999999998,-21.870001000000002,1a
2019-07-15_154015:220,-0.575531,-0.019806,-0.22979699999999997,0.038114999999999996,0.008717,-0.04334,-35.0,-18.059998999999998,-21.870001000000002,1a
2019-07-15_154015:240,-0.486023,-0.024902,-0.224701,0.039,0.0021550000000000002,-0.043065,-35.0,-18.059998999999998,-21.870001000000002,1a
2019-07-15_154015:260,-0.5419619999999999,-0.027435,-0.222687,0.038573,0.001423,-0.035253,-35.68,-18.5,-21.870001000000002,1a
2019-07-15_154015:280,-0.531799,-0.035583,-0.21249400000000002,0.04138,0.000172,-0.023441999999999998,-35.68,-18.5,-21.870001000000002,1a
2019-07-15_154015:300,-0.514008,-0.035065,-0.20944200000000002,0.042174,-0.000958,-0.018437000000000002,-34.25,-19.18,-22.18,1a
2019-07-15_154015:320,-0.48095699999999997,-0.035065,-0.198792,0.042967,-0.0014759999999999999,-0.010869,-34.25,-19.18,-22.18,1a
2019-07-15_154015:340,-0.43518100000000004,-0.038635,-0.190125,0.043028,-0.0011099999999999999,-0.004582,-34.25,-19.18,-22.18,1a
2019-07-15_154015:360,-0.401123,-0.044739,-0.19775399999999999,0.042693,-0.0024530000000000003,-0.004979,-33.5,-19.18,-23.0,1a
2019-07-15_154015:380,-0.35131799999999996,-0.037598,-0.189636,0.042631999999999996,-0.0031850000000000003,-0.010076,-33.5,-19.18,-23.0,1a
2019-07-15_154015:400,-0.346222,-0.032532,-0.193695,0.043883,-0.002514,-0.015263999999999998,-33.5,-17.68,-23.0,1a
2019-07-15_154015:420,-0.347748,-0.026427999999999997,-0.18811,0.045104000000000005,-0.002575,-0.02036,-33.5,-17.68,-23.0,1a
2019-07-15_154015:440,-0.36248800000000003,-0.016266,-0.18454,0.045104000000000005,-0.004528,-0.023107,-33.5,-17.68,-23.0,1a
2019-07-15_154015:460,-0.37674,-0.010651,-0.17944300000000002,0.04431,-0.007092,-0.020756999999999998,-33.5,-17.25,-23.5,1a
2019-07-15_154015:480,-0.406219,-0.007111,-0.174896,0.042754,-0.008099,-0.017186,-33.5,-17.25,-23.5,1a
2019-07-15_154015:500,-0.423492,-0.006592,-0.171326,0.04077,-0.006359,-0.015934999999999998,-32.369999,-16.559998999999998,-25.559998999999998,1a
2019-07-15_154015:520,-0.42858900000000005,-0.0055850000000000006,-0.169281,0.039580000000000004,-0.003704,-0.016973,-32.369999,-16.559998999999998,-25.559998999999998,1a
2019-07-15_154015:540,-0.43823199999999995,-0.007599,-0.170319,0.038664,-0.002575,-0.016789,-32.369999,-16.559998999999998,-25.559998999999998,1a
2019-07-15_154015:560,-0.410797,-0.006592,-0.165741,0.037870999999999995,-0.003002,-0.015141,-32.369999,-16.559998999999998,-26.25,1a
2019-07-15_154015:580,-0.420959,-0.008636,-0.166229,0.035674000000000004,-0.0027890000000000002,-0.012395,-32.369999,-16.559998999999998,-26.25,1a
2019-07-15_154015:600,-0.432159,-0.012695,-0.166229,0.033934,-0.0023309999999999997,-0.011022,-32.369999,-16.559998999999998,-27.059998999999998,1a
2019-07-15_154015:620,-0.45605500000000004,-0.010651,-0.163177,0.031493,-0.001202,-0.011295999999999999,-32.369999,-16.559998999999998,-27.059998999999998,1a
2019-07-15_154015:640,-0.45654300000000003,-0.010651,-0.168793,0.02957,0.0018809999999999999,-0.009770000000000001,-32.369999,-16.559998999999998,-27.059998999999998,1a
2019-07-15_154015:660,-0.460114,-0.005065999999999999,-0.165222,0.026579000000000002,0.005268,-0.007878,-31.68,-15.87,-27.559998999999998,1a
2019-07-15_154015:680,-0.492126,-0.009125,-0.17385899999999999,0.023038999999999997,0.008320000000000001,-0.004186,-31.68,-15.87,-27.559998999999998,1a
2019-07-15_154015:700,-0.49365200000000004,-0.012695,-0.172333,0.018614,0.011066,-0.002934,-31.25,-15.87,-28.0,1a
2019-07-15_154015:720,-0.503845,-0.012695,-0.17944300000000002,0.017485,0.011768,-0.002782,-31.25,-15.87,-28.0,1a
2019-07-15_154015:740,-0.496704,-0.009125,-0.192688,0.016234000000000002,0.01012,-0.003972,-31.25,-15.87,-28.0,1a
2019-07-15_154015:760,-0.577545,0.009644,-0.20285,0.014616,0.008137,-0.005712,-32.060001,-15.5,-26.0,1a
2019-07-15_154015:780,-0.636017,0.005065999999999999,-0.23590100000000003,0.014159,0.004017,-0.005589,-32.060001,-15.5,-26.0,1a
2019-07-15_154015:800,-0.5368649999999999,0.03302,-0.21505700000000003,0.010771,0.006092,-0.00443,-31.68,-15.06,-27.059998999999998,1a
2019-07-15_154015:820,-0.621796,0.031006,-0.252686,0.009856,0.00536,0.002589,-31.68,-15.06,-27.059998999999998,1a
2019-07-15_154015:840,-0.52417,0.019318000000000002,-0.28775,0.008727,0.002613,-0.003057,-31.68,-15.06,-27.059998999999998,1a
2019-07-15_154015:860,-0.44027700000000003,0.032013,-0.277588,0.0070480000000000004,0.005482,-0.006444,-32.369999,-14.68,-25.059998999999998,1a
2019-07-15_154015:880,-0.448425,0.034546,-0.276581,0.010648999999999999,0.011372,-0.004918,-32.369999,-14.68,-25.059998999999998,1a
2019-07-15_154015:900,-0.457581,0.026427999999999997,-0.266388,0.012633,0.010853,-0.012425,-32.369999,-14.56,-25.559998999999998,1a
2019-07-15_154015:920,-0.446899,0.036591000000000005,-0.25116,0.013365,0.007801000000000001,-0.019109,-32.369999,-14.56,-25.559998999999998,1a
2019-07-15_154015:940,-0.445374,0.037108999999999996,-0.25317399999999995,0.01602,0.004353,-0.012029,-32.369999,-14.56,-25.559998999999998,1a
2019-07-15_154015:960,-0.43518100000000004,0.028961,-0.24658200000000002,0.016814,0.0018809999999999999,-0.004704,-32.75,-15.25,-24.75,1a
2019-07-15_154015:980,-0.43670699999999996,0.023895,-0.233337,0.018065,-0.000103,-0.001714,-32.75,-15.25,-24.75,1a
2019-07-15_154016:000,-0.415375,0.01828,-0.223175,0.020018,-0.001995,-6.6e-05,-32.5,-15.0,-27.059998999999998,1a
2019-07-15_154016:020,-0.406738,0.018799,-0.206909,0.020934,-0.003124,0.0028940000000000003,-32.5,-15.0,-27.059998999999998,1a
2019-07-15_154016:040,-0.402649,0.01828,-0.189117,0.021269,-0.002728,0.007014,-32.5,-15.0,-27.059998999999998,1a
2019-07-15_154016:060,-0.398071,0.016753999999999998,-0.175903,0.021513,-0.001598,0.008418,-32.18,-15.0,-26.370001000000002,1a
2019-07-15_154016:080,-0.401123,0.013702,-0.155548,0.021513,-0.0005,0.007258,-32.18,-15.0,-26.370001000000002,1a
2019-07-15_154016:100,-0.402161,0.016753999999999998,-0.145905,0.021666,0.000233,0.005733,-31.75,-14.18,-26.0,1a
2019-07-15_154016:120,-0.402161,0.016266,-0.134705,0.021452000000000002,0.00038500000000000003,0.003749,-31.75,-14.18,-26.0,1a
2019-07-15_154016:140,-0.401123,0.018799,-0.135223,0.020995,-4.2e-05,0.00088,-31.75,-14.18,-26.0,1a
2019-07-15_154016:160,-0.40570100000000003,0.019318000000000002,-0.137268,0.020475999999999998,-0.0023309999999999997,-0.00147,-31.75,-13.75,-26.75,1a
2019-07-15_154016:180,-0.42858900000000005,0.022369,-0.14386,0.020384,-0.004192,-0.002904,-31.75,-13.75,-26.75,1a
2019-07-15_154016:200,-0.433655,0.024384,-0.14743,0.019927,-0.005444,-0.004033,-31.75,-13.68,-26.370001000000002,1a
2019-07-15_154016:220,-0.43518100000000004,0.028961,-0.150482,0.019804,-0.006573000000000001,-0.0048270000000000006,-31.75,-13.68,-26.370001000000002,1a
2019-07-15_154016:240,-0.437225,0.032013,-0.152527,0.019743,-0.005779,-0.004521,-31.75,-13.68,-26.370001000000002,1a
2019-07-15_154016:260,-0.439758,0.037598,-0.154541,0.019591,-0.002972,-0.004521,-31.75,-13.0,-26.25,1a
2019-07-15_154016:280,-0.477905,0.041168,-0.153534,0.019530000000000002,0.002827,-0.00446,-31.75,-13.0,-26.25,1a
2019-07-15_154016:300,-0.463654,0.038635,-0.157074,0.019530000000000002,0.008259,-0.005651,-31.370001000000002,-13.0,-26.75,1a
2019-07-15_154016:320,-0.460114,0.041687,-0.148956,0.019591,0.013386000000000002,-0.007176,-31.370001000000002,-13.0,-26.75,1a
2019-07-15_154016:340,-0.465179,0.037598,-0.161652,0.019621,0.012592,-0.007878,-31.370001000000002,-13.0,-26.75,1a
2019-07-15_154016:360,-0.494171,0.030487,-0.178955,0.019804,0.0061530000000000005,-0.009679,-31.059998999999998,-12.68,-26.68,1a
2019-07-15_154016:380,-0.496216,0.029480000000000003,-0.17843599999999998,0.021117,0.002827,-0.011266,-31.059998999999998,-12.68,-26.68,1a
2019-07-15_154016:400,-0.496216,0.028442000000000002,-0.194702,0.022307,0.000629,-0.012731000000000001,-31.059998999999998,-13.37,-27.5,1a
2019-07-15_154016:420,-0.575012,0.026917,-0.201324,0.023863,0.000294,-0.013341,-31.059998999999998,-13.37,-27.5,1a
2019-07-15_154016:440,-0.630432,0.01828,-0.21554600000000002,0.02603,-0.000897,-0.016973,-31.059998999999998,-13.37,-27.5,1a
2019-07-15_154016:460,-0.6161800000000001,0.018799,-0.21505700000000003,0.027831,0.001759,-0.022374,-30.25,-13.0,-27.0,1a
2019-07-15_154016:480,-0.566376,0.011169,-0.23995999999999998,0.029356,0.00035499999999999996,-0.0239,-30.25,-13.0,-27.0,1a
2019-07-15_154016:500,-0.502808,0.0055850000000000006,-0.246063,0.028380000000000002,-0.003857,-0.020848,-28.5,-13.0,-26.25,1a
2019-07-15_154016:520,-0.486023,-0.000488,-0.250641,0.025786,-0.00877,-0.012943999999999999,-28.5,-13.0,-26.25,1a
2019-07-15_154016:540,-0.477386,-0.017792,-0.245544,0.021788,-0.009502,-0.0046429999999999996,-28.5,-13.0,-26.25,1a
2019-07-15_154016:560,-0.490601,-0.032532,-0.223694,0.018675,-0.007640999999999999,-0.0016530000000000002,-28.870001000000002,-12.68,-28.18,1a
2019-07-15_154016:580,-0.47995,-0.044219999999999995,-0.22116100000000002,0.017821,-0.0060539999999999995,-0.00147,-28.870001000000002,-12.68,-28.18,1a
2019-07-15_154016:600,-0.440796,-0.046265,-0.216583,0.017728999999999998,-0.006756,-0.0009199999999999999,-29.25,-11.5,-27.75,1a
2019-07-15_154016:620,-0.427063,-0.048798,-0.21810900000000003,0.017088,-0.007763,0.0017350000000000002,-29.25,-11.5,-27.75,1a
2019-07-15_154016:640,-0.42807,-0.049805,-0.220642,0.017027,-0.00758,0.002955,-29.25,-11.5,-27.75,1a
2019-07-15_154016:660,-0.420441,-0.048798,-0.226227,0.016936,-0.00996,0.0010630000000000001,-28.5,-11.87,-28.18,1a
2019-07-15_154016:680,-0.385864,-0.037108999999999996,-0.21606399999999998,0.016875,-0.010570999999999999,-0.002172,-28.5,-11.87,-28.18,1a
2019-07-15_154016:700,-0.376221,-0.027954000000000003,-0.20538299999999998,0.016936,-0.008495,-0.005254,-28.059998999999998,-11.18,-28.559998999999998,1a
2019-07-15_154016:720,-0.37674,-0.023375999999999997,-0.195221,0.016631,-0.005383,-0.008367,-28.059998999999998,-11.18,-28.559998999999998,1a
2019-07-15_154016:740,-0.383331,-0.019806,-0.183533,0.015227000000000001,-0.0030629999999999998,-0.009496,-28.059998999999998,-11.18,-28.559998999999998,1a
2019-07-15_154016:760,-0.388428,-0.019806,-0.17690999999999998,0.014555000000000002,-0.002239,-0.008763,-27.75,-10.5,-29.370001000000002,1a
2019-07-15_154016:780,-0.401642,-0.020325,-0.161652,0.013152,-0.002575,-0.008367,-27.75,-10.5,-29.370001000000002,1a
2019-07-15_154016:800,-0.402649,-0.021332,-0.160645,0.012511,-0.0030629999999999998,-0.0075120000000000004,-27.370001000000002,-11.18,-28.18,1a
2019-07-15_154016:820,-0.410278,-0.022858,-0.15506,0.012022,-0.003246,-0.006566,-27.370001000000002,-11.18,-28.18,1a
2019-07-15_154016:840,-0.41485600000000006,-0.022369,-0.156586,0.012114,-0.003979,-0.006383,-27.370001000000002,-11.18,-28.18,1a
2019-07-15_154016:860,-0.416382,-0.019318000000000002,-0.154022,0.011656,-0.004833,-0.005895,-27.370001000000002,-11.18,-28.559998999999998,1a
2019-07-15_154016:880,-0.418915,-0.017792,-0.152527,0.010435999999999999,-0.0035210000000000003,-0.004704,-27.370001000000002,-11.18,-28.559998999999998,1a
2019-07-15_154016:900,-0.418915,-0.020325,-0.157074,0.008849,-0.0014759999999999999,-0.003636,-28.5,-10.87,-30.18,1a
2019-07-15_154016:920,-0.427063,-0.021332,-0.1586,0.008055,0.000782,-0.003331,-28.5,-10.87,-30.18,1a
2019-07-15_154016:940,-0.45095799999999997,-0.023375999999999997,-0.161652,0.006804000000000001,0.004017,-0.0036969999999999998,-28.5,-10.87,-30.18,1a
2019-07-15_154016:960,-0.465179,-0.022858,-0.1698,0.005461,0.007220999999999999,-0.002568,-26.68,-10.5,-29.75,1a
2019-07-15_154016:980,-0.491638,-0.021851,-0.180481,0.0036,0.010059,-0.000585,-26.68,-10.5,-29.75,1a
2019-07-15_154017:000,-0.517059,-0.021332,-0.183014,0.002013,0.012928,0.001124,-26.68,-10.5,-29.370001000000002,1a
2019-07-15_154017:020,-0.537384,-0.020325,-0.192169,0.0008230000000000001,0.015643999999999998,0.00207,-26.68,-10.5,-29.370001000000002,1a
2019-07-15_154017:040,-0.5211180000000001,-0.016266,-0.198792,0.000304,0.014515,0.002467,-26.68,-10.5,-29.370001000000002,1a
2019-07-15_154017:060,-0.503326,-0.006592,-0.205902,-0.001222,0.012928,0.004756,-26.25,-10.87,-29.0,1a
2019-07-15_154017:080,-0.626373,0.004547,-0.216583,-0.002748,0.007862000000000001,0.008204000000000001,-26.25,-10.87,-29.0,1a
2019-07-15_154017:100,-0.545013,0.004059,-0.24096700000000001,-0.005464,0.003406,0.008662000000000001,-26.68,-10.06,-28.18,1a
2019-07-15_154017:120,-0.572479,0.020325,-0.21554600000000002,-0.008058,0.004749000000000001,0.012263,-26.68,-10.06,-28.18,1a
2019-07-15_154017:140,-0.599915,0.006592,-0.280121,-0.0069900000000000006,0.002705,0.009729999999999999,-26.68,-10.06,-28.18,1a
2019-07-15_154017:160,-0.530792,0.018799,-0.255707,-0.007722,0.004229999999999999,0.004878,-27.0,-10.5,-28.559998999999998,1a
2019-07-15_154017:180,-0.439758,0.033539,-0.258759,-0.005372999999999999,0.009144,0.006068,-27.0,-10.5,-28.559998999999998,1a
2019-07-15_154017:200,-0.427063,0.042175,-0.23590100000000003,-0.0028399999999999996,0.013325,0.005092,-26.68,-10.5,-27.370001000000002,1a
2019-07-15_154017:220,-0.45907600000000004,0.039124,-0.23590100000000003,-0.0007639999999999999,0.008717,-0.000737,-26.68,-10.5,-27.370001000000002,1a
2019-07-15_154017:240,-0.437225,0.053863999999999995,-0.207916,-0.000124,0.004932,-0.003118,-26.68,-10.5,-27.370001000000002,1a
2019-07-15_154017:260,-0.432159,0.051330999999999995,-0.220642,0.00128,0.002888,-0.002721,-27.370001000000002,-10.5,-28.18,1a
2019-07-15_154017:280,-0.405212,0.056427,-0.21759,0.002745,-0.001995,-0.005559000000000001,-27.370001000000002,-10.5,-28.18,1a
2019-07-15_154017:300,-0.420441,0.057953,-0.226746,0.003355,-0.004192,-0.005254,-27.370001000000002,-10.5,-28.5,1a
2019-07-15_154017:320,-0.404694,0.057953,-0.22521999999999998,0.0038130000000000004,-0.009075,-0.00033999999999999997,-27.370001000000002,-10.5,-28.5,1a
2019-07-15_154017:340,-0.414337,0.055908000000000006,-0.21810900000000003,0.003355,-0.007916,0.00674,-27.370001000000002,-10.5,-28.5,1a
2019-07-15_154017:360,-0.416901,0.045226999999999996,-0.20486500000000002,0.002867,-0.003796,0.012324,-27.370001000000002,-9.0,-28.870001000000002,1a
2019-07-15_154017:380,-0.407227,0.034546,-0.178955,0.002867,1.9e-05,0.014430000000000002,-27.370001000000002,-9.0,-28.870001000000002,1a
2019-07-15_154017:400,-0.407227,0.028961,-0.168274,0.003203,0.001911,0.01385,-27.370001000000002,-9.0,-28.5,1a
2019-07-15_154017:420,-0.397064,0.022858,-0.147949,0.003752,0.0032229999999999997,0.013362,-27.370001000000002,-9.0,-28.5,1a
2019-07-15_154017:440,-0.397583,0.021851,-0.133698,0.003935,0.0026739999999999997,0.01266,-27.370001000000002,-9.0,-28.5,1a
2019-07-15_154017:460,-0.39859,0.018799,-0.122528,0.004149,0.00243,0.012324,-26.25,-9.0,-26.75,1a
2019-07-15_154017:480,-0.396545,0.017792,-0.11538699999999999,0.0038130000000000004,0.000843,0.010859,-26.25,-9.0,-26.75,1a
2019-07-15_154017:500,-0.407227,0.016266,-0.113373,0.003691,-0.000164,0.010341,-26.25,-9.0,-26.75,1a
2019-07-15_154017:520,-0.41485600000000006,0.015747,-0.11691300000000002,0.0036,-0.002239,0.008418,-26.68,-8.56,-28.059998999999998,1a
2019-07-15_154017:540,-0.407227,0.014740000000000001,-0.12200899999999999,0.0036,-0.002972,0.007258,-26.68,-8.56,-28.059998999999998,1a
2019-07-15_154017:560,-0.417908,0.016753999999999998,-0.124054,0.0038130000000000004,-0.0027890000000000002,0.006404000000000001,-27.0,-7.87,-27.68,1a
2019-07-15_154017:580,-0.45605500000000004,0.017273,-0.128601,0.004485,-0.0005610000000000001,0.00381,-27.0,-7.87,-27.68,1a
2019-07-15_154017:600,-0.48043800000000003,0.022369,-0.139282,0.004729,0.0005679999999999999,0.002742,-26.68,-7.87,-27.68,1a
2019-07-15_154017:620,-0.491638,0.024902,-0.146912,0.005064,0.004627,-0.000188,-26.68,-7.87,-27.68,1a
2019-07-15_154017:640,-0.501801,0.022858,-0.166748,0.006072,0.005268,-0.0021100000000000003,-26.68,-7.87,-27.68,1a
2019-07-15_154017:660,-0.515533,0.019318000000000002,-0.186584,0.006468000000000001,0.0038950000000000005,-0.00324,-25.870001000000002,-7.37,-29.25,1a
2019-07-15_154017:680,-0.514496,0.016266,-0.192169,0.007932999999999999,5e-05,-0.004521,-25.870001000000002,-7.37,-29.25,1a
2019-07-15_154017:700,-0.506378,0.011687999999999999,-0.20639000000000002,0.009184000000000001,-0.001202,-0.005162,-25.870001000000002,-7.18,-27.25,1a
2019-07-15_154017:720,-0.5058590000000001,0.011169,-0.20843499999999998,0.011778,-0.001995,-0.009434999999999999,-25.870001000000002,-7.18,-27.25,1a
2019-07-15_154017:740,-0.625854,0.008636,-0.21249400000000002,0.014433000000000001,0.001362,-0.011601,-25.870001000000002,-7.18,-27.25,1a
2019-07-15_154017:760,-0.605011,-0.004547,-0.237427,0.016538999999999998,0.001972,-0.014469999999999998,-25.559998999999998,-7.06,-28.059998999999998,1a
2019-07-15_154017:780,-0.5983890000000001,0.004547,-0.233856,0.018401,0.004749000000000001,-0.021366999999999997,-25.559998999999998,-7.06,-28.059998999999998,1a
2019-07-15_154017:800,-0.539917,-0.009644,-0.26944,0.020079,0.001972,-0.020391,-25.559998999999998,-7.06,-28.059998999999998,1a
2019-07-15_154017:820,-0.47995,-0.006592,-0.238434,0.018889,0.003101,-0.017797,-25.559998999999998,-7.06,-27.25,1a
2019-07-15_154017:840,-0.474854,-0.011169,-0.21402,0.018401,0.00536,-0.014531,-25.559998999999998,-7.06,-27.25,1a
2019-07-15_154017:860,-0.511444,-0.023895,-0.21148699999999998,0.016692,0.009998,-0.0057729999999999995,-24.370001000000002,-7.06,-28.5,1a
2019-07-15_154017:880,-0.47842399999999996,-0.034058,-0.205902,0.016081,0.005024,-0.00147,-24.370001000000002,-7.06,-28.5,1a
2019-07-15_154017:900,-0.467224,-0.03302,-0.209961,0.014433000000000001,-0.00034700000000000003,0.0021920000000000004,-25.18,-7.18,-27.25,1a
2019-07-15_154017:920,-0.448425,-0.036072,-0.216583,0.014952000000000002,-0.004986,0.00793,-25.18,-7.18,-27.25,1a
2019-07-15_154017:940,-0.43927,-0.037108999999999996,-0.22116100000000002,0.013701,-0.010876,0.006068,-25.18,-7.18,-27.25,1a
2019-07-15_154017:960,-0.411285,-0.033539,-0.21911599999999998,0.013182,-0.012463,0.004298,-24.370001000000002,-6.0,-27.68,1a
2019-07-15_154017:980,-0.401642,-0.028961,-0.21554600000000002,0.010709999999999999,-0.014140999999999999,0.0010630000000000001,-24.370001000000002,-6.0,-27.68,1a
2019-07-15_154018:000,-0.39502,-0.027954000000000003,-0.20944200000000002,0.010161,-0.012859,-0.001073,-24.370001000000002,-6.0,-27.68,1a
2019-07-15_154018:020,-0.385376,-0.021332,-0.192688,0.008727,-0.009564,-0.007176,-23.75,-6.0,-28.059998999999998,1a
2019-07-15_154018:040,-0.390442,-0.015747,-0.17843599999999998,0.007658,-0.004772,-0.010686,-23.75,-6.0,-28.059998999999998,1a
2019-07-15_154018:060,-0.396545,-0.013213999999999998,-0.157593,0.006987,-0.001324,-0.011356999999999999,-23.75,-6.37,-28.059998999999998,1a
2019-07-15_154018:080,-0.398071,-0.010651,-0.143372,0.006255,0.00243,-0.011418000000000001,-23.75,-6.37,-28.059998999999998,1a
2019-07-15_154018:100,-0.378754,-0.010162000000000001,-0.128601,0.005797,0.0038950000000000005,-0.010808,-23.75,-6.37,-28.059998999999998,1a
2019-07-15_154018:120,-0.375214,-0.010651,-0.119965,0.005339,0.0030399999999999997,-0.008763,-23.0,-5.37,-28.059998999999998,1a
2019-07-15_154018:140,-0.369598,-0.016266,-0.126068,0.0058579999999999995,-0.000225,-0.006291,-23.0,-5.37,-28.059998999999998,1a
2019-07-15_154018:160,-0.372162,-0.019806,-0.12506099999999998,0.0061329999999999996,-0.004314,-0.004979,-23.0,-5.68,-28.5,1a
2019-07-15_154018:180,-0.390442,-0.019318000000000002,-0.131165,0.0063159999999999996,-0.005779,-0.0037890000000000003,-23.0,-5.68,-28.5,1a
2019-07-15_154018:200,-0.432648,-0.018799,-0.144897,0.007109000000000001,-0.004497999999999999,-0.003636,-23.0,-5.68,-28.5,1a
2019-07-15_154018:220,-0.46316499999999994,-0.014740000000000001,-0.153015,0.006926000000000001,-0.003246,-0.0048270000000000006,-23.0,-5.0,-27.68,1a
2019-07-15_154018:240,-0.48043800000000003,-0.009125,-0.15506,0.005461,-0.00034700000000000003,-0.004308,-23.0,-5.0,-27.68,1a
2019-07-15_154018:260,-0.5119630000000001,-0.007599,-0.146912,0.002348,0.007923000000000001,-0.001531,-21.5,-5.37,-28.870001000000002,1a
2019-07-15_154018:280,-0.514496,-0.010162000000000001,-0.154541,0.0014939999999999999,0.012104,-0.002385,-21.5,-5.37,-28.870001000000002,1a
2019-07-15_154018:300,-0.515533,-0.006592,-0.168793,-0.000368,0.013294,-0.0036969999999999998,-21.5,-5.37,-28.870001000000002,1a
2019-07-15_154018:320,-0.522644,-0.007599,-0.186066,-0.001039,0.012104,-0.00147,-22.25,-5.0,-27.370001000000002,1a
2019-07-15_154018:340,-0.492126,0.006072999999999999,-0.20285,-0.002382,0.009876000000000001,0.002467,-22.25,-5.0,-27.370001000000002,1a
2019-07-15_154018:360,-0.568909,0.013702,-0.210968,-0.00406,0.00655,0.008052,-22.559998999999998,-4.56,-28.18,1a
2019-07-15_154018:380,-0.602478,0.007599,-0.24963400000000002,-0.005128,0.0020329999999999997,0.009212,-22.559998999999998,-4.56,-28.18,1a
2019-07-15_154018:400,-0.627899,0.023895,-0.23233,-0.008759999999999999,0.00301,0.010463,-22.559998999999998,-4.56,-28.18,1a
2019-07-15_154018:420,-0.6212770000000001,0.012177,-0.278107,-0.008791,0.001697,0.011439,-21.870001000000002,-5.37,-27.75,1a
2019-07-15_154018:440,-0.496216,0.016753999999999998,-0.270966,-0.010896,0.0026739999999999997,0.0076549999999999995,-21.870001000000002,-5.37,-27.75,1a
2019-07-15_154018:460,-0.447906,0.022369,-0.275055,-0.008362999999999999,0.006458,0.007136,-21.870001000000002,-5.0,-28.559998999999998,1a
2019-07-15_154018:480,-0.507904,0.020325,-0.25116,-0.004518,0.011401999999999999,0.0017350000000000002,-21.870001000000002,-5.0,-28.559998999999998,1a
2019-07-15_154018:500,-0.48300200000000004,0.023375999999999997,-0.24658200000000002,-0.000642,0.008076,-0.010137,-21.870001000000002,-5.0,-28.559998999999998,1a
2019-07-15_154018:520,-0.46469099999999997,0.042694,-0.22116100000000002,0.002348,0.005024,-0.013677000000000002,-22.25,-5.68,-27.25,1a
2019-07-15_154018:540,-0.43670699999999996,0.043213,-0.216583,0.006072,0.0006900000000000001,-0.011662,-22.25,-5.68,-27.25,1a
2019-07-15_154018:560,-0.434174,0.046265,-0.21148699999999998,0.007536,-0.0024530000000000003,-0.011815,-21.5,-5.0,-27.68,1a
2019-07-15_154018:580,-0.438751,0.043213,-0.21759,0.009306,-0.0062369999999999995,-0.008763,-21.5,-5.0,-27.68,1a
2019-07-15_154018:600,-0.423004,0.040649,-0.20486500000000002,0.010893,-0.007885,-0.004064,-21.5,-5.0,-27.68,1a
2019-07-15_154018:620,-0.40976,0.036591000000000005,-0.193176,0.011443,-0.007763,0.001185,-21.5,-4.56,-28.059998999999998,1a
2019-07-15_154018:640,-0.393494,0.034546,-0.177429,0.011626000000000001,-0.005779,0.005946,-21.5,-4.56,-28.059998999999998,1a
2019-07-15_154018:660,-0.388428,0.027954000000000003,-0.1586,0.011290000000000001,-0.002972,0.008723,-21.18,-4.18,-28.75,1a
2019-07-15_154018:680,-0.386383,0.023895,-0.142853,0.010893,-0.0011099999999999999,0.009913,-21.18,-4.18,-28.75,1a
2019-07-15_154018:700,-0.382812,0.021332,-0.134705,0.010497,-0.0006219999999999999,0.009669,-21.18,-4.18,-28.75,1a
2019-07-15_154018:720,-0.385376,0.017792,-0.12200899999999999,0.009978,-0.00108,0.008052,-20.75,-5.0,-28.5,1a
2019-07-15_154018:740,-0.386902,0.017792,-0.12048299999999999,0.009795,-0.003002,0.00674,-20.75,-5.0,-28.5,1a
2019-07-15_154018:760,-0.406738,0.018799,-0.126068,0.00952,-0.004894,0.006343,-20.370001000000002,-3.5,-28.059998999999998,1a
2019-07-15_154018:780,-0.420441,0.016753999999999998,-0.128113,0.008971,-0.0060539999999999995,0.0058850000000000005,-20.370001000000002,-3.5,-28.059998999999998,1a
2019-07-15_154018:800,-0.431122,0.014221000000000001,-0.131653,0.00952,-0.0055049999999999995,0.004695,-20.370001000000002,-3.5,-28.059998999999998,1a
2019-07-15_154018:820,-0.425537,0.013702,-0.139801,0.010435999999999999,-0.0030629999999999998,0.003474,-23.0,-2.68,-27.68,1a
2019-07-15_154018:840,-0.41943400000000003,0.013702,-0.142853,0.012053,-0.000286,0.001521,-23.0,-2.68,-27.68,1a
2019-07-15_154018:860,-0.43774399999999997,0.015228,-0.139801,0.013640000000000001,0.003803,-0.0014089999999999999,-18.870001000000002,-2.68,-29.25,1a
2019-07-15_154018:880,-0.458588,0.015228,-0.138275,0.015898,0.008717,-0.005559000000000001,-18.870001000000002,-2.68,-29.25,1a
2019-07-15_154018:900,-0.47433500000000006,0.016753999999999998,-0.157074,0.017759999999999998,0.009937,-0.009281999999999999,-18.870001000000002,-2.68,-29.25,1a
2019-07-15_154018:920,-0.496216,0.016753999999999998,-0.169281,0.01895,0.0061530000000000005,-0.0109,-19.68,-2.0,-29.25,1a
2019-07-15_154018:940,-0.49975600000000003,0.010162000000000001,-0.183533,0.02072,0.000843,-0.011418000000000001,-19.68,-2.0,-29.25,1a
2019-07-15_154018:960,-0.47280900000000003,0.006072999999999999,-0.201843,0.022643,-0.002972,-0.013219,-20.370001000000002,-2.0,-28.5,1a
2019-07-15_154018:980,-0.5348510000000001,0.010162000000000001,-0.198792,0.02365,-0.004253,-0.013219,-20.370001000000002,-2.0,-28.5,1a
2019-07-15_154019:000,-0.6426390000000001,-0.016753999999999998,-0.24758899999999998,0.026854000000000003,-0.005627,-0.015447,-20.370001000000002,-2.0,-28.5,1a
2019-07-15_154019:020,-0.598907,-0.007111,-0.217072,0.028960000000000003,-0.001598,-0.024083,-19.68,-1.25,-27.68,1a
2019-07-15_154019:040,-0.5922850000000001,-0.020844,-0.261322,0.030820999999999998,-0.0011099999999999999,-0.023441999999999998,-19.68,-1.25,-27.68,1a
2019-07-15_154019:060,-0.56839,-0.023895,-0.23284899999999997,0.030608,0.000294,-0.022678999999999998,-11.56,-2.0,-29.25,1a
2019-07-15_154019:080,-0.49517799999999995,-0.035065,-0.231323,0.029233999999999996,-0.000103,-0.019628,-11.56,-2.0,-29.25,1a
2019-07-15_154019:100,-0.521637,-0.049805,-0.20843499999999998,0.027159,0.0031620000000000003,-0.014591999999999999,-11.56,-2.0,-29.25,1a
2019-07-15_154019:120,-0.52417,-0.060486,-0.20080599999999998,0.028288,0.00243,-0.013616,-18.559998999999998,-1.0,-29.25,1a
2019-07-15_154019:140,-0.505371,-0.065063,-0.187073,0.028227,0.001179,-0.014684000000000001,-18.559998999999998,-1.0,-29.25,1a
2019-07-15_154019:160,-0.492126,-0.067596,-0.187592,0.029479,5e-05,-0.009770000000000001,-18.559998999999998,-0.25,-29.68,1a
2019-07-15_154019:180,-0.461121,-0.071167,-0.187592,0.030211000000000002,-0.00172,-0.005497999999999999,-18.559998999999998,-0.25,-29.68,1a
2019-07-15_154019:200,-0.431122,-0.073212,-0.19775399999999999,0.031767000000000004,-0.004833,-0.005559000000000001,-18.559998999999998,-0.25,-29.68,1a
2019-07-15_154019:220,-0.384338,-0.065063,-0.197266,0.032927,-0.008831,-0.009007,-18.559998999999998,0.0,-29.25,1a
2019-07-15_154019:240,-0.376221,-0.050842,-0.198792,0.034392,-0.010937,-0.012943999999999999,-18.559998999999998,0.0,-29.25,1a
2019-07-15_154019:260,-0.375214,-0.039642000000000004,-0.19165,0.035002,-0.010296,-0.017705000000000002,-18.870001000000002,1.87,-29.68,1a
2019-07-15_154019:280,-0.37112399999999995,-0.026427999999999997,-0.182007,0.034087,-0.008831,-0.021366999999999997,-18.870001000000002,1.87,-29.68,1a
2019-07-15_154019:300,-0.371643,-0.024384,-0.17690999999999998,0.032225,-0.007763,-0.020299,-18.870001000000002,1.87,-29.68,1a
2019-07-15_154019:320,-0.390442,-0.024902,-0.167755,0.029752999999999998,-0.006695,-0.017308,-17.870001000000002,2.18,-30.5,1a
2019-07-15_154019:340,-0.39502,-0.027435,-0.16217,0.027647,-0.00584,-0.016332,-17.870001000000002,2.18,-30.5,1a
2019-07-15_154019:360,-0.404175,-0.025908999999999998,-0.152527,0.026091000000000003,-0.004314,-0.016666999999999998,-18.25,2.87,-29.25,1a
2019-07-15_154019:380,-0.41232299999999994,-0.025421,-0.146912,0.025725,-0.002972,-0.017461,-18.25,2.87,-29.25,1a
2019-07-15_154019:400,-0.402649,-0.024902,-0.150482,0.025725,-0.002239,-0.018193,-18.25,2.87,-29.25,1a
2019-07-15_154019:420,-0.399597,-0.026427999999999997,-0.159637,0.025725,-0.0008349999999999999,-0.0174,-17.5,4.0,-30.5,1a
2019-07-15_154019:440,-0.399109,-0.027954000000000003,-0.166229,0.026701,-0.000286,-0.01505,-17.5,4.0,-30.5,1a
2019-07-15_154019:460,-0.41943400000000003,-0.028442000000000002,-0.17385899999999999,0.026914999999999998,-0.000683,-0.013341,-17.870001000000002,5.06,-30.18,1a
2019-07-15_154019:480,-0.437225,-0.026917,-0.172852,0.026122000000000003,-0.0007740000000000001,-0.011022,-17.870001000000002,5.06,-30.18,1a
2019-07-15_154019:500,-0.441803,-0.023375999999999997,-0.170807,0.023711000000000003,0.00038500000000000003,-0.008214,-17.870001000000002,5.06,-30.18,1a
2019-07-15_154019:520,-0.48300200000000004,-0.022858,-0.170807,0.019621,0.0032229999999999997,-0.0046429999999999996,-17.870001000000002,4.75,-30.559998999999998,1a
2019-07-15_154019:540,-0.5073850000000001,-0.028961,-0.18096900000000002,0.017363,0.004932,-0.00385,-17.870001000000002,4.75,-30.559998999999998,1a
2019-07-15_154019:560,-0.530273,-0.023895,-0.186066,0.014769,0.0070079999999999995,-0.007481999999999999,-16.75,5.25,-30.559998999999998,1a
2019-07-15_154019:580,-0.521637,-0.019318000000000002,-0.20486500000000002,0.014311,0.007281999999999999,-0.00916,-16.75,5.25,-30.559998999999998,1a
2019-07-15_154019:600,-0.597382,-0.000488,-0.20742800000000003,0.013152,0.007984,-0.01035,-16.75,5.25,-30.559998999999998,1a
2019-07-15_154019:620,-0.615173,-0.006592,-0.23895300000000003,0.012511,0.00481,-0.010747,-17.870001000000002,5.25,-29.75,1a
2019-07-15_154019:640,-0.575012,0.013213999999999998,-0.203369,0.011106999999999999,0.006947,-0.011937,-17.870001000000002,5.25,-29.75,1a
2019-07-15_154019:660,-0.624329,0.011687999999999999,-0.24758899999999998,0.013304,0.0031620000000000003,-0.011693,-18.559998999999998,6.5,-29.75,1a
2019-07-15_154019:680,-0.522125,0.020325,-0.261322,0.013822999999999998,0.000965,-0.014348,-18.559998999999998,6.5,-29.75,1a
2019-07-15_154019:700,-0.446899,0.034058,-0.282166,0.014281,-0.00172,-0.014866999999999998,-18.559998999999998,6.5,-29.75,1a
2019-07-15_154019:720,-0.44638100000000003,0.044739,-0.279633,0.017363,0.00038500000000000003,-0.010686,-19.25,6.75,-30.18,1a
2019-07-15_154019:740,-0.48196400000000006,0.041687,-0.281647,0.019255,0.002491,-0.011754,-19.25,6.75,-30.18,1a
2019-07-15_154019:760,-0.46060200000000007,0.051849,-0.2547,0.020018,0.003101,-0.016515000000000002,-18.559998999999998,7.18,-29.370001000000002,1a
2019-07-15_154019:780,-0.447388,0.048279,-0.24963400000000002,0.019927,0.0021550000000000002,-0.011295999999999999,-18.559998999999998,7.18,-29.370001000000002,1a
2019-07-15_154019:800,-0.420441,0.040161,-0.23590100000000003,0.019865,0.0005070000000000001,-0.005834000000000001,-18.559998999999998,7.18,-29.370001000000002,1a
2019-07-15_154019:820,-0.41232299999999994,0.034546,-0.22521999999999998,0.020781,-0.001598,-0.0057729999999999995,-18.559998999999998,7.87,-29.370001000000002,1a
2019-07-15_154019:840,-0.39859,0.029480000000000003,-0.22116100000000002,0.023131,-0.004925,-0.007756,-18.559998999999998,7.87,-29.370001000000002,1a
2019-07-15_154019:860,-0.394012,0.031006,-0.21606399999999998,0.025389,-0.006786,-0.008245,-19.18,7.75,-28.18,1a
2019-07-15_154019:880,-0.398071,0.032532,-0.207916,0.027219999999999998,-0.0069700000000000005,-0.005162,-19.18,7.75,-28.18,1a
2019-07-15_154019:900,-0.394531,0.031006,-0.198792,0.027953,-0.0060539999999999995,-0.001866,-19.18,7.75,-28.18,1a
2019-07-15_154019:920,-0.404175,0.029968,-0.178955,0.028288,-0.003918,-0.000585,-18.75,9.0,-28.870001000000002,1a
2019-07-15_154019:940,-0.407227,0.028961,-0.170807,0.028105,-0.0020559999999999997,-0.0011949999999999999,-18.75,9.0,-28.870001000000002,1a
2019-07-15_154019:960,-0.418915,0.028961,-0.160126,0.027373,0.0005070000000000001,-0.0023239999999999997,-19.18,9.37,-29.5,1a
2019-07-15_154019:980,-0.431122,0.029480000000000003,-0.157593,0.027098,0.0026739999999999997,-0.002782,-19.18,9.37,-29.5,1a
2019-07-15_154020:000,-0.430634,0.031494,-0.154022,0.026305000000000002,0.004566,-0.003728,-19.18,9.37,-29.5,1a
2019-07-15_154020:020,-0.43621800000000005,0.028442000000000002,-0.148956,0.025907999999999997,0.005268,-0.004704,-19.18,10.06,-27.5,1a
2019-07-15_154020:040,-0.431122,0.026427999999999997,-0.146423,0.025969,0.005268,-0.005497999999999999,-19.18,10.06,-27.5,1a
