timestamp,AccX,AccY,AccZ,GyroX,GyroY,GyroZ,MagX,MagY,MagZ,Activity
2019-07-15_144909:200,-0.368591,0.05438200000000001,-0.352844,0.022337,-0.038158,-0.002995,-28.18,6.37,-37.25,1b
2019-07-15_144909:220,-0.35791,0.054901,-0.318756,0.01895,-0.035961,0.005824,-28.18,6.37,-37.25,1b
2019-07-15_144909:240,-0.335541,0.011169,-0.287231,0.014891,-0.035381,0.015712,-25.870001000000002,7.18,-36.369999,1b
2019-07-15_144909:260,-0.355896,-0.048798,-0.267914,0.015501,-0.038769,0.014856999999999999,-25.870001000000002,7.18,-36.369999,1b
2019-07-15_144909:280,-0.396545,-0.022858,-0.296387,0.024779,-0.040813999999999996,0.013728,-25.870001000000002,7.87,-38.369999,1b
2019-07-15_144909:300,-0.381317,-0.010162000000000001,-0.29180900000000004,0.029173,-0.035778,0.01916,-25.870001000000002,7.87,-38.369999,1b
2019-07-15_144909:320,-0.381805,-0.038116000000000004,-0.277069,0.023589,-0.031139,0.018947,-25.870001000000002,7.87,-38.369999,1b
2019-07-15_144909:340,-0.34368899999999997,-0.028442000000000002,-0.266907,0.021941,-0.026623,0.012111,-23.68,8.56,-38.369999,1b
2019-07-15_144909:360,-0.344696,0.030487,-0.31723,0.022063,-0.025372,0.007075,-23.68,8.56,-38.369999,1b
2019-07-15_144909:380,-0.418915,0.085388,-0.36554000000000003,0.015898,-0.024212,0.009273,-22.25,10.37,-40.369999,1b
2019-07-15_144909:400,-0.429596,0.068634,-0.402161,0.002959,-0.011486,0.016383,-22.25,10.37,-40.369999,1b
2019-07-15_144909:420,-0.473846,0.037598,-0.387909,-0.011018,0.004017,0.012903999999999999,-22.25,10.37,-40.369999,1b
2019-07-15_144909:440,-0.45654300000000003,0.050842,-0.366058,-0.015077000000000002,0.021412,0.005427,-20.5,10.75,-38.369999,1b
2019-07-15_144909:460,-0.441284,0.075745,-0.377747,-0.020204,0.035755,0.007594,-20.5,10.75,-38.369999,1b
2019-07-15_144909:480,-0.438751,0.0737,-0.38385,-0.031679,0.044361000000000005,0.009273,-21.559998999999998,10.75,-39.25,1b
2019-07-15_144909:500,-0.425018,0.046265,-0.383331,-0.047120999999999996,0.051411,0.012202,-21.559998999999998,10.75,-39.25,1b
2019-07-15_144909:520,-0.425018,0.029480000000000003,-0.36554000000000003,-0.054780999999999996,0.056324,0.014308000000000001,-21.559998999999998,10.75,-39.25,1b
2019-07-15_144909:540,-0.406219,0.023895,-0.331482,-0.058412,0.05965,0.010402,-23.370001000000002,10.37,-38.0,1b
2019-07-15_144909:560,-0.379272,0.021851,-0.314178,-0.061525,0.059895000000000004,0.006068,-23.370001000000002,10.37,-38.0,1b
2019-07-15_144909:580,-0.370636,0.013213999999999998,-0.28979499999999997,-0.06421,0.056263,0.004756,-19.68,8.56,-36.369999,1b
2019-07-15_144909:600,-0.390442,-0.002014,-0.271484,-0.065065,0.051227999999999996,0.006282,-19.68,8.56,-36.369999,1b
2019-07-15_144909:620,-0.42605600000000005,-0.013702,-0.269958,-0.062287999999999996,0.044514,0.008784,-19.68,8.56,-36.369999,1b
2019-07-15_144909:640,-0.46417200000000003,-0.013213999999999998,-0.267426,-0.057740999999999994,0.034016000000000005,0.007289,-28.5,6.75,-36.369999,1b
2019-07-15_144909:660,-0.48196400000000006,-0.019318000000000002,-0.262848,-0.055849,0.020801,0.005672,-28.5,6.75,-36.369999,1b
2019-07-15_144909:680,-0.43774399999999997,-0.034546,-0.255707,-0.053499,0.010517,0.0065260000000000006,-30.370001000000002,4.56,-34.75,1b
2019-07-15_144909:700,-0.401642,-0.038116000000000004,-0.237427,-0.050996,0.008320000000000001,0.007869,-30.370001000000002,4.56,-34.75,1b
2019-07-15_144909:720,-0.421967,-0.042175,-0.233337,-0.049074,0.010334000000000001,0.011378000000000001,-30.370001000000002,4.56,-34.75,1b
2019-07-15_144909:740,-0.435699,-0.058960000000000005,-0.22879000000000002,-0.048799,0.011066,0.014186,-30.059998999999998,3.06,-35.68,1b
2019-07-15_144909:760,-0.430634,-0.068634,-0.22879000000000002,-0.046876,0.009724,0.015834,-30.059998999999998,3.06,-35.68,1b
2019-07-15_144909:780,-0.423004,-0.082336,-0.237427,-0.042818,0.007618000000000001,0.017817,-30.5,1.68,-36.060001,1b
2019-07-15_144909:800,-0.41232299999999994,-0.081848,-0.231812,-0.037172000000000004,0.0053289999999999995,0.018886,-30.5,1.68,-36.060001,1b
2019-07-15_144909:820,-0.40823400000000004,-0.073212,-0.236389,-0.031343,0.0031620000000000003,0.01916,-30.5,1.68,-36.060001,1b
2019-07-15_144909:840,-0.387909,-0.057434000000000006,-0.23486300000000002,-0.026430000000000002,-0.00037799999999999997,0.017299000000000002,-30.370001000000002,0.18,-34.5,1b
2019-07-15_144909:860,-0.379791,-0.045226999999999996,-0.236389,-0.025026,-0.002392,0.015559,-30.370001000000002,0.18,-34.5,1b
2019-07-15_144909:880,-0.384857,-0.045745999999999995,-0.23690799999999998,-0.024507,-0.004131,0.013697999999999998,-31.75,-0.5,-34.060001,1b
2019-07-15_144909:900,-0.401642,-0.043701,-0.226746,-0.022829,-0.003002,0.010249,-31.75,-0.5,-34.060001,1b
2019-07-15_144909:920,-0.426544,-0.041687,-0.21505700000000003,-0.020447999999999997,-0.0011099999999999999,0.005733,-31.75,-0.5,-34.060001,1b
2019-07-15_144909:940,-0.41995200000000005,-0.039124,-0.206909,-0.017122,0.0005679999999999999,0.002711,-31.870001000000002,-0.5,-35.75,1b
2019-07-15_144909:960,-0.41842700000000005,-0.030487,-0.193176,-0.014223,0.002216,0.0016129999999999999,-31.870001000000002,-0.5,-35.75,1b
2019-07-15_144909:980,-0.416382,-0.026427999999999997,-0.19165,-0.01111,0.002949,0.0024059999999999997,-31.75,-1.56,-35.0,1b
2019-07-15_144910:000,-0.420959,-0.020844,-0.185059,-0.010042,0.001301,0.001918,-31.75,-1.56,-35.0,1b
2019-07-15_144910:020,-0.406738,-0.016266,-0.177948,-0.009309,0.001575,0.001796,-31.75,-1.56,-35.0,1b
2019-07-15_144910:040,-0.398071,-0.015228,-0.177948,-0.008638,0.002491,0.0031079999999999997,-31.059998999999998,-1.18,-35.75,1b
2019-07-15_144910:060,-0.399109,-0.013702,-0.177429,-0.008759999999999999,0.0016359999999999999,0.003474,-31.059998999999998,-1.18,-35.75,1b
2019-07-15_144910:080,-0.401123,-0.011687999999999999,-0.17843599999999998,-0.008638,-0.000286,0.0035659999999999997,-31.370001000000002,-0.87,-35.0,1b
2019-07-15_144910:100,-0.425018,-0.014221000000000001,-0.177429,-0.009584,-0.002911,0.004481000000000001,-31.370001000000002,-0.87,-35.0,1b
2019-07-15_144910:120,-0.43823199999999995,-0.015228,-0.181488,-0.009828,-0.003246,0.005427,-31.370001000000002,-0.87,-35.0,1b
2019-07-15_144910:140,-0.474854,-0.016753999999999998,-0.187592,-0.010713,-0.000286,0.006343,-31.370001000000002,-2.68,-34.18,1b
2019-07-15_144910:160,-0.478912,-0.019318000000000002,-0.194702,-0.010622,0.0033450000000000003,0.005672,-31.370001000000002,-2.68,-34.18,1b
2019-07-15_144910:180,-0.45401,-0.019318000000000002,-0.19574,-0.010042,0.004414,0.004085,-31.75,-2.0,-35.369999,1b
2019-07-15_144910:200,-0.445862,-0.015228,-0.20486500000000002,-0.00992,0.0032229999999999997,0.004481000000000001,-31.75,-2.0,-35.369999,1b
2019-07-15_144910:220,-0.44891400000000004,-0.011687999999999999,-0.213531,-0.010438,0.0030399999999999997,0.0065569999999999995,-31.75,-2.0,-35.369999,1b
2019-07-15_144910:240,-0.443329,-0.010651,-0.23233,-0.011415,0.0036200000000000004,0.00735,-30.68,-2.0,-35.0,1b
2019-07-15_144910:260,-0.445862,-0.005065999999999999,-0.237427,-0.012697,0.003956,0.006007,-30.68,-2.0,-35.0,1b
2019-07-15_144910:280,-0.5658569999999999,0.0,-0.242004,-0.014100999999999999,0.004414,0.004085,-31.059998999999998,-2.68,-36.18,1b
2019-07-15_144910:300,-0.537903,0.005065999999999999,-0.260284,-0.015290999999999999,0.005543,0.0025280000000000003,-31.059998999999998,-2.68,-36.18,1b
2019-07-15_144910:320,-0.537903,0.023375999999999997,-0.248596,-0.017458,0.008533,0.004024,-31.059998999999998,-2.68,-36.18,1b
2019-07-15_144910:340,-0.6238100000000001,0.019806,-0.306061,-0.016328,0.005756,0.00265,-31.75,-3.06,-35.75,1b
2019-07-15_144910:360,-0.558228,0.032532,-0.280121,-0.017549000000000002,0.0053289999999999995,0.00088,-31.75,-3.06,-35.75,1b
2019-07-15_144910:380,-0.497742,0.034546,-0.272003,-0.017854,0.0070079999999999995,0.007808,-32.18,-3.06,-34.560001,1b
2019-07-15_144910:400,-0.439758,0.032532,-0.265381,-0.015993,0.00954,0.010646,-32.18,-3.06,-34.560001,1b
2019-07-15_144910:420,-0.415375,0.034058,-0.260284,-0.013368000000000001,0.007281999999999999,0.004603,-32.18,-3.06,-34.560001,1b
2019-07-15_144910:440,-0.423492,0.047791,-0.26181,-0.009767,0.003803,-0.000737,-32.18,-3.75,-34.18,1b
2019-07-15_144910:460,-0.411804,0.058441,-0.25012199999999996,-0.0067150000000000005,0.001301,0.000789,-32.18,-3.75,-34.18,1b
2019-07-15_144910:480,-0.431641,0.063538,-0.236389,-0.0049759999999999995,0.0007509999999999999,0.0028940000000000003,-31.370001000000002,-4.56,-33.5,1b
2019-07-15_144910:500,-0.42605600000000005,0.06405599999999999,-0.241486,-0.004457,0.002491,0.003963,-31.370001000000002,-4.56,-33.5,1b
2019-07-15_144910:520,-0.414337,0.065063,-0.231812,-0.003786,0.004627,0.0051530000000000005,-31.370001000000002,-4.56,-33.5,1b
2019-07-15_144910:540,-0.40570100000000003,0.061005,-0.23284899999999997,-0.003145,0.00301,0.006404000000000001,-32.18,-3.75,-34.25,1b
2019-07-15_144910:560,-0.389435,0.058960000000000005,-0.224701,-0.002443,0.00038500000000000003,0.006465,-32.18,-3.75,-34.25,1b
2019-07-15_144910:580,-0.383331,0.057953,-0.21859699999999999,-0.001771,-0.0020559999999999997,0.00561,-31.370001000000002,-4.56,-33.869999,1b
2019-07-15_144910:600,-0.385376,0.055908000000000006,-0.21402,-0.001771,-0.004192,0.004878,-31.370001000000002,-4.56,-33.869999,1b
2019-07-15_144910:620,-0.405212,0.055908000000000006,-0.212006,-0.001436,-0.007031,0.005672,-31.370001000000002,-4.56,-33.869999,1b
2019-07-15_144910:640,-0.416901,0.05438200000000001,-0.20233199999999998,-0.0018329999999999998,-0.007488,0.007533,-31.370001000000002,-4.18,-32.560001,1b
2019-07-15_144910:660,-0.42248500000000005,0.048279,-0.19574,-0.0025039999999999997,-0.007092,0.009334,-31.370001000000002,-4.18,-32.560001,1b
2019-07-15_144910:680,-0.41943400000000003,0.046752999999999996,-0.191162,-0.0032670000000000004,-0.007092,0.010737,-31.059998999999998,-4.18,-32.68,1b
2019-07-15_144910:700,-0.406738,0.039124,-0.181488,-0.004335,-0.008892,0.011317,-31.059998999999998,-4.18,-32.68,1b
2019-07-15_144910:720,-0.402161,0.037598,-0.182007,-0.00461,-0.01228,0.010523999999999999,-31.059998999999998,-4.18,-32.68,1b
2019-07-15_144910:740,-0.397064,0.03302,-0.177948,-0.00461,-0.016277,0.009791,-30.68,-3.37,-33.060001,1b
2019-07-15_144910:760,-0.393494,0.03302,-0.17385899999999999,-0.0034799999999999996,-0.019329,0.008204000000000001,-30.68,-3.37,-33.060001,1b
2019-07-15_144910:780,-0.401123,0.034058,-0.172852,-0.002443,-0.020763,0.0068920000000000006,-30.370001000000002,-3.75,-33.869999,1b
2019-07-15_144910:800,-0.406738,0.038116000000000004,-0.170807,-0.0016190000000000002,-0.020245,0.0061600000000000005,-30.370001000000002,-3.75,-33.869999,1b
2019-07-15_144910:820,-0.41333000000000003,0.039642000000000004,-0.180481,-0.001436,-0.020641,0.007411,-30.370001000000002,-3.75,-33.869999,1b
2019-07-15_144910:840,-0.414337,0.039124,-0.191162,-0.001955,-0.022228,0.008876,-30.0,-3.37,-34.68,1b
2019-07-15_144910:860,-0.429596,0.034058,-0.195221,-0.002046,-0.023022,0.008388,-30.0,-3.37,-34.68,1b
2019-07-15_144910:880,-0.459595,0.029480000000000003,-0.198792,-0.001436,-0.021953999999999998,0.007075,-29.18,-3.06,-35.5,1b
2019-07-15_144910:900,-0.476379,0.025908999999999998,-0.206909,2.8999999999999997e-05,-0.019694999999999997,0.004756,-29.18,-3.06,-35.5,1b
2019-07-15_144910:920,-0.47995,0.027435,-0.21606399999999998,0.0015550000000000002,-0.018108000000000003,0.00146,-29.18,-3.06,-35.5,1b
2019-07-15_144910:940,-0.488068,0.027954000000000003,-0.22879000000000002,0.003264,-0.016186000000000002,-6.6e-05,-27.75,-3.06,-34.25,1b
2019-07-15_144910:960,-0.47995,0.03302,-0.237427,0.004149,-0.013226,0.000728,-27.75,-3.06,-34.25,1b
2019-07-15_144910:980,-0.46060200000000007,0.036072,-0.24658200000000002,0.00421,-0.011761,0.001796,-26.25,-2.68,-35.869999,1b
2019-07-15_144911:000,-0.45401,0.030487,-0.252686,0.00421,-0.010967,0.001521,-26.25,-2.68,-35.869999,1b
2019-07-15_144911:020,-0.45706199999999997,0.020844,-0.25827,0.005797,-0.009289,-0.001042,-26.25,-2.68,-35.869999,1b
2019-07-15_144911:040,-0.477905,0.018799,-0.263855,0.008513,-0.007548999999999999,-0.006047,-27.75,-3.37,-35.5,1b
2019-07-15_144911:060,-0.48858599999999996,0.010651,-0.28875700000000004,0.011504,-0.006512,-0.010869,-27.75,-3.37,-35.5,1b
2019-07-15_144911:080,-0.48095699999999997,0.014221000000000001,-0.28674299999999997,0.014219999999999998,-0.004376,-0.013066,-26.68,-3.06,-35.5,1b
2019-07-15_144911:100,-0.55365,-0.005065999999999999,-0.3508,0.016966,-0.008495,-0.014195,-26.68,-3.06,-35.5,1b
2019-07-15_144911:120,-0.5246890000000001,-0.006592,-0.349274,0.018126,-0.005383,-0.01685,-26.68,-3.06,-35.5,1b
2019-07-15_144911:140,-0.41842700000000005,-0.005065999999999999,-0.311127,0.018736000000000003,0.0010869999999999999,-0.015263999999999998,-25.870001000000002,-3.0,-36.68,1b
2019-07-15_144911:160,-0.358429,0.000488,-0.319275,0.01895,0.000782,-0.008702,-25.870001000000002,-3.0,-36.68,1b
2019-07-15_144911:180,-0.374695,-0.005065999999999999,-0.339111,0.0166,-0.006756,-0.00266,-27.059998999999998,-2.68,-35.869999,1b
2019-07-15_144911:200,-0.37674,-0.014740000000000001,-0.33758499999999997,0.014891,-0.013622,-0.003331,-27.059998999999998,-2.68,-35.869999,1b
2019-07-15_144911:220,-0.390442,-0.017792,-0.35436999999999996,0.014433000000000001,-0.016674,-0.006169,-27.059998999999998,-2.68,-35.869999,1b
2019-07-15_144911:240,-0.398071,-0.012177,-0.354858,0.013944999999999999,-0.016064,-0.009007,-25.870001000000002,-1.5,-35.869999,1b
2019-07-15_144911:260,-0.408752,-0.009125,-0.352325,0.013822999999999998,-0.012493,-0.013616,-25.870001000000002,-1.5,-35.869999,1b
2019-07-15_144911:280,-0.404694,-0.001007,-0.347748,0.012633,-0.007977,-0.017339,-25.18,-1.87,-35.5,1b
2019-07-15_144911:300,-0.377228,0.009125,-0.325378,0.011839,-0.003246,-0.018102,-25.18,-1.87,-35.5,1b
2019-07-15_144911:320,-0.366058,0.013702,-0.310638,0.010435999999999999,0.000446,-0.018315,-25.18,-1.87,-35.5,1b
2019-07-15_144911:340,-0.36248800000000003,0.020325,-0.28775,0.009245,0.002094,-0.018498,-24.870001000000002,-2.25,-36.25,1b
2019-07-15_144911:360,-0.35739099999999996,0.026427999999999997,-0.2659,0.007262,0.0061530000000000005,-0.018772999999999998,-24.870001000000002,-2.25,-36.25,1b
2019-07-15_144911:380,-0.354858,0.031494,-0.24658200000000002,0.006194,0.005695,-0.019048,-25.18,-2.56,-36.68,1b
2019-07-15_144911:400,-0.354858,0.037108999999999996,-0.23895300000000003,0.003264,0.001911,-0.018315,-25.18,-2.56,-36.68,1b
2019-07-15_144911:420,-0.360962,0.045745999999999995,-0.231323,-0.000124,-0.001782,-0.013859999999999999,-25.18,-2.56,-36.68,1b
2019-07-15_144911:440,-0.401123,0.042694,-0.231812,-0.0036030000000000003,-0.002972,-0.006841,-25.18,-2.56,-37.060001,1b
2019-07-15_144911:460,-0.423004,0.039124,-0.235382,-0.006104999999999999,-0.0007440000000000001,-0.0013779999999999999,-25.18,-2.56,-37.060001,1b
2019-07-15_144911:480,-0.406738,0.036591000000000005,-0.236389,-0.009187,0.002949,0.001979,-24.5,-3.0,-36.25,1b
2019-07-15_144911:500,-0.396057,0.036591000000000005,-0.22979699999999997,-0.011629,0.00655,0.005733,-24.5,-3.0,-36.25,1b
2019-07-15_144911:520,-0.377747,0.033539,-0.226746,-0.013155000000000002,0.009448999999999999,0.007594,-24.5,-3.0,-36.25,1b
2019-07-15_144911:540,-0.392487,0.03302,-0.22216799999999998,-0.014100999999999999,0.009602,0.007686,-24.870001000000002,-2.56,-35.5,1b
2019-07-15_144911:560,-0.41586300000000004,0.036072,-0.21810900000000003,-0.017731999999999998,0.007679000000000001,0.010005,-24.870001000000002,-2.56,-35.5,1b
2019-07-15_144911:580,-0.435699,0.031494,-0.21505700000000003,-0.019075,0.007984,0.011836,-25.18,-3.25,-35.060001,1b
2019-07-15_144911:600,-0.441284,0.026427999999999997,-0.213531,-0.022249,0.012653,0.015437000000000001,-25.18,-3.25,-35.060001,1b
2019-07-15_144911:620,-0.43774399999999997,0.022858,-0.22216799999999998,-0.023316999999999997,0.012195999999999999,0.015895,-25.18,-3.25,-35.060001,1b
2019-07-15_144911:640,-0.43670699999999996,0.023375999999999997,-0.237427,-0.023653,0.010181,0.016749,-24.870001000000002,-3.68,-35.5,1b
2019-07-15_144911:660,-0.427063,0.025421,-0.23590100000000003,-0.026369,0.00301,0.022731,-24.870001000000002,-3.68,-35.5,1b
2019-07-15_144911:680,-0.432159,0.022858,-0.242493,-0.027558999999999997,0.000782,0.024988999999999997,-25.559998999999998,-4.5,-33.869999,1b
2019-07-15_144911:700,-0.43774399999999997,0.020325,-0.251648,-0.030336000000000002,-0.00404,0.028773000000000003,-25.559998999999998,-4.5,-33.869999,1b
2019-07-15_144911:720,-0.447388,0.024902,-0.2547,-0.031679,-0.004192,0.028377,-25.559998999999998,-4.5,-33.869999,1b
2019-07-15_144911:740,-0.502808,0.026427999999999997,-0.274536,-0.031679,-0.004528,0.027186000000000002,-26.25,-5.18,-34.68,1b
2019-07-15_144911:760,-0.506378,0.041168,-0.293854,-0.032655,-0.007183,0.024988999999999997,-26.25,-5.18,-34.68,1b
2019-07-15_144911:780,-0.506897,0.056915,-0.277588,-0.036775,-0.004192,0.027705,-25.559998999999998,-5.5,-34.25,1b
2019-07-15_144911:800,-0.579071,0.043701,-0.31723,-0.039827,-0.002911,0.033961,-25.559998999999998,-5.5,-34.25,1b
2019-07-15_144911:820,-0.500275,0.045226999999999996,-0.297913,-0.047120999999999996,-0.002667,0.035731,-25.559998999999998,-5.5,-34.25,1b
2019-07-15_144911:840,-0.414337,0.032532,-0.28674299999999997,-0.048128,-0.002972,0.037745,-25.870001000000002,-6.25,-34.68,1b
2019-07-15_144911:860,-0.375214,0.023895,-0.291321,-0.042635,-0.002239,0.033961,-25.870001000000002,-6.25,-34.68,1b
2019-07-15_144911:880,-0.40063499999999996,0.013702,-0.293335,-0.039705000000000004,-0.003307,0.026729000000000003,-25.870001000000002,-6.25,-34.68,1b
2019-07-15_144911:900,-0.388428,0.036072,-0.29538000000000003,-0.028901999999999997,-0.010081999999999999,0.008815,-25.870001000000002,-6.56,-34.68,1b
2019-07-15_144911:920,-0.388916,0.040161,-0.291321,-0.025575,-0.012554000000000001,0.007808,-25.870001000000002,-6.56,-34.68,1b
2019-07-15_144911:940,-0.379272,0.046265,-0.29538000000000003,-0.019197,-0.017193,0.005946,-25.559998999999998,-7.0,-34.25,1b
2019-07-15_144911:960,-0.364532,0.056427,-0.298431,-0.01523,-0.019847999999999998,0.004359,-25.559998999999998,-7.0,-34.25,1b
2019-07-15_144911:980,-0.378265,0.062012,-0.311646,-0.012941,-0.02235,0.009181,-25.559998999999998,-7.0,-34.25,1b
2019-07-15_144912:000,-0.373688,0.056427,-0.314697,-0.012086,-0.024822,0.016749,-25.559998999999998,-8.06,-35.060001,1b
2019-07-15_144912:020,-0.353851,0.053375,-0.298431,-0.012239,-0.02647,0.019343,-25.559998999999998,-8.06,-35.060001,1b
2019-07-15_144912:040,-0.353851,0.050323,-0.294373,-0.012422,-0.026287,0.018672,-24.059998999999998,-7.75,-35.060001,1b
2019-07-15_144912:060,-0.34875500000000004,0.045745999999999995,-0.28064,-0.01288,-0.025889999999999996,0.017817,-24.059998999999998,-7.75,-35.060001,1b
2019-07-15_144912:080,-0.360962,0.038116000000000004,-0.272491,-0.013673,-0.025433,0.016353,-24.059998999999998,-7.75,-35.060001,1b
2019-07-15_144912:100,-0.36706500000000003,0.032013,-0.268433,-0.013765000000000001,-0.025677,0.014094,-23.370001000000002,-7.75,-35.5,1b
2019-07-15_144912:120,-0.38028,0.025421,-0.280121,-0.012636,-0.024303,0.012506999999999999,-23.370001000000002,-7.75,-35.5,1b
2019-07-15_144912:140,-0.38385,0.021851,-0.286224,-0.010896,-0.02171,0.010921,-22.68,-8.06,-36.75,1b
2019-07-15_144912:160,-0.378265,0.019806,-0.280121,-0.008851999999999999,-0.018383,0.009729999999999999,-22.68,-8.06,-36.75,1b
2019-07-15_144912:180,-0.375702,0.019318000000000002,-0.283173,-0.006319,-0.016186000000000002,0.00854,-22.68,-8.06,-36.75,1b
2019-07-15_144912:200,-0.36706500000000003,0.020844,-0.28064,-0.003664,-0.014874,0.006953,-22.68,-8.5,-36.0,1b
2019-07-15_144912:220,-0.376221,0.028442000000000002,-0.282654,-0.001253,-0.015147999999999998,0.005549,-22.68,-8.5,-36.0,1b
2019-07-15_144912:240,-0.389435,0.031494,-0.28369099999999997,0.0008230000000000001,-0.013622,0.00561,-22.25,-8.06,-36.0,1b
2019-07-15_144912:260,-0.41333000000000003,0.032013,-0.28979499999999997,0.002226,-0.009441,0.00561,-22.25,-8.06,-36.0,1b
2019-07-15_144912:280,-0.41333000000000003,0.031494,-0.28979499999999997,0.00302,-0.005108,0.004298,-22.25,-8.06,-36.0,1b
2019-07-15_144912:300,-0.401123,0.031494,-0.28674299999999997,0.003752,-0.002575,0.0017350000000000002,-20.68,-8.75,-37.18,1b
2019-07-15_144912:320,-0.412811,0.029968,-0.288269,0.004485,-0.001873,-0.001775,-20.68,-8.75,-37.18,1b
2019-07-15_144912:340,-0.401642,0.029968,-0.291321,0.006529000000000001,-0.0005,-0.005956,-20.68,-8.75,-36.75,1b
2019-07-15_144912:360,-0.406738,0.035065,-0.301483,0.008849,-0.000958,-0.009892,-20.68,-8.75,-36.75,1b
2019-07-15_144912:380,-0.40011599999999997,0.039124,-0.305542,0.010497,-0.001873,-0.011022,-20.68,-8.75,-36.75,1b
2019-07-15_144912:400,-0.395538,0.037598,-0.318756,0.011382,-0.002972,-0.009892,-20.68,-8.06,-37.18,1b
2019-07-15_144912:420,-0.402649,0.037108999999999996,-0.325897,0.011656,-0.004986,-0.009679,-20.68,-8.06,-37.18,1b
2019-07-15_144912:440,-0.420959,0.035583,-0.337067,0.012358,-0.005901,-0.009496,-20.25,-7.75,-37.18,1b
2019-07-15_144912:460,-0.435699,0.03302,-0.336548,0.013152,-0.003643,-0.009618000000000002,-20.25,-7.75,-37.18,1b
2019-07-15_144912:480,-0.445862,0.034058,-0.335541,0.014433000000000001,0.005482,-0.011022,-20.25,-7.75,-37.18,1b
2019-07-15_144912:500,-0.47079499999999996,0.027435,-0.352325,0.014891,0.007679000000000001,-0.011998,-21.5,-8.75,-36.369999,1b
2019-07-15_144912:520,-0.437225,0.025421,-0.348267,0.015685,0.012043,-0.016454,-21.5,-8.75,-36.369999,1b
2019-07-15_144912:540,-0.45605500000000004,0.019318000000000002,-0.363007,0.016142,0.011982,-0.018926,-20.25,-8.68,-37.68,1b
2019-07-15_144912:560,-0.454529,0.011687999999999999,-0.385864,0.017333,0.008320000000000001,-0.022161,-20.25,-8.68,-37.68,1b
2019-07-15_144912:580,-0.40011599999999997,0.013213999999999998,-0.364014,0.018126,0.007465,-0.02567,-20.25,-8.68,-37.68,1b
2019-07-15_144912:600,-0.36706500000000003,0.015747,-0.34875500000000004,0.018340000000000002,0.010517,-0.023563999999999998,-20.25,-8.0,-35.560001,1b
2019-07-15_144912:620,-0.360962,0.011687999999999999,-0.341644,0.017149,0.012440000000000001,-0.01798,-20.25,-8.0,-35.560001,1b
2019-07-15_144912:640,-0.35943600000000003,0.0035399999999999997,-0.334534,0.015898,0.009602,-0.015874,-21.5,-8.0,-36.75,1b
2019-07-15_144912:660,-0.37265,0.001495,-0.334015,0.015227000000000001,0.004627,-0.016454,-21.5,-8.0,-36.75,1b
2019-07-15_144912:680,-0.374176,0.005065999999999999,-0.326904,0.015165999999999999,0.000782,-0.014409,-21.5,-8.0,-36.75,1b
2019-07-15_144912:700,-0.375702,0.004059,-0.326904,0.014098,-0.001873,-0.011144,-21.75,-8.68,-36.369999,1b
2019-07-15_144912:720,-0.36911,0.009125,-0.32132,0.012907,-0.003796,-0.008641,-21.75,-8.68,-36.369999,1b
2019-07-15_144912:740,-0.364014,0.008636,-0.329437,0.010709999999999999,-0.007305,-0.007024,-21.18,-6.87,-37.18,1b
2019-07-15_144912:760,-0.34674099999999997,0.015228,-0.318268,0.007842,-0.009228,-0.00504,-21.18,-6.87,-37.18,1b
2019-07-15_144912:780,-0.347748,0.015747,-0.31012,0.005125,-0.008556,-0.0036969999999999998,-21.18,-6.87,-37.18,1b
2019-07-15_144912:800,-0.342163,0.014221000000000001,-0.29943800000000004,0.002531,-0.005169,-0.004247,-21.559998999999998,-7.25,-37.18,1b
2019-07-15_144912:820,-0.3396,0.015228,-0.28674299999999997,0.0007,-0.00227,-0.005376,-21.559998999999998,-7.25,-37.18,1b
2019-07-15_144912:840,-0.33758499999999997,0.017273,-0.279633,-0.000124,-0.000439,-0.005834000000000001,-20.75,-7.68,-38.0,1b
2019-07-15_144912:860,-0.344177,0.018799,-0.267914,-0.001497,-0.0007740000000000001,-0.004979,-20.75,-7.68,-38.0,1b
2019-07-15_144912:880,-0.352325,0.019806,-0.267426,-0.0026260000000000003,-0.001782,-0.002385,-20.75,-7.68,-38.0,1b
2019-07-15_144912:900,-0.361481,0.01828,-0.265381,-0.003542,-0.0027890000000000002,0.000331,-20.75,-7.68,-37.18,1b
2019-07-15_144912:920,-0.356903,0.015747,-0.271484,-0.004854,-0.004986,0.0021920000000000004,-20.75,-7.68,-37.18,1b
2019-07-15_144912:940,-0.353333,0.020844,-0.26944,-0.006379999999999999,-0.0071530000000000005,0.003749,-20.059998999999998,-7.68,-35.18,1b
2019-07-15_144912:960,-0.35180700000000004,0.018799,-0.276062,-0.008759999999999999,-0.00758,0.005946,-20.059998999999998,-7.68,-35.18,1b
2019-07-15_144912:980,-0.36654699999999996,0.015747,-0.279633,-0.01111,-0.007427,0.0061600000000000005,-20.059998999999998,-7.68,-35.18,1b
2019-07-15_144913:000,-0.39502,0.013702,-0.293854,-0.01288,-0.007824,0.005427,-20.059998999999998,-8.37,-37.18,1b
2019-07-15_144913:020,-0.406738,0.009644,-0.293335,-0.014162000000000001,-0.006695,0.00561,-20.059998999999998,-8.37,-37.18,1b
2019-07-15_144913:040,-0.41232299999999994,0.010651,-0.28979499999999997,-0.01407,-0.00346,0.0061600000000000005,-20.370001000000002,-8.37,-38.0,1b
2019-07-15_144913:060,-0.417389,0.008636,-0.282654,-0.013155000000000002,0.000843,0.006404000000000001,-20.370001000000002,-8.37,-38.0,1b
2019-07-15_144913:080,-0.406738,0.013213999999999998,-0.279633,-0.012361,0.0023079999999999997,0.006404000000000001,-20.370001000000002,-8.37,-38.0,1b
2019-07-15_144913:100,-0.40063499999999996,0.016753999999999998,-0.28674299999999997,-0.012086,0.001301,0.008601000000000001,-20.059998999999998,-8.68,-36.25,1b
2019-07-15_144913:120,-0.395538,0.018799,-0.293335,-0.012575,-0.000225,0.011195,-20.059998999999998,-8.68,-36.25,1b
2019-07-15_144913:140,-0.391479,0.016266,-0.314178,-0.013673,-0.002117,0.013972,-20.370001000000002,-9.5,-36.68,1b
2019-07-15_144913:160,-0.39859,0.017273,-0.325378,-0.015077000000000002,-0.003796,0.015224000000000001,-20.370001000000002,-9.5,-36.68,1b
2019-07-15_144913:180,-0.410278,0.017273,-0.338074,-0.016328,-0.003796,0.014766,-20.370001000000002,-9.5,-36.68,1b
2019-07-15_144913:200,-0.433167,0.022369,-0.344696,-0.017396000000000002,-0.000103,0.012965,-20.059998999999998,-9.87,-37.68,1b
2019-07-15_144913:220,-0.469757,0.021851,-0.355377,-0.017793,0.003498,0.010402,-20.059998999999998,-9.87,-37.68,1b
2019-07-15_144913:240,-0.458588,0.028961,-0.352844,-0.018983,0.007862000000000001,0.009059000000000001,-19.68,-9.5,-37.68,1b
2019-07-15_144913:260,-0.457581,0.035583,-0.344177,-0.019258,0.013843000000000001,0.011470000000000001,-19.68,-9.5,-37.68,1b
2019-07-15_144913:280,-0.5134890000000001,0.030487,-0.371643,-0.019319,0.013966,0.013362,-19.68,-9.5,-37.68,1b
2019-07-15_144913:300,-0.462646,0.038635,-0.367584,-0.019777,0.010181,0.01385,-19.370001000000002,-10.18,-36.369999,1b
2019-07-15_144913:320,-0.39859,0.048279,-0.34063699999999997,-0.020600999999999998,0.010792,0.018703,-19.370001000000002,-10.18,-36.369999,1b
2019-07-15_144913:340,-0.3396,0.053375,-0.34063699999999997,-0.020113,0.011706999999999999,0.021876,-20.370001000000002,-10.87,-36.369999,1b
2019-07-15_144913:360,-0.352844,0.050842,-0.335541,-0.019411,0.010792,0.018031000000000002,-20.370001000000002,-10.87,-36.369999,1b
2019-07-15_144913:380,-0.36554000000000003,0.056427,-0.338074,-0.017884999999999998,0.0070079999999999995,0.011134,-20.370001000000002,-10.87,-36.369999,1b
2019-07-15_144913:400,-0.365021,0.060486,-0.33300799999999997,-0.01642,0.001759,0.009334,-21.18,-10.56,-36.369999,1b
2019-07-15_144913:420,-0.385864,0.053375,-0.327423,-0.014284,-0.0014759999999999999,0.009517,-21.18,-10.56,-36.369999,1b
2019-07-15_144913:440,-0.38385,0.050842,-0.32132,-0.011964,-0.00172,0.008418,-21.559998999999998,-11.25,-37.18,1b
2019-07-15_144913:460,-0.376221,0.049805,-0.311646,-0.008699,-0.000286,0.009913,-21.559998999999998,-11.25,-37.18,1b
2019-07-15_144913:480,-0.361969,0.048798,-0.316742,-0.006502,-0.000683,0.01266,-21.559998999999998,-11.25,-37.18,1b
2019-07-15_144913:500,-0.348267,0.048279,-0.31369,-0.004854,-0.001446,0.014979,-28.18,-11.25,-36.0,1b
2019-07-15_144913:520,-0.337067,0.049316000000000006,-0.29486100000000004,-0.003999,-0.001873,0.016841,-28.18,-11.25,-36.0,1b
2019-07-15_144913:540,-0.34368899999999997,0.044739,-0.29180900000000004,-0.003725,-0.0020559999999999997,0.017817,-21.559998999999998,-11.25,-35.18,1b
2019-07-15_144913:560,-0.35180700000000004,0.042175,-0.280121,-0.004335,-0.001843,0.017817,-21.559998999999998,-11.25,-35.18,1b
2019-07-15_144913:580,-0.355896,0.040161,-0.274536,-0.004518,-0.0023309999999999997,0.016963,-21.559998999999998,-11.25,-35.18,1b
2019-07-15_144913:600,-0.35791,0.035583,-0.266907,-0.005312,-0.0035210000000000003,0.015224000000000001,-21.870001000000002,-11.25,-36.0,1b
2019-07-15_144913:620,-0.360962,0.034058,-0.2659,-0.0057079999999999995,-0.005657,0.012903999999999999,-21.870001000000002,-11.25,-36.0,1b
2019-07-15_144913:640,-0.369598,0.029480000000000003,-0.267426,-0.0057079999999999995,-0.007916,0.011073000000000001,-20.75,-10.87,-35.18,1b
2019-07-15_144913:660,-0.381317,0.025908999999999998,-0.272003,-0.005128,-0.009686,0.010341,-20.75,-10.87,-35.18,1b
2019-07-15_144913:680,-0.381317,0.020844,-0.272491,-0.004335,-0.01054,0.009791,-20.75,-10.87,-35.18,1b
2019-07-15_144913:700,-0.372162,0.019318000000000002,-0.266388,-0.002687,-0.009807999999999999,0.009212,-21.18,-11.25,-35.560001,1b
2019-07-15_144913:720,-0.37316900000000003,0.017792,-0.268433,-0.000978,-0.008892,0.007533,-21.18,-11.25,-35.560001,1b
2019-07-15_144913:740,-0.383331,0.019806,-0.266388,0.001036,-0.007244,0.00561,-20.75,-10.87,-35.560001,1b
2019-07-15_144913:760,-0.398071,0.019318000000000002,-0.27301,0.003203,-0.006451,0.003749,-20.75,-10.87,-35.560001,1b
2019-07-15_144913:780,-0.405212,0.019318000000000002,-0.276581,0.005064,-0.006176,0.000606,-20.75,-10.87,-35.560001,1b
2019-07-15_144913:800,-0.40774499999999997,0.022369,-0.275055,0.007445,-0.004833,-0.002995,-21.18,-10.18,-36.0,1b
2019-07-15_144913:820,-0.402161,0.026917,-0.276062,0.0101,-0.003857,-0.005956,-21.18,-10.18,-36.0,1b
2019-07-15_144913:840,-0.399597,0.03302,-0.282166,0.011961,-0.003643,-0.007573000000000001,-20.370001000000002,-10.56,-34.75,1b
2019-07-15_144913:860,-0.389435,0.034058,-0.28875700000000004,0.013578999999999999,-0.004497999999999999,-0.007573000000000001,-20.370001000000002,-10.56,-34.75,1b
2019-07-15_144913:880,-0.39502,0.037108999999999996,-0.304016,0.013975999999999999,-0.005718,-0.0076950000000000005,-20.370001000000002,-10.56,-34.75,1b
2019-07-15_144913:900,-0.40011599999999997,0.038116000000000004,-0.311127,0.014311,-0.005261,-0.007421,-20.059998999999998,-10.18,-35.560001,1b
2019-07-15_144913:920,-0.401123,0.037108999999999996,-0.31723,0.014098,-0.003918,-0.007573000000000001,-20.059998999999998,-10.18,-35.560001,1b
2019-07-15_144913:940,-0.408752,0.037108999999999996,-0.32486,0.014037,-0.002667,-0.008092,-19.68,-9.87,-36.0,1b
2019-07-15_144913:960,-0.41384899999999997,0.036072,-0.325378,0.013487,-0.000225,-0.008214,-19.68,-9.87,-36.0,1b
2019-07-15_144913:980,-0.44384799999999996,0.03302,-0.323853,0.013243000000000001,0.003834,-0.008763,-19.68,-9.87,-36.0,1b
2019-07-15_144914:000,-0.47689799999999993,0.024902,-0.338593,0.013640000000000001,0.006794,-0.011144,-20.370001000000002,-9.0,-36.0,1b
2019-07-15_144914:020,-0.46060200000000007,0.023895,-0.337067,0.014891,0.009052,-0.015325,-20.370001000000002,-9.0,-36.0,1b
2019-07-15_144914:040,-0.475861,0.026917,-0.34875500000000004,0.016875,0.009205,-0.016728,-19.370001000000002,-9.37,-35.560001,1b
2019-07-15_144914:060,-0.467224,0.017792,-0.380798,0.018126,0.003498,-0.015934999999999998,-19.370001000000002,-9.37,-35.560001,1b
2019-07-15_144914:080,-0.42248500000000005,0.015747,-0.366058,0.017546,0.001026,-0.013616,-19.370001000000002,-9.37,-35.560001,1b
2019-07-15_144914:100,-0.399597,0.014740000000000001,-0.374695,0.016692,0.00035499999999999996,-0.010076,-20.059998999999998,-9.37,-35.560001,1b
2019-07-15_144914:120,-0.386383,0.014740000000000001,-0.37265,0.013091,0.001179,-0.005254,-20.059998999999998,-9.37,-35.560001,1b
2019-07-15_144914:140,-0.374695,0.011169,-0.36044299999999996,0.007994,0.00243,0.001124,-19.68,-9.37,-36.369999,1b
2019-07-15_144914:160,-0.389435,-0.006072999999999999,-0.33605999999999997,0.003752,0.004566,0.0027719999999999997,-19.68,-9.37,-36.369999,1b
2019-07-15_144914:180,-0.364532,-0.010162000000000001,-0.324371,0.001006,0.0060609999999999995,0.00085,-19.68,-9.37,-36.369999,1b
2019-07-15_144914:200,-0.352844,-0.015747,-0.32132,-0.0005200000000000001,0.005024,0.000606,-19.370001000000002,-7.87,-36.0,1b
2019-07-15_144914:220,-0.3396,-0.01828,-0.318756,-0.001558,0.0031620000000000003,0.001796,-19.370001000000002,-7.87,-36.0,1b
2019-07-15_144914:240,-0.349792,-0.019806,-0.326904,-0.002748,-0.0005,0.002131,-18.559998999999998,-8.25,-35.560001,1b
2019-07-15_144914:260,-0.342163,-0.016753999999999998,-0.319275,-0.003786,-0.006786,0.0017350000000000002,-18.559998999999998,-8.25,-35.560001,1b
2019-07-15_144914:280,-0.34368899999999997,-0.015747,-0.318756,-0.004396,-0.007702,0.00146,-18.559998999999998,-8.25,-35.560001,1b
2019-07-15_144914:300,-0.34265100000000004,-0.009125,-0.307587,-0.005067,-0.006451,0.00027,-18.18,-7.87,-36.369999,1b
2019-07-15_144914:320,-0.342163,-0.0055850000000000006,-0.304016,-0.005769,-0.004101,-0.0016530000000000002,-18.18,-7.87,-36.369999,1b
2019-07-15_144914:340,-0.340118,0.002014,-0.302002,-0.0058,-0.0023309999999999997,-0.002843,-18.559998999999998,-8.68,-35.18,1b
2019-07-15_144914:360,-0.349274,0.004547,-0.29943800000000004,-0.006104999999999999,-0.0024530000000000003,-0.0023239999999999997,-18.559998999999998,-8.68,-35.18,1b
2019-07-15_144914:380,-0.359955,0.010162000000000001,-0.28979499999999997,-0.006197,-0.002605,-0.001042,-18.559998999999998,-8.68,-35.18,1b
2019-07-15_144914:400,-0.372162,0.011169,-0.28112800000000004,-0.006532,-0.002575,0.001399,-18.18,-8.37,-35.560001,1b
2019-07-15_144914:420,-0.378265,0.009125,-0.278595,-0.007448000000000001,-0.0023309999999999997,0.004634,-18.18,-8.37,-35.560001,1b
2019-07-15_144914:440,-0.363007,0.010162000000000001,-0.269958,-0.008974,-0.002667,0.008937,-17.870001000000002,-9.06,-35.18,1b
2019-07-15_144914:460,-0.35943600000000003,0.006072999999999999,-0.274017,-0.011170999999999999,-0.003399,0.012568000000000001,-17.870001000000002,-9.06,-35.18,1b
2019-07-15_144914:480,-0.377228,0.0030210000000000002,-0.277588,-0.013550999999999999,-0.004192,0.014705000000000001,-17.870001000000002,-9.06,-35.18,1b
2019-07-15_144914:500,-0.378265,0.000488,-0.279633,-0.016267,-0.005047,0.015437000000000001,-18.559998999999998,-9.06,-34.75,1b
2019-07-15_144914:520,-0.388916,-0.0055850000000000006,-0.283173,-0.018526,-0.00584,0.014766,-18.559998999999998,-9.06,-34.75,1b
2019-07-15_144914:540,-0.384338,-0.006592,-0.284698,-0.020052,-0.006176,0.014033000000000002,-17.870001000000002,-8.68,-35.560001,1b
2019-07-15_144914:560,-0.384857,-0.007111,-0.284698,-0.021577000000000002,-0.005901,0.014522,-17.870001000000002,-8.68,-35.560001,1b
2019-07-15_144914:580,-0.389435,-0.009644,-0.290283,-0.02231,-0.005108,0.015498,-17.870001000000002,-8.68,-35.560001,1b
2019-07-15_144914:600,-0.39502,-0.010651,-0.293854,-0.023163999999999997,-0.004437,0.015619999999999998,-17.870001000000002,-9.87,-35.18,1b
2019-07-15_144914:620,-0.390961,-0.010162000000000001,-0.29538000000000003,-0.023592,-0.003643,0.015895,-17.870001000000002,-9.87,-35.18,1b
2019-07-15_144914:640,-0.397064,-0.009125,-0.296387,-0.024446000000000002,-0.003582,0.015619999999999998,-17.18,-10.18,-33.560001,1b
2019-07-15_144914:660,-0.399109,-0.005065999999999999,-0.293335,-0.024904,-0.0030629999999999998,0.014705000000000001,-17.18,-10.18,-33.560001,1b
2019-07-15_144914:680,-0.410278,-0.001007,-0.29995700000000003,-0.025972000000000002,-0.00227,0.013728,-17.18,-10.18,-33.560001,1b
2019-07-15_144914:700,-0.421967,0.000488,-0.30654899999999996,-0.027284,-0.001782,0.013392,-17.559998999999998,-11.25,-35.18,1b
2019-07-15_144914:720,-0.41995200000000005,0.0035399999999999997,-0.311646,-0.028810000000000002,-0.0006219999999999999,0.013789,-17.559998999999998,-11.25,-35.18,1b
2019-07-15_144914:740,-0.414337,0.004059,-0.31369,-0.029878,0.002949,0.014094,-17.870001000000002,-11.18,-33.560001,1b
2019-07-15_144914:760,-0.414337,0.010162000000000001,-0.314697,-0.030489,0.006611,0.012598999999999999,-17.870001000000002,-11.18,-33.560001,1b
2019-07-15_144914:780,-0.460114,0.009644,-0.33300799999999997,-0.031007,0.007465,0.011256,-17.870001000000002,-11.18,-33.560001,1b
2019-07-15_144914:800,-0.45095799999999997,0.007599,-0.334015,-0.031465,0.004871,0.010707,-16.75,-12.0,-34.0,1b
2019-07-15_144914:820,-0.48654200000000003,0.016266,-0.327911,-0.03235,0.010273000000000001,0.01266,-16.75,-12.0,-34.0,1b
2019-07-15_144914:840,-0.494171,0.013213999999999998,-0.37112399999999995,-0.029939,0.010181,0.014125,-17.870001000000002,-11.18,-33.18,1b
2019-07-15_144914:860,-0.449432,0.028442000000000002,-0.332489,-0.03,0.0060609999999999995,0.010707,-17.870001000000002,-11.18,-33.18,1b
2019-07-15_144914:880,-0.40774499999999997,0.027954000000000003,-0.332489,-0.029358999999999996,0.0061530000000000005,0.013118000000000001,-17.870001000000002,-11.18,-33.18,1b
2019-07-15_144914:900,-0.342163,0.032532,-0.319275,-0.026369,0.008717,0.015162,-19.370001000000002,-12.37,-32.369999,1b
2019-07-15_144914:920,-0.341644,0.034546,-0.317749,-0.023958,0.009663,0.010737,-19.370001000000002,-12.37,-32.369999,1b
2019-07-15_144914:940,-0.373688,0.045745999999999995,-0.325897,-0.020326,0.005817,0.003505,-18.559998999999998,-13.87,-31.18,1b
2019-07-15_144914:960,-0.376221,0.056427,-0.314697,-0.017671,0.0006900000000000001,0.00207,-18.559998999999998,-13.87,-31.18,1b
2019-07-15_144914:980,-0.386902,0.053863999999999995,-0.318268,-0.014497,-0.0023309999999999997,0.004359,-18.559998999999998,-13.87,-31.18,1b
2019-07-15_144915:000,-0.380798,0.056915,-0.31369,-0.011751000000000001,-0.003399,0.0025280000000000003,-18.559998999999998,-13.87,-31.18,1b
2019-07-15_144915:020,-0.368073,0.05996699999999999,-0.316742,-0.0071730000000000006,-0.003979,0.0012460000000000001,-18.559998999999998,-13.87,-31.18,1b
2019-07-15_144915:040,-0.36554000000000003,0.05996699999999999,-0.319275,-0.005006,-0.006115,0.0024059999999999997,-18.18,-13.87,-30.370001000000002,1b
2019-07-15_144915:060,-0.356903,0.058960000000000005,-0.316223,-0.0033280000000000002,-0.008434,0.004542,-18.18,-13.87,-30.370001000000002,1b
2019-07-15_144915:080,-0.34875500000000004,0.05438200000000001,-0.312164,-0.001894,-0.009502,0.006679000000000001,-18.18,-13.87,-30.370001000000002,1b
2019-07-15_144915:100,-0.352325,0.049805,-0.306061,-0.000307,-0.008556,0.007533,-18.18,-14.18,-29.18,1b
2019-07-15_144915:120,-0.35638400000000003,0.047791,-0.29742399999999997,0.001616,-0.0071530000000000005,0.007258,-18.18,-14.18,-29.18,1b
2019-07-15_144915:140,-0.364014,0.044739,-0.28979499999999997,0.002684,-0.006115,0.007014,-16.870001000000002,-13.56,-31.18,1b
2019-07-15_144915:160,-0.366058,0.042694,-0.28064,0.003996,-0.006298,0.0065569999999999995,-16.870001000000002,-13.56,-31.18,1b
2019-07-15_144915:180,-0.37316900000000003,0.041168,-0.276581,0.004881,-0.0071530000000000005,0.005397,-16.870001000000002,-13.56,-31.18,1b
2019-07-15_144915:200,-0.378265,0.040649,-0.274536,0.006072,-0.007488,0.003963,-16.5,-14.25,-31.559998999999998,1b
2019-07-15_144915:220,-0.378754,0.040161,-0.277588,0.007445,-0.007092,0.0021920000000000004,-16.5,-14.25,-31.559998999999998,1b
2019-07-15_144915:240,-0.377747,0.039124,-0.28112800000000004,0.008452,-0.007031,0.0010630000000000001,-17.25,-13.87,-31.559998999999998,1b
2019-07-15_144915:260,-0.374695,0.041168,-0.28112800000000004,0.009978,-0.007244,0.001185,-17.25,-13.87,-31.559998999999998,1b
2019-07-15_144915:280,-0.368073,0.040649,-0.278595,0.010893,-0.007488,-0.000279,-17.25,-13.87,-31.559998999999998,1b
2019-07-15_144915:300,-0.36706500000000003,0.039642000000000004,-0.279633,0.011839,-0.006634,-0.002507,-16.5,-12.75,-31.18,1b
2019-07-15_144915:320,-0.38028,0.040161,-0.28112800000000004,0.012907,-0.004192,-0.0046429999999999996,-16.5,-12.75,-31.18,1b
2019-07-15_144915:340,-0.38385,0.039642000000000004,-0.283173,0.013944999999999999,-0.0011099999999999999,-0.007359999999999999,-15.37,-12.75,-31.559998999999998,1b
2019-07-15_144915:360,-0.386383,0.038635,-0.29180900000000004,0.015837,0.0011480000000000001,-0.010564,-15.37,-12.75,-31.559998999999998,1b
2019-07-15_144915:380,-0.378754,0.041168,-0.29284699999999997,0.018004,0.0030399999999999997,-0.013524000000000001,-15.37,-12.75,-31.559998999999998,1b
2019-07-15_144915:400,-0.388428,0.046752999999999996,-0.29742399999999997,0.020384,0.004536,-0.014928,-16.5,-12.75,-31.559998999999998,1b
2019-07-15_144915:420,-0.393494,0.047791,-0.296906,0.021941,0.004932,-0.01566,-16.5,-12.75,-31.559998999999998,1b
2019-07-15_144915:440,-0.406738,0.048798,-0.303528,0.022856,0.005482,-0.01566,-15.37,-12.0,-31.559998999999998,1b
2019-07-15_144915:460,-0.402649,0.050323,-0.304535,0.023253,0.00536,-0.014318,-15.37,-12.0,-31.559998999999998,1b
2019-07-15_144915:480,-0.388916,0.050842,-0.311127,0.021941,0.005604,-0.013402,-15.37,-12.0,-31.559998999999998,1b
2019-07-15_144915:500,-0.393494,0.047791,-0.312164,0.020262,0.005695,-0.013066,-15.0,-11.25,-30.75,1b
2019-07-15_144915:520,-0.446899,0.036591000000000005,-0.337067,0.019194,0.003834,-0.016118,-15.0,-11.25,-30.75,1b
2019-07-15_144915:540,-0.465179,0.026917,-0.34570300000000004,0.018797,0.0042,-0.021092,-19.5,-10.87,-31.18,1b
2019-07-15_144915:560,-0.49316400000000005,0.023375999999999997,-0.358429,0.019681999999999998,0.006275,-0.023015,-19.5,-10.87,-31.18,1b
2019-07-15_144915:580,-0.511444,0.019318000000000002,-0.368591,0.020415,0.006336,-0.025334,-19.5,-10.87,-31.18,1b
2019-07-15_144915:600,-0.49975600000000003,0.012177,-0.36911,0.021269,0.007343000000000001,-0.029546,-14.68,-9.87,-29.559998999999998,1b
2019-07-15_144915:620,-0.46316499999999994,0.013213999999999998,-0.3508,0.022978,0.007862000000000001,-0.030187000000000002,-14.68,-9.87,-29.559998999999998,1b
2019-07-15_144915:640,-0.433655,0.015228,-0.34674099999999997,0.023131,0.006,-0.02802,-19.5,-9.5,-32.0,1b
2019-07-15_144915:660,-0.39859,0.016753999999999998,-0.3396,0.022002,0.002827,-0.025151,-19.5,-9.5,-32.0,1b
2019-07-15_144915:680,-0.384857,0.012695,-0.320282,0.020537,0.001301,-0.021245,-19.5,-9.5,-32.0,1b
2019-07-15_144915:700,-0.386902,0.009125,-0.30654899999999996,0.019255,0.001575,-0.018987,-13.87,-9.75,-30.75,1b
2019-07-15_144915:720,-0.388428,0.0,-0.28875700000000004,0.017759999999999998,0.002491,-0.017247,-13.87,-9.75,-30.75,1b
2019-07-15_144915:740,-0.375214,-0.004547,-0.285217,0.017149,0.001697,-0.016393,-13.18,-9.5,-32.369999,1b
2019-07-15_144915:760,-0.346222,-0.010651,-0.285706,0.016478,-0.001843,-0.016118,-13.18,-9.5,-32.369999,1b
2019-07-15_144915:780,-0.342163,-0.006592,-0.29486100000000004,0.016356,-0.007183,-0.015934999999999998,-13.18,-9.5,-32.369999,1b
2019-07-15_144915:800,-0.34265100000000004,-0.007111,-0.30249000000000004,0.015837,-0.010143000000000001,-0.015538,-13.56,-9.06,-31.559998999999998,1b
2019-07-15_144915:820,-0.33300799999999997,0.000488,-0.297913,0.014555000000000002,-0.01585,-0.014469999999999998,-13.56,-9.06,-31.559998999999998,1b
2019-07-15_144915:840,-0.33605999999999997,0.001007,-0.30300900000000003,0.013822999999999998,-0.016186000000000002,-0.013951,-12.75,-9.06,-32.369999,1b
2019-07-15_144915:860,-0.328949,0.0035399999999999997,-0.305542,0.012114,-0.015513999999999998,-0.013402,-12.75,-9.06,-32.369999,1b
2019-07-15_144915:880,-0.327423,0.006072999999999999,-0.308594,0.010985,-0.015881,-0.012731000000000001,-12.75,-9.06,-32.369999,1b
2019-07-15_144915:900,-0.34674099999999997,0.0055850000000000006,-0.312164,0.010435999999999999,-0.015606,-0.011876000000000001,-12.18,-8.06,-32.369999,1b
2019-07-15_144915:920,-0.35739099999999996,0.004059,-0.311646,0.010313,-0.014324000000000002,-0.010167,-12.18,-8.06,-32.369999,1b
2019-07-15_144915:940,-0.374695,0.004547,-0.308594,0.009856,-0.012218999999999999,-0.007481999999999999,-11.75,-7.75,-32.369999,1b
2019-07-15_144915:960,-0.376221,0.0030210000000000002,-0.308594,0.009062,-0.010693000000000001,-0.004918,-11.75,-7.75,-32.369999,1b
2019-07-15_144915:980,-0.36044299999999996,0.004059,-0.305054,0.008452,-0.010235,-0.0025989999999999997,-11.75,-7.75,-32.369999,1b
2019-07-15_144916:000,-0.356903,0.004547,-0.308075,0.007872,-0.010418,-0.0016530000000000002,-9.87,-7.75,-31.18,1b
2019-07-15_144916:020,-0.36248800000000003,0.004547,-0.308075,0.005187,-0.012218999999999999,-0.000646,-9.87,-7.75,-31.18,1b
2019-07-15_144916:040,-0.37674,0.0030210000000000002,-0.311646,0.0042710000000000005,-0.012463,-0.000127,-11.0,-7.0,-32.369999,1b
2019-07-15_144916:060,-0.389435,-0.001495,-0.31012,0.002013,-0.009564,0.00020899999999999998,-11.0,-7.0,-32.369999,1b
2019-07-15_144916:080,-0.387909,-0.007111,-0.310638,0.000884,-0.006359,-0.000524,-11.0,-7.0,-32.369999,1b
2019-07-15_144916:100,-0.378265,-0.010162000000000001,-0.31012,0.0007,-0.004711,-0.000676,-9.5,-6.56,-32.0,1b
2019-07-15_144916:120,-0.369598,-0.010651,-0.303528,0.000487,-0.001141,-0.0009199999999999999,-9.5,-6.56,-32.0,1b
2019-07-15_144916:140,-0.36706500000000003,-0.009644,-0.305054,0.000426,-0.0007440000000000001,-0.001042,-8.68,-6.56,-32.869999,1b
2019-07-15_144916:160,-0.371643,-0.006592,-0.302002,0.00067,-0.0005,-0.000676,-8.68,-6.56,-32.869999,1b
2019-07-15_144916:180,-0.390442,-0.0035399999999999997,-0.307068,0.000609,0.0007509999999999999,-0.000646,-8.68,-6.56,-32.869999,1b
2019-07-15_144916:200,-0.395538,0.0,-0.308075,0.000365,0.0020329999999999997,-0.00024900000000000004,-8.0,-6.68,-31.68,1b
2019-07-15_144916:220,-0.383331,0.006592,-0.312653,-0.001314,0.003834,0.0010019999999999999,-8.0,-6.68,-31.68,1b
2019-07-15_144916:240,-0.37674,0.009644,-0.320801,-0.002107,0.0033450000000000003,0.000484,-8.0,-6.68,-31.68,1b
2019-07-15_144916:260,-0.386902,0.016266,-0.32486,-0.003664,0.003101,0.00085,-8.68,-7.5,-33.25,1b
2019-07-15_144916:280,-0.42858900000000005,0.020844,-0.341125,-0.006441,0.002491,0.003505,-8.68,-7.5,-33.25,1b
2019-07-15_144916:300,-0.44281000000000004,0.019318000000000002,-0.34674099999999997,-0.007783,0.002094,0.003749,-8.0,-6.68,-32.5,1b
2019-07-15_144916:320,-0.43823199999999995,0.025908999999999998,-0.338593,-0.011354000000000001,0.004932,0.0051530000000000005,-8.0,-6.68,-32.5,1b
2019-07-15_144916:340,-0.46417200000000003,0.024384,-0.36248800000000003,-0.011964,0.004536,0.004878,-8.0,-6.68,-32.5,1b
2019-07-15_144916:360,-0.467743,0.027435,-0.371643,-0.014162000000000001,0.001759,0.0031079999999999997,-9.06,-6.68,-31.68,1b
2019-07-15_144916:380,-0.42147799999999996,0.028961,-0.364014,-0.014284,0.001362,0.004298,-9.06,-6.68,-31.68,1b
2019-07-15_144916:400,-0.367584,0.027435,-0.36044299999999996,-0.013429,0.003101,0.005672,-8.0,-7.87,-32.869999,1b
2019-07-15_144916:420,-0.324371,0.038635,-0.37011700000000003,-0.011964,0.002613,0.003901,-8.0,-7.87,-32.869999,1b
2019-07-15_144916:440,-0.364014,0.041687,-0.382812,-0.00992,-0.00108,0.002315,-8.0,-7.87,-32.869999,1b
2019-07-15_144916:460,-0.36911,0.053375,-0.364014,-0.00818,-0.001873,0.003078,-8.37,-7.87,-32.060001,1b
2019-07-15_144916:480,-0.379272,0.049805,-0.36554000000000003,-0.006044,1.9e-05,0.005824,-8.37,-7.87,-32.060001,1b
2019-07-15_144916:500,-0.35638400000000003,0.050842,-0.356903,-0.0029620000000000002,0.003101,0.004085,-8.0,-7.5,-32.5,1b
2019-07-15_144916:520,-0.337067,0.055908000000000006,-0.359955,-0.001039,0.002613,0.001338,-8.0,-7.5,-32.5,1b
2019-07-15_144916:540,-0.33300799999999997,0.05996699999999999,-0.356903,0.002196,0.0010869999999999999,0.00207,-8.0,-7.5,-32.5,1b
2019-07-15_144916:560,-0.353333,0.056915,-0.355896,0.002806,-0.001446,0.00442,-8.0,-7.5,-32.5,1b
2019-07-15_144916:580,-0.355896,0.052338,-0.353333,0.003691,-0.003002,0.005488,-8.0,-7.5,-32.5,1b
2019-07-15_144916:600,-0.358917,0.046752999999999996,-0.34265100000000004,0.004546,-0.0027890000000000002,0.004359,-6.87,-7.87,-32.869999,1b
2019-07-15_144916:620,-0.361481,0.045226999999999996,-0.332489,0.005614,0.000294,0.003749,-6.87,-7.87,-32.869999,1b
2019-07-15_144916:640,-0.35791,0.041168,-0.316223,0.0064069999999999995,0.004536,0.003016,-6.87,-7.87,-32.869999,1b
2019-07-15_144916:660,-0.355896,0.040649,-0.30300900000000003,0.006987,0.007618000000000001,0.0028940000000000003,-7.68,-7.5,-32.060001,1b
2019-07-15_144916:680,-0.36654699999999996,0.035065,-0.28775,0.007658,0.008747,0.0028940000000000003,-7.68,-7.5,-32.060001,1b
2019-07-15_144916:700,-0.368073,0.032532,-0.282166,0.008391,0.010181,0.001857,-7.25,-7.5,-32.5,1b
2019-07-15_144916:720,-0.36706500000000003,0.032013,-0.278595,0.009703,0.011005,0.000331,-7.25,-7.5,-32.5,1b
2019-07-15_144916:740,-0.36044299999999996,0.029480000000000003,-0.270477,0.010893,0.010334000000000001,-0.0016530000000000002,-7.25,-7.5,-32.5,1b
2019-07-15_144916:760,-0.358429,0.032013,-0.268433,0.012236,0.008320000000000001,-0.0036969999999999998,-8.5,-6.37,-33.68,1b
2019-07-15_144916:780,-0.364532,0.036072,-0.270966,0.013182,0.005878,-0.004918,-8.5,-6.37,-33.68,1b
2019-07-15_144916:800,-0.375214,0.039124,-0.270966,0.014098,0.004078,-0.005589,-7.56,-6.37,-34.060001,1b
2019-07-15_144916:820,-0.375214,0.040161,-0.271484,0.014219999999999998,0.005543,-0.006566,-7.56,-6.37,-34.060001,1b
2019-07-15_144916:840,-0.381805,0.037598,-0.274017,0.014098,0.00774,-0.007909000000000001,-7.56,-6.37,-34.060001,1b
2019-07-15_144916:860,-0.38385,0.035583,-0.279633,0.014769,0.008198,-0.010808,-8.0,-5.25,-32.869999,1b
2019-07-15_144916:880,-0.368591,0.036591000000000005,-0.278595,0.016631,0.0070079999999999995,-0.014653,-8.0,-5.25,-32.869999,1b
2019-07-15_144916:900,-0.385376,0.038116000000000004,-0.283173,0.019072,0.006275,-0.017064,-8.68,-5.25,-33.68,1b
2019-07-15_144916:920,-0.394012,0.039642000000000004,-0.28979499999999997,0.021727,0.0071909999999999995,-0.01798,-8.68,-5.25,-33.68,1b
2019-07-15_144916:940,-0.409271,0.042175,-0.294373,0.02365,0.007801000000000001,-0.01859,-8.68,-5.25,-33.68,1b
2019-07-15_144916:960,-0.397583,0.044219999999999995,-0.293854,0.025237,0.009205,-0.01859,-7.18,-3.87,-33.25,1b
2019-07-15_144916:980,-0.382324,0.044219999999999995,-0.302002,0.02603,0.010059,-0.019444,-7.18,-3.87,-33.25,1b
2019-07-15_144917:000,-0.389954,0.046265,-0.308594,0.026122000000000003,0.00954,-0.01917,-7.56,-3.18,-33.68,1b
2019-07-15_144917:020,-0.434174,0.042694,-0.318756,0.026122000000000003,0.007526000000000001,-0.019109,-7.56,-3.18,-33.68,1b
2019-07-15_144917:040,-0.47280900000000003,0.036591000000000005,-0.326385,0.026091000000000003,0.004627,-0.02097,-7.56,-3.18,-33.68,1b
2019-07-15_144917:060,-0.46926899999999994,0.028961,-0.322845,0.026518,0.004017,-0.02509,-8.0,-2.5,-34.060001,1b
2019-07-15_144917:080,-0.48043800000000003,0.021851,-0.348267,0.027495,0.0020329999999999997,-0.027349000000000002,-8.0,-2.5,-34.060001,1b
2019-07-15_144917:100,-0.45605500000000004,0.013213999999999998,-0.368591,0.027617000000000003,-0.001324,-0.027013,-8.68,-2.5,-33.68,1b
2019-07-15_144917:120,-0.461121,0.010162000000000001,-0.374695,0.026366000000000004,-0.003643,-0.024938,-8.68,-2.5,-33.68,1b
2019-07-15_144917:140,-0.435699,0.0030210000000000002,-0.378754,0.024657,-0.005047,-0.022161,-8.68,-2.5,-33.68,1b
2019-07-15_144917:160,-0.426544,-0.008118,-0.36248800000000003,0.022185,-0.004711,-0.021092,-8.37,-1.0,-32.869999,1b
2019-07-15_144917:180,-0.402649,-0.014740000000000001,-0.344177,0.020873,-0.001934,-0.020513,-8.37,-1.0,-32.869999,1b
2019-07-15_144917:200,-0.36654699999999996,-0.020844,-0.309601,0.019804,0.0036810000000000002,-0.020756999999999998,-7.56,-0.56,-34.5,1b
2019-07-15_144917:220,-0.35131799999999996,-0.027435,-0.29284699999999997,0.020079,0.008015000000000001,-0.021245,-7.56,-0.56,-34.5,1b
2019-07-15_144917:240,-0.319275,-0.034058,-0.282166,0.021208,0.006855,-0.02271,-7.56,-0.56,-34.5,1b
2019-07-15_144917:260,-0.325897,-0.033539,-0.291321,0.022856,0.001026,-0.023441999999999998,-6.87,-1.06,-34.060001,1b
2019-07-15_144917:280,-0.338074,-0.027435,-0.298431,0.024901,-0.005169,-0.024236,-6.87,-1.06,-34.060001,1b
2019-07-15_144917:300,-0.354858,-0.020844,-0.311646,0.02603,-0.010357,-0.025547999999999998,-8.0,0.37,-36.060001,1b
2019-07-15_144917:320,-0.354858,-0.017792,-0.311127,0.026854000000000003,-0.013928,-0.026097000000000002,-8.0,0.37,-36.060001,1b
2019-07-15_144917:340,-0.34875500000000004,-0.012177,-0.319275,0.026854000000000003,-0.014750999999999998,-0.025700999999999998,-8.0,0.37,-36.060001,1b
2019-07-15_144917:360,-0.354858,-0.009644,-0.32486,0.026427,-0.014385,-0.025823000000000002,-8.0,0.56,-34.060001,1b
2019-07-15_144917:380,-0.36706500000000003,-0.0055850000000000006,-0.324371,0.026091000000000003,-0.012737,-0.02628,-8.0,0.56,-34.060001,1b
2019-07-15_144917:400,-0.36911,-0.004059,-0.32132,0.025693999999999998,-0.010143000000000001,-0.025945,-6.87,1.37,-34.5,1b
2019-07-15_144917:420,-0.359955,0.0,-0.312653,0.024962,-0.006908,-0.024236,-6.87,1.37,-34.5,1b
2019-07-15_144917:440,-0.36044299999999996,0.000488,-0.30249000000000004,0.023924,-0.005779,-0.020756999999999998,-6.87,1.37,-34.5,1b
2019-07-15_144917:460,-0.35436999999999996,-0.002014,-0.291321,0.022581999999999998,-0.00584,-0.016666999999999998,-7.18,3.18,-34.5,1b
2019-07-15_144917:480,-0.34317,-0.009125,-0.28418000000000004,0.020322999999999997,-0.0069700000000000005,-0.013524000000000001,-7.18,3.18,-34.5,1b
2019-07-15_144917:500,-0.337067,-0.013213999999999998,-0.284698,0.018553,-0.008678,-0.013219,-5.75,4.0,-35.25,1b
2019-07-15_144917:520,-0.3396,-0.016266,-0.28775,0.016356,-0.012402,-0.014591999999999999,-5.75,4.0,-35.25,1b
2019-07-15_144917:540,-0.34875500000000004,-0.016266,-0.29742399999999997,0.014891,-0.017131999999999998,-0.015325,-5.75,4.0,-35.25,1b
2019-07-15_144917:560,-0.36911,-0.014740000000000001,-0.308594,0.013548,-0.020062,-0.014745,-6.18,4.5,-32.869999,1b
2019-07-15_144917:580,-0.371643,-0.012695,-0.308075,0.012694,-0.020306,-0.013341,-6.18,4.5,-32.869999,1b
2019-07-15_144917:600,-0.374695,-0.010651,-0.31012,0.011229000000000001,-0.016735,-0.011754,-6.5,4.56,-34.869999,1b
2019-07-15_144917:620,-0.377747,-0.005065999999999999,-0.313171,0.010161,-0.013073,-0.010533,-6.5,4.56,-34.869999,1b
2019-07-15_144917:640,-0.386383,-0.001495,-0.325897,0.007872,-0.008617,-0.009038,-6.5,4.56,-34.869999,1b
2019-07-15_144917:660,-0.38028,0.0,-0.33197,0.00598,-0.003582,-0.006963,-5.68,4.87,-34.060001,1b
2019-07-15_144917:680,-0.37674,0.0,-0.331482,0.002959,-0.001202,-0.004857,-5.68,4.87,-34.060001,1b
2019-07-15_144917:700,-0.361969,-0.002014,-0.32843,0.000151,0.0007509999999999999,-0.003331,-4.56,5.75,-35.25,1b
2019-07-15_144917:720,-0.382324,-0.0025329999999999997,-0.34875500000000004,-0.001253,-4.2e-05,-0.0033009999999999997,-4.56,5.75,-35.25,1b
2019-07-15_144917:740,-0.40011599999999997,0.002014,-0.35739099999999996,-0.002229,0.0006900000000000001,-0.00385,-4.56,5.75,-35.25,1b
2019-07-15_144917:760,-0.44891400000000004,0.008636,-0.37011700000000003,-0.002168,0.00243,-0.004033,-4.25,5.68,-34.5,1b
2019-07-15_144917:780,-0.46417200000000003,0.011687999999999999,-0.374176,-0.002687,0.004017,-0.00443,-4.25,5.68,-34.5,1b
2019-07-15_144917:800,-0.446899,0.024902,-0.361969,-0.002687,0.008015000000000001,-0.00324,-4.56,5.25,-35.25,1b
2019-07-15_144917:820,-0.459595,0.027954000000000003,-0.373688,-0.0029010000000000004,0.008411,-0.001805,-4.56,5.25,-35.25,1b
2019-07-15_144917:840,-0.45907600000000004,0.031006,-0.390961,-0.00345,0.004475,-0.00266,-4.56,5.25,-35.25,1b
2019-07-15_144917:860,-0.416382,0.040161,-0.375702,-0.0038770000000000002,0.004414,-0.00024900000000000004,-5.0,5.68,-33.68,1b
2019-07-15_144917:880,-0.365021,0.041168,-0.370636,-0.0029010000000000004,0.007281999999999999,0.002742,-5.0,5.68,-33.68,1b
2019-07-15_144917:900,-0.33758499999999997,0.048798,-0.37011700000000003,-0.0016489999999999999,0.008411,0.001674,-5.0,5.25,-34.5,1b
2019-07-15_144917:920,-0.34875500000000004,0.048798,-0.373688,-0.000917,0.006092,-0.001134,-5.0,5.25,-34.5,1b
2019-07-15_144917:940,-0.348267,0.055908000000000006,-0.353333,0.000426,0.005482,-0.0013779999999999999,-5.0,5.25,-34.5,1b
2019-07-15_144917:960,-0.347748,0.055908000000000006,-0.352844,0.002562,0.004749000000000001,-0.0025989999999999997,-5.25,6.0,-34.5,1b
2019-07-15_144917:980,-0.34368899999999997,0.062012,-0.34570300000000004,0.004332,0.004353,-0.003179,-5.25,6.0,-34.5,1b
2019-07-15_144918:000,-0.332489,0.063019,-0.34570300000000004,0.005125,0.0026739999999999997,-0.0013779999999999999,-6.06,6.37,-34.5,1b
2019-07-15_144918:020,-0.33197,0.06405599999999999,-0.341644,0.006072,0.00035499999999999996,-5e-06,-6.06,6.37,-34.5,1b
2019-07-15_144918:040,-0.337067,0.058960000000000005,-0.34674099999999997,0.00601,-0.002972,0.000453,-6.06,6.37,-34.5,1b
2019-07-15_144918:060,-0.334015,0.056427,-0.34265100000000004,0.00598,-0.005383,8.7e-05,-6.75,6.37,-33.75,1b
2019-07-15_144918:080,-0.335022,0.051849,-0.32995599999999997,0.005736,-0.0053219999999999995,8.7e-05,-6.75,6.37,-33.75,1b
2019-07-15_144918:100,-0.33197,0.048279,-0.326904,0.0058579999999999995,-0.004131,-6.6e-05,-6.75,6.75,-35.0,1b
2019-07-15_144918:120,-0.33197,0.044219999999999995,-0.316742,0.006346,-0.002575,0.00027,-6.75,6.75,-35.0,1b
2019-07-15_144918:140,-0.332489,0.042175,-0.314178,0.007262,-0.002972,0.00027,-6.75,6.75,-35.0,1b
2019-07-15_144918:160,-0.34063699999999997,0.039642000000000004,-0.309113,0.007781000000000001,-0.003979,-0.000585,-6.06,6.75,-34.18,1b
2019-07-15_144918:180,-0.348267,0.039642000000000004,-0.304535,0.008727,-0.004711,-0.001775,-6.06,6.75,-34.18,1b
2019-07-15_144918:200,-0.354858,0.038116000000000004,-0.305542,0.00952,-0.005108,-0.003453,-6.75,7.5,-34.560001,1b
2019-07-15_144918:220,-0.361481,0.041687,-0.308075,0.010375,-0.005901,-0.00504,-6.75,7.5,-34.560001,1b
2019-07-15_144918:240,-0.369598,0.039124,-0.314697,0.011443,-0.006634,-0.006566,-6.75,7.5,-34.560001,1b
2019-07-15_144918:260,-0.364014,0.042694,-0.315216,0.012358,-0.004986,-0.007634,-6.06,7.5,-33.369999,1b
2019-07-15_144918:280,-0.35943600000000003,0.042694,-0.316742,0.012754999999999999,-0.00285,-0.008306000000000001,-6.06,7.5,-33.369999,1b
2019-07-15_144918:300,-0.352844,0.042175,-0.314697,0.012969,-0.0007740000000000001,-0.009221,-5.68,8.56,-35.75,1b
2019-07-15_144918:320,-0.368591,0.038635,-0.320282,0.014159,-0.000103,-0.010472,-5.68,8.56,-35.75,1b
2019-07-15_144918:340,-0.378265,0.035065,-0.321808,0.015624,5e-05,-0.013555000000000001,-5.68,8.56,-35.75,1b
2019-07-15_144918:360,-0.380798,0.038116000000000004,-0.320282,0.017821,0.002552,-0.015721000000000002,-6.5,8.5,-33.75,1b
2019-07-15_144918:380,-0.382812,0.039124,-0.32486,0.020079,0.0038950000000000005,-0.015782,-6.5,8.5,-33.75,1b
2019-07-15_144918:400,-0.373688,0.039124,-0.325897,0.02191,0.004749000000000001,-0.016912,-6.06,9.0,-35.0,1b
2019-07-15_144918:420,-0.380798,0.040161,-0.324371,0.02307,0.005939,-0.017705000000000002,-6.06,9.0,-35.0,1b
2019-07-15_144918:440,-0.34368899999999997,0.042175,-0.32843,0.024168000000000002,0.006947,-0.017644,-6.06,9.0,-35.0,1b
2019-07-15_144918:460,-0.33197,0.042175,-0.341125,0.023711000000000003,0.004414,-0.018315,-6.75,9.87,-35.0,1b
2019-07-15_144918:480,-0.345215,0.040649,-0.346222,0.023528,0.001759,-0.01917,-6.75,9.87,-35.0,1b
2019-07-15_144918:500,-0.378754,0.034546,-0.34875500000000004,0.023711000000000003,0.0023079999999999997,-0.020756999999999998,-7.87,10.68,-33.369999,1b
2019-07-15_144918:520,-0.384857,0.030487,-0.35436999999999996,0.024382,0.006855,-0.023839,-7.87,10.68,-33.369999,1b
2019-07-15_144918:540,-0.411804,0.027435,-0.36706500000000003,0.025572,0.011463,-0.028081000000000002,-7.87,10.68,-33.369999,1b
2019-07-15_144918:560,-0.42248500000000005,0.021851,-0.388916,0.027831,0.012836000000000002,-0.033574,-7.87,11.37,-33.369999,1b
2019-07-15_144918:580,-0.420959,0.024384,-0.383331,0.030302,0.014698,-0.038243,-7.87,11.37,-33.369999,1b
2019-07-15_144918:600,-0.490601,0.021851,-0.40368699999999996,0.033354,0.016712,-0.039891,-9.0,12.5,-32.560001,1b
2019-07-15_144918:620,-0.476379,0.018799,-0.401123,0.035948,0.017414,-0.041631,-9.0,12.5,-32.560001,1b
2019-07-15_144918:640,-0.435699,0.023895,-0.36248800000000003,0.037322,0.020893000000000002,-0.041692,-9.0,12.5,-32.560001,1b
2019-07-15_144918:660,-0.397064,0.027954000000000003,-0.349792,0.037535,0.024006,-0.037419,-9.68,12.56,-30.559998999999998,1b
2019-07-15_144918:680,-0.3508,0.024384,-0.326904,0.034819,0.022999000000000002,-0.031132999999999997,-9.68,12.56,-30.559998999999998,1b
2019-07-15_144918:700,-0.339111,0.020325,-0.320801,0.031737,0.016773,-0.026463999999999998,-11.18,14.06,-32.18,1b
2019-07-15_144918:720,-0.364014,0.012177,-0.293335,0.028685000000000002,0.012531,-0.025547999999999998,-11.18,14.06,-32.18,1b
2019-07-15_144918:740,-0.367584,0.000488,-0.28418000000000004,0.026854000000000003,0.009724,-0.027135000000000003,-11.18,14.06,-32.18,1b
2019-07-15_144918:760,-0.349274,0.0,-0.282654,0.026427,0.007281999999999999,-0.029149,-11.56,14.87,-31.0,1b
2019-07-15_144918:780,-0.350281,-0.0025329999999999997,-0.29895,0.026091000000000003,0.0036200000000000004,-0.029149,-11.56,14.87,-31.0,1b
2019-07-15_144918:800,-0.340118,-0.005065999999999999,-0.308075,0.025969,0.0005679999999999999,-0.027135000000000003,-13.75,15.18,-29.370001000000002,1b
2019-07-15_144918:820,-0.352844,-0.007599,-0.317749,0.02603,-0.002667,-0.026067,-13.75,15.18,-29.370001000000002,1b
2019-07-15_144918:840,-0.35638400000000003,-0.008118,-0.325897,0.026305000000000002,-0.0069700000000000005,-0.025762,-13.75,15.18,-29.370001000000002,1b
2019-07-15_144918:860,-0.354858,-0.007111,-0.315216,0.026366000000000004,-0.008831,-0.024693,-14.06,15.5,-28.25,1b
2019-07-15_144918:880,-0.355377,-0.007599,-0.314178,0.027219999999999998,-0.008373,-0.024297,-14.06,15.5,-28.25,1b
2019-07-15_144918:900,-0.36654699999999996,-0.006072999999999999,-0.311646,0.027831,-0.006695,-0.025212000000000002,-14.87,16.370001000000002,-29.059998999999998,1b
2019-07-15_144918:920,-0.369598,0.001495,-0.307068,0.028776999999999997,-0.005444,-0.025151,-14.87,16.370001000000002,-29.059998999999998,1b
2019-07-15_144918:940,-0.361969,0.006592,-0.305542,0.028899,-0.005657,-0.023015,-14.87,16.370001000000002,-29.059998999999998,1b
2019-07-15_144918:960,-0.361969,0.011169,-0.307068,0.02777,-0.0069700000000000005,-0.019383,-13.68,16.0,-28.25,1b
2019-07-15_144918:980,-0.37011700000000003,0.011169,-0.305542,0.025297999999999998,-0.008892,-0.016057,-13.68,16.0,-28.25,1b
2019-07-15_144919:000,-0.371643,0.007599,-0.300476,0.021727,-0.00877,-0.014134,-14.87,17.5,-27.5,1b
2019-07-15_144919:020,-0.36706500000000003,0.0030210000000000002,-0.298431,0.018675,-0.007977,-0.013280000000000002,-14.87,17.5,-27.5,1b
2019-07-15_144919:040,-0.352325,0.0,-0.29943800000000004,0.015685,-0.008709,-0.012943999999999999,-14.87,17.5,-27.5,1b
2019-07-15_144919:060,-0.3508,-0.005065999999999999,-0.300964,0.013182,-0.010967,-0.012395,-13.25,18.0,-27.870001000000002,1b
2019-07-15_144919:080,-0.353851,-0.0055850000000000006,-0.30249000000000004,0.012022,-0.013012000000000001,-0.011815,-13.25,18.0,-27.870001000000002,1b
2019-07-15_144919:100,-0.369598,-0.006592,-0.306061,0.011106999999999999,-0.013622,-0.011998,-12.87,17.5,-27.5,1b
2019-07-15_144919:120,-0.37316900000000003,-0.004059,-0.309113,0.010924,-0.010815,-0.012334,-12.87,17.5,-27.5,1b
2019-07-15_144919:140,-0.36554000000000003,0.0,-0.314697,0.010435999999999999,-0.006786,-0.011815,-12.87,17.5,-27.5,1b
2019-07-15_144919:160,-0.364014,0.001495,-0.315216,0.009184000000000001,-0.003704,-0.010228000000000001,-14.75,17.870001000000002,-27.059998999999998,1b
2019-07-15_144919:180,-0.394531,0.0030210000000000002,-0.324371,0.008055,-0.0006219999999999999,-0.008611,-14.75,17.870001000000002,-27.059998999999998,1b
2019-07-15_144919:200,-0.402649,0.006072999999999999,-0.331482,0.006926000000000001,0.005085,-0.007359999999999999,-15.18,17.5,-27.059998999999998,1b
2019-07-15_144919:220,-0.40063499999999996,0.0030210000000000002,-0.32843,0.006072,0.009113,-0.0057729999999999995,-15.18,17.5,-27.059998999999998,1b
2019-07-15_144919:240,-0.378265,-0.001007,-0.325378,0.0054,0.010242,-0.005162,-15.18,17.5,-27.059998999999998,1b
2019-07-15_144919:260,-0.372162,0.002014,-0.328949,0.005614,0.007618000000000001,-0.005254,-14.87,17.559998999999998,-27.5,1b
2019-07-15_144919:280,-0.396545,0.012695,-0.336548,0.005797,0.004688,-0.004918,-14.87,17.559998999999998,-27.5,1b
2019-07-15_144919:300,-0.425018,0.014740000000000001,-0.34674099999999997,0.004546,0.002491,-0.004125,-16.0,17.18,-26.25,1b
2019-07-15_144919:320,-0.44433599999999995,0.017792,-0.3508,0.003539,0.001972,-0.004308,-16.0,17.18,-26.25,1b
2019-07-15_144919:340,-0.445374,0.021851,-0.34317,0.002684,0.005604,-0.004979,-16.0,17.18,-26.25,1b
2019-07-15_144919:360,-0.45401,0.023375999999999997,-0.354858,0.003081,0.008533,-0.006383,-16.25,16.5,-26.68,1b
2019-07-15_144919:380,-0.466217,0.032532,-0.37011700000000003,0.004332,0.0054210000000000005,-0.008763,-16.25,16.5,-26.68,1b
2019-07-15_144919:400,-0.46417200000000003,0.039124,-0.358917,0.00479,0.0031620000000000003,-0.007176,-17.059998999999998,17.18,-25.370001000000002,1b
2019-07-15_144919:420,-0.423004,0.039642000000000004,-0.341644,0.005187,0.0061530000000000005,-0.001927,-17.059998999999998,17.18,-25.370001000000002,1b
2019-07-15_144919:440,-0.382324,0.036591000000000005,-0.330963,0.0054,0.011798999999999999,0.000484,-17.059998999999998,17.18,-25.370001000000002,1b
2019-07-15_144919:460,-0.334534,0.035065,-0.33758499999999997,0.005919,0.011066,-0.000127,-17.5,16.5,-25.370001000000002,1b
2019-07-15_144919:480,-0.303528,0.043701,-0.347229,0.006651000000000001,0.005665,0.00088,-17.5,16.5,-25.370001000000002,1b
2019-07-15_144919:500,-0.314178,0.045226999999999996,-0.34875500000000004,0.00659,-0.0007740000000000001,0.0036880000000000003,-18.059998999999998,17.559998999999998,-25.370001000000002,1b
2019-07-15_144919:520,-0.369598,0.044219999999999995,-0.346222,0.00598,-0.002514,0.005214,-18.059998999999998,17.559998999999998,-25.370001000000002,1b
2019-07-15_144919:540,-0.377747,0.043701,-0.34368899999999997,0.006072,-0.0014759999999999999,0.004085,-18.059998999999998,17.559998999999998,-25.370001000000002,1b
2019-07-15_144919:560,-0.368073,0.045745999999999995,-0.335022,0.0064069999999999995,0.0011480000000000001,0.001582,-17.75,17.25,-24.18,1b
2019-07-15_144919:580,-0.34368899999999997,0.045226999999999996,-0.334015,0.006712,0.002705,-6.6e-05,-17.75,17.25,-24.18,1b
2019-07-15_144919:600,-0.318756,0.044739,-0.334534,0.006926000000000001,0.00038500000000000003,-0.00147,-17.870001000000002,17.68,-25.75,1b
2019-07-15_144919:620,-0.323853,0.039642000000000004,-0.3396,0.007781000000000001,-0.005169,-0.002782,-17.870001000000002,17.68,-25.75,1b
2019-07-15_144919:640,-0.326904,0.038635,-0.344177,0.008634999999999999,-0.01115,-0.00446,-17.870001000000002,17.68,-25.75,1b
2019-07-15_144919:660,-0.334534,0.039124,-0.34265100000000004,0.010251999999999999,-0.013744,-0.004308,-18.059998999999998,17.68,-25.370001000000002,1b
2019-07-15_144919:680,-0.355896,0.037598,-0.334015,0.011382,-0.012341,-0.003179,-18.059998999999998,17.68,-25.370001000000002,1b
2019-07-15_144919:700,-0.356903,0.037598,-0.333496,0.011839,-0.008892,-0.0014089999999999999,-19.25,17.68,-25.370001000000002,1b
2019-07-15_144919:720,-0.34317,0.034546,-0.324371,0.011504,-0.005566,5.6000000000000006e-05,-19.25,17.68,-25.370001000000002,1b
2019-07-15_144919:740,-0.33758499999999997,0.031006,-0.32486,0.010832,-0.005718,-5e-06,-19.25,17.68,-25.370001000000002,1b
2019-07-15_144919:760,-0.340118,0.029968,-0.32486,0.010039,-0.006756,-0.0011949999999999999,-17.5,17.25,-25.370001000000002,1b
2019-07-15_144919:780,-0.354858,0.024384,-0.32843,0.00952,-0.007763,-0.003453,-17.5,17.25,-25.370001000000002,1b
2019-07-15_144919:800,-0.359955,0.024902,-0.32995599999999997,0.009978,-0.007916,-0.007237,-17.18,17.68,-25.0,1b
2019-07-15_144919:820,-0.358917,0.023895,-0.329437,0.010893,-0.007031,-0.00916,-17.18,17.68,-25.0,1b
2019-07-15_144919:840,-0.360962,0.024902,-0.330963,0.012114,-0.00642,-0.010564,-17.18,17.68,-25.0,1b
2019-07-15_144919:860,-0.355377,0.023375999999999997,-0.331482,0.013548,-0.005961999999999999,-0.012151,-17.870001000000002,18.059998999999998,-24.559998999999998,1b
2019-07-15_144919:880,-0.364014,0.025421,-0.323853,0.015471,-0.004589,-0.012943999999999999,-17.870001000000002,18.059998999999998,-24.559998999999998,1b
2019-07-15_144919:900,-0.37112399999999995,0.026917,-0.32486,0.017027,-0.0021780000000000002,-0.014072999999999999,-18.559998999999998,17.0,-25.370001000000002,1b
2019-07-15_144919:920,-0.367584,0.028961,-0.320801,0.018797,0.0005679999999999999,-0.015141,-18.559998999999998,17.0,-25.370001000000002,1b
2019-07-15_144919:940,-0.363007,0.032013,-0.321808,0.020537,0.001759,-0.017064,-18.559998999999998,17.0,-25.370001000000002,1b
2019-07-15_144919:960,-0.360962,0.034058,-0.32132,0.020995,0.0016359999999999999,-0.018437000000000002,-19.0,17.25,-25.370001000000002,1b
2019-07-15_144919:980,-0.36706500000000003,0.037598,-0.320801,0.022002,0.001362,-0.019383,-19.0,17.25,-25.370001000000002,1b
2019-07-15_144920:000,-0.371643,0.036591000000000005,-0.323853,0.022337,0.001911,-0.01917,-19.0,17.68,-24.559998999999998,1b
2019-07-15_144920:020,-0.375214,0.034546,-0.332489,0.022795,0.003406,-0.020299,-19.0,17.68,-24.559998999999998,1b
2019-07-15_144920:040,-0.372162,0.034546,-0.334534,0.023038999999999997,0.005085,-0.020756999999999998,-19.0,17.68,-24.559998999999998,1b
2019-07-15_144920:060,-0.368591,0.03302,-0.334534,0.023863,0.0060609999999999995,-0.021245,-19.68,18.370001000000002,-24.059998999999998,1b
2019-07-15_144920:080,-0.372162,0.032013,-0.33197,0.02426,0.006458,-0.021764,-19.68,18.370001000000002,-24.059998999999998,1b
2019-07-15_144920:100,-0.37674,0.031494,-0.330963,0.025633,0.008808,-0.023503,-20.75,18.370001000000002,-23.25,1b
2019-07-15_144920:120,-0.385376,0.028961,-0.329437,0.02603,0.010578,-0.024480000000000002,-20.75,18.370001000000002,-23.25,1b
2019-07-15_144920:140,-0.397583,0.029480000000000003,-0.336548,0.027892,0.011401999999999999,-0.027806,-20.75,18.370001000000002,-23.25,1b
2019-07-15_144920:160,-0.405212,0.024902,-0.34368899999999997,0.028562999999999998,0.010517,-0.029606999999999998,-21.559998999999998,18.059998999999998,-22.870001000000002,1b
2019-07-15_144920:180,-0.402649,0.025908999999999998,-0.34368899999999997,0.031401,0.007404000000000001,-0.032109,-21.559998999999998,18.059998999999998,-22.870001000000002,1b
2019-07-15_144920:200,-0.429108,0.026427999999999997,-0.359955,0.032073000000000004,0.0060609999999999995,-0.032323000000000005,-23.370001000000002,17.68,-23.68,1b
2019-07-15_144920:220,-0.446899,0.021851,-0.379791,0.033141000000000004,0.0010869999999999999,-0.034642,-23.370001000000002,17.68,-23.68,1b
2019-07-15_144920:240,-0.437225,0.025421,-0.377228,0.032927,0.00038500000000000003,-0.034429,-23.370001000000002,17.68,-23.68,1b
2019-07-15_144920:260,-0.429108,0.025908999999999998,-0.378265,0.032561,0.0011480000000000001,-0.032994,-23.68,16.559998999999998,-21.68,1b
2019-07-15_144920:280,-0.385376,0.020844,-0.368591,0.029508999999999997,0.0027660000000000002,-0.028203,-23.68,16.559998999999998,-21.68,1b
2019-07-15_144920:300,-0.372162,0.011687999999999999,-0.367584,0.028562999999999998,0.00243,-0.027013,-24.559998999999998,17.0,-21.68,1b
2019-07-15_144920:320,-0.361969,0.0035399999999999997,-0.35791,0.02545,0.002888,-0.025945,-24.559998999999998,17.0,-21.68,1b
2019-07-15_144920:340,-0.349274,-0.0025329999999999997,-0.325897,0.023711000000000003,0.006794,-0.025823000000000002,-24.559998999999998,17.0,-21.68,1b
2019-07-15_144920:360,-0.338074,-0.006592,-0.31012,0.022185,0.009113,-0.026799,-24.559998999999998,16.559998999999998,-20.5,1b
2019-07-15_144920:380,-0.324371,-0.015228,-0.30249000000000004,0.021788,0.006611,-0.029149,-24.559998999999998,16.559998999999998,-20.5,1b
2019-07-15_144920:400,-0.326385,-0.016266,-0.306061,0.021666,0.004291,-0.029485,-25.0,16.559998999999998,-20.0,1b
2019-07-15_144920:420,-0.320282,-0.015747,-0.319275,0.021849,-0.002972,-0.02628,-25.0,16.559998999999998,-20.0,1b
2019-07-15_144920:440,-0.340118,-0.013213999999999998,-0.318268,0.021941,-0.006847,-0.024816,-25.0,16.559998999999998,-20.0,1b
2019-07-15_144920:460,-0.347748,-0.012695,-0.336548,0.021727,-0.007640999999999999,-0.024877,-26.370001000000002,15.75,-20.75,1b
2019-07-15_144920:480,-0.353333,-0.012177,-0.34875500000000004,0.021208,-0.011028,-0.023839,-26.370001000000002,15.75,-20.75,1b
2019-07-15_144920:500,-0.34368899999999997,-0.012177,-0.344696,0.021269,-0.011334,-0.023625,-26.370001000000002,15.75,-20.75,1b
2019-07-15_144920:520,-0.35943600000000003,-0.010651,-0.342163,0.021056000000000002,-0.009686,-0.024419,-26.5,16.18,-21.18,1b
2019-07-15_144920:540,-0.36248800000000003,-0.008636,-0.337067,0.021208,-0.005961999999999999,-0.024419,-26.5,16.18,-21.18,1b
2019-07-15_144920:560,-0.35943600000000003,-0.007599,-0.326904,0.021513,-0.004253,-0.023686000000000002,-26.5,15.18,-20.0,1b
2019-07-15_144920:580,-0.354858,-0.004059,-0.323334,0.021513,-0.002911,-0.020756999999999998,-26.5,15.18,-20.0,1b
2019-07-15_144920:600,-0.349274,-0.004059,-0.319794,0.021544,-0.003124,-0.019658000000000002,-27.559998999999998,15.18,-18.370001000000002,1b
2019-07-15_144920:620,-0.350281,-0.000488,-0.317749,0.019591,-0.005444,-0.017064,-27.559998999999998,15.18,-18.370001000000002,1b
2019-07-15_144920:640,-0.366058,-0.0025329999999999997,-0.320801,0.017759999999999998,-0.006115,-0.015874,-27.559998999999998,15.18,-18.370001000000002,1b
2019-07-15_144920:660,-0.370636,-0.004547,-0.320282,0.016538999999999998,-0.005718,-0.015782,-26.870001000000002,14.75,-19.18,1b
2019-07-15_144920:680,-0.36248800000000003,-0.006592,-0.314178,0.013884,-0.002514,-0.01566,-26.870001000000002,14.75,-19.18,1b
2019-07-15_144920:700,-0.354858,-0.004059,-0.314178,0.012816,-0.001782,-0.01566,-26.870001000000002,14.75,-19.18,1b
2019-07-15_144920:720,-0.353851,-0.002014,-0.315704,0.010251999999999999,-0.001995,-0.014072999999999999,-28.68,14.0,-19.059998999999998,1b
2019-07-15_144920:740,-0.358917,0.0,-0.315216,0.008574,-0.0020559999999999997,-0.011479000000000001,-28.68,14.0,-19.059998999999998,1b
2019-07-15_144920:760,-0.359955,0.001007,-0.314697,0.007658,-0.001324,-0.010228000000000001,-28.370001000000002,14.37,-21.059998999999998,1b
2019-07-15_144920:780,-0.364014,0.001007,-0.31369,0.005736,0.001301,-0.00797,-28.370001000000002,14.37,-21.059998999999998,1b
2019-07-15_144920:800,-0.375214,0.000488,-0.316223,0.0040880000000000005,0.003956,-0.007481999999999999,-28.370001000000002,14.37,-21.059998999999998,1b
2019-07-15_144920:820,-0.385376,0.0030210000000000002,-0.31723,0.002348,0.00536,-0.007115000000000001,-28.75,13.25,-20.25,1b
2019-07-15_144920:840,-0.397583,0.0035399999999999997,-0.317749,0.0008230000000000001,0.005482,-0.0057729999999999995,-28.75,13.25,-20.25,1b
2019-07-15_144920:860,-0.395538,0.001495,-0.311127,-0.000368,0.006336,-0.004033,-28.75,13.68,-19.870001000000002,1b
2019-07-15_144920:880,-0.381317,0.002014,-0.310638,-0.001222,0.006336,-0.003118,-28.75,13.68,-19.870001000000002,1b
2019-07-15_144920:900,-0.364014,0.009644,-0.325897,-0.001771,0.00536,-0.001805,-28.75,13.68,-19.870001000000002,1b
2019-07-15_144920:920,-0.383331,0.010162000000000001,-0.338593,-0.003145,0.0036200000000000004,-5e-06,-29.18,13.25,-19.059998999999998,1b
2019-07-15_144920:940,-0.40570100000000003,0.014740000000000001,-0.348267,-0.004793,0.0018809999999999999,-0.000676,-29.18,13.25,-19.059998999999998,1b
2019-07-15_144920:960,-0.41485600000000006,0.019806,-0.34368899999999997,-0.006441,0.0030399999999999997,-0.001927,-20.0,14.0,-19.059998999999998,1b
2019-07-15_144920:980,-0.433655,0.020844,-0.34265100000000004,-0.007112,0.007618000000000001,-0.003575,-20.0,14.0,-19.059998999999998,1b
2019-07-15_144921:000,-0.44281000000000004,0.026427999999999997,-0.352325,-0.006654,0.010578,-0.0057729999999999995,-20.0,14.0,-19.059998999999998,1b
2019-07-15_144921:020,-0.47433500000000006,0.035583,-0.375702,-0.006104999999999999,0.008076,-0.004918,-30.0,13.18,-19.75,1b
2019-07-15_144921:040,-0.458588,0.040161,-0.359955,-0.0057079999999999995,0.007618000000000001,-0.000188,-30.0,13.18,-19.75,1b
2019-07-15_144921:060,-0.434174,0.037598,-0.353333,-0.0058,0.009327,0.004085,-29.559998999999998,13.56,-20.18,1b
2019-07-15_144921:080,-0.404694,0.035583,-0.35131799999999996,-0.004793,0.010517,0.003169,-29.559998999999998,13.56,-20.18,1b
2019-07-15_144921:100,-0.374176,0.038116000000000004,-0.354858,-0.0038770000000000002,0.007343000000000001,0.001277,-29.559998999999998,13.56,-20.18,1b
2019-07-15_144921:120,-0.3396,0.048279,-0.34875500000000004,-0.003542,0.0031620000000000003,0.004024,-30.68,12.06,-19.0,1b
2019-07-15_144921:140,-0.34265100000000004,0.045745999999999995,-0.352844,-0.003389,-0.000958,0.007075,-30.68,12.06,-19.0,1b
2019-07-15_144921:160,-0.34317,0.047791,-0.338593,-0.003023,-0.001598,0.005336,-30.75,12.5,-19.5,1b
2019-07-15_144921:180,-0.35638400000000003,0.049316000000000006,-0.32995599999999997,-0.001314,0.0016359999999999999,0.002254,-30.75,12.5,-19.5,1b
2019-07-15_144921:200,-0.348267,0.055908000000000006,-0.318756,0.001036,0.006397,0.000484,-30.75,12.5,-19.5,1b
2019-07-15_144921:220,-0.325897,0.05996699999999999,-0.315216,0.002806,0.007404000000000001,5.6000000000000006e-05,-31.5,12.5,-20.68,1b
2019-07-15_144921:240,-0.313171,0.061005,-0.314178,0.004546,0.005695,0.00027,-31.5,12.5,-20.68,1b
2019-07-15_144921:260,-0.326385,0.061005,-0.314697,0.00601,0.001423,-0.000127,-30.68,12.75,-20.68,1b
2019-07-15_144921:280,-0.334015,0.05996699999999999,-0.319794,0.007781000000000001,-0.002605,-0.00266,-30.68,12.75,-20.68,1b
2019-07-15_144921:300,-0.330963,0.063538,-0.326385,0.009123000000000001,-0.006786,-0.00504,-30.68,12.75,-20.68,1b
2019-07-15_144921:320,-0.337067,0.063538,-0.331482,0.010251999999999999,-0.009625,-0.005559000000000001,-31.370001000000002,11.68,-19.870001000000002,1b
2019-07-15_144921:340,-0.3396,0.06405599999999999,-0.336548,0.010527,-0.011425,-0.005376,-31.370001000000002,11.68,-19.870001000000002,1b
2019-07-15_144921:360,-0.347748,0.065063,-0.3396,0.009856,-0.011729999999999999,-0.004521,-31.0,12.75,-21.5,1b
2019-07-15_144921:380,-0.355896,0.061005,-0.339111,0.009123000000000001,-0.011729999999999999,-0.003453,-31.0,12.75,-21.5,1b
2019-07-15_144921:400,-0.365021,0.055389,-0.334015,0.008666,-0.010754000000000001,-0.004582,-31.0,12.75,-21.5,1b
2019-07-15_144921:420,-0.364014,0.05438200000000001,-0.330963,0.009123000000000001,-0.008709,-0.006047,-31.370001000000002,12.06,-20.68,1b
2019-07-15_144921:440,-0.350281,0.05285599999999999,-0.325378,0.009856,-0.005901,-0.007421,-31.370001000000002,12.06,-20.68,1b
2019-07-15_144921:460,-0.344696,0.053375,-0.325897,0.010985,-0.004437,-0.00797,-31.0,12.5,-21.0,1b
2019-07-15_144921:480,-0.344177,0.051330999999999995,-0.327911,0.012297,-0.004772,-0.009496,-31.0,12.5,-21.0,1b
2019-07-15_144921:500,-0.356903,0.051330999999999995,-0.328949,0.013578999999999999,-0.005779,-0.011662,-31.0,12.5,-21.0,1b
2019-07-15_144921:520,-0.35791,0.051330999999999995,-0.326385,0.015165999999999999,-0.006023,-0.013799,-32.060001,12.75,-21.370001000000002,1b
2019-07-15_144921:540,-0.368591,0.050842,-0.325378,0.017546,-0.004894,-0.016118,-32.060001,12.75,-21.370001000000002,1b
2019-07-15_144921:560,-0.368073,0.051849,-0.325378,0.019743,-0.0030629999999999998,-0.017919,-32.060001,12.5,-21.370001000000002,1b
2019-07-15_144921:580,-0.358429,0.053375,-0.325378,0.022459,-0.001385,-0.019261,-32.060001,12.5,-21.370001000000002,1b
2019-07-15_144921:600,-0.35791,0.054901,-0.327423,0.024718,-0.000439,-0.020391,-32.060001,12.5,-21.370001000000002,1b
2019-07-15_144921:620,-0.354858,0.057434000000000006,-0.326385,0.027219999999999998,0.0005070000000000001,-0.021184,-32.869999,11.68,-20.559998999999998,1b
2019-07-15_144921:640,-0.360962,0.05996699999999999,-0.33197,0.029020999999999998,0.000904,-0.021825,-32.869999,11.68,-20.559998999999998,1b
2019-07-15_144921:660,-0.35739099999999996,0.063019,-0.333496,0.030302,0.001026,-0.022313,-32.5,11.68,-19.75,1b
2019-07-15_144921:680,-0.367584,0.065582,-0.334534,0.031096,0.0020329999999999997,-0.022222,-32.5,11.68,-19.75,1b
2019-07-15_144921:700,-0.378754,0.066589,-0.33758499999999997,0.031004000000000004,0.0032229999999999997,-0.022222,-32.5,11.68,-19.75,1b
2019-07-15_144921:720,-0.377228,0.065582,-0.3396,0.030547,0.005146,-0.022099,-33.18,11.68,-21.0,1b
2019-07-15_144921:740,-0.37316900000000003,0.063019,-0.338074,0.029967,0.007404000000000001,-0.02329,-33.18,11.68,-21.0,1b
2019-07-15_144921:760,-0.36654699999999996,0.063019,-0.34265100000000004,0.029875,0.009266,-0.025762,-33.560001,11.0,-21.370001000000002,1b
2019-07-15_144921:780,-0.364532,0.063538,-0.344696,0.029752999999999998,0.010914,-0.02683,-33.560001,11.0,-21.370001000000002,1b
2019-07-15_144921:800,-0.370636,0.065582,-0.34570300000000004,0.02957,0.012592,-0.02683,-33.560001,11.0,-21.370001000000002,1b
2019-07-15_144921:820,-0.415375,0.060486,-0.35739099999999996,0.029356,0.012592,-0.027989,-33.869999,11.0,-19.75,1b
2019-07-15_144921:840,-0.427063,0.061005,-0.35436999999999996,0.029875,0.012104,-0.029668,-33.869999,11.0,-19.75,1b
2019-07-15_144921:860,-0.445374,0.063538,-0.356903,0.030302,0.012836000000000002,-0.029149,-34.68,10.56,-19.0,1b
2019-07-15_144921:880,-0.465179,0.056427,-0.37011700000000003,0.02957,0.011249,-0.027867000000000003,-34.68,10.56,-19.0,1b
2019-07-15_144921:900,-0.445374,0.054901,-0.35638400000000003,0.028562999999999998,0.010639000000000001,-0.027623,-34.68,10.56,-19.0,1b
2019-07-15_144921:920,-0.425537,0.050323,-0.354858,0.026762,0.010395,-0.025334,-35.5,9.56,-19.370001000000002,1b
2019-07-15_144921:940,-0.36349499999999996,0.043213,-0.341644,0.023863,0.010456,-0.021092,-35.5,9.56,-19.370001000000002,1b
2019-07-15_144921:960,-0.350281,0.026427999999999997,-0.347748,0.020018,0.00774,-0.016332,-35.5,10.06,-18.559998999999998,1b
2019-07-15_144921:980,-0.344177,0.01828,-0.338074,0.017333,0.0032229999999999997,-0.013677000000000002,-35.5,10.06,-18.559998999999998,1b
2019-07-15_144922:000,-0.352844,0.008118,-0.32132,0.014769,0.001911,-0.013219,-35.5,10.06,-18.559998999999998,1b
2019-07-15_144922:020,-0.355377,0.002014,-0.309113,0.014098,0.003956,-0.013524000000000001,-36.18,9.75,-17.75,1b
2019-07-15_144922:040,-0.353333,-0.004547,-0.30654899999999996,0.014219999999999998,0.0053289999999999995,-0.015080000000000001,-36.18,9.75,-17.75,1b
2019-07-15_144922:060,-0.352844,-0.007111,-0.310638,0.014219999999999998,0.003742,-0.016393,-37.560001,8.68,-18.559998999999998,1b
2019-07-15_144922:080,-0.344177,-0.006592,-0.315216,0.014281,0.001759,-0.014653,-37.560001,8.68,-18.559998999999998,1b
2019-07-15_144922:100,-0.342163,-0.007111,-0.322845,0.014555000000000002,-0.002117,-0.012792,-37.560001,8.68,-18.559998999999998,1b
2019-07-15_144922:120,-0.353851,-0.007111,-0.328949,0.014311,-0.006695,-0.012425,-38.369999,8.68,-18.18,1b
2019-07-15_144922:140,-0.34368899999999997,-0.002014,-0.330963,0.014433000000000001,-0.01054,-0.012609,-38.369999,8.68,-18.18,1b
2019-07-15_144922:160,-0.34570300000000004,-0.000488,-0.334015,0.014372,-0.01347,-0.012425,-37.18,7.56,-17.0,1b
2019-07-15_144922:180,-0.353333,0.0035399999999999997,-0.326385,0.014372,-0.013531,-0.013127000000000002,-37.18,7.56,-17.0,1b
2019-07-15_144922:200,-0.361969,0.006592,-0.327423,0.013548,-0.01115,-0.013616,-37.18,7.56,-17.0,1b
2019-07-15_144922:220,-0.35791,0.007111,-0.322845,0.013548,-0.007548999999999999,-0.012822,-37.560001,7.25,-18.18,1b
2019-07-15_144922:240,-0.354858,0.007111,-0.318756,0.013365,-0.005444,-0.011418000000000001,-37.560001,7.25,-18.18,1b
2019-07-15_144922:260,-0.355377,0.004059,-0.31723,0.013152,-0.005229999999999999,-0.009281999999999999,-37.560001,7.25,-18.059998999999998,1b
2019-07-15_144922:280,-0.363007,0.0035399999999999997,-0.313171,0.013030000000000002,-0.005718,-0.008214,-37.560001,7.25,-18.059998999999998,1b
2019-07-15_144922:300,-0.36554000000000003,0.004059,-0.309113,0.012297,-0.0062369999999999995,-0.007024,-37.560001,7.25,-18.059998999999998,1b
2019-07-15_144922:320,-0.36706500000000003,0.004059,-0.30654899999999996,0.010985,-0.005657,-0.005315,-38.369999,7.25,-18.5,1b
2019-07-15_144922:340,-0.36706500000000003,0.004547,-0.31369,0.008727,-0.005961999999999999,-0.003728,-38.369999,7.25,-18.5,1b
2019-07-15_144922:360,-0.36248800000000003,0.0030210000000000002,-0.321808,0.0064069999999999995,-0.007183,-0.001927,-38.68,7.56,-18.870001000000002,1b
2019-07-15_144922:380,-0.374176,-0.0030210000000000002,-0.326385,0.004057,-0.008495,-0.0011949999999999999,-38.68,7.56,-18.870001000000002,1b
2019-07-15_144922:400,-0.375702,-0.004059,-0.327423,0.002287,-0.008282,-0.00147,-38.68,7.56,-18.870001000000002,1b
2019-07-15_144922:420,-0.374695,-0.004547,-0.32486,0.0007,-0.005657,-0.000798,-38.0,6.87,-16.870001000000002,1b
2019-07-15_144922:440,-0.37112399999999995,-0.006072999999999999,-0.321808,-0.0005200000000000001,-0.0023309999999999997,-0.00033999999999999997,-38.0,6.87,-16.870001000000002,1b
2019-07-15_144922:460,-0.36349499999999996,-0.007111,-0.319275,-0.001497,0.000904,-0.000463,-38.68,7.25,-19.25,1b
2019-07-15_144922:480,-0.361969,-0.0055850000000000006,-0.31723,-0.001771,0.002949,-0.000401,-38.68,7.25,-19.25,1b
2019-07-15_144922:500,-0.37112399999999995,-0.0035399999999999997,-0.317749,-0.002168,0.004017,-5e-06,-38.68,7.25,-19.25,1b
2019-07-15_144922:520,-0.389435,0.0,-0.317749,-0.002382,0.004291,-0.00033999999999999997,-39.0,6.5,-19.25,1b
2019-07-15_144922:540,-0.391968,0.0035399999999999997,-0.314178,-0.002779,0.004353,-0.000859,-39.0,6.5,-19.25,1b
2019-07-15_144922:560,-0.384338,0.009644,-0.320282,-0.003389,0.004139,-0.000646,-39.369999,6.87,-19.25,1b
2019-07-15_144922:580,-0.388428,0.012695,-0.324371,-0.004579,0.002705,0.000331,-39.369999,6.87,-19.25,1b
2019-07-15_144922:600,-0.392487,0.01828,-0.329437,-0.005922,0.0020329999999999997,0.001918,-39.369999,6.87,-19.25,1b
2019-07-15_144922:620,-0.406219,0.021332,-0.3396,-0.007631000000000001,0.001301,0.002131,-39.369999,6.5,-17.68,1b
2019-07-15_144922:640,-0.42758199999999996,0.023895,-0.349792,-0.009096,0.0005679999999999999,0.001277,-39.369999,6.5,-17.68,1b
2019-07-15_144922:660,-0.42401099999999997,0.028442000000000002,-0.349274,-0.011293000000000001,0.0030399999999999997,0.001399,-38.68,7.37,-18.870001000000002,1b
2019-07-15_144922:680,-0.44638100000000003,0.031006,-0.35791,-0.011568,0.004688,0.001674,-38.68,7.37,-18.870001000000002,1b
2019-07-15_144922:700,-0.470276,0.027435,-0.375214,-0.011415,0.003101,0.0010019999999999999,-38.68,7.37,-18.870001000000002,1b
2019-07-15_144922:720,-0.44891400000000004,0.031006,-0.35436999999999996,-0.011568,0.0032229999999999997,0.001674,-39.75,6.5,-17.25,1b
2019-07-15_144922:740,-0.392487,0.027954000000000003,-0.338593,-0.009309,0.00774,0.007411,-39.75,6.5,-17.25,1b
2019-07-15_144922:760,-0.35638400000000003,0.031006,-0.33300799999999997,-0.007631000000000001,0.009845999999999999,0.006068,-40.18,6.56,-18.870001000000002,1b
2019-07-15_144922:780,-0.334015,0.044219999999999995,-0.346222,-0.006258,0.008015000000000001,0.004756,-40.18,6.56,-18.870001000000002,1b
2019-07-15_144922:800,-0.332489,0.055389,-0.344177,-0.005464,0.005817,0.009334,-40.18,6.56,-18.870001000000002,1b
2019-07-15_144922:820,-0.344177,0.058441,-0.34674099999999997,-0.006379999999999999,0.004688,0.014094,-32.060001,7.0,-17.68,1b
2019-07-15_144922:840,-0.365021,0.05996699999999999,-0.339111,-0.007234,0.004229999999999999,0.013911000000000001,-32.060001,7.0,-17.68,1b
2019-07-15_144922:860,-0.36911,0.056915,-0.334015,-0.007387,0.005756,0.010921,-40.18,6.87,-19.25,1b
2019-07-15_144922:880,-0.355377,0.060486,-0.322327,-0.0067150000000000005,0.006,0.007289,-40.18,6.87,-19.25,1b
2019-07-15_144922:900,-0.348267,0.05996699999999999,-0.32843,-0.005769,0.0036810000000000002,0.005549,-40.18,6.87,-19.25,1b
2019-07-15_144922:920,-0.33758499999999997,0.058441,-0.332489,-0.003999,0.000172,0.005031,-39.75,6.87,-18.5,1b
2019-07-15_144922:940,-0.33300799999999997,0.058960000000000005,-0.33300799999999997,-0.0019850000000000002,-0.003918,0.004878,-39.75,6.87,-18.5,1b
2019-07-15_144922:960,-0.34368899999999997,0.054901,-0.341125,-0.000459,-0.008892,0.004024,-40.18,6.87,-18.059998999999998,1b
2019-07-15_144922:980,-0.33758499999999997,0.056427,-0.334534,0.001219,-0.010570999999999999,0.004298,-40.18,6.87,-18.059998999999998,1b
2019-07-15_144923:000,-0.33197,0.056427,-0.335541,0.001952,-0.010967,0.005672,-40.18,6.87,-18.059998999999998,1b
2019-07-15_144923:020,-0.3396,0.055908000000000006,-0.335022,0.002135,-0.009807999999999999,0.006404000000000001,-40.869999,8.0,-18.5,1b
2019-07-15_144923:040,-0.347229,0.055908000000000006,-0.335022,0.00183,-0.008312,0.006404000000000001,-40.869999,8.0,-18.5,1b
2019-07-15_144923:060,-0.349792,0.05438200000000001,-0.33197,0.0015550000000000002,-0.006847,0.0058850000000000005,-40.18,6.87,-19.25,1b
2019-07-15_144923:080,-0.354858,0.05285599999999999,-0.327423,0.001097,-0.0060539999999999995,0.004298,-40.18,6.87,-19.25,1b
2019-07-15_144923:100,-0.34875500000000004,0.050842,-0.324371,0.001006,-0.005657,0.002742,-40.18,6.87,-19.25,1b
2019-07-15_144923:120,-0.349274,0.048798,-0.324371,0.001219,-0.006512,0.001979,-41.25,8.0,-20.059998999999998,1b
2019-07-15_144923:140,-0.350281,0.048798,-0.321808,0.0014939999999999999,-0.007427,0.000728,-41.25,8.0,-20.059998999999998,1b
2019-07-15_144923:160,-0.358429,0.044739,-0.322845,0.002196,-0.007548999999999999,-0.0014089999999999999,-40.18,8.25,-19.68,1b
2019-07-15_144923:180,-0.354858,0.045226999999999996,-0.322327,0.003752,-0.006908,-0.004033,-40.18,8.25,-19.68,1b
2019-07-15_144923:200,-0.350281,0.048279,-0.322845,0.005919,-0.005444,-0.005712,-40.18,8.25,-19.68,1b
2019-07-15_144923:220,-0.34368899999999997,0.049316000000000006,-0.325378,0.007932999999999999,-0.004894,-0.007573000000000001,-40.869999,7.56,-19.68,1b
2019-07-15_144923:240,-0.34063699999999997,0.056915,-0.330475,0.010375,-0.004589,-0.00916,-40.869999,7.56,-19.68,1b
2019-07-15_144923:260,-0.352844,0.061005,-0.342163,0.012175,-0.004253,-0.009770000000000001,-40.869999,8.0,-20.5,1b
2019-07-15_144923:280,-0.358917,0.06253099999999999,-0.345215,0.013365,-0.003643,-0.010564,-40.869999,8.0,-20.5,1b
2019-07-15_144923:300,-0.36554000000000003,0.063019,-0.344696,0.014159,-0.001782,-0.010564,-40.869999,8.0,-20.5,1b
2019-07-15_144923:320,-0.36248800000000003,0.06149299999999999,-0.34317,0.015105,0.000843,-0.011144,-40.18,7.25,-19.68,1b
2019-07-15_144923:340,-0.354858,0.061005,-0.347229,0.015746,0.0021550000000000002,-0.012609,-40.18,7.25,-19.68,1b
2019-07-15_144923:360,-0.363007,0.060486,-0.353333,0.016356,0.001575,-0.013188,-40.869999,6.06,-20.059998999999998,1b
2019-07-15_144923:380,-0.378754,0.057953,-0.354858,0.017027,0.001301,-0.013219,-40.869999,6.06,-20.059998999999998,1b
2019-07-15_144923:400,-0.38739,0.056915,-0.354858,0.017363,0.0026739999999999997,-0.014012,-40.869999,6.06,-20.059998999999998,1b
2019-07-15_144923:420,-0.402649,0.055389,-0.355377,0.018004,0.005939,-0.015263999999999998,-42.369999,6.87,-19.25,1b
2019-07-15_144923:440,-0.41995200000000005,0.05438200000000001,-0.35943600000000003,0.018797,0.008472,-0.018132,-42.369999,6.87,-19.25,1b
2019-07-15_144923:460,-0.41586300000000004,0.051849,-0.355896,0.019072,0.010242,-0.020848,-42.0,6.87,-20.870001000000002,1b
2019-07-15_144923:480,-0.402161,0.051849,-0.346222,0.020018,0.012897,-0.021184,-42.0,6.87,-20.870001000000002,1b
2019-07-15_144923:500,-0.40823400000000004,0.049805,-0.34875500000000004,0.020201,0.013630000000000001,-0.020574000000000002,-42.0,6.87,-20.870001000000002,1b
2019-07-15_144923:520,-0.425018,0.041687,-0.353333,0.020079,0.011005,-0.021886000000000003,-41.560001,6.06,-20.059998999999998,1b
2019-07-15_144923:540,-0.418915,0.041687,-0.3396,0.02014,0.010242,-0.022831999999999998,-41.560001,6.06,-20.059998999999998,1b
2019-07-15_144923:560,-0.402649,0.038635,-0.33758499999999997,0.019804,0.009724,-0.022313,-43.5,5.75,-19.68,1b
2019-07-15_144923:580,-0.372162,0.037598,-0.34265100000000004,0.01895,0.007526000000000001,-0.021764,-43.5,5.75,-19.68,1b
2019-07-15_144923:600,-0.36654699999999996,0.031494,-0.346222,0.017271,0.00301,-0.019505,-43.5,5.75,-19.68,1b
2019-07-15_144923:620,-0.36044299999999996,0.026427999999999997,-0.348267,0.016081,-0.0005610000000000001,-0.017522,-43.060001,4.25,-17.68,1b
2019-07-15_144923:640,-0.35436999999999996,0.020844,-0.342163,0.013975999999999999,-0.0024530000000000003,-0.016454,-43.060001,4.25,-17.68,1b
2019-07-15_144923:660,-0.34368899999999997,0.011169,-0.330963,0.01245,-0.001324,-0.015538,-43.060001,4.0,-18.870001000000002,1b
2019-07-15_144923:680,-0.335541,0.007599,-0.321808,0.011382,0.000446,-0.015996,-43.060001,4.0,-18.870001000000002,1b
2019-07-15_144923:700,-0.314697,0.001007,-0.31723,0.011321,0.00011100000000000001,-0.016973,-43.060001,4.0,-18.870001000000002,1b
2019-07-15_144923:720,-0.29943800000000004,-0.002014,-0.316223,0.011961,-0.0035210000000000003,-0.01566,-43.869999,3.18,-17.68,1b
2019-07-15_144923:740,-0.310638,-0.0025329999999999997,-0.320282,0.012358,-0.008953000000000001,-0.012609,-43.869999,3.18,-17.68,1b
2019-07-15_144923:760,-0.32486,-0.0030210000000000002,-0.328949,0.012175,-0.014202000000000001,-0.010015000000000001,-44.5,1.75,-19.25,1b
2019-07-15_144923:780,-0.33605999999999997,-0.0030210000000000002,-0.340118,0.011717,-0.019329,-0.008641,-44.5,1.75,-19.25,1b
2019-07-15_144923:800,-0.34063699999999997,-0.0025329999999999997,-0.35131799999999996,0.011106999999999999,-0.022167,-0.008306000000000001,-44.5,1.75,-19.25,1b
2019-07-15_144923:820,-0.346222,-0.002014,-0.358429,0.010375,-0.022961000000000002,-0.00797,-44.869999,2.06,-19.25,1b
2019-07-15_144923:840,-0.35791,-0.0035399999999999997,-0.360962,0.009978,-0.020702,-0.007481999999999999,-44.869999,2.06,-19.25,1b
2019-07-15_144923:860,-0.355377,-0.0025329999999999997,-0.35436999999999996,0.009581000000000001,-0.016399,-0.007176,-44.5,2.18,-20.370001000000002,1b
2019-07-15_144923:880,-0.35131799999999996,-0.004059,-0.350281,0.009306,-0.012005,-0.007115000000000001,-44.5,2.18,-20.370001000000002,1b
2019-07-15_144923:900,-0.337067,-0.000488,-0.344696,0.00952,-0.009228,-0.007481999999999999,-44.5,2.18,-20.370001000000002,1b
2019-07-15_144923:920,-0.340118,0.0035399999999999997,-0.347229,0.008971,-0.008709,-0.006444,-43.5,2.18,-20.0,1b
2019-07-15_144923:940,-0.355377,0.009125,-0.34368899999999997,0.007932999999999999,-0.008556,-0.004521,-43.5,2.18,-20.0,1b
2019-07-15_144923:960,-0.358429,0.010651,-0.341644,0.006346,-0.005718,-0.002263,-44.18,2.56,-20.75,1b
2019-07-15_144923:980,-0.34674099999999997,0.010162000000000001,-0.34317,0.004057,-0.003796,-0.000585,-44.18,2.56,-20.75,1b
2019-07-15_144924:000,-0.34317,0.008636,-0.34265100000000004,0.001433,-0.004131,0.001338,-44.18,2.56,-20.75,1b
2019-07-15_144924:020,-0.35180700000000004,0.004547,-0.341644,-0.0017100000000000001,-0.005261,0.0034130000000000002,-44.5,1.06,-20.75,1b
2019-07-15_144924:040,-0.360962,-0.000488,-0.342163,-0.004274,-0.005383,0.004359,-44.5,1.06,-20.75,1b
2019-07-15_144924:060,-0.367584,-0.004059,-0.34368899999999997,-0.006379999999999999,-0.0037649999999999997,0.005336,-44.869999,1.06,-20.75,1b
2019-07-15_144924:080,-0.364014,-0.005065999999999999,-0.3396,-0.007448000000000001,-0.0014759999999999999,0.005763,-44.869999,1.06,-20.75,1b
2019-07-15_144924:100,-0.36349499999999996,-0.005065999999999999,-0.337067,-0.008362999999999999,0.000172,0.0061600000000000005,-44.869999,1.06,-20.75,1b
2019-07-15_144924:120,-0.361481,-0.0055850000000000006,-0.33197,-0.009187,0.001575,0.0065260000000000006,-43.869999,1.06,-20.0,1b
2019-07-15_144924:140,-0.361969,-0.004059,-0.328949,-0.009492,0.00182,0.0065569999999999995,-43.869999,1.06,-20.0,1b
2019-07-15_144924:160,-0.37011700000000003,0.0,-0.330963,-0.009645,0.0016359999999999999,0.005427,-44.5,0.68,-21.559998999999998,1b
2019-07-15_144924:180,-0.372162,0.0055850000000000006,-0.32995599999999997,-0.009889,0.000904,0.004817,-44.5,0.68,-21.559998999999998,1b
2019-07-15_144924:200,-0.37011700000000003,0.007599,-0.32843,-0.010103000000000001,0.0005679999999999999,0.005336,-44.5,0.68,-21.559998999999998,1b
2019-07-15_144924:220,-0.36706500000000003,0.007111,-0.328949,-0.010561,5e-05,0.006801000000000001,-44.5,1.87,-20.75,1b
2019-07-15_144924:240,-0.359955,0.009125,-0.331482,-0.010835,-0.0008349999999999999,0.007014,-44.5,1.87,-20.75,1b
2019-07-15_144924:260,-0.35739099999999996,0.010162000000000001,-0.335541,-0.010896,-0.00227,0.007686,-44.18,0.68,-20.75,1b
2019-07-15_144924:280,-0.36248800000000003,0.012695,-0.33605999999999997,-0.011812000000000001,-0.002972,0.008327,-44.18,0.68,-20.75,1b
2019-07-15_144924:300,-0.370636,0.014221000000000001,-0.338593,-0.012636,-0.001598,0.00854,-44.18,0.68,-20.75,1b
2019-07-15_144924:320,-0.38739,0.016266,-0.34875500000000004,-0.013673,-0.000164,0.008937,-44.869999,1.5,-20.75,1b
2019-07-15_144924:340,-0.389435,0.015228,-0.350281,-0.014100999999999999,0.001026,0.008388,-44.869999,1.5,-20.75,1b
2019-07-15_144924:360,-0.391479,0.014221000000000001,-0.355896,-0.01468,0.003437,0.008388,-51.18,1.5,-20.75,1b
2019-07-15_144924:380,-0.38385,0.020844,-0.364014,-0.014894,0.005817,0.010341,-51.18,1.5,-20.75,1b
2019-07-15_144924:400,-0.425018,0.024902,-0.389435,-0.01523,0.00481,0.010707,-51.18,1.5,-20.75,1b
2019-07-15_144924:420,-0.429596,0.025908999999999998,-0.390442,-0.016145,0.004475,0.011256,-44.5,1.06,-20.75,1b
2019-07-15_144924:440,-0.41232299999999994,0.023895,-0.378265,-0.016206,0.006214,0.013057,-44.5,1.06,-20.75,1b
2019-07-15_144924:460,-0.396057,0.022858,-0.373688,-0.015931999999999998,0.00951,0.012965,-44.5,1.56,-21.559998999999998,1b
2019-07-15_144924:480,-0.335541,0.023375999999999997,-0.360962,-0.014558000000000001,0.011921,0.011714,-44.5,1.56,-21.559998999999998,1b
2019-07-15_144924:500,-0.332489,0.026427999999999997,-0.366058,-0.012758,0.009937,0.009608,-44.5,1.56,-21.559998999999998,1b
2019-07-15_144924:520,-0.326385,0.036591000000000005,-0.36911,-0.011446,0.006947,0.008784,-45.25,1.56,-19.18,1b
2019-07-15_144924:540,-0.346222,0.040649,-0.361481,-0.010286,0.005878,0.011531,-45.25,1.56,-19.18,1b
2019-07-15_144924:560,-0.361969,0.040649,-0.358917,-0.008454999999999999,0.007281999999999999,0.011989,-46.369999,1.56,-20.0,1b
2019-07-15_144924:580,-0.374695,0.044219999999999995,-0.346222,-0.006776000000000001,0.009845999999999999,0.010126999999999999,-46.369999,1.56,-20.0,1b
2019-07-15_144924:600,-0.359955,0.045745999999999995,-0.337067,-0.0049759999999999995,0.012531,0.009456,-46.369999,1.56,-20.0,1b
2019-07-15_144924:620,-0.341125,0.045745999999999995,-0.32995599999999997,-0.003725,0.012836000000000002,0.008601000000000001,-46.369999,2.25,-18.75,1b
2019-07-15_144924:640,-0.326385,0.039642000000000004,-0.326385,-0.001771,0.00951,0.005946,-46.369999,2.25,-18.75,1b
2019-07-15_144924:660,-0.324371,0.036591000000000005,-0.32995599999999997,0.0007610000000000001,0.004566,0.002131,-46.369999,2.56,-18.0,1b
2019-07-15_144924:680,-0.341644,0.034058,-0.338593,0.003539,-4.2e-05,-0.000981,-46.369999,2.56,-18.0,1b
2019-07-15_144924:700,-0.339111,0.035065,-0.338593,0.006926000000000001,-0.003002,-0.00385,-46.369999,2.56,-18.0,1b
2019-07-15_144924:720,-0.349792,0.039642000000000004,-0.33758499999999997,0.010039,-0.00404,-0.00446,-46.369999,2.18,-18.370001000000002,1b
2019-07-15_144924:740,-0.3508,0.040649,-0.32995599999999997,0.012022,-0.00285,-0.004033,-46.369999,2.18,-18.370001000000002,1b
2019-07-15_144924:760,-0.35436999999999996,0.046265,-0.326385,0.012754999999999999,-0.0023309999999999997,-0.004033,-47.060001,2.56,-17.559998999999998,1b
2019-07-15_144924:780,-0.35180700000000004,0.047791,-0.321808,0.01245,-0.0007740000000000001,-0.0036969999999999998,-47.060001,2.56,-17.559998999999998,1b
2019-07-15_144924:800,-0.347229,0.044219999999999995,-0.315704,0.011778,-0.001263,-0.004521,-47.060001,2.56,-17.559998999999998,1b
2019-07-15_144924:820,-0.342163,0.042694,-0.312653,0.011565,-0.001873,-0.005162,-46.75,1.87,-18.0,1b
2019-07-15_144924:840,-0.34674099999999997,0.037598,-0.311646,0.011290000000000001,-0.00404,-0.006291,-46.75,1.87,-18.0,1b
2019-07-15_144924:860,-0.352844,0.035065,-0.31369,0.011382,-0.004772,-0.006444,-47.060001,1.87,-18.370001000000002,1b
2019-07-15_144924:880,-0.35943600000000003,0.03302,-0.315216,0.011961,-0.006847,-0.008245,-47.060001,1.87,-18.370001000000002,1b
2019-07-15_144924:900,-0.355896,0.031494,-0.31369,0.013243000000000001,-0.007183,-0.01035,-47.060001,1.87,-18.370001000000002,1b
2019-07-15_144924:920,-0.35791,0.03302,-0.311646,0.013762,-0.006756,-0.011295999999999999,-46.75,1.87,-19.18,1b
2019-07-15_144924:940,-0.35638400000000003,0.037108999999999996,-0.310638,0.016081,-0.004131,-0.013524000000000001,-46.75,1.87,-19.18,1b
2019-07-15_144924:960,-0.361481,0.038116000000000004,-0.314178,0.016814,-0.00346,-0.014409,-46.75,0.68,-18.370001000000002,1b
2019-07-15_144924:980,-0.364014,0.045745999999999995,-0.319794,0.019469,-0.0020559999999999997,-0.017308,-46.75,0.68,-18.370001000000002,1b
2019-07-15_144925:000,-0.35943600000000003,0.048798,-0.315704,0.020781,-0.00108,-0.017705000000000002,-46.75,0.68,-18.370001000000002,1b
2019-07-15_144925:020,-0.365021,0.050842,-0.320801,0.021208,-0.000286,-0.018376,-47.5,0.37,-19.559998999999998,1b
2019-07-15_144925:040,-0.37011700000000003,0.054901,-0.327911,0.022521,-0.0008349999999999999,-0.02036,-47.5,0.37,-19.559998999999998,1b
2019-07-15_144925:060,-0.381805,0.058441,-0.331482,0.022978,-0.001385,-0.019994,-47.869999,0.68,-18.370001000000002,1b
2019-07-15_144925:080,-0.392487,0.056915,-0.32995599999999997,0.022643,-0.0020559999999999997,-0.018102,-47.869999,0.68,-18.370001000000002,1b
2019-07-15_144925:100,-0.389435,0.05996699999999999,-0.327911,0.021544,-0.001141,-0.017247,-47.869999,0.68,-18.370001000000002,1b
2019-07-15_144925:120,-0.384857,0.061005,-0.331482,0.020995,-0.000683,-0.016393,-47.060001,0.75,-18.370001000000002,1b
2019-07-15_144925:140,-0.38028,0.05996699999999999,-0.332489,0.018004,-0.000225,-0.014409,-47.060001,0.75,-18.370001000000002,1b
2019-07-15_144925:160,-0.382324,0.058441,-0.332489,0.017027,-4.2e-05,-0.014072999999999999,-47.5,-1.25,-18.370001000000002,1b
2019-07-15_144925:180,-0.40570100000000003,0.053863999999999995,-0.34063699999999997,0.013701,5e-05,-0.014409,-47.5,-1.25,-18.370001000000002,1b
2019-07-15_144925:200,-0.41943400000000003,0.051330999999999995,-0.345215,0.012175,1.9e-05,-0.016666999999999998,-47.5,-1.25,-18.370001000000002,1b
2019-07-15_144925:220,-0.416901,0.049316000000000006,-0.341644,0.0119,0.0005679999999999999,-0.017339,-47.5,-1.0,-18.75,1b
2019-07-15_144925:240,-0.415375,0.048798,-0.34674099999999997,0.011443,0.001575,-0.017339,-47.5,-1.0,-18.75,1b
2019-07-15_144925:260,-0.443329,0.044739,-0.36911,0.011321,0.00035499999999999996,-0.017583,-47.5,-1.0,-18.75,1b
2019-07-15_144925:280,-0.420441,0.043213,-0.367584,0.010709999999999999,-0.001782,-0.01685,-48.560001,-1.25,-18.75,1b
2019-07-15_144925:300,-0.401123,0.040161,-0.374695,0.0101,-0.001873,-0.015996,-48.560001,-1.25,-18.75,1b
2019-07-15_144925:320,-0.36911,0.038116000000000004,-0.375214,0.007536,-0.001385,-0.012334,-47.5,-2.5,-18.370001000000002,1b
2019-07-15_144925:340,-0.35943600000000003,0.028961,-0.381805,0.0061329999999999996,-0.002239,-0.011479000000000001,-47.5,-2.5,-18.370001000000002,1b
2019-07-15_144925:360,-0.35131799999999996,0.022858,-0.376221,0.002867,-0.004497999999999999,-0.0109,-48.18,-2.06,-19.559998999999998,1b
2019-07-15_144925:380,-0.34674099999999997,0.017792,-0.371643,0.001036,-0.002911,-0.01154,-48.18,-2.06,-19.559998999999998,1b
2019-07-15_144925:400,-0.336548,0.008636,-0.349274,2.8999999999999997e-05,0.0026739999999999997,-0.013219,-48.18,-2.06,-19.559998999999998,1b
2019-07-15_144925:420,-0.314697,-0.001007,-0.335022,0.000151,0.004139,-0.013524000000000001,-47.5,-3.5,-19.18,1b
2019-07-15_144925:440,-0.30249000000000004,-0.007111,-0.327911,0.001341,0.0032229999999999997,-0.013677000000000002,-47.5,-3.5,-19.18,1b
2019-07-15_144925:460,-0.304535,-0.011687999999999999,-0.338593,0.002867,-0.0007740000000000001,-0.01209,-47.5,-3.5,-19.18,1b
2019-07-15_144925:480,-0.29895,-0.008636,-0.341125,0.004668,-0.004437,-0.009281999999999999,-42.0,-3.87,-18.0,1b
2019-07-15_144925:500,-0.313171,-0.011687999999999999,-0.353851,0.006712,-0.009106,-0.008214,-42.0,-3.87,-18.0,1b
2019-07-15_144925:520,-0.32132,-0.0055850000000000006,-0.35791,0.007932999999999999,-0.013591999999999998,-0.009434999999999999,-47.869999,-5.5,-20.75,1b
2019-07-15_144925:540,-0.325897,0.0,-0.369598,0.008574,-0.017193,-0.009281999999999999,-47.869999,-5.5,-20.75,1b
2019-07-15_144925:560,-0.330963,0.0035399999999999997,-0.37265,0.007932999999999999,-0.018597,-0.009281999999999999,-47.869999,-5.5,-20.75,1b
2019-07-15_144925:580,-0.35638400000000003,0.005065999999999999,-0.37112399999999995,0.007781000000000001,-0.016186000000000002,-0.009221,-48.0,-5.5,-19.559998999999998,1b
2019-07-15_144925:600,-0.355896,0.001007,-0.358917,0.007781000000000001,-0.010204000000000001,-0.009281999999999999,-48.0,-5.5,-19.559998999999998,1b
2019-07-15_144925:620,-0.344696,0.001495,-0.353333,0.008177,-0.004986,-0.010228000000000001,-47.560001,-6.18,-20.68,1b
2019-07-15_144925:640,-0.33300799999999997,0.004547,-0.341644,0.008513,-0.003124,-0.009221,-47.560001,-6.18,-20.68,1b
2019-07-15_144925:660,-0.326385,0.007111,-0.335541,0.008666,-0.0031850000000000003,-0.006719,-47.560001,-6.18,-20.68,1b
2019-07-15_144925:680,-0.33300799999999997,0.006592,-0.334015,0.007994,-0.004131,-0.006383,-48.0,-6.06,-20.25,1b
2019-07-15_144925:700,-0.342163,0.007599,-0.334534,0.007109000000000001,-0.004925,-0.005956,-48.0,-6.06,-20.25,1b
2019-07-15_144925:720,-0.336548,0.008118,-0.32843,0.006072,-0.004192,-0.0039109999999999995,-48.0,-6.5,-20.68,1b
2019-07-15_144925:740,-0.33300799999999997,0.006592,-0.330475,0.0042710000000000005,-0.003643,-0.002721,-48.0,-6.5,-20.68,1b
2019-07-15_144925:760,-0.344177,0.004547,-0.335022,0.002409,-0.003643,-0.002385,-48.0,-6.5,-20.68,1b
2019-07-15_144925:780,-0.347229,0.0055850000000000006,-0.338074,0.000426,-0.003124,-0.0016530000000000002,-47.18,-6.5,-20.68,1b
2019-07-15_144925:800,-0.349274,0.0035399999999999997,-0.34317,-0.001222,-0.002392,-0.000524,-47.18,-6.5,-20.68,1b
2019-07-15_144925:820,-0.34265100000000004,0.0030210000000000002,-0.3396,-0.002687,-0.00037799999999999997,0.000545,-47.18,-6.75,-20.68,1b
2019-07-15_144925:840,-0.34570300000000004,0.000488,-0.338074,-0.0038469999999999997,0.0016359999999999999,0.001124,-47.18,-6.75,-20.68,1b
2019-07-15_144925:860,-0.338593,0.002014,-0.34317,-0.004671,0.0033450000000000003,0.001918,-47.18,-6.75,-20.68,1b
2019-07-15_144925:880,-0.353333,0.002014,-0.348267,-0.005983,0.0033450000000000003,0.003749,-47.560001,-5.37,-20.68,1b
2019-07-15_144925:900,-0.36706500000000003,-0.000488,-0.350281,-0.0068980000000000005,0.003742,0.004481000000000001,-47.560001,-5.37,-20.68,1b
2019-07-15_144925:920,-0.361481,-0.0030210000000000002,-0.35638400000000003,-0.007387,0.004963,0.0042369999999999994,-47.5,-6.75,-21.059998999999998,1b
2019-07-15_144925:940,-0.34875500000000004,-0.002014,-0.359955,-0.007112,0.005146,0.0042369999999999994,-47.5,-6.75,-21.059998999999998,1b
2019-07-15_144925:960,-0.34368899999999997,0.007111,-0.367584,-0.007448000000000001,0.004871,0.004756,-47.5,-6.75,-21.059998999999998,1b
2019-07-15_144925:980,-0.368073,0.014740000000000001,-0.377747,-0.008699,0.004139,0.005733,-46.75,-6.75,-19.5,1b
2019-07-15_144926:000,-0.411804,0.024902,-0.39502,-0.010286,0.004139,0.00674,-46.75,-6.75,-19.5,1b
2019-07-15_144926:020,-0.41586300000000004,0.032013,-0.388916,-0.012544,0.008594,0.009852,-47.560001,-6.75,-20.68,1b
2019-07-15_144926:040,-0.434174,0.033539,-0.396545,-0.013765000000000001,0.012165,0.011836,-47.560001,-6.75,-20.68,1b
2019-07-15_144926:060,-0.459595,0.036072,-0.41333000000000003,-0.015290999999999999,0.011005,0.011714,-47.560001,-6.75,-20.68,1b
2019-07-15_144926:080,-0.434174,0.039642000000000004,-0.40011599999999997,-0.017731999999999998,0.009724,0.014369,-48.25,-6.75,-19.059998999999998,1b
2019-07-15_144926:100,-0.369598,0.034546,-0.36706500000000003,-0.018983,0.012318,0.018764,-48.25,-6.75,-19.059998999999998,1b
2019-07-15_144926:120,-0.320282,0.029968,-0.36248800000000003,-0.018587,0.014301,0.016383,-48.25,-6.06,-18.68,1b
2019-07-15_144926:140,-0.305054,0.041168,-0.36911,-0.016603,0.010181,0.010126999999999999,-48.25,-6.06,-18.68,1b
2019-07-15_144926:160,-0.325378,0.051330999999999995,-0.37316900000000003,-0.013429,0.005024,0.008081999999999999,-48.25,-6.06,-18.68,1b
2019-07-15_144926:180,-0.355377,0.053863999999999995,-0.36044299999999996,-0.010683,0.003498,0.009608,-49.060001,-5.68,-17.5,1b
2019-07-15_144926:200,-0.364014,0.048279,-0.355896,-0.0071730000000000006,0.004688,0.007014,-49.060001,-5.68,-17.5,1b
2019-07-15_144926:220,-0.347748,0.049316000000000006,-0.352325,-0.003542,0.0070079999999999995,0.0025280000000000003,-49.060001,-5.0,-17.5,1b
2019-07-15_144926:240,-0.324371,0.047791,-0.35436999999999996,0.000151,0.005878,0.000484,-49.060001,-5.0,-17.5,1b
2019-07-15_144926:260,-0.326904,0.048798,-0.349792,0.003355,0.003956,-0.00033999999999999997,-49.060001,-5.0,-17.5,1b
2019-07-15_144926:280,-0.324371,0.046752999999999996,-0.350281,0.006072,0.000904,-0.001531,-49.060001,-6.06,-17.5,1b
2019-07-15_144926:300,-0.326385,0.047791,-0.338074,0.008452,-0.000439,-0.002385,-49.060001,-6.06,-17.5,1b
2019-07-15_144926:320,-0.326385,0.047791,-0.33197,0.009581000000000001,0.00038500000000000003,-0.002385,-48.25,-5.68,-16.25,1b
2019-07-15_144926:340,-0.32132,0.041168,-0.321808,0.010191,0.002216,-0.0024460000000000003,-48.25,-5.68,-16.25,1b
2019-07-15_144926:360,-0.323853,0.038116000000000004,-0.318756,0.010588,0.0032840000000000005,-0.00385,-48.25,-5.68,-16.25,1b
2019-07-15_144926:380,-0.332489,0.037108999999999996,-0.321808,0.011229000000000001,0.0032229999999999997,-0.005222999999999999,-49.060001,-6.5,-17.059998999999998,1b
2019-07-15_144926:400,-0.335022,0.033539,-0.319275,0.012053,0.002094,-0.007421,-49.060001,-6.5,-17.059998999999998,1b
2019-07-15_144926:420,-0.349274,0.032532,-0.321808,0.013304,0.0005679999999999999,-0.010564,-48.0,-5.68,-15.87,1b
2019-07-15_144926:440,-0.354858,0.031006,-0.320282,0.014891,-0.000439,-0.01209,-48.0,-5.68,-15.87,1b
2019-07-15_144926:460,-0.361969,0.028961,-0.32132,0.017149,-0.0020559999999999997,-0.014072999999999999,-48.0,-5.68,-15.87,1b
2019-07-15_144926:480,-0.360962,0.032532,-0.312164,0.019530000000000002,-0.001934,-0.015782,-48.68,-5.68,-15.06,1b
2019-07-15_144926:500,-0.359955,0.03302,-0.312164,0.022002,-0.000958,-0.016606,-48.68,-5.68,-15.06,1b
2019-07-15_144926:520,-0.35131799999999996,0.038635,-0.312653,0.023375,-0.00037799999999999997,-0.017583,-48.0,-6.06,-15.5,1b
2019-07-15_144926:540,-0.356903,0.039642000000000004,-0.316223,0.024382,-0.000439,-0.018254,-48.0,-6.06,-15.5,1b
2019-07-15_144926:560,-0.361481,0.042175,-0.314697,0.024992,-0.001598,-0.020756999999999998,-48.0,-6.06,-15.5,1b
2019-07-15_144926:580,-0.373688,0.043213,-0.314697,0.026182999999999998,-0.000958,-0.023015,-48.25,-6.5,-16.68,1b
2019-07-15_144926:600,-0.380798,0.048798,-0.320801,0.027312,0.000904,-0.023686000000000002,-48.25,-6.5,-16.68,1b
2019-07-15_144926:620,-0.375702,0.051849,-0.322845,0.027953,0.001911,-0.024236,-48.25,-7.56,-17.5,1b
2019-07-15_144926:640,-0.367584,0.055389,-0.32132,0.028227,0.00182,-0.024419,-48.25,-7.56,-17.5,1b
2019-07-15_144926:660,-0.36654699999999996,0.056915,-0.322327,0.027831,0.001484,-0.023563999999999998,-48.25,-7.56,-17.5,1b
2019-07-15_144926:680,-0.379272,0.052338,-0.32486,0.026456999999999998,5e-05,-0.021366999999999997,-48.0,-7.56,-17.870001000000002,1b
2019-07-15_144926:700,-0.380798,0.051849,-0.325897,0.026366000000000004,0.0005070000000000001,-0.021184,-48.0,-7.56,-17.870001000000002,1b
2019-07-15_144926:720,-0.379272,0.049316000000000006,-0.325897,0.025786,0.0023079999999999997,-0.021825,-48.25,-9.37,-17.059998999999998,1b
2019-07-15_144926:740,-0.36911,0.044219999999999995,-0.32486,0.025847000000000002,0.0042,-0.022313,-48.25,-9.37,-17.059998999999998,1b
2019-07-15_144926:760,-0.361481,0.044739,-0.329437,0.02603,0.005024,-0.023441999999999998,-48.25,-9.37,-17.059998999999998,1b
2019-07-15_144926:780,-0.360962,0.047272,-0.329437,0.026182999999999998,0.005482,-0.024419,-47.560001,-8.68,-17.059998999999998,1b
2019-07-15_144926:800,-0.378265,0.051330999999999995,-0.336548,0.025969,0.006458,-0.025487,-47.560001,-8.68,-17.059998999999998,1b
2019-07-15_144926:820,-0.394531,0.049316000000000006,-0.350281,0.025847000000000002,0.005543,-0.027226,-47.560001,-10.5,-17.559998999999998,1b
2019-07-15_144926:840,-0.41485600000000006,0.045745999999999995,-0.359955,0.025847000000000002,0.004536,-0.029332,-47.560001,-10.5,-17.559998999999998,1b
2019-07-15_144926:860,-0.42147799999999996,0.046752999999999996,-0.366058,0.026823000000000003,0.004353,-0.030736000000000003,-47.560001,-10.5,-17.559998999999998,1b
2019-07-15_144926:880,-0.45706199999999997,0.042175,-0.388916,0.027373,0.00301,-0.030583,-47.560001,-10.87,-17.870001000000002,1b
2019-07-15_144926:900,-0.434174,0.041687,-0.383331,0.027953,0.000965,-0.029943,-47.560001,-10.87,-17.870001000000002,1b
2019-07-15_144926:920,-0.416901,0.038635,-0.377228,0.027647,0.003101,-0.028477999999999996,-47.18,-11.56,-17.870001000000002,1b
2019-07-15_144926:940,-0.372162,0.038116000000000004,-0.375214,0.025847000000000002,0.00481,-0.025823000000000002,-47.18,-11.56,-17.870001000000002,1b
2019-07-15_144926:960,-0.347748,0.03302,-0.377228,0.022459,0.002552,-0.022099,-47.18,-11.56,-17.870001000000002,1b
2019-07-15_144926:980,-0.345215,0.019806,-0.364014,0.019530000000000002,-0.00034700000000000003,-0.018193,-46.5,-12.68,-15.87,1b
2019-07-15_144927:000,-0.34063699999999997,0.013702,-0.35131799999999996,0.016692,0.00011100000000000001,-0.017461,-46.5,-12.68,-15.87,1b
2019-07-15_144927:020,-0.34368899999999997,0.004547,-0.32995599999999997,0.015227000000000001,0.00301,-0.018865,-46.5,-13.5,-17.559998999999998,1b
2019-07-15_144927:040,-0.327423,-0.002014,-0.32486,0.015105,0.004475,-0.020696,-46.5,-13.5,-17.559998999999998,1b
2019-07-15_144927:060,-0.318756,0.0,-0.325897,0.015074,0.001911,-0.021092,-46.5,-13.5,-17.559998999999998,1b
2019-07-15_144927:080,-0.318268,-0.0025329999999999997,-0.33197,0.015165999999999999,-0.001141,-0.018529,-47.18,-14.18,-16.370001000000002,1b
2019-07-15_144927:100,-0.316742,-0.002014,-0.334534,0.015288,-0.004772,-0.016454,-47.18,-14.18,-16.370001000000002,1b
2019-07-15_144927:120,-0.332489,0.0,-0.347229,0.015288,-0.009075,-0.016271,-45.369999,-14.37,-18.370001000000002,1b
2019-07-15_144927:140,-0.330963,0.006072999999999999,-0.347748,0.015227000000000001,-0.01289,-0.017583,-45.369999,-14.37,-18.370001000000002,1b
2019-07-15_144927:160,-0.33197,0.008636,-0.353333,0.014433000000000001,-0.014721000000000001,-0.017186,-45.369999,-14.37,-18.370001000000002,1b
2019-07-15_144927:180,-0.3396,0.008118,-0.353851,0.013944999999999999,-0.014416,-0.016728,-45.75,-14.37,-19.18,1b
2019-07-15_144927:200,-0.349274,0.010162000000000001,-0.35131799999999996,0.013762,-0.011822,-0.01685,-45.75,-14.37,-19.18,1b
2019-07-15_144927:220,-0.35131799999999996,0.012177,-0.34317,0.013975999999999999,-0.007640999999999999,-0.016271,-45.369999,-15.68,-19.18,1b
2019-07-15_144927:240,-0.34570300000000004,0.017273,-0.338074,0.013884,-0.004314,-0.014318,-45.369999,-15.68,-19.18,1b
2019-07-15_144927:260,-0.334534,0.018799,-0.32843,0.012969,-0.002911,-0.010869,-45.369999,-15.68,-19.18,1b
2019-07-15_144927:280,-0.339111,0.017792,-0.326904,0.011290000000000001,-0.00346,-0.008611,-44.25,-16.0,-19.18,1b
2019-07-15_144927:300,-0.344696,0.017273,-0.320801,0.008634999999999999,-0.005261,-0.007481999999999999,-44.25,-16.0,-19.18,1b
2019-07-15_144927:320,-0.346222,0.014740000000000001,-0.316742,0.0058579999999999995,-0.006451,-0.005497999999999999,-44.560001,-16.0,-20.75,1b
2019-07-15_144927:340,-0.347748,0.010162000000000001,-0.324371,0.003325,-0.006115,-0.003972,-44.560001,-16.0,-20.75,1b
2019-07-15_144927:360,-0.344696,0.006592,-0.33758499999999997,0.001006,-0.005718,-0.0036969999999999998,-44.560001,-16.0,-20.75,1b
2019-07-15_144927:380,-0.353333,0.004059,-0.33758499999999997,-0.0005200000000000001,-0.006115,-0.003057,-43.060001,-16.25,-19.18,1b
2019-07-15_144927:400,-0.35943600000000003,0.0025329999999999997,-0.341125,-0.0016190000000000002,-0.006695,-0.0021100000000000003,-43.060001,-16.25,-19.18,1b
2019-07-15_144927:420,-0.35943600000000003,0.002014,-0.338074,-0.002168,-0.004894,-0.000676,-43.869999,-16.68,-20.75,1b
2019-07-15_144927:440,-0.356903,0.001007,-0.338074,-0.002565,-0.001141,0.001124,-43.869999,-16.68,-20.75,1b
2019-07-15_144927:460,-0.344177,0.0030210000000000002,-0.337067,-0.0029620000000000002,0.001423,0.001979,-43.869999,-16.68,-20.75,1b
2019-07-15_144927:480,-0.34265100000000004,0.006072999999999999,-0.338593,-0.004335,0.002277,0.002955,-44.18,-16.68,-19.559998999999998,1b
2019-07-15_144927:500,-0.354858,0.008118,-0.332489,-0.005586,0.002552,0.003871,-44.18,-16.68,-19.559998999999998,1b
2019-07-15_144927:520,-0.367584,0.005065999999999999,-0.330475,-0.007387,0.002491,0.0033520000000000004,-43.060001,-16.18,-19.559998999999998,1b
2019-07-15_144927:540,-0.376221,0.008118,-0.334015,-0.008302,0.002827,0.0021920000000000004,-43.060001,-16.18,-19.559998999999998,1b
2019-07-15_144927:560,-0.381317,0.010162000000000001,-0.341125,-0.008851999999999999,0.002888,0.001338,-43.060001,-16.18,-19.559998999999998,1b
2019-07-15_144927:580,-0.386902,0.014740000000000001,-0.346222,-0.00937,0.002888,0.001582,-43.060001,-15.56,-20.75,1b
2019-07-15_144927:600,-0.388916,0.01828,-0.347748,-0.010164,0.003834,0.0016129999999999999,-43.060001,-15.56,-20.75,1b
2019-07-15_144927:620,-0.405212,0.021851,-0.353333,-0.010286,0.005817,0.001277,-44.18,-16.25,-21.559998999999998,1b
2019-07-15_144927:640,-0.421967,0.024902,-0.364014,-0.009981,0.006092,0.000392,-44.18,-16.25,-21.559998999999998,1b
2019-07-15_144927:660,-0.417908,0.028961,-0.353851,-0.009889,0.007984,0.000667,-44.18,-16.25,-21.559998999999998,1b
2019-07-15_144927:680,-0.429596,0.032532,-0.364014,-0.008302,0.011798999999999999,0.00265,-43.5,-16.0,-18.75,1b
2019-07-15_144927:700,-0.447906,0.036072,-0.381317,-0.007234,0.011463,0.002955,-43.5,-16.0,-18.75,1b
2019-07-15_144927:720,-0.433167,0.043213,-0.365021,-0.007234,0.007984,0.004542,-43.869999,-16.25,-19.18,1b
2019-07-15_144927:740,-0.40774499999999997,0.036072,-0.355896,-0.007265000000000001,0.008808,0.008662000000000001,-43.869999,-16.25,-19.18,1b
2019-07-15_144927:760,-0.337067,0.031494,-0.347748,-0.007387,0.010853,0.0068920000000000006,-43.869999,-16.25,-19.18,1b
2019-07-15_144927:780,-0.326904,0.036591000000000005,-0.36044299999999996,-0.006044,0.010334000000000001,0.00265,-44.869999,-16.0,-18.0,1b
2019-07-15_144927:800,-0.321808,0.042175,-0.367584,-0.003542,0.00536,-0.001042,-44.869999,-16.0,-18.0,1b
2019-07-15_144927:820,-0.344696,0.049805,-0.358429,-0.000459,0.0020329999999999997,0.001979,-45.25,-16.25,-17.559998999999998,1b
2019-07-15_144927:840,-0.367584,0.049316000000000006,-0.354858,0.002226,0.0038950000000000005,0.003901,-45.25,-16.25,-17.559998999999998,1b
2019-07-15_144927:860,-0.361481,0.051330999999999995,-0.338593,0.004546,0.007526000000000001,0.001124,-45.25,-16.25,-17.559998999999998,1b
2019-07-15_144927:880,-0.347229,0.05438200000000001,-0.33605999999999997,0.0063159999999999996,0.008990999999999999,-0.000859,-45.25,-16.68,-16.75,1b
2019-07-15_144927:900,-0.318268,0.053863999999999995,-0.334015,0.007872,0.00655,-0.0011949999999999999,-45.25,-16.68,-16.75,1b
2019-07-15_144927:920,-0.309113,0.051849,-0.336548,0.009184000000000001,0.001545,-0.00324,-44.869999,-16.25,-16.75,1b
2019-07-15_144927:940,-0.325897,0.048279,-0.34317,0.010527,-0.00404,-0.0057729999999999995,-44.869999,-16.25,-16.75,1b
2019-07-15_144927:960,-0.32843,0.048279,-0.349792,0.011656,-0.008617,-0.007909000000000001,-44.869999,-16.25,-16.75,1b
2019-07-15_144927:980,-0.34063699999999997,0.050323,-0.35131799999999996,0.013091,-0.009899,-0.008489,-44.869999,-16.25,-17.18,1b
2019-07-15_144928:000,-0.354858,0.049316000000000006,-0.346222,0.013975999999999999,-0.007977,-0.008611,-44.869999,-16.25,-17.18,1b
2019-07-15_144928:020,-0.358917,0.049316000000000006,-0.34317,0.014677,-0.004192,-0.009496,-44.869999,-16.25,-17.559998999999998,1b
2019-07-15_144928:040,-0.356903,0.051330999999999995,-0.334534,0.014952000000000002,-0.001202,-0.009557,-44.869999,-16.25,-17.559998999999998,1b
2019-07-15_144928:060,-0.34875500000000004,0.049805,-0.327911,0.015074,0.000965,-0.010289,-44.869999,-16.25,-17.559998999999998,1b
2019-07-15_144928:080,-0.34317,0.047272,-0.32132,0.01541,0.00038500000000000003,-0.012273000000000001,-44.5,-16.0,-17.559998999999998,1b
2019-07-15_144928:100,-0.34570300000000004,0.047272,-0.31723,0.016142,-0.000958,-0.013524000000000001,-44.5,-16.0,-17.559998999999998,1b
2019-07-15_144928:120,-0.345215,0.048798,-0.312164,0.017149,-0.0020559999999999997,-0.014409,-44.18,-17.059998999999998,-19.18,1b
