timestamp,AccX,AccY,AccZ,GyroX,GyroY,GyroZ,MagX,MagY,MagZ,Activity
2019-07-15_144030:200,-0.285217,0.012177,-0.40823400000000004,-0.008424,-0.007640999999999999,0.0042369999999999994,-38.369999,14.06,-23.18,3b
2019-07-15_144030:220,-0.30249000000000004,0.014740000000000001,-0.417908,-0.006837,-0.008434,0.003871,-38.369999,14.06,-23.18,3b
2019-07-15_144030:240,-0.30654899999999996,0.015747,-0.429108,-0.005769,-0.007427,0.0027719999999999997,-38.060001,13.68,-24.0,3b
2019-07-15_144030:260,-0.306061,0.020844,-0.431122,-0.004793,-0.005779,0.00146,-38.060001,13.68,-24.0,3b
2019-07-15_144030:280,-0.306061,0.029480000000000003,-0.42758199999999996,-0.004121,-0.002728,-0.000859,-38.060001,13.68,-24.0,3b
2019-07-15_144030:300,-0.30654899999999996,0.032532,-0.420959,-0.004335,1.9e-05,-0.002202,-38.060001,13.68,-24.370001000000002,3b
2019-07-15_144030:320,-0.29538000000000003,0.03302,-0.40774499999999997,-0.004915,0.002888,-0.002263,-38.060001,13.68,-24.370001000000002,3b
2019-07-15_144030:340,-0.271484,0.033539,-0.39859,-0.005312,0.004229999999999999,-0.0009199999999999999,-37.68,13.68,-25.18,3b
2019-07-15_144030:360,-0.283173,0.027435,-0.39859,-0.005189,0.002277,0.001277,-37.68,13.68,-25.18,3b
2019-07-15_144030:380,-0.275055,0.028442000000000002,-0.394012,-0.004182,0.000843,0.003016,-37.68,13.68,-25.18,3b
2019-07-15_144030:400,-0.29180900000000004,0.031006,-0.395538,-0.0033280000000000002,-0.0014759999999999999,0.003505,-37.68,13.37,-24.0,3b
2019-07-15_144030:420,-0.29486100000000004,0.033539,-0.384338,-0.003145,-0.001934,0.004298,-37.68,13.37,-24.0,3b
2019-07-15_144030:440,-0.29232800000000003,0.028961,-0.382324,-0.00406,-0.002514,0.006282,-38.060001,12.56,-24.370001000000002,3b
2019-07-15_144030:460,-0.278107,0.024902,-0.381805,-0.005189,-0.002911,0.008143000000000001,-38.060001,12.56,-24.370001000000002,3b
2019-07-15_144030:480,-0.274017,0.019318000000000002,-0.380798,-0.0068980000000000005,-0.004833,0.009944,-38.060001,12.56,-24.370001000000002,3b
2019-07-15_144030:500,-0.282654,0.007111,-0.394012,-0.008424,-0.007885,0.010341,-37.68,13.0,-24.370001000000002,3b
2019-07-15_144030:520,-0.283173,0.0035399999999999997,-0.397064,-0.008516,-0.00996,0.009669,-37.68,13.0,-24.370001000000002,3b
2019-07-15_144030:540,-0.28979499999999997,0.001007,-0.401123,-0.007509,-0.012463,0.008662000000000001,-37.68,13.68,-24.75,3b
2019-07-15_144030:560,-0.291321,0.001007,-0.40316799999999997,-0.006776000000000001,-0.013226,0.008388,-37.68,13.68,-24.75,3b
2019-07-15_144030:580,-0.287231,0.0,-0.404694,-0.0058,-0.013287,0.007808,-37.68,13.68,-24.75,3b
2019-07-15_144030:600,-0.287231,0.004059,-0.40570100000000003,-0.005128,-0.014324000000000002,0.007289,-36.869999,13.68,-25.559998999999998,3b
2019-07-15_144030:620,-0.29995700000000003,0.0055850000000000006,-0.40368699999999996,-0.0049759999999999995,-0.013622,0.007289,-36.869999,13.68,-25.559998999999998,3b
2019-07-15_144030:640,-0.277069,0.006072999999999999,-0.40063499999999996,-0.004793,-0.013805000000000001,0.005824,-36.560001,14.5,-26.370001000000002,3b
2019-07-15_144030:660,-0.279633,0.006592,-0.397064,-0.004274,-0.014416,0.003505,-36.560001,14.5,-26.370001000000002,3b
2019-07-15_144030:680,-0.283173,0.0025329999999999997,-0.40063499999999996,-0.0038469999999999997,-0.015453,0.00207,-36.560001,14.5,-26.370001000000002,3b
2019-07-15_144030:700,-0.279633,0.0,-0.399109,-0.00229,-0.015057,0.001277,-36.18,13.37,-25.559998999999998,3b
2019-07-15_144030:720,-0.267426,0.0,-0.401642,-0.000124,-0.015392,0.001185,-36.18,13.37,-25.559998999999998,3b
2019-07-15_144030:740,-0.263336,0.001495,-0.406738,0.0014939999999999999,-0.017131999999999998,0.001124,-36.560001,13.37,-26.0,3b
2019-07-15_144030:760,-0.272491,0.0,-0.40976,0.002867,-0.018322,0.001399,-36.560001,13.37,-26.0,3b
2019-07-15_144030:780,-0.272491,0.004059,-0.41842700000000005,0.0038130000000000004,-0.017986000000000002,0.001338,-36.560001,13.37,-26.0,3b
2019-07-15_144030:800,-0.26944,0.007599,-0.423492,0.00421,-0.017925,0.000484,-35.5,14.06,-26.370001000000002,3b
2019-07-15_144030:820,-0.268951,0.009125,-0.433655,0.003691,-0.018505,-0.000188,-35.5,14.06,-26.370001000000002,3b
2019-07-15_144030:840,-0.267426,0.010162000000000001,-0.43823199999999995,0.00302,-0.017925,-0.000737,-35.5,14.06,-28.370001000000002,3b
2019-07-15_144030:860,-0.268951,0.008118,-0.44027700000000003,0.002226,-0.017651,-0.002172,-35.5,14.06,-28.370001000000002,3b
2019-07-15_144030:880,-0.269958,0.008118,-0.445862,0.0017989999999999998,-0.016674,-0.0036969999999999998,-35.5,14.06,-28.370001000000002,3b
2019-07-15_144030:900,-0.267426,0.009125,-0.447388,0.0017989999999999998,-0.015269999999999999,-0.002934,-35.5,13.68,-26.75,3b
2019-07-15_144030:920,-0.268951,0.010162000000000001,-0.449432,0.002196,-0.013988999999999998,-0.0024460000000000003,-35.5,13.68,-26.75,3b
2019-07-15_144030:940,-0.272003,0.010651,-0.447906,0.001891,-0.012066,-0.002385,-35.060001,13.68,-28.0,3b
2019-07-15_144030:960,-0.266907,0.013702,-0.441803,0.001433,-0.010020999999999999,-0.0019879999999999997,-35.060001,13.68,-28.0,3b
2019-07-15_144030:980,-0.272491,0.014740000000000001,-0.440796,0.0008230000000000001,-0.007885,-0.0016530000000000002,-35.060001,13.68,-28.0,3b
2019-07-15_144031:000,-0.260803,0.015228,-0.438751,-9.300000000000001e-05,-0.005961999999999999,-0.0013779999999999999,-34.369999,13.0,-28.75,3b
2019-07-15_144031:020,-0.245544,0.013213999999999998,-0.434692,-0.000642,-0.004711,-0.001531,-34.369999,13.0,-28.75,3b
2019-07-15_144031:040,-0.240479,0.011169,-0.43670699999999996,-0.001253,-0.004711,-0.002202,-33.560001,13.37,-28.75,3b
2019-07-15_144031:060,-0.242004,0.010651,-0.43823199999999995,-0.002107,-0.005108,-0.0019879999999999997,-33.560001,13.37,-28.75,3b
2019-07-15_144031:080,-0.25216700000000003,0.009125,-0.43927,-0.001955,-0.004986,-0.000737,-33.560001,13.37,-28.75,3b
2019-07-15_144031:100,-0.24758899999999998,0.008118,-0.44281000000000004,-0.00229,-0.0037649999999999997,-0.000859,-33.560001,14.06,-30.0,3b
2019-07-15_144031:120,-0.245544,0.007599,-0.443329,-0.0019850000000000002,-0.003307,-0.000798,-33.560001,14.06,-30.0,3b
2019-07-15_144031:140,-0.245056,0.008118,-0.44433599999999995,-0.001497,-0.00285,0.000148,-34.68,14.06,-30.059998999999998,3b
2019-07-15_144031:160,-0.244019,0.0035399999999999997,-0.44232200000000005,-0.001955,-0.002575,0.001124,-34.68,14.06,-30.059998999999998,3b
2019-07-15_144031:180,-0.24353000000000002,0.001007,-0.44384799999999996,-0.0016190000000000002,-0.0020559999999999997,0.001521,-34.68,14.06,-30.059998999999998,3b
2019-07-15_144031:200,-0.248108,-0.001495,-0.44027700000000003,-0.001314,-0.001446,0.001277,-34.369999,14.5,-28.870001000000002,3b
2019-07-15_144031:220,-0.244019,-0.001495,-0.439758,-0.000978,-0.0006219999999999999,-6.6e-05,-34.369999,14.5,-28.870001000000002,3b
2019-07-15_144031:240,-0.239441,0.0025329999999999997,-0.44027700000000003,-0.0005809999999999999,-0.000103,-0.000524,-34.369999,14.06,-28.870001000000002,3b
2019-07-15_144031:260,-0.23590100000000003,-0.001007,-0.437225,-0.0005200000000000001,5e-05,8.7e-05,-34.369999,14.06,-28.870001000000002,3b
2019-07-15_144031:280,-0.236389,0.000488,-0.439758,-0.000642,-0.000225,0.000545,-34.369999,14.06,-28.870001000000002,3b
2019-07-15_144031:300,-0.23590100000000003,0.0,-0.437225,-0.000459,-0.000164,0.000148,-34.68,14.06,-30.0,3b
2019-07-15_144031:320,-0.24096700000000001,0.001495,-0.439758,-0.0007639999999999999,-0.0006219999999999999,-0.0016530000000000002,-34.68,14.06,-30.0,3b
2019-07-15_144031:340,-0.244019,0.005065999999999999,-0.435699,-0.001161,0.000446,-0.002049,-34.0,13.68,-28.370001000000002,3b
2019-07-15_144031:360,-0.23590100000000003,0.0055850000000000006,-0.434692,-0.0018329999999999998,0.0010869999999999999,-0.0019879999999999997,-34.0,13.68,-28.370001000000002,3b
2019-07-15_144031:380,-0.233337,0.011687999999999999,-0.43774399999999997,-0.001894,0.0005679999999999999,-0.001317,-34.0,13.68,-28.370001000000002,3b
2019-07-15_144031:400,-0.23791500000000002,0.014221000000000001,-0.438751,-0.002046,-0.000683,-0.000798,-34.0,13.68,-28.370001000000002,3b
2019-07-15_144031:420,-0.251648,0.015747,-0.44281000000000004,-0.0029620000000000002,-0.0011099999999999999,-0.001256,-34.0,13.68,-28.370001000000002,3b
2019-07-15_144031:440,-0.25827,0.018799,-0.44232200000000005,-0.0036030000000000003,-0.0008349999999999999,-0.001134,-34.68,13.68,-28.0,3b
2019-07-15_144031:460,-0.255707,0.01828,-0.438751,-0.004518,0.00038500000000000003,-0.000188,-34.68,13.68,-28.0,3b
2019-07-15_144031:480,-0.243011,0.019806,-0.43518100000000004,-0.005189,0.001026,0.001979,-34.68,13.68,-28.0,3b
2019-07-15_144031:500,-0.237427,0.019318000000000002,-0.43670699999999996,-0.006379999999999999,0.000446,0.003963,-35.060001,13.68,-28.75,3b
2019-07-15_144031:520,-0.238434,0.019318000000000002,-0.434174,-0.00757,-0.000225,0.006343,-35.060001,13.68,-28.75,3b
2019-07-15_144031:540,-0.23995999999999998,0.016753999999999998,-0.43518100000000004,-0.008241,-0.001263,0.0076549999999999995,-35.5,13.37,-29.559998999999998,3b
2019-07-15_144031:560,-0.25317399999999995,0.016753999999999998,-0.433655,-0.009096,-0.00172,0.007686,-35.5,13.37,-29.559998999999998,3b
2019-07-15_144031:580,-0.248596,0.015228,-0.431641,-0.009492,-0.00108,0.009608,-35.5,13.37,-29.559998999999998,3b
2019-07-15_144031:600,-0.24453699999999998,0.009644,-0.432159,-0.009248000000000001,-0.000958,0.010402,-33.560001,13.0,-29.18,3b
2019-07-15_144031:620,-0.25012199999999996,0.010162000000000001,-0.433655,-0.008699,-0.001141,0.008662000000000001,-33.560001,13.0,-29.18,3b
2019-07-15_144031:640,-0.243011,0.009644,-0.432648,-0.008028,-0.00108,0.009669,-34.369999,13.0,-28.75,3b
2019-07-15_144031:660,-0.241486,0.008118,-0.42858900000000005,-0.007326000000000001,-0.001873,0.011043,-34.369999,13.0,-28.75,3b
2019-07-15_144031:680,-0.244019,0.009125,-0.43011499999999997,-0.0068980000000000005,-0.002728,0.011775,-34.369999,13.0,-28.75,3b
2019-07-15_144031:700,-0.23690799999999998,0.009125,-0.42758199999999996,-0.006319,-0.003307,0.012263,-34.369999,13.37,-28.75,3b
2019-07-15_144031:720,-0.235382,0.009644,-0.431641,-0.0067150000000000005,-0.00465,0.013453,-34.369999,13.37,-28.75,3b
2019-07-15_144031:740,-0.23690799999999998,0.009644,-0.434174,-0.006837,-0.0062369999999999995,0.014766,-34.0,13.37,-30.75,3b
2019-07-15_144031:760,-0.24453699999999998,0.009125,-0.43621800000000005,-0.007448000000000001,-0.007244,0.014918,-34.0,13.37,-30.75,3b
2019-07-15_144031:780,-0.248596,0.006592,-0.43927,-0.007631000000000001,-0.007305,0.013972,-34.0,13.37,-30.75,3b
2019-07-15_144031:800,-0.24706999999999998,0.0030210000000000002,-0.441803,-0.008058,-0.006786,0.011470000000000001,-33.560001,13.37,-29.559998999999998,3b
2019-07-15_144031:820,-0.23995999999999998,0.005065999999999999,-0.439758,-0.007387,-0.005566,0.008784,-33.560001,13.37,-29.559998999999998,3b
2019-07-15_144031:840,-0.23690799999999998,0.005065999999999999,-0.44232200000000005,-0.006776000000000001,-0.005718,0.007594,-34.0,14.06,-30.0,3b
2019-07-15_144031:860,-0.23233,0.005065999999999999,-0.440796,-0.006258,-0.0055049999999999995,0.007136,-34.0,14.06,-30.0,3b
2019-07-15_144031:880,-0.233856,0.006592,-0.440796,-0.005647,-0.005444,0.007075,-34.0,14.06,-30.0,3b
2019-07-15_144031:900,-0.24096700000000001,0.007111,-0.440796,-0.004732,-0.005108,0.006343,-42.369999,14.06,-30.75,3b
2019-07-15_144031:920,-0.241486,0.008118,-0.43774399999999997,-0.0038469999999999997,-0.004376,0.005336,-42.369999,14.06,-30.75,3b
2019-07-15_144031:940,-0.233856,0.010651,-0.435699,-0.003023,-0.0035210000000000003,0.004634,-34.369999,13.25,-30.370001000000002,3b
2019-07-15_144031:960,-0.22216799999999998,0.013213999999999998,-0.431641,-0.0028399999999999996,-0.00346,0.004939,-34.369999,13.25,-30.370001000000002,3b
2019-07-15_144031:980,-0.219635,0.014740000000000001,-0.432648,-0.003145,-0.005108,0.005275,-34.369999,13.25,-30.370001000000002,3b
2019-07-15_144032:000,-0.22116100000000002,0.013213999999999998,-0.433655,-0.0038770000000000002,-0.006756,0.004817,-32.869999,14.0,-29.559998999999998,3b
2019-07-15_144032:020,-0.21453899999999998,0.014221000000000001,-0.43774399999999997,-0.0039380000000000005,-0.007824,0.004542,-32.869999,14.0,-29.559998999999998,3b
2019-07-15_144032:040,-0.222687,0.015228,-0.443329,-0.004457,-0.009441,0.004359,-33.25,14.68,-30.75,3b
2019-07-15_144032:060,-0.224701,0.015747,-0.447388,-0.004915,-0.010143000000000001,0.004298,-33.25,14.68,-30.75,3b
2019-07-15_144032:080,-0.22116100000000002,0.015747,-0.457581,-0.005372999999999999,-0.010204000000000001,0.004634,-33.25,14.68,-30.75,3b
2019-07-15_144032:100,-0.231812,0.014740000000000001,-0.46316499999999994,-0.006197,-0.010479,0.005336,-32.18,13.56,-30.370001000000002,3b
2019-07-15_144032:120,-0.240479,0.015228,-0.46823100000000006,-0.006776000000000001,-0.008953000000000001,0.006068,-32.18,13.56,-30.370001000000002,3b
2019-07-15_144032:140,-0.23995999999999998,0.015228,-0.469757,-0.007265000000000001,-0.006756,0.007197,-32.560001,14.0,-31.18,3b
2019-07-15_144032:160,-0.237427,0.009644,-0.467224,-0.007448000000000001,-0.004437,0.007075,-32.560001,14.0,-31.18,3b
2019-07-15_144032:180,-0.224701,0.009644,-0.465179,-0.007722,-0.0021780000000000002,0.006129,-32.560001,14.0,-31.18,3b
2019-07-15_144032:200,-0.22521999999999998,0.007111,-0.461639,-0.007387,-0.001019,0.007136,-32.18,14.68,-31.18,3b
2019-07-15_144032:220,-0.22421300000000002,0.004059,-0.45706199999999997,-0.006776000000000001,-4.2e-05,0.007686,-32.18,14.68,-31.18,3b
2019-07-15_144032:240,-0.22421300000000002,0.005065999999999999,-0.453491,-0.006135,0.000782,0.007289,-32.18,14.37,-30.370001000000002,3b
2019-07-15_144032:260,-0.223694,0.0055850000000000006,-0.44891400000000004,-0.005189,0.001575,0.007136,-32.18,14.37,-30.370001000000002,3b
2019-07-15_144032:280,-0.219635,0.006592,-0.44433599999999995,-0.004396,0.0021550000000000002,0.006801000000000001,-32.18,14.37,-30.370001000000002,3b
2019-07-15_144032:300,-0.21759,0.0055850000000000006,-0.44281000000000004,-0.004121,0.001972,0.006221,-32.18,14.68,-31.559998999999998,3b
2019-07-15_144032:320,-0.21911599999999998,0.008636,-0.439758,-0.0039380000000000005,0.001362,0.005488,-32.18,14.68,-31.559998999999998,3b
2019-07-15_144032:340,-0.220642,0.008118,-0.440796,-0.0038469999999999997,-4.2e-05,0.004878,-31.75,14.37,-32.0,3b
2019-07-15_144032:360,-0.219635,0.008118,-0.441803,-0.003786,-0.000683,0.004481000000000001,-31.75,14.37,-32.0,3b
2019-07-15_144032:380,-0.223694,0.008118,-0.445862,-0.003084,-0.001782,0.004146,-31.75,14.37,-32.0,3b
2019-07-15_144032:400,-0.222687,0.009125,-0.445862,-0.002748,-0.001934,0.00442,-32.869999,14.06,-31.18,3b
2019-07-15_144032:420,-0.22216799999999998,0.009125,-0.447388,-0.0026260000000000003,-0.002728,0.005336,-32.869999,14.06,-31.18,3b
2019-07-15_144032:440,-0.220123,0.012695,-0.452484,-0.0025039999999999997,-0.002728,0.006221,-31.75,14.06,-31.18,3b
2019-07-15_144032:460,-0.228271,0.010651,-0.45401,-0.002779,-0.002972,0.006862,-31.75,14.06,-31.18,3b
2019-07-15_144032:480,-0.228271,0.010651,-0.453491,-0.003542,-0.00227,0.0077469999999999995,-31.75,14.06,-31.18,3b
2019-07-15_144032:500,-0.227264,0.010162000000000001,-0.453491,-0.00406,-0.001446,0.008388,-24.5,14.75,-31.18,3b
2019-07-15_144032:520,-0.223175,0.008118,-0.455017,-0.004732,-0.000439,0.008143000000000001,-24.5,14.75,-31.18,3b
2019-07-15_144032:540,-0.22216799999999998,0.006592,-0.45605500000000004,-0.00525,-4.2e-05,0.007869,-31.75,14.75,-31.68,3b
2019-07-15_144032:560,-0.22164899999999998,0.004059,-0.451477,-0.005403,0.000294,0.007594,-31.75,14.75,-31.68,3b
2019-07-15_144032:580,-0.219635,0.0035399999999999997,-0.451477,-0.005586,0.0007509999999999999,0.00674,-31.75,14.75,-31.68,3b
2019-07-15_144032:600,-0.22164899999999998,0.000488,-0.45095799999999997,-0.005769,0.000904,0.006282,-31.75,14.5,-31.25,3b
2019-07-15_144032:620,-0.22421300000000002,0.001007,-0.453491,-0.0057079999999999995,0.000629,0.006129,-31.75,14.5,-31.25,3b
2019-07-15_144032:640,-0.22421300000000002,0.000488,-0.45095799999999997,-0.005128,0.001362,0.006068,-31.75,15.56,-32.5,3b
2019-07-15_144032:660,-0.226227,0.0030210000000000002,-0.452484,-0.005372999999999999,0.0011480000000000001,0.00561,-31.75,15.56,-32.5,3b
2019-07-15_144032:680,-0.224701,0.004059,-0.44891400000000004,-0.005128,0.00124,0.005824,-31.75,15.56,-32.5,3b
2019-07-15_144032:700,-0.224701,0.0030210000000000002,-0.44995100000000005,-0.00525,0.0016359999999999999,0.005733,-31.75,14.75,-32.060001,3b
2019-07-15_144032:720,-0.225739,0.001495,-0.449432,-0.005372999999999999,0.0016359999999999999,0.003871,-31.75,14.75,-32.060001,3b
2019-07-15_144032:740,-0.225739,0.0030210000000000002,-0.449432,-0.005067,0.0018809999999999999,0.00265,-31.75,14.75,-30.870001000000002,3b
2019-07-15_144032:760,-0.228271,0.002014,-0.44638100000000003,-0.004579,0.002491,0.0028940000000000003,-31.75,14.75,-30.870001000000002,3b
2019-07-15_144032:780,-0.227753,0.002014,-0.444855,-0.003999,0.002705,0.002833,-31.75,14.75,-30.870001000000002,3b
2019-07-15_144032:800,-0.227753,0.0035399999999999997,-0.44281000000000004,-0.0032670000000000004,0.0026739999999999997,0.002833,-31.059998999999998,14.5,-30.5,3b
2019-07-15_144032:820,-0.219635,0.006072999999999999,-0.44027700000000003,-0.0028399999999999996,0.0023079999999999997,0.003169,-31.059998999999998,14.5,-30.5,3b
2019-07-15_144032:840,-0.220123,0.007599,-0.439758,-0.0026260000000000003,0.001362,0.0032909999999999997,-31.75,14.75,-31.25,3b
2019-07-15_144032:860,-0.224701,0.009125,-0.44027700000000003,-0.0028399999999999996,0.000233,0.0033520000000000004,-31.75,14.75,-31.25,3b
2019-07-15_144032:880,-0.225739,0.010162000000000001,-0.441803,-0.003206,-0.00034700000000000003,0.003901,-31.75,14.75,-31.25,3b
2019-07-15_144032:900,-0.230804,0.008118,-0.44384799999999996,-0.0036030000000000003,-0.0006219999999999999,0.004146,-31.370001000000002,14.75,-31.25,3b
2019-07-15_144032:920,-0.226746,0.010162000000000001,-0.441803,-0.00406,-0.0006219999999999999,0.00442,-31.370001000000002,14.75,-31.25,3b
2019-07-15_144032:940,-0.228271,0.008118,-0.445374,-0.004396,-0.001019,0.0051530000000000005,-32.18,16.0,-30.870001000000002,3b
2019-07-15_144032:960,-0.227264,0.007111,-0.445374,-0.004793,-0.001202,0.005336,-32.18,16.0,-30.870001000000002,3b
2019-07-15_144032:980,-0.227264,0.005065999999999999,-0.446899,-0.0049759999999999995,-0.001537,0.005,-32.18,16.0,-30.870001000000002,3b
2019-07-15_144033:000,-0.22979699999999997,0.005065999999999999,-0.447906,-0.005006,-0.00172,0.004756,-31.059998999999998,15.18,-32.060001,3b
2019-07-15_144033:020,-0.227753,0.007111,-0.44638100000000003,-0.004854,-0.001263,0.004634,-31.059998999999998,15.18,-32.060001,3b
2019-07-15_144033:040,-0.22927899999999998,0.008118,-0.448425,-0.005067,-0.000897,0.004207,-31.370001000000002,14.06,-30.5,3b
2019-07-15_144033:060,-0.22927899999999998,0.009125,-0.447906,-0.005647,-0.000683,0.004024,-31.370001000000002,14.06,-30.5,3b
2019-07-15_144033:080,-0.228271,0.009125,-0.44891400000000004,-0.005922,-0.0005,0.003871,-31.370001000000002,14.06,-30.5,3b
2019-07-15_144033:100,-0.227753,0.008636,-0.44638100000000003,-0.006044,-0.0005610000000000001,0.0033520000000000004,-30.68,14.5,-32.060001,3b
2019-07-15_144033:120,-0.228271,0.009125,-0.44638100000000003,-0.006593000000000001,-0.000958,0.002955,-30.68,14.5,-32.060001,3b
2019-07-15_144033:140,-0.22879000000000002,0.008636,-0.44638100000000003,-0.006502,-0.00034700000000000003,0.002711,-31.059998999999998,15.56,-32.869999,3b
2019-07-15_144033:160,-0.227753,0.009125,-0.446899,-0.0058,-0.000439,0.0025280000000000003,-31.059998999999998,15.56,-32.869999,3b
2019-07-15_144033:180,-0.23028600000000002,0.008118,-0.445862,-0.005189,-0.0005610000000000001,0.00207,-31.059998999999998,15.56,-32.869999,3b
2019-07-15_144033:200,-0.23590100000000003,0.008118,-0.445374,-0.004671,-0.000683,0.002376,-31.75,15.56,-30.0,3b
2019-07-15_144033:220,-0.23233,0.014740000000000001,-0.44384799999999996,-0.0038469999999999997,0.0005070000000000001,0.0032909999999999997,-31.75,15.56,-30.0,3b
2019-07-15_144033:240,-0.227753,0.012177,-0.441803,-0.0038770000000000002,-4.2e-05,0.001674,-31.75,14.5,-31.25,3b
2019-07-15_144033:260,-0.228271,0.015747,-0.44384799999999996,-0.003664,-0.0005610000000000001,0.0017350000000000002,-31.75,14.5,-31.25,3b
2019-07-15_144033:280,-0.224701,0.017273,-0.44281000000000004,-0.0032670000000000004,-0.0014759999999999999,0.002742,-31.75,14.5,-31.25,3b
2019-07-15_144033:300,-0.224701,0.016753999999999998,-0.441803,-0.003145,-0.00227,0.002467,-32.18,14.75,-31.68,3b
2019-07-15_144033:320,-0.22927899999999998,0.016266,-0.44281000000000004,-0.002779,-0.002667,0.002589,-32.18,14.75,-31.68,3b
2019-07-15_144033:340,-0.22879000000000002,0.016266,-0.443329,-0.0029010000000000004,-0.002667,0.002833,-31.370001000000002,14.5,-31.68,3b
2019-07-15_144033:360,-0.22421300000000002,0.019318000000000002,-0.444855,-0.002779,-0.003124,0.004085,-31.370001000000002,14.5,-31.68,3b
2019-07-15_144033:380,-0.22521999999999998,0.01828,-0.445374,-0.003084,-0.003368,0.00442,-31.370001000000002,14.5,-31.68,3b
2019-07-15_144033:400,-0.225739,0.018799,-0.446899,-0.003542,-0.003399,0.00442,-31.370001000000002,14.75,-31.68,3b
2019-07-15_144033:420,-0.227753,0.017792,-0.448425,-0.0039380000000000005,-0.003399,0.004481000000000001,-31.370001000000002,14.75,-31.68,3b
2019-07-15_144033:440,-0.227264,0.016266,-0.449432,-0.004274,-0.003307,0.0042369999999999994,-31.75,14.75,-31.68,3b
2019-07-15_144033:460,-0.227753,0.014740000000000001,-0.45043900000000003,-0.004671,-0.00285,0.004298,-31.75,14.75,-31.68,3b
2019-07-15_144033:480,-0.227753,0.014221000000000001,-0.45095799999999997,-0.004457,-0.002667,0.004695,-31.75,14.75,-31.68,3b
2019-07-15_144033:500,-0.223175,0.012695,-0.45043900000000003,-0.004396,-0.002728,0.004817,-31.370001000000002,15.56,-31.68,3b
2019-07-15_144033:520,-0.22421300000000002,0.012695,-0.449432,-0.0039380000000000005,-0.002392,0.004695,-31.370001000000002,15.56,-31.68,3b
2019-07-15_144033:540,-0.225739,0.012695,-0.45043900000000003,-0.003725,-0.0023309999999999997,0.004756,-31.059998999999998,15.56,-32.5,3b
2019-07-15_144033:560,-0.227753,0.012177,-0.449432,-0.003542,-0.00172,0.004695,-31.059998999999998,15.56,-32.5,3b
2019-07-15_144033:580,-0.223175,0.012695,-0.447388,-0.0033280000000000002,-0.0011099999999999999,0.004817,-31.059998999999998,15.56,-32.5,3b
2019-07-15_144033:600,-0.22164899999999998,0.013702,-0.446899,-0.003542,-0.0014759999999999999,0.004756,-31.059998999999998,15.18,-31.68,3b
2019-07-15_144033:620,-0.220123,0.013702,-0.44638100000000003,-0.00345,-0.0020559999999999997,0.004695,-31.059998999999998,15.18,-31.68,3b
2019-07-15_144033:640,-0.22164899999999998,0.012695,-0.446899,-0.003725,-0.0024530000000000003,0.004939,-30.370001000000002,14.75,-32.5,3b
2019-07-15_144033:660,-0.22216799999999998,0.011169,-0.447388,-0.003999,-0.002575,0.004939,-30.370001000000002,14.75,-32.5,3b
2019-07-15_144033:680,-0.21810900000000003,0.010651,-0.449432,-0.0039380000000000005,-0.00285,0.004207,-30.370001000000002,14.75,-32.5,3b
2019-07-15_144033:700,-0.22164899999999998,0.009125,-0.449432,-0.0038469999999999997,-0.003307,0.004085,-31.059998999999998,14.75,-31.68,3b
2019-07-15_144033:720,-0.226227,0.007111,-0.446899,-0.003542,-0.00227,0.003963,-31.059998999999998,14.75,-31.68,3b
2019-07-15_144033:740,-0.222687,0.009125,-0.449432,-0.00345,-0.002117,0.003901,-31.059998999999998,14.75,-31.68,3b
2019-07-15_144033:760,-0.21859699999999999,0.011687999999999999,-0.44891400000000004,-0.0032670000000000004,-0.0020559999999999997,0.004085,-30.68,16.0,-31.68,3b
2019-07-15_144033:780,-0.21505700000000003,0.010162000000000001,-0.45043900000000003,-0.003389,-0.002575,0.0025280000000000003,-30.68,16.0,-31.68,3b
2019-07-15_144033:800,-0.217072,0.011687999999999999,-0.452484,-0.0038770000000000002,-0.0030629999999999998,0.00085,-31.059998999999998,15.18,-32.5,3b
2019-07-15_144033:820,-0.21606399999999998,0.013213999999999998,-0.453491,-0.003389,-0.003124,0.0012460000000000001,-31.059998999999998,15.18,-32.5,3b
2019-07-15_144033:840,-0.22421300000000002,0.013213999999999998,-0.455017,-0.003084,-0.0031850000000000003,0.0016129999999999999,-31.059998999999998,15.18,-32.5,3b
2019-07-15_144033:860,-0.227264,0.013702,-0.453003,-0.002687,-0.002239,0.001918,-30.68,15.18,-32.5,3b
2019-07-15_144033:880,-0.22116100000000002,0.016266,-0.453003,-0.0025039999999999997,-0.000897,0.0021920000000000004,-30.68,15.18,-32.5,3b
2019-07-15_144033:900,-0.21606399999999998,0.016753999999999998,-0.45043900000000003,-0.003023,-0.0006219999999999999,0.002254,-30.370001000000002,15.18,-32.869999,3b
2019-07-15_144033:920,-0.216583,0.016266,-0.45043900000000003,-0.003389,-0.001263,0.0016129999999999999,-30.370001000000002,15.18,-32.869999,3b
2019-07-15_144033:940,-0.21859699999999999,0.016266,-0.45095799999999997,-0.0034799999999999996,-0.001141,0.001918,-30.0,14.5,-30.870001000000002,3b
2019-07-15_144033:960,-0.21911599999999998,0.013702,-0.45196499999999995,-0.0038469999999999997,-0.001263,0.0024059999999999997,-30.0,14.5,-30.870001000000002,3b
2019-07-15_144033:980,-0.220123,0.013213999999999998,-0.453491,-0.003725,-0.001202,0.002315,-30.0,14.5,-30.870001000000002,3b
2019-07-15_144034:000,-0.22164899999999998,0.013702,-0.454529,-0.0033280000000000002,-0.0008349999999999999,0.0021920000000000004,-29.559998999999998,15.56,-32.5,3b
2019-07-15_144034:020,-0.220123,0.011687999999999999,-0.45196499999999995,-0.002779,-0.0005610000000000001,0.0024059999999999997,-29.559998999999998,15.56,-32.5,3b
2019-07-15_144034:040,-0.22116100000000002,0.013702,-0.453003,-0.00229,-0.000103,0.002131,-29.559998999999998,15.56,-32.5,3b
2019-07-15_144034:060,-0.220123,0.014740000000000001,-0.451477,-0.00229,-0.000103,0.001979,-30.68,14.75,-31.25,3b
2019-07-15_144034:080,-0.22116100000000002,0.016753999999999998,-0.44995100000000005,-0.002107,0.0005679999999999999,0.00207,-30.68,14.75,-31.25,3b
2019-07-15_144034:100,-0.21810900000000003,0.018799,-0.44891400000000004,-0.002443,0.0006900000000000001,0.001918,-31.059998999999998,15.18,-32.5,3b
2019-07-15_144034:120,-0.21911599999999998,0.018799,-0.44995100000000005,-0.0029620000000000002,0.000172,0.002131,-31.059998999999998,15.18,-32.5,3b
2019-07-15_144034:140,-0.219635,0.017273,-0.449432,-0.003389,-4.2e-05,0.0021920000000000004,-31.75,14.75,-31.25,3b
2019-07-15_144034:160,-0.22164899999999998,0.016753999999999998,-0.44995100000000005,-0.003542,-0.000103,0.002589,-31.75,14.75,-31.25,3b
2019-07-15_144034:180,-0.222687,0.015228,-0.44891400000000004,-0.003664,1.9e-05,0.003169,-31.75,14.75,-31.25,3b
2019-07-15_144034:200,-0.222687,0.013213999999999998,-0.44995100000000005,-0.0034799999999999996,0.00011100000000000001,0.003169,-31.370001000000002,14.75,-32.5,3b
2019-07-15_144034:220,-0.22216799999999998,0.014221000000000001,-0.448425,-0.003114,5e-05,0.0032909999999999997,-31.370001000000002,14.75,-32.5,3b
2019-07-15_144034:240,-0.22216799999999998,0.012695,-0.449432,-0.003023,0.000172,0.0035659999999999997,-31.370001000000002,14.75,-32.5,3b
2019-07-15_144034:260,-0.22421300000000002,0.012177,-0.449432,-0.003023,-4.2e-05,0.003078,-31.75,14.75,-32.869999,3b
2019-07-15_144034:280,-0.224701,0.016753999999999998,-0.45043900000000003,-0.0029620000000000002,1.9e-05,0.0036880000000000003,-31.75,14.75,-32.869999,3b
2019-07-15_144034:300,-0.22164899999999998,0.011687999999999999,-0.44995100000000005,-0.003206,5e-05,0.003749,-31.75,15.18,-32.5,3b
2019-07-15_144034:320,-0.225739,0.012695,-0.45043900000000003,-0.003542,0.00035499999999999996,0.001124,-31.75,15.18,-32.5,3b
2019-07-15_144034:340,-0.222687,0.014221000000000001,-0.45043900000000003,-0.0036030000000000003,0.000172,0.0021920000000000004,-31.75,15.18,-32.5,3b
2019-07-15_144034:360,-0.22421300000000002,0.011169,-0.45095799999999997,-0.0029620000000000002,0.0005679999999999999,0.003871,-31.370001000000002,15.56,-31.559998999999998,3b
2019-07-15_144034:380,-0.224701,0.011687999999999999,-0.448425,-0.002779,0.0006900000000000001,0.003474,-31.370001000000002,15.56,-31.559998999999998,3b
2019-07-15_144034:400,-0.225739,0.013213999999999998,-0.44638100000000003,-0.002748,0.0007509999999999999,0.00381,-30.68,15.56,-32.5,3b
2019-07-15_144034:420,-0.217072,0.014740000000000001,-0.44232200000000005,-0.002443,0.001026,0.003963,-30.68,15.56,-32.5,3b
2019-07-15_144034:440,-0.21859699999999999,0.013213999999999998,-0.445862,-0.003114,0.00011100000000000001,0.003169,-30.68,15.56,-32.5,3b
2019-07-15_144034:460,-0.222687,0.014740000000000001,-0.447388,-0.0034799999999999996,-0.000897,0.002711,-31.370001000000002,15.56,-30.75,3b
2019-07-15_144034:480,-0.22879000000000002,0.012695,-0.45043900000000003,-0.003725,-0.00108,0.00323,-31.370001000000002,15.56,-30.75,3b
2019-07-15_144034:500,-0.22927899999999998,0.012177,-0.44891400000000004,-0.004121,-0.0008349999999999999,0.002742,-30.68,15.18,-32.369999,3b
2019-07-15_144034:520,-0.22979699999999997,0.012177,-0.447906,-0.00406,-0.000286,0.003016,-30.68,15.18,-32.369999,3b
2019-07-15_144034:540,-0.227264,0.011169,-0.447388,-0.003664,0.00035499999999999996,0.003901,-30.68,15.18,-32.369999,3b
2019-07-15_144034:560,-0.22421300000000002,0.009644,-0.444855,-0.0034799999999999996,0.00011100000000000001,0.003963,-31.370001000000002,14.75,-32.0,3b
2019-07-15_144034:580,-0.223175,0.009125,-0.445374,-0.0034799999999999996,-0.00037799999999999997,0.0036880000000000003,-31.370001000000002,14.75,-32.0,3b
2019-07-15_144034:600,-0.224701,0.010162000000000001,-0.444855,-0.003206,-0.0007440000000000001,0.0033520000000000004,-31.059998999999998,14.75,-32.369999,3b
2019-07-15_144034:620,-0.223175,0.010651,-0.445374,-0.00345,-0.000958,0.0031079999999999997,-31.059998999999998,14.75,-32.369999,3b
2019-07-15_144034:640,-0.222687,0.012177,-0.44638100000000003,-0.0034799999999999996,-0.001019,0.0028940000000000003,-31.059998999999998,14.75,-32.369999,3b
2019-07-15_144034:660,-0.223175,0.012177,-0.44638100000000003,-0.0036030000000000003,-0.001324,0.0028940000000000003,-31.370001000000002,16.25,-31.559998999999998,3b
2019-07-15_144034:680,-0.22521999999999998,0.010651,-0.44638100000000003,-0.00345,-0.001782,0.003016,-31.370001000000002,16.25,-31.559998999999998,3b
2019-07-15_144034:700,-0.225739,0.011169,-0.447906,-0.003206,-0.001782,0.003169,-31.370001000000002,15.56,-32.75,3b
2019-07-15_144034:720,-0.22521999999999998,0.011687999999999999,-0.44638100000000003,-0.002779,-0.001598,0.003169,-31.370001000000002,15.56,-32.75,3b
2019-07-15_144034:740,-0.22216799999999998,0.011687999999999999,-0.44638100000000003,-0.0026260000000000003,-0.001446,0.0032909999999999997,-31.370001000000002,15.56,-32.75,3b
2019-07-15_144034:760,-0.220123,0.013702,-0.44638100000000003,-0.002565,-0.00172,0.003749,-31.059998999999998,15.56,-31.18,3b
2019-07-15_144034:780,-0.22116100000000002,0.013213999999999998,-0.446899,-0.002687,-0.00227,0.004146,-31.059998999999998,15.56,-31.18,3b
2019-07-15_144034:800,-0.223694,0.014740000000000001,-0.448425,-0.003023,-0.002605,0.00442,-31.370001000000002,14.75,-32.369999,3b
2019-07-15_144034:820,-0.223694,0.015747,-0.44891400000000004,-0.003725,-0.002911,0.005427,-31.370001000000002,14.75,-32.369999,3b
2019-07-15_144034:840,-0.223694,0.009125,-0.45043900000000003,-0.004182,-0.002667,0.004481000000000001,-31.370001000000002,14.75,-32.369999,3b
2019-07-15_144034:860,-0.21810900000000003,0.010651,-0.45196499999999995,-0.004732,-0.0021780000000000002,0.0033520000000000004,-31.059998999999998,16.0,-32.0,3b
2019-07-15_144034:880,-0.220642,0.007599,-0.45196499999999995,-0.004793,-0.0024530000000000003,0.004634,-31.059998999999998,16.0,-32.0,3b
2019-07-15_144034:900,-0.222687,0.0035399999999999997,-0.453003,-0.004243,-0.002392,0.004756,-31.059998999999998,14.75,-33.18,3b
2019-07-15_144034:920,-0.223694,0.0035399999999999997,-0.45095799999999997,-0.003542,-0.001934,0.003963,-31.059998999999998,14.75,-33.18,3b
2019-07-15_144034:940,-0.222687,0.007111,-0.44995100000000005,-0.0025039999999999997,-0.001598,0.0036270000000000004,-31.059998999999998,14.75,-33.18,3b
2019-07-15_144034:960,-0.21859699999999999,0.008118,-0.447906,-0.0023510000000000002,-0.0007740000000000001,0.003505,-30.370001000000002,15.18,-31.559998999999998,3b
2019-07-15_144034:980,-0.210968,0.010651,-0.446899,-0.0025039999999999997,-0.0011099999999999999,0.002742,-30.370001000000002,15.18,-31.559998999999998,3b
2019-07-15_144035:000,-0.21505700000000003,0.012177,-0.45043900000000003,-0.003084,-0.002117,0.002467,-31.059998999999998,15.56,-31.18,3b
2019-07-15_144035:020,-0.219635,0.010651,-0.451477,-0.003542,-0.003307,0.002315,-31.059998999999998,15.56,-31.18,3b
2019-07-15_144035:040,-0.220642,0.009125,-0.452484,-0.004182,-0.002911,0.001338,-31.059998999999998,15.56,-31.18,3b
2019-07-15_144035:060,-0.22421300000000002,0.009125,-0.45553599999999994,-0.00406,-0.002575,0.0010630000000000001,-30.68,14.75,-32.0,3b
2019-07-15_144035:080,-0.220123,0.007599,-0.455017,-0.004274,-0.001598,0.001277,-30.68,14.75,-32.0,3b
2019-07-15_144035:100,-0.220642,0.007111,-0.455017,-0.003725,-0.001385,0.000667,-30.68,14.75,-33.18,3b
2019-07-15_144035:120,-0.222687,0.010162000000000001,-0.452484,-0.0033280000000000002,-0.00108,-5e-06,-30.68,14.75,-33.18,3b
2019-07-15_144035:140,-0.22116100000000002,0.011687999999999999,-0.453491,-0.002748,-0.00034700000000000003,5.6000000000000006e-05,-30.68,14.75,-33.18,3b
2019-07-15_144035:160,-0.21759,0.014740000000000001,-0.45196499999999995,-0.0025039999999999997,-0.00034700000000000003,-0.000127,-31.059998999999998,14.75,-31.559998999999998,3b
2019-07-15_144035:180,-0.220642,0.01828,-0.45043900000000003,-0.0025039999999999997,-0.000286,-0.000279,-31.059998999999998,14.75,-31.559998999999998,3b
2019-07-15_144035:200,-0.220642,0.01828,-0.44995100000000005,-0.003084,-0.000439,0.000148,-36.18,15.56,-32.75,3b
2019-07-15_144035:220,-0.219635,0.01828,-0.447906,-0.003389,-0.000103,0.0010019999999999999,-36.18,15.56,-32.75,3b
2019-07-15_144035:240,-0.21859699999999999,0.016753999999999998,-0.449432,-0.004121,-0.000286,0.001674,-36.18,15.56,-32.75,3b
2019-07-15_144035:260,-0.21759,0.014740000000000001,-0.44891400000000004,-0.004121,-0.00037799999999999997,0.002589,-31.370001000000002,14.06,-32.0,3b
2019-07-15_144035:280,-0.21759,0.014221000000000001,-0.44995100000000005,-0.0039380000000000005,-0.0005610000000000001,0.002589,-31.370001000000002,14.06,-32.0,3b
2019-07-15_144035:300,-0.21911599999999998,0.011687999999999999,-0.45095799999999997,-0.003786,-0.0006219999999999999,0.0027719999999999997,-30.68,14.5,-31.559998999999998,3b
2019-07-15_144035:320,-0.22116100000000002,0.013213999999999998,-0.452484,-0.0036030000000000003,-0.000897,0.002254,-30.68,14.5,-31.559998999999998,3b
2019-07-15_144035:340,-0.220642,0.014740000000000001,-0.45196499999999995,-0.0033280000000000002,-0.001019,0.002467,-30.68,14.5,-31.559998999999998,3b
2019-07-15_144035:360,-0.21911599999999998,0.012695,-0.452484,-0.00345,-0.0006219999999999999,0.002315,-30.68,15.18,-32.369999,3b
2019-07-15_144035:380,-0.220642,0.014740000000000001,-0.454529,-0.0038770000000000002,-0.0005610000000000001,8.7e-05,-30.68,15.18,-32.369999,3b
2019-07-15_144035:400,-0.220123,0.015228,-0.453491,-0.0038770000000000002,-0.000225,0.000545,-30.68,15.18,-31.559998999999998,3b
2019-07-15_144035:420,-0.22216799999999998,0.013213999999999998,-0.45401,-0.0033280000000000002,5e-05,0.002009,-30.68,15.18,-31.559998999999998,3b
2019-07-15_144035:440,-0.223694,0.012695,-0.452484,-0.003023,0.000629,0.0016129999999999999,-30.68,15.18,-31.559998999999998,3b
2019-07-15_144035:460,-0.220123,0.017273,-0.449432,-0.002565,0.000843,0.001582,-31.370001000000002,14.75,-32.0,3b
2019-07-15_144035:480,-0.21810900000000003,0.017792,-0.446899,-0.002168,0.00124,0.0025280000000000003,-31.370001000000002,14.75,-32.0,3b
2019-07-15_144035:500,-0.21859699999999999,0.018799,-0.44638100000000003,-0.002382,0.000965,0.002131,-31.370001000000002,14.5,-32.0,3b
2019-07-15_144035:520,-0.220123,0.019806,-0.443329,-0.003145,0.000446,0.00207,-31.370001000000002,14.5,-32.0,3b
2019-07-15_144035:540,-0.21911599999999998,0.017273,-0.444855,-0.003786,-4.2e-05,0.002955,-31.370001000000002,14.5,-32.0,3b
2019-07-15_144035:560,-0.217072,0.014740000000000001,-0.445862,-0.004335,-0.0007740000000000001,0.0032909999999999997,-31.75,14.75,-31.559998999999998,3b
2019-07-15_144035:580,-0.217072,0.013702,-0.446899,-0.004457,-0.001202,0.003169,-31.75,14.75,-31.559998999999998,3b
2019-07-15_144035:600,-0.22216799999999998,0.012177,-0.44995100000000005,-0.003786,-0.002117,0.003901,-31.059998999999998,16.0,-32.75,3b
2019-07-15_144035:620,-0.22421300000000002,0.011687999999999999,-0.449432,-0.003542,-0.001995,0.003871,-31.059998999999998,16.0,-32.75,3b
2019-07-15_144035:640,-0.224701,0.012177,-0.454529,-0.003114,-0.0016589999999999999,0.00323,-31.059998999999998,16.0,-32.75,3b
2019-07-15_144035:660,-0.226227,0.015228,-0.453491,-0.003145,-0.001385,0.003169,-31.059998999999998,15.18,-32.0,3b
2019-07-15_144035:680,-0.222687,0.016266,-0.452484,-0.003145,-0.0005,0.00323,-31.059998999999998,15.18,-32.0,3b
2019-07-15_144035:700,-0.22116100000000002,0.015228,-0.45095799999999997,-0.003786,-0.0007740000000000001,0.003016,-30.370001000000002,15.18,-32.0,3b
2019-07-15_144035:720,-0.21810900000000003,0.013702,-0.448425,-0.003999,-0.0005610000000000001,0.002955,-30.370001000000002,15.18,-32.0,3b
2019-07-15_144035:740,-0.217072,0.012695,-0.448425,-0.004121,-0.001141,0.0028940000000000003,-30.370001000000002,15.18,-32.0,3b
2019-07-15_144035:760,-0.21759,0.011169,-0.449432,-0.0038770000000000002,-0.001598,0.002711,-31.059998999999998,14.75,-31.18,3b
2019-07-15_144035:780,-0.21911599999999998,0.010651,-0.44891400000000004,-0.0033280000000000002,-0.0016589999999999999,0.0021920000000000004,-31.059998999999998,14.75,-31.18,3b
2019-07-15_144035:800,-0.21759,0.013213999999999998,-0.45095799999999997,-0.0026260000000000003,-0.001537,0.001979,-30.68,14.5,-32.369999,3b
2019-07-15_144035:820,-0.219635,0.013213999999999998,-0.45196499999999995,-0.0023510000000000002,-0.001843,0.00207,-30.68,14.5,-32.369999,3b
2019-07-15_144035:840,-0.222687,0.013702,-0.45196499999999995,-0.0019850000000000002,-0.001873,0.001857,-30.68,14.5,-32.369999,3b
2019-07-15_144035:860,-0.22164899999999998,0.018799,-0.452484,-0.001955,-0.001598,0.002833,-30.370001000000002,15.18,-32.0,3b
2019-07-15_144035:880,-0.21759,0.017792,-0.45196499999999995,-0.002443,-0.001385,0.0032909999999999997,-30.370001000000002,15.18,-32.0,3b
2019-07-15_144035:900,-0.21759,0.016266,-0.45196499999999995,-0.003206,-0.001202,0.001796,-31.059998999999998,15.18,-32.369999,3b
2019-07-15_144035:920,-0.213013,0.016266,-0.45043900000000003,-0.00345,-0.001446,0.002315,-31.059998999999998,15.18,-32.369999,3b
2019-07-15_144035:940,-0.21505700000000003,0.013213999999999998,-0.452484,-0.0033280000000000002,-0.001385,0.003901,-31.059998999999998,15.18,-32.369999,3b
2019-07-15_144035:960,-0.21911599999999998,0.010162000000000001,-0.453003,-0.002687,-0.001324,0.0035659999999999997,-31.059998999999998,14.75,-32.0,3b
2019-07-15_144035:980,-0.222687,0.010651,-0.45196499999999995,-0.002046,-0.001202,0.003474,-31.059998999999998,14.75,-32.0,3b
2019-07-15_144036:000,-0.216583,0.014221000000000001,-0.451477,-0.0018329999999999998,-0.000439,0.004085,-30.68,15.18,-31.559998999999998,3b
2019-07-15_144036:020,-0.21453899999999998,0.013702,-0.45095799999999997,-0.0019850000000000002,-0.0005610000000000001,0.0036270000000000004,-30.68,15.18,-31.559998999999998,3b
2019-07-15_144036:040,-0.21505700000000003,0.014740000000000001,-0.451477,-0.002779,-0.001202,0.003016,-30.68,15.18,-31.559998999999998,3b
2019-07-15_144036:060,-0.217072,0.014221000000000001,-0.45095799999999997,-0.003145,-0.0014759999999999999,0.00323,-30.370001000000002,15.18,-32.0,3b
2019-07-15_144036:080,-0.21810900000000003,0.011687999999999999,-0.45095799999999997,-0.0036030000000000003,-0.0016589999999999999,0.002833,-30.370001000000002,15.18,-32.0,3b
2019-07-15_144036:100,-0.219635,0.009644,-0.453003,-0.00345,-0.001263,0.002711,-30.0,14.75,-31.559998999999998,3b
2019-07-15_144036:120,-0.22216799999999998,0.008118,-0.453003,-0.003206,-0.000958,0.003016,-30.0,14.75,-31.559998999999998,3b
2019-07-15_144036:140,-0.21911599999999998,0.008636,-0.453003,-0.002565,-0.000286,0.0031079999999999997,-30.0,14.75,-31.559998999999998,3b
2019-07-15_144036:160,-0.220123,0.011169,-0.452484,-0.0018329999999999998,-4.2e-05,0.002711,-30.68,15.18,-32.369999,3b
2019-07-15_144036:180,-0.220123,0.011169,-0.45043900000000003,-0.0017100000000000001,-4.2e-05,0.0025280000000000003,-30.68,15.18,-32.369999,3b
2019-07-15_144036:200,-0.21759,0.014740000000000001,-0.449432,-0.001955,5e-05,0.002589,-30.370001000000002,15.18,-32.75,3b
2019-07-15_144036:220,-0.21453899999999998,0.014740000000000001,-0.448425,-0.002443,-0.00037799999999999997,0.002711,-30.370001000000002,15.18,-32.75,3b
2019-07-15_144036:240,-0.217072,0.014740000000000001,-0.44891400000000004,-0.003023,-0.001019,0.0024059999999999997,-30.370001000000002,15.18,-32.75,3b
2019-07-15_144036:260,-0.21859699999999999,0.013702,-0.449432,-0.00345,-0.001385,0.002742,-30.68,15.18,-32.0,3b
2019-07-15_144036:280,-0.22421300000000002,0.012695,-0.449432,-0.00345,-0.001446,0.002955,-30.68,15.18,-32.0,3b
2019-07-15_144036:300,-0.22421300000000002,0.011169,-0.45043900000000003,-0.003145,-0.001141,0.003016,-30.68,14.75,-31.18,3b
2019-07-15_144036:320,-0.22164899999999998,0.010162000000000001,-0.447906,-0.0029010000000000004,-0.0007740000000000001,0.0027719999999999997,-30.68,14.75,-31.18,3b
2019-07-15_144036:340,-0.220123,0.012177,-0.448425,-0.0029620000000000002,-0.0011099999999999999,0.002955,-30.68,14.75,-31.18,3b
2019-07-15_144036:360,-0.217072,0.010651,-0.44638100000000003,-0.002748,-0.001385,0.003078,-31.059998999999998,15.56,-32.369999,3b
2019-07-15_144036:380,-0.220642,0.012177,-0.447906,-0.002779,-0.001995,0.002589,-31.059998999999998,15.56,-32.369999,3b
2019-07-15_144036:400,-0.21911599999999998,0.014740000000000001,-0.44891400000000004,-0.002779,-0.002605,0.0033520000000000004,-30.68,15.18,-32.75,3b
2019-07-15_144036:420,-0.217072,0.012177,-0.449432,-0.003206,-0.0027890000000000002,0.003078,-30.68,15.18,-32.75,3b
2019-07-15_144036:440,-0.22116100000000002,0.010162000000000001,-0.453003,-0.0036030000000000003,-0.00285,0.001399,-30.68,15.18,-32.75,3b
2019-07-15_144036:460,-0.21911599999999998,0.012695,-0.454529,-0.0036030000000000003,-0.0024530000000000003,0.002315,-30.68,15.56,-31.559998999999998,3b
2019-07-15_144036:480,-0.22521999999999998,0.009644,-0.455017,-0.003084,-0.0021780000000000002,0.0033520000000000004,-30.68,15.56,-31.559998999999998,3b
2019-07-15_144036:500,-0.225739,0.010162000000000001,-0.454529,-0.002687,-0.001202,0.003016,-31.059998999999998,14.5,-32.0,3b
2019-07-15_144036:520,-0.223175,0.012695,-0.45095799999999997,-0.002107,-0.000225,0.0032909999999999997,-31.059998999999998,14.5,-32.0,3b
2019-07-15_144036:540,-0.222687,0.014221000000000001,-0.451477,-0.00229,0.00035499999999999996,0.003963,-31.059998999999998,14.5,-32.0,3b
2019-07-15_144036:560,-0.20944200000000002,0.013702,-0.45095799999999997,-0.0026260000000000003,0.0005070000000000001,0.00381,-30.68,16.0,-32.369999,3b
2019-07-15_144036:580,-0.21048000000000003,0.012177,-0.45043900000000003,-0.0032670000000000004,-0.000897,0.003505,-30.68,16.0,-32.369999,3b
2019-07-15_144036:600,-0.21249400000000002,0.011687999999999999,-0.45043900000000003,-0.00345,-0.001537,0.0036880000000000003,-30.68,14.75,-31.559998999999998,3b
2019-07-15_144036:620,-0.21148699999999998,0.010162000000000001,-0.447906,-0.003725,-0.0021780000000000002,0.003078,-30.68,14.75,-31.559998999999998,3b
2019-07-15_144036:640,-0.21453899999999998,0.008636,-0.453003,-0.003664,-0.002575,0.002315,-30.68,14.75,-31.559998999999998,3b
2019-07-15_144036:660,-0.21249400000000002,0.010651,-0.45043900000000003,-0.003664,-0.002911,0.001857,-30.68,15.56,-32.369999,3b
2019-07-15_144036:680,-0.21402,0.012177,-0.453003,-0.0036030000000000003,-0.003002,0.0017350000000000002,-30.68,15.56,-32.369999,3b
2019-07-15_144036:700,-0.22116100000000002,0.011687999999999999,-0.45553599999999994,-0.0036030000000000003,-0.003399,0.0016129999999999999,-31.059998999999998,15.18,-32.369999,3b
2019-07-15_144036:720,-0.223175,0.012695,-0.455017,-0.0034799999999999996,-0.002605,0.001796,-31.059998999999998,15.18,-32.369999,3b
2019-07-15_144036:740,-0.222687,0.012695,-0.455017,-0.003206,-0.001537,0.002711,-31.059998999999998,15.18,-32.369999,3b
2019-07-15_144036:760,-0.21554600000000002,0.013213999999999998,-0.45401,-0.003114,-0.000683,0.0031079999999999997,-30.68,15.56,-33.18,3b
2019-07-15_144036:780,-0.213531,0.012695,-0.454529,-0.003145,-0.000683,0.003169,-30.68,15.56,-33.18,3b
2019-07-15_144036:800,-0.21505700000000003,0.011687999999999999,-0.453003,-0.003084,-0.000958,0.002833,-31.059998999999998,15.18,-34.369999,3b
2019-07-15_144036:820,-0.21453899999999998,0.011687999999999999,-0.452484,-0.0029620000000000002,-0.000958,0.002833,-31.059998999999998,15.18,-34.369999,3b
2019-07-15_144036:840,-0.216583,0.012177,-0.453003,-0.0028399999999999996,-0.0007740000000000001,0.003016,-31.059998999999998,15.18,-34.369999,3b
2019-07-15_144036:860,-0.21554600000000002,0.013213999999999998,-0.45401,-0.0029620000000000002,-0.000683,0.003169,-31.059998999999998,15.18,-32.369999,3b
2019-07-15_144036:880,-0.21402,0.012177,-0.452484,-0.003023,-0.00034700000000000003,0.0033520000000000004,-31.059998999999998,15.18,-32.369999,3b
2019-07-15_144036:900,-0.21453899999999998,0.010162000000000001,-0.452484,-0.003023,-0.000286,0.0034130000000000002,-31.059998999999998,14.06,-33.18,3b
2019-07-15_144036:920,-0.21859699999999999,0.009644,-0.451477,-0.003206,-0.000439,0.003016,-31.059998999999998,14.06,-33.18,3b
2019-07-15_144036:940,-0.217072,0.012695,-0.453491,-0.0033280000000000002,-0.000225,0.003474,-31.059998999999998,14.06,-33.18,3b
2019-07-15_144036:960,-0.21606399999999998,0.008636,-0.45196499999999995,-0.00345,-0.000286,0.0035659999999999997,-35.869999,15.56,-33.560001,3b
2019-07-15_144036:980,-0.21859699999999999,0.008636,-0.453491,-0.003725,-0.000225,0.001521,-35.869999,15.56,-33.560001,3b
2019-07-15_144037:000,-0.21810900000000003,0.009644,-0.45401,-0.003389,5e-05,0.0010019999999999999,-30.68,15.18,-32.75,3b
2019-07-15_144037:020,-0.21554600000000002,0.008636,-0.452484,-0.002748,-4.2e-05,0.0025280000000000003,-30.68,15.18,-32.75,3b
2019-07-15_144037:040,-0.217072,0.009644,-0.45196499999999995,-0.00229,-0.000103,0.00265,-30.68,15.18,-32.75,3b
2019-07-15_144037:060,-0.21859699999999999,0.009644,-0.45095799999999997,-0.002046,-0.000164,0.002589,-30.370001000000002,15.56,-32.369999,3b
2019-07-15_144037:080,-0.21606399999999998,0.013213999999999998,-0.449432,-0.00229,-0.000103,0.003169,-30.370001000000002,15.56,-32.369999,3b
2019-07-15_144037:100,-0.213013,0.011169,-0.45043900000000003,-0.002687,-0.00034700000000000003,0.0028940000000000003,-30.68,15.18,-32.369999,3b
2019-07-15_144037:120,-0.21505700000000003,0.013702,-0.45196499999999995,-0.0032670000000000004,-0.001019,0.002376,-30.68,15.18,-32.369999,3b
2019-07-15_144037:140,-0.21810900000000003,0.012695,-0.452484,-0.003725,-0.001263,0.003016,-30.68,15.18,-32.369999,3b
2019-07-15_144037:160,-0.22116100000000002,0.010162000000000001,-0.453003,-0.0036030000000000003,-0.000683,0.003016,-30.0,15.18,-32.369999,3b
2019-07-15_144037:180,-0.21911599999999998,0.009125,-0.453003,-0.003786,-0.000439,0.0024059999999999997,-30.0,15.18,-32.369999,3b
2019-07-15_144037:200,-0.21859699999999999,0.009125,-0.453003,-0.003542,-0.000286,0.002711,-31.059998999999998,15.18,-32.0,3b
2019-07-15_144037:220,-0.21554600000000002,0.008636,-0.44995100000000005,-0.003023,-0.00037799999999999997,0.003016,-31.059998999999998,15.18,-32.0,3b
2019-07-15_144037:240,-0.217072,0.009644,-0.45095799999999997,-0.0029010000000000004,-0.000683,0.003078,-31.059998999999998,15.18,-32.0,3b
2019-07-15_144037:260,-0.21759,0.011169,-0.45043900000000003,-0.0028399999999999996,-0.0007440000000000001,0.002742,-31.059998999999998,14.75,-32.75,3b
2019-07-15_144037:280,-0.21759,0.011687999999999999,-0.449432,-0.003114,-0.0007440000000000001,0.002711,-31.059998999999998,14.75,-32.75,3b
2019-07-15_144037:300,-0.21759,0.010651,-0.45043900000000003,-0.003145,-0.0007740000000000001,0.002589,-30.68,14.75,-31.559998999999998,3b
2019-07-15_144037:320,-0.21859699999999999,0.011169,-0.449432,-0.003542,-0.000958,0.0025280000000000003,-30.68,14.75,-31.559998999999998,3b
2019-07-15_144037:340,-0.21505700000000003,0.010651,-0.44995100000000005,-0.003542,-0.001019,0.003016,-30.68,14.75,-31.559998999999998,3b
2019-07-15_144037:360,-0.21554600000000002,0.009125,-0.45043900000000003,-0.0033280000000000002,-0.0011099999999999999,0.002742,-30.370001000000002,15.18,-32.369999,3b
2019-07-15_144037:380,-0.21759,0.009644,-0.45196499999999995,-0.003145,-0.001263,0.002589,-30.370001000000002,15.18,-32.369999,3b
2019-07-15_144037:400,-0.216583,0.010162000000000001,-0.453003,-0.0029010000000000004,-0.001537,0.002467,-30.68,14.5,-31.18,3b
2019-07-15_144037:420,-0.21859699999999999,0.010162000000000001,-0.453003,-0.0029620000000000002,-0.001141,0.002254,-30.68,14.5,-31.18,3b
2019-07-15_144037:440,-0.220123,0.014221000000000001,-0.45401,-0.003023,-0.001141,0.0025280000000000003,-30.68,14.5,-31.18,3b
2019-07-15_144037:460,-0.220123,0.012177,-0.45553599999999994,-0.0028399999999999996,-0.000439,0.002833,-31.059998999999998,15.56,-34.0,3b
2019-07-15_144037:480,-0.222687,0.011687999999999999,-0.45196499999999995,-0.0029620000000000002,-0.000286,0.002955,-31.059998999999998,15.56,-34.0,3b
2019-07-15_144037:500,-0.21911599999999998,0.015228,-0.452484,-0.003023,-4.2e-05,0.003505,-30.370001000000002,15.56,-32.369999,3b
2019-07-15_144037:520,-0.213531,0.010651,-0.44995100000000005,-0.003664,5e-05,0.0028940000000000003,-30.370001000000002,15.56,-32.369999,3b
2019-07-15_144037:540,-0.213531,0.010162000000000001,-0.45043900000000003,-0.003664,-0.000683,0.001277,-30.370001000000002,15.56,-32.369999,3b
2019-07-15_144037:560,-0.213013,0.011687999999999999,-0.45196499999999995,-0.0033280000000000002,-0.0007440000000000001,0.0025280000000000003,-30.370001000000002,15.18,-32.0,3b
2019-07-15_144037:580,-0.21859699999999999,0.008118,-0.45196499999999995,-0.002687,-0.000897,0.002955,-30.370001000000002,15.18,-32.0,3b
2019-07-15_144037:600,-0.223175,0.010162000000000001,-0.453491,-0.002046,-0.000439,0.0031079999999999997,-31.059998999999998,15.18,-32.0,3b
2019-07-15_144037:620,-0.22216799999999998,0.012695,-0.45095799999999997,-0.0019850000000000002,0.000233,0.0033520000000000004,-31.059998999999998,15.18,-32.0,3b
2019-07-15_144037:640,-0.21505700000000003,0.014221000000000001,-0.449432,-0.001955,0.0005679999999999999,0.00381,-31.059998999999998,15.18,-32.0,3b
2019-07-15_144037:660,-0.21554600000000002,0.013213999999999998,-0.45095799999999997,-0.0029620000000000002,-0.00037799999999999997,0.00323,-30.68,16.0,-32.369999,3b
2019-07-15_144037:680,-0.217072,0.014740000000000001,-0.449432,-0.003542,-0.0005610000000000001,0.0035659999999999997,-30.68,16.0,-32.369999,3b
2019-07-15_144037:700,-0.219635,0.010651,-0.451477,-0.004121,-0.0007740000000000001,0.003871,-30.68,16.0,-32.369999,3b
2019-07-15_144037:720,-0.22116100000000002,0.006072999999999999,-0.45043900000000003,-0.004121,-0.0007440000000000001,0.0028940000000000003,-30.68,16.0,-32.369999,3b
2019-07-15_144037:740,-0.220123,0.007599,-0.44995100000000005,-0.003664,-0.0005610000000000001,0.003016,-30.68,16.0,-32.369999,3b
2019-07-15_144037:760,-0.21810900000000003,0.006592,-0.45095799999999997,-0.0033280000000000002,-0.000439,0.0033520000000000004,-30.0,15.18,-31.559998999999998,3b
2019-07-15_144037:780,-0.216583,0.008118,-0.44891400000000004,-0.002565,-0.0007740000000000001,0.0033520000000000004,-30.0,15.18,-31.559998999999998,3b
2019-07-15_144037:800,-0.21911599999999998,0.007599,-0.451477,-0.0026260000000000003,-0.001141,0.003169,-30.370001000000002,15.18,-32.0,3b
2019-07-15_144037:820,-0.21810900000000003,0.010651,-0.452484,-0.0029010000000000004,-0.0011099999999999999,0.0033520000000000004,-30.370001000000002,15.18,-32.0,3b
2019-07-15_144037:840,-0.220123,0.010651,-0.451477,-0.003114,-0.000958,0.00323,-30.370001000000002,15.18,-32.0,3b
2019-07-15_144037:860,-0.222687,0.009125,-0.45196499999999995,-0.0038469999999999997,-0.0007740000000000001,0.003169,-31.059998999999998,15.18,-33.18,3b
2019-07-15_144037:880,-0.22116100000000002,0.008636,-0.45043900000000003,-0.004121,-0.0008349999999999999,0.0031079999999999997,-31.059998999999998,15.18,-33.18,3b
2019-07-15_144037:900,-0.219635,0.006592,-0.45095799999999997,-0.003999,-0.00037799999999999997,0.003016,-31.370001000000002,15.56,-32.0,3b
2019-07-15_144037:920,-0.21911599999999998,0.006592,-0.45095799999999997,-0.003786,-0.0005,0.003169,-31.370001000000002,15.56,-32.0,3b
2019-07-15_144037:940,-0.219635,0.007111,-0.44995100000000005,-0.003114,-0.0005610000000000001,0.002833,-31.370001000000002,15.56,-32.0,3b
2019-07-15_144037:960,-0.21810900000000003,0.007599,-0.45043900000000003,-0.003023,-0.0005610000000000001,0.002742,-30.370001000000002,14.75,-32.0,3b
2019-07-15_144037:980,-0.21810900000000003,0.009125,-0.448425,-0.002779,-0.000897,0.002467,-30.370001000000002,14.75,-32.0,3b
2019-07-15_144038:000,-0.21810900000000003,0.011687999999999999,-0.44995100000000005,-0.0028399999999999996,-0.0008349999999999999,0.0025280000000000003,-31.370001000000002,14.75,-32.75,3b
2019-07-15_144038:020,-0.220123,0.010651,-0.44995100000000005,-0.0032670000000000004,-0.001263,0.002589,-31.370001000000002,14.75,-32.75,3b
2019-07-15_144038:040,-0.223175,0.013213999999999998,-0.452484,-0.003542,-0.001324,0.0025280000000000003,-31.370001000000002,14.75,-32.75,3b
2019-07-15_144038:060,-0.22164899999999998,0.011687999999999999,-0.45043900000000003,-0.0038770000000000002,-0.000958,0.003474,-30.370001000000002,15.56,-32.369999,3b
2019-07-15_144038:080,-0.220642,0.008118,-0.449432,-0.00406,-0.000897,0.00265,-30.370001000000002,15.56,-32.369999,3b
2019-07-15_144038:100,-0.216583,0.009644,-0.453003,-0.004335,-0.0007740000000000001,0.0012460000000000001,-30.370001000000002,14.75,-31.18,3b
2019-07-15_144038:120,-0.21453899999999998,0.008118,-0.452484,-0.0034799999999999996,-0.001202,0.0031079999999999997,-30.370001000000002,14.75,-31.18,3b
2019-07-15_144038:140,-0.223175,0.009644,-0.452484,-0.0028399999999999996,-0.001324,0.003078,-30.370001000000002,14.75,-31.18,3b
2019-07-15_144038:160,-0.224701,0.012177,-0.44995100000000005,-0.002443,-0.000286,0.0032909999999999997,-30.68,15.56,-32.0,3b
2019-07-15_144038:180,-0.216583,0.015228,-0.448425,-0.0023510000000000002,0.000172,0.0042369999999999994,-30.68,15.56,-32.0,3b
2019-07-15_144038:200,-0.21453899999999998,0.015747,-0.448425,-0.0032670000000000004,-0.000225,0.004481000000000001,-30.68,15.56,-32.0,3b
2019-07-15_144038:220,-0.21554600000000002,0.014740000000000001,-0.449432,-0.004121,-0.000958,0.004756,-30.0,15.56,-32.0,3b
2019-07-15_144038:240,-0.217072,0.011169,-0.448425,-0.004854,-0.001141,0.005763,-30.0,15.56,-32.0,3b
2019-07-15_144038:260,-0.222687,0.004547,-0.452484,-0.004671,-0.001385,0.0051530000000000005,-30.68,15.18,-31.559998999999998,3b
2019-07-15_144038:280,-0.222687,0.0035399999999999997,-0.45196499999999995,-0.00406,-0.00108,0.003901,-30.68,15.18,-31.559998999999998,3b
2019-07-15_144038:300,-0.220642,0.005065999999999999,-0.45196499999999995,-0.003114,-0.000958,0.004603,-30.68,15.18,-31.559998999999998,3b
2019-07-15_144038:320,-0.21911599999999998,0.004059,-0.451477,-0.002168,-0.0007440000000000001,0.004695,-30.370001000000002,15.56,-31.559998999999998,3b
2019-07-15_144038:340,-0.219635,0.006072999999999999,-0.44995100000000005,-0.0017100000000000001,-0.0006219999999999999,0.004085,-30.370001000000002,15.56,-31.559998999999998,3b
2019-07-15_144038:360,-0.219635,0.009125,-0.44891400000000004,-0.001314,-0.000958,0.0042369999999999994,-31.370001000000002,15.18,-32.369999,3b
2019-07-15_144038:380,-0.21859699999999999,0.009125,-0.446899,-0.0016489999999999999,-0.00108,0.004481000000000001,-31.370001000000002,15.18,-32.369999,3b
2019-07-15_144038:400,-0.217072,0.011687999999999999,-0.44891400000000004,-0.0023510000000000002,-0.001446,0.004695,-31.370001000000002,15.18,-32.369999,3b
2019-07-15_144038:420,-0.21554600000000002,0.012695,-0.448425,-0.003389,-0.002239,0.004939,-30.370001000000002,15.56,-31.18,3b
2019-07-15_144038:440,-0.21453899999999998,0.011169,-0.44891400000000004,-0.00406,-0.00285,0.005336,-30.370001000000002,15.56,-31.18,3b
2019-07-15_144038:460,-0.217072,0.006592,-0.45095799999999997,-0.004915,-0.0035210000000000003,0.005427,-31.059998999999998,15.56,-33.18,3b
2019-07-15_144038:480,-0.22164899999999998,0.004547,-0.45196499999999995,-0.005067,-0.003307,0.005488,-31.059998999999998,15.56,-33.18,3b
2019-07-15_144038:500,-0.21911599999999998,0.002014,-0.45401,-0.004915,-0.002514,0.005672,-31.059998999999998,15.56,-33.18,3b
2019-07-15_144038:520,-0.21759,-0.001495,-0.454529,-0.004182,-0.002117,0.005031,-31.059998999999998,16.25,-33.560001,3b
2019-07-15_144038:540,-0.21554600000000002,0.001007,-0.452484,-0.0038469999999999997,-0.0023309999999999997,0.00442,-31.059998999999998,16.25,-33.560001,3b
2019-07-15_144038:560,-0.21402,-0.000488,-0.453491,-0.0032670000000000004,-0.002117,0.004359,-30.0,16.25,-32.75,3b
2019-07-15_144038:580,-0.219635,0.001007,-0.45196499999999995,-0.003084,-0.002392,0.003749,-30.0,16.25,-32.75,3b
2019-07-15_144038:600,-0.21554600000000002,0.004547,-0.452484,-0.002443,-0.002239,0.00381,-30.0,16.25,-32.75,3b
2019-07-15_144038:620,-0.212006,0.0035399999999999997,-0.451477,-0.002779,-0.00227,0.003474,-29.559998999999998,16.0,-32.0,3b
2019-07-15_144038:640,-0.21148699999999998,0.004547,-0.453491,-0.003145,-0.00227,0.001979,-29.559998999999998,16.0,-32.0,3b
2019-07-15_144038:660,-0.20944200000000002,0.006072999999999999,-0.45401,-0.0033280000000000002,-0.002667,0.002467,-30.0,16.0,-32.369999,3b
2019-07-15_144038:680,-0.21606399999999998,0.0035399999999999997,-0.454529,-0.003542,-0.002728,0.0034130000000000002,-30.0,16.0,-32.369999,3b
2019-07-15_144038:700,-0.21810900000000003,0.001495,-0.45553599999999994,-0.003084,-0.002117,0.002955,-30.0,16.0,-32.369999,3b
2019-07-15_144038:720,-0.21505700000000003,0.004059,-0.45605500000000004,-0.0026260000000000003,-0.0014759999999999999,0.0033520000000000004,-29.18,16.0,-33.18,3b
2019-07-15_144038:740,-0.210968,0.0055850000000000006,-0.45553599999999994,-0.002687,-0.001263,0.0035659999999999997,-29.18,16.0,-33.18,3b
2019-07-15_144038:760,-0.210968,0.006072999999999999,-0.45605500000000004,-0.0028399999999999996,-0.0016589999999999999,0.002742,-29.559998999999998,15.56,-33.18,3b
2019-07-15_144038:780,-0.21148699999999998,0.008118,-0.45605500000000004,-0.0036030000000000003,-0.001598,0.002315,-29.559998999999998,15.56,-33.18,3b
2019-07-15_144038:800,-0.213531,0.008636,-0.45654300000000003,-0.0038469999999999997,-0.001537,0.002589,-29.559998999999998,15.56,-33.18,3b
2019-07-15_144038:820,-0.21606399999999998,0.005065999999999999,-0.45654300000000003,-0.004274,-0.0014759999999999999,0.0021920000000000004,-30.0,16.0,-33.18,3b
2019-07-15_144038:840,-0.216583,0.004059,-0.45553599999999994,-0.004579,-0.0008349999999999999,0.001399,-30.0,16.0,-33.18,3b
2019-07-15_144038:860,-0.21606399999999998,0.0030210000000000002,-0.45654300000000003,-0.00406,-0.000286,0.001582,-30.370001000000002,16.0,-33.18,3b
2019-07-15_144038:880,-0.209961,0.0035399999999999997,-0.453491,-0.0036030000000000003,-0.000103,0.001796,-30.370001000000002,16.0,-33.18,3b
2019-07-15_144038:900,-0.210968,0.004059,-0.455017,-0.0029010000000000004,1.9e-05,0.001399,-30.370001000000002,16.0,-33.18,3b
2019-07-15_144038:920,-0.21249400000000002,0.006072999999999999,-0.45401,-0.0026260000000000003,-0.0007440000000000001,0.0012460000000000001,-29.559998999999998,15.18,-32.75,3b
2019-07-15_144038:940,-0.21505700000000003,0.007111,-0.45401,-0.002443,-0.000683,0.001338,-29.559998999999998,15.18,-32.75,3b
2019-07-15_144038:960,-0.21453899999999998,0.009644,-0.455017,-0.002687,-0.0005,0.001277,-30.370001000000002,14.75,-32.369999,3b
2019-07-15_144038:980,-0.21453899999999998,0.010162000000000001,-0.45401,-0.003114,-4.2e-05,0.0012460000000000001,-30.370001000000002,14.75,-32.369999,3b
2019-07-15_144039:000,-0.21453899999999998,0.009644,-0.452484,-0.003389,-4.2e-05,0.001338,-30.370001000000002,14.75,-32.369999,3b
2019-07-15_144039:020,-0.21402,0.008636,-0.452484,-0.003725,5e-05,0.0017350000000000002,-30.0,16.25,-32.0,3b
2019-07-15_144039:040,-0.21505700000000003,0.007599,-0.453003,-0.0039380000000000005,5e-05,0.001979,-30.0,16.25,-32.0,3b
2019-07-15_144039:060,-0.21505700000000003,0.0055850000000000006,-0.451477,-0.003786,5e-05,0.001979,-30.0,16.0,-32.75,3b
2019-07-15_144039:080,-0.213531,0.006072999999999999,-0.44995100000000005,-0.003145,-4.2e-05,0.001918,-30.0,16.0,-32.75,3b
2019-07-15_144039:100,-0.213531,0.007111,-0.45095799999999997,-0.003145,-0.0007440000000000001,0.002009,-30.0,16.0,-32.75,3b
2019-07-15_144039:120,-0.21505700000000003,0.007599,-0.45043900000000003,-0.0029010000000000004,-0.000958,0.002131,-29.559998999999998,15.18,-33.18,3b
2019-07-15_144039:140,-0.21911599999999998,0.009644,-0.451477,-0.003023,-0.001202,0.002467,-29.559998999999998,15.18,-33.18,3b
2019-07-15_144039:160,-0.21453899999999998,0.010162000000000001,-0.451477,-0.003389,-0.00108,0.00323,-30.68,14.75,-32.369999,3b
2019-07-15_144039:180,-0.21249400000000002,0.007111,-0.451477,-0.0038469999999999997,-0.001385,0.002376,-30.68,14.75,-32.369999,3b
2019-07-15_144039:200,-0.213013,0.007111,-0.454529,-0.00461,-0.001537,0.00146,-30.68,14.75,-32.369999,3b
2019-07-15_144039:220,-0.212006,0.0055850000000000006,-0.455017,-0.004182,-0.001782,0.002376,-30.0,16.0,-31.18,3b
2019-07-15_144039:240,-0.217072,0.002014,-0.45605500000000004,-0.003786,-0.001843,0.002315,-30.0,16.0,-31.18,3b
2019-07-15_144039:260,-0.219635,0.0035399999999999997,-0.45654300000000003,-0.0029620000000000002,-0.001324,0.001796,-30.0,16.0,-32.369999,3b
2019-07-15_144039:280,-0.21606399999999998,0.007111,-0.453491,-0.00229,-0.0006219999999999999,0.002009,-30.0,16.0,-32.369999,3b
2019-07-15_144039:300,-0.210968,0.010651,-0.452484,-0.00229,-0.0006219999999999999,0.0017350000000000002,-30.0,16.0,-32.369999,3b
2019-07-15_144039:320,-0.21249400000000002,0.011687999999999999,-0.45196499999999995,-0.0029010000000000004,-0.0011099999999999999,0.0010630000000000001,-29.559998999999998,15.56,-32.369999,3b
2019-07-15_144039:340,-0.210968,0.014221000000000001,-0.451477,-0.0034799999999999996,-0.00108,0.001124,-29.559998999999998,15.56,-32.369999,3b
2019-07-15_144039:360,-0.21249400000000002,0.011169,-0.452484,-0.004121,-0.001446,0.001674,-30.370001000000002,16.0,-31.559998999999998,3b
2019-07-15_144039:380,-0.213013,0.009125,-0.45196499999999995,-0.004335,-0.001537,0.001277,-30.370001000000002,16.0,-31.559998999999998,3b
2019-07-15_144039:400,-0.21554600000000002,0.008636,-0.455017,-0.004243,-0.00172,0.001399,-30.370001000000002,16.0,-31.559998999999998,3b
2019-07-15_144039:420,-0.213531,0.008636,-0.454529,-0.00345,-0.001537,0.001674,-30.370001000000002,15.56,-32.75,3b
2019-07-15_144039:440,-0.217072,0.010651,-0.45553599999999994,-0.003084,-0.001446,0.001918,-30.370001000000002,15.56,-32.75,3b
2019-07-15_144039:460,-0.217072,0.011687999999999999,-0.45605500000000004,-0.002748,-0.001141,0.002131,-29.18,15.18,-32.0,3b
2019-07-15_144039:480,-0.21148699999999998,0.013702,-0.454529,-0.002748,-0.0008349999999999999,0.002711,-29.18,15.18,-32.0,3b
2019-07-15_144039:500,-0.210968,0.012695,-0.455017,-0.003084,-0.0007740000000000001,0.002833,-29.18,15.18,-32.0,3b
2019-07-15_144039:520,-0.21148699999999998,0.011169,-0.45401,-0.0036030000000000003,-0.001324,0.003016,-29.559998999999998,15.56,-32.369999,3b
2019-07-15_144039:540,-0.21148699999999998,0.010162000000000001,-0.452484,-0.003664,-0.00108,0.003078,-29.559998999999998,15.56,-32.369999,3b
2019-07-15_144039:560,-0.213531,0.009125,-0.453491,-0.003664,-0.001385,0.0032909999999999997,-31.059998999999998,15.56,-34.0,3b
2019-07-15_144039:580,-0.21402,0.008118,-0.45401,-0.003786,-0.001537,0.003474,-31.059998999999998,15.56,-34.0,3b
2019-07-15_144039:600,-0.213531,0.007599,-0.454529,-0.003786,-0.00108,0.0033520000000000004,-31.059998999999998,15.56,-34.0,3b
2019-07-15_144039:620,-0.217072,0.006592,-0.453491,-0.0039380000000000005,-0.001537,0.002955,-31.059998999999998,15.18,-33.18,3b
2019-07-15_144039:640,-0.217072,0.0055850000000000006,-0.453003,-0.003664,-0.001446,0.002467,-31.059998999999998,15.18,-33.18,3b
2019-07-15_144039:660,-0.217072,0.007599,-0.452484,-0.003114,-0.00108,0.00207,-30.68,15.56,-31.559998999999998,3b
2019-07-15_144039:680,-0.21505700000000003,0.010162000000000001,-0.44995100000000005,-0.0029010000000000004,-0.00108,0.002009,-30.68,15.56,-31.559998999999998,3b
2019-07-15_144039:700,-0.212006,0.012695,-0.44891400000000004,-0.003114,-0.001202,0.001979,-30.68,15.56,-31.559998999999998,3b
2019-07-15_144039:720,-0.21505700000000003,0.013702,-0.45043900000000003,-0.0034799999999999996,-0.001873,0.002589,-30.370001000000002,15.56,-32.369999,3b
2019-07-15_144039:740,-0.20843499999999998,0.014740000000000001,-0.44891400000000004,-0.003786,-0.0016589999999999999,0.0033520000000000004,-30.370001000000002,15.56,-32.369999,3b
2019-07-15_144039:760,-0.20742800000000003,0.011687999999999999,-0.453491,-0.004579,-0.002728,0.002833,-30.0,15.18,-34.0,3b
2019-07-15_144039:780,-0.21148699999999998,0.009125,-0.455017,-0.005067,-0.0030629999999999998,0.0017350000000000002,-30.0,15.18,-34.0,3b
2019-07-15_144039:800,-0.212006,0.011169,-0.45806899999999995,-0.004671,-0.0030629999999999998,0.001979,-30.0,15.18,-34.0,3b
2019-07-15_144039:820,-0.216583,0.010162000000000001,-0.45907600000000004,-0.003664,-0.002667,0.0035659999999999997,-30.370001000000002,15.56,-32.369999,3b
2019-07-15_144039:840,-0.21911599999999998,0.010162000000000001,-0.45806899999999995,-0.003023,-0.001873,0.003963,-30.370001000000002,15.56,-32.369999,3b
2019-07-15_144039:860,-0.213531,0.012695,-0.45806899999999995,-0.00229,-0.00108,0.004146,-30.0,15.56,-33.18,3b
2019-07-15_144039:880,-0.206909,0.014740000000000001,-0.453491,-0.002229,-0.00034700000000000003,0.005,-30.0,15.56,-33.18,3b
2019-07-15_144039:900,-0.205902,0.014221000000000001,-0.451477,-0.002565,-0.0007740000000000001,0.004634,-30.0,15.56,-33.18,3b
2019-07-15_144039:920,-0.20538299999999998,0.013213999999999998,-0.452484,-0.003023,-0.0011099999999999999,0.004085,-30.0,16.0,-33.18,3b
2019-07-15_144039:940,-0.20639000000000002,0.009644,-0.45196499999999995,-0.003206,-0.00172,0.004817,-30.0,16.0,-33.18,3b
2019-07-15_144039:960,-0.205902,0.007111,-0.453003,-0.003023,-0.002239,0.005,-30.0,15.18,-32.369999,3b
2019-07-15_144039:980,-0.20538299999999998,0.007111,-0.45553599999999994,-0.002779,-0.002392,0.004634,-30.0,15.18,-32.369999,3b
2019-07-15_144040:000,-0.20843499999999998,0.005065999999999999,-0.45806899999999995,-0.00229,-0.002972,0.0051530000000000005,-30.0,15.18,-32.369999,3b
2019-07-15_144040:020,-0.212006,0.0055850000000000006,-0.460114,-0.0018329999999999998,-0.002605,0.005031,-29.18,16.0,-31.559998999999998,3b
2019-07-15_144040:040,-0.212006,0.004547,-0.460114,-0.001436,-0.001934,0.005336,-29.18,16.0,-31.559998999999998,3b
2019-07-15_144040:060,-0.213013,0.0035399999999999997,-0.461639,-0.001039,-0.0014759999999999999,0.005336,-29.559998999999998,16.25,-32.369999,3b
2019-07-15_144040:080,-0.21048000000000003,0.0030210000000000002,-0.460114,-0.001222,-0.000958,0.00442,-29.559998999999998,16.25,-32.369999,3b
2019-07-15_144040:100,-0.21148699999999998,0.0055850000000000006,-0.45907600000000004,-0.0011,-0.000897,0.003749,-29.559998999999998,16.25,-32.369999,3b
2019-07-15_144040:120,-0.212006,0.0055850000000000006,-0.45654300000000003,-0.0017100000000000001,-0.000103,0.003474,-30.0,15.56,-31.559998999999998,3b
2019-07-15_144040:140,-0.21453899999999998,0.004059,-0.45706199999999997,-0.0023510000000000002,5e-05,0.002467,-30.0,15.56,-31.559998999999998,3b
2019-07-15_144040:160,-0.20944200000000002,0.006072999999999999,-0.45605500000000004,-0.002779,0.0005070000000000001,0.002131,-29.559998999999998,16.25,-32.75,3b
2019-07-15_144040:180,-0.21249400000000002,0.0030210000000000002,-0.454529,-0.00345,0.00011100000000000001,0.001674,-29.559998999999998,16.25,-32.75,3b
2019-07-15_144040:200,-0.213013,0.0025329999999999997,-0.455017,-0.003725,5e-05,0.000789,-29.559998999999998,16.25,-32.75,3b
2019-07-15_144040:220,-0.212006,0.0035399999999999997,-0.455017,-0.003389,0.0005070000000000001,0.00027,-29.18,16.25,-32.369999,3b
2019-07-15_144040:240,-0.20944200000000002,0.0035399999999999997,-0.45401,-0.002748,0.000843,0.000148,-29.18,16.25,-32.369999,3b
2019-07-15_144040:260,-0.207916,0.005065999999999999,-0.45095799999999997,-0.0019850000000000002,0.001026,5.6000000000000006e-05,-29.559998999999998,16.0,-33.18,3b
2019-07-15_144040:280,-0.199799,0.008118,-0.45095799999999997,-0.001436,0.000904,0.000453,-29.559998999999998,16.0,-33.18,3b
2019-07-15_144040:300,-0.201843,0.011169,-0.453003,-0.000978,-4.2e-05,0.001185,-29.559998999999998,16.0,-33.18,3b
2019-07-15_144040:320,-0.220123,0.012695,-0.453003,-0.001039,-0.001202,0.001277,-29.559998999999998,15.56,-32.0,3b
2019-07-15_144040:340,-0.216583,0.015228,-0.453491,-0.001771,-0.0008349999999999999,0.002131,-29.559998999999998,15.56,-32.0,3b
2019-07-15_144040:360,-0.207916,0.014221000000000001,-0.453491,-0.00229,5e-05,0.003749,-30.370001000000002,15.56,-32.75,3b
2019-07-15_144040:380,-0.20486500000000002,0.013213999999999998,-0.45605500000000004,-0.003084,0.00011100000000000001,0.0028940000000000003,-30.370001000000002,15.56,-32.75,3b
2019-07-15_144040:400,-0.213013,0.014221000000000001,-0.457581,-0.004121,-0.001141,0.001918,-30.370001000000002,15.56,-32.75,3b
2019-07-15_144040:420,-0.21911599999999998,0.011687999999999999,-0.45706199999999997,-0.004854,-0.0007740000000000001,0.00381,-30.0,16.25,-30.75,3b
2019-07-15_144040:440,-0.21148699999999998,0.007599,-0.45401,-0.005189,-0.000103,0.005824,-30.0,16.25,-30.75,3b
2019-07-15_144040:460,-0.204376,0.005065999999999999,-0.454529,-0.005586,0.0005679999999999999,0.006618000000000001,-29.18,15.56,-32.75,3b
2019-07-15_144040:480,-0.204376,0.002014,-0.45196499999999995,-0.005525,0.000233,0.007411,-29.18,15.56,-32.75,3b
2019-07-15_144040:500,-0.21148699999999998,-0.0025329999999999997,-0.453491,-0.005647,-0.0008349999999999999,0.006801000000000001,-29.18,15.56,-32.75,3b
2019-07-15_144040:520,-0.209961,-0.0035399999999999997,-0.45401,-0.004915,-0.0006219999999999999,0.0058850000000000005,-30.0,15.56,-32.0,3b
2019-07-15_144040:540,-0.210968,-0.001495,-0.454529,-0.004121,-0.000683,0.005672,-30.0,15.56,-32.0,3b
2019-07-15_144040:560,-0.207916,0.0,-0.45654300000000003,-0.00345,-0.0011099999999999999,0.004756,-30.0,15.56,-32.369999,3b
2019-07-15_144040:580,-0.212006,0.0030210000000000002,-0.45806899999999995,-0.003542,-0.001263,0.003871,-30.0,15.56,-32.369999,3b
2019-07-15_144040:600,-0.212006,0.004547,-0.459595,-0.004121,-0.000958,0.0036880000000000003,-30.0,15.56,-32.369999,3b
2019-07-15_144040:620,-0.208954,0.0025329999999999997,-0.460114,-0.004671,-0.0005,0.0031079999999999997,-29.559998999999998,16.0,-32.369999,3b
2019-07-15_144040:640,-0.216583,0.002014,-0.45806899999999995,-0.005189,-0.000286,0.001979,-29.559998999999998,16.0,-32.369999,3b
2019-07-15_144040:660,-0.21505700000000003,0.0025329999999999997,-0.45706199999999997,-0.005128,0.0006900000000000001,0.001399,-29.559998999999998,16.25,-32.75,3b
2019-07-15_144040:680,-0.213531,0.0035399999999999997,-0.455017,-0.004579,0.000843,0.001338,-29.559998999999998,16.25,-32.75,3b
2019-07-15_144040:700,-0.213531,0.007111,-0.454529,-0.004396,0.000965,0.001399,-29.559998999999998,16.25,-32.75,3b
2019-07-15_144040:720,-0.21453899999999998,0.007111,-0.451477,-0.004274,0.001179,0.001277,-31.059998999999998,15.56,-31.559998999999998,3b
2019-07-15_144040:740,-0.21453899999999998,0.008636,-0.45043900000000003,-0.004182,0.0010869999999999999,0.001338,-31.059998999999998,15.56,-31.559998999999998,3b
2019-07-15_144040:760,-0.21402,0.007599,-0.44891400000000004,-0.00406,0.0006900000000000001,0.001124,-30.68,16.0,-32.369999,3b
2019-07-15_144040:780,-0.20843499999999998,0.007599,-0.447388,-0.0036030000000000003,0.00038500000000000003,0.001124,-30.68,16.0,-32.369999,3b
2019-07-15_144040:800,-0.21148699999999998,0.010162000000000001,-0.44891400000000004,-0.0029010000000000004,-0.0005610000000000001,0.001124,-30.68,16.0,-32.369999,3b
2019-07-15_144040:820,-0.217072,0.011169,-0.449432,-0.002687,-0.001019,0.001521,-30.370001000000002,16.25,-32.369999,3b
2019-07-15_144040:840,-0.21759,0.013702,-0.45095799999999997,-0.002748,-0.0011099999999999999,0.002467,-30.370001000000002,16.25,-32.369999,3b
2019-07-15_144040:860,-0.213013,0.013213999999999998,-0.452484,-0.002687,-0.0007440000000000001,0.002711,-30.0,15.56,-31.559998999999998,3b
2019-07-15_144040:880,-0.21453899999999998,0.011687999999999999,-0.452484,-0.0036030000000000003,-0.001385,0.002376,-30.0,15.56,-31.559998999999998,3b
2019-07-15_144040:900,-0.216583,0.011687999999999999,-0.45553599999999994,-0.003389,-0.001385,0.002711,-30.0,15.56,-31.559998999999998,3b
2019-07-15_144040:920,-0.21505700000000003,0.008636,-0.453491,-0.003206,-0.0011099999999999999,0.002833,-30.0,15.56,-32.369999,3b
2019-07-15_144040:940,-0.220123,0.007599,-0.453003,-0.0032670000000000004,-0.001202,0.002742,-30.0,15.56,-32.369999,3b
2019-07-15_144040:960,-0.21554600000000002,0.010651,-0.453003,-0.0029620000000000002,-0.0008349999999999999,0.0034130000000000002,-30.0,14.75,-33.18,3b
2019-07-15_144040:980,-0.212006,0.008118,-0.45196499999999995,-0.003084,-0.000958,0.003016,-30.0,14.75,-33.18,3b
2019-07-15_144041:000,-0.213013,0.009644,-0.454529,-0.0034799999999999996,-0.001019,0.001796,-30.0,14.75,-33.18,3b
2019-07-15_144041:020,-0.212006,0.010651,-0.453491,-0.0034799999999999996,-0.00108,0.0025280000000000003,-29.559998999999998,15.18,-32.75,3b
2019-07-15_144041:040,-0.21911599999999998,0.008118,-0.452484,-0.00345,-0.001263,0.002955,-29.559998999999998,15.18,-32.75,3b
2019-07-15_144041:060,-0.21810900000000003,0.009125,-0.45196499999999995,-0.0032670000000000004,-0.0007740000000000001,0.003016,-30.370001000000002,15.18,-32.75,3b
2019-07-15_144041:080,-0.212006,0.010651,-0.45095799999999997,-0.0029010000000000004,-0.0005,0.003474,-30.370001000000002,15.18,-32.75,3b
2019-07-15_144041:100,-0.205902,0.010651,-0.451477,-0.003206,-0.001019,0.003474,-30.370001000000002,15.18,-32.75,3b
2019-07-15_144041:120,-0.210968,0.009644,-0.451477,-0.0033280000000000002,-0.001843,0.002833,-29.559998999999998,16.0,-32.75,3b
2019-07-15_144041:140,-0.21402,0.012177,-0.454529,-0.0033280000000000002,-0.002392,0.003169,-29.559998999999998,16.0,-32.75,3b
2019-07-15_144041:160,-0.21606399999999998,0.011687999999999999,-0.454529,-0.0034799999999999996,-0.0021780000000000002,0.004207,-30.68,15.18,-32.0,3b
2019-07-15_144041:180,-0.21911599999999998,0.010162000000000001,-0.45401,-0.0039380000000000005,-0.001843,0.0036880000000000003,-30.68,15.18,-32.0,3b
2019-07-15_144041:200,-0.213013,0.010651,-0.455017,-0.00406,-0.0011099999999999999,0.0033520000000000004,-30.68,15.18,-32.0,3b
2019-07-15_144041:220,-0.21249400000000002,0.010162000000000001,-0.455017,-0.004121,-0.0011099999999999999,0.004207,-30.0,15.56,-32.369999,3b
2019-07-15_144041:240,-0.21148699999999998,0.010651,-0.453003,-0.004243,-0.001324,0.004695,-30.0,15.56,-32.369999,3b
2019-07-15_144041:260,-0.213013,0.011687999999999999,-0.453003,-0.004457,-0.001598,0.004542,-30.370001000000002,16.0,-32.369999,3b
2019-07-15_144041:280,-0.213013,0.010651,-0.454529,-0.004457,-0.001446,0.004817,-30.370001000000002,16.0,-32.369999,3b
2019-07-15_144041:300,-0.213531,0.008118,-0.452484,-0.00461,-0.001324,0.004695,-30.370001000000002,16.0,-32.369999,3b
2019-07-15_144041:320,-0.21249400000000002,0.007111,-0.455017,-0.004396,-0.0016589999999999999,0.0042369999999999994,-30.370001000000002,15.56,-31.18,3b
2019-07-15_144041:340,-0.21249400000000002,0.008636,-0.45401,-0.004457,-0.001782,0.004024,-30.370001000000002,15.56,-31.18,3b
2019-07-15_144041:360,-0.212006,0.007111,-0.45401,-0.004335,-0.00172,0.003749,-29.559998999999998,14.75,-32.75,3b
2019-07-15_144041:380,-0.21249400000000002,0.006072999999999999,-0.45401,-0.0039380000000000005,-0.001598,0.00323,-29.559998999999998,14.75,-32.75,3b
2019-07-15_144041:400,-0.213531,0.006592,-0.452484,-0.0039380000000000005,-0.0014759999999999999,0.0027719999999999997,-29.559998999999998,14.75,-32.75,3b
2019-07-15_144041:420,-0.209961,0.009125,-0.453003,-0.0036030000000000003,-0.001782,0.002711,-28.870001000000002,16.0,-32.75,3b
2019-07-15_144041:440,-0.20944200000000002,0.009125,-0.452484,-0.003664,-0.00172,0.0024059999999999997,-28.870001000000002,16.0,-32.75,3b
2019-07-15_144041:460,-0.21048000000000003,0.009125,-0.453491,-0.003664,-0.002117,0.002009,-29.18,16.0,-33.18,3b
2019-07-15_144041:480,-0.21148699999999998,0.009125,-0.454529,-0.0034799999999999996,-0.00227,0.002254,-29.18,16.0,-33.18,3b
2019-07-15_144041:500,-0.21148699999999998,0.009644,-0.45553599999999994,-0.003145,-0.001843,0.0024059999999999997,-29.18,16.0,-33.18,3b
2019-07-15_144041:520,-0.21402,0.009644,-0.45654300000000003,-0.0033280000000000002,-0.0020559999999999997,0.002376,-28.870001000000002,16.0,-32.0,3b
2019-07-15_144041:540,-0.21505700000000003,0.014221000000000001,-0.45605500000000004,-0.0032670000000000004,-0.001446,0.003505,-28.870001000000002,16.0,-32.0,3b
2019-07-15_144041:560,-0.208954,0.014221000000000001,-0.45553599999999994,-0.004121,-0.001202,0.0036270000000000004,-30.0,16.25,-33.18,3b
2019-07-15_144041:580,-0.207916,0.012177,-0.45553599999999994,-0.004915,-0.001446,0.00265,-30.0,16.25,-33.18,3b
2019-07-15_144041:600,-0.20639000000000002,0.010162000000000001,-0.45654300000000003,-0.00525,-0.001446,0.002833,-30.0,16.25,-33.18,3b
2019-07-15_144041:620,-0.20639000000000002,0.006072999999999999,-0.45706199999999997,-0.005006,-0.00172,0.00323,-28.870001000000002,16.0,-32.0,3b
2019-07-15_144041:640,-0.21249400000000002,0.0025329999999999997,-0.458588,-0.003664,-0.001537,0.002955,-28.870001000000002,16.0,-32.0,3b
2019-07-15_144041:660,-0.21453899999999998,0.0030210000000000002,-0.45806899999999995,-0.0029010000000000004,-0.000683,0.002833,-30.370001000000002,16.0,-33.560001,3b
2019-07-15_144041:680,-0.209961,0.006592,-0.45706199999999997,-0.0019850000000000002,1.9e-05,0.002711,-30.370001000000002,16.0,-33.560001,3b
2019-07-15_144041:700,-0.20742800000000003,0.009125,-0.45605500000000004,-0.001955,-4.2e-05,0.001918,-30.370001000000002,16.0,-33.560001,3b
2019-07-15_144041:720,-0.20742800000000003,0.011687999999999999,-0.45654300000000003,-0.002382,-0.000164,0.001674,-30.0,15.56,-32.369999,3b
2019-07-15_144041:740,-0.209961,0.012695,-0.45605500000000004,-0.0029010000000000004,-0.000103,0.001857,-30.0,15.56,-32.369999,3b
2019-07-15_144041:760,-0.21249400000000002,0.011687999999999999,-0.45806899999999995,-0.003145,-4.2e-05,0.00207,-28.870001000000002,16.0,-32.75,3b
2019-07-15_144041:780,-0.21402,0.008636,-0.45654300000000003,-0.003389,0.000446,0.001582,-28.870001000000002,16.0,-32.75,3b
2019-07-15_144041:800,-0.213013,0.008636,-0.45706199999999997,-0.0033280000000000002,0.0006900000000000001,0.001582,-28.870001000000002,16.0,-32.75,3b
2019-07-15_144041:820,-0.213531,0.007111,-0.45401,-0.003023,0.000843,0.001674,-30.0,14.75,-32.369999,3b
2019-07-15_144041:840,-0.21249400000000002,0.008118,-0.452484,-0.002168,0.0007509999999999999,0.001857,-30.0,14.75,-32.369999,3b
2019-07-15_144041:860,-0.209961,0.009644,-0.452484,-0.0019850000000000002,0.0005070000000000001,0.001857,-30.0,16.0,-31.559998999999998,3b
2019-07-15_144041:880,-0.20843499999999998,0.011169,-0.452484,-0.002229,-4.2e-05,0.002009,-30.0,16.0,-31.559998999999998,3b
2019-07-15_144041:900,-0.20843499999999998,0.011169,-0.452484,-0.003023,-0.0007740000000000001,0.002131,-30.0,16.0,-31.559998999999998,3b
2019-07-15_144041:920,-0.210968,0.010162000000000001,-0.453491,-0.0032670000000000004,-0.000958,0.00207,-28.5,15.56,-31.559998999999998,3b
2019-07-15_144041:940,-0.21249400000000002,0.009644,-0.453003,-0.0032670000000000004,-0.001019,0.002009,-28.5,15.56,-31.559998999999998,3b
2019-07-15_144041:960,-0.213531,0.008118,-0.454529,-0.0032670000000000004,-0.000958,0.001979,-30.0,16.0,-32.0,3b
2019-07-15_144041:980,-0.213531,0.006592,-0.45605500000000004,-0.003084,-0.000683,0.001674,-30.0,16.0,-32.0,3b
2019-07-15_144042:000,-0.21249400000000002,0.007111,-0.455017,-0.0028399999999999996,-0.0007740000000000001,0.0017350000000000002,-30.0,16.0,-32.0,3b
2019-07-15_144042:020,-0.21249400000000002,0.009125,-0.45553599999999994,-0.002046,-0.000439,0.001796,-35.060001,16.0,-33.560001,3b
2019-07-15_144042:040,-0.210968,0.009125,-0.454529,-0.002168,-0.000439,0.001796,-35.060001,16.0,-33.560001,3b
2019-07-15_144042:060,-0.21249400000000002,0.011687999999999999,-0.45553599999999994,-0.00229,-0.0007440000000000001,0.002131,-30.370001000000002,16.0,-33.18,3b
2019-07-15_144042:080,-0.209961,0.011687999999999999,-0.453491,-0.0025039999999999997,-0.0005610000000000001,0.002376,-30.370001000000002,16.0,-33.18,3b
2019-07-15_144042:100,-0.21402,0.012177,-0.453003,-0.003145,-0.001019,0.0024059999999999997,-30.370001000000002,16.0,-33.18,3b
2019-07-15_144042:120,-0.210968,0.013213999999999998,-0.45401,-0.0033280000000000002,-0.001202,0.0028940000000000003,-30.370001000000002,15.56,-32.369999,3b
2019-07-15_144042:140,-0.210968,0.011687999999999999,-0.452484,-0.004243,-0.001202,0.002711,-30.370001000000002,15.56,-32.369999,3b
2019-07-15_144042:160,-0.21249400000000002,0.008118,-0.45401,-0.00461,-0.001446,0.0021920000000000004,-30.370001000000002,15.56,-32.369999,3b
2019-07-15_144042:180,-0.20944200000000002,0.009125,-0.45654300000000003,-0.004335,-0.001324,0.001857,-30.0,16.25,-32.369999,3b
2019-07-15_144042:200,-0.21148699999999998,0.010162000000000001,-0.45806899999999995,-0.004182,-0.001202,0.00207,-30.0,16.25,-32.369999,3b
2019-07-15_144042:220,-0.21759,0.007599,-0.458588,-0.003145,-0.001019,0.002376,-29.559998999999998,15.18,-32.75,3b
2019-07-15_144042:240,-0.217072,0.011687999999999999,-0.45605500000000004,-0.0029620000000000002,-0.000439,0.002589,-29.559998999999998,15.18,-32.75,3b
2019-07-15_144042:260,-0.21453899999999998,0.012695,-0.45605500000000004,-0.0025039999999999997,0.000294,0.003505,-29.559998999999998,15.18,-32.75,3b
2019-07-15_144042:280,-0.209961,0.014740000000000001,-0.453491,-0.0029620000000000002,0.000294,0.00381,-21.559998999999998,16.0,-32.369999,3b
2019-07-15_144042:300,-0.20944200000000002,0.014740000000000001,-0.453491,-0.003725,0.000172,0.0034130000000000002,-21.559998999999998,16.0,-32.369999,3b
2019-07-15_144042:320,-0.21048000000000003,0.012695,-0.451477,-0.004457,-0.0005,0.0035659999999999997,-30.059998999999998,15.87,-32.75,3b
2019-07-15_144042:340,-0.213531,0.010651,-0.453491,-0.0049759999999999995,-0.0006219999999999999,0.003749,-30.059998999999998,15.87,-32.75,3b
2019-07-15_144042:360,-0.21505700000000003,0.008636,-0.454529,-0.005128,-0.0007440000000000001,0.003474,-30.059998999999998,15.87,-32.75,3b
2019-07-15_144042:380,-0.21402,0.006592,-0.453003,-0.00461,-0.0006219999999999999,0.002955,-30.0,15.5,-32.369999,3b
2019-07-15_144042:400,-0.212006,0.008636,-0.45401,-0.004121,-0.0005,0.003016,-30.0,15.5,-32.369999,3b
2019-07-15_144042:420,-0.213531,0.009644,-0.453003,-0.0038469999999999997,-0.0007740000000000001,0.002833,-30.370001000000002,15.5,-31.559998999999998,3b
2019-07-15_144042:440,-0.212006,0.010651,-0.453003,-0.0033280000000000002,-0.000683,0.0024059999999999997,-30.370001000000002,15.5,-31.559998999999998,3b
2019-07-15_144042:460,-0.213531,0.012177,-0.453491,-0.003389,-0.0011099999999999999,0.002254,-30.370001000000002,15.5,-31.559998999999998,3b
2019-07-15_144042:480,-0.21402,0.012695,-0.453003,-0.0033280000000000002,-0.00108,0.001979,-30.370001000000002,15.06,-32.0,3b
2019-07-15_144042:500,-0.21402,0.014221000000000001,-0.452484,-0.003389,-0.0011099999999999999,0.0016129999999999999,-30.370001000000002,15.06,-32.0,3b
2019-07-15_144042:520,-0.21453899999999998,0.015228,-0.453491,-0.003664,-0.001141,0.001674,-29.18,16.18,-32.75,3b
2019-07-15_144042:540,-0.21249400000000002,0.014740000000000001,-0.45196499999999995,-0.003786,-0.001324,0.002131,-29.18,16.18,-32.75,3b
2019-07-15_144042:560,-0.21249400000000002,0.014221000000000001,-0.453491,-0.0038469999999999997,-0.0014759999999999999,0.0024059999999999997,-30.0,15.06,-31.559998999999998,3b
2019-07-15_144042:580,-0.20944200000000002,0.014221000000000001,-0.451477,-0.0038469999999999997,-0.00172,0.0027719999999999997,-30.0,15.06,-31.559998999999998,3b
2019-07-15_144042:600,-0.20944200000000002,0.013702,-0.452484,-0.00345,-0.001843,0.0028940000000000003,-30.0,15.06,-31.559998999999998,3b
2019-07-15_144042:620,-0.212006,0.013213999999999998,-0.455017,-0.0034799999999999996,-0.0021780000000000002,0.0028940000000000003,-30.370001000000002,14.68,-32.75,3b
2019-07-15_144042:640,-0.21249400000000002,0.012695,-0.455017,-0.0036030000000000003,-0.001934,0.0027719999999999997,-30.370001000000002,14.68,-32.75,3b
2019-07-15_144042:660,-0.213013,0.012177,-0.45654300000000003,-0.0036030000000000003,-0.002117,0.0027719999999999997,-30.370001000000002,14.68,-32.75,3b
2019-07-15_144042:680,-0.21606399999999998,0.012695,-0.457581,-0.0034799999999999996,-0.0016589999999999999,0.002711,-30.0,15.5,-32.75,3b
2019-07-15_144042:700,-0.21606399999999998,0.013702,-0.45654300000000003,-0.003206,-0.0014759999999999999,0.00265,-30.0,15.5,-32.75,3b
2019-07-15_144042:720,-0.20843499999999998,0.013702,-0.455017,-0.003206,-0.00108,0.003078,-29.559998999999998,15.87,-33.560001,3b
2019-07-15_144042:740,-0.207916,0.013213999999999998,-0.453491,-0.0034799999999999996,-0.001202,0.0024059999999999997,-29.559998999999998,15.87,-33.560001,3b
2019-07-15_144042:760,-0.207916,0.012177,-0.45654300000000003,-0.0038469999999999997,-0.001263,0.0012460000000000001,-29.559998999999998,15.87,-33.560001,3b
2019-07-15_144042:780,-0.207916,0.012695,-0.455017,-0.003206,-0.000897,0.001796,-30.370001000000002,15.06,-33.18,3b
2019-07-15_144042:800,-0.21249400000000002,0.011169,-0.45605500000000004,-0.003114,-0.001598,0.002467,-30.370001000000002,15.06,-33.18,3b
2019-07-15_144042:820,-0.21453899999999998,0.011687999999999999,-0.45806899999999995,-0.002382,-0.001202,0.002131,-30.0,16.18,-32.0,3b
2019-07-15_144042:840,-0.208954,0.016266,-0.45553599999999994,-0.001955,-0.0007440000000000001,0.0024059999999999997,-30.0,16.18,-32.0,3b
2019-07-15_144042:860,-0.205902,0.017792,-0.45654300000000003,-0.001771,-0.00037799999999999997,0.003078,-30.0,16.18,-32.0,3b
2019-07-15_144042:880,-0.209961,0.016753999999999998,-0.45605500000000004,-0.002382,-0.0008349999999999999,0.00265,-29.559998999999998,15.5,-32.75,3b
2019-07-15_144042:900,-0.21148699999999998,0.016753999999999998,-0.457581,-0.003084,-0.000897,0.0025280000000000003,-29.559998999999998,15.5,-32.75,3b
2019-07-15_144042:920,-0.21505700000000003,0.016266,-0.457581,-0.0036030000000000003,-0.0007740000000000001,0.00323,-30.68,15.06,-33.18,3b
2019-07-15_144042:940,-0.213013,0.012695,-0.45706199999999997,-0.003786,-0.000225,0.003505,-30.68,15.06,-33.18,3b
2019-07-15_144042:960,-0.21048000000000003,0.010651,-0.457581,-0.00345,0.000294,0.003169,-30.68,15.06,-33.18,3b
2019-07-15_144042:980,-0.209961,0.010162000000000001,-0.453491,-0.003389,0.00035499999999999996,0.003505,-29.18,15.5,-33.560001,3b
2019-07-15_144043:000,-0.212006,0.011169,-0.455017,-0.003084,0.00038500000000000003,0.003505,-29.18,15.5,-33.560001,3b
2019-07-15_144043:020,-0.212006,0.010162000000000001,-0.45553599999999994,-0.0028399999999999996,0.000172,0.003169,-30.0,15.5,-32.369999,3b
2019-07-15_144043:040,-0.21148699999999998,0.011169,-0.453491,-0.002565,0.00038500000000000003,0.003016,-30.0,15.5,-32.369999,3b
2019-07-15_144043:060,-0.21148699999999998,0.011687999999999999,-0.453491,-0.0029620000000000002,1.9e-05,0.002742,-30.0,15.5,-32.369999,3b
2019-07-15_144043:080,-0.21148699999999998,0.011687999999999999,-0.452484,-0.003084,0.000233,0.002711,-30.0,14.68,-33.18,3b
2019-07-15_144043:100,-0.20843499999999998,0.012177,-0.453491,-0.003023,5e-05,0.002955,-30.0,14.68,-33.18,3b
2019-07-15_144043:120,-0.21148699999999998,0.010651,-0.454529,-0.0028399999999999996,-0.000164,0.003078,-33.560001,14.75,-32.369999,3b
2019-07-15_144043:140,-0.212006,0.011169,-0.453491,-0.002779,-0.000103,0.003078,-33.560001,14.75,-32.369999,3b
2019-07-15_144043:160,-0.21453899999999998,0.012177,-0.454529,-0.002687,-0.00034700000000000003,0.003016,-33.560001,14.75,-32.369999,3b
2019-07-15_144043:180,-0.21148699999999998,0.013213999999999998,-0.453491,-0.0029010000000000004,-4.2e-05,0.0033520000000000004,-31.370001000000002,15.18,-32.75,3b
2019-07-15_144043:200,-0.20944200000000002,0.012695,-0.455017,-0.0033280000000000002,1.9e-05,0.0032909999999999997,-31.370001000000002,15.18,-32.75,3b
2019-07-15_144043:220,-0.212006,0.010162000000000001,-0.454529,-0.003664,-0.00034700000000000003,0.0032909999999999997,-30.0,16.0,-33.18,3b
2019-07-15_144043:240,-0.21402,0.010651,-0.453491,-0.0036030000000000003,-0.000439,0.003871,-30.0,16.0,-33.18,3b
2019-07-15_144043:260,-0.21402,0.008118,-0.45401,-0.003389,0.000294,0.0034130000000000002,-30.0,16.0,-33.18,3b
2019-07-15_144043:280,-0.21859699999999999,0.007111,-0.45401,-0.003084,0.000233,0.003169,-29.18,15.56,-31.559998999999998,3b
2019-07-15_144043:300,-0.21453899999999998,0.009125,-0.45095799999999997,-0.002687,5e-05,0.003963,-29.18,15.56,-31.559998999999998,3b
2019-07-15_144043:320,-0.21249400000000002,0.008636,-0.45196499999999995,-0.0028399999999999996,-0.000103,0.0028940000000000003,-30.0,16.0,-33.560001,3b
2019-07-15_144043:340,-0.213013,0.010651,-0.45095799999999997,-0.003389,-0.000286,0.001857,-30.0,16.0,-33.560001,3b
2019-07-15_144043:360,-0.21148699999999998,0.009644,-0.453003,-0.003145,-0.00037799999999999997,0.00265,-30.0,16.0,-33.560001,3b
2019-07-15_144043:380,-0.21453899999999998,0.008636,-0.453003,-0.003114,-0.000958,0.002711,-30.370001000000002,15.56,-33.18,3b
2019-07-15_144043:400,-0.21554600000000002,0.008636,-0.451477,-0.002779,-0.000439,0.002254,-30.370001000000002,15.56,-33.18,3b
2019-07-15_144043:420,-0.21249400000000002,0.009644,-0.45196499999999995,-0.002168,-0.00037799999999999997,0.00265,-30.0,16.25,-32.369999,3b
2019-07-15_144043:440,-0.21048000000000003,0.013213999999999998,-0.45095799999999997,-0.002443,-0.0007440000000000001,0.003169,-30.0,16.25,-32.369999,3b
2019-07-15_144043:460,-0.20944200000000002,0.012695,-0.453491,-0.003084,-0.001446,0.0027719999999999997,-30.0,16.25,-32.369999,3b
2019-07-15_144043:480,-0.209961,0.013702,-0.45605500000000004,-0.003725,-0.001782,0.002376,-30.0,15.18,-32.75,3b
2019-07-15_144043:500,-0.21759,0.011169,-0.45654300000000003,-0.004671,-0.001873,0.002742,-30.0,15.18,-32.75,3b
2019-07-15_144043:520,-0.220123,0.008118,-0.45806899999999995,-0.004274,-0.0007740000000000001,0.002376,-29.559998999999998,16.0,-34.0,3b
2019-07-15_144043:540,-0.21810900000000003,0.007599,-0.45706199999999997,-0.0039380000000000005,-4.2e-05,0.0016129999999999999,-29.559998999999998,16.0,-34.0,3b
2019-07-15_144043:560,-0.21759,0.008118,-0.45654300000000003,-0.00345,0.00038500000000000003,0.002131,-29.559998999999998,16.0,-34.0,3b
2019-07-15_144043:580,-0.21505700000000003,0.009644,-0.454529,-0.0026260000000000003,0.000629,0.002315,-31.059998999999998,16.0,-32.75,3b
2019-07-15_144043:600,-0.21453899999999998,0.011687999999999999,-0.45095799999999997,-0.0023510000000000002,0.0006900000000000001,0.002009,-31.059998999999998,16.0,-32.75,3b
2019-07-15_144043:620,-0.21249400000000002,0.013213999999999998,-0.44995100000000005,-0.002748,0.0005679999999999999,0.00207,-30.370001000000002,16.0,-32.369999,3b
2019-07-15_144043:640,-0.212006,0.015228,-0.448425,-0.003114,-0.00034700000000000003,0.002254,-30.370001000000002,16.0,-32.369999,3b
2019-07-15_144043:660,-0.21148699999999998,0.014221000000000001,-0.448425,-0.0038469999999999997,-0.000897,0.002254,-30.370001000000002,16.0,-32.369999,3b
2019-07-15_144043:680,-0.21249400000000002,0.011169,-0.451477,-0.004121,-0.0014759999999999999,0.0021920000000000004,-30.370001000000002,15.06,-32.369999,3b
2019-07-15_144043:700,-0.21554600000000002,0.010651,-0.452484,-0.003999,-0.0016589999999999999,0.002009,-30.370001000000002,15.06,-32.369999,3b
2019-07-15_144043:720,-0.217072,0.008118,-0.455017,-0.0039380000000000005,-0.001385,0.001918,-29.559998999999998,15.87,-32.369999,3b
2019-07-15_144043:740,-0.21759,0.008118,-0.454529,-0.003084,-0.001263,0.001674,-29.559998999999998,15.87,-32.369999,3b
2019-07-15_144043:760,-0.21606399999999998,0.009125,-0.45553599999999994,-0.0025039999999999997,-0.0007740000000000001,0.00146,-29.559998999999998,15.87,-32.369999,3b
2019-07-15_144043:780,-0.21606399999999998,0.012177,-0.453003,-0.00229,-0.0006219999999999999,0.001674,-30.0,15.5,-32.75,3b
2019-07-15_144043:800,-0.21402,0.013702,-0.453003,-0.002046,-0.00037799999999999997,0.001185,-30.0,15.5,-32.75,3b
2019-07-15_144043:820,-0.21453899999999998,0.016753999999999998,-0.45401,-0.0023510000000000002,-0.0005,0.0010019999999999999,-29.559998999999998,15.06,-32.75,3b
2019-07-15_144043:840,-0.217072,0.015228,-0.451477,-0.0023510000000000002,-0.000286,0.001338,-29.559998999999998,15.06,-32.75,3b
2019-07-15_144043:860,-0.222687,0.015228,-0.45043900000000003,-0.002748,-0.00037799999999999997,0.001399,-29.559998999999998,15.06,-32.75,3b
2019-07-15_144043:880,-0.217072,0.016266,-0.44891400000000004,-0.003145,-0.000103,0.00265,-30.370001000000002,15.5,-32.0,3b
2019-07-15_144043:900,-0.213013,0.013213999999999998,-0.448425,-0.003389,-0.00034700000000000003,0.0032909999999999997,-30.370001000000002,15.5,-32.0,3b
2019-07-15_144043:920,-0.212006,0.010162000000000001,-0.44995100000000005,-0.003999,-0.001202,0.001796,-29.18,15.06,-33.560001,3b
2019-07-15_144043:940,-0.210968,0.010651,-0.449432,-0.00345,-0.001782,0.002131,-29.18,15.06,-33.560001,3b
2019-07-15_144043:960,-0.217072,0.007599,-0.45196499999999995,-0.0028399999999999996,-0.00227,0.002711,-29.18,15.06,-33.560001,3b
2019-07-15_144043:980,-0.219635,0.009125,-0.453491,-0.002107,-0.0020559999999999997,0.002467,-31.75,15.06,-32.369999,3b
2019-07-15_144044:000,-0.21859699999999999,0.012177,-0.45196499999999995,-0.0016489999999999999,-0.0014759999999999999,0.002711,-31.75,15.06,-32.369999,3b
2019-07-15_144044:020,-0.212006,0.015228,-0.452484,-0.0018329999999999998,-0.001263,0.00265,-30.370001000000002,15.06,-32.75,3b
2019-07-15_144044:040,-0.21249400000000002,0.015747,-0.45095799999999997,-0.0026260000000000003,-0.001446,0.002376,-30.370001000000002,15.06,-32.75,3b
2019-07-15_144044:060,-0.210968,0.016266,-0.453491,-0.003786,-0.0021780000000000002,0.002254,-30.370001000000002,15.06,-32.75,3b
2019-07-15_144044:080,-0.213531,0.014221000000000001,-0.453003,-0.004243,-0.002117,0.0031079999999999997,-29.559998999999998,14.75,-32.75,3b
2019-07-15_144044:100,-0.217072,0.009644,-0.45401,-0.004671,-0.00227,0.003016,-29.559998999999998,14.75,-32.75,3b
2019-07-15_144044:120,-0.216583,0.007599,-0.45654300000000003,-0.004335,-0.0016589999999999999,0.001796,-30.370001000000002,15.18,-32.369999,3b
2019-07-15_144044:140,-0.216583,0.009644,-0.45553599999999994,-0.003725,-0.001446,0.0024059999999999997,-30.370001000000002,15.18,-32.369999,3b
2019-07-15_144044:160,-0.213013,0.009125,-0.45553599999999994,-0.003023,-0.001019,0.002955,-30.370001000000002,15.18,-32.369999,3b
2019-07-15_144044:180,-0.21249400000000002,0.011687999999999999,-0.454529,-0.002779,-0.0007440000000000001,0.002711,-30.0,16.0,-33.18,3b
2019-07-15_144044:200,-0.21453899999999998,0.012695,-0.454529,-0.002565,-0.000958,0.00265,-30.0,16.0,-33.18,3b
2019-07-15_144044:220,-0.21505700000000003,0.014221000000000001,-0.45553599999999994,-0.003023,-0.0007740000000000001,0.00265,-30.0,15.18,-32.75,3b
2019-07-15_144044:240,-0.21453899999999998,0.012695,-0.452484,-0.003664,-0.0007740000000000001,0.002315,-30.0,15.18,-32.75,3b
2019-07-15_144044:260,-0.21249400000000002,0.012695,-0.452484,-0.003786,-0.0005,0.00207,-30.0,15.18,-32.75,3b
2019-07-15_144044:280,-0.21148699999999998,0.009644,-0.452484,-0.0038770000000000002,-0.0007440000000000001,0.0021920000000000004,-30.0,15.18,-32.75,3b
2019-07-15_144044:300,-0.213531,0.009125,-0.451477,-0.003664,-0.001019,0.002009,-30.0,15.18,-32.75,3b
2019-07-15_144044:320,-0.213531,0.010162000000000001,-0.452484,-0.0032670000000000004,-0.001263,0.001918,-28.5,14.75,-32.75,3b
2019-07-15_144044:340,-0.21249400000000002,0.010651,-0.45196499999999995,-0.002687,-0.00108,0.00207,-28.5,14.75,-32.75,3b
2019-07-15_144044:360,-0.21148699999999998,0.010651,-0.451477,-0.0026260000000000003,-0.0011099999999999999,0.001918,-28.5,14.75,-32.75,3b
2019-07-15_144044:380,-0.21048000000000003,0.011169,-0.452484,-0.002443,-0.0014759999999999999,0.001582,-30.370001000000002,15.56,-33.560001,3b
2019-07-15_144044:400,-0.212006,0.013702,-0.453491,-0.002168,-0.001782,0.001582,-30.370001000000002,15.56,-33.560001,3b
2019-07-15_144044:420,-0.21148699999999998,0.011687999999999999,-0.455017,-0.002382,-0.00172,0.00146,-30.370001000000002,15.56,-34.0,3b
2019-07-15_144044:440,-0.21759,0.010162000000000001,-0.45553599999999994,-0.002565,-0.001843,0.001399,-30.370001000000002,15.56,-34.0,3b
2019-07-15_144044:460,-0.21759,0.012177,-0.45654300000000003,-0.002107,-0.00108,0.002315,-30.370001000000002,15.56,-34.0,3b
2019-07-15_144044:480,-0.212006,0.010651,-0.454529,-0.0016190000000000002,-0.00037799999999999997,0.002467,-29.559998999999998,15.18,-33.18,3b
2019-07-15_144044:500,-0.212006,0.011687999999999999,-0.45553599999999994,-0.001771,-0.000225,0.0010630000000000001,-29.559998999999998,15.18,-33.18,3b
2019-07-15_144044:520,-0.20742800000000003,0.013702,-0.45605500000000004,-0.0019850000000000002,-0.0005610000000000001,0.001399,-30.0,15.56,-33.560001,3b
2019-07-15_144044:540,-0.21048000000000003,0.010651,-0.455017,-0.001955,-0.000958,0.002711,-30.0,15.56,-33.560001,3b
2019-07-15_144044:560,-0.21606399999999998,0.010651,-0.454529,-0.001894,-0.0011099999999999999,0.0025280000000000003,-30.0,15.56,-33.560001,3b
2019-07-15_144044:580,-0.21759,0.011169,-0.455017,-0.001771,-0.001019,0.00265,-30.370001000000002,15.87,-32.0,3b
2019-07-15_144044:600,-0.21148699999999998,0.013702,-0.453003,-0.0019850000000000002,-0.000286,0.0028940000000000003,-30.370001000000002,15.87,-32.0,3b
2019-07-15_144044:620,-0.20944200000000002,0.011687999999999999,-0.45196499999999995,-0.0025039999999999997,-0.0005,0.002742,-30.370001000000002,15.5,-32.369999,3b
2019-07-15_144044:640,-0.20742800000000003,0.011169,-0.452484,-0.0029620000000000002,-0.000897,0.002376,-30.370001000000002,15.5,-32.369999,3b
2019-07-15_144044:660,-0.21249400000000002,0.010651,-0.454529,-0.003542,-0.0016589999999999999,0.002833,-30.370001000000002,15.5,-32.369999,3b
2019-07-15_144044:680,-0.21402,0.0055850000000000006,-0.452484,-0.003664,-0.001995,0.002742,-29.559998999999998,14.68,-32.75,3b
2019-07-15_144044:700,-0.21402,-0.001495,-0.454529,-0.003542,-0.0016589999999999999,0.00207,-29.559998999999998,14.68,-32.75,3b
2019-07-15_144044:720,-0.21249400000000002,-0.002014,-0.45605500000000004,-0.001375,-0.0014759999999999999,0.001918,-30.68,15.06,-32.369999,3b
2019-07-15_144044:740,-0.212006,0.0035399999999999997,-0.45401,0.000426,-0.001598,0.001582,-30.68,15.06,-32.369999,3b
2019-07-15_144044:760,-0.21453899999999998,0.016266,-0.455017,0.00128,-0.001446,0.001582,-30.68,15.06,-32.369999,3b
2019-07-15_144044:780,-0.21249400000000002,0.019806,-0.45605500000000004,-0.000185,-0.001141,0.001521,-30.0,15.56,-32.369999,3b
2019-07-15_144044:800,-0.21402,0.020325,-0.454529,-0.002779,-0.001019,0.001185,-30.0,15.56,-32.369999,3b
2019-07-15_144044:820,-0.213013,0.014740000000000001,-0.455017,-0.004915,-0.000958,0.001338,-28.870001000000002,15.56,-32.75,3b
2019-07-15_144044:840,-0.210968,0.008118,-0.453003,-0.005586,-0.0008349999999999999,0.001582,-28.870001000000002,15.56,-32.75,3b
2019-07-15_144044:860,-0.208954,0.005065999999999999,-0.452484,-0.005189,-0.000958,0.0024059999999999997,-28.870001000000002,15.56,-32.75,3b
2019-07-15_144044:880,-0.21048000000000003,0.001007,-0.45401,-0.003725,-0.001263,0.003016,-30.370001000000002,15.87,-32.369999,3b
2019-07-15_144044:900,-0.213013,0.0030210000000000002,-0.45553599999999994,-0.002443,-0.0016589999999999999,0.0028940000000000003,-30.370001000000002,15.87,-32.369999,3b
2019-07-15_144044:920,-0.210968,0.005065999999999999,-0.45553599999999994,-0.001222,-0.0016589999999999999,0.003078,-30.68,15.5,-32.369999,3b
2019-07-15_144044:940,-0.21148699999999998,0.007111,-0.454529,-0.000642,-0.001537,0.002833,-30.68,15.5,-32.369999,3b
2019-07-15_144044:960,-0.21249400000000002,0.010162000000000001,-0.45706199999999997,-0.000825,-0.001324,0.002467,-30.68,15.5,-32.369999,3b
2019-07-15_144044:980,-0.208954,0.010162000000000001,-0.45553599999999994,-0.0016190000000000002,-0.001202,0.002742,-30.370001000000002,15.06,-33.18,3b
2019-07-15_144045:000,-0.21402,0.009644,-0.45654300000000003,-0.002443,-0.001019,0.002315,-30.370001000000002,15.06,-33.18,3b
2019-07-15_144045:020,-0.213013,0.008636,-0.45654300000000003,-0.003114,-0.00108,0.0024059999999999997,-29.559998999999998,15.06,-31.559998999999998,3b
2019-07-15_144045:040,-0.21148699999999998,0.006072999999999999,-0.45401,-0.003389,-0.0007740000000000001,0.002376,-29.559998999999998,15.06,-31.559998999999998,3b
2019-07-15_144045:060,-0.21048000000000003,0.004547,-0.454529,-0.0036030000000000003,-0.0006219999999999999,0.00146,-29.559998999999998,15.06,-31.559998999999998,3b
2019-07-15_144045:080,-0.20742800000000003,0.005065999999999999,-0.454529,-0.0033280000000000002,-0.0007440000000000001,0.001338,-29.559998999999998,15.5,-32.0,3b
2019-07-15_144045:100,-0.20843499999999998,0.004059,-0.453491,-0.002443,-0.0007440000000000001,0.0025280000000000003,-29.559998999999998,15.5,-32.0,3b
2019-07-15_144045:120,-0.213013,0.004059,-0.45605500000000004,-0.0018329999999999998,-0.001141,0.00265,-30.0,15.5,-31.18,3b
2019-07-15_144045:140,-0.213531,0.006592,-0.453491,-0.001314,-0.0011099999999999999,0.00265,-30.0,15.5,-31.18,3b
2019-07-15_144045:160,-0.20843499999999998,0.009644,-0.45553599999999994,-0.001253,-0.000958,0.003169,-30.0,15.5,-31.18,3b
2019-07-15_144045:180,-0.209961,0.009644,-0.454529,-0.0019850000000000002,-0.0011099999999999999,0.003474,-31.370001000000002,15.56,-31.559998999999998,3b
2019-07-15_144045:200,-0.21048000000000003,0.011169,-0.45605500000000004,-0.003084,-0.001324,0.002833,-31.370001000000002,15.56,-31.559998999999998,3b
2019-07-15_144045:220,-0.21606399999999998,0.008118,-0.45553599999999994,-0.004121,-0.001446,0.003169,-30.0,15.18,-31.559998999999998,3b
2019-07-15_144045:240,-0.21505700000000003,0.005065999999999999,-0.454529,-0.004732,-0.000897,0.0036880000000000003,-30.0,15.18,-31.559998999999998,3b
2019-07-15_144045:260,-0.21402,0.0055850000000000006,-0.454529,-0.004854,-0.0007740000000000001,0.003505,-30.0,15.18,-31.559998999999998,3b
2019-07-15_144045:280,-0.21453899999999998,0.007599,-0.45654300000000003,-0.0049759999999999995,1.9e-05,0.0031079999999999997,-30.370001000000002,16.0,-31.559998999999998,3b
2019-07-15_144045:300,-0.209961,0.010162000000000001,-0.45553599999999994,-0.005464,0.0005070000000000001,0.0032909999999999997,-30.370001000000002,16.0,-31.559998999999998,3b
2019-07-15_144045:320,-0.209961,0.009125,-0.45706199999999997,-0.006197,0.000172,0.003016,-30.370001000000002,14.75,-33.560001,3b
2019-07-15_144045:340,-0.213013,0.0055850000000000006,-0.45401,-0.006776000000000001,-4.2e-05,0.002589,-30.370001000000002,14.75,-33.560001,3b
2019-07-15_144045:360,-0.210968,0.004547,-0.453003,-0.005983,0.000233,0.003016,-30.370001000000002,14.75,-33.560001,3b
2019-07-15_144045:380,-0.20843499999999998,0.005065999999999999,-0.453491,-0.005403,-0.000225,0.0031079999999999997,-30.68,15.18,-32.369999,3b
2019-07-15_144045:400,-0.210968,0.006072999999999999,-0.45043900000000003,-0.005067,-0.000958,0.003078,-30.68,15.18,-32.369999,3b
2019-07-15_144045:420,-0.20944200000000002,0.006592,-0.452484,-0.004518,-0.001537,0.003016,-29.18,15.56,-32.75,3b
2019-07-15_144045:440,-0.20843499999999998,0.008118,-0.452484,-0.004457,-0.0016589999999999999,0.0028940000000000003,-29.18,15.56,-32.75,3b
2019-07-15_144045:460,-0.21148699999999998,0.008118,-0.453491,-0.004457,-0.00227,0.003016,-29.18,15.56,-32.75,3b
2019-07-15_144045:480,-0.213013,0.008118,-0.45605500000000004,-0.004243,-0.0021780000000000002,0.002589,-29.18,15.56,-32.75,3b
2019-07-15_144045:500,-0.212006,0.009644,-0.45401,-0.003999,-0.002239,0.002131,-29.18,15.56,-32.75,3b
2019-07-15_144045:520,-0.21148699999999998,0.010651,-0.457581,-0.003999,-0.001995,0.0021920000000000004,-30.370001000000002,15.18,-33.560001,3b
2019-07-15_144045:540,-0.21249400000000002,0.013702,-0.457581,-0.004182,-0.001843,0.00265,-30.370001000000002,15.18,-33.560001,3b
2019-07-15_144045:560,-0.213531,0.014221000000000001,-0.455017,-0.004182,-0.001202,0.002711,-30.370001000000002,15.18,-33.560001,3b
2019-07-15_144045:580,-0.217072,0.014740000000000001,-0.457581,-0.004396,-0.000683,0.0034130000000000002,-30.0,15.56,-31.559998999999998,3b
2019-07-15_144045:600,-0.20944200000000002,0.014740000000000001,-0.453491,-0.00461,-0.0005610000000000001,0.0036270000000000004,-30.0,15.56,-31.559998999999998,3b
2019-07-15_144045:620,-0.20742800000000003,0.012177,-0.455017,-0.005372999999999999,-0.001324,0.002254,-30.370001000000002,15.18,-32.75,3b
2019-07-15_144045:640,-0.21048000000000003,0.011169,-0.454529,-0.005189,-0.001141,0.001674,-30.370001000000002,15.18,-32.75,3b
2019-07-15_144045:660,-0.20742800000000003,0.012177,-0.45605500000000004,-0.004518,-0.001202,0.002376,-30.370001000000002,15.18,-32.75,3b
2019-07-15_144045:680,-0.209961,0.010651,-0.45654300000000003,-0.003664,-0.001141,0.0025280000000000003,-30.0,15.56,-31.559998999999998,3b
2019-07-15_144045:700,-0.21606399999999998,0.011687999999999999,-0.454529,-0.0029010000000000004,-0.000683,0.0025280000000000003,-30.0,15.56,-31.559998999999998,3b
2019-07-15_144045:720,-0.21402,0.015228,-0.454529,-0.002382,5e-05,0.002955,-29.18,14.75,-32.75,3b
2019-07-15_144045:740,-0.208954,0.017273,-0.454529,-0.002779,-4.2e-05,0.0034130000000000002,-29.18,14.75,-32.75,3b
2019-07-15_144045:760,-0.208954,0.019318000000000002,-0.453491,-0.0034799999999999996,-0.0008349999999999999,0.003016,-29.18,14.75,-32.75,3b
2019-07-15_144045:780,-0.207916,0.020325,-0.455017,-0.004274,-0.001019,0.0032909999999999997,-30.0,15.18,-32.369999,3b
2019-07-15_144045:800,-0.21148699999999998,0.017792,-0.45401,-0.004457,-0.001019,0.00381,-30.0,15.18,-32.369999,3b
2019-07-15_144045:820,-0.21249400000000002,0.016266,-0.45401,-0.00461,-0.000897,0.00381,-30.0,15.18,-32.75,3b
2019-07-15_144045:840,-0.21148699999999998,0.016266,-0.45605500000000004,-0.004793,-0.000958,0.004085,-30.0,15.18,-32.75,3b
2019-07-15_144045:860,-0.207916,0.014740000000000001,-0.45605500000000004,-0.004396,-0.0007740000000000001,0.004634,-30.0,15.18,-32.75,3b
2019-07-15_144045:880,-0.21048000000000003,0.012177,-0.45553599999999994,-0.004396,-0.00108,0.004878,-29.559998999999998,14.75,-32.369999,3b
2019-07-15_144045:900,-0.21453899999999998,0.011169,-0.455017,-0.003664,-0.0006219999999999999,0.00442,-29.559998999999998,14.75,-32.369999,3b
2019-07-15_144045:920,-0.212006,0.012695,-0.45654300000000003,-0.003725,-0.0005610000000000001,0.004359,-30.68,16.0,-31.559998999999998,3b
2019-07-15_144045:940,-0.212006,0.013213999999999998,-0.45553599999999994,-0.003664,-0.00034700000000000003,0.0036880000000000003,-30.68,16.0,-31.559998999999998,3b
2019-07-15_144045:960,-0.212006,0.011687999999999999,-0.454529,-0.0036030000000000003,-0.00034700000000000003,0.00323,-30.68,16.0,-31.559998999999998,3b
2019-07-15_144045:980,-0.208954,0.012695,-0.453491,-0.0032670000000000004,-0.000439,0.0034130000000000002,-29.559998999999998,15.06,-32.75,3b
2019-07-15_144046:000,-0.20944200000000002,0.013213999999999998,-0.453491,-0.003145,-0.000958,0.0035659999999999997,-29.559998999999998,15.06,-32.75,3b
2019-07-15_144046:020,-0.20944200000000002,0.014221000000000001,-0.455017,-0.0029010000000000004,-0.000958,0.003505,-30.68,15.87,-32.0,3b
2019-07-15_144046:040,-0.213013,0.013702,-0.45706199999999997,-0.003084,-0.001019,0.0036270000000000004,-30.68,15.87,-32.0,3b
2019-07-15_144046:060,-0.21453899999999998,0.014221000000000001,-0.45605500000000004,-0.003114,-0.0007740000000000001,0.0034130000000000002,-30.68,15.87,-32.0,3b
2019-07-15_144046:080,-0.21249400000000002,0.012695,-0.45654300000000003,-0.003206,-0.000439,0.0032909999999999997,-29.559998999999998,15.06,-32.369999,3b
2019-07-15_144046:100,-0.21249400000000002,0.013213999999999998,-0.45401,-0.003084,-0.000103,0.0035659999999999997,-29.559998999999998,15.06,-32.369999,3b
2019-07-15_144046:120,-0.210968,0.011687999999999999,-0.455017,-0.003206,-0.000103,0.0035659999999999997,-29.18,14.68,-33.18,3b
2019-07-15_144046:140,-0.213531,0.012177,-0.453003,-0.003145,-0.000439,0.0036880000000000003,-29.18,14.68,-33.18,3b
2019-07-15_144046:160,-0.21048000000000003,0.011169,-0.453003,-0.0033280000000000002,-0.0005610000000000001,0.003901,-29.18,14.68,-33.18,3b
2019-07-15_144046:180,-0.208954,0.013213999999999998,-0.453491,-0.003725,-0.0008349999999999999,0.003169,-30.0,15.5,-33.18,3b
2019-07-15_144046:200,-0.207916,0.009125,-0.453491,-0.003725,-0.0014759999999999999,0.0025280000000000003,-30.0,15.5,-33.18,3b
2019-07-15_144046:220,-0.20843499999999998,0.009644,-0.45605500000000004,-0.003664,-0.001385,0.001796,-30.0,14.68,-32.369999,3b
2019-07-15_144046:240,-0.20944200000000002,0.008636,-0.45654300000000003,-0.003206,-0.0016589999999999999,0.00207,-30.0,14.68,-32.369999,3b
2019-07-15_144046:260,-0.213013,0.008636,-0.457581,-0.0026260000000000003,-0.001202,0.001796,-30.0,14.68,-32.369999,3b
2019-07-15_144046:280,-0.21453899999999998,0.009125,-0.457581,-0.002107,-0.0006219999999999999,0.001277,-29.559998999999998,15.06,-32.369999,3b
2019-07-15_144046:300,-0.20944200000000002,0.014221000000000001,-0.453491,-0.001375,-0.000286,0.001277,-29.559998999999998,15.06,-32.369999,3b
2019-07-15_144046:320,-0.20843499999999998,0.015747,-0.453491,-0.001436,1.9e-05,0.001399,-29.559998999999998,15.06,-32.369999,3b
2019-07-15_144046:340,-0.207916,0.016753999999999998,-0.454529,-0.0019850000000000002,-0.00034700000000000003,0.0010019999999999999,-30.68,15.18,-32.0,3b
2019-07-15_144046:360,-0.210968,0.01828,-0.453491,-0.0026260000000000003,-0.000958,0.001674,-30.68,15.18,-32.0,3b
2019-07-15_144046:380,-0.21249400000000002,0.016266,-0.45553599999999994,-0.0032670000000000004,-0.001019,0.002589,-29.18,15.06,-32.75,3b
2019-07-15_144046:400,-0.20944200000000002,0.013702,-0.45605500000000004,-0.003664,-0.000958,0.002254,-29.18,15.06,-32.75,3b
2019-07-15_144046:420,-0.210968,0.012177,-0.45706199999999997,-0.0034799999999999996,-0.00108,0.00207,-29.18,15.06,-32.75,3b
2019-07-15_144046:440,-0.208954,0.009644,-0.45806899999999995,-0.003023,-0.000897,0.002589,-30.0,15.06,-32.75,3b
2019-07-15_144046:460,-0.20944200000000002,0.010162000000000001,-0.457581,-0.00229,-0.0006219999999999999,0.0024059999999999997,-30.0,15.06,-32.75,3b
2019-07-15_144046:480,-0.212006,0.012695,-0.45706199999999997,-0.001771,-0.0006219999999999999,0.002254,-29.559998999999998,14.68,-32.369999,3b
2019-07-15_144046:500,-0.212006,0.014740000000000001,-0.45605500000000004,-0.001558,-0.000103,0.002833,-29.559998999999998,14.68,-32.369999,3b
2019-07-15_144046:520,-0.210968,0.014740000000000001,-0.455017,-0.002107,5e-05,0.00265,-29.559998999999998,14.68,-32.369999,3b
2019-07-15_144046:540,-0.208954,0.016753999999999998,-0.45401,-0.0028399999999999996,1.9e-05,0.0024059999999999997,-30.370001000000002,16.0,-32.0,3b
2019-07-15_144046:560,-0.21048000000000003,0.015228,-0.453003,-0.0033280000000000002,-0.00034700000000000003,0.002711,-30.370001000000002,16.0,-32.0,3b
2019-07-15_144046:580,-0.20944200000000002,0.012695,-0.453003,-0.003664,-0.00037799999999999997,0.002711,-30.370001000000002,15.87,-31.559998999999998,3b
2019-07-15_144046:600,-0.213013,0.011169,-0.452484,-0.003542,-0.000683,0.002742,-30.370001000000002,15.87,-31.559998999999998,3b
2019-07-15_144046:620,-0.21048000000000003,0.010162000000000001,-0.45401,-0.003206,-0.000683,0.003169,-30.370001000000002,15.87,-31.559998999999998,3b
2019-07-15_144046:640,-0.20944200000000002,0.010162000000000001,-0.453491,-0.002748,-0.000683,0.003169,-30.370001000000002,15.5,-32.0,3b
2019-07-15_144046:660,-0.20843499999999998,0.009125,-0.455017,-0.0029010000000000004,-0.001263,0.003016,-30.370001000000002,15.5,-32.0,3b
2019-07-15_144046:680,-0.210968,0.012177,-0.45654300000000003,-0.002382,-0.001141,0.003078,-30.0,15.5,-32.0,3b
2019-07-15_144046:700,-0.21148699999999998,0.012177,-0.45401,-0.0026260000000000003,-0.000958,0.0027719999999999997,-30.0,15.5,-32.0,3b
2019-07-15_144046:720,-0.217072,0.008636,-0.45605500000000004,-0.002748,-0.0011099999999999999,0.002467,-30.0,15.5,-32.0,3b
2019-07-15_144046:740,-0.209961,0.0055850000000000006,-0.45196499999999995,-0.002687,-0.00034700000000000003,0.002131,-30.370001000000002,15.87,-31.559998999999998,3b
2019-07-15_144046:760,-0.20639000000000002,0.005065999999999999,-0.45196499999999995,-0.00229,-0.0007740000000000001,0.001124,-30.370001000000002,15.87,-31.559998999999998,3b
2019-07-15_144046:780,-0.205902,0.007111,-0.453491,-0.002107,-0.001202,-0.000585,-31.059998999999998,16.18,-33.18,3b
2019-07-15_144046:800,-0.206909,0.009644,-0.453491,-0.001497,-0.00172,-0.000524,-31.059998999999998,16.18,-33.18,3b
2019-07-15_144046:820,-0.209961,0.014740000000000001,-0.45706199999999997,-0.001222,-0.001843,0.00027,-31.059998999999998,16.18,-33.18,3b
2019-07-15_144046:840,-0.216583,0.017273,-0.45654300000000003,-0.001161,-0.001843,0.001277,-30.370001000000002,15.87,-31.559998999999998,3b
2019-07-15_144046:860,-0.21148699999999998,0.019806,-0.45553599999999994,-0.002107,-0.000897,0.002467,-30.370001000000002,15.87,-31.559998999999998,3b
2019-07-15_144046:880,-0.20639000000000002,0.020325,-0.45654300000000003,-0.003114,-0.0006219999999999999,0.002833,-30.0,15.06,-32.75,3b
2019-07-15_144046:900,-0.20742800000000003,0.018799,-0.45553599999999994,-0.004396,-0.001202,0.003016,-30.0,15.06,-32.75,3b
2019-07-15_144046:920,-0.20742800000000003,0.014740000000000001,-0.45806899999999995,-0.005067,-0.000958,0.0036880000000000003,-30.0,15.06,-32.75,3b
2019-07-15_144046:940,-0.210968,0.012695,-0.458588,-0.005647,-0.001263,0.004146,-30.0,15.87,-34.0,3b
2019-07-15_144046:960,-0.212006,0.008118,-0.459595,-0.005067,-0.0007440000000000001,0.003474,-30.0,15.87,-34.0,3b
2019-07-15_144046:980,-0.21249400000000002,0.008118,-0.461639,-0.004335,-0.000225,0.003505,-29.18,15.5,-32.369999,3b
2019-07-15_144047:000,-0.21148699999999998,0.006592,-0.457581,-0.003542,0.0005070000000000001,0.0036880000000000003,-29.18,15.5,-32.369999,3b
2019-07-15_144047:020,-0.21148699999999998,0.010162000000000001,-0.45706199999999997,-0.003023,0.0006900000000000001,0.0034130000000000002,-29.18,15.5,-32.369999,3b
2019-07-15_144047:040,-0.21148699999999998,0.011169,-0.45706199999999997,-0.0026260000000000003,0.0010869999999999999,0.002955,-30.0,14.37,-32.0,3b
2019-07-15_144047:060,-0.210968,0.011169,-0.455017,-0.002565,0.001484,0.002833,-30.0,14.37,-32.0,3b
2019-07-15_144047:080,-0.21148699999999998,0.013213999999999998,-0.453003,-0.002779,0.0011480000000000001,0.002467,-31.059998999999998,15.5,-33.560001,3b
2019-07-15_144047:100,-0.21048000000000003,0.013213999999999998,-0.451477,-0.0029010000000000004,0.000965,0.002376,-31.059998999999998,15.5,-33.560001,3b
2019-07-15_144047:120,-0.21048000000000003,0.014221000000000001,-0.452484,-0.003206,0.0007509999999999999,0.0024059999999999997,-31.059998999999998,15.5,-33.560001,3b
2019-07-15_144047:140,-0.21402,0.014221000000000001,-0.452484,-0.003145,0.000172,0.0027719999999999997,-30.370001000000002,15.5,-32.369999,3b
2019-07-15_144047:160,-0.217072,0.014221000000000001,-0.451477,-0.003206,0.000172,0.003169,-30.370001000000002,15.5,-32.369999,3b
2019-07-15_144047:180,-0.21554600000000002,0.012695,-0.453003,-0.003389,0.000172,0.003749,-30.0,15.5,-32.369999,3b
2019-07-15_144047:200,-0.213531,0.012177,-0.45095799999999997,-0.00345,0.00035499999999999996,0.003749,-30.0,15.5,-32.369999,3b
2019-07-15_144047:220,-0.21505700000000003,0.011687999999999999,-0.45196499999999995,-0.0036030000000000003,5e-05,0.0035659999999999997,-30.0,15.5,-32.369999,3b
2019-07-15_144047:240,-0.21505700000000003,0.010162000000000001,-0.451477,-0.003725,-0.000286,0.003749,-30.68,14.68,-31.559998999999998,3b
2019-07-15_144047:260,-0.213531,0.009125,-0.44891400000000004,-0.003664,-0.000225,0.003505,-30.68,14.68,-31.559998999999998,3b
2019-07-15_144047:280,-0.21606399999999998,0.010651,-0.451477,-0.003389,-0.0006219999999999999,0.003078,-30.68,15.5,-32.369999,3b
2019-07-15_144047:300,-0.213013,0.013213999999999998,-0.448425,-0.00345,-0.000897,0.003871,-30.68,15.5,-32.369999,3b
2019-07-15_144047:320,-0.21148699999999998,0.011687999999999999,-0.45043900000000003,-0.003389,-0.00108,0.002833,-30.68,15.5,-32.369999,3b
2019-07-15_144047:340,-0.21402,0.013213999999999998,-0.45401,-0.003725,-0.001843,0.001918,-30.370001000000002,14.37,-32.0,3b
2019-07-15_144047:360,-0.21505700000000003,0.012177,-0.454529,-0.0032670000000000004,-0.0016589999999999999,0.002955,-30.370001000000002,14.37,-32.0,3b
2019-07-15_144047:380,-0.22164899999999998,0.013213999999999998,-0.455017,-0.003389,-0.001873,0.0036270000000000004,-30.68,15.06,-33.18,3b
2019-07-15_144047:400,-0.22164899999999998,0.013213999999999998,-0.453491,-0.003023,-0.001019,0.004207,-30.68,15.06,-33.18,3b
2019-07-15_144047:420,-0.213531,0.013702,-0.452484,-0.003145,-0.000164,0.004634,-30.68,15.06,-33.18,3b
2019-07-15_144047:440,-0.20843499999999998,0.014221000000000001,-0.45196499999999995,-0.003664,-0.000103,0.00442,-30.0,14.37,-30.75,3b
2019-07-15_144047:460,-0.212006,0.011169,-0.44995100000000005,-0.004396,-0.001202,0.003963,-30.0,14.37,-30.75,3b
2019-07-15_144047:480,-0.21249400000000002,0.009125,-0.45196499999999995,-0.004579,-0.0014759999999999999,0.004146,-29.18,15.87,-32.75,3b
2019-07-15_144047:500,-0.21554600000000002,0.007111,-0.45196499999999995,-0.004518,-0.001873,0.004695,-29.18,15.87,-32.75,3b
2019-07-15_144047:520,-0.21554600000000002,0.008636,-0.454529,-0.0039380000000000005,-0.0016589999999999999,0.0036270000000000004,-29.18,15.87,-32.75,3b
2019-07-15_144047:540,-0.217072,0.009644,-0.455017,-0.003542,-0.0016589999999999999,0.0032909999999999997,-30.370001000000002,15.06,-32.369999,3b
2019-07-15_144047:560,-0.216583,0.010162000000000001,-0.45401,-0.003206,-0.001598,0.003901,-30.370001000000002,15.06,-32.369999,3b
2019-07-15_144047:580,-0.21505700000000003,0.013213999999999998,-0.455017,-0.003389,-0.001141,0.003474,-30.0,15.87,-32.75,3b
2019-07-15_144047:600,-0.213531,0.012177,-0.453491,-0.003786,-0.00108,0.003078,-30.0,15.87,-32.75,3b
2019-07-15_144047:620,-0.212006,0.013702,-0.453003,-0.004121,-0.001141,0.0031079999999999997,-30.0,15.87,-32.75,3b
2019-07-15_144047:640,-0.213013,0.012177,-0.453491,-0.004457,-0.001385,0.0028940000000000003,-30.370001000000002,15.06,-33.18,3b
2019-07-15_144047:660,-0.212006,0.011687999999999999,-0.453003,-0.004579,-0.001598,0.0028940000000000003,-30.370001000000002,15.06,-33.18,3b
2019-07-15_144047:680,-0.21148699999999998,0.009644,-0.453491,-0.004274,-0.001537,0.0028940000000000003,-30.0,14.68,-32.75,3b
2019-07-15_144047:700,-0.21453899999999998,0.011169,-0.453491,-0.003725,-0.001537,0.00323,-30.0,14.68,-32.75,3b
2019-07-15_144047:720,-0.21554600000000002,0.012177,-0.454529,-0.003084,-0.001598,0.0034130000000000002,-30.0,14.68,-32.75,3b
2019-07-15_144047:740,-0.21402,0.012177,-0.455017,-0.003145,-0.001141,0.0034130000000000002,-29.18,15.06,-32.369999,3b
2019-07-15_144047:760,-0.213531,0.012695,-0.454529,-0.0032670000000000004,-0.001446,0.002955,-29.18,15.06,-32.369999,3b
2019-07-15_144047:780,-0.21453899999999998,0.013213999999999998,-0.454529,-0.00345,-0.001263,0.00323,-29.559998999999998,15.5,-32.75,3b
2019-07-15_144047:800,-0.212006,0.011169,-0.452484,-0.0038770000000000002,-0.0011099999999999999,0.003474,-29.559998999999998,15.5,-32.75,3b
2019-07-15_144047:820,-0.220123,0.010162000000000001,-0.45553599999999994,-0.0036030000000000003,-0.001202,0.0031079999999999997,-29.559998999999998,15.5,-32.75,3b
2019-07-15_144047:840,-0.21759,0.011687999999999999,-0.452484,-0.003542,-0.0007740000000000001,0.003749,-29.559998999999998,15.5,-33.18,3b
2019-07-15_144047:860,-0.216583,0.010162000000000001,-0.453491,-0.003206,-0.000958,0.003749,-29.559998999999998,15.5,-33.18,3b
