timestamp,AccX,AccY,AccZ,GyroX,GyroY,GyroZ,MagX,MagY,MagZ,Activity
2019-07-15_152911:520,-0.427063,0.010651,-0.301483,0.001158,-0.0007740000000000001,0.004634,-43.75,6.0,-8.75,3a
2019-07-15_152911:540,-0.42248500000000005,0.009125,-0.301483,0.002928,0.0011480000000000001,0.002833,-43.75,6.75,-9.5,3a
2019-07-15_152911:560,-0.434692,0.013702,-0.29895,0.0040880000000000005,0.002888,0.00027,-43.75,6.75,-9.5,3a
2019-07-15_152911:580,-0.42807,0.016753999999999998,-0.29538000000000003,0.005125,0.005817,-0.001134,-43.75,6.75,-9.5,3a
2019-07-15_152911:600,-0.410278,0.021332,-0.290283,0.005125,0.007801000000000001,-0.002904,-43.369999,6.37,-7.56,3a
2019-07-15_152911:620,-0.43774399999999997,0.020844,-0.28369099999999997,0.004149,0.008990999999999999,-0.003331,-43.369999,6.37,-7.56,3a
2019-07-15_152911:640,-0.449432,0.016266,-0.284698,0.0034170000000000003,0.013386000000000002,-0.002721,-43.0,6.0,-8.25,3a
2019-07-15_152911:660,-0.466217,0.004547,-0.290283,0.002745,0.020283000000000002,-0.0024460000000000003,-43.0,6.0,-8.25,3a
2019-07-15_152911:680,-0.459595,-0.0030210000000000002,-0.290802,0.0036,0.02779,-0.0037890000000000003,-43.0,6.0,-8.25,3a
2019-07-15_152911:700,-0.441803,-0.0025329999999999997,-0.276581,0.005339,0.032154,-0.005956,-43.75,6.37,-7.87,3a
2019-07-15_152911:720,-0.435699,0.0,-0.265381,0.006743000000000001,0.033894,-0.005437,-43.75,6.37,-7.87,3a
2019-07-15_152911:740,-0.440796,-0.0025329999999999997,-0.261322,0.007109000000000001,0.035084,-0.0033009999999999997,-43.75,5.68,-5.18,3a
2019-07-15_152911:760,-0.441803,-0.008636,-0.2547,0.007781000000000001,0.036335,-0.003057,-43.75,5.68,-5.18,3a
2019-07-15_152911:780,-0.44384799999999996,-0.012177,-0.243011,0.008971,0.037464,-0.0046429999999999996,-43.75,5.68,-5.18,3a
2019-07-15_152911:800,-0.443329,-0.011687999999999999,-0.23895300000000003,0.011290000000000001,0.038319,-0.005254,-44.060001,5.68,-4.37,3a
2019-07-15_152911:820,-0.434174,-0.006592,-0.22521999999999998,0.012572,0.038013,-0.005101,-44.060001,5.68,-4.37,3a
2019-07-15_152911:840,-0.435699,-0.008118,-0.220123,0.014372,0.036884,-0.005162,-45.18,5.68,-4.37,3a
2019-07-15_152911:860,-0.460114,-0.007111,-0.20486500000000002,0.015501,0.037067,-0.004857,-45.18,5.68,-4.37,3a
2019-07-15_152911:880,-0.467224,-0.008118,-0.20285,0.016142,0.038654,-0.004857,-45.18,5.68,-4.37,3a
2019-07-15_152911:900,-0.46823100000000006,-0.008118,-0.196747,0.016936,0.04018,-0.006047,-44.060001,5.25,-1.18,3a
2019-07-15_152911:920,-0.46670500000000004,-0.005065999999999999,-0.18454,0.018340000000000002,0.042377,-0.006626999999999999,-44.060001,5.25,-1.18,3a
2019-07-15_152911:940,-0.463654,-0.006072999999999999,-0.17843599999999998,0.020262,0.043629,-0.006841,-45.18,4.56,0.0,3a
2019-07-15_152911:960,-0.46316499999999994,-0.001007,-0.166229,0.021330000000000002,0.043658999999999996,-0.007359999999999999,-45.18,4.56,0.0,3a
2019-07-15_152911:980,-0.467224,0.011687999999999999,-0.14743,0.021269,0.043262,-0.006566,-45.18,4.56,0.0,3a
2019-07-15_152912:000,-0.46875,0.010162000000000001,-0.142334,0.020659,0.04253,-0.005986,-45.18,4.18,0.75,3a
2019-07-15_152912:020,-0.475861,0.019318000000000002,-0.127594,0.018675,0.042774,-0.005895,-45.18,4.18,0.75,3a
2019-07-15_152912:040,-0.477386,0.018799,-0.12353499999999999,0.017271,0.042713,-0.005651,-44.369999,3.87,2.75,3a
2019-07-15_152912:060,-0.46417200000000003,0.018799,-0.100647,0.015746,0.042102999999999995,-0.007115000000000001,-44.369999,3.87,2.75,3a
2019-07-15_152912:080,-0.459595,0.020844,-0.097107,0.014494,0.039448000000000004,-0.007359999999999999,-44.369999,3.87,2.75,3a
2019-07-15_152912:100,-0.45095799999999997,0.022858,-0.077271,0.013762,0.034931,-0.005559000000000001,-43.25,2.68,5.87,3a
2019-07-15_152912:120,-0.44995100000000005,0.021332,-0.076263,0.012633,0.029316000000000002,-0.001927,-43.25,2.68,5.87,3a
2019-07-15_152912:140,-0.45043900000000003,0.01828,-0.072693,0.01245,0.023548,0.001338,-44.369999,2.0,8.25,3a
2019-07-15_152912:160,-0.467743,0.010162000000000001,-0.069641,0.012236,0.019764,0.001674,-44.369999,2.0,8.25,3a
2019-07-15_152912:180,-0.475372,0.008118,-0.067108,0.012572,0.017963,0.00020899999999999998,-44.369999,2.0,8.25,3a
2019-07-15_152912:200,-0.478912,0.011169,-0.066071,0.012907,0.016956,-0.000676,-43.369999,2.0,7.87,3a
2019-07-15_152912:220,-0.476379,0.015747,-0.06405599999999999,0.012633,0.015094999999999999,0.000728,-43.369999,2.0,7.87,3a
2019-07-15_152912:240,-0.48706099999999997,0.022369,-0.067108,0.010771,0.014118,0.0031079999999999997,-43.68,2.37,8.25,3a
2019-07-15_152912:260,-0.495697,0.021332,-0.072174,0.008574,0.013843000000000001,0.005031,-43.68,2.37,8.25,3a
2019-07-15_152912:280,-0.491638,0.017792,-0.069122,0.006529000000000001,0.014027000000000001,0.003505,-43.68,2.37,8.25,3a
2019-07-15_152912:300,-0.49823,0.014740000000000001,-0.067596,0.0058579999999999995,0.014240000000000001,0.002589,-43.869999,1.68,10.37,3a
2019-07-15_152912:320,-0.498749,0.011687999999999999,-0.062012,0.004485,0.015705,0.00265,-43.869999,1.68,10.37,3a
2019-07-15_152912:340,-0.49517799999999995,0.009644,-0.06405599999999999,0.004485,0.015766,0.0032909999999999997,-43.68,1.68,11.06,3a
2019-07-15_152912:360,-0.497742,0.009644,-0.057434000000000006,0.0038740000000000003,0.016315,0.004695,-43.68,1.68,11.06,3a
2019-07-15_152912:380,-0.5048520000000001,0.008636,-0.050842,0.0036609999999999998,0.018207,0.004207,-43.68,1.68,11.06,3a
2019-07-15_152912:400,-0.505371,0.009644,-0.047272,0.003478,0.019886,0.002833,-42.869999,2.0,13.5,3a
2019-07-15_152912:420,-0.500275,0.009125,-0.038635,0.002928,0.021625,0.000667,-42.869999,2.0,13.5,3a
2019-07-15_152912:440,-0.49111899999999997,0.012177,-0.032532,0.002562,0.021931,-6.6e-05,-42.25,2.37,12.68,3a
2019-07-15_152912:460,-0.48706099999999997,0.010162000000000001,-0.026917,0.00128,0.020130000000000002,-0.000188,-42.25,2.37,12.68,3a
2019-07-15_152912:480,-0.481476,0.007111,-0.022369,0.001402,0.018421,-0.00024900000000000004,-42.25,2.37,12.68,3a
2019-07-15_152912:500,-0.48095699999999997,0.0030210000000000002,-0.020844,0.001433,0.017078,-0.000524,-42.560001,1.25,13.5,3a
2019-07-15_152912:520,-0.485016,0.006072999999999999,-0.020325,0.00183,0.013111000000000001,-0.002782,-42.560001,1.25,13.5,3a
2019-07-15_152912:540,-0.491638,0.006072999999999999,-0.019806,0.001952,0.012379000000000001,-0.0033009999999999997,-42.560001,1.25,13.5,3a
2019-07-15_152912:560,-0.490112,0.009125,-0.018799,0.002531,0.011249,-0.005651,-43.369999,1.25,14.25,3a
2019-07-15_152912:580,-0.489075,0.015228,-0.019318000000000002,0.002806,0.009876000000000001,-0.006108,-43.369999,1.25,14.25,3a
2019-07-15_152912:600,-0.484009,0.019318000000000002,-0.019318000000000002,0.002623,0.009327,-0.005559000000000001,-43.0,1.25,13.5,3a
2019-07-15_152912:620,-0.48196400000000006,0.019318000000000002,-0.016753999999999998,0.001952,0.005482,-0.003453,-43.0,1.25,13.5,3a
2019-07-15_152912:640,-0.48654200000000003,0.018799,-0.020325,0.001341,0.003956,-0.002904,-42.5,1.25,14.68,3a
2019-07-15_152912:660,-0.486023,0.019806,-0.01828,-0.000124,0.00011100000000000001,-0.000524,-42.5,1.25,14.68,3a
2019-07-15_152912:680,-0.490112,0.019806,-0.021851,-0.001161,-0.00172,0.00085,-42.5,1.25,14.68,3a
2019-07-15_152912:700,-0.490601,0.021332,-0.020844,-0.0016489999999999999,-0.002392,0.00088,-41.5,-0.5,16.25,3a
2019-07-15_152912:720,-0.503845,0.021332,-0.019806,-0.003023,-0.002575,-0.000524,-41.5,-0.5,16.25,3a
2019-07-15_152912:740,-0.5119630000000001,0.021332,-0.020325,-0.003389,-0.001782,-0.000981,-41.5,-0.5,16.25,3a
2019-07-15_152912:760,-0.508423,0.023375999999999997,-0.019318000000000002,-0.003664,0.000782,-0.001531,-42.560001,-0.06,15.87,3a
2019-07-15_152912:780,-0.507904,0.022858,-0.019806,-0.004457,0.002613,-0.0023239999999999997,-42.560001,-0.06,15.87,3a
2019-07-15_152912:800,-0.5048520000000001,0.024384,-0.019318000000000002,-0.004671,0.0038950000000000005,-0.00266,-41.560001,-0.06,15.87,3a
2019-07-15_152912:820,-0.504333,0.026427999999999997,-0.016753999999999998,-0.004915,0.004749000000000001,-0.0014089999999999999,-41.560001,-0.06,15.87,3a
2019-07-15_152912:840,-0.503326,0.026427999999999997,-0.018799,-0.006593000000000001,0.004963,0.001185,-41.560001,-0.06,15.87,3a
2019-07-15_152912:860,-0.500275,0.025908999999999998,-0.020325,-0.008028,0.004749000000000001,0.004207,-42.560001,-0.5,14.25,3a
2019-07-15_152912:880,-0.49823,0.025908999999999998,-0.022369,-0.009706000000000001,0.004078,0.007075,-42.560001,-0.5,14.25,3a
2019-07-15_152912:900,-0.49823,0.025908999999999998,-0.020325,-0.011964,0.0032229999999999997,0.008479,-41.560001,-0.06,14.25,3a
2019-07-15_152912:920,-0.5058590000000001,0.027954000000000003,-0.01828,-0.014284,0.002949,0.007869,-41.560001,-0.06,14.25,3a
2019-07-15_152912:940,-0.5048520000000001,0.029968,-0.013702,-0.015871,0.003742,0.0065569999999999995,-41.560001,-0.06,14.25,3a
2019-07-15_152912:960,-0.503845,0.033539,-0.009644,-0.017793,0.004932,0.004695,-41.060001,-0.06,15.06,3a
2019-07-15_152912:980,-0.49517799999999995,0.035583,-0.007599,-0.020113,0.005024,0.0032909999999999997,-41.060001,-0.06,15.06,3a
2019-07-15_152913:000,-0.48754899999999995,0.033539,-0.0055850000000000006,-0.022249,0.005268,0.002131,-40.68,1.25,15.87,3a
2019-07-15_152913:020,-0.489075,0.029968,-0.004547,-0.023592,0.004627,0.00085,-40.68,1.25,15.87,3a
2019-07-15_152913:040,-0.492645,0.026427999999999997,-0.0025329999999999997,-0.02292,0.004932,-0.000463,-40.68,1.25,15.87,3a
2019-07-15_152913:060,-0.49365200000000004,0.026427999999999997,0.002014,-0.02112,0.005482,-0.001805,-41.5,0.87,17.059998999999998,3a
2019-07-15_152913:080,-0.49823,0.029968,0.0030210000000000002,-0.018922,0.006611,-0.001592,-41.5,0.87,17.059998999999998,3a
2019-07-15_152913:100,-0.500275,0.028961,0.005065999999999999,-0.016725,0.008198,0.00085,-41.560001,1.25,15.5,3a
2019-07-15_152913:120,-0.49316400000000005,0.023895,0.011169,-0.01407,0.009785,0.001582,-41.560001,1.25,15.5,3a
2019-07-15_152913:140,-0.489075,0.024384,0.013213999999999998,-0.011231999999999999,0.010059,0.000545,-41.560001,1.25,15.5,3a
2019-07-15_152913:160,-0.494171,0.027954000000000003,0.011687999999999999,-0.008302,0.010273000000000001,-6.6e-05,-41.060001,0.87,15.87,3a
2019-07-15_152913:180,-0.497742,0.030487,0.012177,-0.006197,0.011585,-0.0009199999999999999,-41.060001,0.87,15.87,3a
2019-07-15_152913:200,-0.484497,0.034546,0.01828,-0.0039380000000000005,0.013843000000000001,-0.00324,-41.5,1.25,16.25,3a
2019-07-15_152913:220,-0.486023,0.039642000000000004,0.01828,-0.003786,0.012775,-0.004979,-41.5,1.25,16.25,3a
2019-07-15_152913:240,-0.48196400000000006,0.042694,0.015747,-0.003725,0.010181,-0.002568,-41.5,1.25,16.25,3a
2019-07-15_152913:260,-0.484497,0.038635,0.016266,-0.004854,0.005604,0.0024059999999999997,-40.68,0.87,17.059998999999998,3a
2019-07-15_152913:280,-0.486023,0.032532,0.015228,-0.005647,-0.0005,0.008052,-40.68,0.87,17.059998999999998,3a
2019-07-15_152913:300,-0.49111899999999997,0.021851,0.011687999999999999,-0.006379999999999999,-0.005657,0.012385,-40.68,0.18,17.5,3a
2019-07-15_152913:320,-0.498749,0.016753999999999998,0.009644,-0.006044,-0.00877,0.014491,-40.68,0.18,17.5,3a
2019-07-15_152913:340,-0.501282,0.012695,0.006072999999999999,-0.006104999999999999,-0.009838,0.015498,-40.68,0.18,17.5,3a
2019-07-15_152913:360,-0.5048520000000001,0.011687999999999999,0.0025329999999999997,-0.005525,-0.009502,0.014705000000000001,-40.68,1.68,17.059998999999998,3a
2019-07-15_152913:380,-0.506378,0.010651,0.0025329999999999997,-0.005403,-0.008282,0.012506999999999999,-40.68,1.68,17.059998999999998,3a
2019-07-15_152913:400,-0.503845,0.009644,0.004059,-0.004793,-0.0053219999999999995,0.008937,-40.369999,2.0,17.870001000000002,3a
2019-07-15_152913:420,-0.503845,0.013213999999999998,0.0035399999999999997,-0.004732,-0.0031850000000000003,0.005336,-40.369999,2.0,17.870001000000002,3a
2019-07-15_152913:440,-0.501801,0.014221000000000001,0.002014,-0.004793,-0.001324,0.0036880000000000003,-40.369999,2.0,17.870001000000002,3a
2019-07-15_152913:460,-0.496216,0.016266,0.0035399999999999997,-0.005067,-0.0005,0.0028940000000000003,-40.369999,2.37,17.059998999999998,3a
2019-07-15_152913:480,-0.494171,0.016266,0.004059,-0.005647,-0.000683,0.002742,-40.369999,2.37,17.059998999999998,3a
2019-07-15_152913:500,-0.495697,0.015747,0.0030210000000000002,-0.006654,-0.001263,0.003871,-40.68,2.68,16.18,3a
2019-07-15_152913:520,-0.49365200000000004,0.013702,0.0025329999999999997,-0.007448000000000001,-0.001995,0.005275,-40.68,2.68,16.18,3a
2019-07-15_152913:540,-0.492645,0.012177,-0.001007,-0.008241,-0.00346,0.0058850000000000005,-40.68,2.68,16.18,3a
2019-07-15_152913:560,-0.492645,0.010651,-0.001495,-0.008516,-0.004314,0.006801000000000001,-40.0,2.37,17.059998999999998,3a
2019-07-15_152913:580,-0.495697,0.007599,-0.001007,-0.008851999999999999,-0.004772,0.006801000000000001,-40.0,2.37,17.059998999999998,3a
2019-07-15_152913:600,-0.500275,0.004547,-0.0030210000000000002,-0.008851999999999999,-0.004711,0.0065569999999999995,-40.68,2.37,16.370001000000002,3a
2019-07-15_152913:620,-0.501801,0.004059,-0.0025329999999999997,-0.008516,-0.004589,0.005672,-40.68,2.37,16.370001000000002,3a
2019-07-15_152913:640,-0.502808,0.0025329999999999997,-0.001495,-0.008028,-0.003704,0.004603,-40.68,2.37,16.370001000000002,3a
2019-07-15_152913:660,-0.503845,0.001007,-0.002014,-0.007051000000000001,-0.002911,0.0035659999999999997,-41.5,2.37,16.370001000000002,3a
2019-07-15_152913:680,-0.500793,0.004547,-0.002014,-0.006319,-0.002117,0.0025280000000000003,-41.5,2.37,16.370001000000002,3a
2019-07-15_152913:700,-0.49975600000000003,0.0055850000000000006,-0.004547,-0.005769,-0.001782,0.001399,-41.060001,2.68,16.68,3a
2019-07-15_152913:720,-0.498749,0.008118,-0.005065999999999999,-0.005312,-0.00172,0.00085,-41.060001,2.68,16.68,3a
2019-07-15_152913:740,-0.49722299999999997,0.009125,-0.005065999999999999,-0.005006,-0.00172,0.0016129999999999999,-41.060001,2.68,16.68,3a
2019-07-15_152913:760,-0.49975600000000003,0.010162000000000001,-0.007111,-0.004793,-0.001598,0.003016,-41.060001,3.06,16.25,3a
2019-07-15_152913:780,-0.502808,0.006592,-0.004547,-0.004915,-0.001598,0.004146,-41.060001,3.06,16.25,3a
2019-07-15_152913:800,-0.49823,0.006072999999999999,-0.005065999999999999,-0.004243,-0.00108,0.003963,-41.5,2.37,15.06,3a
2019-07-15_152913:820,-0.49926800000000005,0.007599,-0.0025329999999999997,-0.004121,-0.001141,0.0036270000000000004,-41.5,2.37,15.06,3a
2019-07-15_152913:840,-0.498749,0.006592,-0.0025329999999999997,-0.0038469999999999997,-0.001202,0.0032909999999999997,-41.5,2.37,15.06,3a
2019-07-15_152913:860,-0.49823,0.007111,-0.001495,-0.0038469999999999997,-0.0011099999999999999,0.002833,-40.369999,3.5,15.56,3a
2019-07-15_152913:880,-0.49468999999999996,0.007111,-0.001495,-0.003786,-0.001537,0.002955,-40.369999,3.5,15.56,3a
2019-07-15_152913:900,-0.49517799999999995,0.0055850000000000006,-0.0030210000000000002,-0.003786,-0.001782,0.002589,-41.060001,2.68,16.0,3a
2019-07-15_152913:920,-0.49468999999999996,0.005065999999999999,-0.0025329999999999997,-0.003389,-0.002239,0.00207,-41.060001,2.68,16.0,3a
2019-07-15_152913:940,-0.49468999999999996,0.006592,-0.005065999999999999,-0.003084,-0.002605,0.001796,-41.060001,2.68,16.0,3a
2019-07-15_152913:960,-0.496216,0.0055850000000000006,-0.0035399999999999997,-0.002443,-0.002728,0.001277,-36.68,2.68,17.18,3a
2019-07-15_152913:980,-0.497742,0.008118,-0.0030210000000000002,-0.002168,-0.003002,0.000941,-36.68,2.68,17.18,3a
2019-07-15_152914:000,-0.49517799999999995,0.011169,-0.005065999999999999,-0.002229,-0.003002,0.000941,-41.5,2.68,15.5,3a
2019-07-15_152914:020,-0.49975600000000003,0.013213999999999998,-0.007111,-0.0023510000000000002,-0.003368,0.001185,-41.5,2.68,15.5,3a
2019-07-15_152914:040,-0.501282,0.014221000000000001,-0.007599,-0.002779,-0.003124,0.000941,-41.5,2.68,15.5,3a
2019-07-15_152914:060,-0.500793,0.013213999999999998,-0.009125,-0.0029010000000000004,-0.003002,0.0010019999999999999,-41.5,4.18,16.25,3a
2019-07-15_152914:080,-0.49823,0.014740000000000001,-0.009125,-0.003145,-0.002605,0.000941,-41.5,4.18,16.25,3a
2019-07-15_152914:100,-0.496704,0.015228,-0.010651,-0.0034799999999999996,-0.002667,0.001124,-40.68,2.68,15.56,3a
2019-07-15_152914:120,-0.496216,0.015747,-0.009644,-0.0036030000000000003,-0.002911,0.001277,-40.68,2.68,15.56,3a
2019-07-15_152914:140,-0.49823,0.016753999999999998,-0.010162000000000001,-0.004396,-0.0030629999999999998,0.001338,-40.68,2.68,15.56,3a
2019-07-15_152914:160,-0.502319,0.016753999999999998,-0.009644,-0.0049759999999999995,-0.002911,0.00146,-41.5,2.68,14.75,3a
2019-07-15_152914:180,-0.500793,0.019806,-0.009644,-0.00525,-0.0023309999999999997,0.001674,-41.5,2.68,14.75,3a
2019-07-15_152914:200,-0.501801,0.018799,-0.009125,-0.005372999999999999,-0.001873,0.0016129999999999999,-41.5,2.37,16.370001000000002,3a
2019-07-15_152914:220,-0.49975600000000003,0.019806,-0.008636,-0.005983,-0.001202,0.001674,-41.5,2.37,16.370001000000002,3a
2019-07-15_152914:240,-0.49926800000000005,0.022858,-0.008118,-0.0069900000000000006,-0.0007740000000000001,0.001796,-41.5,2.37,16.370001000000002,3a
2019-07-15_152914:260,-0.501282,0.024384,-0.007111,-0.008119,-0.000683,0.001918,-41.060001,3.06,17.18,3a
2019-07-15_152914:280,-0.501801,0.031494,-0.007111,-0.010316,1.9e-05,0.001399,-41.060001,3.06,17.18,3a
2019-07-15_152914:300,-0.500793,0.033539,-0.006072999999999999,-0.013032,0.000172,0.0010019999999999999,-45.060001,2.68,15.56,3a
2019-07-15_152914:320,-0.49926800000000005,0.035065,-0.006592,-0.016541999999999998,0.00011100000000000001,0.000606,-45.060001,2.68,15.56,3a
2019-07-15_152914:340,-0.5134890000000001,0.034058,-0.008636,-0.019197,0.000904,0.000728,-45.060001,2.68,15.56,3a
2019-07-15_152914:360,-0.5048520000000001,0.03302,-0.008118,-0.022371000000000002,0.0020329999999999997,0.000728,-41.060001,3.5,15.18,3a
2019-07-15_152914:380,-0.502319,0.032532,-0.009125,-0.025240000000000002,0.002491,0.000545,-41.060001,3.5,15.18,3a
2019-07-15_152914:400,-0.502808,0.036072,-0.0055850000000000006,-0.028078,0.0032229999999999997,0.000331,-41.5,3.06,16.370001000000002,3a
2019-07-15_152914:420,-0.501282,0.036072,-0.0035399999999999997,-0.031007,0.003956,0.000453,-41.5,3.06,16.370001000000002,3a
2019-07-15_152914:440,-0.503326,0.048279,-0.006072999999999999,-0.034456,0.004871,-5e-06,-41.5,3.06,16.370001000000002,3a
2019-07-15_152914:460,-0.49975600000000003,0.05285599999999999,-0.007599,-0.039583,0.005878,0.000484,-41.5,3.06,16.0,3a
2019-07-15_152914:480,-0.49823,0.053863999999999995,-0.0030210000000000002,-0.045076,0.005665,0.0012460000000000001,-41.5,3.06,16.0,3a
2019-07-15_152914:500,-0.5048520000000001,0.053863999999999995,-0.002014,-0.050996,0.005695,0.0017350000000000002,-40.68,3.5,16.370001000000002,3a
2019-07-15_152914:520,-0.505371,0.052338,-0.002014,-0.057039,0.007465,0.0031079999999999997,-40.68,3.5,16.370001000000002,3a
2019-07-15_152914:540,-0.503326,0.047272,-0.007599,-0.06274600000000001,0.008411,0.006068,-40.68,3.5,16.370001000000002,3a
2019-07-15_152914:560,-0.491638,0.03302,-0.0055850000000000006,-0.066835,0.00835,0.008052,-40.68,4.56,16.370001000000002,3a
2019-07-15_152914:580,-0.49926800000000005,0.020844,-0.000488,-0.069093,0.007679000000000001,0.009608,-40.68,4.56,16.370001000000002,3a
2019-07-15_152914:600,-0.49316400000000005,0.011169,0.0,-0.069704,0.007801000000000001,0.010646,-40.68,5.68,15.18,3a
2019-07-15_152914:620,-0.48754899999999995,0.0,0.0025329999999999997,-0.069124,0.0070079999999999995,0.011592,-40.68,5.68,15.18,3a
2019-07-15_152914:640,-0.490601,-0.007599,0.005065999999999999,-0.067384,0.005543,0.01266,-40.68,5.68,15.18,3a
2019-07-15_152914:660,-0.49111899999999997,-0.014740000000000001,0.009644,-0.064333,0.005024,0.012568000000000001,-40.369999,7.25,16.370001000000002,3a
2019-07-15_152914:680,-0.48754899999999995,-0.01828,0.010651,-0.061341999999999994,0.004017,0.011592,-40.369999,7.25,16.370001000000002,3a
2019-07-15_152914:700,-0.496704,-0.021851,0.015228,-0.056947000000000005,0.0031620000000000003,0.010523999999999999,-40.0,8.25,15.18,3a
2019-07-15_152914:720,-0.49517799999999995,-0.020325,0.014221000000000001,-0.052248,0.003498,0.008601000000000001,-40.0,8.25,15.18,3a
2019-07-15_152914:740,-0.49722299999999997,-0.018799,0.011169,-0.048585,0.003406,0.00735,-40.0,8.25,15.18,3a
2019-07-15_152914:760,-0.496216,-0.019806,0.014221000000000001,-0.044739999999999995,0.0032229999999999997,0.006679000000000001,-40.0,9.06,15.18,3a
2019-07-15_152914:780,-0.495697,-0.019806,0.018799,-0.040833999999999995,0.002827,0.005214,-40.0,9.06,15.18,3a
2019-07-15_152914:800,-0.496216,-0.021851,0.020844,-0.037172000000000004,0.002613,0.003901,-40.68,10.5,13.56,3a
2019-07-15_152914:820,-0.49316400000000005,-0.020844,0.022369,-0.033052,0.002613,0.0031079999999999997,-40.68,10.5,13.56,3a
2019-07-15_152914:840,-0.49468999999999996,-0.021332,0.020325,-0.028810000000000002,0.002277,0.002376,-40.68,10.5,13.56,3a
2019-07-15_152914:860,-0.49975600000000003,-0.020844,0.021332,-0.024843,0.0020329999999999997,0.001796,-40.0,11.37,15.56,3a
2019-07-15_152914:880,-0.49823,-0.019806,0.023895,-0.020600999999999998,0.002552,0.000667,-40.0,11.37,15.56,3a
2019-07-15_152914:900,-0.501282,-0.018799,0.024384,-0.016939,0.002827,-5e-06,-40.369999,11.56,14.75,3a
2019-07-15_152914:920,-0.508911,-0.01828,0.025421,-0.013765000000000001,0.003956,-0.00033999999999999997,-40.369999,11.56,14.75,3a
2019-07-15_152914:940,-0.50943,-0.014740000000000001,0.021851,-0.010622,0.00655,8.7e-05,-40.369999,11.56,14.75,3a
2019-07-15_152914:960,-0.505371,-0.014221000000000001,0.020325,-0.007967,0.008594,0.000453,-39.560001,11.25,14.5,3a
2019-07-15_152914:980,-0.498749,-0.012695,0.025908999999999998,-0.005586,0.009448999999999999,0.00020899999999999998,-39.560001,11.25,14.5,3a
2019-07-15_152915:000,-0.503326,-0.011169,0.027954000000000003,-0.003786,0.009724,-0.00024900000000000004,-40.369999,12.0,14.87,3a
2019-07-15_152915:020,-0.505371,-0.010162000000000001,0.034058,-0.0016489999999999999,0.010456,-0.000401,-40.369999,12.0,14.87,3a
2019-07-15_152915:040,-0.5134890000000001,-0.006072999999999999,0.037108999999999996,2.8999999999999997e-05,0.012775,-0.000401,-40.369999,12.0,14.87,3a
2019-07-15_152915:060,-0.5058590000000001,-0.0030210000000000002,0.036591000000000005,0.001036,0.015368999999999999,8.7e-05,-39.560001,12.0,15.25,3a
2019-07-15_152915:080,-0.498749,-0.001007,0.040161,0.00183,0.016956,0.0010019999999999999,-39.560001,12.0,15.25,3a
2019-07-15_152915:100,-0.496216,0.002014,0.044219999999999995,0.002135,0.017353,0.000728,-40.369999,11.56,16.059998999999998,3a
2019-07-15_152915:120,-0.504333,0.0030210000000000002,0.048279,0.002013,0.017292,-5e-06,-40.369999,11.56,16.059998999999998,3a
2019-07-15_152915:140,-0.49722299999999997,0.007599,0.051849,0.002226,0.018757,-0.000188,-40.369999,11.56,16.059998999999998,3a
2019-07-15_152915:160,-0.49365200000000004,0.009125,0.055389,0.001738,0.019275999999999998,-0.00024900000000000004,-38.5,10.87,17.25,3a
2019-07-15_152915:180,-0.500275,0.011687999999999999,0.062012,0.0007,0.019215,0.000148,-38.5,10.87,17.25,3a
2019-07-15_152915:200,-0.498749,0.012177,0.06405599999999999,0.000151,0.020618,0.000545,-38.869999,11.25,17.25,3a
2019-07-15_152915:220,-0.486023,0.012177,0.068115,-0.0007030000000000001,0.021473,0.000453,-38.869999,11.25,17.25,3a
2019-07-15_152915:240,-0.48858599999999996,0.011169,0.071686,-0.001894,0.020893000000000002,-0.00033999999999999997,-38.869999,11.25,17.25,3a
2019-07-15_152915:260,-0.48349,0.011169,0.0737,-0.0028399999999999996,0.019672,-0.000585,-38.869999,10.5,18.370001000000002,3a
2019-07-15_152915:280,-0.481476,0.010651,0.082336,-0.003664,0.017231,-0.000524,-38.869999,10.5,18.370001000000002,3a
2019-07-15_152915:300,-0.481476,0.009125,0.083374,-0.004274,0.015491,-0.000646,-37.75,10.18,18.870001000000002,3a
2019-07-15_152915:320,-0.473846,0.009644,0.091003,-0.004121,0.013966,-0.0011949999999999999,-37.75,10.18,18.870001000000002,3a
2019-07-15_152915:340,-0.47332799999999997,0.009125,0.092529,-0.0039380000000000005,0.011401999999999999,-0.001317,-37.75,10.18,18.870001000000002,3a
2019-07-15_152915:360,-0.477386,0.009644,0.095581,-0.0032670000000000004,0.008594,-0.0014089999999999999,-38.5,9.75,20.370001000000002,3a
2019-07-15_152915:380,-0.475372,0.010651,0.100159,-0.003023,0.005817,-0.000737,-38.5,9.75,20.370001000000002,3a
2019-07-15_152915:400,-0.47995,0.014740000000000001,0.09963999999999999,-0.002382,0.002705,8.7e-05,-37.75,10.18,20.059998999999998,3a
2019-07-15_152915:420,-0.478912,0.016266,0.099121,-0.001894,0.00011100000000000001,0.00085,-37.75,10.18,20.059998999999998,3a
2019-07-15_152915:440,-0.478912,0.015747,0.098633,-0.001894,-0.001873,0.00146,-37.75,10.18,20.059998999999998,3a
2019-07-15_152915:460,-0.47995,0.015747,0.099121,-0.001222,-0.003399,0.002131,-37.369999,10.5,20.870001000000002,3a
2019-07-15_152915:480,-0.481476,0.017273,0.095581,-0.001161,-0.004589,0.002131,-37.369999,10.5,20.870001000000002,3a
2019-07-15_152915:500,-0.48553500000000005,0.017792,0.092529,-0.001161,-0.005779,0.002376,-38.5,10.87,18.870001000000002,3a
2019-07-15_152915:520,-0.49111899999999997,0.017792,0.092529,-0.001039,-0.006298,0.002589,-38.5,10.87,18.870001000000002,3a
2019-07-15_152915:540,-0.49517799999999995,0.01828,0.08743300000000001,-0.001253,-0.006451,0.002742,-38.5,10.87,18.870001000000002,3a
2019-07-15_152915:560,-0.496704,0.019318000000000002,0.08590700000000001,-0.001161,-0.006573000000000001,0.00265,-37.0,10.18,20.059998999999998,3a
2019-07-15_152915:580,-0.495697,0.020325,0.083862,-0.001558,-0.006023,0.0027719999999999997,-37.0,10.18,20.059998999999998,3a
2019-07-15_152915:600,-0.496216,0.020325,0.083374,-0.001558,-0.005047,0.0032909999999999997,-38.5,9.75,19.68,3a
2019-07-15_152915:620,-0.49365200000000004,0.020325,0.08081100000000001,-0.002046,-0.004253,0.003901,-38.5,9.75,19.68,3a
2019-07-15_152915:640,-0.49722299999999997,0.019318000000000002,0.081329,-0.002565,-0.003918,0.00442,-38.5,9.75,19.68,3a
2019-07-15_152915:660,-0.495697,0.019318000000000002,0.08081100000000001,-0.003084,-0.003002,0.004359,-38.5,10.5,19.68,3a
2019-07-15_152915:680,-0.489075,0.017273,0.08081100000000001,-0.003664,-0.00285,0.004603,-38.5,10.5,19.68,3a
2019-07-15_152915:700,-0.488068,0.015747,0.080322,-0.003999,-0.0027890000000000002,0.004695,-37.75,10.5,17.68,3a
2019-07-15_152915:720,-0.490112,0.014740000000000001,0.083374,-0.004457,-0.003246,0.004939,-37.75,10.5,17.68,3a
2019-07-15_152915:740,-0.49111899999999997,0.013213999999999998,0.083374,-0.00461,-0.003124,0.004817,-37.75,10.5,17.68,3a
2019-07-15_152915:760,-0.492645,0.010651,0.084381,-0.004732,-0.003307,0.004481000000000001,-38.75,10.18,19.25,3a
2019-07-15_152915:780,-0.484497,0.011169,0.082855,-0.004793,-0.003918,0.004542,-38.75,10.18,19.25,3a
2019-07-15_152915:800,-0.48095699999999997,0.007111,0.08081100000000001,-0.00461,-0.004437,0.004817,-37.68,10.5,21.25,3a
2019-07-15_152915:820,-0.48654200000000003,0.006072999999999999,0.080322,-0.003725,-0.00758,0.003016,-37.68,10.5,21.25,3a
2019-07-15_152915:840,-0.489075,0.007111,0.079803,-0.003145,-0.008709,0.0024059999999999997,-37.68,10.5,21.25,3a
2019-07-15_152915:860,-0.489594,0.007599,0.078796,-0.0028399999999999996,-0.009289,0.002376,-38.869999,10.18,19.25,3a
2019-07-15_152915:880,-0.49111899999999997,0.007111,0.076263,-0.002046,-0.008892,0.002711,-38.869999,10.18,19.25,3a
2019-07-15_152915:900,-0.492645,0.007111,0.075226,-0.001497,-0.008373,0.0027719999999999997,-38.369999,10.87,18.370001000000002,3a
2019-07-15_152915:920,-0.49111899999999997,0.008118,0.075745,-0.0005809999999999999,-0.008678,0.002589,-38.369999,10.87,18.370001000000002,3a
2019-07-15_152915:940,-0.490112,0.009125,0.071686,-9.300000000000001e-05,-0.009441,0.0021920000000000004,-38.369999,10.87,18.370001000000002,3a
2019-07-15_152915:960,-0.489594,0.009125,0.071686,0.000426,-0.00996,0.0021920000000000004,-37.75,10.5,18.870001000000002,3a
2019-07-15_152915:980,-0.492645,0.011169,0.07016,0.001006,-0.010570999999999999,0.0025280000000000003,-37.75,10.5,18.870001000000002,3a
2019-07-15_152916:000,-0.491638,0.011169,0.065582,0.001219,-0.010631999999999999,0.002315,-38.5,10.5,19.25,3a
2019-07-15_152916:020,-0.49111899999999997,0.010651,0.063538,0.0016769999999999999,-0.011211,0.001582,-38.5,10.5,19.25,3a
2019-07-15_152916:040,-0.489075,0.012695,0.06149299999999999,0.002013,-0.012158,0.001582,-38.5,10.5,19.25,3a
2019-07-15_152916:060,-0.490601,0.012695,0.058960000000000005,0.002013,-0.012463,0.0016129999999999999,-38.060001,10.5,18.370001000000002,3a
2019-07-15_152916:080,-0.49365200000000004,0.014221000000000001,0.058441,0.002531,-0.013073,0.001582,-38.060001,10.5,18.370001000000002,3a
2019-07-15_152916:100,-0.49722299999999997,0.013702,0.055389,0.002867,-0.012676,0.001796,-39.060001,9.75,17.25,3a
2019-07-15_152916:120,-0.495697,0.016753999999999998,0.051849,0.00302,-0.012493,0.002009,-39.060001,9.75,17.25,3a
2019-07-15_152916:140,-0.49517799999999995,0.017273,0.048279,0.003203,-0.012615000000000001,0.002315,-39.060001,9.75,17.25,3a
2019-07-15_152916:160,-0.496704,0.017792,0.047272,0.003264,-0.012493,0.0021920000000000004,-38.5,10.18,16.5,3a
2019-07-15_152916:180,-0.49975600000000003,0.017273,0.046265,0.002745,-0.011761,0.002467,-38.5,10.18,16.5,3a
2019-07-15_152916:200,-0.49722299999999997,0.019806,0.043701,0.002531,-0.011669,0.0024059999999999997,-38.5,10.18,16.5,3a
2019-07-15_152916:220,-0.498749,0.018799,0.039124,0.001616,-0.011271999999999999,0.002467,-40.0,9.5,16.059998999999998,3a
2019-07-15_152916:240,-0.500275,0.019806,0.037108999999999996,0.00128,-0.011028,0.002589,-40.0,9.5,16.059998999999998,3a
2019-07-15_152916:260,-0.49926800000000005,0.020844,0.034058,0.0009449999999999999,-0.010754000000000001,0.002711,-40.0,9.75,16.059998999999998,3a
2019-07-15_152916:280,-0.500275,0.020844,0.03302,-9.300000000000001e-05,-0.009625,0.003078,-40.0,9.75,16.059998999999998,3a
2019-07-15_152916:300,-0.501282,0.020844,0.031006,-0.0007030000000000001,-0.009228,0.0031079999999999997,-40.0,9.75,16.059998999999998,3a
2019-07-15_152916:320,-0.49926800000000005,0.021851,0.029480000000000003,-0.002229,-0.009014,0.003749,-38.869999,10.18,16.059998999999998,3a
2019-07-15_152916:340,-0.501282,0.020844,0.028442000000000002,-0.0023510000000000002,-0.008678,0.00381,-38.869999,10.18,16.059998999999998,3a
2019-07-15_152916:360,-0.49926800000000005,0.019806,0.027954000000000003,-0.00345,-0.007763,0.003871,-39.560001,10.18,15.68,3a
2019-07-15_152916:380,-0.49926800000000005,0.020844,0.024384,-0.004121,-0.007488,0.004207,-39.560001,10.18,15.68,3a
2019-07-15_152916:400,-0.49926800000000005,0.018799,0.022858,-0.005128,-0.007031,0.004359,-39.560001,10.18,15.68,3a
2019-07-15_152916:420,-0.497742,0.018799,0.024384,-0.0058,-0.006847,0.004207,-39.560001,10.5,15.25,3a
2019-07-15_152916:440,-0.501282,0.016266,0.024902,-0.006502,-0.0069700000000000005,0.004024,-39.560001,10.5,15.25,3a
2019-07-15_152916:460,-0.496704,0.017792,0.022369,-0.0068980000000000005,-0.00642,0.004207,-40.369999,9.75,14.87,3a
2019-07-15_152916:480,-0.49316400000000005,0.016753999999999998,0.021332,-0.007722,-0.006695,0.004207,-40.369999,9.75,14.87,3a
2019-07-15_152916:500,-0.49722299999999997,0.017273,0.019806,-0.008362999999999999,-0.007305,0.003901,-40.369999,9.75,14.87,3a
2019-07-15_152916:520,-0.496216,0.01828,0.019318000000000002,-0.009096,-0.007244,0.003169,-40.0,10.18,15.68,3a
2019-07-15_152916:540,-0.49722299999999997,0.020325,0.016753999999999998,-0.010561,-0.007244,0.0027719999999999997,-40.0,10.18,15.68,3a
2019-07-15_152916:560,-0.500275,0.019806,0.012177,-0.012208,-0.00758,0.002833,-40.369999,10.18,14.5,3a
2019-07-15_152916:580,-0.498749,0.020325,0.013702,-0.01349,-0.007092,0.00323,-40.369999,10.18,14.5,3a
2019-07-15_152916:600,-0.501801,0.018799,0.011169,-0.015290999999999999,-0.006451,0.004085,-40.369999,10.18,14.5,3a
2019-07-15_152916:620,-0.49926800000000005,0.017792,0.012695,-0.016725,-0.00584,0.004542,-40.369999,10.18,14.06,3a
2019-07-15_152916:640,-0.497742,0.015228,0.010651,-0.018281,-0.005444,0.004695,-40.369999,10.18,14.06,3a
2019-07-15_152916:660,-0.49926800000000005,0.015228,0.008118,-0.01938,-0.005901,0.005031,-40.68,10.87,13.25,3a
2019-07-15_152916:680,-0.500275,0.013213999999999998,0.010651,-0.020447999999999997,-0.005718,0.005427,-40.68,10.87,13.25,3a
2019-07-15_152916:700,-0.501801,0.010651,0.007111,-0.021333,-0.005383,0.005397,-40.68,10.87,13.25,3a
2019-07-15_152916:720,-0.504333,0.009125,0.007599,-0.021852,-0.004833,0.005336,-40.0,10.5,13.68,3a
2019-07-15_152916:740,-0.500793,0.008636,0.008118,-0.021852,-0.003857,0.004939,-40.0,10.5,13.68,3a
2019-07-15_152916:760,-0.504333,0.007111,0.008118,-0.022127,-0.00346,0.004024,-40.369999,11.56,13.25,3a
2019-07-15_152916:780,-0.503326,0.005065999999999999,0.008118,-0.021974,-0.002392,0.003505,-40.369999,11.56,13.25,3a
2019-07-15_152916:800,-0.504333,0.007111,0.007599,-0.021730000000000003,-0.0016589999999999999,0.003078,-40.369999,11.56,13.25,3a
2019-07-15_152916:820,-0.502808,0.006592,0.008118,-0.021333,-0.001019,0.002742,-40.68,12.0,13.25,3a
2019-07-15_152916:840,-0.502319,0.007599,0.007599,-0.021577000000000002,-0.0007740000000000001,0.0021920000000000004,-40.68,12.0,13.25,3a
2019-07-15_152916:860,-0.49975600000000003,0.007111,0.006592,-0.02112,-0.000225,0.002376,-41.5,11.25,12.87,3a
2019-07-15_152916:880,-0.497742,0.009125,0.008636,-0.021455000000000002,-0.000164,0.002315,-41.5,11.25,12.87,3a
2019-07-15_152916:900,-0.496216,0.007599,0.007599,-0.021516,-0.0005,0.002742,-41.5,11.25,12.87,3a
2019-07-15_152916:920,-0.496704,0.008636,0.009125,-0.021791,-0.0008349999999999999,0.002955,-40.369999,11.25,13.25,3a
2019-07-15_152916:940,-0.498749,0.007111,0.008118,-0.021913,-0.0008349999999999999,0.0032909999999999997,-40.369999,11.25,13.25,3a
2019-07-15_152916:960,-0.498749,0.007599,0.008636,-0.022432,-0.0008349999999999999,0.003505,-41.060001,12.75,12.87,3a
2019-07-15_152916:980,-0.49823,0.004059,0.009644,-0.022646,-0.0008349999999999999,0.003749,-41.060001,12.75,12.87,3a
2019-07-15_152917:000,-0.497742,0.0025329999999999997,0.009125,-0.022768,-0.0008349999999999999,0.0036270000000000004,-41.060001,12.75,12.87,3a
2019-07-15_152917:020,-0.497742,0.0,0.011169,-0.022249,-0.00108,0.003474,-40.68,11.56,12.06,3a
2019-07-15_152917:040,-0.496704,-0.002014,0.009125,-0.021455000000000002,-0.000958,0.003474,-40.68,11.56,12.06,3a
2019-07-15_152917:060,-0.496216,-0.004547,0.010162000000000001,-0.020387,-0.001019,0.00323,-41.060001,12.37,11.68,3a
2019-07-15_152917:080,-0.500275,-0.006072999999999999,0.011169,-0.019075,-0.001019,0.0025280000000000003,-41.060001,12.37,11.68,3a
2019-07-15_152917:100,-0.496704,-0.007599,0.010651,-0.017458,-0.0007740000000000001,0.002711,-41.060001,12.37,11.68,3a
2019-07-15_152917:120,-0.496704,-0.010162000000000001,0.011687999999999999,-0.015290999999999999,-0.0007740000000000001,0.002711,-40.68,12.75,12.5,3a
2019-07-15_152917:140,-0.49823,-0.009644,0.011169,-0.01288,-0.00108,0.001796,-40.68,12.75,12.5,3a
2019-07-15_152917:160,-0.49722299999999997,-0.011169,0.010162000000000001,-0.010286,-0.001202,0.001338,-41.060001,13.5,11.25,3a
2019-07-15_152917:180,-0.496216,-0.010651,0.011687999999999999,-0.007448000000000001,-0.0011099999999999999,0.001582,-41.060001,13.5,11.25,3a
2019-07-15_152917:200,-0.496704,-0.010162000000000001,0.009644,-0.00461,-0.001385,0.0021920000000000004,-41.060001,13.5,11.25,3a
2019-07-15_152917:220,-0.49517799999999995,-0.010162000000000001,0.011687999999999999,-0.001894,-0.001446,0.00265,-40.369999,13.5,11.25,3a
2019-07-15_152917:240,-0.49823,-0.008636,0.009644,0.0007610000000000001,-0.001843,0.0031079999999999997,-40.369999,13.5,11.25,3a
2019-07-15_152917:260,-0.498749,-0.007111,0.008118,0.003203,-0.001934,0.0033520000000000004,-40.369999,13.75,12.06,3a
2019-07-15_152917:280,-0.49926800000000005,-0.006072999999999999,0.008636,0.004881,-0.001782,0.0031079999999999997,-40.369999,13.75,12.06,3a
2019-07-15_152917:300,-0.497742,-0.004059,0.006072999999999999,0.006346,-0.0023309999999999997,0.002711,-40.369999,13.75,12.06,3a
2019-07-15_152917:320,-0.496704,-0.0025329999999999997,0.007111,0.007872,-0.0024530000000000003,0.002254,-40.68,13.06,11.68,3a
2019-07-15_152917:340,-0.49975600000000003,-0.001495,0.005065999999999999,0.009001,-0.002392,0.001277,-40.68,13.06,11.68,3a
2019-07-15_152917:360,-0.497742,0.001007,0.0035399999999999997,0.010191,-0.002392,0.000331,-40.369999,12.75,11.68,3a
2019-07-15_152917:380,-0.496216,0.0,0.004547,0.011778,-0.002239,5.6000000000000006e-05,-40.369999,12.75,11.68,3a
2019-07-15_152917:400,-0.49468999999999996,0.002014,0.0035399999999999997,0.013030000000000002,-0.0024530000000000003,0.000148,-40.369999,12.75,11.68,3a
2019-07-15_152917:420,-0.49365200000000004,0.0030210000000000002,0.004059,0.014494,-0.002239,0.000331,-40.369999,12.37,12.87,3a
2019-07-15_152917:440,-0.496704,0.0055850000000000006,0.0035399999999999997,0.015959,-0.002117,0.00085,-40.369999,12.37,12.87,3a
2019-07-15_152917:460,-0.497742,0.007599,0.0025329999999999997,0.016936,-0.002239,0.001399,-40.0,13.06,11.68,3a
2019-07-15_152917:480,-0.49926800000000005,0.008636,0.004059,0.017668,-0.002514,0.0021920000000000004,-40.0,13.06,11.68,3a
2019-07-15_152917:500,-0.49926800000000005,0.009125,0.0025329999999999997,0.018126,-0.002575,0.0032909999999999997,-40.0,13.06,11.68,3a
2019-07-15_152917:520,-0.498749,0.009644,0.0035399999999999997,0.018401,-0.00227,0.0036270000000000004,-40.369999,12.0,12.06,3a
2019-07-15_152917:540,-0.500275,0.011169,0.0025329999999999997,0.018553,-0.0020559999999999997,0.0042369999999999994,-40.369999,12.0,12.06,3a
2019-07-15_152917:560,-0.49926800000000005,0.011687999999999999,0.0025329999999999997,0.018156,-0.00172,0.004146,-40.369999,11.56,11.25,3a
2019-07-15_152917:580,-0.49823,0.011169,0.0035399999999999997,0.017759999999999998,-0.00172,0.003901,-40.369999,11.56,11.25,3a
2019-07-15_152917:600,-0.49517799999999995,0.009644,0.0030210000000000002,0.016936,-0.00172,0.0035659999999999997,-40.369999,11.56,11.25,3a
2019-07-15_152917:620,-0.496216,0.010651,0.0035399999999999997,0.016538999999999998,-0.001537,0.003169,-40.68,12.37,12.87,3a
2019-07-15_152917:640,-0.49722299999999997,0.008636,0.0030210000000000002,0.015837,-0.00227,0.002589,-40.68,12.37,12.87,3a
2019-07-15_152917:660,-0.496216,0.007599,0.0025329999999999997,0.016081,-0.0024530000000000003,0.00207,-40.68,11.25,12.87,3a
2019-07-15_152917:680,-0.500275,0.009125,0.004547,0.015898,-0.002605,0.001674,-40.68,11.25,12.87,3a
2019-07-15_152917:700,-0.49926800000000005,0.011687999999999999,0.0025329999999999997,0.016234000000000002,-0.0023309999999999997,0.0016129999999999999,-40.68,11.25,12.87,3a
2019-07-15_152917:720,-0.496704,0.010651,0.001007,0.016203,-0.002514,0.001338,-40.68,11.56,13.25,3a
2019-07-15_152917:740,-0.498749,0.014221000000000001,-0.000488,0.016356,-0.002575,0.000728,-40.68,11.56,13.25,3a
2019-07-15_152917:760,-0.500275,0.014740000000000001,-0.0025329999999999997,0.016203,-0.002667,0.000331,-40.68,10.5,12.5,3a
2019-07-15_152917:780,-0.49926800000000005,0.017273,-0.002014,0.016234000000000002,-0.002911,0.000453,-40.68,10.5,12.5,3a
2019-07-15_152917:800,-0.49975600000000003,0.016266,-0.001495,0.015746,-0.002728,0.000728,-40.68,10.5,12.5,3a
2019-07-15_152917:820,-0.49975600000000003,0.017792,-0.0025329999999999997,0.015074,-0.002728,0.000941,-40.369999,10.5,12.87,3a
2019-07-15_152917:840,-0.49823,0.019318000000000002,-0.002014,0.014159,-0.00227,0.001277,-40.369999,10.5,12.87,3a
2019-07-15_152917:860,-0.500275,0.019318000000000002,-0.001495,0.013182,-0.001934,0.0016129999999999999,-41.5,9.75,12.87,3a
2019-07-15_152917:880,-0.500793,0.020325,0.0,0.012236,-0.00172,0.001582,-41.5,9.75,12.87,3a
2019-07-15_152917:900,-0.500793,0.020325,-0.0025329999999999997,0.010832,-0.001873,0.002131,-41.5,9.75,12.87,3a
2019-07-15_152917:920,-0.49926800000000005,0.019806,-0.0025329999999999997,0.00952,-0.001446,0.0025280000000000003,-40.68,9.75,13.25,3a
2019-07-15_152917:940,-0.49926800000000005,0.020325,-0.002014,0.008513,-0.001202,0.0024059999999999997,-40.68,9.75,13.25,3a
2019-07-15_152917:960,-0.497742,0.019806,-0.000488,0.007262,-0.0011099999999999999,0.002131,-42.5,9.5,12.87,3a
2019-07-15_152917:980,-0.496704,0.019806,-0.001495,0.006255,-0.001141,0.00207,-42.5,9.5,12.87,3a
2019-07-15_152918:000,-0.496216,0.019806,-0.001007,0.004942,-0.0011099999999999999,0.002009,-42.5,9.5,12.87,3a
2019-07-15_152918:020,-0.496704,0.018799,-0.002014,0.003752,-0.001446,0.001796,-41.5,10.5,13.68,3a
2019-07-15_152918:040,-0.495697,0.019318000000000002,0.0,0.002348,-0.00172,0.001674,-41.5,10.5,13.68,3a
2019-07-15_152918:060,-0.497742,0.01828,-0.001495,0.001433,-0.00172,0.001979,-40.68,9.5,13.68,3a
2019-07-15_152918:080,-0.496704,0.01828,-0.002014,0.001006,-0.001995,0.002131,-40.68,9.5,13.68,3a
2019-07-15_152918:100,-0.49823,0.017273,-0.0025329999999999997,0.000365,-0.0020559999999999997,0.0021920000000000004,-40.68,9.5,13.68,3a
2019-07-15_152918:120,-0.498749,0.016753999999999998,-0.0030210000000000002,-0.000307,-0.00227,0.002376,-40.68,9.75,14.06,3a
2019-07-15_152918:140,-0.49926800000000005,0.016753999999999998,-0.0035399999999999997,-0.0011,-0.0021780000000000002,0.002254,-40.68,9.75,14.06,3a
2019-07-15_152918:160,-0.49926800000000005,0.017273,-0.0025329999999999997,-0.001558,-0.002117,0.001979,-41.5,9.5,13.68,3a
2019-07-15_152918:180,-0.49823,0.016753999999999998,-0.002014,-0.002046,-0.002117,0.001582,-41.5,9.5,13.68,3a
2019-07-15_152918:200,-0.498749,0.01828,-0.004059,-0.0025039999999999997,-0.0020559999999999997,0.001277,-41.5,9.5,13.68,3a
2019-07-15_152918:220,-0.49823,0.018799,-0.0035399999999999997,-0.0032670000000000004,-0.002392,0.001521,-40.68,9.5,12.5,3a
2019-07-15_152918:240,-0.500275,0.018799,-0.001495,-0.0038770000000000002,-0.0021780000000000002,0.001918,-40.68,9.5,12.5,3a
2019-07-15_152918:260,-0.5048520000000001,0.017792,-0.0030210000000000002,-0.004243,-0.0014759999999999999,0.002009,-40.68,9.75,13.25,3a
2019-07-15_152918:280,-0.49926800000000005,0.019318000000000002,-0.0025329999999999997,-0.004915,-0.0011099999999999999,0.002131,-40.68,9.75,13.25,3a
2019-07-15_152918:300,-0.49468999999999996,0.019318000000000002,-0.0035399999999999997,-0.005067,-0.001019,0.001979,-40.68,9.75,13.25,3a
2019-07-15_152918:320,-0.495697,0.019318000000000002,-0.005065999999999999,-0.005464,-0.001263,0.00146,-40.68,9.5,12.87,3a
2019-07-15_152918:340,-0.49517799999999995,0.01828,-0.005065999999999999,-0.0057079999999999995,-0.001995,0.0016129999999999999,-40.68,9.5,12.87,3a
2019-07-15_152918:360,-0.49722299999999997,0.018799,-0.006592,-0.006044,-0.002117,0.001857,-41.5,9.5,13.68,3a
2019-07-15_152918:380,-0.49722299999999997,0.017792,-0.005065999999999999,-0.006258,-0.002392,0.002315,-41.5,9.5,13.68,3a
2019-07-15_152918:400,-0.498749,0.01828,-0.006072999999999999,-0.0067150000000000005,-0.0024530000000000003,0.0021920000000000004,-41.5,9.5,13.68,3a
2019-07-15_152918:420,-0.49926800000000005,0.01828,-0.005065999999999999,-0.006593000000000001,-0.0020559999999999997,0.001857,-41.060001,9.06,12.5,3a
2019-07-15_152918:440,-0.49926800000000005,0.017792,-0.0035399999999999997,-0.006776000000000001,-0.001934,0.00146,-41.060001,9.06,12.5,3a
2019-07-15_152918:460,-0.500793,0.018799,-0.005065999999999999,-0.007112,-0.001873,0.001124,-41.75,9.75,13.68,3a
2019-07-15_152918:480,-0.501282,0.017273,-0.005065999999999999,-0.00757,-0.001263,0.001338,-41.75,9.75,13.68,3a
2019-07-15_152918:500,-0.500275,0.017792,-0.005065999999999999,-0.007661,-0.000897,0.001521,-41.75,9.75,13.68,3a
2019-07-15_152918:520,-0.49926800000000005,0.016753999999999998,-0.0055850000000000006,-0.007326000000000001,-0.000439,0.001521,-45.060001,9.06,12.5,3a
2019-07-15_152918:540,-0.49722299999999997,0.016753999999999998,-0.004059,-0.006776000000000001,-0.000286,0.001918,-45.060001,9.06,12.5,3a
2019-07-15_152918:560,-0.49722299999999997,0.01828,-0.004547,-0.006441,-0.000439,0.00207,-33.75,9.06,13.25,3a
2019-07-15_152918:580,-0.497742,0.015747,-0.001495,-0.006044,-0.000439,0.002589,-33.75,9.06,13.25,3a
2019-07-15_152918:600,-0.498749,0.01828,-0.0025329999999999997,-0.005769,-0.000683,0.0027719999999999997,-33.75,9.06,13.25,3a
2019-07-15_152918:620,-0.497742,0.01828,-0.0025329999999999997,-0.0058,-0.0005610000000000001,0.003169,-41.5,9.5,11.68,3a
2019-07-15_152918:640,-0.49823,0.01828,-0.0030210000000000002,-0.0058,-0.0007740000000000001,0.0031079999999999997,-41.5,9.5,11.68,3a
2019-07-15_152918:660,-0.49722299999999997,0.01828,-0.004547,-0.0058,-0.0011099999999999999,0.00323,-41.5,9.06,12.87,3a
2019-07-15_152918:680,-0.49823,0.017792,-0.0035399999999999997,-0.005525,-0.001141,0.0034130000000000002,-41.5,9.06,12.87,3a
2019-07-15_152918:700,-0.497742,0.016266,-0.0035399999999999997,-0.0057079999999999995,-0.001263,0.0032909999999999997,-41.5,9.06,12.87,3a
2019-07-15_152918:720,-0.500275,0.016753999999999998,-0.0035399999999999997,-0.005769,-0.001324,0.0033520000000000004,-41.75,8.25,13.25,3a
2019-07-15_152918:740,-0.49823,0.015228,-0.0035399999999999997,-0.005403,-0.001263,0.0033520000000000004,-41.75,8.25,13.25,3a
2019-07-15_152918:760,-0.49926800000000005,0.014740000000000001,-0.004059,-0.005312,-0.001263,0.0032909999999999997,-40.369999,9.06,12.5,3a
2019-07-15_152918:780,-0.49823,0.016266,-0.0030210000000000002,-0.005189,-0.0007740000000000001,0.0033520000000000004,-40.369999,9.06,12.5,3a
2019-07-15_152918:800,-0.498749,0.015747,-0.004547,-0.005372999999999999,-0.0008349999999999999,0.0032909999999999997,-40.369999,9.06,12.5,3a
2019-07-15_152918:820,-0.49926800000000005,0.016753999999999998,-0.0030210000000000002,-0.005464,-0.0005,0.003169,-40.68,8.68,13.25,3a
2019-07-15_152918:840,-0.49926800000000005,0.016753999999999998,-0.0030210000000000002,-0.005372999999999999,5e-05,0.00323,-40.68,8.68,13.25,3a
2019-07-15_152918:860,-0.49468999999999996,0.016266,-0.004059,-0.005128,-0.00034700000000000003,0.0032909999999999997,-40.68,9.5,14.06,3a
2019-07-15_152918:880,-0.494171,0.015228,-0.0035399999999999997,-0.004915,-0.000958,0.002742,-40.68,9.5,14.06,3a
2019-07-15_152918:900,-0.495697,0.015747,-0.005065999999999999,-0.004915,-0.001263,0.002589,-40.68,9.5,14.06,3a
2019-07-15_152918:920,-0.496704,0.015747,-0.006592,-0.004671,-0.001782,0.002955,-41.060001,9.5,13.25,3a
2019-07-15_152918:940,-0.496704,0.016753999999999998,-0.006072999999999999,-0.004518,-0.0020559999999999997,0.0036270000000000004,-41.060001,9.5,13.25,3a
2019-07-15_152918:960,-0.498749,0.015228,-0.006592,-0.004182,-0.00227,0.004085,-41.75,9.06,12.5,3a
2019-07-15_152918:980,-0.49926800000000005,0.017273,-0.007111,-0.004335,-0.0021780000000000002,0.004298,-41.75,9.06,12.5,3a
2019-07-15_152919:000,-0.49975600000000003,0.01828,-0.008118,-0.005006,-0.001995,0.004756,-41.75,9.06,12.5,3a
2019-07-15_152919:020,-0.502319,0.016753999999999998,-0.008636,-0.005586,-0.001598,0.004817,-40.68,10.5,13.25,3a
2019-07-15_152919:040,-0.500793,0.016753999999999998,-0.008636,-0.006502,-0.001537,0.005031,-40.68,10.5,13.25,3a
2019-07-15_152919:060,-0.503326,0.014740000000000001,-0.008636,-0.007448000000000001,-0.001324,0.005092,-41.5,9.75,13.25,3a
2019-07-15_152919:080,-0.49926800000000005,0.010651,-0.008118,-0.007783,-0.0005610000000000001,0.004603,-41.5,9.75,13.25,3a
2019-07-15_152919:100,-0.498749,0.011169,-0.008636,-0.007844,-0.000225,0.0036270000000000004,-41.5,9.75,13.25,3a
2019-07-15_152919:120,-0.49975600000000003,0.010162000000000001,-0.008636,-0.007783,-0.00034700000000000003,0.002833,-41.5,9.06,12.5,3a
2019-07-15_152919:140,-0.497742,0.007599,-0.007111,-0.007906,-0.00034700000000000003,0.002131,-41.5,9.06,12.5,3a
2019-07-15_152919:160,-0.49975600000000003,0.006592,-0.008118,-0.007448000000000001,-0.00034700000000000003,0.001674,-40.369999,9.5,12.5,3a
2019-07-15_152919:180,-0.49926800000000005,0.009125,-0.006592,-0.006776000000000001,-0.000164,0.001124,-40.369999,9.5,12.5,3a
2019-07-15_152919:200,-0.49975600000000003,0.010162000000000001,-0.006592,-0.006044,-0.000103,0.00085,-40.369999,9.5,12.5,3a
2019-07-15_152919:220,-0.497742,0.012695,-0.0055850000000000006,-0.005128,0.00038500000000000003,0.000667,-41.060001,9.06,13.68,3a
2019-07-15_152919:240,-0.497742,0.012695,-0.0055850000000000006,-0.004732,0.00038500000000000003,0.000453,-41.060001,9.06,13.68,3a
2019-07-15_152919:260,-0.497742,0.015747,-0.004547,-0.004335,0.000294,0.000545,-41.5,9.75,12.87,3a
2019-07-15_152919:280,-0.49722299999999997,0.016753999999999998,-0.005065999999999999,-0.004335,0.00011100000000000001,0.0010019999999999999,-41.5,9.75,12.87,3a
2019-07-15_152919:300,-0.49517799999999995,0.01828,-0.004059,-0.004274,5e-05,0.001185,-41.5,9.75,12.87,3a
2019-07-15_152919:320,-0.49722299999999997,0.017792,-0.0030210000000000002,-0.004243,0.000172,0.00146,-40.68,10.18,12.87,3a
2019-07-15_152919:340,-0.49468999999999996,0.01828,-0.001007,-0.004274,-4.2e-05,0.0017350000000000002,-40.68,10.18,12.87,3a
2019-07-15_152919:360,-0.49517799999999995,0.018799,-0.0030210000000000002,-0.004518,-0.000683,0.002467,-41.060001,9.75,12.06,3a
2019-07-15_152919:380,-0.496216,0.018799,-0.0030210000000000002,-0.004396,-0.00108,0.002742,-41.060001,9.75,12.06,3a
2019-07-15_152919:400,-0.49926800000000005,0.018799,-0.002014,-0.004335,-0.001446,0.0034130000000000002,-41.060001,9.75,12.06,3a
2019-07-15_152919:420,-0.49926800000000005,0.017273,-0.0035399999999999997,-0.004396,-0.0014759999999999999,0.003963,-41.5,9.5,12.5,3a
2019-07-15_152919:440,-0.496216,0.016753999999999998,-0.0030210000000000002,-0.00461,-0.001934,0.003505,-41.5,9.5,12.5,3a
2019-07-15_152919:460,-0.496216,0.015747,-0.004059,-0.004396,-0.001995,0.0028940000000000003,-41.060001,9.75,12.87,3a
2019-07-15_152919:480,-0.496704,0.014740000000000001,-0.0055850000000000006,-0.004396,-0.00227,0.002711,-41.060001,9.75,12.87,3a
2019-07-15_152919:500,-0.496216,0.015228,-0.004547,-0.004121,-0.002605,0.0027719999999999997,-41.060001,9.75,12.87,3a
2019-07-15_152919:520,-0.49926800000000005,0.013213999999999998,-0.004547,-0.003664,-0.0024530000000000003,0.0027719999999999997,-40.68,9.5,13.68,3a
2019-07-15_152919:540,-0.49975600000000003,0.013702,-0.004547,-0.003145,-0.002239,0.002833,-40.68,9.5,13.68,3a
2019-07-15_152919:560,-0.49823,0.014740000000000001,-0.006072999999999999,-0.002565,-0.002117,0.0031079999999999997,-42.5,10.18,12.5,3a
2019-07-15_152919:580,-0.49823,0.016266,-0.006072999999999999,-0.002565,-0.002239,0.003169,-42.5,10.18,12.5,3a
2019-07-15_152919:600,-0.49926800000000005,0.016753999999999998,-0.006592,-0.002779,-0.002605,0.0034130000000000002,-42.5,10.18,12.5,3a
2019-07-15_152919:620,-0.49823,0.017273,-0.007599,-0.0028399999999999996,-0.002605,0.003474,-40.369999,9.75,10.87,3a
2019-07-15_152919:640,-0.49926800000000005,0.015747,-0.006592,-0.0039380000000000005,-0.0023309999999999997,0.0028940000000000003,-40.369999,9.75,10.87,3a
2019-07-15_152919:660,-0.497742,0.015228,-0.008118,-0.00406,-0.002392,0.0027719999999999997,-40.68,9.75,12.87,3a
2019-07-15_152919:680,-0.496704,0.014221000000000001,-0.008118,-0.004182,-0.0021780000000000002,0.002376,-40.68,9.75,12.87,3a
2019-07-15_152919:700,-0.496704,0.013702,-0.008636,-0.003786,-0.002514,0.0024059999999999997,-40.68,9.75,12.87,3a
2019-07-15_152919:720,-0.49926800000000005,0.012695,-0.009125,-0.0036030000000000003,-0.002514,0.002589,-41.5,9.75,12.5,3a
2019-07-15_152919:740,-0.498749,0.013213999999999998,-0.008636,-0.0028399999999999996,-0.002239,0.002833,-41.5,9.75,12.5,3a
2019-07-15_152919:760,-0.49926800000000005,0.013702,-0.009644,-0.002382,-0.0021780000000000002,0.0028940000000000003,-41.060001,9.75,12.06,3a
2019-07-15_152919:780,-0.49926800000000005,0.014221000000000001,-0.010162000000000001,-0.002168,-0.001995,0.002833,-41.060001,9.75,12.06,3a
2019-07-15_152919:800,-0.498749,0.015228,-0.010162000000000001,-0.002107,-0.001934,0.002711,-41.060001,9.75,12.06,3a
2019-07-15_152919:820,-0.497742,0.015747,-0.010162000000000001,-0.0025039999999999997,-0.001598,0.002711,-40.369999,9.75,12.06,3a
2019-07-15_152919:840,-0.49823,0.015747,-0.009644,-0.002382,-0.0014759999999999999,0.002742,-40.369999,9.75,12.06,3a
2019-07-15_152919:860,-0.497742,0.016266,-0.010651,-0.0026260000000000003,-0.001843,0.002589,-41.060001,10.18,12.87,3a
2019-07-15_152919:880,-0.497742,0.014740000000000001,-0.010162000000000001,-0.002565,-0.0014759999999999999,0.0025280000000000003,-41.060001,10.18,12.87,3a
2019-07-15_152919:900,-0.496216,0.013702,-0.010651,-0.0023510000000000002,-0.001934,0.002742,-41.060001,10.18,12.87,3a
2019-07-15_152919:920,-0.495697,0.014221000000000001,-0.010162000000000001,-0.00229,-0.002117,0.0027719999999999997,-40.369999,9.5,11.25,3a
2019-07-15_152919:940,-0.49823,0.013702,-0.009644,-0.0017100000000000001,-0.002392,0.0027719999999999997,-40.369999,9.5,11.25,3a
2019-07-15_152919:960,-0.502319,0.012695,-0.010162000000000001,-0.0016190000000000002,-0.002392,0.0027719999999999997,-40.369999,9.5,11.25,3a
2019-07-15_152919:980,-0.49926800000000005,0.014221000000000001,-0.010651,-0.001436,-0.001782,0.00265,-41.060001,9.75,11.68,3a
2019-07-15_152920:000,-0.497742,0.012695,-0.010651,-0.001314,-0.001995,0.002376,-41.060001,9.75,11.68,3a
2019-07-15_152920:020,-0.49722299999999997,0.014221000000000001,-0.011169,-0.0011,-0.001873,0.001521,-41.060001,10.18,11.68,3a
2019-07-15_152920:040,-0.49517799999999995,0.014740000000000001,-0.012177,-0.000642,-0.0020559999999999997,0.001124,-41.060001,10.18,11.68,3a
2019-07-15_152920:060,-0.49468999999999996,0.013213999999999998,-0.013213999999999998,-0.000429,-0.002117,0.001521,-41.060001,10.18,11.68,3a
2019-07-15_152920:080,-0.49468999999999996,0.011169,-0.012695,0.000151,-0.0023309999999999997,0.0016129999999999999,-41.5,9.5,12.87,3a
2019-07-15_152920:100,-0.494171,0.012177,-0.010651,0.001219,-0.002728,0.001185,-41.5,9.5,12.87,3a
2019-07-15_152920:120,-0.49365200000000004,0.013213999999999998,-0.012177,0.001952,-0.003307,0.000545,-40.68,9.75,12.5,3a
2019-07-15_152920:140,-0.494171,0.014740000000000001,-0.010651,0.002226,-0.004253,-6.6e-05,-40.68,9.75,12.5,3a
2019-07-15_152920:160,-0.495697,0.014740000000000001,-0.010651,0.00247,-0.004833,-0.0009199999999999999,-40.68,9.75,12.5,3a
2019-07-15_152920:180,-0.500275,0.017792,-0.012177,0.002348,-0.005261,-0.001073,-42.5,9.75,11.68,3a
2019-07-15_152920:200,-0.49926800000000005,0.017792,-0.012695,0.001891,-0.005108,-0.000981,-42.5,9.75,11.68,3a
2019-07-15_152920:220,-0.496704,0.01828,-0.014740000000000001,0.002013,-0.004497999999999999,-0.001927,-41.75,9.5,11.25,3a
2019-07-15_152920:240,-0.49926800000000005,0.020844,-0.013702,0.001891,-0.004253,-0.002172,-41.75,9.5,11.25,3a
2019-07-15_152920:260,-0.49975600000000003,0.020844,-0.016266,0.002135,-0.003796,-0.001866,-41.75,9.5,11.25,3a
2019-07-15_152920:280,-0.49926800000000005,0.022369,-0.017792,0.002074,-0.0037649999999999997,-0.001866,-41.75,9.06,10.87,3a
2019-07-15_152920:300,-0.497742,0.023375999999999997,-0.016753999999999998,0.002287,-0.00346,-0.0014089999999999999,-41.75,9.06,10.87,3a
2019-07-15_152920:320,-0.496704,0.025908999999999998,-0.020325,0.002409,-0.003643,-0.0013779999999999999,-41.060001,9.75,11.25,3a
2019-07-15_152920:340,-0.496704,0.026427999999999997,-0.017792,0.002745,-0.003704,-0.000646,-41.060001,9.75,11.25,3a
2019-07-15_152920:360,-0.49722299999999997,0.028442000000000002,-0.022858,0.002287,-0.003857,0.000453,-41.060001,9.75,11.25,3a
2019-07-15_152920:380,-0.498749,0.028442000000000002,-0.023375999999999997,0.0016769999999999999,-0.003979,0.001582,-41.75,8.25,11.25,3a
2019-07-15_152920:400,-0.501282,0.028442000000000002,-0.023895,0.0017989999999999998,-0.0037649999999999997,0.002254,-41.75,8.25,11.25,3a
2019-07-15_152920:420,-0.502808,0.028961,-0.025421,0.001341,-0.003246,0.0027719999999999997,-41.060001,8.0,11.68,3a
2019-07-15_152920:440,-0.501282,0.026427999999999997,-0.022858,0.00067,-0.002575,0.003016,-41.060001,8.0,11.68,3a
2019-07-15_152920:460,-0.501282,0.020844,-0.022858,0.00067,-0.00172,0.002589,-41.060001,8.0,11.68,3a
2019-07-15_152920:480,-0.49823,0.017273,-0.021332,0.001402,-0.001446,0.001521,-41.5,7.56,11.25,3a
2019-07-15_152920:500,-0.49468999999999996,0.011169,-0.021851,0.002745,-0.001537,0.000392,-41.5,7.56,11.25,3a
2019-07-15_152920:520,-0.496704,0.008636,-0.018799,0.0050030000000000005,-0.0016589999999999999,-0.001256,-41.75,7.56,11.68,3a
2019-07-15_152920:540,-0.49517799999999995,0.010162000000000001,-0.018799,0.007445,-0.001843,-0.002843,-41.75,7.56,11.68,3a
2019-07-15_152920:560,-0.491638,0.013213999999999998,-0.020844,0.0101,-0.0020559999999999997,-0.003453,-41.75,7.56,11.68,3a
2019-07-15_152920:580,-0.49365200000000004,0.017273,-0.021851,0.012114,-0.002911,-0.004521,-50.18,8.68,12.5,3a
2019-07-15_152920:600,-0.491638,0.025421,-0.025421,0.013822999999999998,-0.003399,-0.005222999999999999,-50.18,8.68,12.5,3a
2019-07-15_152920:620,-0.49111899999999997,0.029968,-0.026917,0.014372,-0.00404,-0.004979,-41.75,7.56,10.06,3a
2019-07-15_152920:640,-0.496216,0.037108999999999996,-0.032013,0.015013,-0.004437,-0.004247,-41.75,7.56,10.06,3a
2019-07-15_152920:660,-0.496704,0.043213,-0.031494,0.014891,-0.004253,-0.002904,-41.75,7.56,10.06,3a
2019-07-15_152920:680,-0.49926800000000005,0.046265,-0.032532,0.013701,-0.004437,-0.001256,-41.75,7.56,12.87,3a
2019-07-15_152920:700,-0.500793,0.043701,-0.035065,0.01245,-0.003582,-5e-06,-41.75,7.56,12.87,3a
2019-07-15_152920:720,-0.500793,0.046752999999999996,-0.034546,0.011504,-0.0031850000000000003,0.000728,-42.5,7.25,11.68,3a
2019-07-15_152920:740,-0.503326,0.048798,-0.03302,0.010191,-0.0020559999999999997,0.0025280000000000003,-42.5,7.25,11.68,3a
2019-07-15_152920:760,-0.501282,0.048279,-0.034058,0.008329999999999999,-0.0016589999999999999,0.003901,-42.5,7.25,11.68,3a
2019-07-15_152920:780,-0.49975600000000003,0.047791,-0.035065,0.0061329999999999996,-0.001019,0.004207,-42.869999,6.5,12.5,3a
2019-07-15_152920:800,-0.496216,0.047272,-0.033539,0.003935,-0.00037799999999999997,0.003901,-42.869999,6.5,12.5,3a
2019-07-15_152920:820,-0.49722299999999997,0.046752999999999996,-0.032532,0.001738,-0.000683,0.00381,-42.5,6.06,12.06,3a
2019-07-15_152920:840,-0.496704,0.044219999999999995,-0.029480000000000003,-0.000124,-0.000286,0.0036270000000000004,-42.5,6.06,12.06,3a
2019-07-15_152920:860,-0.497742,0.042175,-0.031006,-0.0019850000000000002,-0.00037799999999999997,0.00381,-42.5,6.06,12.06,3a
2019-07-15_152920:880,-0.49517799999999995,0.036072,-0.031494,-0.003084,-0.00034700000000000003,0.00442,-41.75,6.5,12.87,3a
2019-07-15_152920:900,-0.494171,0.032532,-0.031494,-0.003542,-0.0005,0.004542,-41.75,6.5,12.87,3a
2019-07-15_152920:920,-0.496216,0.028961,-0.031006,-0.003206,-0.0008349999999999999,0.004207,-41.5,6.5,11.25,3a
2019-07-15_152920:940,-0.497742,0.027954000000000003,-0.031494,-0.0025039999999999997,-0.001141,0.004359,-41.5,6.5,11.25,3a
2019-07-15_152920:960,-0.49975600000000003,0.028961,-0.032532,-0.001955,-0.001263,0.004603,-41.5,6.5,11.25,3a
2019-07-15_152920:980,-0.49926800000000005,0.030487,-0.030487,-0.001375,-0.001019,0.004603,-41.75,6.06,11.25,3a
2019-07-15_152921:000,-0.498749,0.03302,-0.030487,-0.001375,-0.0007440000000000001,0.004634,-41.75,6.06,11.25,3a
2019-07-15_152921:020,-0.49722299999999997,0.033539,-0.031494,-0.0016190000000000002,-0.00034700000000000003,0.004542,-43.25,6.06,12.06,3a
2019-07-15_152921:040,-0.496704,0.035583,-0.031494,-0.002168,0.00011100000000000001,0.003963,-43.25,6.06,12.06,3a
2019-07-15_152921:060,-0.497742,0.039124,-0.032013,-0.002748,0.000233,0.004207,-43.25,6.06,12.06,3a
2019-07-15_152921:080,-0.49722299999999997,0.040161,-0.030487,-0.003542,5e-05,0.004634,-35.560001,6.06,12.06,3a
2019-07-15_152921:100,-0.500793,0.038116000000000004,-0.029480000000000003,-0.004854,-0.000103,0.005214,-35.560001,6.06,12.06,3a
2019-07-15_152921:120,-0.49926800000000005,0.037598,-0.028442000000000002,-0.006197,-4.2e-05,0.005763,-42.5,6.87,11.25,3a
2019-07-15_152921:140,-0.496216,0.035583,-0.025908999999999998,-0.007387,0.000233,0.006404000000000001,-42.5,6.87,11.25,3a
2019-07-15_152921:160,-0.495697,0.032532,-0.028442000000000002,-0.008516,0.000294,0.00674,-42.5,6.87,11.25,3a
2019-07-15_152921:180,-0.49365200000000004,0.028961,-0.027954000000000003,-0.008974,0.000446,0.006618000000000001,-41.75,7.25,11.25,3a
2019-07-15_152921:200,-0.49722299999999997,0.025908999999999998,-0.027435,-0.008974,0.000294,0.006404000000000001,-41.75,7.25,11.25,3a
2019-07-15_152921:220,-0.497742,0.024384,-0.026917,-0.008362999999999999,0.000294,0.0065260000000000006,-41.75,6.5,11.68,3a
2019-07-15_152921:240,-0.496704,0.023895,-0.024902,-0.008028,0.0005679999999999999,0.006618000000000001,-41.75,6.5,11.68,3a
2019-07-15_152921:260,-0.496216,0.023375999999999997,-0.023895,-0.00757,0.00038500000000000003,0.007289,-41.75,6.5,11.68,3a
2019-07-15_152921:280,-0.49365200000000004,0.022369,-0.024902,-0.007265000000000001,0.000172,0.008052,-41.5,6.87,11.68,3a
2019-07-15_152921:300,-0.49316400000000005,0.020844,-0.023375999999999997,-0.007265000000000001,-4.2e-05,0.008388,-41.5,6.87,11.68,3a
2019-07-15_152921:320,-0.49316400000000005,0.021332,-0.024384,-0.007387,-0.0005,0.008388,-42.18,7.56,12.5,3a
2019-07-15_152921:340,-0.49316400000000005,0.019806,-0.024384,-0.007722,-0.000958,0.007869,-42.18,7.56,12.5,3a
2019-07-15_152921:360,-0.49517799999999995,0.019318000000000002,-0.025421,-0.008028,-0.001598,0.007197,-42.18,7.56,12.5,3a
2019-07-15_152921:380,-0.496216,0.017273,-0.025908999999999998,-0.008058,-0.001934,0.0065569999999999995,-41.75,7.56,11.68,3a
2019-07-15_152921:400,-0.498749,0.015228,-0.025421,-0.007906,-0.0021780000000000002,0.005946,-41.75,7.56,11.68,3a
2019-07-15_152921:420,-0.498749,0.015228,-0.027435,-0.007722,-0.0021780000000000002,0.005092,-41.75,8.68,12.06,3a
2019-07-15_152921:440,-0.498749,0.015228,-0.026917,-0.007387,-0.001995,0.004756,-41.75,8.68,12.06,3a
2019-07-15_152921:460,-0.49823,0.013702,-0.028961,-0.007112,-0.001598,0.004817,-41.75,8.68,12.06,3a
2019-07-15_152921:480,-0.497742,0.012695,-0.028961,-0.006593000000000001,-0.001598,0.004939,-42.18,8.25,11.25,3a
2019-07-15_152921:500,-0.500793,0.012695,-0.027954000000000003,-0.006837,-0.001598,0.005275,-42.18,8.25,11.25,3a
2019-07-15_152921:520,-0.500793,0.012177,-0.027435,-0.006319,-0.001019,0.005336,-42.18,7.56,11.25,3a
2019-07-15_152921:540,-0.49975600000000003,0.010651,-0.025908999999999998,-0.006104999999999999,-0.000164,0.005214,-42.18,7.56,11.25,3a
2019-07-15_152921:560,-0.49975600000000003,0.011169,-0.025908999999999998,-0.006044,0.000233,0.004756,-42.18,7.56,11.25,3a
2019-07-15_152921:580,-0.494171,0.011169,-0.026917,-0.006044,0.000233,0.0042369999999999994,-41.5,8.68,12.87,3a
2019-07-15_152921:600,-0.494171,0.010651,-0.026917,-0.005922,5e-05,0.003474,-41.5,8.68,12.87,3a
2019-07-15_152921:620,-0.49365200000000004,0.009644,-0.028442000000000002,-0.0058,-0.000439,0.0031079999999999997,-41.75,8.68,10.06,3a
2019-07-15_152921:640,-0.496216,0.010162000000000001,-0.029480000000000003,-0.005586,-0.0006219999999999999,0.002833,-41.75,8.68,10.06,3a
2019-07-15_152921:660,-0.49926800000000005,0.009644,-0.027954000000000003,-0.005372999999999999,-0.0007740000000000001,0.0021920000000000004,-41.75,8.68,10.06,3a
2019-07-15_152921:680,-0.500793,0.009125,-0.026427999999999997,-0.005067,-0.0007440000000000001,0.00146,-42.18,9.5,11.75,3a
2019-07-15_152921:700,-0.496216,0.010162000000000001,-0.026427999999999997,-0.004335,-0.00037799999999999997,0.0012460000000000001,-42.18,9.5,11.75,3a
2019-07-15_152921:720,-0.491638,0.009644,-0.027954000000000003,-0.003664,-0.0008349999999999999,0.00085,-42.18,9.06,10.5,3a
2019-07-15_152921:740,-0.489594,0.012695,-0.027435,-0.002565,-0.001598,0.000148,-42.18,9.06,10.5,3a
2019-07-15_152921:760,-0.489075,0.015228,-0.029480000000000003,-0.0016489999999999999,-0.0024530000000000003,0.000148,-42.18,9.06,10.5,3a
2019-07-15_152921:780,-0.49365200000000004,0.017792,-0.027435,-0.001253,-0.003704,0.00085,-41.5,8.68,10.5,3a
2019-07-15_152921:800,-0.496704,0.019806,-0.028961,-0.000978,-0.004192,0.001857,-41.5,8.68,10.5,3a
2019-07-15_152921:820,-0.49926800000000005,0.021332,-0.033539,-0.001253,-0.003979,0.002467,-42.869999,8.68,11.25,3a
2019-07-15_152921:840,-0.500793,0.020844,-0.032013,-0.001771,-0.003582,0.002955,-42.869999,8.68,11.25,3a
2019-07-15_152921:860,-0.502319,0.020844,-0.035065,-0.002382,-0.003002,0.002833,-42.869999,8.68,11.25,3a
2019-07-15_152921:880,-0.5048520000000001,0.021332,-0.036072,-0.00345,-0.00227,0.002833,-41.75,8.68,12.06,3a
2019-07-15_152921:900,-0.503326,0.020325,-0.034058,-0.004396,-0.00172,0.0028940000000000003,-41.75,8.68,12.06,3a
2019-07-15_152921:920,-0.49926800000000005,0.01828,-0.034058,-0.004915,-0.0007740000000000001,0.002467,-42.18,8.0,13.25,3a
2019-07-15_152921:940,-0.49975600000000003,0.017273,-0.032532,-0.005006,-0.000286,0.00207,-42.18,8.0,13.25,3a
2019-07-15_152921:960,-0.496216,0.017273,-0.03302,-0.004793,-0.00034700000000000003,0.001918,-42.18,8.0,13.25,3a
2019-07-15_152921:980,-0.497742,0.016266,-0.03302,-0.004518,-0.000103,0.001796,-41.5,7.56,11.25,3a
2019-07-15_152922:000,-0.49722299999999997,0.016753999999999998,-0.031494,-0.003999,-0.000164,0.00207,-41.5,7.56,11.25,3a
2019-07-15_152922:020,-0.49823,0.017792,-0.029968,-0.00345,-0.000225,0.001979,-41.75,8.68,10.5,3a
2019-07-15_152922:040,-0.496216,0.019318000000000002,-0.027954000000000003,-0.003145,0.00011100000000000001,0.001979,-41.75,8.68,10.5,3a
2019-07-15_152922:060,-0.496704,0.020325,-0.028442000000000002,-0.0028399999999999996,0.000172,0.002009,-41.75,8.68,10.5,3a
2019-07-15_152922:080,-0.498749,0.020844,-0.027954000000000003,-0.002779,-4.2e-05,0.001918,-42.18,8.0,10.87,3a
2019-07-15_152922:100,-0.49823,0.020844,-0.028442000000000002,-0.0029010000000000004,0.000233,0.002009,-42.18,8.0,10.87,3a
2019-07-15_152922:120,-0.49722299999999997,0.022369,-0.028442000000000002,-0.002779,0.00035499999999999996,0.00207,-42.18,8.25,11.25,3a
2019-07-15_152922:140,-0.49517799999999995,0.021332,-0.026427999999999997,-0.003389,5e-05,0.002376,-42.18,8.25,11.25,3a
2019-07-15_152922:160,-0.49517799999999995,0.022858,-0.027435,-0.003542,-0.000103,0.0025280000000000003,-42.18,8.25,11.25,3a
2019-07-15_152922:180,-0.496216,0.020844,-0.026917,-0.003999,-4.2e-05,0.0028940000000000003,-41.060001,7.56,11.25,3a
2019-07-15_152922:200,-0.495697,0.020325,-0.027954000000000003,-0.004243,-0.000103,0.003016,-41.060001,7.56,11.25,3a
2019-07-15_152922:220,-0.495697,0.020325,-0.026427999999999997,-0.004396,-0.0005,0.003078,-42.18,8.0,11.68,3a
2019-07-15_152922:240,-0.496216,0.018799,-0.024902,-0.00406,-0.00034700000000000003,0.003078,-42.18,8.0,11.68,3a
2019-07-15_152922:260,-0.490601,0.01828,-0.025421,-0.003725,-0.0007440000000000001,0.00323,-42.18,8.0,11.68,3a
2019-07-15_152922:280,-0.49468999999999996,0.015228,-0.025908999999999998,-0.003725,-0.0016589999999999999,0.0034130000000000002,-42.18,7.56,12.06,3a
2019-07-15_152922:300,-0.492645,0.015747,-0.026917,-0.003114,-0.002239,0.003169,-42.18,7.56,12.06,3a
2019-07-15_152922:320,-0.490112,0.015747,-0.029968,-0.002046,-0.00285,0.004024,-42.18,8.68,11.25,3a
2019-07-15_152922:340,-0.491638,0.016266,-0.027954000000000003,-0.0017100000000000001,-0.003857,0.004146,-42.18,8.68,11.25,3a
2019-07-15_152922:360,-0.495697,0.020844,-0.030487,-0.000978,-0.004497999999999999,0.004085,-42.18,8.68,11.25,3a
2019-07-15_152922:380,-0.501801,0.022858,-0.032013,-0.0011,-0.004192,0.004542,-42.18,8.68,10.87,3a
2019-07-15_152922:400,-0.501282,0.024902,-0.035065,-0.001771,-0.00346,0.004817,-42.18,8.68,10.87,3a
2019-07-15_152922:420,-0.49975600000000003,0.023375999999999997,-0.038635,-0.0029620000000000002,-0.0031850000000000003,0.004939,-41.75,8.0,9.75,3a
2019-07-15_152922:440,-0.49926800000000005,0.022858,-0.037108999999999996,-0.003999,-0.0027890000000000002,0.004878,-41.75,8.0,9.75,3a
2019-07-15_152922:460,-0.49926800000000005,0.020844,-0.037598,-0.005464,-0.0027890000000000002,0.004939,-41.75,8.0,9.75,3a
2019-07-15_152922:480,-0.500793,0.01828,-0.037108999999999996,-0.006654,-0.002392,0.0051530000000000005,-42.5,8.68,10.5,3a
2019-07-15_152922:500,-0.49926800000000005,0.014221000000000001,-0.034058,-0.0071730000000000006,-0.00172,0.004542,-42.5,8.68,10.5,3a
2019-07-15_152922:520,-0.496704,0.009644,-0.035065,-0.0069900000000000006,-0.00108,0.004085,-42.5,9.06,11.68,3a
2019-07-15_152922:540,-0.49722299999999997,0.009644,-0.034546,-0.006532,-0.000958,0.003901,-42.5,9.06,11.68,3a
2019-07-15_152922:560,-0.49517799999999995,0.008118,-0.035583,-0.005067,-0.001324,0.003505,-42.5,9.06,11.68,3a
2019-07-15_152922:580,-0.495697,0.008118,-0.034546,-0.004335,-0.001598,0.0033520000000000004,-42.5,8.68,10.87,3a
2019-07-15_152922:600,-0.496216,0.009125,-0.034546,-0.0033280000000000002,-0.001446,0.003169,-42.5,8.68,10.87,3a
2019-07-15_152922:620,-0.49823,0.009125,-0.034058,-0.002748,-0.0014759999999999999,0.002833,-46.18,8.25,8.87,3a
2019-07-15_152922:640,-0.496216,0.013213999999999998,-0.035065,-0.002168,-0.00108,0.002742,-46.18,8.25,8.87,3a
2019-07-15_152922:660,-0.495697,0.014221000000000001,-0.035583,-0.002168,-0.001324,0.0027719999999999997,-46.18,8.25,8.87,3a
2019-07-15_152922:680,-0.497742,0.016266,-0.034058,-0.002107,-0.001446,0.0025280000000000003,-42.18,9.5,10.06,3a
2019-07-15_152922:700,-0.498749,0.016266,-0.03302,-0.0023510000000000002,-0.0011099999999999999,0.002711,-42.18,9.5,10.06,3a
2019-07-15_152922:720,-0.496704,0.016266,-0.035065,-0.0028399999999999996,-0.00108,0.002711,-41.75,8.25,10.06,3a
2019-07-15_152922:740,-0.496704,0.015228,-0.036072,-0.0032670000000000004,-0.001141,0.002742,-41.75,8.25,10.06,3a
2019-07-15_152922:760,-0.49722299999999997,0.015747,-0.035583,-0.00345,-0.001385,0.003169,-41.75,8.25,10.06,3a
2019-07-15_152922:780,-0.497742,0.014740000000000001,-0.035065,-0.003664,-0.0014759999999999999,0.0032909999999999997,-41.75,8.25,10.5,3a
2019-07-15_152922:800,-0.497742,0.014221000000000001,-0.033539,-0.0036030000000000003,-0.001141,0.0033520000000000004,-41.75,8.25,10.5,3a
2019-07-15_152922:820,-0.49823,0.013213999999999998,-0.035583,-0.0038469999999999997,-0.001019,0.0035659999999999997,-42.18,9.06,11.25,3a
2019-07-15_152922:840,-0.49517799999999995,0.014221000000000001,-0.034058,-0.0039380000000000005,-0.001202,0.0034130000000000002,-42.18,9.06,11.25,3a
2019-07-15_152922:860,-0.494171,0.011169,-0.034546,-0.0038770000000000002,-0.0014759999999999999,0.002589,-42.18,9.06,11.25,3a
2019-07-15_152922:880,-0.495697,0.011687999999999999,-0.034546,-0.003725,-0.0016589999999999999,0.001979,-41.75,8.68,10.87,3a
2019-07-15_152922:900,-0.496704,0.012177,-0.037108999999999996,-0.00345,-0.0014759999999999999,0.002315,-41.75,8.68,10.87,3a
2019-07-15_152922:920,-0.497742,0.011687999999999999,-0.036072,-0.0033280000000000002,-0.001446,0.002589,-41.75,8.68,11.25,3a
2019-07-15_152922:940,-0.49823,0.012177,-0.036072,-0.002779,-0.001202,0.0028940000000000003,-41.75,8.68,11.25,3a
2019-07-15_152922:960,-0.497742,0.012177,-0.036591000000000005,-0.002687,-0.000958,0.00323,-41.75,8.68,11.25,3a
2019-07-15_152922:980,-0.496216,0.014740000000000001,-0.036072,-0.0029010000000000004,-0.00108,0.003016,-41.5,8.68,10.5,3a
2019-07-15_152923:000,-0.49823,0.014221000000000001,-0.035065,-0.003145,-0.001263,0.002833,-41.5,8.68,10.5,3a
2019-07-15_152923:020,-0.498749,0.014221000000000001,-0.037108999999999996,-0.0034799999999999996,-0.001019,0.0027719999999999997,-41.5,8.0,9.25,3a
2019-07-15_152923:040,-0.49722299999999997,0.014221000000000001,-0.036072,-0.004121,-0.0007740000000000001,0.002589,-41.5,8.0,9.25,3a
2019-07-15_152923:060,-0.49722299999999997,0.012177,-0.036591000000000005,-0.004121,-0.0006219999999999999,0.001674,-41.5,8.0,9.25,3a
2019-07-15_152923:080,-0.49823,0.011687999999999999,-0.035583,-0.004243,-0.000683,0.00146,-41.75,8.68,11.68,3a
2019-07-15_152923:100,-0.49468999999999996,0.012177,-0.035583,-0.0034799999999999996,-0.000958,0.0016129999999999999,-41.75,8.68,11.68,3a
2019-07-15_152923:120,-0.49517799999999995,0.011687999999999999,-0.036591000000000005,-0.003084,-0.001019,0.001857,-41.75,9.06,11.25,3a
2019-07-15_152923:140,-0.496704,0.012695,-0.035583,-0.002779,-0.001202,0.002315,-41.75,9.06,11.25,3a
2019-07-15_152923:160,-0.498749,0.014221000000000001,-0.036591000000000005,-0.002382,-0.0011099999999999999,0.002467,-41.75,9.06,11.25,3a
2019-07-15_152923:180,-0.49823,0.015228,-0.036591000000000005,-0.00229,-0.000958,0.002315,-40.68,8.25,10.87,3a
2019-07-15_152923:200,-0.497742,0.016753999999999998,-0.035065,-0.0028399999999999996,-0.0006219999999999999,0.002589,-40.68,8.25,10.87,3a
2019-07-15_152923:220,-0.49722299999999997,0.015747,-0.036072,-0.0032670000000000004,-0.0008349999999999999,0.0025280000000000003,-42.5,8.68,10.87,3a
2019-07-15_152923:240,-0.497742,0.016266,-0.036072,-0.003725,-0.000897,0.00265,-42.5,8.68,10.87,3a
2019-07-15_152923:260,-0.497742,0.015228,-0.035583,-0.003664,-0.0005610000000000001,0.002376,-42.5,8.68,10.87,3a
2019-07-15_152923:280,-0.497742,0.013213999999999998,-0.037108999999999996,-0.003786,-0.000683,0.002254,-41.75,9.06,10.06,3a
2019-07-15_152923:300,-0.495697,0.013213999999999998,-0.035583,-0.0033280000000000002,-0.00034700000000000003,0.002376,-41.75,9.06,10.06,3a
2019-07-15_152923:320,-0.495697,0.013702,-0.035583,-0.003084,-0.001019,0.002315,-42.18,8.68,10.5,3a
2019-07-15_152923:340,-0.495697,0.013213999999999998,-0.035065,-0.0028399999999999996,-0.000897,0.002376,-42.18,8.68,10.5,3a
2019-07-15_152923:360,-0.495697,0.014221000000000001,-0.037598,-0.002748,-0.001324,0.002376,-42.18,8.68,10.5,3a
2019-07-15_152923:380,-0.49722299999999997,0.014221000000000001,-0.037108999999999996,-0.002382,-0.001324,0.0021920000000000004,-41.75,9.06,11.25,3a
2019-07-15_152923:400,-0.49926800000000005,0.013702,-0.036072,-0.0026260000000000003,-0.00108,0.002315,-41.75,9.06,11.25,3a
2019-07-15_152923:420,-0.497742,0.015228,-0.037598,-0.002687,-0.001019,0.0021920000000000004,-42.5,9.06,10.5,3a
2019-07-15_152923:440,-0.495697,0.014221000000000001,-0.036591000000000005,-0.0029010000000000004,-0.0011099999999999999,0.001674,-42.5,9.06,10.5,3a
2019-07-15_152923:460,-0.49722299999999997,0.014740000000000001,-0.038116000000000004,-0.0028399999999999996,-0.0007740000000000001,0.00085,-42.5,9.06,10.5,3a
2019-07-15_152923:480,-0.497742,0.015747,-0.039124,-0.002779,-0.000683,0.00085,-41.060001,8.68,8.87,3a
2019-07-15_152923:500,-0.497742,0.016753999999999998,-0.038635,-0.0029010000000000004,-0.0005610000000000001,0.001582,-41.060001,8.68,8.87,3a
2019-07-15_152923:520,-0.49823,0.017273,-0.039642000000000004,-0.003206,-0.00034700000000000003,0.001857,-42.5,8.25,10.5,3a
2019-07-15_152923:540,-0.49823,0.017792,-0.039124,-0.0032670000000000004,-0.000225,0.0025280000000000003,-42.5,8.25,10.5,3a
2019-07-15_152923:560,-0.496704,0.017792,-0.037598,-0.0034799999999999996,1.9e-05,0.002711,-42.5,8.25,10.5,3a
2019-07-15_152923:580,-0.496216,0.018799,-0.037108999999999996,-0.003999,5e-05,0.002589,-42.5,8.68,10.5,3a
2019-07-15_152923:600,-0.496216,0.01828,-0.036072,-0.00461,-0.0005610000000000001,0.002742,-42.5,8.68,10.5,3a
2019-07-15_152923:620,-0.497742,0.01828,-0.037108999999999996,-0.004915,-0.0007440000000000001,0.0027719999999999997,-42.5,8.68,10.5,3a
2019-07-15_152923:640,-0.49823,0.017792,-0.037108999999999996,-0.005861,-0.0006219999999999999,0.0024059999999999997,-42.18,8.25,11.25,3a
2019-07-15_152923:660,-0.497742,0.016266,-0.036072,-0.0057079999999999995,-0.00037799999999999997,0.002009,-42.18,8.25,11.25,3a
2019-07-15_152923:680,-0.49722299999999997,0.014740000000000001,-0.037598,-0.005525,-0.00037799999999999997,0.001918,-41.75,7.56,10.5,3a
2019-07-15_152923:700,-0.49722299999999997,0.015228,-0.035583,-0.005372999999999999,-0.000439,0.001796,-41.75,7.56,10.5,3a
2019-07-15_152923:720,-0.500275,0.014221000000000001,-0.035583,-0.004854,0.00011100000000000001,0.001796,-41.75,7.56,10.5,3a
2019-07-15_152923:740,-0.500275,0.015228,-0.036072,-0.004274,-4.2e-05,0.002009,-42.18,8.68,10.87,3a
2019-07-15_152923:760,-0.49975600000000003,0.016266,-0.035065,-0.003999,0.000294,0.0021920000000000004,-42.18,8.68,10.87,3a
2019-07-15_152923:780,-0.49926800000000005,0.017273,-0.034058,-0.0038770000000000002,0.0007509999999999999,0.00207,-40.68,8.68,10.87,3a
2019-07-15_152923:800,-0.495697,0.01828,-0.03302,-0.003786,0.0005679999999999999,0.001857,-40.68,8.68,10.87,3a
2019-07-15_152923:820,-0.496704,0.01828,-0.032532,-0.003786,0.0005070000000000001,0.001857,-40.68,8.68,10.87,3a
2019-07-15_152923:840,-0.49722299999999997,0.018799,-0.031494,-0.0038770000000000002,0.00035499999999999996,0.001918,-42.869999,9.06,11.25,3a
2019-07-15_152923:860,-0.496216,0.018799,-0.031006,-0.0038770000000000002,0.00035499999999999996,0.001979,-42.869999,9.06,11.25,3a
2019-07-15_152923:880,-0.496216,0.019318000000000002,-0.031494,-0.003542,0.000294,0.002131,-47.68,8.25,10.06,3a
2019-07-15_152923:900,-0.49722299999999997,0.018799,-0.029480000000000003,-0.0033280000000000002,-4.2e-05,0.002376,-47.68,8.25,10.06,3a
2019-07-15_152923:920,-0.495697,0.01828,-0.031006,-0.003206,-0.000225,0.002467,-42.5,8.25,11.68,3a
2019-07-15_152923:940,-0.49517799999999995,0.018799,-0.031006,-0.003206,-0.0005610000000000001,0.002955,-42.5,8.25,11.68,3a
2019-07-15_152923:960,-0.494171,0.01828,-0.028961,-0.003084,-0.0005610000000000001,0.003078,-42.5,8.25,11.68,3a
2019-07-15_152923:980,-0.49517799999999995,0.01828,-0.031494,-0.002779,-0.000958,0.002955,-41.75,8.68,11.25,3a
2019-07-15_152924:000,-0.49722299999999997,0.01828,-0.031494,-0.0029010000000000004,-0.001263,0.0032909999999999997,-41.75,8.68,11.25,3a
2019-07-15_152924:020,-0.49823,0.01828,-0.031494,-0.002687,-0.001598,0.003169,-42.5,8.25,11.25,3a
2019-07-15_152924:040,-0.49926800000000005,0.01828,-0.031494,-0.0029010000000000004,-0.001446,0.003505,-42.5,8.25,11.25,3a
2019-07-15_152924:060,-0.495697,0.018799,-0.032013,-0.003023,-0.001385,0.0036880000000000003,-42.5,8.25,11.25,3a
2019-07-15_152924:080,-0.495697,0.015228,-0.03302,-0.0029010000000000004,-0.0014759999999999999,0.003169,-42.18,8.25,9.75,3a
2019-07-15_152924:100,-0.495697,0.016266,-0.032532,-0.0028399999999999996,-0.0016589999999999999,0.002376,-42.18,8.25,9.75,3a
2019-07-15_152924:120,-0.496704,0.017273,-0.034546,-0.002748,-0.001995,0.0025280000000000003,-42.18,8.25,9.75,3a
2019-07-15_152924:140,-0.49823,0.017273,-0.034546,-0.0028399999999999996,-0.0021780000000000002,0.002833,-42.18,8.25,10.5,3a
2019-07-15_152924:160,-0.49926800000000005,0.016753999999999998,-0.03302,-0.002443,-0.001782,0.0032909999999999997,-42.18,8.25,10.5,3a
2019-07-15_152924:180,-0.49722299999999997,0.01828,-0.033539,-0.002382,-0.001324,0.0032909999999999997,-42.869999,9.06,10.06,3a
2019-07-15_152924:200,-0.494171,0.017273,-0.033539,-0.0026260000000000003,-0.0016589999999999999,0.00323,-42.869999,9.06,10.06,3a
2019-07-15_152924:220,-0.497742,0.018799,-0.033539,-0.002748,-0.001873,0.002955,-41.75,7.25,11.68,3a
2019-07-15_152924:240,-0.497742,0.018799,-0.034546,-0.003023,-0.001843,0.002833,-41.75,7.25,11.68,3a
2019-07-15_152924:260,-0.49926800000000005,0.01828,-0.032532,-0.003786,-0.001873,0.003078,-41.75,7.25,11.68,3a
2019-07-15_152924:280,-0.497742,0.016753999999999998,-0.034058,-0.003664,-0.001782,0.002315,-41.5,8.0,10.06,3a
2019-07-15_152924:300,-0.49722299999999997,0.016753999999999998,-0.03302,-0.003725,-0.001324,0.001796,-41.5,8.0,10.06,3a
2019-07-15_152924:320,-0.495697,0.016753999999999998,-0.035065,-0.003542,-0.001263,0.002131,-41.5,8.0,10.06,3a
2019-07-15_152924:340,-0.49722299999999997,0.016266,-0.034058,-0.00345,-0.00172,0.0021920000000000004,-42.869999,8.68,10.06,3a
2019-07-15_152924:360,-0.497742,0.017273,-0.03302,-0.0033280000000000002,-0.001598,0.002467,-42.869999,8.68,10.06,3a
2019-07-15_152924:380,-0.49823,0.016753999999999998,-0.033539,-0.003084,-0.001843,0.002467,-41.5,8.0,10.5,3a
2019-07-15_152924:400,-0.496704,0.01828,-0.032532,-0.003145,-0.001598,0.002376,-41.5,8.0,10.5,3a
2019-07-15_152924:420,-0.49722299999999997,0.019318000000000002,-0.03302,-0.003389,-0.001598,0.001979,-41.5,8.0,10.5,3a
2019-07-15_152924:440,-0.49823,0.019318000000000002,-0.034058,-0.0033280000000000002,-0.001537,0.0017350000000000002,-42.5,8.25,10.5,3a
2019-07-15_152924:460,-0.496216,0.020325,-0.033539,-0.003542,-0.00172,0.001796,-42.5,8.25,10.5,3a
2019-07-15_152924:480,-0.49517799999999995,0.019318000000000002,-0.035065,-0.0038469999999999997,-0.0016589999999999999,0.001918,-42.5,8.68,10.87,3a
2019-07-15_152924:500,-0.49468999999999996,0.020325,-0.034058,-0.0039380000000000005,-0.001995,0.001918,-42.5,8.68,10.87,3a
2019-07-15_152924:520,-0.496216,0.020325,-0.034546,-0.003786,-0.002239,0.001979,-42.5,8.68,10.87,3a
2019-07-15_152924:540,-0.497742,0.019806,-0.034546,-0.003786,-0.0023309999999999997,0.002009,-42.18,9.06,10.5,3a
2019-07-15_152924:560,-0.496216,0.020844,-0.036591000000000005,-0.00406,-0.002239,0.002131,-42.18,9.06,10.5,3a
2019-07-15_152924:580,-0.49468999999999996,0.019806,-0.036591000000000005,-0.003999,-0.002392,0.002131,-42.869999,8.25,10.06,3a
2019-07-15_152924:600,-0.494171,0.020325,-0.036591000000000005,-0.004396,-0.0023309999999999997,0.0021920000000000004,-42.869999,8.25,10.06,3a
2019-07-15_152924:620,-0.496704,0.020325,-0.038116000000000004,-0.004121,-0.002575,0.0024059999999999997,-42.869999,8.25,10.06,3a
2019-07-15_152924:640,-0.498749,0.019318000000000002,-0.037108999999999996,-0.004396,-0.0031850000000000003,0.0024059999999999997,-42.18,8.68,11.75,3a
2019-07-15_152924:660,-0.501801,0.020325,-0.037108999999999996,-0.004243,-0.002605,0.002467,-42.18,8.68,11.75,3a
2019-07-15_152924:680,-0.494171,0.021332,-0.039642000000000004,-0.004396,-0.002575,0.0028940000000000003,-42.18,8.25,11.75,3a
2019-07-15_152924:700,-0.49517799999999995,0.019318000000000002,-0.040161,-0.004518,-0.002911,0.002711,-42.18,8.25,11.75,3a
2019-07-15_152924:720,-0.496216,0.019806,-0.041687,-0.004457,-0.002667,0.0017350000000000002,-42.18,8.25,11.75,3a
2019-07-15_152924:740,-0.498749,0.020844,-0.045226999999999996,-0.004854,-0.0030629999999999998,0.001918,-41.5,8.25,10.06,3a
2019-07-15_152924:760,-0.503845,0.021332,-0.045745999999999995,-0.004793,-0.0021780000000000002,0.002315,-41.5,8.25,10.06,3a
2019-07-15_152924:780,-0.503326,0.020844,-0.046752999999999996,-0.004915,-0.001537,0.002589,-42.18,8.68,10.06,3a
2019-07-15_152924:800,-0.501282,0.021851,-0.045226999999999996,-0.0049759999999999995,-0.000439,0.002711,-42.18,8.68,10.06,3a
2019-07-15_152924:820,-0.495697,0.021851,-0.045745999999999995,-0.004915,-4.2e-05,0.002833,-42.18,8.68,10.06,3a
2019-07-15_152924:840,-0.496216,0.021332,-0.043213,-0.005128,0.00011100000000000001,0.00265,-41.75,9.06,11.25,3a
2019-07-15_152924:860,-0.49517799999999995,0.020844,-0.044219999999999995,-0.005586,-0.000164,0.0027719999999999997,-41.75,9.06,11.25,3a
2019-07-15_152924:880,-0.496704,0.020325,-0.042694,-0.005861,-0.00037799999999999997,0.0028940000000000003,-43.25,8.68,10.87,3a
2019-07-15_152924:900,-0.49468999999999996,0.019318000000000002,-0.041687,-0.006104999999999999,-0.000439,0.002467,-43.25,8.68,10.87,3a
2019-07-15_152924:920,-0.495697,0.019318000000000002,-0.042175,-0.005983,-0.0005610000000000001,0.0021920000000000004,-43.25,8.68,10.87,3a
2019-07-15_152924:940,-0.49365200000000004,0.017792,-0.043213,-0.005525,-0.0007740000000000001,0.002254,-42.18,8.68,10.87,3a
2019-07-15_152924:960,-0.49468999999999996,0.01828,-0.043213,-0.005128,-0.0007740000000000001,0.002131,-42.18,8.68,10.87,3a
2019-07-15_152924:980,-0.496704,0.019318000000000002,-0.043213,-0.004396,-0.000683,0.002376,-43.25,7.56,10.06,3a
2019-07-15_152925:000,-0.49823,0.020325,-0.041168,-0.004121,-0.0007740000000000001,0.0021920000000000004,-43.25,7.56,10.06,3a
2019-07-15_152925:020,-0.497742,0.020844,-0.043213,-0.003786,-0.0006219999999999999,0.002376,-43.25,7.56,10.06,3a
2019-07-15_152925:040,-0.49823,0.022369,-0.043213,-0.0038469999999999997,-0.0005,0.002467,-42.5,9.06,10.06,3a
2019-07-15_152925:060,-0.496704,0.022858,-0.043701,-0.003725,-0.0005610000000000001,0.0025280000000000003,-42.5,9.06,10.06,3a
2019-07-15_152925:080,-0.497742,0.022858,-0.043701,-0.00406,-0.0008349999999999999,0.0027719999999999997,-42.869999,9.06,9.75,3a
2019-07-15_152925:100,-0.498749,0.022858,-0.044219999999999995,-0.004335,-0.0005610000000000001,0.002742,-42.869999,9.06,9.75,3a
2019-07-15_152925:120,-0.500793,0.021851,-0.044219999999999995,-0.004793,1.9e-05,0.0027719999999999997,-42.869999,9.06,9.75,3a
2019-07-15_152925:140,-0.500793,0.021332,-0.043213,-0.004732,0.0006900000000000001,0.0027719999999999997,-42.18,9.5,10.06,3a
2019-07-15_152925:160,-0.498749,0.021851,-0.043213,-0.004457,0.00124,0.002833,-42.18,9.5,10.06,3a
2019-07-15_152925:180,-0.497742,0.020325,-0.040161,-0.004182,0.001697,0.0028940000000000003,-41.75,8.25,10.06,3a
2019-07-15_152925:200,-0.496216,0.020325,-0.038635,-0.0038469999999999997,0.001759,0.003016,-41.75,8.25,10.06,3a
2019-07-15_152925:220,-0.496704,0.019806,-0.037598,-0.0036030000000000003,0.00182,0.0033520000000000004,-41.75,8.25,10.06,3a
2019-07-15_152925:240,-0.497742,0.019806,-0.035583,-0.003389,0.0020329999999999997,0.0031079999999999997,-41.75,8.68,10.5,3a
2019-07-15_152925:260,-0.500275,0.020325,-0.034058,-0.0032670000000000004,0.002491,0.0027719999999999997,-41.75,8.68,10.5,3a
2019-07-15_152925:280,-0.496216,0.020325,-0.033539,-0.00345,0.002491,0.002833,-41.5,9.06,10.06,3a
2019-07-15_152925:300,-0.494171,0.018799,-0.033539,-0.0032670000000000004,0.002094,0.002315,-41.5,9.06,10.06,3a
2019-07-15_152925:320,-0.49365200000000004,0.020325,-0.033539,-0.003114,0.001759,0.0016129999999999999,-41.5,9.06,10.06,3a
2019-07-15_152925:340,-0.496704,0.020844,-0.035065,-0.003084,0.001301,0.001674,-42.18,9.5,10.5,3a
2019-07-15_152925:360,-0.497742,0.021851,-0.036591000000000005,-0.003145,0.000782,0.0024059999999999997,-42.18,9.5,10.5,3a
2019-07-15_152925:380,-0.498749,0.020844,-0.036072,-0.0029620000000000002,0.001179,0.002742,-41.75,8.25,10.5,3a
2019-07-15_152925:400,-0.498749,0.021332,-0.035065,-0.002748,0.001484,0.003016,-41.75,8.25,10.5,3a
2019-07-15_152925:420,-0.496704,0.022858,-0.035065,-0.002687,0.001759,0.003474,-41.75,8.25,10.5,3a
2019-07-15_152925:440,-0.49823,0.021851,-0.032532,-0.003084,0.0016359999999999999,0.0032909999999999997,-42.18,8.25,11.25,3a
2019-07-15_152925:460,-0.500275,0.022369,-0.032532,-0.003084,0.001484,0.0032909999999999997,-42.18,8.25,11.25,3a
2019-07-15_152925:480,-0.498749,0.021332,-0.031494,-0.003542,0.0021550000000000002,0.0032909999999999997,-42.18,8.68,10.5,3a
2019-07-15_152925:500,-0.496216,0.020325,-0.029968,-0.003725,0.002094,0.003016,-42.18,8.68,10.5,3a
2019-07-15_152925:520,-0.496216,0.018799,-0.029480000000000003,-0.00406,0.0020329999999999997,0.002711,-42.18,8.68,10.5,3a
2019-07-15_152925:540,-0.49468999999999996,0.01828,-0.028961,-0.003725,0.0018809999999999999,0.002711,-42.18,8.68,11.25,3a
2019-07-15_152925:560,-0.49468999999999996,0.017273,-0.027954000000000003,-0.00345,0.001301,0.002833,-42.18,8.68,11.25,3a
2019-07-15_152925:580,-0.49823,0.01828,-0.026427999999999997,-0.003145,0.001179,0.002711,-41.5,8.68,11.68,3a
2019-07-15_152925:600,-0.49722299999999997,0.018799,-0.025908999999999998,-0.002687,0.0011480000000000001,0.002711,-41.5,8.68,11.68,3a
2019-07-15_152925:620,-0.496704,0.020325,-0.025908999999999998,-0.002443,0.001179,0.002711,-41.5,8.68,11.68,3a
2019-07-15_152925:640,-0.496216,0.020844,-0.025908999999999998,-0.0025039999999999997,0.000782,0.002376,-41.75,7.56,11.25,3a
2019-07-15_152925:660,-0.496216,0.021851,-0.024902,-0.002565,0.000782,0.002315,-41.75,7.56,11.25,3a
2019-07-15_152925:680,-0.49823,0.020844,-0.025908999999999998,-0.0026260000000000003,0.000629,0.0024059999999999997,-41.75,8.25,11.25,3a
2019-07-15_152925:700,-0.49823,0.021851,-0.025908999999999998,-0.0028399999999999996,0.000629,0.0024059999999999997,-41.75,8.25,11.25,3a
2019-07-15_152925:720,-0.496216,0.022369,-0.025908999999999998,-0.0028399999999999996,0.00038500000000000003,0.00265,-41.75,8.25,11.25,3a
2019-07-15_152925:740,-0.497742,0.021332,-0.025908999999999998,-0.003023,0.00038500000000000003,0.0028940000000000003,-41.5,8.25,11.25,3a
2019-07-15_152925:760,-0.49926800000000005,0.021851,-0.025421,-0.003145,0.000233,0.002955,-41.5,8.25,11.25,3a
2019-07-15_152925:780,-0.49926800000000005,0.022369,-0.025421,-0.0032670000000000004,0.00035499999999999996,0.0031079999999999997,-42.869999,8.25,11.68,3a
2019-07-15_152925:800,-0.49722299999999997,0.021332,-0.023895,-0.003389,0.000446,0.003078,-42.869999,8.25,11.68,3a
2019-07-15_152925:820,-0.496216,0.020844,-0.023375999999999997,-0.003786,0.000172,0.002955,-42.869999,8.25,11.68,3a
2019-07-15_152925:840,-0.496216,0.020325,-0.023895,-0.003389,0.000172,0.002742,-42.5,8.68,11.68,3a
2019-07-15_152925:860,-0.49975600000000003,0.019806,-0.022858,-0.003542,1.9e-05,0.002833,-42.5,8.68,11.68,3a
2019-07-15_152925:880,-0.49926800000000005,0.019806,-0.023375999999999997,-0.0034799999999999996,1.9e-05,0.0028940000000000003,-42.869999,8.68,10.87,3a
2019-07-15_152925:900,-0.49468999999999996,0.020844,-0.020325,-0.0036030000000000003,0.000233,0.0028940000000000003,-42.869999,8.68,10.87,3a
2019-07-15_152925:920,-0.49517799999999995,0.018799,-0.022369,-0.00345,-0.00034700000000000003,0.002467,-42.869999,8.68,10.87,3a
2019-07-15_152925:940,-0.49365200000000004,0.020325,-0.023375999999999997,-0.00345,-0.000225,0.001582,-41.5,8.68,10.5,3a
2019-07-15_152925:960,-0.494171,0.020844,-0.022369,-0.0033280000000000002,-0.0007740000000000001,0.001857,-41.5,8.68,10.5,3a
2019-07-15_152925:980,-0.49517799999999995,0.021851,-0.024384,-0.003114,-0.0014759999999999999,0.002254,-42.18,8.25,11.25,3a
2019-07-15_152926:000,-0.496216,0.021851,-0.023895,-0.003145,-0.001782,0.002742,-42.18,8.25,11.25,3a
2019-07-15_152926:020,-0.496704,0.022858,-0.025421,-0.003206,-0.001598,0.0032909999999999997,-42.18,8.25,11.25,3a
2019-07-15_152926:040,-0.498749,0.022858,-0.026917,-0.003725,-0.002117,0.0036270000000000004,-41.75,8.25,11.68,3a
2019-07-15_152926:060,-0.49975600000000003,0.023375999999999997,-0.026917,-0.004121,-0.00172,0.0035659999999999997,-41.75,8.25,11.68,3a
2019-07-15_152926:080,-0.501801,0.024384,-0.027954000000000003,-0.004854,-0.001598,0.00381,-42.18,8.25,10.87,3a
2019-07-15_152926:100,-0.501282,0.022369,-0.027435,-0.005525,-0.001141,0.003871,-42.18,8.25,10.87,3a
2019-07-15_152926:120,-0.49975600000000003,0.020325,-0.025908999999999998,-0.006104999999999999,-0.0005610000000000001,0.003474,-42.18,8.25,10.87,3a
2019-07-15_152926:140,-0.502319,0.019318000000000002,-0.025908999999999998,-0.006319,-0.000225,0.002955,-41.5,8.0,10.87,3a
2019-07-15_152926:160,-0.500793,0.019318000000000002,-0.025421,-0.006502,0.0005679999999999999,0.0028940000000000003,-41.5,8.0,10.87,3a
2019-07-15_152926:180,-0.496704,0.01828,-0.025908999999999998,-0.006379999999999999,0.0011480000000000001,0.003016,-41.75,8.68,12.06,3a
2019-07-15_152926:200,-0.49926800000000005,0.019318000000000002,-0.023375999999999997,-0.006379999999999999,0.001301,0.003016,-41.75,8.68,12.06,3a
2019-07-15_152926:220,-0.49975600000000003,0.019318000000000002,-0.022369,-0.006135,0.001545,0.0028940000000000003,-41.75,8.68,12.06,3a
2019-07-15_152926:240,-0.497742,0.019318000000000002,-0.022858,-0.006044,0.0020329999999999997,0.002589,-42.18,8.25,13.25,3a
2019-07-15_152926:260,-0.49823,0.020844,-0.020325,-0.006441,0.00182,0.002315,-42.18,8.25,13.25,3a
2019-07-15_152926:280,-0.49975600000000003,0.021332,-0.020325,-0.006837,0.001972,0.002009,-42.5,8.68,12.06,3a
2019-07-15_152926:300,-0.49926800000000005,0.021332,-0.01828,-0.0071730000000000006,0.002277,0.0017350000000000002,-42.5,8.68,12.06,3a
2019-07-15_152926:320,-0.496704,0.021332,-0.018799,-0.007051000000000001,0.002613,0.001277,-42.5,8.68,12.06,3a
2019-07-15_152926:340,-0.496704,0.022369,-0.017273,-0.007112,0.0023079999999999997,0.0012460000000000001,-33.369999,8.25,12.87,3a
2019-07-15_152926:360,-0.497742,0.022858,-0.01828,-0.0071730000000000006,0.002277,0.00146,-33.369999,8.25,12.87,3a
2019-07-15_152926:380,-0.500275,0.023375999999999997,-0.019806,-0.0068980000000000005,0.002552,0.001674,-42.18,8.25,12.87,3a
2019-07-15_152926:400,-0.497742,0.023375999999999997,-0.01828,-0.007234,0.002491,0.002131,-42.18,8.25,12.87,3a
2019-07-15_152926:420,-0.495697,0.020844,-0.019806,-0.0071730000000000006,0.0023079999999999997,0.0025280000000000003,-42.18,8.25,12.87,3a
2019-07-15_152926:440,-0.495697,0.019318000000000002,-0.018799,-0.0071730000000000006,0.001697,0.00265,-42.18,8.0,12.5,3a
2019-07-15_152926:460,-0.496216,0.016753999999999998,-0.01828,-0.006654,0.000965,0.002742,-42.18,8.0,12.5,3a
2019-07-15_152926:480,-0.494171,0.016266,-0.016753999999999998,-0.005647,0.0007509999999999999,0.0027719999999999997,-41.5,8.25,12.06,3a
2019-07-15_152926:500,-0.500793,0.015747,-0.014221000000000001,-0.004854,0.0007509999999999999,0.002955,-41.5,8.25,12.06,3a
2019-07-15_152926:520,-0.49722299999999997,0.015228,-0.015228,-0.0034799999999999996,0.0005070000000000001,0.002955,-41.5,8.25,12.06,3a
2019-07-15_152926:540,-0.49468999999999996,0.015228,-0.013702,-0.0028399999999999996,-4.2e-05,0.0031079999999999997,-41.75,8.68,11.68,3a
2019-07-15_152926:560,-0.49517799999999995,0.019806,-0.013702,-0.001771,-0.000683,0.002589,-41.75,8.68,11.68,3a
2019-07-15_152926:580,-0.494171,0.019806,-0.014740000000000001,-0.001253,-0.000958,0.002254,-41.5,8.0,12.5,3a
2019-07-15_152926:600,-0.498749,0.022858,-0.012695,-0.001314,-0.001446,0.001918,-41.5,8.0,12.5,3a
2019-07-15_152926:620,-0.500793,0.023895,-0.014740000000000001,-0.001558,-0.0014759999999999999,0.001857,-41.5,8.0,12.5,3a
2019-07-15_152926:640,-0.500793,0.024902,-0.014221000000000001,-0.002046,-0.000958,0.002009,-41.75,8.25,11.75,3a
2019-07-15_152926:660,-0.500275,0.027954000000000003,-0.013702,-0.002443,-4.2e-05,0.002467,-41.75,8.25,11.75,3a
2019-07-15_152926:680,-0.496704,0.025908999999999998,-0.013213999999999998,-0.00345,-0.000164,0.00265,-41.75,8.25,12.06,3a
2019-07-15_152926:700,-0.496704,0.025421,-0.014221000000000001,-0.0039380000000000005,-0.000225,0.002742,-41.75,8.25,12.06,3a
2019-07-15_152926:720,-0.500793,0.024902,-0.013213999999999998,-0.004793,-0.000683,0.003474,-41.75,8.25,12.06,3a
2019-07-15_152926:740,-0.500275,0.023375999999999997,-0.012695,-0.00525,-0.0005610000000000001,0.0033520000000000004,-41.75,8.68,10.5,3a
2019-07-15_152926:760,-0.496704,0.021851,-0.012177,-0.005372999999999999,-0.000439,0.003016,-41.75,8.68,10.5,3a
2019-07-15_152926:780,-0.49517799999999995,0.020325,-0.014740000000000001,-0.005128,-0.0007440000000000001,0.003016,-42.18,8.0,12.06,3a
2019-07-15_152926:800,-0.49468999999999996,0.019806,-0.013702,-0.004732,-0.001263,0.0033520000000000004,-42.18,8.0,12.06,3a
2019-07-15_152926:820,-0.49823,0.019318000000000002,-0.015228,-0.004457,-0.001843,0.003474,-42.18,8.0,12.06,3a
2019-07-15_152926:840,-0.49722299999999997,0.019318000000000002,-0.014221000000000001,-0.003999,-0.001782,0.0036270000000000004,-40.68,8.25,11.25,3a
2019-07-15_152926:860,-0.497742,0.019806,-0.014221000000000001,-0.003542,-0.0016589999999999999,0.0036270000000000004,-40.68,8.25,11.25,3a
2019-07-15_152926:880,-0.498749,0.020844,-0.014221000000000001,-0.00345,-0.001537,0.003474,-42.18,8.68,11.75,3a
2019-07-15_152926:900,-0.49722299999999997,0.020844,-0.015228,-0.003389,-0.00172,0.00323,-42.18,8.68,11.75,3a
2019-07-15_152926:920,-0.496704,0.021851,-0.016266,-0.003725,-0.0021780000000000002,0.0028940000000000003,-42.18,8.68,11.75,3a
2019-07-15_152926:940,-0.49722299999999997,0.021332,-0.017792,-0.0036030000000000003,-0.002117,0.003474,-41.75,8.68,11.25,3a
2019-07-15_152926:960,-0.49975600000000003,0.021851,-0.016753999999999998,-0.0036030000000000003,-0.002239,0.0032909999999999997,-41.75,8.68,11.25,3a
2019-07-15_152926:980,-0.49823,0.021851,-0.01828,-0.003725,-0.00227,0.0031079999999999997,-41.5,9.06,13.25,3a
2019-07-15_152927:000,-0.498749,0.021851,-0.01828,-0.0034799999999999996,-0.0021780000000000002,0.0033520000000000004,-41.5,9.06,13.25,3a
2019-07-15_152927:020,-0.49722299999999997,0.021851,-0.016266,-0.003542,-0.001995,0.003505,-41.5,9.06,13.25,3a
2019-07-15_152927:040,-0.49975600000000003,0.021332,-0.017792,-0.003664,-0.001537,0.0034130000000000002,-42.18,9.06,10.87,3a
2019-07-15_152927:060,-0.49823,0.022369,-0.017273,-0.003999,-0.000958,0.003474,-42.18,9.06,10.87,3a
2019-07-15_152927:080,-0.49975600000000003,0.021332,-0.016753999999999998,-0.004243,-0.0008349999999999999,0.0032909999999999997,-41.060001,9.06,12.87,3a
2019-07-15_152927:100,-0.498749,0.020844,-0.016266,-0.004243,-0.0007440000000000001,0.003078,-41.060001,9.06,12.87,3a
2019-07-15_152927:120,-0.49926800000000005,0.018799,-0.015228,-0.004457,-0.0008349999999999999,0.002955,-41.060001,9.06,12.87,3a
2019-07-15_152927:140,-0.49722299999999997,0.019806,-0.016266,-0.004396,-0.000958,0.003016,-41.060001,9.5,11.25,3a
2019-07-15_152927:160,-0.495697,0.019318000000000002,-0.014221000000000001,-0.004274,-0.001141,0.001399,-41.060001,9.5,11.25,3a
2019-07-15_152927:180,-0.49316400000000005,0.018799,-0.016753999999999998,-0.003999,-0.001324,0.001338,-41.5,9.5,11.25,3a
2019-07-15_152927:200,-0.49468999999999996,0.018799,-0.018799,-0.0032670000000000004,-0.001995,0.001582,-41.5,9.5,11.25,3a
2019-07-15_152927:220,-0.496704,0.020325,-0.017273,-0.0029620000000000002,-0.002514,0.002009,-41.5,9.5,11.25,3a
2019-07-15_152927:240,-0.500793,0.021851,-0.018799,-0.0025039999999999997,-0.001843,0.002315,-42.5,9.06,12.06,3a
2019-07-15_152927:260,-0.500275,0.023375999999999997,-0.017792,-0.002565,-0.001537,0.0024059999999999997,-42.5,9.06,12.06,3a
2019-07-15_152927:280,-0.49722299999999997,0.024384,-0.020325,-0.002687,-0.0014759999999999999,0.0024059999999999997,-42.5,9.06,11.68,3a
2019-07-15_152927:300,-0.500275,0.025908999999999998,-0.020325,-0.0028399999999999996,-0.001141,0.00265,-42.5,9.06,11.68,3a
2019-07-15_152927:320,-0.49926800000000005,0.024902,-0.019318000000000002,-0.003542,-0.001324,0.003016,-42.5,9.06,11.68,3a
2019-07-15_152927:340,-0.498749,0.022858,-0.020844,-0.0039380000000000005,-0.001141,0.0031079999999999997,-41.75,9.06,11.25,3a
2019-07-15_152927:360,-0.49975600000000003,0.021332,-0.019318000000000002,-0.004182,-0.001019,0.003078,-41.75,9.06,11.25,3a
2019-07-15_152927:380,-0.498749,0.020325,-0.020844,-0.004182,-0.0008349999999999999,0.002711,-41.5,9.06,10.5,3a
2019-07-15_152927:400,-0.497742,0.021332,-0.021851,-0.004182,-0.001019,0.002955,-41.5,9.06,10.5,3a
2019-07-15_152927:420,-0.49722299999999997,0.020325,-0.019806,-0.0038469999999999997,-0.001019,0.003016,-41.5,9.06,10.5,3a
2019-07-15_152927:440,-0.500275,0.019318000000000002,-0.022369,-0.003389,-0.000683,0.0031079999999999997,-32.25,9.75,10.87,3a
2019-07-15_152927:460,-0.49975600000000003,0.020844,-0.020325,-0.003145,-0.0008349999999999999,0.0031079999999999997,-32.25,9.75,10.87,3a
2019-07-15_152927:480,-0.49975600000000003,0.019318000000000002,-0.020844,-0.003145,-0.000958,0.003169,-42.18,9.06,10.5,3a
2019-07-15_152927:500,-0.49926800000000005,0.021332,-0.018799,-0.0029620000000000002,-0.000103,0.002955,-42.18,9.06,10.5,3a
2019-07-15_152927:520,-0.49823,0.019318000000000002,-0.017792,-0.0028399999999999996,0.000172,0.002742,-42.18,9.06,10.5,3a
2019-07-15_152927:540,-0.498749,0.019806,-0.020325,-0.002565,0.000294,0.0031079999999999997,-41.75,8.68,10.5,3a
2019-07-15_152927:560,-0.496216,0.017792,-0.01828,-0.002382,-0.000103,0.0033520000000000004,-41.75,8.68,10.5,3a
2019-07-15_152927:580,-0.49823,0.019318000000000002,-0.018799,-0.002168,-0.000103,0.0032909999999999997,-41.5,9.5,11.25,3a
2019-07-15_152927:600,-0.498749,0.018799,-0.016753999999999998,-0.00229,-0.0005610000000000001,0.0031079999999999997,-41.5,9.5,11.25,3a
2019-07-15_152927:620,-0.496216,0.016266,-0.019318000000000002,-0.00229,-0.000286,0.00323,-41.5,9.5,11.25,3a
2019-07-15_152927:640,-0.500275,0.015747,-0.018799,-0.001955,-0.000103,0.003169,-41.75,8.68,11.68,3a
2019-07-15_152927:660,-0.497742,0.015228,-0.016753999999999998,-0.001222,0.000172,0.002955,-41.75,8.68,11.68,3a
2019-07-15_152927:680,-0.495697,0.015747,-0.019318000000000002,-0.000825,-0.000286,0.002467,-41.75,8.68,11.68,3a
2019-07-15_152927:700,-0.49926800000000005,0.016266,-0.016753999999999998,-0.0005809999999999999,-0.0005610000000000001,0.002467,-41.060001,9.06,10.06,3a
2019-07-15_152927:720,-0.501282,0.018799,-0.016266,-0.000429,-0.000164,0.002131,-41.060001,9.06,10.06,3a
2019-07-15_152927:740,-0.498749,0.020844,-0.015747,-0.0008560000000000001,-0.00037799999999999997,0.002315,-41.5,9.06,13.68,3a
2019-07-15_152927:760,-0.496704,0.020325,-0.015747,-0.0016190000000000002,-0.0006219999999999999,0.002131,-41.5,9.06,13.68,3a
2019-07-15_152927:780,-0.497742,0.021851,-0.016266,-0.002168,-0.0007440000000000001,0.0017350000000000002,-41.5,9.06,13.68,3a
2019-07-15_152927:800,-0.49823,0.020844,-0.016753999999999998,-0.0029010000000000004,-0.0007440000000000001,0.001796,-42.18,8.68,12.06,3a
2019-07-15_152927:820,-0.498749,0.020844,-0.015228,-0.003114,-0.0006219999999999999,0.002131,-42.18,8.68,12.06,3a
2019-07-15_152927:840,-0.49926800000000005,0.020325,-0.018799,-0.0036030000000000003,-0.0008349999999999999,0.002467,-41.75,8.68,11.68,3a
2019-07-15_152927:860,-0.49823,0.018799,-0.016266,-0.003664,-0.0007440000000000001,0.002589,-41.75,8.68,11.68,3a
2019-07-15_152927:880,-0.496704,0.017792,-0.017273,-0.0038469999999999997,-0.000683,0.00265,-41.75,8.68,11.68,3a
2019-07-15_152927:900,-0.49517799999999995,0.017792,-0.016266,-0.0038469999999999997,-0.000897,0.00207,-42.5,8.68,11.25,3a
2019-07-15_152927:920,-0.496704,0.019806,-0.017273,-0.00406,-0.001202,0.001796,-42.5,8.68,11.25,3a
2019-07-15_152927:940,-0.497742,0.019806,-0.016753999999999998,-0.0038770000000000002,-0.00172,0.001582,-42.5,8.68,12.06,3a
2019-07-15_152927:960,-0.496216,0.01828,-0.014740000000000001,-0.0039380000000000005,-0.001934,0.0010019999999999999,-42.5,8.68,12.06,3a
2019-07-15_152927:980,-0.496216,0.020325,-0.01828,-0.003542,-0.001934,0.00085,-42.5,8.68,12.06,3a
2019-07-15_152928:000,-0.496216,0.020844,-0.017792,-0.0032670000000000004,-0.0024530000000000003,0.000728,-41.5,8.68,12.5,3a
2019-07-15_152928:020,-0.49975600000000003,0.022369,-0.019318000000000002,-0.003114,-0.002392,0.00085,-41.5,8.68,12.5,3a
2019-07-15_152928:040,-0.500275,0.023375999999999997,-0.01828,-0.0029620000000000002,-0.001995,0.0010630000000000001,-42.18,8.68,12.5,3a
2019-07-15_152928:060,-0.498749,0.026427999999999997,-0.01828,-0.003114,-0.001843,0.001277,-42.18,8.68,12.5,3a
2019-07-15_152928:080,-0.49823,0.025908999999999998,-0.019806,-0.00345,-0.001446,0.001399,-42.18,8.68,12.5,3a
2019-07-15_152928:100,-0.49926800000000005,0.027435,-0.020325,-0.003389,-0.001446,0.001674,-42.869999,8.25,11.68,3a
2019-07-15_152928:120,-0.497742,0.026427999999999997,-0.020325,-0.003786,-0.0014759999999999999,0.001857,-42.869999,8.25,11.68,3a
2019-07-15_152928:140,-0.498749,0.027435,-0.020844,-0.003725,-0.001324,0.002315,-41.5,9.06,12.5,3a
2019-07-15_152928:160,-0.496704,0.025908999999999998,-0.019806,-0.0038469999999999997,-0.001385,0.00265,-41.5,9.06,12.5,3a
2019-07-15_152928:180,-0.500793,0.024902,-0.021332,-0.0038770000000000002,-0.0014759999999999999,0.003016,-41.5,9.06,12.5,3a
2019-07-15_152928:200,-0.49468999999999996,0.023895,-0.020844,-0.0034799999999999996,-0.001263,0.003169,-42.18,8.68,13.25,3a
2019-07-15_152928:220,-0.497742,0.022858,-0.021332,-0.003664,-0.001598,0.003474,-42.18,8.68,13.25,3a
2019-07-15_152928:240,-0.49926800000000005,0.023895,-0.021851,-0.0034799999999999996,-0.001598,0.0036880000000000003,-42.18,9.06,11.25,3a
2019-07-15_152928:260,-0.49823,0.021332,-0.021851,-0.0036030000000000003,-0.001537,0.003749,-42.18,9.06,11.25,3a
2019-07-15_152928:280,-0.49823,0.021332,-0.022369,-0.003114,-0.0014759999999999999,0.003749,-42.18,9.06,11.25,3a
2019-07-15_152928:300,-0.502808,0.021851,-0.020844,-0.002748,-0.001019,0.003169,-41.5,8.68,10.5,3a
2019-07-15_152928:320,-0.49823,0.023375999999999997,-0.022858,-0.0029010000000000004,-0.000683,0.003169,-41.5,8.68,10.5,3a
2019-07-15_152928:340,-0.49722299999999997,0.022369,-0.021851,-0.0029010000000000004,-0.000439,0.003078,-42.5,9.06,12.5,3a
2019-07-15_152928:360,-0.49722299999999997,0.024384,-0.021332,-0.002748,-0.000439,0.001918,-42.5,9.06,12.5,3a
2019-07-15_152928:380,-0.495697,0.027435,-0.024384,-0.002687,-0.0005,0.001674,-42.5,9.06,12.5,3a
2019-07-15_152928:400,-0.49926800000000005,0.026427999999999997,-0.023895,-0.003114,-0.0005610000000000001,0.002467,-42.5,8.25,10.87,3a
2019-07-15_152928:420,-0.500275,0.025908999999999998,-0.022369,-0.003114,-0.0005610000000000001,0.0028940000000000003,-42.5,8.25,10.87,3a
2019-07-15_152928:440,-0.49926800000000005,0.025421,-0.022369,-0.003084,-0.000225,0.003505,-41.75,8.68,11.75,3a
2019-07-15_152928:460,-0.497742,0.027435,-0.020325,-0.0032670000000000004,0.00011100000000000001,0.004024,-41.75,8.68,11.75,3a
2019-07-15_152928:480,-0.498749,0.026427999999999997,-0.020325,-0.0034799999999999996,-4.2e-05,0.004024,-41.75,8.68,11.75,3a
2019-07-15_152928:500,-0.500793,0.025908999999999998,-0.018799,-0.0039380000000000005,0.000172,0.003963,-41.060001,9.06,11.25,3a
2019-07-15_152928:520,-0.49926800000000005,0.024384,-0.019318000000000002,-0.004579,0.000294,0.004359,-41.060001,9.06,11.25,3a
2019-07-15_152928:540,-0.496216,0.021332,-0.019318000000000002,-0.0049759999999999995,0.00038500000000000003,0.004817,-41.75,8.25,11.25,3a
2019-07-15_152928:560,-0.49722299999999997,0.020325,-0.016753999999999998,-0.005067,0.0005070000000000001,0.004207,-41.75,8.25,11.25,3a
2019-07-15_152928:580,-0.49468999999999996,0.018799,-0.016753999999999998,-0.00461,0.00035499999999999996,0.004085,-41.75,8.25,11.25,3a
2019-07-15_152928:600,-0.496704,0.01828,-0.017273,-0.004457,-0.0005,0.003963,-40.68,9.06,12.06,3a
2019-07-15_152928:620,-0.496216,0.017792,-0.016753999999999998,-0.003999,-0.00037799999999999997,0.004207,-40.68,9.06,12.06,3a
2019-07-15_152928:640,-0.49722299999999997,0.01828,-0.01828,-0.0036030000000000003,-0.00108,0.004207,-41.5,8.68,12.06,3a
2019-07-15_152928:660,-0.498749,0.01828,-0.016266,-0.00345,-0.001202,0.004146,-41.5,8.68,12.06,3a
2019-07-15_152928:680,-0.49926800000000005,0.018799,-0.01828,-0.003389,-0.0008349999999999999,0.003749,-41.5,8.68,12.06,3a
2019-07-15_152928:700,-0.49823,0.020325,-0.017273,-0.003389,-0.0006219999999999999,0.0036270000000000004,-41.5,8.25,11.75,3a
2019-07-15_152928:720,-0.498749,0.019806,-0.016266,-0.0038469999999999997,-0.000683,0.003505,-41.5,8.25,11.75,3a
2019-07-15_152928:740,-0.49823,0.017792,-0.017792,-0.003786,-0.000439,0.0035659999999999997,-42.18,8.68,11.25,3a
2019-07-15_152928:760,-0.497742,0.01828,-0.016266,-0.003786,-0.00034700000000000003,0.0036270000000000004,-42.18,8.68,11.25,3a
2019-07-15_152928:780,-0.49926800000000005,0.017792,-0.016753999999999998,-0.0038469999999999997,-0.0006219999999999999,0.0036880000000000003,-42.18,8.68,11.25,3a
2019-07-15_152928:800,-0.498749,0.017792,-0.017792,-0.003786,-0.000439,0.003901,-42.5,8.68,10.06,3a
2019-07-15_152928:820,-0.498749,0.017273,-0.016266,-0.0039380000000000005,-0.0005610000000000001,0.003749,-42.5,8.68,10.06,3a
2019-07-15_152928:840,-0.49926800000000005,0.016753999999999998,-0.017792,-0.0039380000000000005,-0.00034700000000000003,0.003871,-41.060001,9.5,12.5,3a
2019-07-15_152928:860,-0.497742,0.016266,-0.016753999999999998,-0.0038770000000000002,-0.000225,0.003749,-41.060001,9.5,12.5,3a
2019-07-15_152928:880,-0.49975600000000003,0.015228,-0.015228,-0.0038469999999999997,-0.00034700000000000003,0.0034130000000000002,-41.060001,9.5,12.5,3a
2019-07-15_152928:900,-0.49926800000000005,0.015228,-0.014740000000000001,-0.0038469999999999997,1.9e-05,0.002833,-41.5,9.5,11.68,3a
2019-07-15_152928:920,-0.49468999999999996,0.015228,-0.015747,-0.0039380000000000005,-4.2e-05,0.002742,-41.5,9.5,11.68,3a
2019-07-15_152928:940,-0.49722299999999997,0.015228,-0.015747,-0.0038469999999999997,-0.00037799999999999997,0.002131,-41.5,9.5,9.25,3a
2019-07-15_152928:960,-0.495697,0.014740000000000001,-0.015747,-0.0032670000000000004,-0.0005610000000000001,0.001338,-41.5,9.5,9.25,3a
2019-07-15_152928:980,-0.496704,0.015747,-0.016266,-0.0029620000000000002,-0.0011099999999999999,0.001185,-41.5,9.5,9.25,3a
2019-07-15_152929:000,-0.49926800000000005,0.016753999999999998,-0.016753999999999998,-0.002107,-0.000958,0.001796,-41.75,9.5,10.87,3a
2019-07-15_152929:020,-0.49823,0.016753999999999998,-0.015747,-0.0018329999999999998,-0.000683,0.002467,-41.75,9.5,10.87,3a
2019-07-15_152929:040,-0.496216,0.01828,-0.017792,-0.001497,-0.0005610000000000001,0.0032909999999999997,-41.5,9.75,11.68,3a
2019-07-15_152929:060,-0.49365200000000004,0.019806,-0.016266,-0.001222,-0.0007740000000000001,0.00381,-41.5,9.75,11.68,3a
2019-07-15_152929:080,-0.49722299999999997,0.020844,-0.019318000000000002,-0.001375,-0.001782,0.0036270000000000004,-41.5,9.75,11.68,3a
2019-07-15_152929:100,-0.500793,0.020844,-0.018799,-0.0019850000000000002,-0.001843,0.003474,-41.060001,9.06,12.87,3a
2019-07-15_152929:120,-0.500275,0.021332,-0.019318000000000002,-0.003084,-0.001843,0.003505,-41.060001,9.06,12.87,3a
2019-07-15_152929:140,-0.49823,0.01828,-0.020325,-0.0038770000000000002,-0.001263,0.002742,-41.5,9.5,12.06,3a
2019-07-15_152929:160,-0.496216,0.017273,-0.018799,-0.004121,-0.001141,0.0017350000000000002,-41.5,9.5,12.06,3a
2019-07-15_152929:180,-0.496704,0.015747,-0.019806,-0.004274,-0.001202,0.0016129999999999999,-41.5,9.5,12.06,3a
2019-07-15_152929:200,-0.497742,0.015747,-0.018799,-0.0039380000000000005,-0.001537,0.001582,-41.75,8.68,13.25,3a
2019-07-15_152929:220,-0.49823,0.015228,-0.019806,-0.0033280000000000002,-0.001782,0.001521,-41.75,8.68,13.25,3a
2019-07-15_152929:240,-0.496704,0.016753999999999998,-0.018799,-0.003023,-0.0020559999999999997,0.001796,-41.5,8.68,12.87,3a
2019-07-15_152929:260,-0.49722299999999997,0.018799,-0.017792,-0.0025039999999999997,-0.001843,0.001521,-41.5,8.68,12.87,3a
2019-07-15_152929:280,-0.49722299999999997,0.020844,-0.018799,-0.00229,-0.0020559999999999997,0.0012460000000000001,-41.5,8.68,12.87,3a
2019-07-15_152929:300,-0.49722299999999997,0.020844,-0.019318000000000002,-0.0026260000000000003,-0.0020559999999999997,0.001338,-41.5,9.5,12.5,3a
2019-07-15_152929:320,-0.497742,0.021851,-0.018799,-0.0029620000000000002,-0.0020559999999999997,0.001399,-41.5,9.5,12.5,3a
2019-07-15_152929:340,-0.49926800000000005,0.021851,-0.020844,-0.003145,-0.0020559999999999997,0.001338,-42.18,8.68,10.5,3a
2019-07-15_152929:360,-0.49975600000000003,0.021851,-0.019806,-0.003114,-0.001995,0.001338,-42.18,8.68,10.5,3a
2019-07-15_152929:380,-0.49975600000000003,0.020844,-0.021332,-0.003145,-0.00172,0.001857,-42.18,8.68,10.5,3a
2019-07-15_152929:400,-0.49823,0.021332,-0.020844,-0.0029620000000000002,-0.001446,0.0021920000000000004,-42.18,8.25,12.5,3a
2019-07-15_152929:420,-0.49926800000000005,0.021851,-0.020325,-0.0029620000000000002,-0.0014759999999999999,0.002589,-42.18,8.25,12.5,3a
2019-07-15_152929:440,-0.500275,0.021332,-0.021851,-0.003114,-0.0011099999999999999,0.002742,-42.5,8.25,11.25,3a
2019-07-15_152929:460,-0.501801,0.021851,-0.019318000000000002,-0.003084,-0.000683,0.0025280000000000003,-42.5,8.25,11.25,3a
2019-07-15_152929:480,-0.500275,0.021332,-0.020325,-0.00345,-0.00037799999999999997,0.00265,-42.5,8.25,11.25,3a
2019-07-15_152929:500,-0.496704,0.020844,-0.019318000000000002,-0.0032670000000000004,-0.000103,0.002376,-41.5,8.68,12.06,3a
2019-07-15_152929:520,-0.49517799999999995,0.020325,-0.019806,-0.003206,-0.0005610000000000001,0.00146,-41.5,8.68,12.06,3a
2019-07-15_152929:540,-0.495697,0.020844,-0.019318000000000002,-0.003084,-0.000683,0.0012460000000000001,-41.75,9.75,11.25,3a
2019-07-15_152929:560,-0.496216,0.021851,-0.01828,-0.003084,-0.0008349999999999999,0.001796,-41.75,9.75,11.25,3a
2019-07-15_152929:580,-0.498749,0.021851,-0.020325,-0.003084,-0.0011099999999999999,0.002254,-41.75,9.75,11.25,3a
2019-07-15_152929:600,-0.49823,0.021851,-0.019806,-0.0029010000000000004,-0.0008349999999999999,0.002467,-42.5,8.25,11.25,3a
2019-07-15_152929:620,-0.49823,0.022858,-0.019318000000000002,-0.003023,-0.0007740000000000001,0.002589,-42.5,8.25,11.25,3a
2019-07-15_152929:640,-0.49517799999999995,0.023375999999999997,-0.020844,-0.003114,-0.000897,0.0025280000000000003,-41.75,8.25,11.75,3a
2019-07-15_152929:660,-0.497742,0.023895,-0.018799,-0.003664,-0.0011099999999999999,0.002467,-41.75,8.25,11.75,3a
2019-07-15_152929:680,-0.497742,0.023895,-0.020325,-0.004274,-0.001263,0.0028940000000000003,-41.75,8.25,11.75,3a
2019-07-15_152929:700,-0.498749,0.021332,-0.020844,-0.004518,-0.001385,0.002955,-42.869999,9.06,11.75,3a
2019-07-15_152929:720,-0.496216,0.020325,-0.020844,-0.004457,-0.001537,0.00207,-42.869999,9.06,11.75,3a
2019-07-15_152929:740,-0.496704,0.019806,-0.021851,-0.00406,-0.001598,0.001918,-42.5,9.75,12.06,3a
2019-07-15_152929:760,-0.49823,0.020325,-0.021332,-0.003664,-0.001537,0.002131,-42.5,9.75,12.06,3a
2019-07-15_152929:780,-0.49926800000000005,0.021851,-0.021851,-0.0033280000000000002,-0.0011099999999999999,0.002009,-42.5,9.75,12.06,3a
2019-07-15_152929:800,-0.49926800000000005,0.021851,-0.022858,-0.003084,-0.0007740000000000001,0.002376,-42.18,9.06,10.87,3a
2019-07-15_152929:820,-0.49926800000000005,0.022858,-0.022369,-0.002779,-0.000683,0.002254,-42.18,9.06,10.87,3a
2019-07-15_152929:840,-0.49823,0.024384,-0.022369,-0.003084,-0.0005,0.0021920000000000004,-41.75,9.06,10.87,3a
2019-07-15_152929:860,-0.497742,0.025908999999999998,-0.022369,-0.003542,-0.0006219999999999999,0.002254,-41.75,9.06,10.87,3a
2019-07-15_152929:880,-0.49722299999999997,0.025908999999999998,-0.021851,-0.0034799999999999996,-0.000286,0.002131,-41.75,9.06,10.87,3a
2019-07-15_152929:900,-0.498749,0.024902,-0.021851,-0.0039380000000000005,-0.0005,0.002315,-42.18,8.0,10.5,3a
2019-07-15_152929:920,-0.49975600000000003,0.024384,-0.021851,-0.0039380000000000005,-0.00037799999999999997,0.002467,-42.18,8.0,10.5,3a
2019-07-15_152929:940,-0.501282,0.023375999999999997,-0.022858,-0.0039380000000000005,-0.000164,0.0025280000000000003,-41.5,8.68,10.56,3a
2019-07-15_152929:960,-0.49975600000000003,0.023375999999999997,-0.022369,-0.0038469999999999997,0.000446,0.0027719999999999997,-41.5,8.68,10.56,3a
2019-07-15_152929:980,-0.498749,0.021851,-0.021851,-0.003542,0.000904,0.0027719999999999997,-41.5,8.68,10.56,3a
2019-07-15_152930:000,-0.49722299999999997,0.022858,-0.020325,-0.003206,0.000965,0.003169,-41.5,8.25,11.75,3a
2019-07-15_152930:020,-0.49926800000000005,0.023375999999999997,-0.019806,-0.00345,0.000965,0.003078,-41.5,8.25,11.75,3a
2019-07-15_152930:040,-0.503326,0.024384,-0.018799,-0.00345,0.00124,0.002833,-42.18,9.06,12.06,3a
2019-07-15_152930:060,-0.500793,0.023375999999999997,-0.016753999999999998,-0.0034799999999999996,0.001545,0.0031079999999999997,-42.18,9.06,12.06,3a
2019-07-15_152930:080,-0.496704,0.023375999999999997,-0.016266,-0.0038469999999999997,0.0018809999999999999,0.002589,-42.18,9.06,12.06,3a
2019-07-15_152930:100,-0.495697,0.022369,-0.016753999999999998,-0.003664,0.001697,0.001979,-41.5,9.06,11.25,3a
2019-07-15_152930:120,-0.494171,0.022369,-0.015747,-0.003542,0.001362,0.0021920000000000004,-41.5,9.06,11.25,3a
2019-07-15_152930:140,-0.496216,0.023375999999999997,-0.014740000000000001,-0.00345,0.0010869999999999999,0.002711,-42.5,9.5,12.06,3a
2019-07-15_152930:160,-0.49823,0.022858,-0.014221000000000001,-0.0033280000000000002,0.0006900000000000001,0.0031079999999999997,-42.5,9.5,12.06,3a
2019-07-15_152930:180,-0.497742,0.022858,-0.013702,-0.003023,0.000965,0.0035659999999999997,-42.5,9.5,12.06,3a
2019-07-15_152930:200,-0.496216,0.022858,-0.014221000000000001,-0.0032670000000000004,0.0007509999999999999,0.0036270000000000004,-41.5,8.68,12.87,3a
2019-07-15_152930:220,-0.496216,0.023895,-0.013213999999999998,-0.0033280000000000002,0.000172,0.0033520000000000004,-41.5,8.68,12.87,3a
2019-07-15_152930:240,-0.498749,0.024902,-0.013702,-0.0039380000000000005,-4.2e-05,0.0032909999999999997,-42.18,9.06,12.06,3a
2019-07-15_152930:260,-0.497742,0.022369,-0.014740000000000001,-0.004121,-0.000164,0.003871,-42.18,9.06,12.06,3a
2019-07-15_152930:280,-0.497742,0.021332,-0.014221000000000001,-0.004274,1.9e-05,0.00323,-42.18,9.06,12.06,3a
2019-07-15_152930:300,-0.496216,0.020325,-0.015228,-0.00406,-0.00034700000000000003,0.002589,-42.18,9.06,11.25,3a
2019-07-15_152930:320,-0.496216,0.020844,-0.013702,-0.0038770000000000002,-0.0006219999999999999,0.002467,-42.18,9.06,11.25,3a
2019-07-15_152930:340,-0.496704,0.020844,-0.014221000000000001,-0.0034799999999999996,-0.00108,0.002467,-41.75,8.25,11.25,3a
2019-07-15_152930:360,-0.498749,0.020844,-0.014221000000000001,-0.0032670000000000004,-0.001324,0.00265,-41.75,8.25,11.25,3a
2019-07-15_152930:380,-0.49926800000000005,0.021851,-0.014221000000000001,-0.003023,-0.000958,0.002742,-41.75,8.25,11.25,3a
2019-07-15_152930:400,-0.49926800000000005,0.022858,-0.014221000000000001,-0.002779,-0.0008349999999999999,0.00265,-41.5,9.75,11.68,3a
2019-07-15_152930:420,-0.498749,0.022858,-0.013213999999999998,-0.0029010000000000004,-0.000897,0.0024059999999999997,-41.5,9.75,11.68,3a
2019-07-15_152930:440,-0.49722299999999997,0.023375999999999997,-0.013702,-0.003114,-0.0007440000000000001,0.002376,-42.18,9.5,11.75,3a
2019-07-15_152930:460,-0.49722299999999997,0.023895,-0.013702,-0.0033280000000000002,-0.00108,0.002467,-42.18,9.5,11.75,3a
2019-07-15_152930:480,-0.49722299999999997,0.023895,-0.013702,-0.00345,-0.001263,0.002589,-42.18,9.5,11.75,3a
2019-07-15_152930:500,-0.49722299999999997,0.024902,-0.014221000000000001,-0.0038469999999999997,-0.001446,0.0027719999999999997,-40.369999,8.25,12.5,3a
2019-07-15_152930:520,-0.49926800000000005,0.023375999999999997,-0.012177,-0.003725,-0.00108,0.003078,-40.369999,8.25,12.5,3a
2019-07-15_152930:540,-0.496704,0.022369,-0.014740000000000001,-0.003999,-0.0011099999999999999,0.003078,-41.5,8.68,10.87,3a
2019-07-15_152930:560,-0.49722299999999997,0.022369,-0.014740000000000001,-0.003725,-0.001263,0.003505,-41.5,8.68,10.87,3a
2019-07-15_152930:580,-0.496216,0.021332,-0.013213999999999998,-0.0039380000000000005,-0.0014759999999999999,0.003474,-41.5,8.68,10.87,3a
2019-07-15_152930:600,-0.49468999999999996,0.021851,-0.014221000000000001,-0.003725,-0.00172,0.0032909999999999997,-41.060001,9.06,11.68,3a
2019-07-15_152930:620,-0.500793,0.021851,-0.013702,-0.0038469999999999997,-0.001934,0.0032909999999999997,-41.060001,9.06,11.68,3a
2019-07-15_152930:640,-0.498749,0.020844,-0.015228,-0.0039380000000000005,-0.001843,0.0036880000000000003,-41.060001,9.5,11.68,3a
2019-07-15_152930:660,-0.49722299999999997,0.019318000000000002,-0.016266,-0.003999,-0.0024530000000000003,0.003169,-41.060001,9.5,11.68,3a
2019-07-15_152930:680,-0.496704,0.020844,-0.017792,-0.0039380000000000005,-0.0021780000000000002,0.0024059999999999997,-41.060001,9.5,11.68,3a
2019-07-15_152930:700,-0.49722299999999997,0.019806,-0.019318000000000002,-0.003999,-0.0023309999999999997,0.002467,-41.75,8.0,12.06,3a
2019-07-15_152930:720,-0.49926800000000005,0.020325,-0.017273,-0.0038469999999999997,-0.0021780000000000002,0.0027719999999999997,-41.75,8.0,12.06,3a
2019-07-15_152930:740,-0.500793,0.020325,-0.018799,-0.0034799999999999996,-0.00172,0.0028940000000000003,-41.75,8.25,11.75,3a
2019-07-15_152930:760,-0.500275,0.021332,-0.01828,-0.0034799999999999996,-0.001141,0.002833,-41.75,8.25,11.75,3a
2019-07-15_152930:780,-0.49975600000000003,0.020325,-0.01828,-0.0034799999999999996,-0.0008349999999999999,0.002711,-41.75,8.25,11.75,3a
2019-07-15_152930:800,-0.498749,0.021332,-0.018799,-0.003145,-0.0007740000000000001,0.002254,-40.68,9.06,11.75,3a
2019-07-15_152930:820,-0.49975600000000003,0.020844,-0.017792,-0.0032670000000000004,-0.0008349999999999999,0.002254,-40.68,9.06,11.75,3a
2019-07-15_152930:840,-0.497742,0.023375999999999997,-0.016753999999999998,-0.003389,-0.0006219999999999999,0.002315,-41.75,8.68,10.56,3a
2019-07-15_152930:860,-0.49926800000000005,0.021332,-0.017273,-0.0036030000000000003,-0.0005,0.002009,-41.75,8.68,10.56,3a
2019-07-15_152930:880,-0.49722299999999997,0.021332,-0.015228,-0.003084,-0.00037799999999999997,0.001521,-41.75,8.68,10.56,3a
2019-07-15_152930:900,-0.495697,0.022369,-0.016753999999999998,-0.003023,-0.00037799999999999997,0.00146,-42.18,9.5,10.87,3a
2019-07-15_152930:920,-0.496704,0.021851,-0.016266,-0.0026260000000000003,-0.000286,0.0017350000000000002,-42.18,9.5,10.87,3a
2019-07-15_152930:940,-0.49722299999999997,0.022858,-0.016753999999999998,-0.002229,-0.0008349999999999999,0.002315,-42.5,9.75,11.25,3a
2019-07-15_152930:960,-0.497742,0.024384,-0.015228,-0.002168,-0.000897,0.002589,-42.5,9.75,11.25,3a
2019-07-15_152930:980,-0.497742,0.024384,-0.016266,-0.0023510000000000002,-0.000958,0.003078,-42.5,9.75,11.25,3a
2019-07-15_152931:000,-0.498749,0.025421,-0.017273,-0.0026260000000000003,-0.001141,0.0031079999999999997,-41.5,9.5,10.87,3a
2019-07-15_152931:020,-0.496704,0.026427999999999997,-0.014740000000000001,-0.0033280000000000002,-0.000897,0.0032909999999999997,-41.5,9.5,10.87,3a
2019-07-15_152931:040,-0.49722299999999997,0.024384,-0.015228,-0.003664,-0.001141,0.0033520000000000004,-41.75,8.68,10.87,3a
