timestamp,AccX,AccY,AccZ,GyroX,GyroY,GyroZ,MagX,MagY,MagZ,Activity
2019-07-15_160310:820,-0.41943400000000003,0.010162000000000001,-0.379791,0.017424000000000002,-0.035778,-0.005101,-11.5,1.37,-46.18,1b
2019-07-15_160310:840,-0.41995200000000005,0.017792,-0.393005,0.022673,-0.028270999999999998,-0.005222999999999999,-10.5,1.75,-46.560001,1b
2019-07-15_160310:860,-0.344696,0.030487,-0.386383,0.024962,-0.023754,-0.0009199999999999999,-10.5,1.75,-46.560001,1b
2019-07-15_160310:880,-0.316223,0.020325,-0.401123,0.021208,-0.026135000000000002,0.0033520000000000004,-10.5,1.75,-46.560001,1b
2019-07-15_160310:900,-0.33300799999999997,-0.009125,-0.42758199999999996,0.021391,-0.032451999999999995,0.004695,-9.25,3.56,-45.369999,1b
2019-07-15_160310:920,-0.311127,-0.017273,-0.46670500000000004,0.023191999999999997,-0.031262,0.002955,-9.25,3.56,-45.369999,1b
2019-07-15_160310:940,-0.30249000000000004,-0.009125,-0.48706099999999997,0.026914999999999998,-0.032269,0.005763,-7.5,4.37,-46.869999,1b
2019-07-15_160310:960,-0.37674,-0.022369,-0.507904,0.025176,-0.037243,0.011195,-7.5,4.37,-46.869999,1b
2019-07-15_160310:980,-0.354858,-0.057953,-0.511444,0.020597999999999998,-0.037883999999999994,0.011653,-7.5,4.37,-46.869999,1b
2019-07-15_160311:000,-0.22879000000000002,-0.098633,-0.50943,0.01895,-0.040234,0.00323,-6.5,6.5,-45.75,1b
2019-07-15_160311:020,-0.20080599999999998,-0.119965,-0.525696,0.020475999999999998,-0.04295,-0.001134,-6.5,6.5,-45.75,1b
2019-07-15_160311:040,-0.22879000000000002,-0.136749,-0.576538,0.023467,-0.035564,-0.0024460000000000003,-4.18,6.87,-45.369999,1b
2019-07-15_160311:060,-0.223694,-0.12506099999999998,-0.566864,0.021513,-0.026164999999999997,-0.005222999999999999,-4.18,6.87,-45.369999,1b
2019-07-15_160311:080,-0.21810900000000003,-0.115906,-0.539429,0.014311,-0.01759,-0.001805,-4.18,6.87,-45.369999,1b
2019-07-15_160311:100,-0.157593,-0.12301600000000001,-0.5048520000000001,0.006468000000000001,-0.011822,0.001674,-2.75,8.68,-46.869999,1b
2019-07-15_160311:120,-0.131165,-0.119476,-0.496704,-0.0005809999999999999,-0.010204000000000001,0.00020899999999999998,-2.75,8.68,-46.869999,1b
2019-07-15_160311:140,-0.172333,-0.10318,-0.47689799999999993,-0.0057079999999999995,-0.012218999999999999,-0.0019879999999999997,-2.37,8.68,-46.869999,1b
2019-07-15_160311:160,-0.20639000000000002,-0.055908000000000006,-0.475861,-0.01169,-0.010631999999999999,-0.004125,-2.37,8.68,-46.869999,1b
2019-07-15_160311:180,-0.225739,-0.040161,-0.470276,-0.02585,-0.003979,-0.0024460000000000003,-2.37,8.68,-46.869999,1b
2019-07-15_160311:200,-0.227753,-0.054901,-0.45706199999999997,-0.036653,0.00481,0.0017350000000000002,-1.68,9.06,-45.75,1b
2019-07-15_160311:220,-0.255707,-0.068115,-0.430634,-0.043886,0.012653,0.000606,-1.68,9.06,-45.75,1b
2019-07-15_160311:240,-0.2547,-0.067596,-0.396057,-0.048067,0.019489,-0.003728,-2.0,8.0,-46.560001,1b
2019-07-15_160311:260,-0.24353000000000002,-0.068634,-0.376221,-0.050263999999999996,0.023853,-0.005651,-2.0,8.0,-46.560001,1b
2019-07-15_160311:280,-0.253693,-0.06149299999999999,-0.348267,-0.050386,0.025256999999999998,-0.004704,-2.0,8.0,-46.560001,1b
2019-07-15_160311:300,-0.24353000000000002,-0.067596,-0.338593,-0.049013,0.026966000000000004,-0.00385,-3.06,5.06,-46.18,1b
2019-07-15_160311:320,-0.260803,-0.070648,-0.33758499999999997,-0.045412,0.026844,-0.005497999999999999,-3.06,5.06,-46.18,1b
2019-07-15_160311:340,-0.249115,-0.080322,-0.330475,-0.040651,0.025135,-0.004704,-3.87,3.25,-46.869999,1b
2019-07-15_160311:360,-0.245056,-0.07928500000000001,-0.320801,-0.031952999999999995,0.021748,0.0012460000000000001,-3.87,3.25,-46.869999,1b
2019-07-15_160311:380,-0.248596,-0.066589,-0.315216,-0.023958,0.018207,0.0058850000000000005,-3.87,3.25,-46.869999,1b
2019-07-15_160311:400,-0.25521900000000003,-0.055389,-0.314178,-0.019594,0.015368999999999999,0.005946,-6.06,1.06,-47.369999,1b
2019-07-15_160311:420,-0.262848,-0.047791,-0.34317,-0.018343,0.016315,0.004634,-6.06,1.06,-47.369999,1b
2019-07-15_160311:440,-0.25012199999999996,-0.056915,-0.35739099999999996,-0.017458,0.017292,0.005031,-6.5,0.37,-47.369999,1b
2019-07-15_160311:460,-0.278107,-0.051330999999999995,-0.355896,-0.014802000000000001,0.017628,0.004542,-6.5,0.37,-47.369999,1b
2019-07-15_160311:480,-0.28418000000000004,-0.040161,-0.358429,-0.013216,0.018604,0.003749,-6.5,0.37,-47.369999,1b
2019-07-15_160311:500,-0.350281,-0.021851,-0.371643,-0.014558000000000001,0.019764,0.005763,-8.25,0.37,-47.369999,1b
2019-07-15_160311:520,-0.349274,-0.021851,-0.402161,-0.019044,0.02425,0.010249,-8.25,0.37,-47.369999,1b
2019-07-15_160311:540,-0.352325,-0.021851,-0.412811,-0.022646,0.026569,0.012721,-8.56,-0.37,-46.560001,1b
2019-07-15_160311:560,-0.334534,-0.007599,-0.429596,-0.02585,0.025256999999999998,0.011195,-8.56,-0.37,-46.560001,1b
2019-07-15_160311:580,-0.401123,0.007599,-0.443329,-0.028474,0.023121,0.011470000000000001,-8.56,-0.37,-46.560001,1b
2019-07-15_160311:600,-0.402649,0.017792,-0.5134890000000001,-0.030489,0.015491,0.013576,-10.5,-2.18,-46.560001,1b
2019-07-15_160311:620,-0.382812,0.030487,-0.48043800000000003,-0.032411,0.01656,0.019008,-10.5,-2.18,-46.560001,1b
2019-07-15_160311:640,-0.395538,0.019318000000000002,-0.546021,-0.030336000000000002,0.010731000000000001,0.019556999999999998,-10.5,-2.18,-46.68,1b
2019-07-15_160311:660,-0.310638,0.041168,-0.496216,-0.028749,0.009448999999999999,0.012782,-10.5,-2.18,-46.68,1b
2019-07-15_160311:680,-0.26181,0.049316000000000006,-0.47433500000000006,-0.025178,0.012897,0.01266,-10.5,-2.18,-46.68,1b
2019-07-15_160311:700,-0.222687,0.046265,-0.453491,-0.020265000000000002,0.015766,0.01266,-11.5,-3.0,-45.869999,1b
2019-07-15_160311:720,-0.24096700000000001,0.040649,-0.45401,-0.015352000000000001,0.009205,0.004085,-11.5,-3.0,-45.869999,1b
2019-07-15_160311:740,-0.265381,0.05996699999999999,-0.440796,-0.009889,0.003498,-0.003972,-13.0,-3.68,-46.25,1b
2019-07-15_160311:760,-0.28112800000000004,0.064545,-0.43927,-0.00461,0.0006900000000000001,-0.0009199999999999999,-13.0,-3.68,-46.25,1b
2019-07-15_160311:780,-0.282654,0.062012,-0.41232299999999994,-9.300000000000001e-05,0.0032229999999999997,0.004207,-13.0,-3.68,-46.25,1b
2019-07-15_160311:800,-0.276581,0.065063,-0.394531,0.002287,0.007343000000000001,0.007014,-12.56,-4.0,-45.5,1b
2019-07-15_160311:820,-0.253693,0.063019,-0.376221,0.003752,0.008869,0.01205,-12.56,-4.0,-45.5,1b
2019-07-15_160311:840,-0.23690799999999998,0.048798,-0.352844,0.003935,0.009052,0.016566,-12.56,-4.37,-46.25,1b
2019-07-15_160311:860,-0.246063,0.039124,-0.346222,0.003203,0.006672,0.017512,-12.56,-4.37,-46.25,1b
2019-07-15_160311:880,-0.24658200000000002,0.03302,-0.327423,0.003355,0.005756,0.017299000000000002,-12.56,-4.37,-46.25,1b
2019-07-15_160311:900,-0.259277,0.030487,-0.325378,0.002806,0.004627,0.016505000000000002,-13.0,-3.68,-45.869999,1b
2019-07-15_160311:920,-0.282654,0.030487,-0.324371,0.001036,0.004353,0.015895,-13.0,-3.68,-45.869999,1b
2019-07-15_160311:940,-0.270966,0.028442000000000002,-0.310638,-0.000368,0.0061530000000000005,0.017756,-13.0,-4.0,-44.68,1b
2019-07-15_160311:960,-0.266388,0.01828,-0.307587,-0.0007639999999999999,0.006214,0.019221000000000002,-13.0,-4.0,-44.68,1b
2019-07-15_160311:980,-0.278595,0.007599,-0.31012,-0.001161,0.0030399999999999997,0.016291999999999997,-13.0,-4.0,-44.68,1b
2019-07-15_160312:000,-0.28979499999999997,0.007599,-0.311127,2.8999999999999997e-05,0.000629,0.012506999999999999,-14.5,-3.68,-45.060001,1b
2019-07-15_160312:020,-0.29742399999999997,0.009125,-0.315704,0.002135,-0.000103,0.011378000000000001,-14.5,-3.68,-45.060001,1b
2019-07-15_160312:040,-0.309113,0.020844,-0.315704,0.00421,0.001301,0.011043,-11.5,-3.25,-45.060001,1b
2019-07-15_160312:060,-0.319794,0.026427999999999997,-0.319275,0.003691,0.004688,0.010584999999999999,-11.5,-3.25,-45.060001,1b
2019-07-15_160312:080,-0.29995700000000003,0.026917,-0.33197,0.0034170000000000003,0.012440000000000001,0.008876,-11.5,-3.25,-45.060001,1b
2019-07-15_160312:100,-0.25521900000000003,0.021332,-0.35436999999999996,0.003355,0.019672,0.004939,-15.18,-3.25,-45.5,1b
2019-07-15_160312:120,-0.312653,0.015228,-0.41333000000000003,0.004332,0.014851,-0.0013779999999999999,-15.18,-3.25,-45.5,1b
2019-07-15_160312:140,-0.39502,0.011687999999999999,-0.42758199999999996,0.00479,0.007801000000000001,-0.005712,-15.56,-2.56,-45.5,1b
2019-07-15_160312:160,-0.414337,0.005065999999999999,-0.429108,0.006743000000000001,0.00951,-0.005895,-15.56,-2.56,-45.5,1b
2019-07-15_160312:180,-0.409271,-0.006592,-0.437225,0.009306,0.016163,-0.006169,-15.56,-2.56,-45.5,1b
2019-07-15_160312:200,-0.44232200000000005,-0.014740000000000001,-0.43823199999999995,0.010985,0.024738,-0.008611,-15.56,-3.0,-43.869999,1b
2019-07-15_160312:220,-0.47689799999999993,-0.043701,-0.495697,0.012816,0.026173000000000002,-0.0109,-15.56,-3.0,-43.869999,1b
2019-07-15_160312:240,-0.453491,-0.044219999999999995,-0.46670500000000004,0.016203,0.020893000000000002,-0.020787,-17.0,-1.75,-44.25,1b
2019-07-15_160312:260,-0.425018,-0.050842,-0.48754899999999995,0.016295,0.012379000000000001,-0.02271,-17.0,-1.75,-44.25,1b
2019-07-15_160312:280,-0.410797,-0.055389,-0.46670500000000004,0.014891,0.012379000000000001,-0.014591999999999999,-17.0,-1.75,-44.25,1b
2019-07-15_160312:300,-0.359955,-0.065063,-0.420959,0.012816,0.014698,-0.007421,-17.370001000000002,-1.75,-43.869999,1b
2019-07-15_160312:320,-0.34063699999999997,-0.080322,-0.401642,0.010497,0.014912,-0.004979,-17.370001000000002,-1.75,-43.869999,1b
2019-07-15_160312:340,-0.316742,-0.08996599999999999,-0.369598,0.008666,0.011188,-0.005834000000000001,-18.75,-1.06,-41.5,1b
2019-07-15_160312:360,-0.29486100000000004,-0.087952,-0.347229,0.008116,0.005817,-0.005497999999999999,-18.75,-1.06,-41.5,1b
2019-07-15_160312:380,-0.274536,-0.086914,-0.347748,0.007994,0.001484,-0.007115000000000001,-18.75,-1.06,-41.5,1b
2019-07-15_160312:400,-0.257751,-0.083374,-0.34063699999999997,0.008237999999999999,-0.00227,-0.013738,-18.18,-1.75,-42.68,1b
2019-07-15_160312:420,-0.245056,-0.07016,-0.344696,0.009245,-0.00642,-0.020848,-18.18,-1.75,-42.68,1b
2019-07-15_160312:440,-0.254211,-0.055908000000000006,-0.342163,0.011229000000000001,-0.009686,-0.023503,-18.18,-1.5,-42.68,1b
2019-07-15_160312:460,-0.260284,-0.050842,-0.342163,0.012907,-0.011669,-0.026555000000000002,-18.18,-1.5,-42.68,1b
2019-07-15_160312:480,-0.264862,-0.038635,-0.34265100000000004,0.014311,-0.011944,-0.028722,-18.18,-1.5,-42.68,1b
2019-07-15_160312:500,-0.277069,-0.024902,-0.34063699999999997,0.015471,-0.012066,-0.027013,-17.870001000000002,-1.06,-42.369999,1b
2019-07-15_160312:520,-0.296387,-0.022369,-0.339111,0.015288,-0.011669,-0.024297,-17.870001000000002,-1.06,-42.369999,1b
2019-07-15_160312:540,-0.329437,-0.01828,-0.327911,0.013762,-0.008831,-0.021092,-18.18,-1.75,-42.68,1b
2019-07-15_160312:560,-0.331482,-0.011687999999999999,-0.319275,0.011565,-0.004497999999999999,-0.017461,-18.18,-1.75,-42.68,1b
2019-07-15_160312:580,-0.319794,-0.015747,-0.307068,0.008452,-0.0008349999999999999,-0.015203,-18.18,-1.75,-42.68,1b
2019-07-15_160312:600,-0.312653,-0.01828,-0.306061,0.004942,-0.000439,-0.014745,-17.5,-1.37,-42.369999,1b
2019-07-15_160312:620,-0.291321,-0.019318000000000002,-0.285217,0.002196,0.0016359999999999999,-0.013524000000000001,-17.5,-1.37,-42.369999,1b
2019-07-15_160312:640,-0.325897,-0.022858,-0.30249000000000004,-0.0005809999999999999,0.001301,-0.012334,-17.18,-1.68,-41.869999,1b
2019-07-15_160312:660,-0.32995599999999997,-0.022369,-0.305054,-0.002168,0.0026739999999999997,-0.011144,-17.18,-1.68,-41.869999,1b
2019-07-15_160312:680,-0.34368899999999997,-0.023375999999999997,-0.313171,-0.004274,0.00243,-0.008428,-17.18,-1.68,-41.869999,1b
2019-07-15_160312:700,-0.34875500000000004,-0.026427999999999997,-0.319275,-0.005983,0.001179,-0.004521,-17.18,-1.37,-41.5,1b
2019-07-15_160312:720,-0.373688,-0.027954000000000003,-0.312164,-0.008058,0.003101,-0.00147,-17.18,-1.37,-41.5,1b
2019-07-15_160312:740,-0.401123,-0.028442000000000002,-0.325897,-0.008851999999999999,0.00655,-0.001775,-18.0,-2.06,-41.18,1b
2019-07-15_160312:760,-0.402161,-0.024902,-0.33300799999999997,-0.010042,0.009998,-0.003636,-18.0,-2.06,-41.18,1b
2019-07-15_160312:780,-0.381317,-0.022369,-0.338074,-0.010561,0.012165,-0.003118,-18.0,-2.06,-41.18,1b
2019-07-15_160312:800,-0.374695,-0.022369,-0.347229,-0.011568,0.011798999999999999,-0.001866,-18.0,-2.06,-41.18,1b
2019-07-15_160312:820,-0.394531,-0.016266,-0.358429,-0.012239,0.010456,-0.001775,-18.0,-2.06,-41.18,1b
2019-07-15_160312:840,-0.463654,-0.009125,-0.375214,-0.013216,0.008533,-0.0014089999999999999,-18.0,-3.18,-40.369999,1b
2019-07-15_160312:860,-0.48858599999999996,0.007111,-0.410797,-0.014619,0.00655,-0.000463,-18.0,-3.18,-40.369999,1b
2019-07-15_160312:880,-0.47689799999999993,0.024902,-0.40063499999999996,-0.017396000000000002,0.012043,0.003963,-18.0,-3.18,-40.369999,1b
2019-07-15_160312:900,-0.469757,0.023895,-0.477905,-0.018343,0.00713,0.0065569999999999995,-12.56,-3.87,-40.369999,1b
2019-07-15_160312:920,-0.389435,0.034058,-0.429108,-0.020723,0.009113,0.006007,-12.56,-3.87,-40.369999,1b
2019-07-15_160312:940,-0.339111,0.035583,-0.416901,-0.019411,0.012653,0.006129,-19.059998999999998,-4.25,-41.18,1b
2019-07-15_160312:960,-0.32486,0.035583,-0.40063499999999996,-0.016328,0.014362,0.001674,-19.059998999999998,-4.25,-41.18,1b
2019-07-15_160312:980,-0.306061,0.036072,-0.417908,-0.012147,0.00713,-0.008031,-19.059998999999998,-4.25,-41.18,1b
2019-07-15_160313:000,-0.304535,0.05438200000000001,-0.404175,-0.008119,-0.000683,-0.012151,-18.75,-4.68,-39.18,1b
2019-07-15_160313:020,-0.317749,0.053375,-0.421967,-0.002565,-0.007977,-0.010289,-18.75,-4.68,-39.18,1b
2019-07-15_160313:040,-0.316223,0.053863999999999995,-0.407227,0.001402,-0.009686,-0.011754,-18.75,-6.18,-39.5,1b
2019-07-15_160313:060,-0.320282,0.058441,-0.397583,0.0050030000000000005,-0.007305,-0.011815,-18.75,-6.18,-39.5,1b
2019-07-15_160313:080,-0.309113,0.053863999999999995,-0.384857,0.007597,-0.002728,-0.00678,-18.75,-6.18,-39.5,1b
2019-07-15_160313:100,-0.303528,0.045226999999999996,-0.358429,0.008634999999999999,0.002094,0.000606,-18.370001000000002,-5.75,-39.5,1b
2019-07-15_160313:120,-0.29284699999999997,0.036591000000000005,-0.33758499999999997,0.009764,0.007404000000000001,0.005763,-18.370001000000002,-5.75,-39.5,1b
2019-07-15_160313:140,-0.29232800000000003,0.027435,-0.311127,0.009917,0.010731000000000001,0.00735,-18.5,-6.5,-40.0,1b
2019-07-15_160313:160,-0.29995700000000003,0.024384,-0.29742399999999997,0.010893,0.011127,0.005733,-18.5,-6.5,-40.0,1b
2019-07-15_160313:180,-0.303528,0.026427999999999997,-0.277069,0.011168,0.01012,0.0025280000000000003,-18.5,-6.5,-40.0,1b
2019-07-15_160313:200,-0.304535,0.028442000000000002,-0.263855,0.011321,0.007679000000000001,0.00085,-18.5,-5.37,-40.5,1b
2019-07-15_160313:220,-0.31012,0.030487,-0.25827,0.011321,0.003406,0.000392,-18.5,-5.37,-40.5,1b
2019-07-15_160313:240,-0.316742,0.036072,-0.256226,0.010251999999999999,-0.001995,0.001277,-19.18,-5.37,-39.560001,1b
2019-07-15_160313:260,-0.316742,0.037108999999999996,-0.256744,0.009062,-0.0071530000000000005,0.003078,-19.18,-5.37,-39.560001,1b
2019-07-15_160313:280,-0.327911,0.040649,-0.264374,0.0073230000000000005,-0.011608,0.004481000000000001,-19.18,-5.37,-39.560001,1b
2019-07-15_160313:300,-0.33300799999999997,0.041168,-0.264862,0.006468000000000001,-0.012095999999999999,0.005,-18.5,-4.68,-39.560001,1b
2019-07-15_160313:320,-0.352325,0.040161,-0.265381,0.003996,-0.008038,0.007594,-18.5,-4.68,-39.560001,1b
2019-07-15_160313:340,-0.3508,0.040649,-0.264862,0.002287,-0.003307,0.009273,-18.5,-5.0,-39.25,1b
2019-07-15_160313:360,-0.361481,0.036591000000000005,-0.274017,0.000487,-0.003307,0.009547,-18.5,-5.0,-39.25,1b
2019-07-15_160313:380,-0.374695,0.034546,-0.275543,-0.000825,-0.003368,0.008388,-18.5,-5.0,-39.25,1b
2019-07-15_160313:400,-0.384857,0.029480000000000003,-0.302002,-0.001558,-0.004314,0.0061600000000000005,-17.370001000000002,-4.68,-39.5,1b
2019-07-15_160313:420,-0.40823400000000004,0.029480000000000003,-0.335022,-0.0029620000000000002,-0.007183,0.0036270000000000004,-17.370001000000002,-4.68,-39.5,1b
2019-07-15_160313:440,-0.425018,0.036072,-0.35791,-0.005006,-0.00758,0.005092,-24.68,-3.87,-39.5,1b
2019-07-15_160313:460,-0.431122,0.031006,-0.374176,-0.006593000000000001,-0.007427,0.007411,-24.68,-3.87,-39.5,1b
2019-07-15_160313:480,-0.441284,0.025421,-0.381805,-0.008058,-0.0069700000000000005,0.006404000000000001,-24.68,-3.87,-39.5,1b
2019-07-15_160313:500,-0.43621800000000005,0.017792,-0.391479,-0.008302,-0.004528,0.00674,-17.0,-4.25,-38.75,1b
2019-07-15_160313:520,-0.446899,0.008118,-0.388916,-0.007661,-0.00404,0.00674,-17.0,-4.25,-38.75,1b
2019-07-15_160313:540,-0.48754899999999995,-0.022858,-0.435699,-0.004579,-0.005901,0.0017350000000000002,-17.0,-5.0,-39.5,1b
2019-07-15_160313:560,-0.408752,-0.022369,-0.417908,-0.002046,-0.002575,-0.005589,-17.0,-5.0,-39.5,1b
2019-07-15_160313:580,-0.429108,-0.027954000000000003,-0.475372,0.001158,-0.009625,-0.008428,-17.0,-5.0,-39.5,1b
2019-07-15_160313:600,-0.33605999999999997,-0.032532,-0.43823199999999995,0.002867,-0.004376,-0.008702,-17.0,-5.75,-39.5,1b
2019-07-15_160313:620,-0.263336,-0.035065,-0.411804,0.004942,0.003803,-0.008245,-17.0,-5.75,-39.5,1b
2019-07-15_160313:640,-0.274536,-0.021851,-0.41586300000000004,0.0042710000000000005,0.003101,-0.002385,-16.370001000000002,-5.75,-38.75,1b
2019-07-15_160313:660,-0.30249000000000004,-0.026427999999999997,-0.440796,0.002959,-0.00285,0.003169,-16.370001000000002,-5.75,-38.75,1b
2019-07-15_160313:680,-0.308075,-0.040649,-0.404694,-9.300000000000001e-05,-0.006115,-5e-06,-16.370001000000002,-5.75,-38.75,1b
2019-07-15_160313:700,-0.325378,-0.037108999999999996,-0.410278,-0.000185,-0.005566,-0.002934,-16.68,-5.37,-40.369999,1b
2019-07-15_160313:720,-0.324371,-0.036072,-0.395538,-0.000642,-0.002972,-0.0033009999999999997,-16.68,-5.37,-40.369999,1b
2019-07-15_160313:740,-0.330963,-0.037598,-0.388916,-0.000459,-0.001873,-0.004765999999999999,-17.0,-5.75,-39.18,1b
2019-07-15_160313:760,-0.314697,-0.031494,-0.372162,-0.000917,5e-05,-0.011295999999999999,-17.0,-5.75,-39.18,1b
2019-07-15_160313:780,-0.318756,-0.022369,-0.35943600000000003,-0.000246,0.001697,-0.01209,-17.0,-5.75,-39.18,1b
2019-07-15_160313:800,-0.327423,-0.021332,-0.34317,-9.300000000000001e-05,0.002888,-0.01267,-16.370001000000002,-5.75,-39.5,1b
2019-07-15_160313:820,-0.322845,-0.019318000000000002,-0.320801,0.0017989999999999998,0.010059,-0.016057,-16.370001000000002,-5.75,-39.5,1b
2019-07-15_160313:840,-0.31012,-0.011687999999999999,-0.30654899999999996,0.002409,0.011188,-0.016728,-16.370001000000002,-5.75,-39.5,1b
2019-07-15_160313:860,-0.309113,-0.008636,-0.29232800000000003,0.00421,0.011768,-0.01685,-15.56,-6.5,-38.369999,1b
2019-07-15_160313:880,-0.29895,-0.0030210000000000002,-0.275055,0.0042710000000000005,0.009937,-0.015599000000000002,-15.56,-6.5,-38.369999,1b
2019-07-15_160313:900,-0.297913,0.000488,-0.268433,0.00421,0.008411,-0.014469999999999998,-16.370001000000002,-6.5,-38.369999,1b
2019-07-15_160313:920,-0.308594,0.007111,-0.267426,0.003081,0.002491,-0.009373999999999999,-16.370001000000002,-6.5,-38.369999,1b
2019-07-15_160313:940,-0.333496,0.007599,-0.277588,0.001891,0.001301,-0.007115000000000001,-16.0,-6.5,-40.0,1b
2019-07-15_160313:960,-0.34368899999999997,0.002014,-0.277588,-3.2e-05,0.0021550000000000002,-0.0025989999999999997,-16.0,-6.5,-40.0,1b
2019-07-15_160313:980,-0.323853,-0.004547,-0.277588,-0.002565,0.00774,-0.000798,-16.0,-6.5,-40.0,1b
2019-07-15_160314:000,-0.315704,-0.008636,-0.281647,-0.0028399999999999996,0.009052,-0.001256,-16.370001000000002,-6.5,-40.0,1b
2019-07-15_160314:020,-0.3396,-0.008118,-0.29943800000000004,-0.0032670000000000004,0.006214,-0.0023239999999999997,-16.370001000000002,-6.5,-40.0,1b
2019-07-15_160314:040,-0.37011700000000003,0.001495,-0.307587,-0.003084,0.006336,-0.001866,-16.370001000000002,-6.5,-40.0,1b
2019-07-15_160314:060,-0.426544,0.012695,-0.347748,-0.003542,0.006611,0.002315,-16.68,-6.5,-39.5,1b
2019-07-15_160314:080,-0.427063,0.020325,-0.354858,-0.004915,0.007526000000000001,0.004146,-16.68,-6.5,-39.5,1b
2019-07-15_160314:100,-0.402161,0.032013,-0.36044299999999996,-0.008058,0.009327,0.008662000000000001,-17.0,-7.18,-40.0,1b
2019-07-15_160314:120,-0.404694,0.043213,-0.369598,-0.011751000000000001,0.011188,0.012324,-17.0,-7.18,-40.0,1b
2019-07-15_160314:140,-0.49316400000000005,0.049316000000000006,-0.416382,-0.015931999999999998,0.007984,0.015040000000000001,-17.870001000000002,-6.87,-40.0,1b
2019-07-15_160314:160,-0.459595,0.068115,-0.399597,-0.020387,0.0038950000000000005,0.019832,-17.870001000000002,-6.87,-40.0,1b
2019-07-15_160314:180,-0.459595,0.067596,-0.426544,-0.027162000000000002,5e-05,0.034358,-17.870001000000002,-6.87,-40.0,1b
2019-07-15_160314:200,-0.42401099999999997,0.065063,-0.447388,-0.028078,-0.0023309999999999997,0.035731,-18.18,-7.18,-39.18,1b
2019-07-15_160314:220,-0.40774499999999997,0.07421900000000001,-0.43621800000000005,-0.028901999999999997,-0.0031850000000000003,0.027919,-18.18,-7.18,-39.18,1b
2019-07-15_160314:240,-0.396545,0.085388,-0.40976,-0.027375999999999998,0.000446,0.024745,-18.18,-7.18,-39.18,1b
2019-07-15_160314:260,-0.396545,0.091003,-0.391479,-0.024721,0.007404000000000001,0.019038,-18.18,-8.37,-38.369999,1b
2019-07-15_160314:280,-0.34317,0.09963999999999999,-0.36554000000000003,-0.021394,0.007069,0.015375999999999999,-18.18,-8.37,-38.369999,1b
2019-07-15_160314:300,-0.328949,0.101685,-0.34674099999999997,-0.017519,0.00301,0.012782,-18.870001000000002,-8.68,-38.369999,1b
2019-07-15_160314:320,-0.31723,0.10318,-0.341644,-0.014009,-0.0031850000000000003,0.009852,-18.870001000000002,-8.68,-38.369999,1b
2019-07-15_160314:340,-0.307068,0.105225,-0.33758499999999997,-0.01169,-0.007916,0.012263,-18.870001000000002,-8.68,-38.369999,1b
2019-07-15_160314:360,-0.296906,0.102173,-0.340118,-0.009767,-0.012402,0.021144,-18.5,-9.0,-38.369999,1b
2019-07-15_160314:380,-0.290283,0.090485,-0.326385,-0.010561,-0.014599,0.030238,-18.5,-9.0,-38.369999,1b
2019-07-15_160314:400,-0.28418000000000004,0.082336,-0.32486,-0.012819,-0.015788999999999997,0.036463999999999996,-17.370001000000002,-8.68,-40.0,1b
2019-07-15_160314:420,-0.277588,0.069641,-0.310638,-0.016603,-0.01585,0.038478,-17.370001000000002,-8.68,-40.0,1b
2019-07-15_160314:440,-0.29538000000000003,0.05438200000000001,-0.312653,-0.019075,-0.016796000000000002,0.037471,-17.370001000000002,-8.68,-40.0,1b
2019-07-15_160314:460,-0.315704,0.049316000000000006,-0.307068,-0.020845,-0.017986000000000002,0.032557,-17.75,-9.37,-39.18,1b
2019-07-15_160314:480,-0.333496,0.045745999999999995,-0.298431,-0.022584,-0.017407,0.028926,-17.75,-9.37,-39.18,1b
2019-07-15_160314:500,-0.329437,0.041687,-0.28979499999999997,-0.02292,-0.014721000000000001,0.028834,-17.75,-8.68,-38.75,1b
2019-07-15_160314:520,-0.323334,0.038116000000000004,-0.284698,-0.023163999999999997,-0.013226,0.028651,-17.75,-8.68,-38.75,1b
2019-07-15_160314:540,-0.318268,0.03302,-0.28875700000000004,-0.022371000000000002,-0.014537999999999999,0.026973,-17.75,-8.68,-38.75,1b
2019-07-15_160314:560,-0.303528,0.031006,-0.282166,-0.021577000000000002,-0.016735,0.024592,-16.68,-9.75,-39.18,1b
2019-07-15_160314:580,-0.318268,0.034546,-0.293854,-0.020387,-0.019053999999999998,0.02267,-16.68,-9.75,-39.18,1b
2019-07-15_160314:600,-0.334534,0.039124,-0.29895,-0.018281,-0.018108000000000003,0.01855,-16.370001000000002,-10.18,-39.18,1b
2019-07-15_160314:620,-0.337067,0.044219999999999995,-0.308075,-0.017213,-0.017193,0.017879,-16.370001000000002,-10.18,-39.18,1b
2019-07-15_160314:640,-0.338074,0.048798,-0.319275,-0.014619,-0.015788999999999997,0.016291999999999997,-16.370001000000002,-10.18,-39.18,1b
2019-07-15_160314:660,-0.3508,0.047272,-0.321808,-0.013765000000000001,-0.015453,0.015437000000000001,-16.370001000000002,-10.5,-39.18,1b
2019-07-15_160314:680,-0.367584,0.038635,-0.34368899999999997,-0.011751000000000001,-0.01289,0.014369,-16.370001000000002,-10.5,-39.18,1b
2019-07-15_160314:700,-0.366058,0.031006,-0.367584,-0.008577,-0.011334,0.011195,-15.56,-10.18,-40.0,1b
2019-07-15_160314:720,-0.390442,0.029480000000000003,-0.38028,-0.005464,-0.010020999999999999,0.007197,-15.56,-10.18,-40.0,1b
2019-07-15_160314:740,-0.385864,0.034058,-0.381805,-0.0023510000000000002,-0.006695,0.00561,-15.56,-10.18,-40.0,1b
2019-07-15_160314:760,-0.383331,0.03302,-0.397064,-0.000642,-0.004253,0.004542,-14.87,-11.06,-40.060001,1b
2019-07-15_160314:780,-0.396545,0.029480000000000003,-0.401642,9e-05,-0.0021780000000000002,0.0036270000000000004,-14.87,-11.06,-40.060001,1b
2019-07-15_160314:800,-0.445862,0.015747,-0.41943400000000003,0.002135,-0.00037799999999999997,0.00207,-8.68,-11.5,-39.25,1b
2019-07-15_160314:820,-0.453003,0.009125,-0.41333000000000003,0.004393,0.0027660000000000002,-0.00147,-8.68,-11.5,-39.25,1b
2019-07-15_160314:840,-0.447906,0.002014,-0.43011499999999997,0.007201000000000001,0.004139,-0.00504,-8.68,-11.5,-39.25,1b
2019-07-15_160314:860,-0.41943400000000003,-0.0035399999999999997,-0.472321,0.009917,0.000843,-0.006719,-15.56,-9.68,-39.560001,1b
2019-07-15_160314:880,-0.38739,-0.004547,-0.46060200000000007,0.011106999999999999,0.00124,-0.008763,-15.56,-9.68,-39.560001,1b
2019-07-15_160314:900,-0.35943600000000003,-0.001495,-0.45654300000000003,0.009917,0.0032840000000000005,-0.010472,-15.18,-10.75,-39.25,1b
2019-07-15_160314:920,-0.34875500000000004,0.000488,-0.43927,0.006712,0.006947,-0.007359999999999999,-15.18,-10.75,-39.25,1b
2019-07-15_160314:940,-0.313171,-0.007599,-0.398071,0.00479,0.012104,-0.005376,-15.18,-10.75,-39.25,1b
2019-07-15_160314:960,-0.304535,-0.019806,-0.379272,0.00247,0.013386000000000002,-0.010076,-14.87,-10.06,-38.869999,1b
2019-07-15_160314:980,-0.256744,-0.01828,-0.363007,0.001036,0.009937,-0.012943999999999999,-14.87,-10.06,-38.869999,1b
2019-07-15_160315:000,-0.264862,-0.018799,-0.36248800000000003,0.001341,0.0032229999999999997,-0.010228000000000001,-15.18,-9.68,-38.869999,1b
2019-07-15_160315:020,-0.281647,-0.016266,-0.368591,0.0016769999999999999,-0.00108,-0.009281999999999999,-15.18,-9.68,-38.869999,1b
2019-07-15_160315:040,-0.29284699999999997,-0.013702,-0.381317,0.002013,-0.0037649999999999997,-0.009281999999999999,-15.18,-9.68,-38.869999,1b
2019-07-15_160315:060,-0.286224,-0.009644,-0.375702,0.003264,-0.004772,-0.008214,-14.5,-10.06,-37.25,1b
2019-07-15_160315:080,-0.28927600000000003,-0.001495,-0.375214,0.003752,-0.00465,-0.007756,-14.5,-10.06,-37.25,1b
2019-07-15_160315:100,-0.291321,0.004547,-0.369598,0.003325,-0.00404,-0.006841,-14.18,-10.06,-38.5,1b
2019-07-15_160315:120,-0.305542,0.011687999999999999,-0.352325,0.000304,-0.000225,-0.004033,-14.18,-10.06,-38.5,1b
2019-07-15_160315:140,-0.310638,0.010162000000000001,-0.344696,0.000304,-0.000225,-0.004033,-14.18,-10.06,-38.5,1b
2019-07-15_160315:160,-0.31012,0.0035399999999999997,-0.33605999999999997,-0.001558,0.001301,-0.002568,-13.75,-10.06,-37.68,1b
2019-07-15_160315:180,-0.309113,0.0,-0.322327,-0.001314,0.002369,-0.002721,-13.75,-10.06,-37.68,1b
2019-07-15_160315:200,-0.305054,0.0030210000000000002,-0.316742,-0.001955,0.000782,-0.002385,-14.18,-9.68,-38.869999,1b
2019-07-15_160315:220,-0.31723,0.005065999999999999,-0.310638,-0.0028399999999999996,-0.001598,-0.000401,-14.18,-9.68,-38.869999,1b
2019-07-15_160315:240,-0.311646,0.007599,-0.305542,-0.003999,-0.002514,0.001521,-14.18,-9.68,-38.869999,1b
2019-07-15_160315:260,-0.312653,0.006592,-0.311127,-0.006044,-0.0014759999999999999,0.002955,-13.75,-10.06,-38.5,1b
2019-07-15_160315:280,-0.318268,0.001007,-0.319794,-0.007906,-0.001263,0.003505,-13.75,-10.06,-38.5,1b
2019-07-15_160315:300,-0.319794,0.001007,-0.320282,-0.009309,-0.0023309999999999997,0.0042369999999999994,-14.87,-9.68,-37.68,1b
2019-07-15_160315:320,-0.349274,0.0,-0.33197,-0.011079,-0.004101,0.0051530000000000005,-14.87,-9.68,-37.68,1b
2019-07-15_160315:340,-0.347748,0.0,-0.327911,-0.01288,-0.0037649999999999997,0.0065569999999999995,-14.87,-9.68,-37.68,1b
2019-07-15_160315:360,-0.371643,-0.001007,-0.32843,-0.014802000000000001,-0.002392,0.007533,-13.75,-9.68,-37.68,1b
2019-07-15_160315:380,-0.385376,-0.002014,-0.328949,-0.016481,0.00035499999999999996,0.007014,-13.75,-9.68,-37.68,1b
2019-07-15_160315:400,-0.374695,0.000488,-0.326904,-0.018007,0.002552,0.006465,-14.18,-10.37,-38.869999,1b
2019-07-15_160315:420,-0.390442,-0.000488,-0.341125,-0.018861000000000003,0.002552,0.007014,-14.18,-10.37,-38.869999,1b
2019-07-15_160315:440,-0.401123,-0.000488,-0.35436999999999996,-0.019319,0.003406,0.007197,-14.18,-10.37,-38.869999,1b
2019-07-15_160315:460,-0.389954,0.0025329999999999997,-0.36554000000000003,-0.018465000000000002,0.006397,0.00561,-13.0,-10.75,-36.869999,1b
2019-07-15_160315:480,-0.384338,0.007599,-0.368073,-0.018526,0.007526000000000001,0.004878,-13.0,-10.75,-36.869999,1b
2019-07-15_160315:500,-0.384857,0.018799,-0.36911,-0.018526,0.009724,0.004603,-14.87,-11.87,-38.869999,1b
2019-07-15_160315:520,-0.414337,0.024902,-0.378754,-0.01938,0.009724,0.0068920000000000006,-14.87,-11.87,-38.869999,1b
2019-07-15_160315:540,-0.42605600000000005,0.029480000000000003,-0.391479,-0.020845,0.008015000000000001,0.011043,-14.87,-11.87,-38.869999,1b
2019-07-15_160315:560,-0.44027700000000003,0.041687,-0.392487,-0.02231,0.010242,0.016687999999999998,-14.18,-12.25,-38.060001,1b
2019-07-15_160315:580,-0.42605600000000005,0.045226999999999996,-0.43011499999999997,-0.022584,0.00774,0.018153,-14.18,-12.25,-38.060001,1b
2019-07-15_160315:600,-0.37011700000000003,0.065063,-0.409271,-0.02469,0.005604,0.017695,-14.18,-12.56,-35.68,1b
2019-07-15_160315:620,-0.35131799999999996,0.066589,-0.401642,-0.024904,0.005665,0.019801,-14.18,-12.56,-35.68,1b
2019-07-15_160315:640,-0.330963,0.068115,-0.378265,-0.024049,0.007862000000000001,0.017146,-14.18,-12.56,-35.68,1b
2019-07-15_160315:660,-0.347748,0.06253099999999999,-0.396545,-0.021974,0.0032840000000000005,0.007014,-14.87,-12.56,-35.68,1b
2019-07-15_160315:680,-0.33197,0.064545,-0.388428,-0.018251,-0.004131,0.00027,-14.87,-12.56,-35.68,1b
2019-07-15_160315:700,-0.361481,0.063538,-0.388916,-0.012208,-0.009502,-0.001775,-15.18,-13.0,-34.869999,1b
2019-07-15_160315:720,-0.347748,0.066589,-0.37265,-0.006135,-0.008495,-0.0048270000000000006,-15.18,-13.0,-34.869999,1b
2019-07-15_160315:740,-0.329437,0.073212,-0.364532,-0.001039,-0.0055049999999999995,-0.004582,-15.18,-13.0,-34.869999,1b
2019-07-15_160315:760,-0.316223,0.07421900000000001,-0.35943600000000003,0.002226,-0.00465,0.0024059999999999997,-14.5,-13.37,-35.25,1b
2019-07-15_160315:780,-0.293335,0.070648,-0.331482,0.003691,-0.003857,0.011531,-14.5,-13.37,-35.25,1b
2019-07-15_160315:800,-0.291321,0.06405599999999999,-0.321808,0.003264,-0.002728,0.015956,-14.18,-13.0,-34.869999,1b
2019-07-15_160315:820,-0.291321,0.056915,-0.30249000000000004,0.002531,-0.001782,0.015559,-14.18,-13.0,-34.869999,1b
2019-07-15_160315:840,-0.29486100000000004,0.048279,-0.29538000000000003,0.001433,-0.001843,0.014186,-14.18,-13.0,-34.869999,1b
2019-07-15_160315:860,-0.305054,0.041687,-0.28418000000000004,0.001433,-0.0027890000000000002,0.011531,-13.75,-13.37,-33.68,1b
2019-07-15_160315:880,-0.318268,0.039642000000000004,-0.278107,0.000884,-0.003704,0.009334,-13.75,-13.37,-33.68,1b
2019-07-15_160315:900,-0.319275,0.038116000000000004,-0.278107,0.0014939999999999999,-0.0037649999999999997,0.008081999999999999,-13.75,-12.56,-34.5,1b
2019-07-15_160315:920,-0.319794,0.042175,-0.285706,0.001891,-0.004833,0.006404000000000001,-13.75,-12.56,-34.5,1b
2019-07-15_160315:940,-0.322327,0.044219999999999995,-0.29538000000000003,0.00247,-0.007977,0.004817,-13.75,-12.56,-34.5,1b
2019-07-15_160315:960,-0.334015,0.047791,-0.30249000000000004,0.003355,-0.010418,0.003871,-13.0,-13.37,-34.060001,1b
2019-07-15_160315:980,-0.35180700000000004,0.051330999999999995,-0.306061,0.0038740000000000003,-0.011547,0.002833,-13.0,-13.37,-34.060001,1b
2019-07-15_160316:000,-0.367584,0.05438200000000001,-0.313171,0.0034170000000000003,-0.009807999999999999,0.00323,-13.0,-11.5,-34.869999,1b
2019-07-15_160316:020,-0.365021,0.051330999999999995,-0.316223,0.0036609999999999998,-0.004497999999999999,0.004146,-13.0,-11.5,-34.869999,1b
2019-07-15_160316:040,-0.364014,0.046752999999999996,-0.325378,0.0036,0.00038500000000000003,0.00265,-13.0,-11.5,-34.869999,1b
2019-07-15_160316:060,-0.352844,0.042175,-0.32843,0.0036,0.003101,-0.000463,-13.0,-11.5,-34.5,1b
2019-07-15_160316:080,-0.345215,0.042175,-0.33758499999999997,0.004149,0.004291,-0.002843,-13.0,-11.5,-34.5,1b
2019-07-15_160316:100,-0.353851,0.041168,-0.361969,0.0061329999999999996,0.0038950000000000005,-0.004918,-12.75,-11.5,-34.5,1b
2019-07-15_160316:120,-0.379791,0.040161,-0.374695,0.007842,0.002216,-0.007817000000000001,-12.75,-11.5,-34.5,1b
2019-07-15_160316:140,-0.37011700000000003,0.040649,-0.382812,0.009642,0.003437,-0.009099,-12.75,-11.5,-34.5,1b
2019-07-15_160316:160,-0.37011700000000003,0.037598,-0.391968,0.010251999999999999,0.0053289999999999995,-0.008031,-12.37,-11.5,-35.25,1b
2019-07-15_160316:180,-0.41995200000000005,0.031006,-0.399109,0.010313,0.008076,-0.007115000000000001,-12.37,-11.5,-35.25,1b
2019-07-15_160316:200,-0.461121,0.012177,-0.43927,0.010527,0.005695,-0.010411,-12.37,-11.06,-34.060001,1b
2019-07-15_160316:220,-0.41995200000000005,0.014740000000000001,-0.412811,0.011229000000000001,0.007220999999999999,-0.016666999999999998,-12.37,-11.06,-34.060001,1b
2019-07-15_160316:240,-0.431641,0.0025329999999999997,-0.46417200000000003,0.012053,0.004414,-0.019902,-12.37,-11.06,-34.060001,1b
2019-07-15_160316:260,-0.425537,-0.0030210000000000002,-0.45605500000000004,0.012816,0.003498,-0.02097,-12.37,-10.75,-33.25,1b
2019-07-15_160316:280,-0.388916,-0.015228,-0.438751,0.012572,0.004475,-0.018772999999999998,-12.37,-10.75,-33.25,1b
2019-07-15_160316:300,-0.354858,-0.020844,-0.398071,0.010771,0.009266,-0.013280000000000002,-0.25,-10.37,-32.5,1b
2019-07-15_160316:320,-0.34368899999999997,-0.028961,-0.386902,0.009642,0.011463,-0.0076950000000000005,-0.25,-10.37,-32.5,1b
2019-07-15_160316:340,-0.321808,-0.037108999999999996,-0.360962,0.008177,0.008747,-0.007237,-0.25,-10.37,-32.5,1b
2019-07-15_160316:360,-0.330963,-0.03302,-0.35436999999999996,0.007109000000000001,0.0016359999999999999,-0.008153,-11.68,-10.5,-33.68,1b
2019-07-15_160316:380,-0.341125,-0.032013,-0.353851,0.006651000000000001,-0.002239,-0.007634,-11.68,-10.5,-33.68,1b
2019-07-15_160316:400,-0.324371,-0.025421,-0.350281,0.006072,-0.002911,-0.009434999999999999,-11.0,-10.37,-34.060001,1b
2019-07-15_160316:420,-0.28979499999999997,-0.019318000000000002,-0.345215,0.005461,-0.003979,-0.012425,-11.0,-10.37,-34.060001,1b
2019-07-15_160316:440,-0.274017,-0.010162000000000001,-0.341125,0.004881,-0.005261,-0.016271,-11.0,-10.37,-34.060001,1b
2019-07-15_160316:460,-0.267426,-0.000488,-0.338074,0.004393,-0.007305,-0.020452,-11.0,-10.75,-34.5,1b
2019-07-15_160316:480,-0.26944,0.007111,-0.32843,0.003478,-0.009411,-0.021886000000000003,-11.0,-10.75,-34.5,1b
2019-07-15_160316:500,-0.283173,0.008636,-0.325378,0.003325,-0.010815,-0.020848,-11.25,-10.37,-34.060001,1b
2019-07-15_160316:520,-0.316742,0.009125,-0.326385,0.002562,-0.011883,-0.017308,-11.25,-10.37,-34.060001,1b
2019-07-15_160316:540,-0.324371,0.006592,-0.324371,0.002074,-0.010418,-0.013402,-11.25,-10.37,-34.060001,1b
2019-07-15_160316:560,-0.323853,0.004059,-0.322845,0.00183,-0.008373,-0.011295999999999999,-9.75,-10.06,-33.68,1b
2019-07-15_160316:580,-0.322845,0.0055850000000000006,-0.32486,0.001158,-0.0071530000000000005,-0.009038,-9.75,-10.06,-33.68,1b
2019-07-15_160316:600,-0.305542,0.008118,-0.316223,2.8999999999999997e-05,-0.00758,-0.006229999999999999,-8.75,-9.68,-34.060001,1b
2019-07-15_160316:620,-0.307068,0.012177,-0.315704,-0.002168,-0.0062369999999999995,-0.002995,-8.75,-9.68,-34.060001,1b
2019-07-15_160316:640,-0.32843,0.012695,-0.324371,-0.0049759999999999995,-0.003979,8.7e-05,-8.75,-9.68,-34.060001,1b
2019-07-15_160316:660,-0.330475,0.011687999999999999,-0.33300799999999997,-0.008424,-0.001385,0.002254,-8.0,-9.68,-33.25,1b
2019-07-15_160316:680,-0.34317,0.008118,-0.33605999999999997,-0.012025,0.00035499999999999996,0.004207,-8.0,-9.68,-33.25,1b
2019-07-15_160316:700,-0.35791,0.0030210000000000002,-0.33197,-0.014863999999999999,0.001301,0.005397,-9.06,-9.25,-33.0,1b
2019-07-15_160316:720,-0.395538,-0.000488,-0.334015,-0.016817,0.004566,0.005549,-9.06,-9.25,-33.0,1b
2019-07-15_160316:740,-0.401123,-0.0025329999999999997,-0.33758499999999997,-0.017946,0.009052,0.005092,-9.06,-9.25,-33.0,1b
2019-07-15_160316:760,-0.388428,-0.004059,-0.33300799999999997,-0.017793,0.012440000000000001,0.004634,-7.25,-10.37,-33.68,1b
2019-07-15_160316:780,-0.375214,-0.001007,-0.329437,-0.017152,0.013233000000000002,0.004634,-7.25,-10.37,-33.68,1b
2019-07-15_160316:800,-0.375214,0.0025329999999999997,-0.344177,-0.016481,0.012440000000000001,0.005031,-7.56,-11.18,-33.68,1b
2019-07-15_160316:820,-0.376221,0.007599,-0.353851,-0.015871,0.011646,0.005092,-7.56,-11.18,-33.68,1b
2019-07-15_160316:840,-0.401642,0.020325,-0.365021,-0.015413,0.012379000000000001,0.004298,-7.56,-11.18,-33.68,1b
2019-07-15_160316:860,-0.44281000000000004,0.021332,-0.39502,-0.015290999999999999,0.012165,0.004207,-8.37,-11.18,-31.75,1b
2019-07-15_160316:880,-0.43011499999999997,0.024902,-0.38739,-0.015137999999999999,0.009724,0.003901,-8.37,-11.18,-31.75,1b
2019-07-15_160316:900,-0.438751,0.030487,-0.401642,-0.014740999999999999,0.009937,0.004756,-8.0,-12.0,-32.060001,1b
2019-07-15_160316:920,-0.43670699999999996,0.034058,-0.41995200000000005,-0.012361,0.008076,0.005824,-8.0,-12.0,-32.060001,1b
2019-07-15_160316:940,-0.401123,0.048798,-0.40570100000000003,-0.010957,0.005268,0.004817,-8.0,-12.0,-32.060001,1b
2019-07-15_160316:960,-0.367584,0.055389,-0.39502,-0.00937,0.008869,0.007136,-8.37,-11.56,-31.25,1b
2019-07-15_160316:980,-0.341125,0.05996699999999999,-0.368591,-0.007509,0.013447,0.008815,-8.37,-11.56,-31.25,1b
2019-07-15_160317:000,-0.320801,0.058441,-0.376221,-0.004335,0.010456,0.001338,-8.0,-12.0,-32.5,1b
2019-07-15_160317:020,-0.326904,0.059479,-0.354858,-0.0033280000000000002,0.007404000000000001,-0.00147,-8.0,-12.0,-32.5,1b
2019-07-15_160317:040,-0.364014,0.051849,-0.37265,0.002867,-0.001141,-0.008611,-8.0,-12.0,-32.5,1b
2019-07-15_160317:060,-0.350281,0.051849,-0.366058,0.005461,-0.001385,-0.012943999999999999,-8.37,-12.68,-32.060001,1b
2019-07-15_160317:080,-0.340118,0.062012,-0.364532,0.012816,-0.001141,-0.020787,-8.37,-12.68,-32.060001,1b
2019-07-15_160317:100,-0.326904,0.06405599999999999,-0.363007,0.016478,-0.001934,-0.018926,-8.0,-11.56,-33.0,1b
2019-07-15_160317:120,-0.317749,0.065582,-0.347229,0.018065,-0.001537,-0.014012,-8.0,-11.56,-33.0,1b
2019-07-15_160317:140,-0.314697,0.056915,-0.33197,0.019469,-0.000683,-0.008884999999999999,-8.0,-11.56,-33.0,1b
2019-07-15_160317:160,-0.316742,0.053375,-0.326385,0.020537,0.000843,-0.007481999999999999,-7.56,-11.56,-33.0,1b
2019-07-15_160317:180,-0.33197,0.043213,-0.308075,0.021788,0.00182,-0.009496,-7.56,-11.56,-33.0,1b
2019-07-15_160317:200,-0.33197,0.040649,-0.296387,0.023985,0.002216,-0.011295999999999999,-7.25,-10.87,-32.5,1b
2019-07-15_160317:220,-0.330963,0.036591000000000005,-0.28064,0.025328,0.001179,-0.012792,-7.25,-10.87,-32.5,1b
2019-07-15_160317:240,-0.330475,0.037598,-0.272491,0.026366000000000004,-0.0007740000000000001,-0.013555000000000001,-7.25,-10.87,-32.5,1b
2019-07-15_160317:260,-0.327423,0.035583,-0.265381,0.027250999999999997,-0.00285,-0.014653,-6.56,-10.5,-33.0,1b
2019-07-15_160317:280,-0.337067,0.036072,-0.264862,0.027495,-0.006298,-0.017064,-6.56,-10.5,-33.0,1b
2019-07-15_160317:300,-0.34368899999999997,0.037108999999999996,-0.267426,0.027495,-0.008831,-0.018376,-7.0,-9.0,-34.060001,1b
2019-07-15_160317:320,-0.34875500000000004,0.041168,-0.287231,0.027556,-0.007885,-0.019962999999999998,-7.0,-9.0,-34.060001,1b
2019-07-15_160317:340,-0.347748,0.041687,-0.293854,0.027219999999999998,-0.0060539999999999995,-0.021306,-7.0,-9.0,-34.060001,1b
2019-07-15_160317:360,-0.345215,0.046752999999999996,-0.29742399999999997,0.026579000000000002,-0.003704,-0.021886000000000003,-5.75,-8.37,-33.25,1b
2019-07-15_160317:380,-0.353851,0.049316000000000006,-0.304016,0.025328,-0.003704,-0.022313,-5.75,-8.37,-33.25,1b
2019-07-15_160317:400,-0.347229,0.05285599999999999,-0.308594,0.024382,-0.004711,-0.022954,-5.5,-8.06,-33.68,1b
2019-07-15_160317:420,-0.353333,0.05285599999999999,-0.310638,0.023802,-0.0055049999999999995,-0.023503,-5.5,-8.06,-33.68,1b
2019-07-15_160317:440,-0.430634,0.058960000000000005,-0.326904,0.023589,-0.001995,-0.023015,-5.5,-8.06,-33.68,1b
2019-07-15_160317:460,-0.431122,0.059479,-0.33300799999999997,0.023528,0.003437,-0.02097,-4.68,-6.25,-33.68,1b
2019-07-15_160317:480,-0.381805,0.055389,-0.333496,0.023038999999999997,0.005146,-0.018712,-4.68,-6.25,-33.68,1b
2019-07-15_160317:500,-0.364014,0.049805,-0.34063699999999997,0.022246000000000002,0.004078,-0.016666999999999998,-4.37,-6.25,-34.060001,1b
2019-07-15_160317:520,-0.364014,0.041168,-0.350281,0.021849,0.002277,-0.01859,-4.37,-6.25,-34.060001,1b
2019-07-15_160317:540,-0.382324,0.026917,-0.360962,0.022063,0.001759,-0.02567,-4.37,-6.25,-34.060001,1b
2019-07-15_160317:560,-0.408752,0.029968,-0.364014,0.023863,0.001026,-0.032048,-3.25,-5.5,-35.68,1b
2019-07-15_160317:580,-0.440796,0.021332,-0.40316799999999997,0.029875,0.001484,-0.039830000000000004,-3.25,-5.5,-35.68,1b
2019-07-15_160317:600,-0.440796,0.021332,-0.40316799999999997,0.031889,0.003101,-0.040227,-4.37,-4.87,-34.869999,1b
2019-07-15_160317:620,-0.45706199999999997,0.022858,-0.43823199999999995,0.035735,-0.0011099999999999999,-0.039342,-4.37,-4.87,-34.869999,1b
2019-07-15_160317:640,-0.448425,0.019318000000000002,-0.45806899999999995,0.037932,-0.002575,-0.037419,-4.37,-4.87,-34.869999,1b
2019-07-15_160317:660,-0.434174,0.017792,-0.433655,0.038512,-0.002117,-0.036443,-3.25,-3.37,-35.25,1b
2019-07-15_160317:680,-0.374176,0.019318000000000002,-0.39859,0.035002,0.005604,-0.029485,-3.25,-3.37,-35.25,1b
2019-07-15_160317:700,-0.323334,0.012177,-0.377228,0.03134,0.007801000000000001,-0.022557,-3.25,-2.25,-35.25,1b
2019-07-15_160317:720,-0.305542,-0.001495,-0.353333,0.028166000000000004,0.003834,-0.022435,-3.25,-2.25,-35.25,1b
2019-07-15_160317:740,-0.310638,-0.014740000000000001,-0.360962,0.025511000000000002,-0.001873,-0.027683999999999997,-3.25,-2.25,-35.25,1b
2019-07-15_160317:760,-0.312653,-0.014221000000000001,-0.34317,0.02484,-0.004131,-0.028874,-2.87,-1.25,-36.060001,1b
2019-07-15_160317:780,-0.313171,-0.01828,-0.35943600000000003,0.025176,-0.006176,-0.027287,-2.87,-1.25,-36.060001,1b
2019-07-15_160317:800,-0.306061,-0.017273,-0.356903,0.025297999999999998,-0.00642,-0.028203,-2.18,0.5,-35.68,1b
2019-07-15_160317:820,-0.293335,-0.011687999999999999,-0.367584,0.024657,-0.010631999999999999,-0.030675,-2.18,0.5,-35.68,1b
2019-07-15_160317:840,-0.287231,-0.006072999999999999,-0.363007,0.023436000000000002,-0.011608,-0.028752,-2.18,0.5,-35.68,1b
2019-07-15_160317:860,-0.287231,0.0,-0.356903,0.022521,-0.011547,-0.027287,-2.37,-0.25,-34.869999,1b
2019-07-15_160317:880,-0.287231,0.000488,-0.348267,0.018858,-0.009075,-0.024938,-2.37,-0.25,-34.869999,1b
2019-07-15_160317:900,-0.290283,0.004547,-0.344696,0.017546,-0.008221,-0.024571,-2.5,1.5,-37.25,1b
2019-07-15_160317:920,-0.300964,0.0030210000000000002,-0.339111,0.014555000000000002,-0.006695,-0.023503,-2.5,1.5,-37.25,1b
2019-07-15_160317:940,-0.307068,0.004059,-0.33300799999999997,0.012419,-0.0062369999999999995,-0.022283,-2.5,1.5,-37.25,1b
2019-07-15_160317:960,-0.307068,0.004059,-0.320801,0.011717,-0.006115,-0.021245,-1.75,1.0,-36.060001,1b
2019-07-15_160317:980,-0.314697,0.0030210000000000002,-0.314178,0.008634999999999999,-0.006451,-0.016454,-1.75,1.0,-36.060001,1b
2019-07-15_160318:000,-0.327911,0.000488,-0.318268,0.0071400000000000005,-0.0069700000000000005,-0.015203,-1.75,1.0,-36.060001,1b
2019-07-15_160318:020,-0.31723,0.0025329999999999997,-0.308594,0.002562,-0.005229999999999999,-0.011601,-1.75,2.06,-36.869999,1b
2019-07-15_160318:040,-0.312164,-0.0025329999999999997,-0.312164,-0.000185,-0.003918,-0.010686,-1.75,2.06,-36.869999,1b
2019-07-15_160318:060,-0.321808,-0.008636,-0.325897,-0.000917,-0.004101,-0.011418000000000001,-1.06,2.06,-36.060001,1b
2019-07-15_160318:080,-0.342163,-0.006592,-0.334534,-0.002779,-0.004253,-0.013066,-1.06,2.06,-36.060001,1b
2019-07-15_160318:100,-0.36248800000000003,-0.008636,-0.34265100000000004,-0.0028399999999999996,-0.003246,-0.012883000000000002,-1.75,2.75,-36.5,1b
2019-07-15_160318:120,-0.35436999999999996,-0.0055850000000000006,-0.335541,-0.002748,0.000904,-0.011601,-1.75,2.75,-36.5,1b
2019-07-15_160318:140,-0.34368899999999997,0.002014,-0.342163,-0.002687,0.004078,-0.008884999999999999,-1.75,2.75,-36.5,1b
2019-07-15_160318:160,-0.350281,0.0055850000000000006,-0.358917,-0.002748,0.003834,-0.00797,-1.75,2.75,-34.5,1b
2019-07-15_160318:180,-0.36349499999999996,0.007111,-0.382324,-0.003999,0.005695,-0.0046429999999999996,-1.75,2.75,-34.5,1b
2019-07-15_160318:200,-0.35943600000000003,0.010162000000000001,-0.404175,-0.004396,0.006214,-0.0036969999999999998,-1.75,2.75,-34.5,1b
2019-07-15_160318:220,-0.384338,0.017792,-0.411285,-0.005464,0.00774,-0.004064,-2.5,2.75,-35.68,1b
2019-07-15_160318:240,-0.45196499999999995,0.026427999999999997,-0.440796,-0.005983,0.007404000000000001,-0.00504,-2.5,2.75,-35.68,1b
2019-07-15_160318:260,-0.43670699999999996,0.036072,-0.437225,-0.007112,0.010181,-0.005712,-1.68,2.87,-35.68,1b
2019-07-15_160318:280,-0.453003,0.043701,-0.46316499999999994,-0.006258,0.012195999999999999,-0.002385,-1.68,2.87,-35.68,1b
2019-07-15_160318:300,-0.433167,0.047272,-0.48043800000000003,-0.005586,0.009144,-0.003179,-1.68,2.87,-35.68,1b
2019-07-15_160318:320,-0.378265,0.056427,-0.45095799999999997,-0.0049759999999999995,0.009937,-0.004582,-1.68,2.75,-35.25,1b
2019-07-15_160318:340,-0.33605999999999997,0.06253099999999999,-0.420441,-0.002168,0.015094999999999999,-0.004765999999999999,-1.68,2.75,-35.25,1b
2019-07-15_160318:360,-0.328949,0.064545,-0.405212,0.0007,0.020222,-0.008153,-2.37,3.5,-36.5,1b
2019-07-15_160318:380,-0.283173,0.068634,-0.391479,0.0036,0.017475,-0.012334,-2.37,3.5,-36.5,1b
2019-07-15_160318:400,-0.28418000000000004,0.065063,-0.386383,0.0071400000000000005,0.011463,-0.014348,-2.37,3.5,-36.5,1b
2019-07-15_160318:420,-0.320801,0.060486,-0.390961,0.012114,0.006,-0.018772999999999998,-3.87,2.75,-36.060001,1b
2019-07-15_160318:440,-0.316742,0.065582,-0.385376,0.016814,0.005268,-0.024083,-3.87,2.75,-36.060001,1b
2019-07-15_160318:460,-0.314697,0.072693,-0.381317,0.020812,0.006214,-0.024968,-4.25,3.5,-36.060001,1b
2019-07-15_160318:480,-0.300964,0.070648,-0.374695,0.02365,0.00655,-0.023229,-4.25,3.5,-36.060001,1b
2019-07-15_160318:500,-0.293854,0.070648,-0.35791,0.024168000000000002,0.007069,-0.020635,-4.25,3.5,-36.060001,1b
2019-07-15_160318:520,-0.294373,0.063538,-0.338593,0.024565,0.008198,-0.017797,-5.37,3.87,-36.060001,1b
2019-07-15_160318:540,-0.298431,0.056427,-0.323334,0.024901,0.010517,-0.017522,-5.37,3.87,-36.060001,1b
2019-07-15_160318:560,-0.29995700000000003,0.051330999999999995,-0.311646,0.024962,0.011372,-0.019444,-5.0,5.68,-36.060001,1b
2019-07-15_160318:580,-0.303528,0.048798,-0.300964,0.025389,0.011127,-0.021581,-5.0,5.68,-36.060001,1b
2019-07-15_160318:600,-0.309601,0.047791,-0.294373,0.026366000000000004,0.009266,-0.022771,-5.0,5.68,-36.060001,1b
2019-07-15_160318:620,-0.319794,0.047272,-0.28979499999999997,0.027892,0.006,-0.023441999999999998,-5.68,6.37,-35.25,1b
2019-07-15_160318:640,-0.34265100000000004,0.045745999999999995,-0.287231,0.029356,0.0032229999999999997,-0.023686000000000002,-5.68,6.37,-35.25,1b
2019-07-15_160318:660,-0.342163,0.043213,-0.28979499999999997,0.030364,0.001026,-0.023412,-6.37,6.75,-34.869999,1b
2019-07-15_160318:680,-0.33197,0.042175,-0.285706,0.031615,-0.000897,-0.023441999999999998,-6.37,6.75,-34.869999,1b
2019-07-15_160318:700,-0.32995599999999997,0.043701,-0.29232800000000003,0.031554,-0.0016589999999999999,-0.024083,-6.37,6.75,-34.869999,1b
2019-07-15_160318:720,-0.326904,0.044219999999999995,-0.290802,0.031767000000000004,-0.00172,-0.023412,-7.06,8.0,-35.25,1b
2019-07-15_160318:740,-0.341125,0.046265,-0.312653,0.032347,-0.003246,-0.024358,-7.06,8.0,-35.25,1b
2019-07-15_160318:760,-0.35131799999999996,0.048798,-0.326385,0.032133999999999996,-0.005261,-0.025365000000000002,-7.37,8.68,-34.869999,1b
2019-07-15_160318:780,-0.361969,0.05438200000000001,-0.341125,0.032622000000000005,-0.006023,-0.024877,-7.37,8.68,-34.869999,1b
2019-07-15_160318:800,-0.375702,0.058960000000000005,-0.349792,0.031737,-0.005383,-0.024571,-7.37,8.68,-34.869999,1b
2019-07-15_160318:820,-0.390442,0.057434000000000006,-0.35131799999999996,0.030211000000000002,-0.0023309999999999997,-0.02271,-7.75,9.75,-34.060001,1b
2019-07-15_160318:840,-0.379272,0.05285599999999999,-0.34875500000000004,0.029294999999999998,0.0016359999999999999,-0.021977,-7.75,9.75,-34.060001,1b
2019-07-15_160318:860,-0.368591,0.05285599999999999,-0.35180700000000004,0.028685000000000002,0.0033450000000000003,-0.023503,-7.75,10.87,-34.18,1b
2019-07-15_160318:880,-0.370636,0.048798,-0.355377,0.028624,0.0027660000000000002,-0.024358,-7.75,10.87,-34.18,1b
2019-07-15_160318:900,-0.388428,0.048798,-0.35791,0.029082,0.0026739999999999997,-0.024175,-7.75,10.87,-34.18,1b
2019-07-15_160318:920,-0.394531,0.044739,-0.367584,0.030211000000000002,0.006458,-0.024631999999999998,-8.18,11.56,-33.75,1b
2019-07-15_160318:940,-0.420959,0.036591000000000005,-0.390442,0.030760000000000003,0.00954,-0.026341000000000003,-8.18,11.56,-33.75,1b
2019-07-15_160318:960,-0.429596,0.025421,-0.406219,0.031827999999999995,0.008472,-0.028142,-8.56,11.56,-32.560001,1b
2019-07-15_160318:980,-0.394012,0.024384,-0.406738,0.032958,0.008411,-0.030675,-8.56,11.56,-32.560001,1b
2019-07-15_160319:000,-0.394012,0.014740000000000001,-0.446899,0.033812,0.003803,-0.032537,-8.56,11.56,-32.560001,1b
2019-07-15_160319:020,-0.375702,0.0055850000000000006,-0.439758,0.03427,0.000233,-0.03452,-10.37,12.06,-33.369999,1b
2019-07-15_160319:040,-0.350281,0.0,-0.42858900000000005,0.034727999999999995,0.0031620000000000003,-0.034184,-10.37,12.06,-33.369999,1b
2019-07-15_160319:060,-0.320801,-0.009644,-0.425018,0.03427,0.007465,-0.030187000000000002,-10.37,12.5,-33.0,1b
2019-07-15_160319:080,-0.332489,-0.021332,-0.40316799999999997,0.033812,0.009113,-0.025762,-10.37,12.5,-33.0,1b
2019-07-15_160319:100,-0.327911,-0.025421,-0.39859,0.033141000000000004,0.006336,-0.026067,-10.37,12.5,-33.0,1b
2019-07-15_160319:120,-0.332489,-0.024384,-0.382812,0.033598,0.0032840000000000005,-0.029057999999999997,-10.87,13.18,-31.75,1b
2019-07-15_160319:140,-0.326385,-0.022369,-0.38739,0.033812,0.0021550000000000002,-0.032659,-10.87,13.18,-31.75,1b
2019-07-15_160319:160,-0.310638,-0.016266,-0.384857,0.033934,0.000782,-0.036717,-12.68,15.06,-31.0,1b
2019-07-15_160319:180,-0.310638,-0.011687999999999999,-0.38739,0.033415,-0.003124,-0.039617,-12.68,15.06,-31.0,1b
2019-07-15_160319:200,-0.294373,-0.001007,-0.374176,0.032469,-0.005444,-0.041142000000000005,-12.68,15.06,-31.0,1b
2019-07-15_160319:220,-0.301483,0.007111,-0.360962,0.031004000000000004,-0.004986,-0.041264999999999996,-13.0,15.06,-30.559998999999998,1b
2019-07-15_160319:240,-0.294373,0.010651,-0.349792,0.029417000000000002,-0.0021780000000000002,-0.039739,-13.0,15.06,-30.559998999999998,1b
2019-07-15_160319:260,-0.28112800000000004,0.011687999999999999,-0.335541,0.027617000000000003,0.0016359999999999999,-0.037633,-13.75,15.75,-30.059998999999998,1b
2019-07-15_160319:280,-0.277588,0.011687999999999999,-0.326385,0.025725,0.0042,-0.035253,-13.75,15.75,-30.059998999999998,1b
2019-07-15_160319:300,-0.279633,0.007111,-0.317749,0.024321000000000002,0.003437,-0.032445,-13.75,15.75,-30.059998999999998,1b
2019-07-15_160319:320,-0.282654,0.009125,-0.311646,0.022795,0.0016359999999999999,-0.030461000000000002,-14.18,15.18,-29.370001000000002,1b
2019-07-15_160319:340,-0.313171,0.013213999999999998,-0.30654899999999996,0.02072,-0.00037799999999999997,-0.02802,-14.18,15.18,-29.370001000000002,1b
2019-07-15_160319:360,-0.341644,0.016266,-0.297913,0.017759999999999998,-0.0014759999999999999,-0.02509,-14.87,15.5,-28.559998999999998,1b
2019-07-15_160319:380,-0.337067,0.011687999999999999,-0.296906,0.013822999999999998,-0.0008349999999999999,-0.021581,-14.87,15.5,-28.559998999999998,1b
2019-07-15_160319:400,-0.318268,0.001495,-0.30300900000000003,0.010039,0.001911,-0.01798,-14.87,15.5,-28.559998999999998,1b
2019-07-15_160319:420,-0.301483,0.0,-0.308075,0.006926000000000001,0.0036810000000000002,-0.016118,-16.059998999999998,15.18,-29.75,1b
2019-07-15_160319:440,-0.325378,-0.007111,-0.32486,0.0042710000000000005,0.0026739999999999997,-0.015477000000000001,-16.059998999999998,15.18,-29.75,1b
2019-07-15_160319:460,-0.33605999999999997,-0.0035399999999999997,-0.32843,0.001738,0.00182,-0.012883000000000002,-16.75,14.87,-29.370001000000002,1b
2019-07-15_160319:480,-0.355377,-0.0025329999999999997,-0.337067,0.0007610000000000001,0.0038950000000000005,-0.009038,-16.75,14.87,-29.370001000000002,1b
2019-07-15_160319:500,-0.380798,0.0025329999999999997,-0.353851,-0.000246,0.007984,-0.0075120000000000004,-16.75,14.87,-29.370001000000002,1b
2019-07-15_160319:520,-0.382324,0.006072999999999999,-0.36248800000000003,-0.001894,0.009876000000000001,-0.007237,-16.5,14.5,-28.5,1b
2019-07-15_160319:540,-0.37112399999999995,0.009125,-0.364014,-0.003114,0.009998,-0.006352,-16.5,14.5,-28.5,1b
2019-07-15_160319:560,-0.370636,0.0055850000000000006,-0.377228,-0.00345,0.007587000000000001,-0.006719,-17.559998999999998,14.87,-28.870001000000002,1b
2019-07-15_160319:580,-0.398071,0.020325,-0.391479,-0.0033280000000000002,0.006947,-0.007756,-17.559998999999998,14.87,-28.870001000000002,1b
2019-07-15_160319:600,-0.44027700000000003,0.034058,-0.416382,-0.0026260000000000003,0.004688,-0.007024,-17.559998999999998,14.87,-28.870001000000002,1b
2019-07-15_160319:620,-0.46060200000000007,0.047791,-0.435699,-0.002779,0.0032229999999999997,-0.005986,-17.559998999999998,13.37,-30.5,1b
2019-07-15_160319:640,-0.457581,0.059479,-0.43927,-0.0039380000000000005,0.004749000000000001,-0.0019879999999999997,-17.559998999999998,13.37,-30.5,1b
2019-07-15_160319:660,-0.42758199999999996,0.05996699999999999,-0.45706199999999997,-0.003389,0.002369,-0.000585,-18.68,13.06,-28.870001000000002,1b
2019-07-15_160319:680,-0.38739,0.061005,-0.43927,-0.001436,0.0010869999999999999,-0.004521,-18.68,13.06,-28.870001000000002,1b
2019-07-15_160319:700,-0.35739099999999996,0.069641,-0.42248500000000005,0.002959,0.0042,-0.00974,-18.68,13.06,-28.870001000000002,1b
2019-07-15_160319:720,-0.33758499999999997,0.081848,-0.394012,0.007536,0.008747,-0.012792,-12.18,13.06,-29.68,1b
2019-07-15_160319:740,-0.314178,0.088959,-0.392487,0.012022,0.007984,-0.014012,-12.18,13.06,-29.68,1b
2019-07-15_160319:760,-0.290802,0.094055,-0.371643,0.015898,0.0042,-0.013799,-19.18,13.25,-29.18,1b
2019-07-15_160319:780,-0.300476,0.095581,-0.365021,0.019681999999999998,0.00011100000000000001,-0.014928,-19.18,13.25,-29.18,1b
2019-07-15_160319:800,-0.29995700000000003,0.096588,-0.365021,0.022856,-0.001019,-0.016728,-19.18,13.25,-29.18,1b
2019-07-15_160319:820,-0.29232800000000003,0.09811399999999999,-0.37011700000000003,0.024718,-0.001598,-0.015599000000000002,-19.870001000000002,13.06,-30.0,1b
2019-07-15_160319:840,-0.282166,0.094055,-0.37265,0.024992,-0.003399,-0.011022,-19.870001000000002,13.06,-30.0,1b
2019-07-15_160319:860,-0.284698,0.0849,-0.35791,0.022734,-0.004253,-0.005712,-20.25,12.25,-28.5,1b
2019-07-15_160319:880,-0.286224,0.0737,-0.35180700000000004,0.020415,-0.0035210000000000003,-0.001592,-20.25,12.25,-28.5,1b
2019-07-15_160319:900,-0.293854,0.05438200000000001,-0.341125,0.018553,-0.0030629999999999998,-0.0009199999999999999,-20.25,12.25,-28.5,1b
2019-07-15_160319:920,-0.308594,0.043701,-0.33300799999999997,0.018279,-0.002514,-0.003728,-26.870001000000002,13.06,-29.18,1b
2019-07-15_160319:940,-0.315704,0.041687,-0.32995599999999997,0.018736000000000003,-0.001934,-0.008153,-26.870001000000002,13.06,-29.18,1b
2019-07-15_160319:960,-0.323334,0.041168,-0.323853,0.019072,-0.001446,-0.01154,-21.75,14.56,-29.25,1b
2019-07-15_160319:980,-0.328949,0.040649,-0.317749,0.019530000000000002,-0.000958,-0.013280000000000002,-21.75,14.56,-29.25,1b
2019-07-15_160320:000,-0.334534,0.036072,-0.31723,0.020262,-0.001202,-0.014318,-21.75,14.56,-29.25,1b
2019-07-15_160320:020,-0.324371,0.03302,-0.308075,0.021147,-0.000958,-0.015447,-22.059998999999998,14.18,-28.5,1b
2019-07-15_160320:040,-0.316223,0.030487,-0.301483,0.02191,-0.001385,-0.015874,-22.059998999999998,14.18,-28.5,1b
2019-07-15_160320:060,-0.32132,0.027954000000000003,-0.307068,0.022978,-0.001019,-0.017522,-21.75,13.87,-28.0,1b
2019-07-15_160320:080,-0.31369,0.029480000000000003,-0.316742,0.024107,-0.0008349999999999999,-0.020696,-21.75,13.87,-28.0,1b
2019-07-15_160320:100,-0.319275,0.037108999999999996,-0.341125,0.024992,-0.0027890000000000002,-0.023961,-21.75,13.87,-28.0,1b
2019-07-15_160320:120,-0.334015,0.044219999999999995,-0.352325,0.025633,-0.004772,-0.02567,-22.559998999999998,12.75,-28.75,1b
2019-07-15_160320:140,-0.348267,0.051330999999999995,-0.35791,0.025693999999999998,-0.003857,-0.024358,-22.559998999999998,12.75,-28.75,1b
2019-07-15_160320:160,-0.359955,0.046265,-0.36248800000000003,0.025633,-0.001782,-0.022283,-23.25,14.18,-29.18,1b
2019-07-15_160320:180,-0.367584,0.043213,-0.356903,0.025907999999999997,0.0020329999999999997,-0.021245,-23.25,14.18,-29.18,1b
2019-07-15_160320:200,-0.347748,0.040649,-0.35638400000000003,0.026366000000000004,0.006,-0.022222,-23.25,14.18,-29.18,1b
2019-07-15_160320:220,-0.344696,0.041168,-0.35436999999999996,0.026854000000000003,0.00713,-0.025426,-23.25,13.18,-27.559998999999998,1b
2019-07-15_160320:240,-0.349792,0.043213,-0.350281,0.027982999999999997,0.008259,-0.027410000000000004,-23.25,13.18,-27.559998999999998,1b
2019-07-15_160320:260,-0.366058,0.043701,-0.354858,0.029967,0.009387999999999999,-0.028752,-24.059998999999998,13.18,-28.68,1b
2019-07-15_160320:280,-0.378754,0.045226999999999996,-0.359955,0.031889,0.010792,-0.030187000000000002,-24.059998999999998,13.18,-28.68,1b
2019-07-15_160320:300,-0.379272,0.045226999999999996,-0.359955,0.033995,0.013294,-0.031011,-24.059998999999998,13.18,-28.68,1b
2019-07-15_160320:320,-0.370636,0.041687,-0.35436999999999996,0.035613,0.016375999999999998,-0.030675,-25.059998999999998,14.18,-27.059998999999998,1b
2019-07-15_160320:340,-0.417908,0.035583,-0.378754,0.036406,0.016315,-0.030858,-25.059998999999998,14.18,-27.059998999999998,1b
2019-07-15_160320:360,-0.42605600000000005,0.028961,-0.393005,0.037444,0.011401999999999999,-0.033666,-25.870001000000002,13.5,-27.059998999999998,1b
2019-07-15_160320:380,-0.416382,0.030487,-0.390442,0.038237,0.010059,-0.037084,-25.870001000000002,13.5,-27.059998999999998,1b
2019-07-15_160320:400,-0.410278,0.022858,-0.43621800000000005,0.038603,0.002491,-0.038487,-25.870001000000002,13.5,-27.059998999999998,1b
2019-07-15_160320:420,-0.398071,0.015747,-0.417908,0.038847,0.000172,-0.038152,-27.059998999999998,12.68,-26.68,1b
2019-07-15_160320:440,-0.375702,0.008636,-0.41842700000000005,0.038237,0.000172,-0.035771,-27.059998999999998,12.68,-26.68,1b
2019-07-15_160320:460,-0.341125,-0.000488,-0.40011599999999997,0.036131,0.002094,-0.030126,-28.5,13.37,-26.559998999999998,1b
2019-07-15_160320:480,-0.34265100000000004,-0.015228,-0.377228,0.03369,0.002613,-0.023563999999999998,-28.5,13.37,-26.559998999999998,1b
2019-07-15_160320:500,-0.335541,-0.024384,-0.37265,0.03195,0.0020329999999999997,-0.022557,-28.5,13.37,-26.559998999999998,1b
2019-07-15_160320:520,-0.309113,-0.026917,-0.355377,0.030760000000000003,-0.001202,-0.026067,-28.870001000000002,13.37,-25.75,1b
2019-07-15_160320:540,-0.305542,-0.024902,-0.359955,0.029814,-0.004925,-0.028325,-28.870001000000002,13.37,-25.75,1b
2019-07-15_160320:560,-0.29943800000000004,-0.020844,-0.36044299999999996,0.028502,-0.008038,-0.030064999999999998,-29.559998999999998,13.06,-26.18,1b
2019-07-15_160320:580,-0.310638,-0.019318000000000002,-0.368591,0.026456999999999998,-0.011547,-0.033116,-29.559998999999998,13.06,-26.18,1b
2019-07-15_160320:600,-0.303528,-0.010651,-0.364532,0.024443,-0.012341,-0.034184,-29.559998999999998,13.06,-26.18,1b
2019-07-15_160320:620,-0.293854,-0.005065999999999999,-0.360962,0.022978,-0.011211,-0.03272,-29.25,13.37,-23.75,1b
2019-07-15_160320:640,-0.29232800000000003,-0.004547,-0.354858,0.021666,-0.009106,-0.031865,-29.25,13.37,-23.75,1b
2019-07-15_160320:660,-0.290283,-0.001007,-0.349792,0.020659,-0.007244,-0.031713,-30.370001000000002,12.68,-25.370001000000002,1b
2019-07-15_160320:680,-0.28674299999999997,0.001495,-0.347229,0.019621,-0.007427,-0.029851,-30.370001000000002,12.68,-25.370001000000002,1b
2019-07-15_160320:700,-0.298431,0.004059,-0.344177,0.018553,-0.007916,-0.026799,-30.370001000000002,12.68,-25.370001000000002,1b
2019-07-15_160320:720,-0.318268,0.002014,-0.344696,0.016356,-0.008038,-0.024175,-30.68,11.18,-26.559998999999998,1b
2019-07-15_160320:740,-0.316223,0.0030210000000000002,-0.341125,0.014281,-0.005657,-0.022161,-30.68,11.18,-26.559998999999998,1b
2019-07-15_160320:760,-0.324371,0.0025329999999999997,-0.344177,0.011839,-0.004711,-0.019994,-30.5,10.75,-25.68,1b
2019-07-15_160320:780,-0.315704,0.004059,-0.338593,0.008666,-0.005229999999999999,-0.017735,-30.5,10.75,-25.68,1b
2019-07-15_160320:800,-0.301483,0.007599,-0.32843,0.005736,-0.002728,-0.015080000000000001,-30.5,10.75,-25.68,1b
2019-07-15_160320:820,-0.31369,0.0055850000000000006,-0.341644,0.001006,-0.001843,-0.012212,-30.75,11.56,-26.059998999999998,1b
2019-07-15_160320:840,-0.31723,0.0025329999999999997,-0.349792,-0.0005809999999999999,-0.00227,-0.011479000000000001,-30.75,11.56,-26.059998999999998,1b
2019-07-15_160320:860,-0.339111,-0.001007,-0.348267,-0.003084,-0.001782,-0.008763,-31.18,11.18,-26.870001000000002,1b
2019-07-15_160320:880,-0.34368899999999997,-0.004547,-0.355377,-0.00461,0.001911,-0.005222999999999999,-31.18,11.18,-26.870001000000002,1b
2019-07-15_160320:900,-0.32132,-0.006592,-0.355896,-0.005922,0.007220999999999999,-0.002995,-31.18,11.18,-26.870001000000002,1b
2019-07-15_160320:920,-0.320801,-0.0035399999999999997,-0.36911,-0.007234,0.009266,-0.002721,-32.25,9.68,-25.68,1b
2019-07-15_160320:940,-0.348267,0.002014,-0.381805,-0.008699,0.008411,-0.0016530000000000002,-32.25,9.68,-25.68,1b
2019-07-15_160320:960,-0.367584,0.0055850000000000006,-0.391968,-0.010316,0.008808,0.000453,-32.68,9.37,-27.25,1b
2019-07-15_160320:980,-0.372162,0.009125,-0.394012,-0.011018,0.009937,0.001277,-32.68,9.37,-27.25,1b
2019-07-15_160321:000,-0.39502,0.017792,-0.39502,-0.011170999999999999,0.012501,-0.000401,-32.68,9.37,-27.25,1b
2019-07-15_160321:020,-0.45907600000000004,0.021851,-0.425537,-0.010773999999999999,0.011249,0.000728,-33.5,9.75,-27.25,1b
2019-07-15_160321:040,-0.448425,0.025908999999999998,-0.417908,-0.010225,0.009845999999999999,0.004359,-33.5,9.75,-27.25,1b
2019-07-15_160321:060,-0.43774399999999997,0.030487,-0.416382,-0.008974,0.011372,0.007594,-33.869999,9.37,-27.25,1b
2019-07-15_160321:080,-0.401642,0.040649,-0.418915,-0.006837,0.010639000000000001,0.005336,-33.869999,9.37,-27.25,1b
2019-07-15_160321:100,-0.377747,0.050842,-0.410797,-0.0049759999999999995,0.009052,0.00146,-33.869999,9.37,-27.25,1b
2019-07-15_160321:120,-0.336548,0.065063,-0.38739,-0.002229,0.010059,0.000667,-33.869999,9.37,-26.059998999999998,1b
2019-07-15_160321:140,-0.330963,0.064545,-0.385864,0.000365,0.010059,-0.00033999999999999997,-33.869999,9.37,-26.059998999999998,1b
2019-07-15_160321:160,-0.327911,0.072693,-0.374695,0.0036609999999999998,0.008717,-0.004369,-33.869999,9.75,-25.25,1b
2019-07-15_160321:180,-0.34063699999999997,0.076752,-0.369598,0.006712,0.005817,-0.008763,-33.869999,9.75,-25.25,1b
2019-07-15_160321:200,-0.328949,0.081848,-0.364014,0.010771,0.0036810000000000002,-0.013859999999999999,-33.869999,9.75,-25.25,1b
2019-07-15_160321:220,-0.316223,0.087952,-0.365021,0.014708,0.001972,-0.017858000000000002,-34.869999,9.75,-25.68,1b
2019-07-15_160321:240,-0.301483,0.095581,-0.35791,0.017943,-0.00037799999999999997,-0.018254,-34.869999,9.75,-25.68,1b
2019-07-15_160321:260,-0.301483,0.096588,-0.35638400000000003,0.019133,-0.003643,-0.013524000000000001,-35.68,9.37,-24.870001000000002,1b
2019-07-15_160321:280,-0.29232800000000003,0.089478,-0.34570300000000004,0.01895,-0.005169,-0.0065049999999999995,-35.68,9.37,-24.870001000000002,1b
2019-07-15_160321:300,-0.296387,0.081329,-0.338074,0.017728999999999998,-0.005261,-0.0011949999999999999,-35.68,9.37,-24.870001000000002,1b
2019-07-15_160321:320,-0.297913,0.072174,-0.331482,0.016538999999999998,-0.004131,0.0010019999999999999,-34.869999,9.37,-25.25,1b
2019-07-15_160321:340,-0.29943800000000004,0.06149299999999999,-0.31723,0.015471,-0.00285,0.0016129999999999999,-34.869999,9.37,-25.25,1b
2019-07-15_160321:360,-0.301483,0.054901,-0.313171,0.015074,-0.002911,0.000728,-35.560001,9.75,-24.870001000000002,1b
2019-07-15_160321:380,-0.309601,0.051330999999999995,-0.306061,0.014891,-0.003796,-0.000401,-35.560001,9.75,-24.870001000000002,1b
2019-07-15_160321:400,-0.31369,0.051849,-0.303528,0.014219999999999998,-0.00404,-0.001531,-35.560001,9.75,-24.870001000000002,1b
2019-07-15_160321:420,-0.320801,0.052338,-0.305542,0.013487,-0.005657,-0.002995,-35.560001,10.5,-26.5,1b
2019-07-15_160321:440,-0.322845,0.053375,-0.309601,0.012816,-0.007244,-0.005895,-35.560001,10.5,-26.5,1b
2019-07-15_160321:460,-0.323334,0.055908000000000006,-0.315216,0.012236,-0.009838,-0.007634,-34.75,9.75,-25.68,1b
2019-07-15_160321:480,-0.329437,0.057953,-0.317749,0.012114,-0.011028,-0.008031,-34.75,9.75,-25.68,1b
2019-07-15_160321:500,-0.33300799999999997,0.05996699999999999,-0.316223,0.0119,-0.009441,-0.008245,-34.75,9.75,-25.68,1b
2019-07-15_160321:520,-0.339111,0.062012,-0.325378,0.011961,-0.005901,-0.007909000000000001,-34.75,10.06,-26.870001000000002,1b
2019-07-15_160321:540,-0.344696,0.061005,-0.32995599999999997,0.012114,-0.003246,-0.008641,-34.75,10.06,-26.870001000000002,1b
2019-07-15_160321:560,-0.35131799999999996,0.05996699999999999,-0.335541,0.012297,-0.001141,-0.011479000000000001,-36.0,10.5,-25.68,1b
2019-07-15_160321:580,-0.353333,0.063019,-0.328949,0.012694,0.0031620000000000003,-0.013066,-36.0,10.5,-25.68,1b
2019-07-15_160321:600,-0.340118,0.057953,-0.337067,0.013578999999999999,0.005756,-0.015203,-36.0,10.5,-25.68,1b
2019-07-15_160321:620,-0.342163,0.054901,-0.353851,0.015227000000000001,0.005024,-0.018865,-36.0,9.37,-26.059998999999998,1b
2019-07-15_160321:640,-0.34265100000000004,0.055389,-0.358917,0.017424000000000002,0.004414,-0.02036,-36.0,9.37,-26.059998999999998,1b
2019-07-15_160321:660,-0.34265100000000004,0.053375,-0.37316900000000003,0.019072,0.004353,-0.020909,-37.0,9.0,-26.5,1b
2019-07-15_160321:680,-0.349792,0.053375,-0.377747,0.020384,0.005939,-0.021488999999999998,-37.0,9.0,-26.5,1b
2019-07-15_160321:700,-0.393005,0.049316000000000006,-0.396057,0.020934,0.005939,-0.021641999999999998,-37.0,9.0,-26.5,1b
2019-07-15_160321:720,-0.451477,0.036072,-0.42858900000000005,0.022337,0.004353,-0.023747,-36.68,8.56,-25.559998999999998,1b
2019-07-15_160321:740,-0.44891400000000004,0.033539,-0.433655,0.024657,0.004139,-0.028263999999999997,-36.68,8.56,-25.559998999999998,1b
2019-07-15_160321:760,-0.42248500000000005,0.028961,-0.453491,0.025389,0.004078,-0.029881,-36.68,8.56,-25.559998999999998,1b
2019-07-15_160321:780,-0.391479,0.027435,-0.46060200000000007,0.026823000000000003,0.000843,-0.027471,-38.18,8.25,-26.0,1b
2019-07-15_160321:800,-0.384338,0.019318000000000002,-0.462128,0.023863,-0.0007440000000000001,-0.019322,-38.18,8.25,-26.0,1b
2019-07-15_160321:820,-0.384857,0.015228,-0.448425,0.021727,-0.000897,-0.016576,-38.560001,8.25,-24.0,1b
2019-07-15_160321:840,-0.367584,0.0,-0.415375,0.016538999999999998,0.005878,-0.012029,-38.560001,8.25,-24.0,1b
2019-07-15_160321:860,-0.344696,-0.015747,-0.372162,0.015013,0.008594,-0.012395,-38.560001,7.87,-24.75,1b
2019-07-15_160321:880,-0.326904,-0.022369,-0.358429,0.0119,0.008533,-0.014469999999999998,-38.560001,7.87,-24.75,1b
2019-07-15_160321:900,-0.296906,-0.034058,-0.33758499999999997,0.012236,0.003803,-0.014745,-38.560001,7.87,-24.75,1b
2019-07-15_160321:920,-0.29895,-0.040161,-0.333496,0.012419,0.001697,-0.015263999999999998,-39.68,7.87,-24.75,1b
2019-07-15_160321:940,-0.28927600000000003,-0.038635,-0.338074,0.014830000000000001,-0.003979,-0.02036,-39.68,7.87,-24.75,1b
2019-07-15_160321:960,-0.285706,-0.032532,-0.34570300000000004,0.015288,-0.0069700000000000005,-0.022222,-41.18,7.87,-25.18,1b
2019-07-15_160321:980,-0.276581,-0.020844,-0.34368899999999997,0.015074,-0.012859,-0.026799,-41.18,7.87,-25.18,1b
2019-07-15_160322:000,-0.277069,-0.006072999999999999,-0.345215,0.013884,-0.013988999999999998,-0.026799,-41.18,7.87,-25.18,1b
2019-07-15_160322:020,-0.273529,-0.000488,-0.347229,0.013304,-0.014140999999999999,-0.02628,-40.0,6.75,-25.559998999999998,1b
2019-07-15_160322:040,-0.280121,0.0035399999999999997,-0.353851,0.010648999999999999,-0.015788999999999997,-0.024571,-40.0,6.75,-25.559998999999998,1b
2019-07-15_160322:060,-0.293854,0.004059,-0.358429,0.009917,-0.016277,-0.024144,-40.68,5.37,-24.0,1b
2019-07-15_160322:080,-0.31012,0.006592,-0.355377,0.008452,-0.014599,-0.022313,-40.68,5.37,-24.0,1b
2019-07-15_160322:100,-0.314697,0.006592,-0.35131799999999996,0.006529000000000001,-0.010204000000000001,-0.018987,-40.68,5.37,-24.0,1b
2019-07-15_160322:120,-0.316223,0.007599,-0.348267,0.005582999999999999,-0.008312,-0.018040999999999998,-40.75,5.06,-25.559998999999998,1b
2019-07-15_160322:140,-0.306061,0.008636,-0.347229,0.002409,-0.0055049999999999995,-0.015934999999999998,-40.75,5.06,-25.559998999999998,1b
2019-07-15_160322:160,-0.298431,0.009644,-0.33605999999999997,0.001402,-0.00465,-0.015080000000000001,-40.75,5.06,-25.559998999999998,1b
2019-07-15_160322:180,-0.29895,0.008118,-0.33300799999999997,-0.001558,-0.002605,-0.012943999999999999,-41.560001,3.56,-26.75,1b
2019-07-15_160322:200,-0.311646,0.006072999999999999,-0.341125,-0.002382,-0.002575,-0.012334,-41.560001,3.56,-26.75,1b
2019-07-15_160322:220,-0.325897,0.006072999999999999,-0.347229,-0.003145,-0.001446,-0.00974,-40.369999,4.0,-25.18,1b
2019-07-15_160322:240,-0.32486,0.002014,-0.35180700000000004,-0.0038469999999999997,-0.000439,-0.00678,-40.369999,4.0,-25.18,1b
2019-07-15_160322:260,-0.330475,-0.001007,-0.35180700000000004,-0.004243,0.0018809999999999999,-0.005559000000000001,-40.369999,4.0,-25.18,1b
2019-07-15_160322:280,-0.345215,0.000488,-0.360962,-0.004121,0.004688,-0.004704,-41.560001,4.37,-26.370001000000002,1b
2019-07-15_160322:300,-0.35791,0.002014,-0.364014,-0.004457,0.0070079999999999995,-0.004765999999999999,-41.560001,4.37,-26.370001000000002,1b
2019-07-15_160322:320,-0.370636,0.005065999999999999,-0.37011700000000003,-0.004518,0.008990999999999999,-0.00504,-41.869999,3.56,-26.0,1b
2019-07-15_160322:340,-0.367584,0.010162000000000001,-0.36654699999999996,-0.004457,0.010181,-0.006047,-41.869999,3.56,-26.0,1b
2019-07-15_160322:360,-0.37112399999999995,0.01828,-0.377747,-0.004121,0.009113,-0.006841,-41.869999,3.56,-26.0,1b
2019-07-15_160322:380,-0.373688,0.023895,-0.38028,-0.003389,0.010517,-0.006901999999999999,-42.18,4.0,-26.0,1b
2019-07-15_160322:400,-0.393494,0.034058,-0.396057,-0.002046,0.011188,-0.006963,-42.18,4.0,-26.0,1b
2019-07-15_160322:420,-0.40823400000000004,0.038635,-0.423492,-0.001039,0.007069,-0.006047,-42.5,3.0,-27.18,1b
2019-07-15_160322:440,-0.401642,0.048798,-0.415375,-0.000459,0.0054210000000000005,-0.002202,-42.5,3.0,-27.18,1b
2019-07-15_160322:460,-0.431122,0.053863999999999995,-0.45095799999999997,0.000365,0.003101,0.0032909999999999997,-42.5,3.0,-27.18,1b
2019-07-15_160322:480,-0.41232299999999994,0.059479,-0.460114,0.000212,0.000782,0.0051530000000000005,-43.25,1.87,-26.0,1b
2019-07-15_160322:500,-0.38385,0.070648,-0.44027700000000003,0.000304,0.0031620000000000003,0.005733,-43.25,1.87,-26.0,1b
2019-07-15_160322:520,-0.35638400000000003,0.07421900000000001,-0.429596,0.000487,0.008533,0.005488,-43.560001,1.5,-25.18,1b
2019-07-15_160322:540,-0.33300799999999997,0.068115,-0.41384899999999997,0.001341,0.011249,0.001674,-43.560001,1.5,-25.18,1b
2019-07-15_160322:560,-0.303528,0.076263,-0.381317,0.002531,0.012440000000000001,-0.0036969999999999998,-43.560001,1.5,-25.18,1b
2019-07-15_160322:580,-0.295898,0.074738,-0.374176,0.004881,0.01067,-0.004064,-44.369999,3.0,-24.75,1b
2019-07-15_160322:600,-0.28064,0.07016,-0.35739099999999996,0.008237999999999999,0.00774,-0.005895,-44.369999,3.0,-24.75,1b
2019-07-15_160322:620,-0.276062,0.070648,-0.355377,0.011382,0.003437,-0.009679,-44.68,2.25,-24.0,1b
2019-07-15_160322:640,-0.28112800000000004,0.074738,-0.348267,0.014311,0.000233,-0.009892,-44.68,2.25,-24.0,1b
2019-07-15_160322:660,-0.28979499999999997,0.0737,-0.352325,0.017149,-0.0023309999999999997,-0.00678,-44.68,2.25,-24.0,1b
2019-07-15_160322:680,-0.287231,0.071167,-0.347748,0.017882,-0.004711,-0.004033,-44.25,1.5,-24.75,1b
2019-07-15_160322:700,-0.29232800000000003,0.066071,-0.344696,0.018126,-0.004986,-0.001714,-44.25,1.5,-24.75,1b
2019-07-15_160322:720,-0.29742399999999997,0.06253099999999999,-0.341644,0.017333,-0.005169,-0.001134,-44.369999,2.56,-23.18,1b
2019-07-15_160322:740,-0.304535,0.057434000000000006,-0.332489,0.016753,-0.004528,-0.001714,-44.369999,2.56,-23.18,1b
2019-07-15_160322:760,-0.314697,0.053375,-0.329437,0.016295,-0.003979,-0.0036969999999999998,-44.369999,2.56,-23.18,1b
2019-07-15_160322:780,-0.324371,0.052338,-0.324371,0.016203,-0.003399,-0.005497999999999999,-45.5,1.5,-24.0,1b
2019-07-15_160322:800,-0.324371,0.051330999999999995,-0.318756,0.016538999999999998,-0.00227,-0.005376,-45.5,1.5,-24.0,1b
2019-07-15_160322:820,-0.324371,0.052338,-0.315216,0.016692,-0.002605,-0.005222999999999999,-45.560001,3.0,-24.370001000000002,1b
2019-07-15_160322:840,-0.326904,0.050842,-0.30654899999999996,0.01602,-0.0035210000000000003,-0.004979,-45.560001,3.0,-24.370001000000002,1b
2019-07-15_160322:860,-0.32995599999999997,0.051849,-0.304535,0.01541,-0.004437,-0.006291,-45.560001,3.0,-24.370001000000002,1b
2019-07-15_160322:880,-0.327423,0.052338,-0.302002,0.014677,-0.003979,-0.007024,-45.060001,2.56,-23.18,1b
2019-07-15_160322:900,-0.320282,0.048798,-0.307068,0.013975999999999999,-0.002392,-0.006626999999999999,-45.060001,2.56,-23.18,1b
2019-07-15_160322:920,-0.322327,0.045226999999999996,-0.314178,0.013243000000000001,-0.001782,-0.006901999999999999,-46.18,2.68,-24.370001000000002,1b
2019-07-15_160322:940,-0.336548,0.043701,-0.32486,0.013091,-0.002911,-0.008611,-46.18,2.68,-24.370001000000002,1b
2019-07-15_160322:960,-0.344177,0.044219999999999995,-0.338593,0.013243000000000001,-0.002575,-0.009557,-46.18,2.68,-24.370001000000002,1b
2019-07-15_160322:980,-0.344177,0.046265,-0.35180700000000004,0.014037,0.00038500000000000003,-0.010747,-46.560001,3.06,-24.75,1b
2019-07-15_160323:000,-0.330963,0.050323,-0.364014,0.015074,0.004291,-0.012486,-46.560001,3.06,-24.75,1b
2019-07-15_160323:020,-0.33605999999999997,0.053375,-0.385376,0.015898,0.005817,-0.013951,-46.18,3.06,-24.370001000000002,1b
2019-07-15_160323:040,-0.34570300000000004,0.053863999999999995,-0.391968,0.016142,0.005817,-0.015325,-46.18,3.06,-24.370001000000002,1b
2019-07-15_160323:060,-0.36349499999999996,0.046265,-0.398071,0.015837,0.005604,-0.015203,-46.18,3.06,-24.370001000000002,1b
2019-07-15_160323:080,-0.378265,0.040161,-0.401642,0.016416999999999998,0.008076,-0.015874,-46.869999,2.68,-25.18,1b
2019-07-15_160323:100,-0.417908,0.032532,-0.408752,0.016966,0.012928,-0.017644,-46.869999,2.68,-25.18,1b
2019-07-15_160323:120,-0.45605500000000004,0.024902,-0.434174,0.018614,0.01305,-0.020116,-45.75,0.87,-23.559998999999998,1b
2019-07-15_160323:140,-0.463654,0.016753999999999998,-0.43670699999999996,0.020597999999999998,0.012775,-0.024175,-45.75,0.87,-23.559998999999998,1b
2019-07-15_160323:160,-0.441803,0.018799,-0.447388,0.023313999999999998,0.012440000000000001,-0.027287,-45.75,0.87,-23.559998999999998,1b
2019-07-15_160323:180,-0.420441,0.019806,-0.45043900000000003,0.024779,0.009663,-0.027226,-48.0,1.56,-23.559998999999998,1b
2019-07-15_160323:200,-0.399109,0.020325,-0.434174,0.024657,0.007801000000000001,-0.024083,-48.0,1.56,-23.559998999999998,1b
2019-07-15_160323:220,-0.392487,0.019318000000000002,-0.416901,0.021605000000000003,0.008015000000000001,-0.018865,-48.0,0.87,-23.18,1b
2019-07-15_160323:240,-0.329437,0.006592,-0.374176,0.017606999999999998,0.009845999999999999,-0.012822,-48.0,0.87,-23.18,1b
2019-07-15_160323:260,-0.307587,-0.013702,-0.34875500000000004,0.013365,0.012195999999999999,-0.009618000000000002,-48.0,0.87,-23.18,1b
2019-07-15_160323:280,-0.290802,-0.022369,-0.33605999999999997,0.011229000000000001,0.01012,-0.010747,-47.560001,-0.18,-22.370001000000002,1b
2019-07-15_160323:300,-0.283173,-0.029968,-0.32843,0.0101,0.005543,-0.013005000000000001,-47.560001,-0.18,-22.370001000000002,1b
2019-07-15_160323:320,-0.285217,-0.032013,-0.34368899999999997,0.011504,0.000446,-0.016271,-48.75,0.18,-21.68,1b
2019-07-15_160323:340,-0.28979499999999997,-0.022369,-0.344696,0.013182,-0.003582,-0.019322,-48.75,0.18,-21.68,1b
2019-07-15_160323:360,-0.295898,-0.01828,-0.350281,0.014281,-0.008495,-0.020635,-48.75,0.18,-21.68,1b
2019-07-15_160323:380,-0.29742399999999997,-0.008636,-0.34875500000000004,0.013975999999999999,-0.010296,-0.020787,-49.060001,-0.87,-20.870001000000002,1b
2019-07-15_160323:400,-0.293335,-0.0055850000000000006,-0.352844,0.013487,-0.010570999999999999,-0.020848,-49.060001,-0.87,-20.870001000000002,1b
2019-07-15_160323:420,-0.288269,-0.001007,-0.35131799999999996,0.012572,-0.010570999999999999,-0.021428,-48.369999,-1.25,-22.0,1b
2019-07-15_160323:440,-0.29486100000000004,0.0,-0.353851,0.012022,-0.010754000000000001,-0.023107,-48.369999,-1.25,-22.0,1b
2019-07-15_160323:460,-0.306061,0.0025329999999999997,-0.35180700000000004,0.011839,-0.010754000000000001,-0.023229,-48.369999,-1.25,-22.0,1b
2019-07-15_160323:480,-0.320282,0.004059,-0.34265100000000004,0.011382,-0.009686,-0.020756999999999998,-49.060001,-2.0,-21.18,1b
2019-07-15_160323:500,-0.31723,0.006072999999999999,-0.334534,0.010588,-0.007702,-0.017797,-49.060001,-2.0,-21.18,1b
2019-07-15_160323:520,-0.313171,0.009644,-0.329437,0.009398,-0.005901,-0.014653,-48.369999,-3.0,-21.18,1b
2019-07-15_160323:540,-0.310638,0.011169,-0.327911,0.007781000000000001,-0.006573000000000001,-0.011937,-48.369999,-3.0,-21.18,1b
2019-07-15_160323:560,-0.30249000000000004,0.012695,-0.314178,0.004607,-0.006756,-0.009343,-48.369999,-3.0,-21.18,1b
2019-07-15_160323:580,-0.32132,0.010651,-0.320282,0.001433,-0.0060539999999999995,-0.006901999999999999,-48.369999,-3.37,-22.870001000000002,1b
2019-07-15_160323:600,-0.326385,0.008118,-0.330963,-0.0016190000000000002,-0.004772,-0.005376,-48.369999,-3.37,-22.870001000000002,1b
2019-07-15_160323:620,-0.339111,0.007599,-0.33197,-0.004274,-0.004376,-0.003728,-48.369999,-3.68,-21.68,1b
2019-07-15_160323:640,-0.346222,0.004059,-0.335022,-0.006776000000000001,-0.004925,-0.001134,-48.369999,-3.68,-21.68,1b
2019-07-15_160323:660,-0.353851,0.004547,-0.334534,-0.008851999999999999,-0.003307,0.000453,-48.369999,-3.68,-21.68,1b
2019-07-15_160323:680,-0.364532,0.007599,-0.34570300000000004,-0.011170999999999999,-0.000897,0.00088,-48.369999,-4.75,-21.68,1b
2019-07-15_160323:700,-0.366058,0.0055850000000000006,-0.352325,-0.013887,0.00124,0.001918,-48.369999,-4.75,-21.68,1b
2019-07-15_160323:720,-0.350281,0.0025329999999999997,-0.355896,-0.015352000000000001,0.003101,0.002589,-48.0,-4.06,-22.870001000000002,1b
2019-07-15_160323:740,-0.352844,0.001495,-0.361969,-0.016663999999999998,0.003437,0.0024059999999999997,-48.0,-4.06,-22.870001000000002,1b
2019-07-15_160323:760,-0.361481,0.004059,-0.377228,-0.016756,0.0031620000000000003,0.001277,-48.0,-4.06,-22.870001000000002,1b
2019-07-15_160323:780,-0.37265,0.010162000000000001,-0.381805,-0.015993,0.003406,-0.000127,-48.0,-4.06,-22.370001000000002,1b
2019-07-15_160323:800,-0.401642,0.027435,-0.387909,-0.015077000000000002,0.005695,-0.000127,-48.0,-4.06,-22.370001000000002,1b
2019-07-15_160323:820,-0.434692,0.030487,-0.406219,-0.014955000000000001,0.005939,0.001674,-47.560001,-5.18,-22.870001000000002,1b
2019-07-15_160323:840,-0.41586300000000004,0.041687,-0.393494,-0.015352000000000001,0.00655,0.003474,-47.560001,-5.18,-22.870001000000002,1b
2019-07-15_160323:860,-0.454529,0.052338,-0.43823199999999995,-0.014802000000000001,0.009113,0.0058850000000000005,-47.560001,-5.18,-22.870001000000002,1b
2019-07-15_160323:880,-0.44027700000000003,0.053375,-0.461121,-0.014497,0.005939,0.005763,-49.060001,-4.75,-22.370001000000002,1b
2019-07-15_160323:900,-0.37112399999999995,0.064545,-0.425537,-0.014740999999999999,0.005482,0.0058850000000000005,-49.060001,-4.75,-22.370001000000002,1b
2019-07-15_160323:920,-0.327423,0.063538,-0.42147799999999996,-0.013947999999999999,0.007862000000000001,0.00912,-48.369999,-6.0,-20.5,1b
2019-07-15_160323:940,-0.28979499999999997,0.065063,-0.393005,-0.012941,0.010914,0.008876,-48.369999,-6.0,-20.5,1b
2019-07-15_160323:960,-0.31723,0.06253099999999999,-0.397583,-0.011231999999999999,0.010975,0.0034130000000000002,-48.369999,-6.0,-20.5,1b
2019-07-15_160323:980,-0.29232800000000003,0.069122,-0.38739,-0.008454999999999999,0.0071909999999999995,-0.0019879999999999997,-48.75,-5.18,-20.5,1b
2019-07-15_160324:000,-0.318268,0.063538,-0.386383,-0.004182,0.004139,-0.00324,-48.75,-5.18,-20.5,1b
2019-07-15_160324:020,-0.317749,0.063538,-0.381805,0.001036,0.0027660000000000002,-0.006841,-48.0,-4.5,-20.870001000000002,1b
2019-07-15_160324:040,-0.314178,0.07016,-0.37316900000000003,0.005582999999999999,0.0032840000000000005,-0.008641,-48.0,-4.5,-20.870001000000002,1b
2019-07-15_160324:060,-0.319275,0.068115,-0.37265,0.009581000000000001,0.003101,-0.0048270000000000006,-48.0,-4.5,-20.870001000000002,1b
2019-07-15_160324:080,-0.312653,0.065063,-0.355896,0.012572,0.002827,-0.001256,-48.75,-6.25,-19.68,1b
2019-07-15_160324:100,-0.309601,0.062012,-0.344696,0.013701,0.00301,0.000484,-48.75,-6.25,-19.68,1b
2019-07-15_160324:120,-0.30249000000000004,0.056915,-0.326385,0.013884,0.0042,0.0010019999999999999,-48.369999,-5.56,-19.25,1b
2019-07-15_160324:140,-0.310638,0.045226999999999996,-0.315704,0.013304,0.004414,0.000606,-48.369999,-5.56,-19.25,1b
2019-07-15_160324:160,-0.311127,0.040649,-0.30654899999999996,0.013701,0.004017,-0.0021100000000000003,-48.369999,-5.56,-19.25,1b
2019-07-15_160324:180,-0.31369,0.037598,-0.29943800000000004,0.013884,0.0027660000000000002,-0.005376,-48.369999,-5.18,-19.25,1b
2019-07-15_160324:200,-0.318756,0.038635,-0.29232800000000003,0.014037,0.0006900000000000001,-0.006444,-48.369999,-5.18,-19.25,1b
2019-07-15_160324:220,-0.33197,0.036591000000000005,-0.295898,0.014433000000000001,-0.0005,-0.007176,-49.060001,-4.75,-18.5,1b
2019-07-15_160324:240,-0.33758499999999997,0.036072,-0.295898,0.014830000000000001,-0.001782,-0.009038,-49.060001,-4.75,-18.5,1b
2019-07-15_160324:260,-0.34674099999999997,0.037598,-0.29995700000000003,0.015471,-0.003002,-0.010686,-49.060001,-4.75,-18.5,1b
2019-07-15_160324:280,-0.34265100000000004,0.039124,-0.29232800000000003,0.016203,-0.002972,-0.011815,-48.369999,-6.0,-18.870001000000002,1b
2019-07-15_160324:300,-0.336548,0.041168,-0.29232800000000003,0.016631,-0.0023309999999999997,-0.012425,-48.369999,-6.0,-18.870001000000002,1b
2019-07-15_160324:320,-0.333496,0.045745999999999995,-0.29486100000000004,0.016692,-0.002605,-0.012395,-48.75,-6.25,-18.870001000000002,1b
2019-07-15_160324:340,-0.34265100000000004,0.048798,-0.30300900000000003,0.016416999999999998,-0.003796,-0.012609,-48.75,-6.25,-18.870001000000002,1b
2019-07-15_160324:360,-0.361481,0.048798,-0.321808,0.016234000000000002,-0.005169,-0.013859999999999999,-48.75,-6.25,-18.870001000000002,1b
2019-07-15_160324:380,-0.37011700000000003,0.050323,-0.322327,0.016203,-0.003246,-0.015447,-48.0,-5.87,-19.68,1b
2019-07-15_160324:400,-0.378754,0.048279,-0.337067,0.016936,-0.00108,-0.017247,-48.0,-5.87,-19.68,1b
2019-07-15_160324:420,-0.374176,0.047791,-0.332489,0.018065,0.001301,-0.01685,-47.560001,-6.68,-19.68,1b
2019-07-15_160324:440,-0.374695,0.046752999999999996,-0.338593,0.019530000000000002,0.0026739999999999997,-0.014806,-47.560001,-6.68,-19.68,1b
2019-07-15_160324:460,-0.35180700000000004,0.048798,-0.3508,0.020415,0.00243,-0.013921000000000001,-47.560001,-6.68,-19.68,1b
2019-07-15_160324:480,-0.358917,0.046265,-0.358917,0.020475999999999998,0.000965,-0.014134,-47.560001,-7.0,-19.68,1b
2019-07-15_160324:500,-0.379272,0.042175,-0.37265,0.021117,0.002491,-0.015721000000000002,-47.560001,-7.0,-19.68,1b
2019-07-15_160324:520,-0.407227,0.042175,-0.379272,0.021544,0.004536,-0.019109,-48.369999,-7.0,-18.870001000000002,1b
2019-07-15_160324:540,-0.47995,0.025421,-0.41384899999999997,0.023802,0.0036200000000000004,-0.025823000000000002,-48.369999,-7.0,-18.870001000000002,1b
2019-07-15_160324:560,-0.433655,0.037598,-0.389435,0.026305000000000002,0.008472,-0.032383999999999996,-48.369999,-7.0,-18.870001000000002,1b
2019-07-15_160324:580,-0.429108,0.030487,-0.435699,0.028899,0.006,-0.031804,-47.560001,-7.68,-20.0,1b
2019-07-15_160324:600,-0.40774499999999997,0.019318000000000002,-0.45654300000000003,0.030638,-0.00034700000000000003,-0.030522000000000004,-47.560001,-7.68,-20.0,1b
2019-07-15_160324:620,-0.411285,0.01828,-0.452484,0.030088999999999998,-0.002667,-0.027287,-47.25,-9.18,-19.25,1b
2019-07-15_160324:640,-0.388916,0.009125,-0.438751,0.027617000000000003,-0.0006219999999999999,-0.021184,-47.25,-9.18,-19.25,1b
2019-07-15_160324:660,-0.337067,-0.0035399999999999997,-0.416901,0.025176,0.00243,-0.016454,-47.25,-9.18,-19.25,1b
2019-07-15_160324:680,-0.31369,-0.017273,-0.379272,0.022581999999999998,0.0053289999999999995,-0.016728,-46.869999,-10.0,-21.18,1b
2019-07-15_160324:700,-0.279114,-0.023375999999999997,-0.36911,0.022002,0.003834,-0.021581,-46.869999,-10.0,-21.18,1b
2019-07-15_160324:720,-0.262329,-0.021851,-0.353333,0.021605000000000003,-0.000439,-0.023747,-47.68,-9.56,-18.870001000000002,1b
2019-07-15_160324:740,-0.28979499999999997,-0.019318000000000002,-0.354858,0.022002,-0.004437,-0.022557,-47.68,-9.56,-18.870001000000002,1b
2019-07-15_160324:760,-0.298431,-0.016753999999999998,-0.354858,0.02191,-0.005383,-0.023229,-47.68,-9.56,-18.870001000000002,1b
2019-07-15_160324:780,-0.28927600000000003,-0.011169,-0.35739099999999996,0.020995,-0.007031,-0.025334,-46.18,-10.0,-19.68,1b
2019-07-15_160324:800,-0.284698,-0.008636,-0.34875500000000004,0.019681999999999998,-0.006786,-0.025151,-46.18,-10.0,-19.68,1b
2019-07-15_160324:820,-0.280121,-0.010162000000000001,-0.34674099999999997,0.018279,-0.006176,-0.023412,-45.5,-10.25,-19.75,1b
2019-07-15_160324:840,-0.285217,-0.012177,-0.345215,0.017027,-0.005657,-0.023412,-45.5,-10.25,-19.75,1b
2019-07-15_160324:860,-0.284698,-0.013213999999999998,-0.347229,0.016416999999999998,-0.006786,-0.025151,-45.5,-10.25,-19.75,1b
2019-07-15_160324:880,-0.29895,-0.012177,-0.34368899999999997,0.016295,-0.007824,-0.027226,-45.5,-11.0,-20.059998999999998,1b
2019-07-15_160324:900,-0.316742,-0.010651,-0.342163,0.016416999999999998,-0.007702,-0.028539,-45.5,-11.0,-20.059998999999998,1b
2019-07-15_160324:920,-0.317749,-0.0025329999999999997,-0.33758499999999997,0.016538999999999998,-0.005718,-0.027745,-44.369999,-11.75,-21.75,1b
2019-07-15_160324:940,-0.316742,0.0025329999999999997,-0.338593,0.01602,-0.003368,-0.023747,-44.369999,-11.75,-21.75,1b
2019-07-15_160324:960,-0.319794,0.0025329999999999997,-0.34368899999999997,0.014494,-0.0031850000000000003,-0.020635,-44.369999,-11.75,-21.75,1b
2019-07-15_160324:980,-0.306061,0.0055850000000000006,-0.33197,0.011443,-0.0020559999999999997,-0.018529,-45.060001,-12.87,-20.059998999999998,1b
2019-07-15_160325:000,-0.30300900000000003,0.0035399999999999997,-0.328949,0.009367,-0.000683,-0.01621,-45.060001,-12.87,-20.059998999999998,1b
2019-07-15_160325:020,-0.312164,0.001007,-0.334534,0.006712,-4.2e-05,-0.015599000000000002,-44.369999,-12.87,-22.059998999999998,1b
2019-07-15_160325:040,-0.327423,0.001495,-0.33605999999999997,0.003752,0.000782,-0.014469999999999998,-44.369999,-12.87,-22.059998999999998,1b
2019-07-15_160325:060,-0.32995599999999997,-0.000488,-0.349792,0.001402,0.0030399999999999997,-0.011144,-44.369999,-12.87,-22.059998999999998,1b
2019-07-15_160325:080,-0.326904,0.0,-0.349792,-0.000429,0.006275,-0.008153,-44.369999,-12.87,-22.059998999999998,1b
2019-07-15_160325:100,-0.339111,-0.002014,-0.355377,-0.001955,0.008411,-0.006963,-44.369999,-12.87,-22.059998999999998,1b
2019-07-15_160325:120,-0.353333,0.002014,-0.365021,-0.003206,0.010395,-0.004979,-44.560001,-13.25,-22.059998999999998,1b
2019-07-15_160325:140,-0.35436999999999996,0.0035399999999999997,-0.364014,-0.005312,0.011982,-6.6e-05,-44.560001,-13.25,-22.059998999999998,1b
2019-07-15_160325:160,-0.361969,-0.002014,-0.38739,-0.006654,0.011401999999999999,0.00265,-44.560001,-13.25,-22.059998999999998,1b
2019-07-15_160325:180,-0.366058,0.0055850000000000006,-0.390961,-0.008119,0.010853,0.00020899999999999998,-44.25,-13.25,-21.0,1b
2019-07-15_160325:200,-0.437225,0.019318000000000002,-0.416901,-0.009187,0.009998,8.7e-05,-44.25,-13.25,-21.0,1b
2019-07-15_160325:220,-0.475372,0.019318000000000002,-0.441284,-0.009645,0.008717,0.001582,-44.560001,-14.0,-21.25,1b
2019-07-15_160325:240,-0.472321,0.029480000000000003,-0.415375,-0.010103000000000001,0.013630000000000001,0.0034130000000000002,-44.560001,-14.0,-21.25,1b
2019-07-15_160325:260,-0.475372,0.030487,-0.42758199999999996,-0.009553,0.014575999999999999,0.004817,-44.560001,-14.0,-21.25,1b
2019-07-15_160325:280,-0.42147799999999996,0.036072,-0.42248500000000005,-0.009706000000000001,0.01305,0.0017350000000000002,-45.0,-14.68,-20.559998999999998,1b
2019-07-15_160325:300,-0.404694,0.040161,-0.410797,-0.007387,0.012653,-0.0021100000000000003,-45.0,-14.68,-20.559998999999998,1b
2019-07-15_160325:320,-0.322845,0.058441,-0.38028,-0.003664,0.014422999999999998,-0.0066879999999999995,-45.0,-13.56,-20.059998999999998,1b
2019-07-15_160325:340,-0.326904,0.06149299999999999,-0.378265,0.000609,0.010975,-0.012943999999999999,-45.0,-13.56,-20.059998999999998,1b
2019-07-15_160325:360,-0.312653,0.078796,-0.375702,0.005187,0.007281999999999999,-0.016515000000000002,-45.0,-13.56,-20.059998999999998,1b
2019-07-15_160325:380,-0.312653,0.082855,-0.375702,0.009917,0.00243,-0.016515000000000002,-45.0,-14.0,-18.18,1b
2019-07-15_160325:400,-0.307068,0.083374,-0.37011700000000003,0.013884,-0.0007740000000000001,-0.018529,-45.0,-14.0,-18.18,1b
2019-07-15_160325:420,-0.312164,0.08590700000000001,-0.37112399999999995,0.017333,-0.002605,-0.019566999999999998,-44.25,-15.06,-18.18,1b
2019-07-15_160325:440,-0.315216,0.082855,-0.36554000000000003,0.020079,-0.002514,-0.01798,-44.25,-15.06,-18.18,1b
2019-07-15_160325:460,-0.309113,0.079803,-0.35943600000000003,0.021727,-0.0006219999999999999,-0.015263999999999998,-44.25,-15.06,-18.18,1b
2019-07-15_160325:480,-0.302002,0.077271,-0.348267,0.022307,0.0016359999999999999,-0.01209,-44.560001,-15.06,-19.0,1b
2019-07-15_160325:500,-0.296906,0.067596,-0.337067,0.022643,0.0036200000000000004,-0.009373999999999999,-44.560001,-15.06,-19.0,1b
2019-07-15_160325:520,-0.300964,0.054901,-0.322327,0.022917,0.004749000000000001,-0.009281999999999999,-44.5,-15.06,-19.75,1b
2019-07-15_160325:540,-0.304016,0.050842,-0.312164,0.023253,0.004871,-0.011418000000000001,-44.5,-15.06,-19.75,1b
2019-07-15_160325:560,-0.318756,0.045226999999999996,-0.304535,0.023772,0.004414,-0.014318,-44.5,-15.06,-19.75,1b
2019-07-15_160325:580,-0.320282,0.046752999999999996,-0.30300900000000003,0.024107,0.004139,-0.017308,-42.68,-14.68,-18.18,1b
2019-07-15_160325:600,-0.328949,0.047791,-0.30654899999999996,0.025176,0.003101,-0.019444,-42.68,-14.68,-18.18,1b
2019-07-15_160325:620,-0.33197,0.046752999999999996,-0.308594,0.026091000000000003,0.00182,-0.021184,-44.5,-16.18,-18.18,1b
2019-07-15_160325:640,-0.330475,0.047791,-0.307068,0.027037000000000002,0.0006900000000000001,-0.022283,-44.5,-16.18,-18.18,1b
2019-07-15_160325:660,-0.33758499999999997,0.047272,-0.305054,0.027708,-0.0006219999999999999,-0.022954,-44.5,-16.18,-18.18,1b
2019-07-15_160325:680,-0.346222,0.048798,-0.305542,0.028624,5e-05,-0.023503,-42.68,-16.870001000000002,-20.059998999999998,1b
2019-07-15_160325:700,-0.347748,0.049805,-0.309113,0.029294999999999998,0.000233,-0.023168,-42.68,-16.870001000000002,-20.059998999999998,1b
2019-07-15_160325:720,-0.344177,0.051330999999999995,-0.312653,0.030027999999999996,0.0006900000000000001,-0.022954,-42.25,-16.18,-19.75,1b
2019-07-15_160325:740,-0.350281,0.049316000000000006,-0.318756,0.030486000000000003,0.000843,-0.024419,-42.25,-16.18,-19.75,1b
2019-07-15_160325:760,-0.355896,0.047791,-0.323334,0.031279,0.0023079999999999997,-0.025365000000000002,-42.25,-16.18,-19.75,1b
2019-07-15_160325:780,-0.36554000000000003,0.042694,-0.321808,0.032225,0.005085,-0.025762,-43.060001,-16.18,-21.0,1b
2019-07-15_160325:800,-0.361481,0.042694,-0.32132,0.034056,0.007465,-0.027349000000000002,-43.060001,-16.18,-21.0,1b
2019-07-15_160325:820,-0.355377,0.047272,-0.324371,0.034819,0.008076,-0.028263999999999997,-41.869999,-16.870001000000002,-20.68,1b
2019-07-15_160325:840,-0.358917,0.056915,-0.327423,0.036467,0.007343000000000001,-0.028752,-41.869999,-16.870001000000002,-20.68,1b
2019-07-15_160325:860,-0.35436999999999996,0.058441,-0.329437,0.035795999999999994,0.005878,-0.0286,-41.869999,-16.870001000000002,-20.68,1b
2019-07-15_160325:880,-0.35943600000000003,0.05996699999999999,-0.330475,0.035216000000000004,0.0053289999999999995,-0.028356,-41.25,-16.5,-21.059998999999998,1b
2019-07-15_160325:900,-0.366058,0.06149299999999999,-0.332489,0.032469,0.004688,-0.028263999999999997,-41.25,-16.5,-21.059998999999998,1b
2019-07-15_160325:920,-0.409271,0.055389,-0.358429,0.031737,0.0035590000000000005,-0.028203,-40.869999,-16.870001000000002,-22.18,1b
2019-07-15_160325:940,-0.44995100000000005,0.043701,-0.389954,0.030302,0.0007509999999999999,-0.033238,-40.869999,-16.870001000000002,-22.18,1b
2019-07-15_160325:960,-0.453003,0.042175,-0.397064,0.030364,0.000843,-0.035985,-40.869999,-16.870001000000002,-22.18,1b
2019-07-15_160325:980,-0.45706199999999997,0.027954000000000003,-0.43670699999999996,0.030364,-0.00037799999999999997,-0.035985,-40.869999,-18.370001000000002,-21.870001000000002,1b
2019-07-15_160326:000,-0.433655,0.017792,-0.43011499999999997,0.030608,-0.0007740000000000001,-0.033849000000000004,-40.869999,-18.370001000000002,-21.870001000000002,1b
2019-07-15_160326:020,-0.390442,0.007111,-0.421967,0.030699,-0.0006219999999999999,-0.032994,-39.75,-19.18,-21.370001000000002,1b
2019-07-15_160326:040,-0.37011700000000003,-0.0030210000000000002,-0.425018,0.029692000000000003,-0.001202,-0.027745,-39.75,-19.18,-21.370001000000002,1b
2019-07-15_160326:060,-0.32995599999999997,-0.013213999999999998,-0.39502,0.028899,-0.0014759999999999999,-0.024144,-39.75,-19.18,-21.370001000000002,1b
2019-07-15_160326:080,-0.34265100000000004,-0.022369,-0.38739,0.028745999999999997,-0.001598,-0.023351,-38.68,-19.059998999999998,-24.559998999999998,1b
2019-07-15_160326:100,-0.32843,-0.022369,-0.374695,0.027647,-0.003368,-0.02567,-38.68,-19.059998999999998,-24.559998999999998,1b
2019-07-15_160326:120,-0.31369,-0.020325,-0.36911,0.027219999999999998,-0.005047,-0.026006,-30.25,-19.18,-22.559998999999998,1b
2019-07-15_160326:140,-0.309113,-0.020844,-0.368073,0.024962,-0.009106,-0.028477999999999996,-30.25,-19.18,-22.559998999999998,1b
2019-07-15_160326:160,-0.309113,-0.015228,-0.379272,0.02307,-0.012158,-0.032537,-30.25,-19.18,-22.559998999999998,1b
2019-07-15_160326:180,-0.300964,-0.010651,-0.378754,0.022734,-0.013226,-0.03452,-37.18,-19.75,-23.370001000000002,1b
2019-07-15_160326:200,-0.293335,-0.004547,-0.37011700000000003,0.020781,-0.012493,-0.036717,-37.18,-19.75,-23.370001000000002,1b
2019-07-15_160326:220,-0.293335,0.001007,-0.35943600000000003,0.020079,-0.010937,-0.036565,-36.5,-20.370001000000002,-24.559998999999998,1b
2019-07-15_160326:240,-0.28927600000000003,0.0025329999999999997,-0.35791,0.019347,-0.006634,-0.035588,-36.5,-20.370001000000002,-24.559998999999998,1b
2019-07-15_160326:260,-0.290283,0.005065999999999999,-0.35131799999999996,0.019072,-0.005779,-0.0351,-36.5,-20.370001000000002,-24.559998999999998,1b
2019-07-15_160326:280,-0.29180900000000004,0.008118,-0.34570300000000004,0.019681999999999998,-0.004192,-0.033116,-34.5,-20.75,-25.370001000000002,1b
2019-07-15_160326:300,-0.304535,0.013213999999999998,-0.3396,0.019988,-0.003399,-0.031011,-34.5,-20.75,-25.370001000000002,1b
2019-07-15_160326:320,-0.305054,0.019806,-0.33605999999999997,0.01895,-0.00346,-0.028935000000000002,-34.5,-20.75,-25.370001000000002,1b
2019-07-15_160326:340,-0.327911,0.024384,-0.334015,0.017546,-0.003704,-0.025029,-34.18,-21.5,-25.0,1b
2019-07-15_160326:360,-0.318268,0.024902,-0.32995599999999997,0.014677,-0.004192,-0.021428,-34.18,-21.5,-25.0,1b
2019-07-15_160326:380,-0.306061,0.024384,-0.318268,0.010924,-0.0023309999999999997,-0.018772999999999998,-38.560001,-22.18,-27.0,1b
2019-07-15_160326:400,-0.305542,0.019318000000000002,-0.325897,0.006987,-0.0014759999999999999,-0.01621,-38.560001,-22.18,-27.0,1b
2019-07-15_160326:420,-0.307587,0.015228,-0.33758499999999997,0.0036,-0.0023309999999999997,-0.015203,-38.560001,-22.18,-27.0,1b
2019-07-15_160326:440,-0.330963,0.012695,-0.34368899999999997,0.001219,-0.003857,-0.014409,-32.25,-21.75,-25.370001000000002,1b
2019-07-15_160326:460,-0.331482,0.012695,-0.352325,0.000151,-0.004894,-0.013005000000000001,-32.25,-21.75,-25.370001000000002,1b
2019-07-15_160326:480,-0.33605999999999997,0.014740000000000001,-0.353333,-0.0005200000000000001,-0.0024530000000000003,-0.010808,-31.18,-22.5,-26.559998999999998,1b
2019-07-15_160326:500,-0.33758499999999997,0.020844,-0.360962,-0.001039,0.000294,-0.008153,-31.18,-22.5,-26.559998999999998,1b
2019-07-15_160326:520,-0.355377,0.023375999999999997,-0.365021,-0.0023510000000000002,0.001484,-0.006352,-31.18,-22.5,-26.559998999999998,1b
2019-07-15_160326:540,-0.360962,0.026427999999999997,-0.35943600000000003,-0.003999,0.0030399999999999997,-0.004186,-29.68,-22.870001000000002,-26.18,1b
2019-07-15_160326:560,-0.35943600000000003,0.025908999999999998,-0.361481,-0.005586,0.00536,-0.002202,-29.68,-22.870001000000002,-26.18,1b
2019-07-15_160326:580,-0.361481,0.031006,-0.373688,-0.008028,0.005878,-0.002904,-31.25,-22.870001000000002,-27.0,1b
2019-07-15_160326:600,-0.374695,0.036072,-0.379791,-0.008791,0.005665,-0.002934,-31.25,-22.870001000000002,-27.0,1b
2019-07-15_160326:620,-0.40011599999999997,0.044739,-0.389954,-0.010561,0.00893,-0.0011949999999999999,-31.25,-22.870001000000002,-27.0,1b
2019-07-15_160326:640,-0.42758199999999996,0.045226999999999996,-0.420441,-0.011446,0.009448999999999999,0.000789,-30.75,-23.25,-26.18,1b
2019-07-15_160326:660,-0.420441,0.047791,-0.41586300000000004,-0.011507,0.011311,0.003169,-30.75,-23.25,-26.18,1b
2019-07-15_160326:680,-0.431641,0.058960000000000005,-0.417389,-0.01111,0.014515,0.005275,-31.18,-24.0,-25.870001000000002,1b
2019-07-15_160326:700,-0.44891400000000004,0.056427,-0.45095799999999997,-0.010561,0.009785,0.00381,-31.18,-24.0,-25.870001000000002,1b
2019-07-15_160326:720,-0.408752,0.066071,-0.41232299999999994,-0.010286,0.00951,0.00323,-31.18,-24.0,-25.870001000000002,1b
2019-07-15_160326:740,-0.373688,0.063538,-0.396057,-0.007722,0.013111000000000001,0.006068,-30.870001000000002,-24.370001000000002,-25.059998999999998,1b
2019-07-15_160326:760,-0.31012,0.063019,-0.368591,-0.005464,0.017078,0.003901,-30.870001000000002,-24.370001000000002,-25.059998999999998,1b
2019-07-15_160326:780,-0.29284699999999997,0.063019,-0.36248800000000003,-0.0025039999999999997,0.014819999999999998,-0.001531,-32.25,-24.0,-24.559998999999998,1b
2019-07-15_160326:800,-0.29284699999999997,0.064545,-0.349274,0.001158,0.011311,-0.005254,-32.25,-24.0,-24.559998999999998,1b
2019-07-15_160326:820,-0.308594,0.067108,-0.349274,0.005675,0.00655,-0.006841,-32.25,-24.0,-24.559998999999998,1b
2019-07-15_160326:840,-0.316223,0.071167,-0.348267,0.0101,0.004536,-0.008945999999999999,-32.0,-24.0,-25.0,1b
2019-07-15_160326:860,-0.316742,0.072174,-0.353333,0.014372,0.0031620000000000003,-0.011876000000000001,-32.0,-24.0,-25.0,1b
2019-07-15_160326:880,-0.315216,0.075745,-0.35436999999999996,0.018279,0.001423,-0.012822,-31.68,-24.370001000000002,-24.559998999999998,1b
2019-07-15_160326:900,-0.315216,0.074738,-0.355377,0.02072,-0.001324,-0.011876000000000001,-31.68,-24.370001000000002,-24.559998999999998,1b
2019-07-15_160326:920,-0.312653,0.068634,-0.347229,0.023038999999999997,-0.002605,-0.010747,-31.68,-24.370001000000002,-24.559998999999998,1b
2019-07-15_160326:940,-0.310638,0.063538,-0.338074,0.024321000000000002,-0.001385,-0.009679,-33.0,-24.75,-24.559998999999998,1b
2019-07-15_160326:960,-0.305542,0.058960000000000005,-0.327423,0.025115000000000002,0.000172,-0.009434999999999999,-33.0,-24.75,-24.559998999999998,1b
2019-07-15_160326:980,-0.300964,0.056427,-0.32132,0.025786,0.001301,-0.009770000000000001,-30.870001000000002,-23.68,-25.0,1b
2019-07-15_160327:000,-0.305542,0.050323,-0.317749,0.026366000000000004,0.00035499999999999996,-0.011022,-30.870001000000002,-23.68,-25.0,1b
2019-07-15_160327:020,-0.313171,0.050323,-0.314697,0.026823000000000003,-0.001446,-0.012486,-30.870001000000002,-23.68,-25.0,1b
2019-07-15_160327:040,-0.333496,0.049316000000000006,-0.312653,0.027373,-0.002972,-0.013951,-30.870001000000002,-23.68,-25.0,1b
2019-07-15_160327:060,-0.340118,0.046752999999999996,-0.31369,0.027617000000000003,-0.00346,-0.01566,-30.870001000000002,-23.68,-25.0,1b
2019-07-15_160327:080,-0.341644,0.045745999999999995,-0.311127,0.028288,-0.0031850000000000003,-0.017064,-29.75,-23.0,-27.0,1b
2019-07-15_160327:100,-0.334534,0.042694,-0.310638,0.028685000000000002,-0.0037649999999999997,-0.017705000000000002,-29.75,-23.0,-27.0,1b
2019-07-15_160327:120,-0.329437,0.039642000000000004,-0.309601,0.029173,-0.00465,-0.018712,-29.75,-23.0,-27.0,1b
2019-07-15_160327:140,-0.34317,0.036072,-0.316742,0.03015,-0.004833,-0.020452,-30.18,-22.559998999999998,-27.370001000000002,1b
2019-07-15_160327:160,-0.336548,0.035583,-0.322327,0.031157,-0.0027890000000000002,-0.022678999999999998,-30.18,-22.559998999999998,-27.370001000000002,1b
2019-07-15_160327:180,-0.337067,0.036591000000000005,-0.335541,0.032469,-0.0014759999999999999,-0.025029,-28.559998999999998,-22.559998999999998,-27.75,1b
2019-07-15_160327:200,-0.34063699999999997,0.037108999999999996,-0.341644,0.03427,0.00035499999999999996,-0.027989,-28.559998999999998,-22.559998999999998,-27.75,1b
2019-07-15_160327:220,-0.350281,0.042694,-0.353333,0.035948,0.0032229999999999997,-0.0304,-28.559998999999998,-22.559998999999998,-27.75,1b
2019-07-15_160327:240,-0.345215,0.042175,-0.36248800000000003,0.037779,0.0070079999999999995,-0.032201,-28.559998999999998,-22.559998999999998,-28.559998999999998,1b
2019-07-15_160327:260,-0.361969,0.045745999999999995,-0.368591,0.038603,0.009327,-0.033055,-28.559998999999998,-22.559998999999998,-28.559998999999998,1b
2019-07-15_160327:280,-0.352325,0.044739,-0.378265,0.039854,0.010517,-0.034184,-28.25,-21.870001000000002,-29.68,1b
2019-07-15_160327:300,-0.348267,0.045226999999999996,-0.381805,0.039458,0.009448999999999999,-0.0351,-28.25,-21.870001000000002,-29.68,1b
2019-07-15_160327:320,-0.374176,0.047791,-0.391479,0.039182999999999996,0.010395,-0.034123,-28.25,-21.870001000000002,-29.68,1b
2019-07-15_160327:340,-0.41943400000000003,0.044739,-0.420959,0.037870999999999995,0.0071909999999999995,-0.034245,-26.75,-21.870001000000002,-29.5,1b
2019-07-15_160327:360,-0.44433599999999995,0.03302,-0.443329,0.036345,0.004078,-0.037175,-26.75,-21.870001000000002,-29.5,1b
2019-07-15_160327:380,-0.445862,0.026917,-0.43927,0.035338,0.006397,-0.039678,-27.059998999999998,-20.75,-31.0,1b
2019-07-15_160327:400,-0.43823199999999995,0.020325,-0.457581,0.034544,0.006397,-0.040501999999999996,-27.059998999999998,-20.75,-31.0,1b
2019-07-15_160327:420,-0.406219,0.010162000000000001,-0.44232200000000005,0.03369,0.006,-0.040074,-27.059998999999998,-20.75,-31.0,1b
2019-07-15_160327:440,-0.406738,0.006592,-0.429596,0.032561,0.007220999999999999,-0.038152,-26.370001000000002,-21.059998999999998,-31.0,1b
2019-07-15_160327:460,-0.359955,-0.0055850000000000006,-0.389435,0.031157,0.009113,-0.034917000000000004,-26.370001000000002,-21.059998999999998,-31.0,1b
2019-07-15_160327:480,-0.333496,-0.009125,-0.355896,0.029479,0.012531,-0.031804,-26.059998999999998,-21.5,-30.25,1b
2019-07-15_160327:500,-0.326385,-0.020325,-0.338593,0.027953,0.011798999999999999,-0.030338999999999998,-26.059998999999998,-21.5,-30.25,1b
2019-07-15_160327:520,-0.304535,-0.025908999999999998,-0.318268,0.027312,0.008259,-0.0304,-26.059998999999998,-21.5,-30.25,1b
2019-07-15_160327:540,-0.300964,-0.027435,-0.318268,0.026762,0.004291,-0.0304,-25.68,-20.75,-30.68,1b
2019-07-15_160327:560,-0.28369099999999997,-0.028961,-0.32132,0.026639999999999997,-0.000164,-0.030338999999999998,-25.68,-20.75,-30.68,1b
2019-07-15_160327:580,-0.284698,-0.030487,-0.334015,0.026091000000000003,-0.006023,-0.031713,-25.25,-20.68,-31.0,1b
2019-07-15_160327:600,-0.282654,-0.026427999999999997,-0.34063699999999997,0.025693999999999998,-0.010815,-0.033055,-25.25,-20.68,-31.0,1b
2019-07-15_160327:620,-0.286224,-0.023375999999999997,-0.348267,0.025511000000000002,-0.012554000000000001,-0.033238,-25.25,-20.68,-31.0,1b
2019-07-15_160327:640,-0.285706,-0.020325,-0.35180700000000004,0.025237,-0.012095999999999999,-0.033299,-24.18,-20.68,-31.75,1b
2019-07-15_160327:660,-0.29284699999999997,-0.015747,-0.356903,0.024779,-0.012493,-0.032842,-24.18,-20.68,-31.75,1b
2019-07-15_160327:680,-0.301483,-0.011169,-0.358429,0.023802,-0.01289,-0.031529,-23.870001000000002,-20.25,-33.369999,1b
2019-07-15_160327:700,-0.32486,-0.009125,-0.355896,0.022397999999999998,-0.012341,-0.030064999999999998,-23.870001000000002,-20.25,-33.369999,1b
2019-07-15_160327:720,-0.329437,-0.006592,-0.35131799999999996,0.020659,-0.009167,-0.027806,-23.870001000000002,-20.25,-33.369999,1b
2019-07-15_160327:740,-0.32132,-0.004059,-0.350281,0.018675,-0.005961999999999999,-0.024541,-22.0,-20.68,-32.75,1b
2019-07-15_160327:760,-0.322327,-0.0030210000000000002,-0.35131799999999996,0.015227000000000001,-0.005444,-0.021886000000000003,-22.0,-20.68,-32.75,1b
2019-07-15_160327:780,-0.314178,-0.004547,-0.344696,0.011565,-0.004589,-0.020513,-21.68,-20.25,-33.5,1b
2019-07-15_160327:800,-0.309113,-0.012177,-0.344177,0.008452,-0.003002,-0.019902,-21.68,-20.25,-33.5,1b
2019-07-15_160327:820,-0.308594,-0.015747,-0.348267,0.005919,-0.0021780000000000002,-0.021031,-21.68,-20.25,-33.5,1b
2019-07-15_160327:840,-0.319794,-0.01828,-0.353333,0.00479,-0.0023309999999999997,-0.021092,-21.25,-19.870001000000002,-34.25,1b
2019-07-15_160327:860,-0.32843,-0.019318000000000002,-0.352844,0.004454,-0.001263,-0.019383,-21.25,-19.870001000000002,-34.25,1b
2019-07-15_160327:880,-0.336548,-0.016266,-0.353851,0.004393,0.002094,-0.018865,-20.870001000000002,-20.68,-33.5,1b
2019-07-15_160327:900,-0.337067,-0.015228,-0.35791,0.004607,0.007404000000000001,-0.017858000000000002,-20.870001000000002,-20.68,-33.5,1b
2019-07-15_160327:920,-0.340118,-0.009644,-0.365021,0.004485,0.011249,-0.01621,-20.870001000000002,-20.68,-33.5,1b
2019-07-15_160327:940,-0.360962,-0.008118,-0.36911,0.004057,0.012653,-0.01505,-20.559998999999998,-20.559998999999998,-33.869999,1b
2019-07-15_160327:960,-0.381805,-0.004547,-0.370636,0.003081,0.014422999999999998,-0.014134,-20.559998999999998,-20.559998999999998,-33.869999,1b
2019-07-15_160327:980,-0.378754,0.0,-0.378754,0.003691,0.015827,-0.013799,-19.75,-20.18,-33.5,1b
2019-07-15_160328:000,-0.397583,0.007111,-0.390442,0.003935,0.016499,-0.016454,-19.75,-20.18,-33.5,1b
2019-07-15_160328:020,-0.41842700000000005,0.024384,-0.405212,0.00421,0.014819999999999998,-0.017583,-19.75,-20.18,-33.5,1b
2019-07-15_160328:040,-0.44027700000000003,0.035583,-0.412811,0.003935,0.011982,-0.015447,-20.18,-20.559998999999998,-34.25,1b
2019-07-15_160328:060,-0.461639,0.041687,-0.425018,0.002623,0.009144,-0.012822,-20.18,-20.559998999999998,-34.25,1b
2019-07-15_160328:080,-0.432159,0.051330999999999995,-0.42858900000000005,0.002074,0.008198,-0.01154,-21.25,-20.870001000000002,-34.25,1b
2019-07-15_160328:100,-0.394012,0.058441,-0.423004,0.002348,0.007679000000000001,-0.012334,-21.25,-20.870001000000002,-34.25,1b
2019-07-15_160328:120,-0.340118,0.071686,-0.41333000000000003,0.00421,0.008717,-0.015996,-21.25,-20.870001000000002,-34.25,1b
2019-07-15_160328:140,-0.338593,0.08081100000000001,-0.40774499999999997,0.007201000000000001,0.010181,-0.019841,-21.68,-21.25,-32.75,1b
2019-07-15_160328:160,-0.324371,0.09454299999999999,-0.388428,0.010375,0.011005,-0.021366999999999997,-21.68,-21.25,-32.75,1b
2019-07-15_160328:180,-0.32132,0.097107,-0.370636,0.012633,0.011768,-0.018132,-20.870001000000002,-21.68,-32.75,1b
2019-07-15_160328:200,-0.296906,0.09454299999999999,-0.356903,0.016142,0.010914,-0.017247,-20.870001000000002,-21.68,-32.75,1b
2019-07-15_160328:220,-0.281647,0.10116599999999999,-0.3508,0.018462,0.008320000000000001,-0.020238,-20.870001000000002,-21.68,-32.75,1b
2019-07-15_160328:240,-0.290802,0.102692,-0.349274,0.020659,0.005146,-0.020787,-21.25,-22.0,-33.060001,1b
2019-07-15_160328:260,-0.296906,0.097107,-0.35436999999999996,0.021849,0.001972,-0.018498,-21.25,-22.0,-33.060001,1b
2019-07-15_160328:280,-0.28927600000000003,0.09353600000000001,-0.346222,0.022002,0.0007509999999999999,-0.016332,-21.25,-21.559998999999998,-32.75,1b
2019-07-15_160328:300,-0.29232800000000003,0.084381,-0.341125,0.022246000000000002,5e-05,-0.013127000000000002,-21.25,-21.559998999999998,-32.75,1b
2019-07-15_160328:320,-0.29742399999999997,0.077271,-0.337067,0.022307,5e-05,-0.010533,-21.25,-21.559998999999998,-32.75,1b
2019-07-15_160328:340,-0.303528,0.070648,-0.32843,0.022521,0.000294,-0.009953,-21.25,-21.18,-33.869999,1b
2019-07-15_160328:360,-0.320282,0.065063,-0.327911,0.023313999999999998,-0.000225,-0.010533,-21.25,-21.18,-33.869999,1b
2019-07-15_160328:380,-0.319794,0.066589,-0.319275,0.024107,-0.0005610000000000001,-0.011082999999999999,-19.75,-20.5,-33.060001,1b
2019-07-15_160328:400,-0.327911,0.06253099999999999,-0.312653,0.024565,-0.0011099999999999999,-0.010411,-19.75,-20.5,-33.060001,1b
2019-07-15_160328:420,-0.330963,0.060486,-0.305542,0.024657,-0.001385,-0.010228000000000001,-19.75,-20.5,-33.060001,1b
2019-07-15_160328:440,-0.33758499999999997,0.054901,-0.301483,0.024596,-0.00172,-0.010472,-20.68,-19.68,-34.68,1b
2019-07-15_160328:460,-0.326385,0.049316000000000006,-0.296387,0.024779,-0.001324,-0.011205,-20.68,-19.68,-34.68,1b
2019-07-15_160328:480,-0.31369,0.046752999999999996,-0.288269,0.025725,-0.001598,-0.012395,-19.870001000000002,-19.0,-35.5,1b
2019-07-15_160328:500,-0.324371,0.042694,-0.293335,0.026579000000000002,-0.003368,-0.014531,-19.870001000000002,-19.0,-35.5,1b
2019-07-15_160328:520,-0.339111,0.046265,-0.302002,0.028105,-0.005047,-0.017186,-19.870001000000002,-19.0,-35.5,1b
2019-07-15_160328:540,-0.34265100000000004,0.055389,-0.307068,0.029752999999999998,-0.005901,-0.018529,-19.559998999999998,-17.870001000000002,-33.869999,1b
2019-07-15_160328:560,-0.347748,0.060486,-0.315704,0.030638,-0.00584,-0.018987,-19.559998999999998,-17.870001000000002,-33.869999,1b
2019-07-15_160328:580,-0.35436999999999996,0.072174,-0.330475,0.031035000000000004,-0.00642,-0.019841,-18.5,-17.870001000000002,-35.060001,1b
2019-07-15_160328:600,-0.355896,0.076263,-0.333496,0.029752999999999998,-0.007763,-0.019444,-18.5,-17.870001000000002,-35.060001,1b
2019-07-15_160328:620,-0.367584,0.079803,-0.346222,0.028685000000000002,-0.006756,-0.017125,-18.5,-17.870001000000002,-35.060001,1b
2019-07-15_160328:640,-0.367584,0.075745,-0.349792,0.026518,-0.004894,-0.015477000000000001,-18.059998999999998,-17.559998999999998,-35.869999,1b
2019-07-15_160328:660,-0.374176,0.0737,-0.353851,0.024657,-0.00285,-0.014256,-18.059998999999998,-17.559998999999998,-35.869999,1b
2019-07-15_160328:680,-0.368073,0.065063,-0.36044299999999996,0.023191999999999997,-0.000286,-0.013005000000000001,-17.68,-17.18,-35.869999,1b
2019-07-15_160328:700,-0.36911,0.060486,-0.363007,0.021605000000000003,0.000843,-0.012425,-17.68,-17.18,-35.869999,1b
2019-07-15_160328:720,-0.385376,0.055389,-0.372162,0.020415,0.001911,-0.011601,-17.68,-17.18,-35.869999,1b
2019-07-15_160328:740,-0.381805,0.051849,-0.37674,0.019347,0.004627,-0.010015000000000001,-17.68,-16.25,-37.060001,1b
2019-07-15_160328:760,-0.40823400000000004,0.043213,-0.399597,0.018462,0.006885,-0.010625,-17.68,-16.25,-37.060001,1b
2019-07-15_160328:780,-0.43670699999999996,0.036072,-0.417908,0.017728999999999998,0.006275,-0.012883000000000002,-16.68,-16.0,-37.060001,1b
2019-07-15_160328:800,-0.42758199999999996,0.033539,-0.421967,0.017668,0.006611,-0.015447,-16.68,-16.0,-37.060001,1b
2019-07-15_160328:820,-0.435699,0.018799,-0.463654,0.017363,0.003742,-0.0174,-16.68,-16.0,-37.060001,1b
2019-07-15_160328:840,-0.41232299999999994,0.016753999999999998,-0.444855,0.017485,0.001575,-0.018834,-17.68,-15.56,-35.869999,1b
2019-07-15_160328:860,-0.365021,0.006592,-0.43518100000000004,0.016478,0.0026739999999999997,-0.017125,-17.68,-15.56,-35.869999,1b
2019-07-15_160328:880,-0.335022,-0.005065999999999999,-0.433655,0.014311,0.0032229999999999997,-0.014012,-13.68,-15.25,-36.68,1b
2019-07-15_160328:900,-0.300964,-0.015228,-0.399597,0.012297,0.002216,-0.011266,-13.68,-15.25,-36.68,1b
2019-07-15_160328:920,-0.325897,-0.024384,-0.390961,0.0119,0.003742,-0.012029,-13.68,-15.25,-36.68,1b
2019-07-15_160328:940,-0.305054,-0.022858,-0.37316900000000003,0.013182,0.005756,-0.017186,-16.68,-13.75,-35.369999,1b
2019-07-15_160328:960,-0.28369099999999997,-0.017273,-0.353333,0.014494,0.005543,-0.019902,-16.68,-13.75,-35.369999,1b
2019-07-15_160328:980,-0.293335,-0.011687999999999999,-0.35638400000000003,0.017149,0.002827,-0.01859,-16.68,-13.75,-34.25,1b
2019-07-15_160329:000,-0.295898,-0.004059,-0.359955,0.017027,0.001911,-0.01917,-16.68,-13.75,-34.25,1b
2019-07-15_160329:020,-0.296387,0.001007,-0.37011700000000003,0.016234000000000002,-0.004437,-0.020574000000000002,-16.68,-13.75,-34.25,1b
2019-07-15_160329:040,-0.294373,0.008118,-0.36044299999999996,0.014830000000000001,-0.0071530000000000005,-0.018834,-15.87,-14.5,-35.5,1b
2019-07-15_160329:060,-0.29538000000000003,0.009125,-0.356903,0.013152,-0.008434,-0.016606,-15.87,-14.5,-35.5,1b
2019-07-15_160329:080,-0.28775,0.009644,-0.3508,0.011229000000000001,-0.008099,-0.014866999999999998,-16.25,-13.25,-36.68,1b
2019-07-15_160329:100,-0.296906,0.008118,-0.348267,0.009856,-0.007427,-0.014318,-16.25,-13.25,-36.68,1b
2019-07-15_160329:120,-0.297913,0.010162000000000001,-0.34570300000000004,0.008513,-0.006847,-0.014072999999999999,-16.25,-13.25,-36.68,1b
2019-07-15_160329:140,-0.307587,0.011169,-0.34063699999999997,0.0075060000000000005,-0.005657,-0.012395,-15.18,-13.25,-36.68,1b
2019-07-15_160329:160,-0.310638,0.011169,-0.33197,0.006804000000000001,-0.004528,-0.010808,-15.18,-13.25,-36.68,1b
2019-07-15_160329:180,-0.323334,0.013213999999999998,-0.32486,0.005461,-0.003857,-0.009496,-19.870001000000002,-13.25,-35.060001,1b
2019-07-15_160329:200,-0.31012,0.017273,-0.309601,0.0038740000000000003,-0.0023309999999999997,-0.00678,-19.870001000000002,-13.25,-35.060001,1b
2019-07-15_160329:220,-0.293854,0.016753999999999998,-0.306061,0.0016769999999999999,-0.0005,-0.003575,-19.870001000000002,-13.25,-35.060001,1b
2019-07-15_160329:240,-0.307068,0.012177,-0.320282,-0.0007639999999999999,-0.0024530000000000003,-0.002568,-12.56,-12.5,-35.5,1b
2019-07-15_160329:260,-0.318756,0.010162000000000001,-0.325897,-0.002748,-0.004437,-0.0016530000000000002,-12.56,-12.5,-35.5,1b
2019-07-15_160329:280,-0.330475,0.007599,-0.3396,-0.00406,-0.0055049999999999995,0.000728,-14.06,-12.56,-36.68,1b
2019-07-15_160329:300,-0.32843,0.004547,-0.345215,-0.005464,-0.005627,0.0032909999999999997,-14.06,-12.56,-36.68,1b
2019-07-15_160329:320,-0.341644,0.0035399999999999997,-0.34875500000000004,-0.0068980000000000005,-0.004589,0.006007,-14.06,-12.56,-36.68,1b
2019-07-15_160329:340,-0.360962,0.0025329999999999997,-0.35943600000000003,-0.008424,-0.002911,0.007594,-14.06,-13.0,-36.25,1b
2019-07-15_160329:360,-0.372162,0.0035399999999999997,-0.355896,-0.010683,5e-05,0.007136,-14.06,-13.0,-36.25,1b
2019-07-15_160329:380,-0.384338,0.0,-0.35638400000000003,-0.012239,0.0031620000000000003,0.006343,-13.0,-14.0,-35.060001,1b
2019-07-15_160329:400,-0.379272,-0.000488,-0.349792,-0.013277,0.006672,0.005336,-13.0,-14.0,-35.060001,1b
2019-07-15_160329:420,-0.379791,0.0,-0.3508,-0.013216,0.008411,0.004817,-13.0,-14.0,-35.060001,1b
2019-07-15_160329:440,-0.374695,0.000488,-0.35739099999999996,-0.012971000000000002,0.008015000000000001,0.004603,-12.56,-13.68,-35.060001,1b
2019-07-15_160329:460,-0.36911,0.009125,-0.36706500000000003,-0.012544,0.00713,0.006068,-12.56,-13.68,-35.060001,1b
2019-07-15_160329:480,-0.375702,0.016753999999999998,-0.373688,-0.012575,0.007618000000000001,0.008052,-13.25,-14.37,-35.060001,1b
2019-07-15_160329:500,-0.423004,0.029968,-0.391968,-0.01407,0.0053289999999999995,0.010341,-13.25,-14.37,-35.060001,1b
2019-07-15_160329:520,-0.42453,0.039642000000000004,-0.384338,-0.016541999999999998,0.008990999999999999,0.013118000000000001,-13.25,-14.37,-35.060001,1b
2019-07-15_160329:540,-0.415375,0.040161,-0.381317,-0.018251,0.012195999999999999,0.016353,-11.87,-14.0,-34.68,1b
2019-07-15_160329:560,-0.406738,0.038635,-0.44384799999999996,-0.019136,0.005695,0.014033000000000002,-11.87,-14.0,-34.68,1b
2019-07-15_160329:580,-0.396057,0.044739,-0.431122,-0.019929,0.003803,0.011439,-14.5,-14.0,-34.25,1b
2019-07-15_160329:600,-0.352325,0.051330999999999995,-0.40368699999999996,-0.018129,0.006732999999999999,0.011134,-14.5,-14.0,-34.25,1b
2019-07-15_160329:620,-0.335541,0.053863999999999995,-0.390442,-0.016084,0.010334000000000001,0.008265,-14.5,-14.0,-34.25,1b
2019-07-15_160329:640,-0.313171,0.058960000000000005,-0.406738,-0.013612,0.005146,0.0021920000000000004,-14.06,-14.37,-34.68,1b
2019-07-15_160329:660,-0.304535,0.06149299999999999,-0.398071,-0.010164,-0.001782,-0.002049,-14.06,-14.37,-34.68,1b
2019-07-15_160329:680,-0.310638,0.06149299999999999,-0.401642,-0.005983,-0.007763,-0.004979,-14.06,-14.75,-33.5,1b
2019-07-15_160329:700,-0.323853,0.061005,-0.391479,-0.002229,-0.008678,-0.0065049999999999995,-14.06,-14.75,-33.5,1b
2019-07-15_160329:720,-0.330475,0.05996699999999999,-0.382324,0.001402,-0.0062369999999999995,-0.005651,-14.06,-14.75,-33.5,1b
2019-07-15_160329:740,-0.318268,0.058441,-0.377228,0.0042710000000000005,-0.0031850000000000003,-0.000981,-13.68,-15.18,-33.060001,1b
2019-07-15_160329:760,-0.307587,0.059479,-0.36044299999999996,0.005187,-0.000225,0.004878,-13.68,-15.18,-33.060001,1b
2019-07-15_160329:780,-0.294373,0.053375,-0.342163,0.005614,0.001972,0.0077469999999999995,-13.0,-15.87,-33.5,1b
2019-07-15_160329:800,-0.300476,0.045745999999999995,-0.329437,0.00598,0.003803,0.005672,-13.0,-15.87,-33.5,1b
2019-07-15_160329:820,-0.304535,0.042694,-0.311646,0.00601,0.004414,0.002589,-13.0,-15.87,-33.5,1b
2019-07-15_160329:840,-0.30249000000000004,0.039124,-0.297913,0.006468000000000001,0.004536,0.001582,-13.25,-15.18,-33.060001,1b
2019-07-15_160329:860,-0.29895,0.036591000000000005,-0.29232800000000003,0.007781000000000001,0.0023079999999999997,-0.001805,-13.25,-15.18,-33.060001,1b
2019-07-15_160329:880,-0.306061,0.038635,-0.297913,0.008727,0.001545,-0.002263,-14.06,-13.68,-32.25,1b
2019-07-15_160329:900,-0.31012,0.041168,-0.30654899999999996,0.011045999999999999,-0.0016589999999999999,-0.002385,-14.06,-13.68,-32.25,1b
2019-07-15_160329:920,-0.327911,0.042694,-0.316742,0.011565,-0.00404,-0.004064,-14.06,-13.68,-32.25,1b
2019-07-15_160329:940,-0.338593,0.045745999999999995,-0.320801,0.011839,-0.004376,-0.005376,-13.37,-13.68,-32.75,1b
2019-07-15_160329:960,-0.340118,0.051330999999999995,-0.315216,0.012175,-0.00172,-0.008214,-13.37,-13.68,-32.75,1b
2019-07-15_160329:980,-0.331482,0.058960000000000005,-0.311127,0.012358,0.00038500000000000003,-0.008945999999999999,-13.75,-13.25,-33.060001,1b
2019-07-15_160330:000,-0.334015,0.061005,-0.31723,0.012053,0.003406,-0.01035,-13.75,-13.25,-33.060001,1b
2019-07-15_160330:020,-0.352325,0.062012,-0.326385,0.012175,0.005482,-0.010747,-13.75,-13.25,-33.060001,1b
