timestamp,AccX,AccY,AccZ,GyroX,GyroY,GyroZ,MagX,MagY,MagZ,Activity
2019-07-15_141050:960,-0.324371,-0.021332,-0.399109,-0.0038770000000000002,0.000446,0.004756,-28.870001000000002,23.5,-28.25,3b
2019-07-15_141050:980,-0.335022,-0.022369,-0.393494,-0.0028399999999999996,-0.00034700000000000003,0.0017350000000000002,-28.870001000000002,23.5,-28.25,3b
2019-07-15_141051:000,-0.34674099999999997,-0.008636,-0.394531,-0.001955,0.0005070000000000001,0.0035659999999999997,-28.870001000000002,22.25,-27.5,3b
2019-07-15_141051:020,-0.318268,-0.008118,-0.389435,-0.003389,-0.0006219999999999999,0.004603,-28.870001000000002,22.25,-27.5,3b
2019-07-15_141051:040,-0.334015,-0.021851,-0.40063499999999996,-0.0038770000000000002,-0.001263,0.002254,-28.18,22.25,-28.68,3b
2019-07-15_141051:060,-0.331482,-0.022369,-0.401123,-0.0033280000000000002,-0.0006219999999999999,0.001796,-28.18,22.25,-28.68,3b
2019-07-15_141051:080,-0.334015,-0.025908999999999998,-0.40063499999999996,-0.0026260000000000003,0.00038500000000000003,0.001521,-28.18,22.25,-28.68,3b
2019-07-15_141051:100,-0.330963,-0.026917,-0.399109,-0.001039,0.001545,0.001185,-29.559998999999998,23.059998999999998,-28.68,3b
2019-07-15_141051:120,-0.32843,-0.026917,-0.39502,0.000609,0.001759,0.0016129999999999999,-29.559998999999998,23.059998999999998,-28.68,3b
2019-07-15_141051:140,-0.321808,-0.027435,-0.39502,0.0014939999999999999,0.001697,0.002315,-28.5,22.25,-29.5,3b
2019-07-15_141051:160,-0.322845,-0.027435,-0.393494,0.0036609999999999998,0.000294,0.0031079999999999997,-28.5,22.25,-29.5,3b
2019-07-15_141051:180,-0.326385,-0.024384,-0.39859,0.00421,-0.0008349999999999999,0.002833,-28.5,22.25,-29.5,3b
2019-07-15_141051:200,-0.334015,-0.022858,-0.397064,0.004057,-0.00034700000000000003,0.0028940000000000003,-28.5,23.059998999999998,-29.059998999999998,3b
2019-07-15_141051:220,-0.335541,-0.020325,-0.398071,0.002623,0.0007509999999999999,0.003169,-28.5,23.059998999999998,-29.059998999999998,3b
2019-07-15_141051:240,-0.331482,-0.020844,-0.397064,0.002074,0.0011480000000000001,0.003078,-28.5,23.059998999999998,-29.059998999999998,3b
2019-07-15_141051:260,-0.33197,-0.022369,-0.394531,0.000884,0.00124,0.00265,-28.5,22.0,-29.5,3b
2019-07-15_141051:280,-0.334015,-0.026427999999999997,-0.390442,-0.000917,0.000843,0.0028940000000000003,-28.5,22.0,-29.5,3b
2019-07-15_141051:300,-0.34063699999999997,-0.027954000000000003,-0.390442,-0.001436,0.0010869999999999999,0.0031079999999999997,-28.5,23.75,-28.68,3b
2019-07-15_141051:320,-0.34317,-0.028961,-0.38739,-0.003114,0.001423,0.003078,-28.5,23.75,-28.68,3b
2019-07-15_141051:340,-0.34063699999999997,-0.029968,-0.393494,-0.003725,0.00182,0.002955,-28.5,23.75,-28.68,3b
2019-07-15_141051:360,-0.33605999999999997,-0.029480000000000003,-0.391479,-0.004732,0.001575,0.001857,-29.25,23.5,-29.059998999999998,3b
2019-07-15_141051:380,-0.330475,-0.023375999999999997,-0.392487,-0.004732,0.001484,0.001674,-29.25,23.5,-29.059998999999998,3b
2019-07-15_141051:400,-0.327911,-0.013702,-0.386383,-0.006319,0.001362,0.002467,-30.0,23.5,-28.25,3b
2019-07-15_141051:420,-0.32486,-0.012177,-0.389435,-0.009706000000000001,0.000172,0.004359,-30.0,23.5,-28.25,3b
2019-07-15_141051:440,-0.328949,-0.019318000000000002,-0.394012,-0.012758,-0.0007440000000000001,0.006068,-30.0,23.5,-28.25,3b
2019-07-15_141051:460,-0.329437,-0.026917,-0.396545,-0.014284,-0.00108,0.007136,-29.559998999999998,23.75,-27.870001000000002,3b
2019-07-15_141051:480,-0.33197,-0.027954000000000003,-0.401642,-0.014894,-0.0011099999999999999,0.006404000000000001,-29.559998999999998,23.75,-27.870001000000002,3b
2019-07-15_141051:500,-0.334015,-0.026917,-0.401123,-0.014406,-0.00034700000000000003,0.006007,-28.870001000000002,23.059998999999998,-29.059998999999998,3b
2019-07-15_141051:520,-0.33197,-0.026917,-0.40011599999999997,-0.014344999999999998,1.9e-05,0.004939,-28.870001000000002,23.059998999999998,-29.059998999999998,3b
2019-07-15_141051:540,-0.328949,-0.026917,-0.39502,-0.014497,0.000294,0.0028940000000000003,-28.870001000000002,23.059998999999998,-29.059998999999998,3b
2019-07-15_141051:560,-0.334015,-0.028961,-0.390442,-0.013826,-4.2e-05,0.00088,-28.870001000000002,22.68,-27.870001000000002,3b
2019-07-15_141051:580,-0.34570300000000004,-0.030487,-0.384338,-0.012239,0.00038500000000000003,-0.000737,-28.870001000000002,22.68,-27.870001000000002,3b
2019-07-15_141051:600,-0.342163,-0.029480000000000003,-0.38385,-0.009706000000000001,0.00182,-0.000737,-29.559998999999998,22.25,-28.25,3b
2019-07-15_141051:620,-0.330475,-0.028442000000000002,-0.381805,-0.006441,0.002552,0.000484,-29.559998999999998,22.25,-28.25,3b
2019-07-15_141051:640,-0.326904,-0.026427999999999997,-0.380798,-0.0039380000000000005,0.001301,0.000148,-29.559998999999998,22.25,-28.25,3b
2019-07-15_141051:660,-0.320801,-0.023375999999999997,-0.382812,-0.0016190000000000002,-0.000286,0.00020899999999999998,-29.559998999999998,21.25,-29.5,3b
2019-07-15_141051:680,-0.33300799999999997,-0.020844,-0.381805,0.000365,-0.0027890000000000002,0.00020899999999999998,-29.559998999999998,21.25,-29.5,3b
2019-07-15_141051:700,-0.341125,-0.014740000000000001,-0.381317,0.0015550000000000002,-0.00346,-0.000859,-30.0,22.68,-29.870001000000002,3b
2019-07-15_141051:720,-0.339111,-0.011169,-0.385864,0.002135,-0.0035210000000000003,-0.000676,-30.0,22.68,-29.870001000000002,3b
2019-07-15_141051:740,-0.338593,-0.008118,-0.393005,0.001219,-0.003368,-5e-06,-30.0,22.68,-29.870001000000002,3b
2019-07-15_141051:760,-0.337067,-0.006592,-0.394012,9e-05,-0.0037649999999999997,0.00027,-29.559998999999998,21.559998999999998,-29.059998999999998,3b
2019-07-15_141051:780,-0.340118,-0.007599,-0.391479,-0.0018329999999999998,-0.003979,5.6000000000000006e-05,-29.559998999999998,21.559998999999998,-29.059998999999998,3b
2019-07-15_141051:800,-0.342163,-0.011169,-0.390442,-0.003023,-0.003796,-0.001134,-29.559998999999998,22.68,-29.059998999999998,3b
2019-07-15_141051:820,-0.353333,-0.012695,-0.395538,-0.003114,-0.002911,-0.0019879999999999997,-29.559998999999998,22.68,-29.059998999999998,3b
2019-07-15_141051:840,-0.34570300000000004,-0.009644,-0.396057,-0.002565,-0.001019,-0.001714,-29.559998999999998,22.68,-29.059998999999998,3b
2019-07-15_141051:860,-0.340118,-0.0055850000000000006,-0.394012,-0.002168,0.00035499999999999996,-0.0014089999999999999,-28.870001000000002,21.25,-28.68,3b
2019-07-15_141051:880,-0.333496,-0.001495,-0.390442,-0.0019850000000000002,0.000904,-0.000981,-28.870001000000002,21.25,-28.68,3b
2019-07-15_141051:900,-0.327423,-0.001495,-0.388916,-0.002748,0.0005679999999999999,0.00085,-30.0,22.0,-29.870001000000002,3b
2019-07-15_141051:920,-0.33197,-0.0025329999999999997,-0.388428,-0.00406,-0.0007740000000000001,0.0028940000000000003,-30.0,22.0,-29.870001000000002,3b
2019-07-15_141051:940,-0.339111,-0.006592,-0.388916,-0.005403,-0.001537,0.003078,-30.0,22.0,-29.870001000000002,3b
2019-07-15_141051:960,-0.349792,-0.011687999999999999,-0.388428,-0.006532,-0.000897,0.002711,-29.559998999999998,21.25,-27.5,3b
2019-07-15_141051:980,-0.341125,-0.016753999999999998,-0.38739,-0.0067150000000000005,0.0006900000000000001,0.0024059999999999997,-29.559998999999998,21.25,-27.5,3b
2019-07-15_141052:000,-0.334534,-0.01828,-0.38739,-0.006197,0.001545,0.002376,-30.0,21.25,-30.0,3b
2019-07-15_141052:020,-0.327911,-0.020325,-0.382324,-0.0058,0.0005679999999999999,0.002376,-30.0,21.25,-30.0,3b
2019-07-15_141052:040,-0.326904,-0.024902,-0.382812,-0.005067,-0.0006219999999999999,0.002467,-30.0,21.25,-30.0,3b
2019-07-15_141052:060,-0.335541,-0.027954000000000003,-0.381805,-0.004243,-0.002117,0.002131,-29.559998999999998,21.559998999999998,-29.5,3b
2019-07-15_141052:080,-0.34063699999999997,-0.028442000000000002,-0.38028,-0.002748,-0.002575,0.0010630000000000001,-29.559998999999998,21.559998999999998,-29.5,3b
2019-07-15_141052:100,-0.3508,-0.025908999999999998,-0.390961,-0.001771,-0.001873,-0.000585,-30.370001000000002,22.0,-28.68,3b
2019-07-15_141052:120,-0.34875500000000004,-0.023895,-0.394531,-0.0005200000000000001,-0.0007440000000000001,-0.0019879999999999997,-30.370001000000002,22.0,-28.68,3b
2019-07-15_141052:140,-0.35131799999999996,-0.021332,-0.394531,0.00067,-0.00034700000000000003,-0.003728,-30.370001000000002,22.0,-28.68,3b
2019-07-15_141052:160,-0.345215,-0.01828,-0.389954,0.001341,0.000629,-0.004064,-29.559998999999998,21.559998999999998,-28.25,3b
2019-07-15_141052:180,-0.340118,-0.01828,-0.38385,0.0015550000000000002,0.001484,-0.004582,-29.559998999999998,21.559998999999998,-28.25,3b
2019-07-15_141052:200,-0.323334,-0.014221000000000001,-0.38028,0.002074,0.0018809999999999999,-0.007084999999999999,-30.370001000000002,21.559998999999998,-29.059998999999998,3b
2019-07-15_141052:220,-0.317749,-0.006592,-0.381805,0.002074,0.00035499999999999996,-0.008367,-30.370001000000002,21.559998999999998,-29.059998999999998,3b
2019-07-15_141052:240,-0.32486,-0.002014,-0.390442,0.002013,-0.001843,-0.007878,-30.370001000000002,21.559998999999998,-29.059998999999998,3b
2019-07-15_141052:260,-0.331482,0.0,-0.39502,0.002348,-0.0027890000000000002,-0.007573000000000001,-30.75,21.25,-29.870001000000002,3b
2019-07-15_141052:280,-0.336548,0.001007,-0.397583,0.002684,-0.0030629999999999998,-0.006841,-30.75,21.25,-29.870001000000002,3b
2019-07-15_141052:300,-0.339111,0.001495,-0.398071,0.002135,-0.003002,-0.005162,-30.370001000000002,21.25,-27.5,3b
2019-07-15_141052:320,-0.337067,-0.000488,-0.392487,0.002135,-0.0020559999999999997,-0.003728,-30.370001000000002,21.25,-27.5,3b
2019-07-15_141052:340,-0.338074,0.0035399999999999997,-0.394531,0.001158,-0.0021780000000000002,-0.002721,-30.370001000000002,21.25,-27.5,3b
2019-07-15_141052:360,-0.34063699999999997,0.002014,-0.392487,0.0007610000000000001,-0.001598,-0.0016530000000000002,-31.5,20.870001000000002,-28.25,3b
2019-07-15_141052:380,-0.336548,0.007599,-0.388428,9e-05,-0.000958,-0.001775,-31.5,20.870001000000002,-28.25,3b
2019-07-15_141052:400,-0.330963,0.011169,-0.394531,-0.000978,-0.000683,-0.000981,-30.75,20.870001000000002,-28.68,3b
2019-07-15_141052:420,-0.33197,0.010651,-0.391968,-0.002229,-0.0011099999999999999,0.000667,-30.75,20.870001000000002,-28.68,3b
2019-07-15_141052:440,-0.334534,0.008118,-0.394012,-0.00345,-0.002117,0.0010630000000000001,-30.75,20.870001000000002,-28.68,3b
2019-07-15_141052:460,-0.338074,0.0055850000000000006,-0.394531,-0.00461,-0.00227,0.001185,-31.059998999999998,20.870001000000002,-29.059998999999998,3b
2019-07-15_141052:480,-0.339111,0.005065999999999999,-0.396057,-0.004854,-0.001385,0.001857,-31.059998999999998,20.870001000000002,-29.059998999999998,3b
2019-07-15_141052:500,-0.34063699999999997,0.0030210000000000002,-0.394531,-0.005586,-0.000958,0.002376,-31.059998999999998,20.870001000000002,-27.870001000000002,3b
2019-07-15_141052:520,-0.341644,0.004059,-0.393005,-0.00525,-0.000103,0.00265,-31.059998999999998,20.870001000000002,-27.870001000000002,3b
2019-07-15_141052:540,-0.339111,0.004547,-0.390442,-0.0057079999999999995,0.000782,0.0027719999999999997,-31.059998999999998,20.870001000000002,-27.870001000000002,3b
2019-07-15_141052:560,-0.33758499999999997,0.004059,-0.391968,-0.006258,0.000843,0.0036270000000000004,-30.75,21.559998999999998,-28.68,3b
2019-07-15_141052:580,-0.335541,0.002014,-0.389435,-0.006929,0.000843,0.004817,-30.75,21.559998999999998,-28.68,3b
2019-07-15_141052:600,-0.339111,-0.001495,-0.386383,-0.007234,0.0005070000000000001,0.005672,-30.370001000000002,20.5,-28.68,3b
2019-07-15_141052:620,-0.34265100000000004,-0.0030210000000000002,-0.381317,-0.006837,0.00038500000000000003,0.004542,-30.370001000000002,20.5,-28.68,3b
2019-07-15_141052:640,-0.346222,-0.0055850000000000006,-0.378754,-0.006135,0.0005679999999999999,0.0035659999999999997,-30.370001000000002,20.5,-28.68,3b
2019-07-15_141052:660,-0.34570300000000004,-0.0055850000000000006,-0.381317,-0.004854,0.0005679999999999999,0.0036270000000000004,-31.5,20.059998999999998,-29.059998999999998,3b
2019-07-15_141052:680,-0.34317,-0.001495,-0.380798,-0.003542,0.0007509999999999999,0.004481000000000001,-31.5,20.059998999999998,-29.059998999999998,3b
2019-07-15_141052:700,-0.34317,0.0025329999999999997,-0.383331,-0.0028399999999999996,0.000172,0.004481000000000001,-30.75,20.870001000000002,-27.870001000000002,3b
2019-07-15_141052:720,-0.33197,0.004547,-0.380798,-0.002229,-0.0005,0.00442,-30.75,20.870001000000002,-27.870001000000002,3b
2019-07-15_141052:740,-0.3396,0.005065999999999999,-0.38385,-0.002687,-0.001446,0.002467,-30.75,20.870001000000002,-27.870001000000002,3b
2019-07-15_141052:760,-0.334015,0.013213999999999998,-0.380798,-0.0029620000000000002,-0.0016589999999999999,0.0017350000000000002,-30.75,20.870001000000002,-28.68,3b
2019-07-15_141052:780,-0.334015,0.017273,-0.381805,-0.003664,-0.0024530000000000003,0.00381,-30.75,20.870001000000002,-28.68,3b
2019-07-15_141052:800,-0.337067,0.020844,-0.382324,-0.00525,-0.00285,0.006465,-30.75,20.870001000000002,-28.25,3b
2019-07-15_141052:820,-0.338074,0.021851,-0.38028,-0.007265000000000001,-0.003368,0.008937,-30.75,20.870001000000002,-28.25,3b
2019-07-15_141052:840,-0.339111,0.021332,-0.379791,-0.009645,-0.0035210000000000003,0.010584999999999999,-30.75,20.870001000000002,-28.25,3b
2019-07-15_141052:860,-0.338593,0.017273,-0.381805,-0.012086,-0.003796,0.012903999999999999,-31.059998999999998,20.5,-27.5,3b
2019-07-15_141052:880,-0.329437,0.015228,-0.379272,-0.01468,-0.004101,0.014308000000000001,-31.059998999999998,20.5,-27.5,3b
2019-07-15_141052:900,-0.326904,0.011687999999999999,-0.380798,-0.017,-0.005718,0.014979,-30.370001000000002,21.25,-30.370001000000002,3b
2019-07-15_141052:920,-0.32486,0.005065999999999999,-0.377228,-0.0188,-0.00758,0.015224000000000001,-30.370001000000002,21.25,-30.370001000000002,3b
2019-07-15_141052:940,-0.32995599999999997,0.002014,-0.382324,-0.019472,-0.009106,0.014125,-30.370001000000002,21.25,-30.370001000000002,3b
2019-07-15_141052:960,-0.329437,0.0,-0.383331,-0.01938,-0.009564,0.013637,-30.370001000000002,21.25,-28.68,3b
2019-07-15_141052:980,-0.320282,-0.004547,-0.390961,-0.017793,-0.011425,0.014369,-30.370001000000002,21.25,-28.68,3b
2019-07-15_141053:000,-0.32995599999999997,-0.006592,-0.40368699999999996,-0.017122,-0.013194999999999998,0.015253999999999998,-30.370001000000002,21.25,-29.5,3b
2019-07-15_141053:020,-0.335022,-0.008118,-0.40316799999999997,-0.015352000000000001,-0.013531,0.016109000000000002,-30.370001000000002,21.25,-29.5,3b
2019-07-15_141053:040,-0.340118,-0.012177,-0.40774499999999997,-0.013734,-0.011883,0.014979,-30.370001000000002,21.25,-29.5,3b
2019-07-15_141053:060,-0.338074,-0.009125,-0.40774499999999997,-0.011446,-0.009807999999999999,0.012782,-28.870001000000002,20.870001000000002,-31.059998999999998,3b
2019-07-15_141053:080,-0.329437,-0.006072999999999999,-0.40774499999999997,-0.009584,-0.008099,0.011043,-28.870001000000002,20.870001000000002,-31.059998999999998,3b
2019-07-15_141053:100,-0.326385,-0.002014,-0.407227,-0.008454999999999999,-0.007031,0.010402,-28.5,20.870001000000002,-31.059998999999998,3b
2019-07-15_141053:120,-0.322845,-0.001007,-0.404175,-0.007326000000000001,-0.006359,0.010126999999999999,-28.5,20.870001000000002,-31.059998999999998,3b
2019-07-15_141053:140,-0.323334,-0.000488,-0.402161,-0.007112,-0.005657,0.010341,-28.5,20.870001000000002,-31.059998999999998,3b
2019-07-15_141053:160,-0.318268,-0.000488,-0.401123,-0.0068980000000000005,-0.005657,0.011073000000000001,-27.75,21.25,-31.059998999999998,3b
2019-07-15_141053:180,-0.32132,-0.001007,-0.404175,-0.006837,-0.005901,0.011439,-27.75,21.25,-31.059998999999998,3b
2019-07-15_141053:200,-0.315704,-0.000488,-0.40368699999999996,-0.006654,-0.00584,0.011073000000000001,-27.5,20.5,-30.68,3b
2019-07-15_141053:220,-0.315704,-0.0030210000000000002,-0.401642,-0.006197,-0.006176,0.010126999999999999,-27.5,20.5,-30.68,3b
2019-07-15_141053:240,-0.315704,0.0,-0.40368699999999996,-0.006379999999999999,-0.006695,0.009547,-27.5,20.5,-30.68,3b
2019-07-15_141053:260,-0.314178,-0.000488,-0.404694,-0.006197,-0.006573000000000001,0.010005,-27.5,21.25,-32.0,3b
2019-07-15_141053:280,-0.311127,-0.005065999999999999,-0.410797,-0.006593000000000001,-0.0071530000000000005,0.008265,-27.5,21.25,-32.0,3b
2019-07-15_141053:300,-0.311127,-0.0030210000000000002,-0.409271,-0.005922,-0.007702,0.006953,-27.059998999999998,20.5,-32.75,3b
2019-07-15_141053:320,-0.31012,-0.0025329999999999997,-0.411804,-0.006197,-0.008495,0.006801000000000001,-27.059998999999998,20.5,-32.75,3b
2019-07-15_141053:340,-0.307068,-0.004547,-0.41384899999999997,-0.0058,-0.00935,0.006862,-27.059998999999998,20.5,-32.75,3b
2019-07-15_141053:360,-0.314178,-0.0030210000000000002,-0.416382,-0.005464,-0.009807999999999999,0.006282,-27.059998999999998,20.5,-32.75,3b
2019-07-15_141053:380,-0.311646,-0.0035399999999999997,-0.416901,-0.0049759999999999995,-0.00935,0.005733,-27.059998999999998,20.5,-32.75,3b
2019-07-15_141053:400,-0.314697,-0.0025329999999999997,-0.421967,-0.004915,-0.008678,0.004695,-26.68,20.870001000000002,-32.0,3b
2019-07-15_141053:420,-0.312164,-0.001007,-0.423492,-0.004915,-0.008373,0.00442,-26.68,20.870001000000002,-32.0,3b
2019-07-15_141053:440,-0.315704,-0.001495,-0.42453,-0.004854,-0.007548999999999999,0.003963,-26.68,20.870001000000002,-32.0,3b
2019-07-15_141053:460,-0.314178,-0.0025329999999999997,-0.421967,-0.004793,-0.0062369999999999995,0.0032909999999999997,-27.059998999999998,20.870001000000002,-34.0,3b
2019-07-15_141053:480,-0.311127,-0.001495,-0.41943400000000003,-0.004732,-0.005047,0.002742,-27.059998999999998,20.870001000000002,-34.0,3b
2019-07-15_141053:500,-0.306061,0.0,-0.421967,-0.004335,-0.004589,0.002376,-24.870001000000002,20.870001000000002,-32.75,3b
2019-07-15_141053:520,-0.30654899999999996,-0.000488,-0.420441,-0.004121,-0.003857,0.001674,-24.870001000000002,20.870001000000002,-32.75,3b
2019-07-15_141053:540,-0.303528,-0.001007,-0.421967,-0.003725,-0.0037649999999999997,0.00088,-24.870001000000002,20.870001000000002,-32.75,3b
2019-07-15_141053:560,-0.30249000000000004,0.000488,-0.42147799999999996,-0.0034799999999999996,-0.003704,0.000545,-26.68,21.25,-32.75,3b
2019-07-15_141053:580,-0.30300900000000003,0.000488,-0.42147799999999996,-0.003084,-0.003704,0.00020899999999999998,-26.68,21.25,-32.75,3b
2019-07-15_141053:600,-0.304016,0.001495,-0.420959,-0.0025039999999999997,-0.0035210000000000003,-0.00024900000000000004,-26.0,21.25,-33.18,3b
2019-07-15_141053:620,-0.301483,0.004059,-0.421967,-0.001771,-0.002728,5.6000000000000006e-05,-26.0,21.25,-33.18,3b
2019-07-15_141053:640,-0.301483,0.0055850000000000006,-0.42453,-0.001771,-0.00285,0.000331,-26.0,21.25,-33.18,3b
2019-07-15_141053:660,-0.303528,0.006592,-0.423004,-0.0016489999999999999,-0.0027890000000000002,0.000728,-26.0,20.5,-33.560001,3b
2019-07-15_141053:680,-0.301483,0.006592,-0.42248500000000005,-0.001955,-0.00227,0.001185,-26.0,20.5,-33.560001,3b
2019-07-15_141053:700,-0.300964,0.0055850000000000006,-0.421967,-0.0019850000000000002,-0.001934,0.001521,-26.25,20.5,-33.560001,3b
2019-07-15_141053:720,-0.301483,0.006592,-0.420441,-0.001894,-0.001995,0.00207,-26.25,20.5,-33.560001,3b
2019-07-15_141053:740,-0.300476,0.005065999999999999,-0.420959,-0.001955,-0.001598,0.002589,-26.25,20.5,-33.560001,3b
2019-07-15_141053:760,-0.302002,0.007111,-0.421967,-0.002168,-0.00172,0.003016,-25.25,20.870001000000002,-33.560001,3b
2019-07-15_141053:780,-0.300964,0.008118,-0.41995200000000005,-0.0026260000000000003,-0.001843,0.004146,-25.25,20.870001000000002,-33.560001,3b
2019-07-15_141053:800,-0.300964,0.002014,-0.420441,-0.003114,-0.0020559999999999997,0.003749,-25.559998999999998,21.25,-32.75,3b
2019-07-15_141053:820,-0.304016,0.002014,-0.42453,-0.003786,-0.0020559999999999997,0.0025280000000000003,-25.559998999999998,21.25,-32.75,3b
2019-07-15_141053:840,-0.296387,-0.000488,-0.41943400000000003,-0.0038469999999999997,-0.00172,0.003169,-25.559998999999998,21.25,-32.75,3b
2019-07-15_141053:860,-0.29943800000000004,-0.0030210000000000002,-0.421967,-0.0038770000000000002,-0.0023309999999999997,0.002742,-26.25,20.870001000000002,-33.560001,3b
2019-07-15_141053:880,-0.295898,-0.004059,-0.41995200000000005,-0.003542,-0.0023309999999999997,0.001979,-26.25,20.870001000000002,-33.560001,3b
2019-07-15_141053:900,-0.29995700000000003,-0.0025329999999999997,-0.42147799999999996,-0.0025039999999999997,-0.00285,0.00146,-25.559998999999998,19.75,-32.75,3b
2019-07-15_141053:920,-0.301483,-0.002014,-0.41995200000000005,-0.001955,-0.002514,0.001185,-25.559998999999998,19.75,-32.75,3b
2019-07-15_141053:940,-0.29995700000000003,-0.001007,-0.42248500000000005,-0.0008560000000000001,-0.00227,0.001124,-25.559998999999998,19.75,-32.75,3b
2019-07-15_141053:960,-0.29486100000000004,-0.000488,-0.42401099999999997,-0.0005809999999999999,-0.002392,0.00020899999999999998,-26.68,21.559998999999998,-34.0,3b
2019-07-15_141053:980,-0.300964,0.002014,-0.42401099999999997,-0.000429,-0.003307,-0.000585,-26.68,21.559998999999998,-34.0,3b
2019-07-15_141054:000,-0.303528,0.004059,-0.423492,-0.000825,-0.002728,-0.000676,-26.0,21.25,-32.369999,3b
2019-07-15_141054:020,-0.302002,0.001495,-0.423004,-0.000978,-0.0023309999999999997,-6.6e-05,-26.0,21.25,-32.369999,3b
2019-07-15_141054:040,-0.29538000000000003,0.000488,-0.42453,-0.001253,-0.001782,0.000484,-26.0,21.25,-32.369999,3b
2019-07-15_141054:060,-0.29742399999999997,-0.000488,-0.42758199999999996,-0.001375,-0.002239,0.001582,-26.25,21.559998999999998,-33.560001,3b
2019-07-15_141054:080,-0.297913,-0.002014,-0.42605600000000005,-0.001253,-0.002117,0.001918,-26.25,21.559998999999998,-33.560001,3b
2019-07-15_141054:100,-0.29943800000000004,-0.0025329999999999997,-0.425537,-0.000642,-0.001873,0.001674,-24.5,20.5,-32.0,3b
2019-07-15_141054:120,-0.298431,-0.0030210000000000002,-0.423492,-0.000429,-0.001263,0.002009,-24.5,20.5,-32.0,3b
2019-07-15_141054:140,-0.293335,-0.0025329999999999997,-0.421967,-0.000185,-0.0011099999999999999,0.002467,-24.5,20.5,-32.0,3b
2019-07-15_141054:160,-0.29232800000000003,-0.0035399999999999997,-0.421967,-0.000429,-0.001598,0.002711,-25.25,20.870001000000002,-34.0,3b
2019-07-15_141054:180,-0.293854,-0.0030210000000000002,-0.421967,-0.0007030000000000001,-0.00227,0.002254,-25.25,20.870001000000002,-34.0,3b
2019-07-15_141054:200,-0.294373,-0.0025329999999999997,-0.421967,-0.001314,-0.002972,0.001582,-26.25,20.870001000000002,-34.0,3b
2019-07-15_141054:220,-0.29486100000000004,-0.004059,-0.421967,-0.0016190000000000002,-0.003368,0.001521,-26.25,20.870001000000002,-34.0,3b
2019-07-15_141054:240,-0.29486100000000004,-0.005065999999999999,-0.42401099999999997,-0.0017100000000000001,-0.003246,0.001582,-26.25,20.870001000000002,-34.0,3b
2019-07-15_141054:260,-0.29232800000000003,-0.006592,-0.42248500000000005,-0.001314,-0.003399,0.001521,-25.559998999999998,21.25,-32.75,3b
2019-07-15_141054:280,-0.30249000000000004,-0.010651,-0.421967,-0.000185,-0.003643,0.001124,-25.559998999999998,21.25,-32.75,3b
2019-07-15_141054:300,-0.303528,-0.009644,-0.420959,0.000273,-0.003246,0.001185,-27.5,21.559998999999998,-34.0,3b
2019-07-15_141054:320,-0.305054,-0.004059,-0.425018,0.000304,-0.001843,0.001857,-27.5,21.559998999999998,-34.0,3b
2019-07-15_141054:340,-0.300964,-0.006592,-0.423492,0.000212,-0.001202,5.6000000000000006e-05,-27.5,21.559998999999998,-34.0,3b
2019-07-15_141054:360,-0.29538000000000003,-0.001007,-0.427063,-0.000459,-0.000958,-0.001317,-26.0,21.25,-32.75,3b
2019-07-15_141054:380,-0.29180900000000004,0.004547,-0.426544,-0.001161,-0.001598,-6.6e-05,-26.0,21.25,-32.75,3b
2019-07-15_141054:400,-0.291321,0.0035399999999999997,-0.425537,-0.001314,-0.001324,8.7e-05,-25.25,21.559998999999998,-34.0,3b
2019-07-15_141054:420,-0.29538000000000003,0.004547,-0.42453,-0.0023510000000000002,-0.001995,0.00027,-25.25,21.559998999999998,-34.0,3b
2019-07-15_141054:440,-0.293335,0.005065999999999999,-0.425018,-0.003114,-0.001873,0.00146,-25.25,21.559998999999998,-34.0,3b
2019-07-15_141054:460,-0.29180900000000004,0.0055850000000000006,-0.425018,-0.0032670000000000004,-0.001782,0.00207,-25.25,21.559998999999998,-32.369999,3b
2019-07-15_141054:480,-0.29232800000000003,0.007111,-0.42453,-0.003725,-0.002117,0.0025280000000000003,-25.25,21.559998999999998,-32.369999,3b
2019-07-15_141054:500,-0.29284699999999997,0.006072999999999999,-0.42605600000000005,-0.0039380000000000005,-0.0021780000000000002,0.002589,-25.559998999999998,21.25,-34.0,3b
2019-07-15_141054:520,-0.296387,0.004547,-0.42605600000000005,-0.0049759999999999995,-0.0024530000000000003,0.002833,-25.559998999999998,21.25,-34.0,3b
2019-07-15_141054:540,-0.29538000000000003,0.0035399999999999997,-0.427063,-0.005312,-0.0021780000000000002,0.003016,-25.559998999999998,21.25,-34.0,3b
2019-07-15_141054:560,-0.298431,0.001007,-0.42858900000000005,-0.005189,-0.001385,0.003016,-25.25,21.25,-32.369999,3b
2019-07-15_141054:580,-0.296906,-0.000488,-0.42807,-0.004732,-0.001019,0.00323,-25.25,21.25,-32.369999,3b
2019-07-15_141054:600,-0.29486100000000004,-0.0025329999999999997,-0.42807,-0.004335,-0.0007740000000000001,0.0028940000000000003,-25.559998999999998,21.25,-33.560001,3b
2019-07-15_141054:620,-0.29284699999999997,-0.0025329999999999997,-0.427063,-0.003664,-0.000683,0.002711,-25.559998999999998,21.25,-33.560001,3b
2019-07-15_141054:640,-0.293854,-0.000488,-0.426544,-0.003084,-0.000897,0.0025280000000000003,-25.559998999999998,21.25,-33.560001,3b
2019-07-15_141054:660,-0.296906,0.001007,-0.42758199999999996,-0.0028399999999999996,-0.00037799999999999997,0.0024059999999999997,-26.25,20.5,-32.0,3b
2019-07-15_141054:680,-0.293854,0.001495,-0.42758199999999996,-0.0029620000000000002,-0.00034700000000000003,0.002131,-26.25,20.5,-32.0,3b
2019-07-15_141054:700,-0.29486100000000004,0.002014,-0.429108,-0.0032670000000000004,-0.00034700000000000003,0.002254,-25.25,21.559998999999998,-33.18,3b
2019-07-15_141054:720,-0.29284699999999997,0.001007,-0.42858900000000005,-0.00345,-0.000286,0.002315,-25.25,21.559998999999998,-33.18,3b
2019-07-15_141054:740,-0.293335,0.0,-0.42807,-0.003206,-0.00034700000000000003,0.002254,-25.25,21.559998999999998,-33.18,3b
2019-07-15_141054:760,-0.294373,0.000488,-0.42758199999999996,-0.003023,-0.000286,0.002315,-25.25,20.870001000000002,-34.0,3b
2019-07-15_141054:780,-0.294373,0.0,-0.423492,-0.002687,-0.000103,0.00207,-25.25,20.870001000000002,-34.0,3b
2019-07-15_141054:800,-0.28979499999999997,0.002014,-0.423492,-0.002443,-0.000103,0.002254,-25.559998999999998,21.559998999999998,-33.18,3b
2019-07-15_141054:820,-0.29180900000000004,-0.000488,-0.423004,-0.002229,-0.0007440000000000001,0.001796,-25.559998999999998,21.559998999999998,-33.18,3b
2019-07-15_141054:840,-0.29895,0.008636,-0.40063499999999996,-0.002168,-0.001141,0.002254,-25.559998999999998,21.559998999999998,-33.18,3b
2019-07-15_141054:860,-0.298431,0.0055850000000000006,-0.399597,-0.0023510000000000002,-0.001995,0.002589,-26.68,21.25,-32.75,3b
2019-07-15_141054:880,-0.303528,0.007111,-0.402649,-0.0023510000000000002,-0.001934,0.001277,-26.68,21.25,-32.75,3b
2019-07-15_141054:900,-0.300964,0.010162000000000001,-0.406738,-0.00229,-0.001598,0.002315,-26.0,20.870001000000002,-33.560001,3b
2019-07-15_141054:920,-0.304016,0.008118,-0.406738,-0.002748,-0.001385,0.002955,-26.0,20.870001000000002,-33.560001,3b
2019-07-15_141054:940,-0.304535,0.0035399999999999997,-0.40570100000000003,-0.0029620000000000002,-0.000958,0.003474,-26.0,20.870001000000002,-33.560001,3b
2019-07-15_141054:960,-0.304535,0.004059,-0.404175,-0.0029010000000000004,-0.000683,0.003505,-26.0,21.559998999999998,-32.75,3b
2019-07-15_141054:980,-0.300476,0.0030210000000000002,-0.40063499999999996,-0.0028399999999999996,1.9e-05,0.0036880000000000003,-26.0,21.559998999999998,-32.75,3b
2019-07-15_141055:000,-0.29943800000000004,0.002014,-0.40063499999999996,-0.0028399999999999996,1.9e-05,0.003474,-26.0,21.559998999999998,-32.75,3b
2019-07-15_141055:020,-0.296387,0.004547,-0.402161,-0.002779,-4.2e-05,0.002742,-25.25,20.870001000000002,-34.0,3b
2019-07-15_141055:040,-0.297913,0.0035399999999999997,-0.402649,-0.002748,-0.0005610000000000001,0.002589,-25.25,20.870001000000002,-34.0,3b
2019-07-15_141055:060,-0.297913,0.0025329999999999997,-0.402649,-0.0026260000000000003,-0.001202,0.002589,-26.25,21.25,-34.0,3b
2019-07-15_141055:080,-0.300964,0.0035399999999999997,-0.402649,-0.002443,-0.0014759999999999999,0.0024059999999999997,-26.25,21.25,-34.0,3b
2019-07-15_141055:100,-0.300964,0.0030210000000000002,-0.402161,-0.002229,-0.001598,0.002589,-26.0,20.870001000000002,-33.18,3b
2019-07-15_141055:120,-0.300964,0.0030210000000000002,-0.40368699999999996,-0.002229,-0.0014759999999999999,0.002711,-26.0,20.870001000000002,-33.18,3b
2019-07-15_141055:140,-0.300476,0.004059,-0.404175,-0.002168,-0.001263,0.0025280000000000003,-26.0,20.870001000000002,-33.18,3b
2019-07-15_141055:160,-0.301483,0.004547,-0.40368699999999996,-0.0025039999999999997,-0.001598,0.0025280000000000003,-25.25,21.25,-33.560001,3b
2019-07-15_141055:180,-0.30249000000000004,0.005065999999999999,-0.401123,-0.002779,-0.0016589999999999999,0.002376,-25.25,21.25,-33.560001,3b
2019-07-15_141055:200,-0.296387,0.005065999999999999,-0.402161,-0.003023,-0.001385,0.0025280000000000003,-25.25,21.25,-33.560001,3b
2019-07-15_141055:220,-0.29742399999999997,0.0055850000000000006,-0.402649,-0.0033280000000000002,-0.002239,0.0027719999999999997,-26.0,21.25,-32.75,3b
2019-07-15_141055:240,-0.300964,0.0035399999999999997,-0.401123,-0.00345,-0.00227,0.002833,-26.0,21.25,-32.75,3b
2019-07-15_141055:260,-0.30249000000000004,0.004547,-0.404175,-0.0032670000000000004,-0.002239,0.003078,-26.25,21.559998999999998,-34.0,3b
2019-07-15_141055:280,-0.296387,0.004059,-0.401123,-0.0032670000000000004,-0.00227,0.0027719999999999997,-26.25,21.559998999999998,-34.0,3b
2019-07-15_141055:300,-0.296906,0.002014,-0.404694,-0.003084,-0.002392,0.0028940000000000003,-26.25,21.559998999999998,-34.0,3b
2019-07-15_141055:320,-0.29742399999999997,0.005065999999999999,-0.405212,-0.003023,-0.002972,0.003474,-25.559998999999998,20.870001000000002,-32.75,3b
2019-07-15_141055:340,-0.300964,0.005065999999999999,-0.40316799999999997,-0.0028399999999999996,-0.0031850000000000003,0.0032909999999999997,-25.559998999999998,20.870001000000002,-32.75,3b
2019-07-15_141055:360,-0.30654899999999996,0.007599,-0.40570100000000003,-0.003114,-0.002911,0.0035659999999999997,-26.0,21.559998999999998,-32.369999,3b
2019-07-15_141055:380,-0.300476,0.006072999999999999,-0.401642,-0.003786,-0.001995,0.004085,-26.0,21.559998999999998,-32.369999,3b
2019-07-15_141055:400,-0.29895,0.0035399999999999997,-0.405212,-0.004457,-0.001995,0.001918,-26.0,21.559998999999998,-32.369999,3b
2019-07-15_141055:420,-0.29232800000000003,0.0055850000000000006,-0.406219,-0.004518,-0.001843,0.001918,-25.25,20.5,-33.18,3b
2019-07-15_141055:440,-0.29742399999999997,0.001007,-0.404694,-0.004243,-0.0024530000000000003,0.0028940000000000003,-25.25,20.5,-33.18,3b
2019-07-15_141055:460,-0.298431,0.000488,-0.405212,-0.0038469999999999997,-0.0023309999999999997,0.002589,-25.559998999999998,20.870001000000002,-34.75,3b
2019-07-15_141055:480,-0.297913,0.0025329999999999997,-0.404175,-0.003206,-0.002239,0.003169,-25.559998999999998,20.870001000000002,-34.75,3b
2019-07-15_141055:500,-0.293854,0.005065999999999999,-0.406219,-0.002748,-0.0020559999999999997,0.0032909999999999997,-25.559998999999998,20.870001000000002,-34.75,3b
2019-07-15_141055:520,-0.294373,0.0055850000000000006,-0.406219,-0.0032670000000000004,-0.002728,0.0028940000000000003,-26.25,20.870001000000002,-32.369999,3b
2019-07-15_141055:540,-0.293335,0.008118,-0.408752,-0.0038770000000000002,-0.002972,0.00265,-26.25,20.870001000000002,-32.369999,3b
2019-07-15_141055:560,-0.298431,0.007111,-0.409271,-0.004457,-0.003002,0.002589,-25.25,20.5,-33.18,3b
2019-07-15_141055:580,-0.29895,0.004059,-0.409271,-0.004854,-0.002514,0.002009,-25.25,20.5,-33.18,3b
2019-07-15_141055:600,-0.298431,0.0025329999999999997,-0.409271,-0.004671,-0.001995,0.002131,-25.25,20.5,-33.18,3b
2019-07-15_141055:620,-0.29538000000000003,0.0,-0.407227,-0.0029010000000000004,-0.001934,0.002009,-26.0,20.870001000000002,-33.18,3b
2019-07-15_141055:640,-0.29486100000000004,0.0,-0.406219,-0.0029010000000000004,-0.001934,0.002009,-26.0,20.870001000000002,-33.18,3b
2019-07-15_141055:660,-0.295898,0.004547,-0.405212,-0.0023510000000000002,-0.001995,0.00207,-25.559998999999998,20.5,-32.369999,3b
2019-07-15_141055:680,-0.293335,0.008118,-0.404175,-0.001955,-0.002239,0.002254,-25.559998999999998,20.5,-32.369999,3b
2019-07-15_141055:700,-0.294373,0.008118,-0.406219,-0.002229,-0.002392,0.00265,-25.559998999999998,20.5,-32.369999,3b
2019-07-15_141055:720,-0.293854,0.008118,-0.405212,-0.003023,-0.002514,0.002833,-25.559998999999998,21.25,-33.560001,3b
2019-07-15_141055:740,-0.294373,0.005065999999999999,-0.406738,-0.0034799999999999996,-0.002605,0.002742,-25.559998999999998,21.25,-33.560001,3b
2019-07-15_141055:760,-0.295898,0.0030210000000000002,-0.407227,-0.003542,-0.002911,0.002376,-25.25,20.059998999999998,-33.18,3b
2019-07-15_141055:780,-0.295898,0.001495,-0.406738,-0.003145,-0.002728,0.002467,-25.25,20.059998999999998,-33.18,3b
2019-07-15_141055:800,-0.29486100000000004,0.001495,-0.40823400000000004,-0.002443,-0.002667,0.002254,-25.25,20.059998999999998,-33.18,3b
2019-07-15_141055:820,-0.294373,0.0030210000000000002,-0.410278,-0.0016190000000000002,-0.002575,0.002131,-24.870001000000002,21.25,-33.560001,3b
2019-07-15_141055:840,-0.295898,0.006592,-0.410278,-0.001253,-0.002392,0.002254,-24.870001000000002,21.25,-33.560001,3b
2019-07-15_141055:860,-0.293854,0.008118,-0.40976,-0.001253,-0.002117,0.002833,-25.25,20.870001000000002,-32.75,3b
2019-07-15_141055:880,-0.297913,0.010162000000000001,-0.411804,-0.001894,-0.0020559999999999997,0.003078,-25.25,20.870001000000002,-32.75,3b
2019-07-15_141055:900,-0.29538000000000003,0.011687999999999999,-0.409271,-0.002687,-0.001598,0.004298,-25.25,20.870001000000002,-32.75,3b
2019-07-15_141055:920,-0.296387,0.007111,-0.410278,-0.003725,-0.001446,0.0035659999999999997,-25.25,21.25,-34.0,3b
2019-07-15_141055:940,-0.293854,0.0055850000000000006,-0.410278,-0.004457,-0.0006219999999999999,0.002009,-25.25,21.25,-34.0,3b
2019-07-15_141055:960,-0.293335,0.002014,-0.410278,-0.004518,-0.000683,0.0032909999999999997,-25.25,21.25,-33.560001,3b
2019-07-15_141055:980,-0.29180900000000004,-0.001007,-0.409271,-0.0038469999999999997,-0.000897,0.003749,-25.25,21.25,-33.560001,3b
2019-07-15_141056:000,-0.29742399999999997,0.0,-0.410797,-0.003084,-0.000683,0.0035659999999999997,-25.25,21.25,-33.560001,3b
2019-07-15_141056:020,-0.294373,0.001007,-0.407227,-0.002107,-0.0007440000000000001,0.004207,-24.870001000000002,21.559998999999998,-34.0,3b
2019-07-15_141056:040,-0.28979499999999997,0.0035399999999999997,-0.406738,-0.0019850000000000002,-0.0005,0.004359,-24.870001000000002,21.559998999999998,-34.0,3b
2019-07-15_141056:060,-0.28979499999999997,0.004547,-0.407227,-0.002443,-0.0007740000000000001,0.0036270000000000004,-25.25,20.870001000000002,-34.75,3b
2019-07-15_141056:080,-0.293335,0.005065999999999999,-0.40570100000000003,-0.00345,-0.001202,0.003474,-25.25,20.870001000000002,-34.75,3b
2019-07-15_141056:100,-0.29486100000000004,0.002014,-0.408752,-0.004182,-0.001843,0.0033520000000000004,-25.25,20.870001000000002,-34.75,3b
2019-07-15_141056:120,-0.296387,0.0,-0.40774499999999997,-0.004457,-0.0016589999999999999,0.00265,-24.870001000000002,22.0,-33.560001,3b
2019-07-15_141056:140,-0.294373,-0.0030210000000000002,-0.409271,-0.003725,-0.001446,0.0024059999999999997,-24.870001000000002,22.0,-33.560001,3b
2019-07-15_141056:160,-0.293335,-0.0055850000000000006,-0.410278,-0.003023,-0.001598,0.00207,-25.25,20.5,-32.75,3b
2019-07-15_141056:180,-0.29538000000000003,-0.0035399999999999997,-0.408752,-0.002046,-0.001324,0.001521,-25.25,20.5,-32.75,3b
2019-07-15_141056:200,-0.294373,-0.001495,-0.409271,-0.000978,-0.001385,0.001185,-25.25,20.5,-32.75,3b
2019-07-15_141056:220,-0.294373,0.002014,-0.408752,-0.000459,-0.00108,0.0010019999999999999,-25.25,21.559998999999998,-33.560001,3b
2019-07-15_141056:240,-0.29538000000000003,0.0035399999999999997,-0.408752,-0.000368,-0.0005,0.001277,-25.25,21.559998999999998,-33.560001,3b
2019-07-15_141056:260,-0.293335,0.0035399999999999997,-0.409271,-0.000825,-0.000439,0.00088,-24.059998999999998,20.870001000000002,-33.560001,3b
2019-07-15_141056:280,-0.28927600000000003,0.0035399999999999997,-0.406738,-0.001497,-0.000286,0.000392,-24.059998999999998,20.870001000000002,-33.560001,3b
2019-07-15_141056:300,-0.28875700000000004,0.002014,-0.407227,-0.002168,-0.000897,0.00020899999999999998,-24.059998999999998,20.870001000000002,-33.560001,3b
2019-07-15_141056:320,-0.291321,0.002014,-0.407227,-0.002443,-0.001385,-0.000463,-24.870001000000002,20.870001000000002,-34.0,3b
2019-07-15_141056:340,-0.290802,0.0030210000000000002,-0.406738,-0.002229,-0.001598,-0.000859,-24.870001000000002,20.870001000000002,-34.0,3b
2019-07-15_141056:360,-0.288269,0.004547,-0.407227,-0.001955,-0.001843,-0.0009199999999999999,-32.18,20.870001000000002,-34.369999,3b
2019-07-15_141056:380,-0.29284699999999997,0.007111,-0.40823400000000004,-0.001558,-0.002239,-0.000676,-32.18,20.870001000000002,-34.369999,3b
2019-07-15_141056:400,-0.295898,0.008118,-0.410278,-0.001436,-0.0023309999999999997,-0.000524,-32.18,20.870001000000002,-34.369999,3b
2019-07-15_141056:420,-0.29180900000000004,0.011687999999999999,-0.410797,-0.001771,-0.002392,0.000789,-25.25,21.25,-33.18,3b
2019-07-15_141056:440,-0.28979499999999997,0.010651,-0.410797,-0.002382,-0.002392,0.0016129999999999999,-25.25,21.25,-33.18,3b
2019-07-15_141056:460,-0.28979499999999997,0.008636,-0.41333000000000003,-0.0029010000000000004,-0.00227,0.00027,-25.25,20.870001000000002,-34.0,3b
2019-07-15_141056:480,-0.291321,0.010162000000000001,-0.41333000000000003,-0.0032670000000000004,-0.001873,0.000484,-25.25,20.870001000000002,-34.0,3b
2019-07-15_141056:500,-0.288269,0.007599,-0.411285,-0.003084,-0.001782,0.002711,-25.25,20.870001000000002,-34.0,3b
2019-07-15_141056:520,-0.28927600000000003,0.005065999999999999,-0.411804,-0.003114,-0.00172,0.0032909999999999997,-24.870001000000002,21.559998999999998,-32.369999,3b
2019-07-15_141056:540,-0.28875700000000004,0.0055850000000000006,-0.411285,-0.002748,-0.001598,0.003505,-24.870001000000002,21.559998999999998,-32.369999,3b
2019-07-15_141056:560,-0.29284699999999997,0.007111,-0.411285,-0.002687,-0.0016589999999999999,0.004359,-25.559998999999998,20.870001000000002,-34.0,3b
2019-07-15_141056:580,-0.290283,0.007111,-0.409271,-0.0026260000000000003,-0.001324,0.004146,-25.559998999999998,20.870001000000002,-34.0,3b
2019-07-15_141056:600,-0.28775,0.008636,-0.41232299999999994,-0.0034799999999999996,-0.0016589999999999999,0.004146,-25.559998999999998,20.870001000000002,-34.0,3b
2019-07-15_141056:620,-0.287231,0.008118,-0.411285,-0.0038469999999999997,-0.001843,0.004542,-25.25,21.25,-33.560001,3b
2019-07-15_141056:640,-0.28979499999999997,0.006592,-0.412811,-0.004732,-0.002117,0.004481000000000001,-25.25,21.25,-33.560001,3b
2019-07-15_141056:660,-0.293335,0.004059,-0.411804,-0.00461,-0.0021780000000000002,0.004634,-25.559998999999998,21.559998999999998,-34.369999,3b
2019-07-15_141056:680,-0.29486100000000004,0.0035399999999999997,-0.410278,-0.004671,-0.001537,0.004695,-25.559998999999998,21.559998999999998,-34.369999,3b
2019-07-15_141056:700,-0.29284699999999997,0.0035399999999999997,-0.411285,-0.004396,-0.000683,0.004878,-25.559998999999998,21.559998999999998,-34.369999,3b
2019-07-15_141056:720,-0.288269,0.0035399999999999997,-0.411285,-0.004243,-0.0006219999999999999,0.0051530000000000005,-25.25,21.25,-33.18,3b
2019-07-15_141056:740,-0.28775,0.005065999999999999,-0.410278,-0.003999,-0.0005,0.005427,-25.25,21.25,-33.18,3b
2019-07-15_141056:760,-0.28775,0.004059,-0.409271,-0.004274,-0.001202,0.00561,-24.870001000000002,21.559998999999998,-33.560001,3b
2019-07-15_141056:780,-0.28875700000000004,0.002014,-0.410278,-0.004579,-0.001263,0.005214,-24.870001000000002,21.559998999999998,-33.560001,3b
2019-07-15_141056:800,-0.28927600000000003,0.001495,-0.410797,-0.004396,-0.0008349999999999999,0.005031,-24.870001000000002,21.559998999999998,-33.560001,3b
2019-07-15_141056:820,-0.290283,0.001007,-0.412811,-0.004274,-0.001141,0.004634,-25.25,21.25,-34.369999,3b
2019-07-15_141056:840,-0.29180900000000004,0.0025329999999999997,-0.41384899999999997,-0.00406,-0.0011099999999999999,0.004359,-25.25,21.25,-34.369999,3b
2019-07-15_141056:860,-0.293854,0.001495,-0.412811,-0.00406,-0.0006219999999999999,0.004298,-24.870001000000002,21.25,-33.560001,3b
2019-07-15_141056:880,-0.29180900000000004,0.001007,-0.410797,-0.003999,-0.000164,0.004024,-24.870001000000002,21.25,-33.560001,3b
2019-07-15_141056:900,-0.28775,0.0025329999999999997,-0.411285,-0.003725,1.9e-05,0.003749,-24.870001000000002,21.25,-33.560001,3b
2019-07-15_141056:920,-0.28775,0.002014,-0.410278,-0.0036030000000000003,-0.000225,0.0036880000000000003,-24.5,21.25,-34.0,3b
2019-07-15_141056:940,-0.293335,0.0025329999999999997,-0.410278,-0.003206,-0.000683,0.0036270000000000004,-24.5,21.25,-34.0,3b
2019-07-15_141056:960,-0.290802,0.0055850000000000006,-0.40976,-0.003084,-0.000683,0.0042369999999999994,-25.25,20.5,-34.369999,3b
2019-07-15_141056:980,-0.28875700000000004,0.001495,-0.410797,-0.003389,-0.0006219999999999999,0.00381,-25.25,20.5,-34.369999,3b
2019-07-15_141057:000,-0.288269,0.0035399999999999997,-0.412811,-0.003786,-0.0007440000000000001,0.002009,-25.25,20.5,-34.369999,3b
2019-07-15_141057:020,-0.28979499999999997,0.004059,-0.412811,-0.0038469999999999997,-0.00037799999999999997,0.002742,-24.870001000000002,20.870001000000002,-33.18,3b
2019-07-15_141057:040,-0.29232800000000003,0.001007,-0.411285,-0.0038770000000000002,-0.0005610000000000001,0.0035659999999999997,-24.870001000000002,20.870001000000002,-33.18,3b
2019-07-15_141057:060,-0.29232800000000003,0.0,-0.411804,-0.00345,-0.000164,0.003078,-24.870001000000002,20.870001000000002,-34.75,3b
2019-07-15_141057:080,-0.28875700000000004,0.001495,-0.409271,-0.0029010000000000004,0.000172,0.0033520000000000004,-24.870001000000002,20.870001000000002,-34.75,3b
2019-07-15_141057:100,-0.28927600000000003,0.0025329999999999997,-0.410278,-0.0025039999999999997,-0.000225,0.0036270000000000004,-24.870001000000002,20.870001000000002,-34.75,3b
2019-07-15_141057:120,-0.290802,0.0055850000000000006,-0.411804,-0.002687,-0.000164,0.0028940000000000003,-24.870001000000002,21.25,-34.369999,3b
2019-07-15_141057:140,-0.290802,0.0055850000000000006,-0.411804,-0.003084,-0.000225,0.002742,-24.870001000000002,21.25,-34.369999,3b
2019-07-15_141057:160,-0.293854,0.004547,-0.411804,-0.0038469999999999997,-0.000286,0.002742,-24.5,21.25,-34.0,3b
2019-07-15_141057:180,-0.29284699999999997,0.0035399999999999997,-0.410797,-0.004243,1.9e-05,0.00207,-24.5,21.25,-34.0,3b
2019-07-15_141057:200,-0.293854,0.0025329999999999997,-0.41333000000000003,-0.004121,0.000294,0.001979,-24.5,21.25,-34.0,3b
2019-07-15_141057:220,-0.293854,0.001007,-0.412811,-0.004121,0.000629,0.002315,-25.25,20.870001000000002,-33.560001,3b
2019-07-15_141057:240,-0.29486100000000004,0.001007,-0.412811,-0.0039380000000000005,0.000904,0.0021920000000000004,-25.25,20.870001000000002,-33.560001,3b
2019-07-15_141057:260,-0.293335,0.001495,-0.41384899999999997,-0.0033280000000000002,0.0018809999999999999,0.002315,-25.25,21.559998999999998,-32.75,3b
2019-07-15_141057:280,-0.288269,0.0030210000000000002,-0.41232299999999994,-0.0029010000000000004,0.0020329999999999997,0.002315,-25.25,21.559998999999998,-32.75,3b
2019-07-15_141057:300,-0.29538000000000003,0.006592,-0.414337,-0.002779,0.001911,0.002254,-25.25,21.559998999999998,-32.75,3b
2019-07-15_141057:320,-0.302002,0.005065999999999999,-0.41384899999999997,-0.003084,0.0023079999999999997,0.0021920000000000004,-24.870001000000002,21.559998999999998,-33.18,3b
2019-07-15_141057:340,-0.29895,0.007599,-0.41485600000000006,-0.003725,0.003956,0.001521,-24.870001000000002,21.559998999999998,-33.18,3b
2019-07-15_141057:360,-0.301483,0.007111,-0.41384899999999997,-0.004518,0.00481,0.001338,-24.870001000000002,20.870001000000002,-33.18,3b
2019-07-15_141057:380,-0.304016,0.0055850000000000006,-0.406219,-0.00461,0.0053289999999999995,0.001338,-24.870001000000002,20.870001000000002,-33.18,3b
2019-07-15_141057:400,-0.29895,0.0035399999999999997,-0.402161,-0.004457,0.006275,0.001979,-24.870001000000002,20.870001000000002,-33.18,3b
2019-07-15_141057:420,-0.29538000000000003,0.0030210000000000002,-0.401123,-0.00406,0.0060609999999999995,0.002131,-26.0,20.870001000000002,-33.560001,3b
2019-07-15_141057:440,-0.291321,0.004059,-0.396545,-0.0033280000000000002,0.005024,0.001979,-26.0,20.870001000000002,-33.560001,3b
2019-07-15_141057:460,-0.294373,0.0025329999999999997,-0.394531,-0.0029620000000000002,0.0033450000000000003,0.001918,-25.559998999999998,20.5,-33.18,3b
2019-07-15_141057:480,-0.304016,0.005065999999999999,-0.394012,-0.00229,0.0023079999999999997,0.0017350000000000002,-25.559998999999998,20.5,-33.18,3b
2019-07-15_141057:500,-0.307068,0.010162000000000001,-0.39502,-0.0025039999999999997,0.0018809999999999999,0.0021920000000000004,-25.559998999999998,20.5,-33.18,3b
2019-07-15_141057:520,-0.29995700000000003,0.009125,-0.392487,-0.003145,0.001759,0.002711,-26.0,20.870001000000002,-32.75,3b
2019-07-15_141057:540,-0.295898,0.007111,-0.394531,-0.003664,0.000904,0.0010630000000000001,-26.0,20.870001000000002,-32.75,3b
2019-07-15_141057:560,-0.295898,0.007111,-0.397064,-0.0038770000000000002,-0.000164,0.001674,-25.559998999999998,22.0,-34.0,3b
2019-07-15_141057:580,-0.300476,0.0025329999999999997,-0.397583,-0.00345,-0.001202,0.0028940000000000003,-25.559998999999998,22.0,-34.0,3b
2019-07-15_141057:600,-0.304535,0.001007,-0.397583,-0.002443,-0.0016589999999999999,0.0031079999999999997,-25.559998999999998,22.0,-34.0,3b
2019-07-15_141057:620,-0.304016,0.005065999999999999,-0.397583,-0.0016489999999999999,-0.0014759999999999999,0.003505,-24.870001000000002,21.25,-34.0,3b
2019-07-15_141057:640,-0.30300900000000003,0.007111,-0.39859,-0.0016190000000000002,-0.00172,0.00381,-24.870001000000002,21.25,-34.0,3b
2019-07-15_141057:660,-0.305542,0.009125,-0.402161,-0.002687,-0.001873,0.0031079999999999997,-26.25,20.5,-32.68,3b
2019-07-15_141057:680,-0.304535,0.010162000000000001,-0.40368699999999996,-0.00345,-0.002117,0.0034130000000000002,-26.25,20.5,-32.68,3b
2019-07-15_141057:700,-0.304016,0.007599,-0.405212,-0.00461,-0.0020559999999999997,0.0034130000000000002,-26.25,20.5,-32.68,3b
2019-07-15_141057:720,-0.305542,0.007111,-0.404175,-0.005128,-0.001934,0.002955,-26.25,20.870001000000002,-33.5,3b
2019-07-15_141057:740,-0.307068,0.004547,-0.404175,-0.004854,-0.0014759999999999999,0.002833,-26.25,20.870001000000002,-33.5,3b
2019-07-15_141057:760,-0.30654899999999996,0.0025329999999999997,-0.40368699999999996,-0.004457,-0.001019,0.0032909999999999997,-25.559998999999998,20.870001000000002,-32.68,3b
2019-07-15_141057:780,-0.304535,0.0025329999999999997,-0.401123,-0.003725,-0.0006219999999999999,0.0033520000000000004,-25.559998999999998,20.870001000000002,-32.68,3b
2019-07-15_141057:800,-0.301483,0.006072999999999999,-0.399597,-0.003145,-0.001019,0.0032909999999999997,-25.559998999999998,20.870001000000002,-32.68,3b
2019-07-15_141057:820,-0.301483,0.007111,-0.40063499999999996,-0.003114,-0.001202,0.0035659999999999997,-25.559998999999998,20.870001000000002,-32.68,3b
2019-07-15_141057:840,-0.29995700000000003,0.010162000000000001,-0.399109,-0.003542,-0.001537,0.003505,-25.559998999999998,20.870001000000002,-32.68,3b
2019-07-15_141057:860,-0.302002,0.009125,-0.40011599999999997,-0.004182,-0.001843,0.0034130000000000002,-26.68,20.870001000000002,-33.869999,3b
2019-07-15_141057:880,-0.30249000000000004,0.009644,-0.399597,-0.004518,-0.001873,0.0032909999999999997,-26.68,20.870001000000002,-33.869999,3b
2019-07-15_141057:900,-0.301483,0.008118,-0.401123,-0.004671,-0.001385,0.0033520000000000004,-26.68,20.870001000000002,-33.869999,3b
2019-07-15_141057:920,-0.300964,0.007111,-0.40368699999999996,-0.004915,-0.001782,0.0033520000000000004,-25.559998999999998,20.5,-33.060001,3b
2019-07-15_141057:940,-0.300964,0.006592,-0.402161,-0.004579,-0.002117,0.0031079999999999997,-25.559998999999998,20.5,-33.060001,3b
2019-07-15_141057:960,-0.300964,0.007111,-0.404175,-0.004243,-0.001995,0.0031079999999999997,-26.68,20.5,-33.5,3b
2019-07-15_141057:980,-0.302002,0.007111,-0.40368699999999996,-0.00406,-0.0016589999999999999,0.00265,-26.68,20.5,-33.5,3b
2019-07-15_141058:000,-0.302002,0.007111,-0.404694,-0.0036030000000000003,-0.001385,0.002254,-26.68,20.5,-33.5,3b
2019-07-15_141058:020,-0.29895,0.011169,-0.40823400000000004,-0.003725,-0.001141,0.00265,-26.0,20.5,-33.5,3b
2019-07-15_141058:040,-0.29995700000000003,0.008636,-0.407227,-0.003389,-0.001385,0.002009,-26.0,20.5,-33.5,3b
2019-07-15_141058:060,-0.29943800000000004,0.012695,-0.410278,-0.0033280000000000002,-0.000958,0.002589,-26.0,21.25,-33.5,3b
2019-07-15_141058:080,-0.296906,0.011687999999999999,-0.410278,-0.00345,-0.0007440000000000001,0.0021920000000000004,-26.0,21.25,-33.5,3b
2019-07-15_141058:100,-0.29895,0.010162000000000001,-0.41333000000000003,-0.003114,5e-05,0.000606,-26.0,21.25,-33.5,3b
2019-07-15_141058:120,-0.304016,0.014740000000000001,-0.416901,-0.003084,0.0006900000000000001,0.001277,-26.68,21.25,-34.25,3b
2019-07-15_141058:140,-0.306061,0.013213999999999998,-0.41485600000000006,-0.00229,0.002094,0.0031079999999999997,-26.68,21.25,-34.25,3b
2019-07-15_141058:160,-0.311646,0.011169,-0.409271,-0.002229,0.0030399999999999997,0.003078,-25.25,20.5,-32.68,3b
2019-07-15_141058:180,-0.313171,0.014221000000000001,-0.407227,-0.0019850000000000002,0.005695,0.004695,-25.25,20.5,-32.68,3b
2019-07-15_141058:200,-0.305542,0.012695,-0.397583,-0.002443,0.006092,0.00561,-25.25,20.5,-32.68,3b
2019-07-15_141058:220,-0.300964,0.013702,-0.390961,-0.002748,0.006,0.005733,-26.0,20.5,-33.060001,3b
2019-07-15_141058:240,-0.298431,0.011687999999999999,-0.38739,-0.0036030000000000003,0.004475,0.006282,-26.0,20.5,-33.060001,3b
2019-07-15_141058:260,-0.298431,0.009644,-0.385376,-0.0038469999999999997,0.0036200000000000004,0.0065569999999999995,-26.0,20.5,-33.060001,3b
2019-07-15_141058:280,-0.300964,0.006592,-0.38385,-0.004854,0.0010869999999999999,0.00674,-26.68,20.870001000000002,-32.68,3b
2019-07-15_141058:300,-0.296387,0.0030210000000000002,-0.384338,-0.005372999999999999,-0.0007440000000000001,0.006465,-26.68,20.870001000000002,-32.68,3b
2019-07-15_141058:320,-0.29742399999999997,0.001007,-0.386902,-0.005067,-0.001537,0.006465,-26.25,20.059998999999998,-32.369999,3b
2019-07-15_141058:340,-0.304016,0.0,-0.391968,-0.004854,-0.00285,0.006129,-26.25,20.059998999999998,-32.369999,3b
2019-07-15_141058:360,-0.309601,-0.002014,-0.397064,-0.004243,-0.003796,0.005427,-26.25,20.059998999999998,-32.369999,3b
2019-07-15_141058:380,-0.313171,0.0,-0.399109,-0.0039380000000000005,-0.003582,0.004542,-26.0,20.870001000000002,-31.18,3b
2019-07-15_141058:400,-0.308075,0.001007,-0.40063499999999996,-0.003999,-0.002911,0.003749,-26.0,20.870001000000002,-31.18,3b
2019-07-15_141058:420,-0.306061,0.001495,-0.402161,-0.0039380000000000005,-0.0030629999999999998,0.0032909999999999997,-27.059998999999998,20.870001000000002,-32.369999,3b
2019-07-15_141058:440,-0.303528,0.0025329999999999997,-0.402161,-0.004243,-0.002667,0.002254,-27.059998999999998,20.870001000000002,-32.369999,3b
2019-07-15_141058:460,-0.300964,0.0030210000000000002,-0.40316799999999997,-0.003999,-0.0027890000000000002,0.001918,-27.059998999999998,20.870001000000002,-32.369999,3b
2019-07-15_141058:480,-0.307068,0.0025329999999999997,-0.406219,-0.003389,-0.002392,0.000789,-26.68,21.25,-32.75,3b
2019-07-15_141058:500,-0.31012,0.004059,-0.405212,-0.0032670000000000004,-0.0021780000000000002,0.000667,-26.68,21.25,-32.75,3b
2019-07-15_141058:520,-0.305054,0.006592,-0.406219,-0.002382,-0.001141,0.00085,-26.25,20.870001000000002,-33.18,3b
2019-07-15_141058:540,-0.309601,0.011169,-0.404694,-0.002168,-0.0007440000000000001,0.001124,-26.25,20.870001000000002,-33.18,3b
2019-07-15_141058:560,-0.305054,0.010162000000000001,-0.404175,-0.002382,-0.000286,0.001796,-26.68,20.870001000000002,-32.369999,3b
2019-07-15_141058:580,-0.307587,0.012695,-0.404694,-0.002565,5e-05,0.002315,-26.68,20.870001000000002,-32.369999,3b
2019-07-15_141058:600,-0.306061,0.011687999999999999,-0.401642,-0.0032670000000000004,0.00038500000000000003,0.002833,-26.68,20.870001000000002,-32.369999,3b
2019-07-15_141058:620,-0.309601,0.010651,-0.402649,-0.0039380000000000005,0.0005070000000000001,0.00323,-26.25,20.870001000000002,-34.369999,3b
2019-07-15_141058:640,-0.30300900000000003,0.007111,-0.399597,-0.00406,0.000904,0.004085,-26.25,20.870001000000002,-34.369999,3b
2019-07-15_141058:660,-0.300964,0.004547,-0.40063499999999996,-0.004274,0.0011480000000000001,0.00265,-26.25,20.870001000000002,-34.369999,3b
2019-07-15_141058:680,-0.304016,0.006072999999999999,-0.40316799999999997,-0.004396,0.00035499999999999996,0.001521,-26.68,20.5,-32.75,3b
2019-07-15_141058:700,-0.308594,0.004547,-0.402161,-0.00345,0.0005070000000000001,0.0031079999999999997,-26.68,20.5,-32.75,3b
2019-07-15_141058:720,-0.313171,0.0025329999999999997,-0.399597,-0.0026260000000000003,0.000965,0.0033520000000000004,-26.0,20.5,-34.369999,3b
2019-07-15_141058:740,-0.314178,0.0055850000000000006,-0.399109,-0.001955,0.001697,0.003474,-26.0,20.5,-34.369999,3b
2019-07-15_141058:760,-0.30654899999999996,0.008118,-0.394531,-0.001497,0.002277,0.004207,-26.0,20.5,-34.369999,3b
2019-07-15_141058:780,-0.29943800000000004,0.008636,-0.395538,-0.002107,0.001972,0.0036880000000000003,-26.0,20.5,-34.0,3b
2019-07-15_141058:800,-0.302002,0.010651,-0.396545,-0.0028399999999999996,0.000843,0.0032909999999999997,-26.0,20.5,-34.0,3b
2019-07-15_141058:820,-0.308594,0.008636,-0.397583,-0.0039380000000000005,-0.000286,0.003749,-30.75,20.870001000000002,-33.560001,3b
2019-07-15_141058:840,-0.311646,0.005065999999999999,-0.397064,-0.004671,-0.000286,0.003749,-30.75,20.870001000000002,-33.560001,3b
2019-07-15_141058:860,-0.309113,0.0035399999999999997,-0.398071,-0.005128,1.9e-05,0.0031079999999999997,-30.75,20.870001000000002,-33.560001,3b
2019-07-15_141058:880,-0.312164,0.002014,-0.399597,-0.004732,0.00038500000000000003,0.003016,-26.0,21.25,-34.0,3b
2019-07-15_141058:900,-0.312164,0.002014,-0.397583,-0.004396,0.0007509999999999999,0.0028940000000000003,-26.0,21.25,-34.0,3b
2019-07-15_141058:920,-0.316742,0.0025329999999999997,-0.397064,-0.003999,0.0007509999999999999,0.002589,-26.25,21.25,-33.060001,3b
2019-07-15_141058:940,-0.316223,0.0055850000000000006,-0.393005,-0.003542,0.001179,0.002315,-26.25,21.25,-33.060001,3b
2019-07-15_141058:960,-0.312164,0.009125,-0.391479,-0.003542,0.0018809999999999999,0.001918,-26.25,21.25,-33.060001,3b
2019-07-15_141058:980,-0.305054,0.010162000000000001,-0.38739,-0.003725,0.001697,0.001796,-26.25,20.870001000000002,-31.5,3b
2019-07-15_141059:000,-0.304016,0.010651,-0.386902,-0.004243,0.0005679999999999999,0.001857,-26.25,20.870001000000002,-31.5,3b
2019-07-15_141059:020,-0.306061,0.010162000000000001,-0.386383,-0.004274,-0.0008349999999999999,0.001796,-26.25,20.5,-32.369999,3b
2019-07-15_141059:040,-0.308594,0.010651,-0.385376,-0.004518,-0.001843,0.002315,-26.25,20.5,-32.369999,3b
2019-07-15_141059:060,-0.312164,0.010651,-0.390442,-0.004335,-0.002728,0.002742,-26.25,20.5,-32.369999,3b
2019-07-15_141059:080,-0.307587,0.010162000000000001,-0.390961,-0.004121,-0.003399,0.0031079999999999997,-26.68,21.559998999999998,-32.0,3b
2019-07-15_141059:100,-0.307068,0.011687999999999999,-0.393005,-0.004121,-0.00404,0.0033520000000000004,-26.68,21.559998999999998,-32.0,3b
2019-07-15_141059:120,-0.308594,0.011687999999999999,-0.397064,-0.003999,-0.004101,0.003474,-26.0,20.5,-33.18,3b
2019-07-15_141059:140,-0.312164,0.011687999999999999,-0.399109,-0.0039380000000000005,-0.004497999999999999,0.0036270000000000004,-26.0,20.5,-33.18,3b
2019-07-15_141059:160,-0.309601,0.010162000000000001,-0.399597,-0.0038770000000000002,-0.00404,0.003901,-26.0,20.5,-33.18,3b
2019-07-15_141059:180,-0.310638,0.010162000000000001,-0.401123,-0.00345,-0.003796,0.003871,-27.059998999999998,21.559998999999998,-33.18,3b
2019-07-15_141059:200,-0.309113,0.013213999999999998,-0.401642,-0.003725,-0.003857,0.004359,-27.059998999999998,21.559998999999998,-33.18,3b
2019-07-15_141059:220,-0.305054,0.011687999999999999,-0.402161,-0.0038770000000000002,-0.003399,0.004359,-26.0,21.25,-33.560001,3b
2019-07-15_141059:240,-0.303528,0.011169,-0.40316799999999997,-0.004518,-0.0031850000000000003,0.002467,-26.0,21.25,-33.560001,3b
2019-07-15_141059:260,-0.304016,0.011687999999999999,-0.40368699999999996,-0.00461,-0.003124,0.0025280000000000003,-26.0,21.25,-33.560001,3b
2019-07-15_141059:280,-0.31012,0.007111,-0.402649,-0.004274,-0.0031850000000000003,0.004085,-25.559998999999998,20.870001000000002,-32.75,3b
2019-07-15_141059:300,-0.31012,0.006072999999999999,-0.402649,-0.0034799999999999996,-0.0020559999999999997,0.0036880000000000003,-25.559998999999998,20.870001000000002,-32.75,3b
2019-07-15_141059:320,-0.303528,0.009644,-0.402649,-0.0025039999999999997,-0.001598,0.003749,-25.559998999999998,20.5,-32.369999,3b
2019-07-15_141059:340,-0.30249000000000004,0.011169,-0.402161,-0.002107,-0.001446,0.00442,-25.559998999999998,20.5,-32.369999,3b
2019-07-15_141059:360,-0.302002,0.012695,-0.40063499999999996,-0.002229,-0.001598,0.003901,-25.559998999999998,20.5,-32.369999,3b
2019-07-15_141059:380,-0.30300900000000003,0.014221000000000001,-0.401123,-0.002687,-0.0016589999999999999,0.003901,-26.0,20.870001000000002,-33.560001,3b
2019-07-15_141059:400,-0.304535,0.012177,-0.40063499999999996,-0.0038770000000000002,-0.0016589999999999999,0.004359,-26.0,20.870001000000002,-33.560001,3b
2019-07-15_141059:420,-0.30654899999999996,0.007599,-0.401123,-0.004579,-0.001934,0.004085,-25.25,21.25,-32.75,3b
2019-07-15_141059:440,-0.30654899999999996,0.0055850000000000006,-0.40063499999999996,-0.004396,-0.001598,0.0036270000000000004,-25.25,21.25,-32.75,3b
2019-07-15_141059:460,-0.304016,0.004059,-0.40316799999999997,-0.003786,-0.001385,0.003474,-25.25,21.25,-32.75,3b
2019-07-15_141059:480,-0.305542,0.005065999999999999,-0.40316799999999997,-0.0029620000000000002,-0.001263,0.0032909999999999997,-26.25,20.870001000000002,-33.18,3b
2019-07-15_141059:500,-0.306061,0.0055850000000000006,-0.402649,-0.0018329999999999998,-0.00108,0.003078,-26.25,20.870001000000002,-33.18,3b
2019-07-15_141059:520,-0.307068,0.010651,-0.40316799999999997,-0.001222,-0.000897,0.003169,-25.559998999999998,21.25,-34.0,3b
2019-07-15_141059:540,-0.306061,0.012695,-0.399597,-0.001039,-0.0005,0.0034130000000000002,-25.559998999999998,21.25,-34.0,3b
2019-07-15_141059:560,-0.305054,0.012695,-0.40063499999999996,-0.001771,-0.00034700000000000003,0.0036270000000000004,-25.559998999999998,21.25,-34.0,3b
2019-07-15_141059:580,-0.304016,0.012695,-0.399109,-0.0025039999999999997,-0.00034700000000000003,0.003749,-26.25,19.75,-33.18,3b
2019-07-15_141059:600,-0.302002,0.010162000000000001,-0.398071,-0.003114,-0.00037799999999999997,0.003871,-26.25,19.75,-33.18,3b
2019-07-15_141059:620,-0.300964,0.007599,-0.398071,-0.004121,-0.00108,0.003749,-15.25,20.870001000000002,-32.75,3b
2019-07-15_141059:640,-0.302002,0.006072999999999999,-0.399597,-0.004121,-0.001782,0.004146,-15.25,20.870001000000002,-32.75,3b
2019-07-15_141059:660,-0.305542,0.0030210000000000002,-0.40316799999999997,-0.00345,-0.0016589999999999999,0.004085,-15.25,20.870001000000002,-32.75,3b
2019-07-15_141059:680,-0.307068,0.005065999999999999,-0.402161,-0.003145,-0.001446,0.00381,-25.25,20.870001000000002,-34.0,3b
2019-07-15_141059:700,-0.306061,0.0055850000000000006,-0.40368699999999996,-0.0026260000000000003,-0.0007740000000000001,0.003871,-25.25,20.870001000000002,-34.0,3b
2019-07-15_141059:720,-0.306061,0.005065999999999999,-0.402161,-0.0028399999999999996,-0.0006219999999999999,0.003749,-26.0,20.870001000000002,-32.75,3b
2019-07-15_141059:740,-0.305542,0.008636,-0.402649,-0.003084,-0.00034700000000000003,0.003871,-26.0,20.870001000000002,-32.75,3b
2019-07-15_141059:760,-0.304535,0.006072999999999999,-0.40011599999999997,-0.0033280000000000002,-0.000164,0.0036270000000000004,-26.0,20.870001000000002,-32.75,3b
2019-07-15_141059:780,-0.308594,0.007599,-0.399597,-0.003542,-0.00034700000000000003,0.0036880000000000003,-26.25,20.870001000000002,-33.560001,3b
2019-07-15_141059:800,-0.308075,0.006592,-0.396057,-0.00406,0.000172,0.004024,-26.25,20.870001000000002,-33.560001,3b
2019-07-15_141059:820,-0.30654899999999996,0.004059,-0.397064,-0.004579,-0.000103,0.002254,-26.25,20.5,-33.560001,3b
2019-07-15_141059:840,-0.30300900000000003,0.006072999999999999,-0.397583,-0.004457,-0.000103,0.0017350000000000002,-26.25,20.5,-33.560001,3b
2019-07-15_141059:860,-0.301483,0.004547,-0.398071,-0.003999,-0.0007440000000000001,0.0031079999999999997,-26.25,20.5,-33.560001,3b
2019-07-15_141059:880,-0.307068,0.0025329999999999997,-0.397064,-0.003389,-0.00108,0.0033520000000000004,-25.559998999999998,20.870001000000002,-32.68,3b
2019-07-15_141059:900,-0.307587,0.0055850000000000006,-0.396057,-0.003084,-0.001019,0.003474,-25.559998999999998,20.870001000000002,-32.68,3b
2019-07-15_141059:920,-0.304016,0.008118,-0.397064,-0.0028399999999999996,-0.000958,0.003749,-26.0,20.5,-33.060001,3b
2019-07-15_141059:940,-0.304016,0.008636,-0.397583,-0.00345,-0.001263,0.002833,-26.0,20.5,-33.060001,3b
2019-07-15_141059:960,-0.30300900000000003,0.009644,-0.399109,-0.004121,-0.001995,0.002009,-26.0,20.5,-33.060001,3b
2019-07-15_141059:980,-0.306061,0.008636,-0.399109,-0.004915,-0.002117,0.002009,-26.0,21.559998999999998,-33.060001,3b
2019-07-15_141100:000,-0.307068,0.0055850000000000006,-0.399597,-0.004915,-0.0023309999999999997,0.001582,-26.0,21.559998999999998,-33.060001,3b
2019-07-15_141100:020,-0.307587,0.0055850000000000006,-0.401123,-0.00406,-0.0020559999999999997,0.001124,-26.25,20.5,-34.0,3b
2019-07-15_141100:040,-0.307068,0.0055850000000000006,-0.40011599999999997,-0.0032670000000000004,-0.001843,0.00146,-26.25,20.5,-34.0,3b
2019-07-15_141100:060,-0.305054,0.008636,-0.402161,-0.002565,-0.001324,0.001582,-26.25,20.5,-34.0,3b
2019-07-15_141100:080,-0.30300900000000003,0.010162000000000001,-0.40011599999999997,-0.0023510000000000002,-0.0014759999999999999,0.001582,-26.0,20.870001000000002,-32.25,3b
2019-07-15_141100:100,-0.304535,0.012177,-0.40011599999999997,-0.001894,-0.001598,0.001582,-26.0,20.870001000000002,-32.25,3b
2019-07-15_141100:120,-0.304535,0.013702,-0.399597,-0.00229,-0.001324,0.001582,-26.0,20.5,-33.18,3b
2019-07-15_141100:140,-0.307068,0.012695,-0.399109,-0.002779,-0.001446,0.001674,-26.0,20.5,-33.18,3b
2019-07-15_141100:160,-0.303528,0.012695,-0.399597,-0.003084,-0.0014759999999999999,0.001918,-26.0,20.5,-33.18,3b
2019-07-15_141100:180,-0.304535,0.012177,-0.40063499999999996,-0.0033280000000000002,-0.0014759999999999999,0.00207,-26.0,20.870001000000002,-34.0,3b
2019-07-15_141100:200,-0.30300900000000003,0.009644,-0.40011599999999997,-0.003664,-0.0014759999999999999,0.002467,-26.0,20.870001000000002,-34.0,3b
2019-07-15_141100:220,-0.30300900000000003,0.009644,-0.401642,-0.003389,-0.001843,0.002467,-26.0,21.25,-33.18,3b
2019-07-15_141100:240,-0.30300900000000003,0.008118,-0.399109,-0.0029010000000000004,-0.001537,0.0024059999999999997,-26.0,21.25,-33.18,3b
2019-07-15_141100:260,-0.307587,0.009125,-0.402649,-0.0028399999999999996,-0.0014759999999999999,0.0024059999999999997,-26.0,21.25,-33.18,3b
2019-07-15_141100:280,-0.307068,0.010162000000000001,-0.402161,-0.002779,-0.00108,0.002833,-26.25,20.870001000000002,-33.18,3b
2019-07-15_141100:300,-0.30654899999999996,0.010651,-0.402161,-0.0029010000000000004,-0.000897,0.002742,-26.25,20.870001000000002,-33.18,3b
2019-07-15_141100:320,-0.303528,0.010162000000000001,-0.40063499999999996,-0.003145,-0.0006219999999999999,0.002315,-25.559998999999998,20.5,-32.75,3b
2019-07-15_141100:340,-0.30249000000000004,0.011169,-0.401642,-0.0032670000000000004,-0.0008349999999999999,0.002315,-25.559998999999998,20.5,-32.75,3b
2019-07-15_141100:360,-0.309113,0.009125,-0.39859,-0.0034799999999999996,-0.0008349999999999999,0.002315,-25.559998999999998,20.5,-32.75,3b
2019-07-15_141100:380,-0.318756,0.010162000000000001,-0.399109,-0.003664,0.000172,0.001338,-26.0,20.059998999999998,-33.560001,3b
2019-07-15_141100:400,-0.300476,0.013213999999999998,-0.40063499999999996,-0.004335,0.001301,0.001582,-26.0,20.059998999999998,-33.560001,3b
2019-07-15_141100:420,-0.296387,0.010162000000000001,-0.401642,-0.005006,0.001026,0.0012460000000000001,-25.25,20.870001000000002,-32.75,3b
2019-07-15_141100:440,-0.29742399999999997,0.008118,-0.401123,-0.00525,5e-05,0.000728,-25.25,20.870001000000002,-32.75,3b
2019-07-15_141100:460,-0.297913,0.008118,-0.401123,-0.004457,-0.000958,0.002315,-25.25,20.870001000000002,-32.75,3b
2019-07-15_141100:480,-0.307068,0.007111,-0.402649,-0.003023,-0.0011099999999999999,0.00265,-26.0,20.5,-33.18,3b
2019-07-15_141100:500,-0.311646,0.011169,-0.401642,-0.00229,-0.0007740000000000001,0.0034130000000000002,-26.0,20.5,-33.18,3b
2019-07-15_141100:520,-0.308075,0.011687999999999999,-0.399109,-0.002229,-0.000286,0.00442,-26.68,21.25,-32.75,3b
2019-07-15_141100:540,-0.304535,0.013213999999999998,-0.398071,-0.002748,0.00011100000000000001,0.004024,-26.68,21.25,-32.75,3b
2019-07-15_141100:560,-0.305054,0.012695,-0.398071,-0.003542,-0.000225,0.0035659999999999997,-26.68,21.25,-32.75,3b
2019-07-15_141100:580,-0.304535,0.012177,-0.399109,-0.004396,-0.00034700000000000003,0.00381,-25.559998999999998,20.870001000000002,-34.0,3b
2019-07-15_141100:600,-0.307068,0.011169,-0.39859,-0.004579,-0.0007740000000000001,0.003505,-25.559998999999998,20.870001000000002,-34.0,3b
2019-07-15_141100:620,-0.306061,0.009125,-0.399597,-0.004671,-0.0006219999999999999,0.0032909999999999997,-26.68,19.75,-34.0,3b
2019-07-15_141100:640,-0.308075,0.009125,-0.39859,-0.0039380000000000005,-0.0006219999999999999,0.003963,-26.68,19.75,-34.0,3b
2019-07-15_141100:660,-0.304016,0.009644,-0.399109,-0.0032670000000000004,-0.00037799999999999997,0.004359,-26.68,19.75,-34.0,3b
2019-07-15_141100:680,-0.306061,0.011169,-0.39859,-0.003206,-0.0006219999999999999,0.004085,-26.25,20.870001000000002,-33.18,3b
2019-07-15_141100:700,-0.308594,0.011687999999999999,-0.398071,-0.003206,-0.0005610000000000001,0.004207,-26.25,20.870001000000002,-33.18,3b
2019-07-15_141100:720,-0.306061,0.010162000000000001,-0.39859,-0.00345,-0.000164,0.004024,-27.059998999999998,20.5,-33.560001,3b
2019-07-15_141100:740,-0.30654899999999996,0.009644,-0.397583,-0.0039380000000000005,-0.0008349999999999999,0.003749,-27.059998999999998,20.5,-33.560001,3b
2019-07-15_141100:760,-0.304016,0.008118,-0.398071,-0.0038469999999999997,-0.0005610000000000001,0.003016,-27.059998999999998,20.5,-33.560001,3b
2019-07-15_141100:780,-0.304016,0.008636,-0.39859,-0.0038469999999999997,-0.001202,0.0028940000000000003,-26.0,20.5,-32.75,3b
2019-07-15_141100:800,-0.30654899999999996,0.008636,-0.399109,-0.0034799999999999996,-0.001141,0.002833,-26.0,20.5,-32.75,3b
2019-07-15_141100:820,-0.308594,0.008118,-0.40063499999999996,-0.003114,-0.00108,0.002955,-26.0,20.870001000000002,-33.18,3b
2019-07-15_141100:840,-0.307068,0.009125,-0.399109,-0.002779,-0.000958,0.002833,-26.0,20.870001000000002,-33.18,3b
2019-07-15_141100:860,-0.308594,0.009125,-0.40011599999999997,-0.0025039999999999997,-0.0007740000000000001,0.00265,-26.0,20.870001000000002,-33.18,3b
2019-07-15_141100:880,-0.307587,0.009644,-0.40063499999999996,-0.0023510000000000002,-0.0008349999999999999,0.002376,-26.25,20.5,-32.369999,3b
2019-07-15_141100:900,-0.308594,0.011169,-0.399597,-0.002382,-0.0005,0.001918,-26.25,20.5,-32.369999,3b
2019-07-15_141100:920,-0.309113,0.012695,-0.40063499999999996,-0.00229,-0.000164,0.002131,-27.059998999999998,20.870001000000002,-34.369999,3b
2019-07-15_141100:940,-0.308075,0.011169,-0.395538,-0.0025039999999999997,5e-05,0.002711,-27.059998999999998,20.870001000000002,-34.369999,3b
2019-07-15_141100:960,-0.311646,0.009644,-0.397583,-0.0026260000000000003,0.000294,0.002254,-27.059998999999998,20.870001000000002,-34.369999,3b
2019-07-15_141100:980,-0.306061,0.012695,-0.396545,-0.002779,-4.2e-05,0.0028940000000000003,-25.25,20.870001000000002,-33.18,3b
2019-07-15_141101:000,-0.303528,0.008118,-0.393494,-0.0029620000000000002,1.9e-05,0.003016,-25.25,20.870001000000002,-33.18,3b
2019-07-15_141101:020,-0.305054,0.009125,-0.39502,-0.003084,-0.000958,0.000545,-26.25,20.059998999999998,-33.18,3b
2019-07-15_141101:040,-0.301483,0.010651,-0.39502,-0.0028399999999999996,-0.0011099999999999999,0.00146,-26.25,20.059998999999998,-33.18,3b
2019-07-15_141101:060,-0.305054,0.009125,-0.397583,-0.002443,-0.001934,0.0028940000000000003,-26.25,20.059998999999998,-33.18,3b
2019-07-15_141101:080,-0.31012,0.008636,-0.397583,-0.0017100000000000001,-0.0020559999999999997,0.002742,-25.559998999999998,20.5,-32.75,3b
2019-07-15_141101:100,-0.309601,0.010162000000000001,-0.397064,-0.001436,-0.001873,0.003078,-25.559998999999998,20.5,-32.75,3b
2019-07-15_141101:120,-0.30654899999999996,0.011687999999999999,-0.396057,-0.001161,-0.001385,0.00323,-26.0,20.870001000000002,-33.18,3b
2019-07-15_141101:140,-0.30300900000000003,0.013213999999999998,-0.39502,-0.0016489999999999999,-0.001873,0.002742,-26.0,20.870001000000002,-33.18,3b
2019-07-15_141101:160,-0.300964,0.013702,-0.396545,-0.00229,-0.0021780000000000002,0.0027719999999999997,-26.0,20.870001000000002,-33.18,3b
2019-07-15_141101:180,-0.304535,0.011687999999999999,-0.39859,-0.003114,-0.002972,0.0034130000000000002,-26.68,20.870001000000002,-32.0,3b
2019-07-15_141101:200,-0.307587,0.007599,-0.39859,-0.003664,-0.0030629999999999998,0.0033520000000000004,-26.68,20.870001000000002,-32.0,3b
2019-07-15_141101:220,-0.307068,0.005065999999999999,-0.401642,-0.003664,-0.003002,0.0028940000000000003,-26.25,20.5,-34.0,3b
2019-07-15_141101:240,-0.309113,0.004059,-0.40316799999999997,-0.0033280000000000002,-0.002728,0.00323,-26.25,20.5,-34.0,3b
2019-07-15_141101:260,-0.308594,0.004547,-0.40368699999999996,-0.002565,-0.0023309999999999997,0.00323,-26.25,20.5,-34.0,3b
2019-07-15_141101:280,-0.306061,0.006592,-0.40316799999999997,-0.0019850000000000002,-0.00172,0.003016,-25.559998999999998,21.25,-33.18,3b
2019-07-15_141101:300,-0.305054,0.006072999999999999,-0.402649,-0.001894,-0.001782,0.002955,-25.559998999999998,21.25,-33.18,3b
2019-07-15_141101:320,-0.307068,0.007111,-0.401642,-0.001558,-0.00172,0.002742,-26.0,20.5,-33.18,3b
2019-07-15_141101:340,-0.305542,0.008118,-0.401642,-0.001771,-0.001385,0.002467,-26.0,20.5,-33.18,3b
2019-07-15_141101:360,-0.302002,0.009125,-0.401642,-0.001894,-0.001537,0.0025280000000000003,-26.0,20.5,-33.18,3b
2019-07-15_141101:380,-0.301483,0.008636,-0.401642,-0.0019850000000000002,-0.001537,0.002955,-25.559998999999998,20.5,-32.369999,3b
2019-07-15_141101:400,-0.304016,0.007111,-0.402649,-0.002168,-0.0016589999999999999,0.003016,-25.559998999999998,20.5,-32.369999,3b
2019-07-15_141101:420,-0.304535,0.006072999999999999,-0.402649,-0.001955,-0.001843,0.0033520000000000004,-25.559998999999998,20.5,-32.75,3b
2019-07-15_141101:440,-0.305542,0.006592,-0.401123,-0.002046,-0.0016589999999999999,0.003505,-25.559998999999998,20.5,-32.75,3b
2019-07-15_141101:460,-0.305054,0.006072999999999999,-0.401123,-0.00229,-0.00108,0.0035659999999999997,-25.559998999999998,20.5,-32.75,3b
2019-07-15_141101:480,-0.304535,0.006072999999999999,-0.401123,-0.00229,-0.001202,0.00323,-26.25,20.5,-33.18,3b
2019-07-15_141101:500,-0.305054,0.007599,-0.401123,-0.002748,-0.001141,0.003474,-26.25,20.5,-33.18,3b
2019-07-15_141101:520,-0.303528,0.006592,-0.40011599999999997,-0.003145,-0.0007740000000000001,0.003078,-26.25,21.25,-33.18,3b
2019-07-15_141101:540,-0.307068,0.006072999999999999,-0.401123,-0.00345,-0.001202,0.0028940000000000003,-26.25,21.25,-33.18,3b
2019-07-15_141101:560,-0.304535,0.007111,-0.399109,-0.0034799999999999996,-0.000897,0.003505,-26.25,21.25,-33.18,3b
2019-07-15_141101:580,-0.300476,0.0035399999999999997,-0.399109,-0.003664,-0.001019,0.001979,-26.0,21.25,-33.560001,3b
2019-07-15_141101:600,-0.29895,0.0055850000000000006,-0.401123,-0.003786,-0.001324,0.000484,-26.0,21.25,-33.560001,3b
2019-07-15_141101:620,-0.29943800000000004,0.004547,-0.40368699999999996,-0.003114,-0.001598,0.002131,-25.559998999999998,20.5,-34.0,3b
2019-07-15_141101:640,-0.303528,0.004547,-0.404694,-0.003023,-0.001995,0.002131,-25.559998999999998,20.5,-34.0,3b
2019-07-15_141101:660,-0.309113,0.005065999999999999,-0.404694,-0.002107,-0.00172,0.001857,-25.559998999999998,20.5,-34.0,3b
2019-07-15_141101:680,-0.304535,0.009125,-0.405212,-0.001894,-0.0008349999999999999,0.002742,-25.25,20.870001000000002,-34.369999,3b
2019-07-15_141101:700,-0.301483,0.009644,-0.40368699999999996,-0.002046,-0.0005,0.002833,-25.25,20.870001000000002,-34.369999,3b
2019-07-15_141101:720,-0.303528,0.011687999999999999,-0.404694,-0.002748,-0.0007440000000000001,0.0024059999999999997,-25.25,21.25,-33.18,3b
2019-07-15_141101:740,-0.305542,0.010651,-0.40368699999999996,-0.00345,-0.0007440000000000001,0.003016,-25.25,21.25,-33.18,3b
2019-07-15_141101:760,-0.305054,0.009644,-0.401642,-0.0036030000000000003,0.000294,0.0031079999999999997,-25.25,21.25,-33.18,3b
2019-07-15_141101:780,-0.301483,0.006592,-0.40011599999999997,-0.003725,0.000172,0.003078,-26.0,22.0,-34.0,3b
2019-07-15_141101:800,-0.300476,0.006592,-0.39859,-0.003389,0.00011100000000000001,0.003169,-26.0,22.0,-34.0,3b
2019-07-15_141101:820,-0.296387,0.0055850000000000006,-0.397583,-0.003145,-0.0006219999999999999,0.0033520000000000004,-25.559998999999998,21.25,-32.0,3b
2019-07-15_141101:840,-0.298431,0.007111,-0.39859,-0.002779,-0.001446,0.0034130000000000002,-25.559998999999998,21.25,-32.0,3b
2019-07-15_141101:860,-0.301483,0.008118,-0.40011599999999997,-0.002687,-0.001843,0.0031079999999999997,-25.559998999999998,21.25,-32.0,3b
2019-07-15_141101:880,-0.304535,0.009125,-0.401642,-0.002748,-0.001598,0.0033520000000000004,-25.25,21.25,-33.560001,3b
2019-07-15_141101:900,-0.304535,0.009644,-0.401642,-0.003084,-0.001446,0.00323,-25.25,21.25,-33.560001,3b
2019-07-15_141101:920,-0.30300900000000003,0.009644,-0.404175,-0.0033280000000000002,-0.000958,0.0034130000000000002,-26.0,21.25,-34.0,3b
2019-07-15_141101:940,-0.304016,0.010162000000000001,-0.40368699999999996,-0.003664,-0.00108,0.0035659999999999997,-26.0,21.25,-34.0,3b
2019-07-15_141101:960,-0.304016,0.008636,-0.402649,-0.003786,-0.00108,0.0033520000000000004,-26.0,21.25,-34.0,3b
2019-07-15_141101:980,-0.306061,0.007599,-0.402161,-0.003664,-0.0007440000000000001,0.003169,-24.5,20.5,-33.560001,3b
2019-07-15_141102:000,-0.301483,0.007111,-0.399597,-0.003389,-0.001019,0.0032909999999999997,-24.5,20.5,-33.560001,3b
2019-07-15_141102:020,-0.300476,0.0055850000000000006,-0.402161,-0.003023,-0.001202,0.003169,-26.25,20.5,-34.0,3b
2019-07-15_141102:040,-0.300476,0.0055850000000000006,-0.40063499999999996,-0.003084,-0.001324,0.002833,-26.25,20.5,-34.0,3b
2019-07-15_141102:060,-0.301483,0.006592,-0.401123,-0.002107,-0.002117,0.002955,-26.25,20.5,-34.0,3b
2019-07-15_141102:080,-0.30249000000000004,0.006592,-0.40316799999999997,-0.002229,-0.001873,0.002955,-26.68,21.25,-32.0,3b
2019-07-15_141102:100,-0.304535,0.007599,-0.401123,-0.002107,-0.001934,0.0032909999999999997,-26.68,21.25,-32.0,3b
2019-07-15_141102:120,-0.30249000000000004,0.010162000000000001,-0.40316799999999997,-0.002229,-0.0020559999999999997,0.00381,-26.68,20.5,-33.560001,3b
2019-07-15_141102:140,-0.300964,0.007111,-0.401123,-0.003114,-0.001995,0.00207,-26.68,20.5,-33.560001,3b
2019-07-15_141102:160,-0.30300900000000003,0.0055850000000000006,-0.402649,-0.00345,-0.001598,0.001582,-26.68,20.5,-33.560001,3b
2019-07-15_141102:180,-0.302002,0.007111,-0.404694,-0.003114,-0.001537,0.002955,-26.0,20.870001000000002,-33.560001,3b
2019-07-15_141102:200,-0.29995700000000003,0.002014,-0.404694,-0.0028399999999999996,-0.001385,0.003016,-26.0,20.870001000000002,-33.560001,3b
2019-07-15_141102:220,-0.303528,0.002014,-0.404175,-0.0023510000000000002,-0.001324,0.002742,-26.0,20.870001000000002,-33.560001,3b
2019-07-15_141102:240,-0.29943800000000004,0.005065999999999999,-0.40316799999999997,-0.001375,-0.000958,0.003016,-26.25,21.25,-34.369999,3b
2019-07-15_141102:260,-0.29895,0.007599,-0.401642,-0.001375,-0.00108,0.003169,-26.25,21.25,-34.369999,3b
2019-07-15_141102:280,-0.300476,0.008636,-0.40316799999999997,-0.002107,-0.001141,0.0028940000000000003,-25.25,21.25,-32.75,3b
2019-07-15_141102:300,-0.29995700000000003,0.008636,-0.402161,-0.0029620000000000002,-0.0011099999999999999,0.002955,-25.25,21.25,-32.75,3b
2019-07-15_141102:320,-0.308075,0.007599,-0.401642,-0.003664,-0.0011099999999999999,0.0035659999999999997,-25.25,21.25,-33.18,3b
2019-07-15_141102:340,-0.304535,0.004059,-0.404175,-0.003664,0.000172,0.003901,-25.25,21.25,-33.18,3b
2019-07-15_141102:360,-0.300964,0.004059,-0.404175,-0.0034799999999999996,0.00035499999999999996,0.003871,-25.25,21.25,-33.18,3b
2019-07-15_141102:380,-0.29284699999999997,0.002014,-0.402649,-0.0029010000000000004,-0.000103,0.004603,-25.25,21.25,-34.369999,3b
2019-07-15_141102:400,-0.29180900000000004,0.0030210000000000002,-0.401123,-0.002687,-0.000897,0.004542,-25.25,21.25,-34.369999,3b
2019-07-15_141102:420,-0.29995700000000003,0.0025329999999999997,-0.402649,-0.0026260000000000003,-0.001782,0.004359,-25.25,21.25,-34.369999,3b
2019-07-15_141102:440,-0.29995700000000003,0.0030210000000000002,-0.40368699999999996,-0.0023510000000000002,-0.001873,0.004146,-26.68,20.870001000000002,-32.25,3b
2019-07-15_141102:460,-0.303528,0.0025329999999999997,-0.404175,-0.002443,-0.00172,0.0035659999999999997,-26.68,20.870001000000002,-32.25,3b
2019-07-15_141102:480,-0.304016,0.004059,-0.406219,-0.002687,-0.0014759999999999999,0.0033520000000000004,-25.559998999999998,21.25,-33.560001,3b
2019-07-15_141102:500,-0.30249000000000004,0.0030210000000000002,-0.40774499999999997,-0.0029620000000000002,-0.0011099999999999999,0.003016,-25.559998999999998,21.25,-33.560001,3b
2019-07-15_141102:520,-0.304016,0.001495,-0.40774499999999997,-0.0029620000000000002,-0.001019,0.002711,-25.559998999999998,21.25,-33.560001,3b
2019-07-15_141102:540,-0.30654899999999996,0.001495,-0.406738,-0.0032670000000000004,-0.00037799999999999997,0.002467,-26.25,21.559998999999998,-32.75,3b
2019-07-15_141102:560,-0.308075,0.001007,-0.404694,-0.0029010000000000004,0.00035499999999999996,0.002711,-26.25,21.559998999999998,-32.75,3b
2019-07-15_141102:580,-0.302002,0.002014,-0.40368699999999996,-0.002565,0.0011480000000000001,0.002742,-25.559998999999998,21.559998999999998,-33.560001,3b
2019-07-15_141102:600,-0.298431,0.001495,-0.401123,-0.002229,0.000965,0.0027719999999999997,-25.559998999999998,21.559998999999998,-33.560001,3b
2019-07-15_141102:620,-0.298431,0.002014,-0.40011599999999997,-0.002443,0.00035499999999999996,0.002711,-25.559998999999998,21.559998999999998,-33.560001,3b
2019-07-15_141102:640,-0.301483,0.0030210000000000002,-0.40063499999999996,-0.002748,-0.000164,0.00265,-26.68,21.559998999999998,-34.0,3b
2019-07-15_141102:660,-0.304016,0.001495,-0.399597,-0.003023,-0.00034700000000000003,0.002711,-26.68,21.559998999999998,-34.0,3b
2019-07-15_141102:680,-0.303528,0.004059,-0.401642,-0.0029620000000000002,-0.000103,0.002742,-26.68,21.559998999999998,-32.0,3b
2019-07-15_141102:700,-0.304535,0.0030210000000000002,-0.398071,-0.003389,-0.0007440000000000001,0.0034130000000000002,-26.68,21.559998999999998,-32.0,3b
2019-07-15_141102:720,-0.305054,0.001007,-0.399597,-0.003664,-0.000439,0.001857,-26.68,21.559998999999998,-32.0,3b
2019-07-15_141102:740,-0.29995700000000003,0.002014,-0.401642,-0.003725,-0.00037799999999999997,0.001582,-26.25,21.559998999999998,-32.369999,3b
2019-07-15_141102:760,-0.30249000000000004,0.0,-0.402649,-0.003542,-0.0006219999999999999,0.002742,-26.25,21.559998999999998,-32.369999,3b
2019-07-15_141102:780,-0.305542,0.0,-0.402161,-0.003206,-0.001019,0.0028940000000000003,-25.559998999999998,20.5,-32.369999,3b
2019-07-15_141102:800,-0.305542,0.0,-0.401123,-0.0026260000000000003,-0.0007740000000000001,0.0025280000000000003,-25.559998999999998,20.5,-32.369999,3b
2019-07-15_141102:820,-0.301483,0.001007,-0.40011599999999997,-0.002229,-0.000164,0.002711,-25.559998999999998,20.5,-32.369999,3b
2019-07-15_141102:840,-0.302002,0.0030210000000000002,-0.40063499999999996,-0.0023510000000000002,-0.000683,0.002711,-26.0,20.870001000000002,-34.0,3b
2019-07-15_141102:860,-0.29943800000000004,0.004547,-0.40063499999999996,-0.002443,-0.000958,0.002376,-26.0,20.870001000000002,-34.0,3b
2019-07-15_141102:880,-0.30300900000000003,0.007111,-0.402649,-0.003114,-0.001263,0.002376,-25.559998999999998,21.25,-34.369999,3b
2019-07-15_141102:900,-0.30654899999999996,0.004547,-0.402161,-0.0036030000000000003,-0.001385,0.00265,-25.559998999999998,21.25,-34.369999,3b
2019-07-15_141102:920,-0.306061,0.004547,-0.40316799999999997,-0.003725,-0.0006219999999999999,0.0027719999999999997,-25.559998999999998,21.25,-34.369999,3b
2019-07-15_141102:940,-0.30249000000000004,0.0030210000000000002,-0.402161,-0.0039380000000000005,-0.000683,0.002955,-26.0,21.25,-33.18,3b
2019-07-15_141102:960,-0.302002,0.0025329999999999997,-0.402161,-0.003999,-0.00034700000000000003,0.003078,-26.0,21.25,-33.18,3b
2019-07-15_141102:980,-0.304016,0.001495,-0.40368699999999996,-0.003542,-0.0007440000000000001,0.003078,-26.25,21.559998999999998,-33.560001,3b
2019-07-15_141103:000,-0.305054,0.0025329999999999997,-0.401642,-0.0034799999999999996,-0.0005610000000000001,0.003078,-26.25,21.559998999999998,-33.560001,3b
2019-07-15_141103:020,-0.305054,0.0030210000000000002,-0.402161,-0.0036030000000000003,-0.00034700000000000003,0.0031079999999999997,-26.25,21.559998999999998,-33.560001,3b
2019-07-15_141103:040,-0.304016,0.0035399999999999997,-0.402161,-0.003664,-0.000225,0.0028940000000000003,-26.0,22.0,-34.369999,3b
2019-07-15_141103:060,-0.303528,0.0030210000000000002,-0.401123,-0.00406,-0.000164,0.0027719999999999997,-26.0,22.0,-34.369999,3b
2019-07-15_141103:080,-0.303528,0.002014,-0.401642,-0.004121,0.000172,0.0025280000000000003,-26.25,20.870001000000002,-34.369999,3b
2019-07-15_141103:100,-0.304016,0.002014,-0.40011599999999997,-0.004121,-0.000103,0.002589,-26.25,20.870001000000002,-34.369999,3b
2019-07-15_141103:120,-0.306061,0.0025329999999999997,-0.401123,-0.003664,-0.000103,0.002589,-26.25,20.870001000000002,-34.369999,3b
2019-07-15_141103:140,-0.306061,0.004059,-0.40063499999999996,-0.003206,-0.000164,0.002833,-26.25,21.559998999999998,-32.75,3b
2019-07-15_141103:160,-0.304535,0.005065999999999999,-0.399109,-0.003084,1.9e-05,0.0031079999999999997,-26.25,21.559998999999998,-32.75,3b
2019-07-15_141103:180,-0.303528,0.006072999999999999,-0.398071,-0.0028399999999999996,0.000172,0.003016,-26.0,20.870001000000002,-32.75,3b
2019-07-15_141103:200,-0.30300900000000003,0.008118,-0.398071,-0.003389,-0.000225,0.00323,-26.0,20.870001000000002,-32.75,3b
2019-07-15_141103:220,-0.305054,0.008118,-0.398071,-0.003786,-0.0006219999999999999,0.003505,-26.0,20.870001000000002,-32.75,3b
2019-07-15_141103:240,-0.308594,0.008636,-0.401123,-0.00406,-0.0005610000000000001,0.0035659999999999997,-26.0,21.559998999999998,-34.369999,3b
2019-07-15_141103:260,-0.305542,0.008118,-0.397064,-0.004793,-0.000439,0.005,-26.0,21.559998999999998,-34.369999,3b
2019-07-15_141103:280,-0.306061,0.0035399999999999997,-0.398071,-0.005525,-0.0007440000000000001,0.003963,-26.25,22.0,-32.369999,3b
2019-07-15_141103:300,-0.303528,0.007111,-0.398071,-0.0058,-0.0005610000000000001,0.002711,-26.25,22.0,-32.369999,3b
2019-07-15_141103:320,-0.30300900000000003,0.004059,-0.399109,-0.005647,-0.000683,0.0042369999999999994,-26.25,22.0,-32.369999,3b
2019-07-15_141103:340,-0.306061,0.001007,-0.399109,-0.00525,-0.0011099999999999999,0.004298,-26.25,21.25,-33.18,3b
2019-07-15_141103:360,-0.307587,0.0030210000000000002,-0.399109,-0.004579,-0.0005,0.004024,-26.25,21.25,-33.18,3b
2019-07-15_141103:380,-0.304016,0.0055850000000000006,-0.397583,-0.0038770000000000002,-0.000225,0.004207,-26.25,21.559998999999998,-33.560001,3b
2019-07-15_141103:400,-0.303528,0.007111,-0.398071,-0.00406,-0.0006219999999999999,0.0036880000000000003,-26.25,21.559998999999998,-33.560001,3b
2019-07-15_141103:420,-0.304535,0.008636,-0.399597,-0.004396,-0.001202,0.003078,-26.25,21.559998999999998,-33.560001,3b
2019-07-15_141103:440,-0.307587,0.008636,-0.40063499999999996,-0.0049759999999999995,-0.001324,0.00323,-25.559998999999998,21.25,-33.18,3b
2019-07-15_141103:460,-0.310638,0.006592,-0.40063499999999996,-0.005189,-0.001385,0.002955,-25.559998999999998,21.25,-33.18,3b
2019-07-15_141103:480,-0.307068,0.006072999999999999,-0.401642,-0.005128,-0.000897,0.002742,-25.559998999999998,20.870001000000002,-33.560001,3b
2019-07-15_141103:500,-0.305542,0.004059,-0.399597,-0.004579,-0.0007440000000000001,0.0032909999999999997,-25.559998999999998,20.870001000000002,-33.560001,3b
2019-07-15_141103:520,-0.304535,0.0035399999999999997,-0.40063499999999996,-0.0038469999999999997,-0.000683,0.0035659999999999997,-25.559998999999998,20.870001000000002,-33.560001,3b
2019-07-15_141103:540,-0.307587,0.006592,-0.40011599999999997,-0.003114,-0.0007440000000000001,0.003505,-26.0,21.559998999999998,-33.560001,3b
2019-07-15_141103:560,-0.309113,0.008636,-0.399109,-0.002748,-0.0008349999999999999,0.0035659999999999997,-26.0,21.559998999999998,-33.560001,3b
2019-07-15_141103:580,-0.31012,0.010651,-0.399109,-0.002687,-0.000439,0.003749,-26.25,20.870001000000002,-33.18,3b
2019-07-15_141103:600,-0.308594,0.010651,-0.397583,-0.003725,1.9e-05,0.004024,-26.25,20.870001000000002,-33.18,3b
2019-07-15_141103:620,-0.307068,0.009125,-0.397583,-0.004182,-0.000164,0.004207,-26.25,20.870001000000002,-33.18,3b
2019-07-15_141103:640,-0.305054,0.006072999999999999,-0.396057,-0.005006,-0.00034700000000000003,0.004298,-26.0,20.5,-33.560001,3b
2019-07-15_141103:660,-0.306061,0.0035399999999999997,-0.394531,-0.005067,-0.0005610000000000001,0.004207,-26.0,20.5,-33.560001,3b
2019-07-15_141103:680,-0.305054,0.001007,-0.396057,-0.004457,-0.0007740000000000001,0.004085,-25.559998999999998,21.25,-34.0,3b
2019-07-15_141103:700,-0.307068,0.001007,-0.394531,-0.003725,-0.001141,0.004085,-25.559998999999998,21.25,-34.0,3b
2019-07-15_141103:720,-0.307068,0.001007,-0.397064,-0.002779,-0.0011099999999999999,0.003749,-25.559998999999998,21.25,-34.0,3b
2019-07-15_141103:740,-0.307068,0.005065999999999999,-0.397583,-0.002229,-0.001598,0.003505,-25.559998999999998,21.25,-32.68,3b
2019-07-15_141103:760,-0.308594,0.007111,-0.396545,-0.0019850000000000002,-0.001202,0.0036270000000000004,-25.559998999999998,21.25,-32.68,3b
2019-07-15_141103:780,-0.312653,0.006592,-0.397583,-0.002168,-0.001446,0.00323,-26.0,20.870001000000002,-33.869999,3b
2019-07-15_141103:800,-0.307587,0.009125,-0.396057,-0.002687,-0.001446,0.0036270000000000004,-26.0,20.870001000000002,-33.869999,3b
2019-07-15_141103:820,-0.303528,0.004059,-0.394531,-0.003114,-0.0016589999999999999,0.0042369999999999994,-26.0,20.870001000000002,-33.869999,3b
2019-07-15_141103:840,-0.304535,0.0025329999999999997,-0.396545,-0.003145,-0.001873,0.002254,-26.0,20.5,-33.5,3b
2019-07-15_141103:860,-0.29943800000000004,0.004547,-0.397064,-0.003084,-0.001995,0.0024059999999999997,-26.0,20.5,-33.5,3b
2019-07-15_141103:880,-0.30300900000000003,0.002014,-0.399109,-0.002565,-0.002575,0.004085,-33.25,20.5,-33.869999,3b
2019-07-15_141103:900,-0.308594,0.0035399999999999997,-0.398071,-0.001955,-0.002728,0.003901,-33.25,20.5,-33.869999,3b
2019-07-15_141103:920,-0.304535,0.006592,-0.40011599999999997,-0.001253,-0.002728,0.004207,-33.25,20.5,-33.869999,3b
2019-07-15_141103:940,-0.302002,0.009125,-0.399109,-0.001375,-0.0023309999999999997,0.004756,-26.25,21.25,-31.559998999999998,3b
2019-07-15_141103:960,-0.305542,0.009125,-0.401642,-0.002168,-0.0027890000000000002,0.004634,-26.25,21.25,-31.559998999999998,3b
2019-07-15_141103:980,-0.302002,0.009644,-0.401123,-0.003389,-0.003002,0.004359,-26.0,21.559998999999998,-33.560001,3b
2019-07-15_141104:000,-0.307587,0.006592,-0.401642,-0.004854,-0.0027890000000000002,0.004817,-26.0,21.559998999999998,-33.560001,3b
2019-07-15_141104:020,-0.31012,0.0025329999999999997,-0.402161,-0.005647,-0.002605,0.004756,-26.0,21.559998999999998,-33.560001,3b
2019-07-15_141104:040,-0.30654899999999996,-0.000488,-0.401642,-0.005769,-0.002117,0.004359,-24.870001000000002,21.25,-33.18,3b
2019-07-15_141104:060,-0.300476,-0.002014,-0.40063499999999996,-0.005189,-0.001995,0.004298,-24.870001000000002,21.25,-33.18,3b
2019-07-15_141104:080,-0.29895,-0.0030210000000000002,-0.401642,-0.004274,-0.0023309999999999997,0.004207,-26.0,20.5,-34.0,3b
2019-07-15_141104:100,-0.303528,-0.002014,-0.40011599999999997,-0.00345,-0.0027890000000000002,0.003901,-26.0,20.5,-34.0,3b
2019-07-15_141104:120,-0.305054,0.0,-0.402649,-0.0028399999999999996,-0.002667,0.003505,-26.0,20.5,-34.0,3b
2019-07-15_141104:140,-0.305054,0.0030210000000000002,-0.40368699999999996,-0.002382,-0.00227,0.00323,-25.559998999999998,20.059998999999998,-33.18,3b
2019-07-15_141104:160,-0.30249000000000004,0.004547,-0.40368699999999996,-0.0025039999999999997,-0.0021780000000000002,0.002131,-25.559998999999998,20.059998999999998,-33.18,3b
2019-07-15_141104:180,-0.300964,0.0055850000000000006,-0.404694,-0.002382,-0.002117,0.002131,-25.559998999999998,21.25,-35.560001,3b
2019-07-15_141104:200,-0.30249000000000004,0.0025329999999999997,-0.402161,-0.002443,-0.0023309999999999997,0.0021920000000000004,-25.559998999999998,21.25,-35.560001,3b
2019-07-15_141104:220,-0.304016,0.0030210000000000002,-0.405212,-0.0016190000000000002,-0.0020559999999999997,0.002376,-25.559998999999998,21.25,-35.560001,3b
2019-07-15_141104:240,-0.304016,0.006072999999999999,-0.40316799999999997,-0.000825,-0.001598,0.002833,-25.559998999999998,21.559998999999998,-33.560001,3b
2019-07-15_141104:260,-0.30249000000000004,0.007111,-0.40316799999999997,-0.000124,-0.001782,0.0032909999999999997,-25.559998999999998,21.559998999999998,-33.560001,3b
2019-07-15_141104:280,-0.29943800000000004,0.011169,-0.401642,-0.000246,-0.001324,0.003963,-24.870001000000002,21.559998999999998,-34.0,3b
2019-07-15_141104:300,-0.297913,0.011687999999999999,-0.402161,-0.000978,-0.001446,0.005275,-24.870001000000002,21.559998999999998,-34.0,3b
2019-07-15_141104:320,-0.29742399999999997,0.012177,-0.402649,-0.002229,-0.001995,0.005672,-24.870001000000002,21.559998999999998,-34.0,3b
2019-07-15_141104:340,-0.29895,0.011169,-0.404175,-0.003206,-0.0020559999999999997,0.006404000000000001,-26.0,21.25,-33.18,3b
2019-07-15_141104:360,-0.297913,0.008118,-0.406219,-0.004518,-0.0021780000000000002,0.0065260000000000006,-26.0,21.25,-33.18,3b
2019-07-15_141104:380,-0.30249000000000004,0.000488,-0.408752,-0.004793,-0.0016589999999999999,0.004298,-25.559998999999998,21.25,-33.18,3b
2019-07-15_141104:400,-0.301483,0.001007,-0.40823400000000004,-0.004518,-0.001019,0.004542,-25.559998999999998,21.25,-33.18,3b
2019-07-15_141104:420,-0.304016,-0.0025329999999999997,-0.40823400000000004,-0.003542,-0.0005,0.005824,-25.559998999999998,21.25,-33.18,3b
2019-07-15_141104:440,-0.305054,-0.0035399999999999997,-0.407227,-0.0028399999999999996,1.9e-05,0.005214,-24.5,22.25,-33.560001,3b
2019-07-15_141104:460,-0.30249000000000004,0.000488,-0.404175,-0.002107,0.001026,0.004939,-24.5,22.25,-33.560001,3b
2019-07-15_141104:480,-0.29895,0.0035399999999999997,-0.405212,-0.002168,0.001301,0.004603,-25.25,21.25,-34.0,3b
2019-07-15_141104:500,-0.302002,0.0035399999999999997,-0.40063499999999996,-0.002565,0.000904,0.003505,-25.25,21.25,-34.0,3b
2019-07-15_141104:520,-0.303528,0.0035399999999999997,-0.40368699999999996,-0.0034799999999999996,0.000446,0.0028940000000000003,-25.25,21.25,-34.0,3b
2019-07-15_141104:540,-0.304016,0.0025329999999999997,-0.40063499999999996,-0.0038469999999999997,0.000904,0.00323,-25.25,21.559998999999998,-33.560001,3b
2019-07-15_141104:560,-0.306061,-0.000488,-0.40063499999999996,-0.0038770000000000002,0.0005679999999999999,0.0028940000000000003,-25.25,21.559998999999998,-33.560001,3b
2019-07-15_141104:580,-0.304535,-0.001007,-0.399109,-0.003206,0.0007509999999999999,0.002742,-25.559998999999998,21.559998999999998,-34.0,3b
2019-07-15_141104:600,-0.300476,0.0,-0.397064,-0.0025039999999999997,0.000904,0.00265,-25.559998999999998,21.559998999999998,-34.0,3b
2019-07-15_141104:620,-0.29995700000000003,0.000488,-0.398071,-0.001955,0.0005070000000000001,0.002315,-25.559998999999998,21.559998999999998,-34.0,3b
2019-07-15_141104:640,-0.30300900000000003,0.0035399999999999997,-0.40011599999999997,-0.001558,5e-05,0.001979,-24.5,22.68,-33.18,3b
2019-07-15_141104:660,-0.306061,0.007111,-0.40063499999999996,-0.0016190000000000002,-0.00037799999999999997,0.002376,-24.5,22.68,-33.18,3b
2019-07-15_141104:680,-0.309601,0.008636,-0.40011599999999997,-0.0019850000000000002,-0.000286,0.0021920000000000004,-25.25,21.559998999999998,-33.18,3b
2019-07-15_141104:700,-0.306061,0.008118,-0.397064,-0.002687,0.000294,0.001796,-25.25,21.559998999999998,-33.18,3b
2019-07-15_141104:720,-0.30249000000000004,0.007111,-0.399109,-0.0033280000000000002,5e-05,0.00146,-25.25,21.559998999999998,-33.18,3b
2019-07-15_141104:740,-0.302002,0.0055850000000000006,-0.399109,-0.003664,-0.00034700000000000003,0.0010630000000000001,-25.559998999999998,22.0,-33.560001,3b
2019-07-15_141104:760,-0.303528,0.0055850000000000006,-0.399109,-0.0038469999999999997,-0.0007740000000000001,0.000941,-25.559998999999998,22.0,-33.560001,3b
2019-07-15_141104:780,-0.309113,0.0030210000000000002,-0.40011599999999997,-0.003389,-0.000897,0.00085,-25.25,21.559998999999998,-32.75,3b
2019-07-15_141104:800,-0.310638,0.002014,-0.398071,-0.002687,-0.00034700000000000003,0.000392,-25.25,21.559998999999998,-32.75,3b
2019-07-15_141104:820,-0.309113,0.0030210000000000002,-0.399109,-0.002168,-0.000103,0.00027,-25.25,21.559998999999998,-32.75,3b
2019-07-15_141104:840,-0.308075,0.0025329999999999997,-0.399597,-0.0017100000000000001,1.9e-05,0.000392,-24.870001000000002,21.559998999999998,-34.0,3b
2019-07-15_141104:860,-0.31012,0.001007,-0.397064,-0.0016190000000000002,-0.00034700000000000003,0.000606,-24.870001000000002,21.559998999999998,-34.0,3b
2019-07-15_141104:880,-0.305542,0.0,-0.397583,-0.001558,-0.00034700000000000003,0.000484,-25.559998999999998,20.870001000000002,-33.18,3b
2019-07-15_141104:900,-0.306061,-0.009125,-0.402161,-0.001222,-0.001019,-5e-06,-25.559998999999998,20.870001000000002,-33.18,3b
2019-07-15_141104:920,-0.314697,-0.014221000000000001,-0.407227,-0.0007639999999999999,-0.001019,-0.002263,-25.559998999999998,20.870001000000002,-33.18,3b
2019-07-15_141104:940,-0.322845,-0.015747,-0.408752,0.000487,-0.000286,-0.002782,-26.0,20.870001000000002,-33.560001,3b
2019-07-15_141104:960,-0.323334,-0.017273,-0.40570100000000003,0.001738,0.0006900000000000001,-0.002507,-26.0,20.870001000000002,-33.560001,3b
2019-07-15_141104:980,-0.309113,-0.012695,-0.40063499999999996,0.003264,0.000843,-0.00266,-25.559998999999998,20.870001000000002,-32.75,3b
2019-07-15_141105:000,-0.305542,-0.010651,-0.399597,0.003691,0.000843,-0.002172,-25.559998999999998,20.870001000000002,-32.75,3b
2019-07-15_141105:020,-0.29538000000000003,-0.008636,-0.40011599999999997,0.003539,0.000782,-0.0013779999999999999,-25.559998999999998,20.870001000000002,-32.75,3b
2019-07-15_141105:040,-0.298431,-0.008118,-0.404175,0.002409,-0.001202,-0.000798,-25.559998999999998,21.559998999999998,-32.0,3b
2019-07-15_141105:060,-0.315704,-0.006592,-0.401123,0.001097,-0.0014759999999999999,0.0010019999999999999,-25.559998999999998,21.559998999999998,-32.0,3b
2019-07-15_141105:080,-0.316742,-0.008636,-0.39859,-0.000429,0.000629,0.0025280000000000003,-26.25,21.25,-33.18,3b
2019-07-15_141105:100,-0.29538000000000003,-0.013702,-0.390961,-0.001375,0.001911,0.0034130000000000002,-26.25,21.25,-33.18,3b
2019-07-15_141105:120,-0.290283,-0.013213999999999998,-0.389954,-0.0025039999999999997,0.0018809999999999999,0.004207,-26.25,21.25,-33.18,3b
2019-07-15_141105:140,-0.293335,-0.017792,-0.388916,-0.003023,0.001697,0.006068,-26.25,21.559998999999998,-32.0,3b
2019-07-15_141105:160,-0.290802,-0.019318000000000002,-0.386383,-0.00345,0.001362,0.007014,-26.25,21.559998999999998,-32.0,3b
2019-07-15_141105:180,-0.30300900000000003,-0.021332,-0.391968,-0.0038770000000000002,0.001026,0.007808,-26.68,21.559998999999998,-32.75,3b
2019-07-15_141105:200,-0.311646,-0.021851,-0.391968,-0.004274,0.001362,0.00854,-26.68,21.559998999999998,-32.75,3b
2019-07-15_141105:220,-0.315216,-0.022858,-0.391479,-0.004457,0.00243,0.008204000000000001,-26.68,21.559998999999998,-32.75,3b
2019-07-15_141105:240,-0.314178,-0.022369,-0.388916,-0.004457,0.0032840000000000005,0.00793,-26.0,21.559998999999998,-32.75,3b
2019-07-15_141105:260,-0.308594,-0.023895,-0.386383,-0.004243,0.003742,0.007686,-26.0,21.559998999999998,-32.75,3b
2019-07-15_141105:280,-0.29943800000000004,-0.024902,-0.386383,-0.0038770000000000002,0.0036810000000000002,0.007258,-26.25,21.559998999999998,-32.75,3b
2019-07-15_141105:300,-0.29895,-0.025421,-0.390961,-0.002229,0.000294,0.006007,-26.25,21.559998999999998,-32.75,3b
2019-07-15_141105:320,-0.30654899999999996,-0.018799,-0.406738,-0.001161,-0.002972,0.006862,-26.25,21.559998999999998,-32.75,3b
2019-07-15_141105:340,-0.32132,-0.013702,-0.416901,-0.000917,-0.004192,0.007533,-27.059998999999998,22.68,-32.369999,3b
2019-07-15_141105:360,-0.338593,-0.009644,-0.41943400000000003,-0.001894,-0.0030629999999999998,0.0061600000000000005,-27.059998999999998,22.68,-32.369999,3b
2019-07-15_141105:380,-0.3508,-0.008636,-0.415375,-0.002443,-0.001141,0.0051530000000000005,-26.68,22.25,-33.18,3b
2019-07-15_141105:400,-0.33605999999999997,-0.006592,-0.408752,-0.003786,0.005878,0.002711,-26.68,22.25,-33.18,3b
2019-07-15_141105:420,-0.320282,-0.010651,-0.394531,-0.00406,0.008076,0.001338,-26.68,22.25,-33.18,3b
2019-07-15_141105:440,-0.300964,-0.009125,-0.382812,-0.003114,0.008137,0.002711,-25.559998999999998,22.0,-33.560001,3b
2019-07-15_141105:460,-0.291321,-0.009644,-0.37316900000000003,-0.0026260000000000003,0.005939,0.00323,-25.559998999999998,22.0,-33.560001,3b
2019-07-15_141105:480,-0.28979499999999997,-0.012695,-0.37112399999999995,-0.002443,0.004688,0.002467,-27.059998999999998,22.68,-32.0,3b
2019-07-15_141105:500,-0.28674299999999997,-0.009125,-0.375214,-0.0017100000000000001,-0.000103,0.002254,-27.059998999999998,22.68,-32.0,3b
2019-07-15_141105:520,-0.29232800000000003,-0.009644,-0.383331,-0.0016190000000000002,-0.004376,0.002711,-27.059998999999998,22.68,-32.0,3b
2019-07-15_141105:540,-0.30249000000000004,-0.009125,-0.390442,-0.001894,-0.006023,0.002467,-26.25,21.559998999999998,-33.18,3b
2019-07-15_141105:560,-0.314697,-0.007599,-0.397583,-0.00229,-0.007916,0.001979,-26.25,21.559998999999998,-33.18,3b
2019-07-15_141105:580,-0.32486,-0.009125,-0.401123,-0.002229,-0.00758,0.0017350000000000002,-26.25,21.559998999999998,-33.18,3b
2019-07-15_141105:600,-0.323334,-0.008636,-0.40316799999999997,-0.002748,-0.00465,0.000667,-26.0,22.68,-32.75,3b
2019-07-15_141105:620,-0.312164,-0.010162000000000001,-0.402161,-0.002168,-0.003002,8.7e-05,-26.0,22.68,-32.75,3b
2019-07-15_141105:640,-0.30654899999999996,-0.008118,-0.401123,-0.002382,-0.002728,5.6000000000000006e-05,-26.0,22.0,-33.18,3b
2019-07-15_141105:660,-0.30300900000000003,-0.010651,-0.397583,-0.001771,-0.00285,0.00027,-26.0,22.0,-33.18,3b
2019-07-15_141105:680,-0.300964,-0.007111,-0.399597,-0.001497,-0.003124,-0.00024900000000000004,-26.0,21.559998999999998,-32.0,3b
2019-07-15_141105:700,-0.304535,-0.005065999999999999,-0.401123,-0.001253,-0.0037649999999999997,-0.000585,-26.0,21.559998999999998,-32.0,3b
2019-07-15_141105:720,-0.305542,-0.0030210000000000002,-0.40368699999999996,-0.0016190000000000002,-0.003857,-0.000646,-26.0,21.559998999999998,-32.0,3b
2019-07-15_141105:740,-0.309601,-0.001495,-0.405212,-0.0018329999999999998,-0.003704,-0.000646,-25.559998999999998,22.25,-32.369999,3b
2019-07-15_141105:760,-0.310638,-0.000488,-0.40316799999999997,-0.002565,-0.0030629999999999998,-0.000188,-25.559998999999998,22.25,-32.369999,3b
2019-07-15_141105:780,-0.31012,-0.000488,-0.402649,-0.003725,-0.0023309999999999997,0.00027,-25.559998999999998,22.25,-32.369999,3b
2019-07-15_141105:800,-0.309113,-0.0035399999999999997,-0.401642,-0.004732,-0.00172,0.000728,-26.0,22.25,-32.75,3b
2019-07-15_141105:820,-0.309113,-0.0055850000000000006,-0.40063499999999996,-0.005372999999999999,-0.0008349999999999999,0.000545,-26.0,22.25,-32.75,3b
2019-07-15_141105:840,-0.307068,-0.009644,-0.40063499999999996,-0.005922,-0.000958,0.000667,-25.559998999999998,22.0,-32.75,3b
2019-07-15_141105:860,-0.306061,-0.011687999999999999,-0.396057,-0.0057079999999999995,-0.0005610000000000001,0.000392,-25.559998999999998,22.0,-32.75,3b
2019-07-15_141105:880,-0.30654899999999996,-0.013702,-0.397583,-0.005372999999999999,-0.0005610000000000001,-5e-06,-25.559998999999998,22.0,-32.75,3b
2019-07-15_141105:900,-0.304016,-0.014221000000000001,-0.397064,-0.004457,-0.0006219999999999999,-0.000737,-26.68,22.25,-33.18,3b
2019-07-15_141105:920,-0.307068,-0.014740000000000001,-0.39859,-0.003725,-0.000897,-0.001805,-26.68,22.25,-33.18,3b
2019-07-15_141105:940,-0.307587,-0.010162000000000001,-0.40011599999999997,-0.00229,-0.001019,-0.002568,-26.25,21.559998999999998,-33.18,3b
2019-07-15_141105:960,-0.307068,-0.009644,-0.399109,-0.001039,-0.0005610000000000001,-0.002202,-26.25,21.559998999999998,-33.18,3b
2019-07-15_141105:980,-0.313171,-0.004547,-0.401123,-0.000246,-0.0008349999999999999,-0.002568,-26.25,21.559998999999998,-33.18,3b
2019-07-15_141106:000,-0.31012,0.000488,-0.399597,9e-05,-0.0007740000000000001,-0.0016530000000000002,-26.68,22.0,-31.559998999999998,3b
2019-07-15_141106:020,-0.307587,0.0,-0.396545,-0.000185,-0.000286,-0.0014089999999999999,-26.68,22.0,-31.559998999999998,3b
2019-07-15_141106:040,-0.305542,0.004059,-0.399597,-0.001039,-0.000286,-0.002995,-25.25,22.0,-32.75,3b
2019-07-15_141106:060,-0.307587,0.0030210000000000002,-0.399109,-0.001558,-0.000439,-0.00147,-25.25,22.0,-32.75,3b
2019-07-15_141106:080,-0.314178,-0.001007,-0.398071,-0.002107,-0.0007440000000000001,0.000392,-25.25,22.0,-32.75,3b
2019-07-15_141106:100,-0.314697,-0.002014,-0.396057,-0.002565,-0.000225,0.0010019999999999999,-26.25,21.559998999999998,-32.369999,3b
2019-07-15_141106:120,-0.31012,0.0,-0.39502,-0.0025039999999999997,0.00035499999999999996,0.001796,-26.25,21.559998999999998,-32.369999,3b
2019-07-15_141106:140,-0.304535,0.001007,-0.394012,-0.002779,0.00035499999999999996,0.001674,-26.25,22.0,-31.559998999999998,3b
2019-07-15_141106:160,-0.309601,0.0,-0.392487,-0.0034799999999999996,-0.0005,0.001185,-26.25,22.0,-31.559998999999998,3b
2019-07-15_141106:180,-0.30654899999999996,0.001007,-0.39502,-0.0038770000000000002,-0.001263,0.00146,-26.25,22.0,-31.559998999999998,3b
2019-07-15_141106:200,-0.311646,0.001007,-0.395538,-0.004671,-0.001537,0.001918,-27.5,21.559998999999998,-31.18,3b
2019-07-15_141106:220,-0.309113,0.000488,-0.395538,-0.005006,-0.0014759999999999999,0.001338,-27.5,21.559998999999998,-31.18,3b
2019-07-15_141106:240,-0.305054,0.001007,-0.396545,-0.005189,-0.001141,0.000606,-26.68,22.0,-33.18,3b
2019-07-15_141106:260,-0.30249000000000004,0.0025329999999999997,-0.396545,-0.00461,-0.0016589999999999999,0.000453,-26.68,22.0,-33.18,3b
2019-07-15_141106:280,-0.305542,0.0025329999999999997,-0.399109,-0.004732,-0.002575,0.000545,-26.68,22.0,-33.18,3b
2019-07-15_141106:300,-0.310638,0.004547,-0.40011599999999997,-0.004335,-0.002514,0.000331,-26.25,21.25,-33.18,3b
2019-07-15_141106:320,-0.31369,0.007111,-0.399109,-0.004243,-0.001995,0.000453,-26.25,21.25,-33.18,3b
2019-07-15_141106:340,-0.310638,0.009125,-0.40063499999999996,-0.004182,-0.001324,0.000941,-27.059998999999998,20.870001000000002,-31.559998999999998,3b
2019-07-15_141106:360,-0.30654899999999996,0.009644,-0.397064,-0.00461,-0.000897,0.001338,-27.059998999999998,20.870001000000002,-31.559998999999998,3b
2019-07-15_141106:380,-0.307068,0.011169,-0.397583,-0.005006,-0.0007740000000000001,0.001796,-27.059998999999998,20.870001000000002,-31.559998999999998,3b
2019-07-15_141106:400,-0.304535,0.010651,-0.397064,-0.005525,-0.0008349999999999999,0.00265,-27.5,21.25,-32.0,3b
2019-07-15_141106:420,-0.306061,0.009125,-0.397064,-0.006104999999999999,-0.001385,0.003169,-27.5,21.25,-32.0,3b
2019-07-15_141106:440,-0.307068,0.007111,-0.397583,-0.006379999999999999,-0.001446,0.003749,-26.25,21.25,-32.75,3b
2019-07-15_141106:460,-0.30654899999999996,0.0055850000000000006,-0.396545,-0.005983,-0.001598,0.0036270000000000004,-26.25,21.25,-32.75,3b
2019-07-15_141106:480,-0.307587,0.0055850000000000006,-0.40011599999999997,-0.00525,-0.0016589999999999999,0.0036270000000000004,-26.25,21.25,-32.75,3b
2019-07-15_141106:500,-0.309601,0.005065999999999999,-0.40063499999999996,-0.004915,-0.001782,0.004207,-27.059998999999998,21.25,-32.369999,3b
2019-07-15_141106:520,-0.316223,0.0055850000000000006,-0.399597,-0.004518,-0.001385,0.00381,-27.059998999999998,21.25,-32.369999,3b
2019-07-15_141106:540,-0.314178,0.010651,-0.399109,-0.004121,-0.0007440000000000001,0.004481000000000001,-26.25,20.5,-34.0,3b
2019-07-15_141106:560,-0.310638,0.008118,-0.395538,-0.004396,-0.000286,0.0042369999999999994,-26.25,20.5,-34.0,3b
2019-07-15_141106:580,-0.310638,0.007599,-0.397064,-0.004579,-0.000164,0.002254,-26.25,20.5,-34.0,3b
2019-07-15_141106:600,-0.305054,0.010162000000000001,-0.39859,-0.004396,1.9e-05,0.0034130000000000002,-26.68,20.870001000000002,-33.560001,3b
2019-07-15_141106:620,-0.30654899999999996,0.005065999999999999,-0.396057,-0.004335,-0.0005610000000000001,0.004146,-26.68,20.870001000000002,-33.560001,3b
2019-07-15_141106:640,-0.314178,0.0055850000000000006,-0.39502,-0.00406,-0.0008349999999999999,0.004207,-27.059998999999998,21.559998999999998,-32.369999,3b
2019-07-15_141106:660,-0.31012,0.007111,-0.391968,-0.003389,-0.000164,0.005031,-27.059998999999998,21.559998999999998,-32.369999,3b
2019-07-15_141106:680,-0.305542,0.007599,-0.392487,-0.00345,-0.000103,0.004817,-27.059998999999998,21.559998999999998,-32.369999,3b
2019-07-15_141106:700,-0.305054,0.008636,-0.394012,-0.0038770000000000002,-0.0011099999999999999,0.004207,-26.68,20.870001000000002,-33.18,3b
2019-07-15_141106:720,-0.305054,0.009644,-0.395538,-0.004518,-0.001995,0.004024,-26.68,20.870001000000002,-33.18,3b
2019-07-15_141106:740,-0.309601,0.008118,-0.397064,-0.005312,-0.00227,0.004542,-26.68,20.870001000000002,-34.0,3b
2019-07-15_141106:760,-0.312164,0.005065999999999999,-0.397064,-0.005006,-0.002392,0.004481000000000001,-26.68,20.870001000000002,-34.0,3b
2019-07-15_141106:780,-0.310638,0.004547,-0.40011599999999997,-0.004793,-0.00172,0.00381,-26.68,20.870001000000002,-34.0,3b
2019-07-15_141106:800,-0.311127,0.004547,-0.40063499999999996,-0.004274,-0.00108,0.003871,-27.5,21.25,-32.75,3b
2019-07-15_141106:820,-0.31012,0.005065999999999999,-0.399109,-0.0036030000000000003,-0.000897,0.0042369999999999994,-27.5,21.25,-32.75,3b
2019-07-15_141106:840,-0.31012,0.008118,-0.401123,-0.0033280000000000002,-0.000683,0.004085,-26.25,21.25,-32.75,3b
2019-07-15_141106:860,-0.31369,0.011169,-0.39859,-0.003725,-0.0005,0.004756,-26.25,21.25,-32.75,3b
2019-07-15_141106:880,-0.315216,0.011169,-0.397583,-0.004121,0.000172,0.005031,-26.25,21.25,-32.75,3b
2019-07-15_141106:900,-0.312653,0.010651,-0.396545,-0.005006,0.000629,0.00561,-27.5,21.25,-32.369999,3b
2019-07-15_141106:920,-0.31012,0.007111,-0.394531,-0.005861,0.0007509999999999999,0.005763,-27.5,21.25,-32.369999,3b
2019-07-15_141106:940,-0.31012,0.0055850000000000006,-0.394012,-0.005983,0.000294,0.006068,-26.68,21.25,-32.75,3b
2019-07-15_141106:960,-0.313171,0.002014,-0.390961,-0.006502,-0.000103,0.0061600000000000005,-26.68,21.25,-32.75,3b
2019-07-15_141106:980,-0.313171,0.0,-0.391479,-0.006044,-4.2e-05,0.006007,-26.68,21.25,-32.75,3b
2019-07-15_141107:000,-0.309601,-0.000488,-0.392487,-0.005922,-0.000164,0.005488,-27.059998999999998,21.25,-32.0,3b
2019-07-15_141107:020,-0.308594,-0.001495,-0.391968,-0.005525,-0.0006219999999999999,0.004878,-27.059998999999998,21.25,-32.0,3b
2019-07-15_141107:040,-0.308594,0.0,-0.393005,-0.005006,-0.0011099999999999999,0.004603,-26.68,20.870001000000002,-31.559998999999998,3b
2019-07-15_141107:060,-0.310638,0.0,-0.390442,-0.004518,-0.001537,0.0042369999999999994,-26.68,20.870001000000002,-31.559998999999998,3b
2019-07-15_141107:080,-0.311127,0.001007,-0.39502,-0.004274,-0.002117,0.003871,-26.68,20.870001000000002,-31.559998999999998,3b
2019-07-15_141107:100,-0.310638,0.004059,-0.393494,-0.004335,-0.002117,0.004207,-26.0,21.559998999999998,-32.75,3b
2019-07-15_141107:120,-0.311646,0.002014,-0.39502,-0.004457,-0.0021780000000000002,0.0024059999999999997,-26.0,21.559998999999998,-32.75,3b
2019-07-15_141107:140,-0.30654899999999996,0.0055850000000000006,-0.399597,-0.005006,-0.002239,0.001338,-26.0,20.870001000000002,-32.75,3b
2019-07-15_141107:160,-0.307587,0.004059,-0.39859,-0.004793,-0.00227,0.002742,-26.0,20.870001000000002,-32.75,3b
2019-07-15_141107:180,-0.312164,0.001007,-0.39859,-0.00461,-0.0023309999999999997,0.002742,-26.0,20.870001000000002,-32.75,3b
2019-07-15_141107:200,-0.31723,0.002014,-0.397583,-0.003786,-0.001782,0.0034130000000000002,-26.68,21.559998999999998,-32.75,3b
2019-07-15_141107:220,-0.309113,0.0035399999999999997,-0.399109,-0.003145,-0.00108,0.0042369999999999994,-26.68,21.559998999999998,-32.75,3b
2019-07-15_141107:240,-0.306061,0.006592,-0.399597,-0.0033280000000000002,-0.001019,0.003901,-26.68,20.5,-33.560001,3b
2019-07-15_141107:260,-0.307068,0.006592,-0.398071,-0.003999,-0.001263,0.0036270000000000004,-26.68,20.5,-33.560001,3b
2019-07-15_141107:280,-0.309601,0.006072999999999999,-0.397583,-0.004793,-0.001598,0.0032909999999999997,-26.68,20.5,-33.560001,3b
2019-07-15_141107:300,-0.312164,0.0035399999999999997,-0.397583,-0.005403,-0.001263,0.00323,-26.0,20.059998999999998,-32.75,3b
2019-07-15_141107:320,-0.305542,0.0,-0.397064,-0.00525,-0.00108,0.002589,-26.0,20.059998999999998,-32.75,3b
2019-07-15_141107:340,-0.307587,-0.001495,-0.399109,-0.004396,-0.001141,0.001674,-25.559998999999998,20.059998999999998,-32.75,3b
2019-07-15_141107:360,-0.307068,-0.000488,-0.397064,-0.0033280000000000002,-0.001263,0.00146,-25.559998999999998,20.059998999999998,-32.75,3b
2019-07-15_141107:380,-0.307068,0.002014,-0.399109,-0.0023510000000000002,-0.001141,0.001185,-25.559998999999998,20.059998999999998,-32.75,3b
2019-07-15_141107:400,-0.31012,0.004547,-0.398071,-0.001436,-0.001263,0.00088,-26.68,21.25,-33.18,3b
2019-07-15_141107:420,-0.31012,0.009125,-0.397583,-0.001222,-0.001202,0.001185,-26.68,21.25,-33.18,3b
2019-07-15_141107:440,-0.31012,0.010162000000000001,-0.397064,-0.001375,-0.0005610000000000001,0.0012460000000000001,-26.0,20.059998999999998,-33.18,3b
2019-07-15_141107:460,-0.305542,0.011687999999999999,-0.393005,-0.0019850000000000002,-0.0006219999999999999,0.001582,-26.0,20.059998999999998,-33.18,3b
2019-07-15_141107:480,-0.302002,0.010651,-0.393494,-0.0025039999999999997,-0.001263,0.001796,-26.0,20.059998999999998,-33.18,3b
2019-07-15_141107:500,-0.305054,0.010162000000000001,-0.394531,-0.0028399999999999996,-0.002117,0.001857,-26.0,20.870001000000002,-33.560001,3b
2019-07-15_141107:520,-0.308075,0.007599,-0.396057,-0.0029010000000000004,-0.002605,0.002254,-26.0,20.870001000000002,-33.560001,3b
2019-07-15_141107:540,-0.309113,0.007599,-0.396057,-0.0026260000000000003,-0.0027890000000000002,0.002955,-25.559998999999998,20.5,-34.0,3b
2019-07-15_141107:560,-0.307587,0.007111,-0.397064,-0.002382,-0.00285,0.0034130000000000002,-25.559998999999998,20.5,-34.0,3b
2019-07-15_141107:580,-0.307068,0.007599,-0.399109,-0.002168,-0.0023309999999999997,0.003474,-25.559998999999998,20.5,-34.0,3b
2019-07-15_141107:600,-0.308594,0.008636,-0.40011599999999997,-0.0023510000000000002,-0.0027890000000000002,0.0033520000000000004,-26.68,20.870001000000002,-33.18,3b
2019-07-15_141107:620,-0.307587,0.008118,-0.399597,-0.0026260000000000003,-0.002667,0.0036270000000000004,-26.68,20.870001000000002,-33.18,3b
2019-07-15_141107:640,-0.314697,0.007599,-0.401642,-0.003084,-0.002575,0.0034130000000000002,-26.0,20.870001000000002,-32.75,3b
2019-07-15_141107:660,-0.307068,0.008118,-0.397583,-0.0034799999999999996,-0.0023309999999999997,0.003901,-26.0,20.870001000000002,-32.75,3b
2019-07-15_141107:680,-0.304535,0.0035399999999999997,-0.396545,-0.003725,-0.0021780000000000002,0.002833,-26.0,20.870001000000002,-32.75,3b
2019-07-15_141107:700,-0.29995700000000003,0.006592,-0.399597,-0.003725,-0.001934,0.000941,-26.0,20.5,-32.75,3b
2019-07-15_141107:720,-0.300964,0.006072999999999999,-0.401642,-0.0033280000000000002,-0.0027890000000000002,0.0021920000000000004,-26.0,20.5,-32.75,3b
2019-07-15_141107:740,-0.310638,0.005065999999999999,-0.402161,-0.002779,-0.0031850000000000003,0.00265,-26.68,20.870001000000002,-33.18,3b
2019-07-15_141107:760,-0.310638,0.009644,-0.401123,-0.0018329999999999998,-0.002514,0.002742,-26.68,20.870001000000002,-33.18,3b
2019-07-15_141107:780,-0.305542,0.014740000000000001,-0.40063499999999996,-0.001497,-0.001537,0.0036270000000000004,-26.68,20.870001000000002,-33.18,3b
2019-07-15_141107:800,-0.29943800000000004,0.017273,-0.40011599999999997,-0.002107,-0.0014759999999999999,0.003474,-26.0,20.870001000000002,-31.559998999999998,3b
2019-07-15_141107:820,-0.29995700000000003,0.016753999999999998,-0.40011599999999997,-0.003206,-0.001873,0.003078,-26.0,20.870001000000002,-31.559998999999998,3b
2019-07-15_141107:840,-0.29995700000000003,0.013702,-0.40063499999999996,-0.00461,-0.0024530000000000003,0.003474,-26.25,20.870001000000002,-33.18,3b
2019-07-15_141107:860,-0.30300900000000003,0.012177,-0.39859,-0.00525,-0.002911,0.003505,-26.25,20.870001000000002,-33.18,3b
2019-07-15_141107:880,-0.306061,0.007111,-0.40063499999999996,-0.0057079999999999995,-0.0027890000000000002,0.0035659999999999997,-26.25,20.870001000000002,-33.18,3b
2019-07-15_141107:900,-0.30249000000000004,0.005065999999999999,-0.401642,-0.005006,-0.0021780000000000002,0.00381,-27.059998999999998,21.25,-34.75,3b
2019-07-15_141107:920,-0.300476,0.004547,-0.401642,-0.004457,-0.0023309999999999997,0.00381,-27.059998999999998,21.25,-34.75,3b
2019-07-15_141107:940,-0.29943800000000004,0.005065999999999999,-0.402161,-0.0036030000000000003,-0.002605,0.0034130000000000002,-25.559998999999998,20.870001000000002,-32.75,3b
2019-07-15_141107:960,-0.300964,0.006072999999999999,-0.402161,-0.0032670000000000004,-0.002728,0.0031079999999999997,-25.559998999999998,20.870001000000002,-32.75,3b
2019-07-15_141107:980,-0.306061,0.007111,-0.404694,-0.003542,-0.00285,0.0025280000000000003,-25.559998999999998,20.870001000000002,-32.75,3b
2019-07-15_141108:000,-0.304016,0.007111,-0.404694,-0.003542,-0.002392,0.00207,-25.559998999999998,20.870001000000002,-33.560001,3b
2019-07-15_141108:020,-0.302002,0.006072999999999999,-0.404175,-0.003786,-0.002239,0.001857,-25.559998999999998,20.870001000000002,-33.560001,3b
2019-07-15_141108:040,-0.302002,0.005065999999999999,-0.404175,-0.0038469999999999997,-0.002239,0.0016129999999999999,-26.25,21.25,-33.560001,3b
2019-07-15_141108:060,-0.301483,0.005065999999999999,-0.404175,-0.0036030000000000003,-0.001873,0.001674,-26.25,21.25,-33.560001,3b
2019-07-15_141108:080,-0.30300900000000003,0.004547,-0.404175,-0.003206,-0.001873,0.001399,-26.25,21.25,-33.560001,3b
2019-07-15_141108:100,-0.305054,0.007111,-0.404175,-0.002748,-0.001263,0.001185,-25.559998999999998,20.059998999999998,-33.18,3b
2019-07-15_141108:120,-0.305054,0.008636,-0.40368699999999996,-0.0025039999999999997,-0.001202,0.001185,-25.559998999999998,20.059998999999998,-33.18,3b
2019-07-15_141108:140,-0.304535,0.009644,-0.40368699999999996,-0.002687,-0.00108,0.001521,-25.559998999999998,20.870001000000002,-34.0,3b
2019-07-15_141108:160,-0.30249000000000004,0.009125,-0.40063499999999996,-0.0029010000000000004,-0.0006219999999999999,0.0016129999999999999,-25.559998999999998,20.870001000000002,-34.0,3b
2019-07-15_141108:180,-0.29943800000000004,0.008636,-0.401123,-0.003206,-0.000439,0.0012460000000000001,-25.559998999999998,20.870001000000002,-34.0,3b
2019-07-15_141108:200,-0.29895,0.007111,-0.401642,-0.0033280000000000002,-0.0007740000000000001,0.001399,-26.25,20.870001000000002,-33.18,3b
2019-07-15_141108:220,-0.304535,0.006072999999999999,-0.40063499999999996,-0.003084,-0.0011099999999999999,0.001399,-26.25,20.870001000000002,-33.18,3b
2019-07-15_141108:240,-0.30249000000000004,0.009125,-0.401642,-0.0029620000000000002,-0.001202,0.001521,-26.68,20.5,-32.369999,3b
2019-07-15_141108:260,-0.29943800000000004,0.009125,-0.399597,-0.002779,-0.0014759999999999999,0.001918,-26.68,20.5,-32.369999,3b
2019-07-15_141108:280,-0.29995700000000003,0.007599,-0.402161,-0.002687,-0.0016589999999999999,0.000667,-26.68,20.5,-32.369999,3b
2019-07-15_141108:300,-0.29742399999999997,0.011169,-0.404175,-0.002565,-0.001934,-0.00024900000000000004,-25.25,21.25,-32.75,3b
2019-07-15_141108:320,-0.300964,0.009644,-0.405212,-0.0023510000000000002,-0.001995,0.0010630000000000001,-25.25,21.25,-32.75,3b
2019-07-15_141108:340,-0.30654899999999996,0.009125,-0.40570100000000003,-0.0019850000000000002,-0.002117,0.001521,-26.25,20.870001000000002,-32.75,3b
2019-07-15_141108:360,-0.305542,0.011169,-0.404175,-0.001039,-0.001263,0.001521,-26.25,20.870001000000002,-32.75,3b
2019-07-15_141108:380,-0.29943800000000004,0.013702,-0.40368699999999996,-0.000825,-0.0006219999999999999,0.0021920000000000004,-26.25,20.870001000000002,-32.75,3b
2019-07-15_141108:400,-0.296906,0.014740000000000001,-0.402161,-0.001436,-0.001019,0.0024059999999999997,-26.0,21.559998999999998,-34.75,3b
2019-07-15_141108:420,-0.29742399999999997,0.014740000000000001,-0.40011599999999997,-0.002046,-0.00108,0.001796,-26.0,21.559998999999998,-34.75,3b
2019-07-15_141108:440,-0.29943800000000004,0.012695,-0.40316799999999997,-0.002687,-0.0014759999999999999,0.0024059999999999997,-24.5,20.5,-32.75,3b
2019-07-15_141108:460,-0.302002,0.011169,-0.40063499999999996,-0.003023,-0.001934,0.003169,-24.5,20.5,-32.75,3b
2019-07-15_141108:480,-0.29995700000000003,0.008118,-0.40368699999999996,-0.0029620000000000002,-0.00172,0.003078,-24.5,20.5,-32.75,3b
2019-07-15_141108:500,-0.30249000000000004,0.008118,-0.404694,-0.0026260000000000003,-0.001934,0.003078,-26.0,20.870001000000002,-32.75,3b
2019-07-15_141108:520,-0.29943800000000004,0.009125,-0.404694,-0.00229,-0.001934,0.0036270000000000004,-26.0,20.870001000000002,-32.75,3b
2019-07-15_141108:540,-0.301483,0.010162000000000001,-0.406219,-0.002046,-0.001843,0.0035659999999999997,-25.25,21.25,-33.560001,3b
2019-07-15_141108:560,-0.302002,0.009644,-0.405212,-0.002168,-0.001934,0.0035659999999999997,-25.25,21.25,-33.560001,3b
2019-07-15_141108:580,-0.301483,0.010651,-0.405212,-0.00229,-0.001446,0.003749,-25.25,21.25,-33.560001,3b
2019-07-15_141108:600,-0.29895,0.008636,-0.404694,-0.003114,-0.00108,0.0035659999999999997,-25.25,20.870001000000002,-32.75,3b
2019-07-15_141108:620,-0.29895,0.009125,-0.404175,-0.0036030000000000003,-0.001202,0.0036880000000000003,-25.25,20.870001000000002,-32.75,3b
2019-07-15_141108:640,-0.29995700000000003,0.008118,-0.40368699999999996,-0.0036030000000000003,-0.001446,0.003505,-26.0,20.870001000000002,-33.18,3b
2019-07-15_141108:660,-0.29895,0.007599,-0.402161,-0.00345,-0.001202,0.002955,-26.0,20.870001000000002,-33.18,3b
2019-07-15_141108:680,-0.300476,0.007111,-0.404175,-0.0033280000000000002,-0.001263,0.003016,-26.0,20.870001000000002,-33.18,3b
2019-07-15_141108:700,-0.29895,0.006072999999999999,-0.40316799999999997,-0.00345,-0.001202,0.0031079999999999997,-26.0,21.25,-33.18,3b
2019-07-15_141108:720,-0.29995700000000003,0.0055850000000000006,-0.40316799999999997,-0.003145,-0.001141,0.003169,-26.0,21.25,-33.18,3b
2019-07-15_141108:740,-0.298431,0.004059,-0.402649,-0.002779,-0.0014759999999999999,0.001979,-26.0,20.870001000000002,-32.75,3b
2019-07-15_141108:760,-0.29895,0.007599,-0.401642,-0.002443,-0.001995,0.0016129999999999999,-26.0,20.870001000000002,-32.75,3b
2019-07-15_141108:780,-0.298431,0.010162000000000001,-0.40368699999999996,-0.002565,-0.0020559999999999997,0.001674,-26.0,20.870001000000002,-32.75,3b
2019-07-15_141108:800,-0.296906,0.011687999999999999,-0.404175,-0.003084,-0.001995,0.001918,-26.0,20.059998999999998,-32.75,3b
